timestamp,magCalib,accCalib,gyrCalib,sysCalib,accX,accY,accZ,gyrX,gyrY,gyrZ
-0.05891799926757812,2,3,3,3,-9.57,-2,0.58,0.09,-0.02,-0.13
-0.04891800880432129,2,3,3,3,-9.550000000000001,-1.96,0.55,0.09,-0.02,-0.16
-0.03891801834106445,2,3,3,3,-9.58,-1.95,0.46,0.1,-0.09,-0.18
-0.02891802787780762,2,3,3,3,-9.550000000000001,-1.91,0.52,0.11,-0.12,-0.2
-0.01891803741455078,2,3,3,3,-9.58,-1.92,0.5600000000000001,0.11,-0.12,-0.2
-0.008918046951293945,2,3,3,3,-9.58,-1.94,0.59,0.16,-0.1,-0.22
0.001081943511962891,2,3,3,3,-9.58,-1.93,0.61,0.17,-0.09,-0.24
0.01108193397521973,2,3,3,3,-9.6,-1.92,0.53,0.19,-0.09,-0.25
0.02108192443847656,2,3,3,3,-9.6,-1.92,0.53,0.15,-0.06,-0.25
0.0310819149017334,2,3,3,3,-9.59,-1.9,0.58,0.15,-0.06,-0.25
0.04108190536499023,2,3,3,3,-9.58,-1.94,0.61,0.13,-0.09,-0.24
0.05108213424682617,2,3,3,3,-9.56,-1.95,0.57,0.12,-0.06,-0.28
0.06108212471008301,2,3,3,3,-9.59,-1.94,0.51,0.09,-0.1,-0.31
0.0720820426940918,2,3,3,3,-9.57,-1.93,0.53,0.04,-0.11,-0.33
0.08208203315734863,2,3,3,3,-9.56,-1.94,0.5600000000000001,0.04,-0.11,-0.33
0.09208202362060547,2,3,3,3,-9.58,-1.95,0.61,-0.07000000000000001,-0.13,-0.35
0.1020820140838623,2,3,3,3,-9.56,-1.96,0.57,-0.11,-0.09,-0.36
0.1120820045471191,2,3,3,3,-9.58,-1.93,0.46,-0.09,-0.07000000000000001,-0.38
0.122081995010376,2,3,3,3,-9.56,-1.97,0.51,-0.05,-0.07000000000000001,-0.43
0.1320819854736328,2,3,3,3,-9.57,-1.92,0.6,-0.05,-0.07000000000000001,-0.43
0.1420819759368896,2,3,3,3,-9.57,-1.88,0.62,-0.07000000000000001,-0.05,-0.4
0.1520819664001465,2,3,3,3,-9.56,-1.82,0.65,-0.12,-0.07000000000000001,-0.42
0.1920819282531738,2,3,3,3,-9.6,-1.87,0.65,-0.35,-0.03,-0.4
0.2020819187164307,2,3,3,3,-9.619999999999999,-1.9,0.67,-0.43,-0.04,-0.45
0.2120819091796875,2,3,3,3,-9.6,-2.03,0.48,-0.4,0,-0.46
0.2220818996429443,2,3,3,3,-9.6,-2.03,0.46,-0.39,0.01,-0.4
0.2320821285247803,2,3,3,3,-9.58,-2.07,0.52,-0.39,0.01,-0.4
0.2420821189880371,2,3,3,3,-9.52,-2.09,0.6,-0.19,0,-0.41
0.2520821094512939,2,3,3,3,-9.529999999999999,-1.97,0.59,0.04,0.05,-0.48
0.2620820999145508,2,3,3,3,-9.539999999999999,-1.91,0.47,0.02,0.03,-0.42
0.2720820903778076,2,3,3,3,-9.56,-1.86,0.5600000000000001,-0.01,0.02,-0.38
0.2820820808410645,2,3,3,3,-9.56,-1.86,0.64,-0.01,0.02,-0.38
0.2920820713043213,2,3,3,3,-9.59,-1.88,0.62,-0.12,0.05,-0.34
0.3020820617675781,2,3,3,3,-9.619999999999999,-1.96,0.61,-0.24,0.03,-0.28
0.312082052230835,2,3,3,3,-9.58,-1.96,0.5,-0.26,0.08,-0.26
0.3220820426940918,2,3,3,3,-9.550000000000001,-1.98,0.53,-0.29,0.1,-0.25
0.3320820331573486,2,3,3,3,-9.539999999999999,-2.05,0.58,-0.29,0.1,-0.25
0.3420820236206055,2,3,3,3,-9.529999999999999,-2.04,0.59,-0.22,0.09,-0.28
0.3520820140838623,2,3,3,3,-9.550000000000001,-2.04,0.58,-0.22,0.15,-0.23
0.3620820045471191,2,3,3,3,-9.57,-2.1,0.51,-0.17,0.07000000000000001,-0.24
0.372081995010376,2,3,3,3,-9.539999999999999,-2.12,0.55,-0.14,0.04,-0.21
0.3820819854736328,2,3,3,3,-9.52,-2.13,0.53,-0.14,0.04,-0.21
0.3920819759368896,2,3,3,3,-9.529999999999999,-2.15,0.5600000000000001,-0.13,0.01,-0.17
0.4020819664001465,2,3,3,3,-9.5,-2.12,0.51,-0.1,0.03,-0.18
0.4120819568634033,2,3,3,3,-9.51,-2.1,0.44,-0.11,0.05,-0.21
0.4220819473266602,2,3,3,3,-9.550000000000001,-2.14,0.45,-0.1,0.05,-0.2
0.432081937789917,2,3,3,3,-9.550000000000001,-2.17,0.48,-0.1,0.05,-0.2
0.4420819282531738,2,3,3,3,-9.57,-2.13,0.51,-0.14,0.05,-0.14
0.4520819187164307,2,3,3,3,-9.529999999999999,-2.15,0.55,-0.06,0.05,-0.2
0.4620819091796875,2,3,3,3,-9.52,-2.12,0.43,-0.12,0.03,-0.17
0.4720818996429443,2,3,3,3,-9.529999999999999,-2.06,0.43,-0.18,0.03,-0.19
0.4820821285247803,2,3,3,3,-9.49,-2.03,0.59,-0.18,0.03,-0.19
0.4920821189880371,2,3,3,3,-9.51,-1.97,0.57,-0.24,0.01,-0.16
0.5020821094512939,2,3,3,3,-9.550000000000001,-2.04,0.55,-0.28,0.01,-0.15
0.5120820999145508,2,3,3,3,-9.58,-2.09,0.48,-0.21,-0.02,-0.14
0.5220820903778076,2,3,3,3,-9.57,-2.06,0.52,-0.23,0.01,-0.16
0.5320820808410645,2,3,3,3,-9.56,-2.08,0.54,-0.23,0.01,-0.16
0.5420820713043213,2,3,3,3,-9.550000000000001,-2.12,0.57,-0.19,0.01,-0.14
0.5520820617675781,2,3,3,3,-9.52,-2.13,0.57,-0.2,0.05,-0.11
0.562082052230835,2,3,3,3,-9.550000000000001,-2.11,0.43,-0.24,0.02,-0.05
0.5720820426940918,2,3,3,3,-9.56,-2.1,0.46,-0.2,-0.02,-0.08
0.5820820331573486,2,3,3,3,-9.539999999999999,-2.11,0.5,-0.2,-0.02,-0.08
0.5920820236206055,2,3,3,3,-9.51,-2.06,0.58,-0.21,-0.04,-0.09
0.6020820140838623,2,3,3,3,-9.56,-2.04,0.46,-0.29,-0.01,-0.12
0.6120820045471191,2,3,3,3,-9.59,-2.13,0.41,-0.19,-0.01,-0.06
0.622081995010376,2,3,3,3,-9.550000000000001,-2.08,0.47,-0.13,0.05,-0.04
0.6320819854736328,2,3,3,3,-9.52,-2.14,0.53,-0.13,0.05,-0.04
0.6420819759368896,2,3,3,3,-9.48,-2.19,0.52,0.01,0.01,-0.04
0.6520819664001465,2,3,3,3,-9.52,-2.21,0.52,0.02,-0.03,-0.06
0.6620819568634033,2,3,3,3,-9.529999999999999,-2.2,0.43,0.09,-0.04,-0.03
0.6720819473266602,2,3,3,3,-9.529999999999999,-2.19,0.51,0.06,-0.01,-0.05
0.682081937789917,2,3,3,3,-9.51,-2.23,0.54,0.08,-0.03,-0.02
0.6920819282531738,2,3,3,3,-9.51,-2.21,0.53,0.14,-0.03,-0.07000000000000001
0.7020819187164307,2,3,3,3,-9.529999999999999,-2.21,0.54,0.14,-0.05,-0.07000000000000001
0.7120819091796875,2,3,3,3,-9.550000000000001,-2.14,0.43,0.09,-0.04,-0.06
0.7220818996429443,2,3,3,3,-9.550000000000001,-2.14,0.47,0.04,0,-0.01
0.7320821285247803,2,3,3,3,-9.56,-2.19,0.47,0.04,0,-0.01
0.7420821189880371,2,3,3,3,-9.529999999999999,-2.16,0.49,0.08,0.02,0.02
0.7520821094512939,2,3,3,3,-9.51,-2.16,0.48,0.14,0.02,0.01
0.7620820999145508,2,3,3,3,-9.52,-2.16,0.43,0.14,-0.02,0.01
0.7720820903778076,2,3,3,3,-9.539999999999999,-2.12,0.48,0.03,-0.01,0.01
0.7820820808410645,2,3,3,3,-9.56,-2.11,0.51,-0.01,0,0.04
0.7920820713043213,2,3,3,3,-9.550000000000001,-2.16,0.5600000000000001,-0.16,-0.02,0.11
0.8020820617675781,2,3,3,3,-9.550000000000001,-2.11,0.53,-0.2,-0.01,0.07000000000000001
0.8220820426940918,2,3,3,3,-9.48,-2.08,0.48,-0.39,-0.05,0.04
0.8320820331573486,2,3,3,3,-9.51,-2.06,0.54,-0.39,-0.05,0.04
0.8420820236206055,2,3,3,3,-9.52,-2.08,0.57,-0.44,-0.04,0.02
0.8520820140838623,2,3,3,3,-9.56,-2.14,0.57,-0.47,-0.09,0.03
0.8620820045471191,2,3,3,3,-9.58,-2.13,0.4,-0.41,-0.09,-0.01
0.872081995010376,2,3,3,3,-9.550000000000001,-2.03,0.49,-0.37,-0.06,0.01
0.8820819854736328,2,3,3,3,-9.550000000000001,-2,0.5,-0.37,-0.06,0.01
0.8920819759368896,2,3,3,3,-9.550000000000001,-1.88,0.51,-0.33,-0.09,-0.02
0.9020819664001465,2,3,3,3,-9.550000000000001,-1.85,0.5600000000000001,-0.5,-0.04,0.04
0.9120819568634033,2,3,3,3,-9.56,-1.92,0.53,-0.62,-0.04,0.09
0.9220819473266602,2,3,3,3,-9.59,-1.89,0.5600000000000001,-0.71,-0.05,0.11
0.932081937789917,2,3,3,3,-9.59,-1.96,0.58,-0.71,-0.05,0.11
0.9420819282531738,2,3,3,3,-9.550000000000001,-2.03,0.57,-0.65,-0.01,0.11
0.9520819187164307,2,3,3,3,-9.539999999999999,-2.15,0.5,-0.44,-0.04,0.09
0.9620819091796875,2,3,3,3,-9.539999999999999,-2.12,0.36,-0.37,-0.05,0.09
0.9720818996429443,2,3,3,3,-9.51,-2.15,0.43,-0.24,-0.02,0.07000000000000001
0.9820821285247803,2,3,3,3,-9.49,-2.13,0.48,-0.18,-0.02,0.07000000000000001
0.9920821189880371,2,3,3,3,-9.539999999999999,-2.08,0.52,-0.18,-0.04,0.06
1.002082109451294,2,3,3,3,-9.539999999999999,-2.09,0.54,-0.21,0.02,0.07000000000000001
1.012082099914551,2,3,3,3,-9.550000000000001,-2.1,0.44,-0.2,-0.02,0.11
1.022082090377808,2,3,3,3,-9.58,-2.13,0.48,-0.19,-0.02,0.1
1.032082080841064,2,3,3,3,-9.550000000000001,-2.05,0.51,-0.19,-0.02,0.1
1.042082071304321,2,3,3,3,-9.539999999999999,-2.17,0.5600000000000001,-0.24,-0.04,0.13
1.052082061767578,2,3,3,3,-9.529999999999999,-2.14,0.48,-0.21,0,0.15
1.062082052230835,2,3,3,3,-9.539999999999999,-2.13,0.41,-0.17,0.01,0.14
1.072082042694092,2,3,3,3,-9.51,-2.13,0.42,-0.15,0,0.11
1.082082033157349,2,3,3,3,-9.529999999999999,-2.1,0.5,-0.19,0.03,0.13
1.093081951141357,2,3,3,3,-9.57,-2.09,0.52,-0.14,0,0.17
1.103081941604614,2,3,3,3,-9.539999999999999,-2.03,0.49,-0.17,0.02,0.17
1.113081932067871,2,3,3,3,-9.57,-1.99,0.38,-0.27,0,0.18
1.123081922531128,2,3,3,3,-9.56,-2.03,0.46,-0.28,-0.02,0.16
1.133081912994385,2,3,3,3,-9.529999999999999,-1.96,0.47,-0.28,-0.02,0.16
1.143081903457642,2,3,3,3,-9.57,-2.08,0.53,-0.29,0.03,0.19
1.153082132339478,2,3,3,3,-9.52,-2.01,0.44,-0.13,0.05,0.17
1.163082122802734,2,3,3,3,-9.550000000000001,-2.08,0.44,0,0.01,0.16
1.173082113265991,2,3,3,3,-9.57,-2,0.53,0.08,0.01,0.17
1.183082103729248,2,3,3,3,-9.550000000000001,-2,0.55,0.11,-0.01,0.17
1.193082094192505,2,3,3,3,-9.59,-2.01,0.51,0.11,-0.01,0.17
1.203082084655762,2,3,3,3,-9.57,-2.03,0.42,0.04,0.04,0.23
1.213082075119019,2,3,3,3,-9.550000000000001,-2.14,0.48,0.04,0.04,0.23
1.223082065582275,2,3,3,3,-9.52,-2.03,0.47,-0.01,0.03,0.23
1.233082056045532,2,3,3,3,-9.52,-2,0.54,0.02,0.01,0.19
1.243082046508789,2,3,3,3,-9.52,-2.01,0.57,0.05,-0.02,0.17
1.253082036972046,2,3,3,3,-9.6,-1.91,0.42,0.05,-0.02,0.17
1.263082027435303,2,3,3,3,-9.619999999999999,-1.91,0.48,0.11,0.02,0.18
1.27308201789856,2,3,3,3,-9.550000000000001,-1.93,0.5,0.13,0.01,0.17
1.283082008361816,2,3,3,3,-9.58,-1.91,0.5,-0.04,-0.03,0.18
1.293081998825073,2,3,3,3,-9.550000000000001,-1.93,0.47,-0.04,-0.03,0.18
1.30308198928833,2,3,3,3,-9.539999999999999,-1.96,0.41,-0.07000000000000001,-0.02,0.2
1.313081979751587,2,3,3,3,-9.550000000000001,-1.97,0.44,-0.14,0.01,0.18
1.323081970214844,2,3,3,3,-9.550000000000001,-1.92,0.47,-0.15,0.01,0.17
1.333081960678101,2,3,3,3,-9.58,-2,0.55,-0.11,0,0.17
1.343081951141357,2,3,3,3,-9.609999999999999,-1.93,0.42,-0.08,0.04,0.15
1.353081941604614,2,3,3,3,-9.6,-2.01,0.37,0,0.01,0.18
1.363081932067871,2,3,3,3,-9.539999999999999,-1.99,0.43,-0.04,0.01,0.22
1.373081922531128,2,3,3,3,-9.529999999999999,-2.12,0.48,-0.01,0.04,0.22
1.383081912994385,2,3,3,3,-9.52,-2.08,0.5,0.01,0.06,0.19
1.423082113265991,2,3,3,3,-9.56,-1.99,0.46,-0.05,-0.01,0.07000000000000001
1.433082103729248,2,3,3,3,-9.539999999999999,-1.91,0.5600000000000001,-0.09,0.01,0.08
1.443082094192505,2,3,3,3,-9.56,-1.9,0.48,-0.04,0.02,0.11
1.453082084655762,2,3,3,3,-9.56,-1.93,0.4,-0.05,0.02,0.13
1.463082075119019,2,3,3,3,-9.59,-1.91,0.45,-0.06,0.03,0.1
1.473082065582275,2,3,3,3,-9.609999999999999,-2.01,0.49,-0.03,0,0.08
1.483082056045532,2,3,3,3,-9.59,-2.03,0.48,0.01,0,0.12
1.493082046508789,2,3,3,3,-9.58,-2.08,0.48,0.03,0.04,0.11
1.503082036972046,2,3,3,3,-9.550000000000001,-2.03,0.38,0.08,0.08,0.11
1.513082027435303,2,3,3,3,-9.52,-2.03,0.4,0.22,0.02,0.12
1.52308201789856,2,3,3,3,-9.58,-2.05,0.5,0.27,0.03,0.1
1.533082008361816,2,3,3,3,-9.58,-2.05,0.5,0.31,0.03,0.08
1.543081998825073,2,3,3,3,-9.550000000000001,-2.13,0.53,0.28,0.04,0.08
1.55308198928833,2,3,3,3,-9.56,-2.07,0.42,0.39,0.02,0.07000000000000001
1.563081979751587,2,3,3,3,-9.6,-1.94,0.42,0.49,-0.01,0.03
1.573081970214844,2,3,3,3,-9.550000000000001,-1.88,0.47,0.47,-0.04,0.01
1.583081960678101,2,3,3,3,-9.550000000000001,-1.88,0.47,0.43,-0.04,0
1.593081951141357,2,3,3,3,-9.58,-1.89,0.51,0.29,-0.05,0.02
1.603081941604614,2,3,3,3,-9.58,-1.91,0.4,0.21,-0.05,0.02
1.613081932067871,2,3,3,3,-9.58,-1.91,0.44,0.05,-0.02,0.03
1.623081922531128,2,3,3,3,-9.6,-1.93,0.48,0.01,-0.01,0.04
1.633081912994385,2,3,3,3,-9.6,-1.92,0.5,-0.01,-0.01,0.04
1.643081903457642,2,3,3,3,-9.56,-1.91,0.47,-0.05,-0.03,-0.01
1.653082132339478,2,3,3,3,-9.58,-1.87,0.39,-0.06,-0.03,-0.01
1.663082122802734,2,3,3,3,-9.59,-1.93,0.43,-0.1,0,-0.01
1.673082113265991,2,3,3,3,-9.59,-1.97,0.47,-0.1,-0.01,-0.04
1.683082103729248,2,3,3,3,-9.57,-2.04,0.52,-0.06,-0.03,-0.02
1.693082094192505,2,3,3,3,-9.550000000000001,-2.02,0.48,-0.06,-0.03,-0.02
1.703082084655762,2,3,3,3,-9.550000000000001,-2.03,0.41,0.05,-0.04,-0.03
1.713082075119019,2,3,3,3,-9.59,-2.02,0.41,0.15,-0.02,-0.05
1.723082065582275,2,3,3,3,-9.57,-1.89,0.52,0.23,-0.06,-0.07000000000000001
1.733082056045532,2,3,3,3,-9.57,-1.89,0.52,0.24,-0.07000000000000001,-0.07000000000000001
1.743082046508789,2,3,3,3,-9.56,-1.9,0.51,0.19,-0.07000000000000001,-0.07000000000000001
1.753082036972046,2,3,3,3,-9.58,-1.92,0.44,0.11,-0.07000000000000001,-0.08
1.763082027435303,2,3,3,3,-9.56,-2.03,0.47,0.1,-0.01,-0.09
1.77308201789856,2,3,3,3,-9.550000000000001,-1.96,0.5,0.05,-0.01,-0.05
1.783082008361816,2,3,3,3,-9.539999999999999,-1.98,0.52,0.07000000000000001,-0.03,-0.08
1.793081998825073,2,3,3,3,-9.58,-1.94,0.44,0.03,-0.04,-0.09
1.80308198928833,2,3,3,3,-9.57,-1.95,0.43,-0.01,-0.04,-0.08
1.813081979751587,2,3,3,3,-9.56,-1.94,0.5,-0.05,-0.04,-0.06
1.823081970214844,2,3,3,3,-9.56,-1.94,0.48,-0.05,-0.08,-0.08
1.833081960678101,2,3,3,3,-9.56,-1.99,0.51,-0.1,-0.07000000000000001,-0.04
1.843081951141357,2,3,3,3,-9.57,-1.99,0.46,-0.15,-0.07000000000000001,-0.08
1.853081941604614,2,3,3,3,-9.56,-2,0.39,-0.13,-0.06,-0.1
1.863081932067871,2,3,3,3,-9.56,-2.03,0.4,-0.09,-0.05,-0.11
1.873081922531128,2,3,3,3,-9.550000000000001,-2.05,0.51,0,-0.07000000000000001,-0.14
1.883081912994385,2,3,3,2,-9.56,-2.01,0.5,0.04,-0.06,-0.1
1.893081903457642,2,3,3,2,-9.539999999999999,-1.98,0.51,0.09,-0.05,-0.12
1.903082132339478,2,3,3,2,-9.56,-1.98,0.44,0.17,-0.04,-0.11
1.913082122802734,2,3,3,2,-9.58,-1.9,0.47,0.15,-0.03,-0.08
1.923082113265991,2,3,3,2,-9.56,-1.9,0.52,0.12,-0.12,-0.1
1.933082103729248,2,3,3,2,-9.550000000000001,-1.92,0.58,0.09,-0.12,-0.1
1.943082094192505,2,3,3,2,-9.58,-1.94,0.52,0.02,-0.12,-0.11
1.953082084655762,2,3,3,2,-9.58,-1.99,0.44,-0.01,-0.09,-0.1
1.963082075119019,2,3,3,2,-9.550000000000001,-2.04,0.46,-0.07000000000000001,-0.04,-0.08
1.973082065582275,2,3,3,2,-9.550000000000001,-2.07,0.5,-0.13,-0.04,-0.06
1.983082056045532,2,3,3,2,-9.539999999999999,-2.05,0.52,-0.08,-0.05,-0.1
1.993082046508789,2,3,3,2,-9.550000000000001,-2.01,0.5,-0.08,-0.09,-0.06
2.003082036972046,2,3,3,2,-9.550000000000001,-2.03,0.42,-0.09,-0.06,-0.08
2.013082027435303,2,3,3,2,-9.550000000000001,-2.02,0.43,-0.07000000000000001,-0.08,-0.1
2.02308201789856,2,3,3,2,-9.550000000000001,-2,0.49,-0.04,-0.07000000000000001,-0.08
2.033082008361816,2,3,3,2,-9.529999999999999,-2.01,0.58,-0.08,-0.07000000000000001,-0.08
2.043081998825073,2,3,3,2,-9.529999999999999,-2,0.53,-0.05,-0.06,-0.08
2.05308198928833,2,3,3,2,-9.57,-2.03,0.46,-0.08,-0.02,-0.11
2.063081979751587,2,3,3,2,-9.58,-2.01,0.44,-0.09,-0.04,-0.07000000000000001
2.073081970214844,2,3,3,2,-9.56,-2,0.53,-0.09,-0.04,-0.08
2.083081960678101,2,3,3,2,-9.57,-2.04,0.5,-0.03,-0.03,-0.07000000000000001
2.093081951141357,2,3,3,2,-9.6,-2.02,0.5,-0.04,0,-0.04
2.103081941604614,2,3,3,2,-9.57,-2.01,0.45,0.03,0,-0.06
2.114082098007202,2,3,3,2,-9.550000000000001,-2.05,0.44,0.11,-0.03,-0.07000000000000001
2.124082088470459,2,3,3,2,-9.56,-2.03,0.52,0.12,-0.01,-0.05
2.134082078933716,2,3,3,2,-9.550000000000001,-2.07,0.54,0.15,-0.02,-0.06
2.144082069396973,2,3,3,2,-9.550000000000001,-2.03,0.55,0.15,-0.02,-0.06
2.154082059860229,2,3,3,2,-9.550000000000001,-2.04,0.45,0.18,-0.04,-0.02
2.164082050323486,2,3,3,2,-9.529999999999999,-2,0.48,0.2,-0.03,-0.07000000000000001
2.174082040786743,2,3,3,2,-9.539999999999999,-2.03,0.52,0.16,0,-0.04
2.18408203125,2,3,3,2,-9.550000000000001,-1.97,0.54,0.14,-0.01,-0.06
2.194082021713257,2,3,3,2,-9.57,-1.96,0.51,0.15,-0.05,-0.06
2.204082012176514,2,3,3,2,-9.57,-2.02,0.43,0.12,-0.05,-0.04
2.214082002639771,2,3,3,2,-9.57,-2,0.41,0.09,-0.03,-0.06
2.224081993103027,2,3,3,2,-9.550000000000001,-2,0.48,0.06,-0.03,-0.03
2.234081983566284,2,3,3,2,-9.58,-1.99,0.49,0.07000000000000001,-0.07000000000000001,-0.03
2.244081974029541,2,3,3,2,-9.550000000000001,-2.01,0.5,0.06,-0.03,-0.02
2.254081964492798,2,3,3,2,-9.539999999999999,-2,0.42,0.11,0.01,-0.05
2.264081954956055,2,3,3,2,-9.57,-1.99,0.49,0.12,0.01,-0.08
2.274081945419312,2,3,3,2,-9.56,-2,0.54,0.09,-0.02,-0.07000000000000001
2.284081935882568,2,3,3,2,-9.550000000000001,-2.02,0.5600000000000001,0.12,-0.02,-0.05
2.294081926345825,2,3,3,2,-9.51,-2.04,0.55,0.13,-0.03,-0.03
2.304081916809082,2,3,3,2,-9.57,-2.06,0.44,0.16,-0.04,-0.05
2.314081907272339,2,3,3,2,-9.550000000000001,-2.06,0.47,0.1,-0.04,-0.06
2.324082136154175,2,3,3,2,-9.56,-2.03,0.48,0.1,-0.02,-0.02
2.334082126617432,2,3,3,2,-9.56,-2.07,0.52,0.07000000000000001,-0.04,-0.05
2.344082117080688,2,3,3,2,-9.57,-1.95,0.41,0.06,-0.01,-0.02
2.354082107543945,2,3,3,2,-9.57,-1.96,0.41,0.07000000000000001,-0.03,-0.1
2.364082098007202,2,3,3,2,-9.529999999999999,-1.98,0.46,0.02,-0.02,-0.08
2.374082088470459,2,3,3,2,-9.57,-2.01,0.48,0.01,-0.02,-0.06
2.384082078933716,2,3,3,2,-9.539999999999999,-1.97,0.5600000000000001,-0.01,-0.05,-0.03
2.394082069396973,2,3,3,2,-9.550000000000001,-2.02,0.55,0,-0.02,-0.04
2.404082059860229,2,3,3,2,-9.56,-2.05,0.46,0.03,-0.04,-0.07000000000000001
2.414082050323486,2,3,3,2,-9.58,-2.03,0.42,0.06,-0.03,-0.05
2.424082040786743,2,3,3,2,-9.550000000000001,-2.07,0.49,-0.01,-0.04,-0.06
2.43408203125,2,3,3,2,-9.52,-2.07,0.5,0.04,-0.08,-0.04
2.444082021713257,2,3,3,2,-9.52,-2.07,0.52,0.06,-0.06,-0.06
2.454082012176514,2,3,3,2,-9.539999999999999,-2.02,0.44,0.11,-0.04,-0.08
2.464082002639771,2,3,3,2,-9.56,-1.99,0.49,0.13,-0.04,-0.1
2.474081993103027,2,3,3,2,-9.56,-1.97,0.53,0.11,-0.09,-0.08
2.484081983566284,2,3,3,2,-9.57,-1.91,0.54,0.07000000000000001,-0.08,-0.06
2.494081974029541,2,3,3,2,-9.57,-1.96,0.57,0.02,-0.02,-0.05
2.504081964492798,2,3,3,2,-9.57,-2.05,0.47,0.04,-0.05,-0.06
2.514081954956055,2,3,3,2,-9.57,-2.03,0.46,0.04,-0.05,-0.05
2.524081945419312,2,3,3,2,-9.59,-1.98,0.47,0.03,-0.05,-0.05
2.534081935882568,2,3,3,2,-9.529999999999999,-2.07,0.53,-0.04,-0.01,-0.03
2.544081926345825,2,3,3,2,-9.539999999999999,-2.04,0.47,-0.01,-0.05,-0.03
2.554081916809082,2,3,3,2,-9.550000000000001,-2.09,0.45,0.04,-0.01,-0.03
2.564081907272339,2,3,3,2,-9.529999999999999,-2.07,0.46,0.02,-0.01,-0.07000000000000001
2.574082136154175,2,3,3,2,-9.550000000000001,-2.06,0.54,0.04,-0.06,-0.06
2.584082126617432,2,3,3,2,-9.529999999999999,-2,0.54,0.04,-0.02,-0.06
2.594082117080688,2,3,3,2,-9.539999999999999,-1.96,0.53,0.08,-0.05,0
2.604082107543945,2,3,3,2,-9.58,-1.96,0.47,0.1,-0.03,0
2.614082098007202,2,3,3,2,-9.56,-1.96,0.52,0.04,-0.03,-0.01
2.624082088470459,2,3,3,2,-9.550000000000001,-2.04,0.53,0,-0.03,-0.03
2.634082078933716,2,3,3,2,-9.550000000000001,-2.04,0.52,0.03,0.02,0
2.644082069396973,2,3,3,2,-9.539999999999999,-2.04,0.54,0.03,0.03,0.02
2.654082059860229,2,3,3,2,-9.56,-2.07,0.41,0.06,0.03,0
2.664082050323486,2,3,3,2,-9.550000000000001,-2.09,0.46,0.04,0.05,0.01
2.674082040786743,2,3,3,2,-9.56,-2.07,0.47,0.02,0.02,0.03
2.68408203125,2,3,3,2,-9.550000000000001,-2.03,0.52,0.02,-0.05,0.04
2.694082021713257,2,3,3,2,-9.51,-2.06,0.49,0.04,-0.02,0.05
2.704082012176514,2,3,3,2,-9.539999999999999,-2.03,0.42,0.06,-0.01,0.03
2.714082002639771,2,3,3,2,-9.539999999999999,-2.03,0.47,0.14,0.02,0.04
2.724081993103027,2,3,3,2,-9.52,-2.03,0.5,0.16,-0.01,0.02
2.734081983566284,2,3,3,2,-9.550000000000001,-1.97,0.52,0.11,-0.01,0.03
2.744081974029541,2,3,3,2,-9.56,-2.02,0.5600000000000001,0.07000000000000001,0.03,0
2.754081964492798,2,3,3,2,-9.56,-2.05,0.45,-0.02,-0.02,0.04
2.764081954956055,2,3,3,2,-9.6,-1.97,0.45,-0.02,-0.01,0.04
2.774081945419312,2,3,3,2,-9.56,-2.01,0.52,-0.09,-0.07000000000000001,0.02
2.784081935882568,2,3,3,2,-9.56,-2.03,0.49,-0.13,-0.04,0.09
2.794081926345825,2,3,3,2,-9.550000000000001,-2.07,0.52,-0.13,-0.04,0.1
2.804081916809082,2,3,3,2,-9.52,-2.06,0.41,-0.03,-0.02,0.07000000000000001
2.814081907272339,2,3,3,2,-9.550000000000001,-2.07,0.46,0.06,-0.01,0.07000000000000001
2.824082136154175,2,3,3,2,-9.550000000000001,-2.1,0.53,0.07000000000000001,-0.01,0.07000000000000001
2.834082126617432,2,3,3,2,-9.539999999999999,-2.08,0.52,0.05,0.03,0.08
2.844082117080688,2,3,3,2,-9.58,-2.02,0.52,0.08,-0.01,0.05
2.854082107543945,2,3,3,2,-9.539999999999999,-2,0.38,0.02,-0.01,0.07000000000000001
2.864082098007202,2,3,3,2,-9.550000000000001,-1.96,0.47,0,-0.02,0.08
2.874082088470459,2,3,3,2,-9.550000000000001,-1.99,0.52,-0.01,-0.04,0.11
2.884082078933716,2,3,3,2,-9.57,-1.95,0.49,0,-0.06,0.11
2.894082069396973,2,3,3,2,-9.57,-1.96,0.48,-0.05,-0.02,0.1
2.904082059860229,2,3,3,2,-9.550000000000001,-1.99,0.41,-0.04,-0.03,0.08
2.914082050323486,2,3,3,2,-9.57,-2.05,0.46,-0.11,-0.01,0.1
2.924082040786743,2,3,3,2,-9.58,-2.02,0.5,-0.05,0,0.08
2.93408203125,2,3,3,2,-9.529999999999999,-2.07,0.52,-0.08,-0.03,0.09
2.944082021713257,2,3,3,2,-9.529999999999999,-2.06,0.5,-0.11,-0.04,0.09
2.954082012176514,2,3,3,2,-9.58,-2.07,0.38,-0.06,0.01,0.11
2.964082002639771,2,3,3,2,-9.529999999999999,-2.05,0.46,-0.03,-0.03,0.09
2.974081993103027,2,3,3,2,-9.550000000000001,-2.03,0.5,-0.05,0,0.1
2.984081983566284,2,3,3,2,-9.59,-1.98,0.49,0.01,0.01,0.08
2.994081974029541,2,3,3,2,-9.56,-1.96,0.53,0.05,-0.06,0.08
3.004081964492798,2,3,3,2,-9.529999999999999,-1.89,0.44,0.03,-0.08,0.07000000000000001
3.014081954956055,2,3,3,2,-9.58,-1.93,0.48,-0.01,-0.04,0.07000000000000001
3.024081945419312,2,3,3,2,-9.58,-1.95,0.51,-0.08,-0.03,0.07000000000000001
3.034081935882568,2,3,3,2,-9.550000000000001,-1.98,0.52,-0.12,-0.01,0.08
3.044081926345825,2,3,3,2,-9.56,-2.06,0.45,-0.13,0,0.1
3.054081916809082,2,3,3,2,-9.57,-2.06,0.39,-0.15,-0.05,0.12
3.064081907272339,2,3,3,2,-9.550000000000001,-2.01,0.44,-0.11,-0.06,0.12
3.074082136154175,2,3,3,2,-9.539999999999999,-2.02,0.5,-0.05,-0.05,0.1
3.084082126617432,2,3,3,2,-9.550000000000001,-1.93,0.52,-0.02,-0.09,0.08
3.094082117080688,2,3,3,2,-9.550000000000001,-1.9,0.51,-0.01,-0.07000000000000001,0.07000000000000001
3.104082107543945,2,3,3,2,-9.56,-1.9,0.41,0,-0.07000000000000001,0.08
3.114082098007202,2,3,3,2,-9.57,-1.98,0.48,-0.01,-0.02,0.13
3.124082088470459,2,3,3,2,-9.550000000000001,-1.96,0.54,-0.03,-0.02,0.16
3.134082078933716,2,3,3,2,-9.539999999999999,-1.95,0.53,0.05,-0.02,0.15
3.145081996917725,2,3,3,2,-9.539999999999999,-1.91,0.51,0.05,-0.05,0.13
3.155081987380981,2,3,3,2,-9.56,-1.91,0.39,0.04,-0.07000000000000001,0.1
3.165081977844238,2,3,3,2,-9.56,-1.87,0.47,-0.04,-0.09,0.1
3.175081968307495,2,3,3,2,-9.59,-1.86,0.5,-0.08,-0.08,0.08
3.185081958770752,2,3,3,2,-9.56,-1.92,0.52,-0.16,-0.05,0.08
3.195081949234009,2,3,3,2,-9.57,-1.95,0.52,-0.15,0,0.12
3.205081939697266,2,3,3,2,-9.539999999999999,-1.99,0.43,-0.16,-0.05,0.16
3.215081930160522,2,3,3,2,-9.58,-1.98,0.46,-0.13,-0.03,0.16
3.225081920623779,2,3,3,2,-9.59,-1.96,0.49,-0.1,-0.05,0.15
3.235081911087036,2,3,3,2,-9.58,-1.94,0.53,-0.06,-0.04,0.17
3.245081901550293,2,3,3,2,-9.550000000000001,-1.88,0.48,-0.13,-0.05,0.16
3.255082130432129,2,3,3,2,-9.57,-1.94,0.39,-0.13,0.01,0.14
3.265082120895386,2,3,3,2,-9.550000000000001,-1.93,0.44,-0.16,0,0.15
3.275082111358643,2,3,3,2,-9.550000000000001,-1.89,0.47,-0.18,-0.03,0.16
3.285082101821899,2,3,3,2,-9.58,-1.91,0.54,-0.2,-0.06,0.18
3.295082092285156,2,3,3,2,-9.6,-1.9,0.51,-0.29,-0.05,0.18
3.305082082748413,2,3,3,2,-9.57,-1.91,0.46,-0.27,-0.06,0.2
3.31508207321167,2,3,3,2,-9.58,-1.94,0.5,-0.3,-0.03,0.23
3.325082063674927,2,3,3,2,-9.59,-1.9,0.5,-0.31,-0.01,0.2
3.335082054138184,2,3,3,3,-9.58,-1.9,0.51,-0.3,-0.01,0.22
3.34508204460144,2,3,3,3,-9.6,-1.81,0.53,-0.22,-0.05,0.24
3.355082035064697,2,3,3,3,-9.59,-1.52,0.42,-0.09,-0.02,0.26
3.365082025527954,2,3,3,3,-9.59,-1.42,0.5,-0.04,-0.04,0.32
3.375082015991211,2,3,3,3,-9.59,-1.34,0.58,-0.01,0.02,0.41
3.385082006454468,2,3,3,3,-9.59,-1.31,0.62,-0.02,0.09,0.51
3.395081996917725,2,3,3,3,-9.6,-1.37,0.55,-0.12,0.18,0.7
3.405081987380981,2,3,3,3,-9.6,-1.62,0.5,-0.12,0.19,0.85
3.415081977844238,2,3,3,3,-9.6,-1.73,0.49,-0.03,0.26,0.98
3.425081968307495,2,3,3,3,-9.619999999999999,-1.91,0.49,0.15,0.23,1.06
3.435081958770752,2,3,3,3,-9.56,-1.88,0.46,0.31,0.15,1.03
3.445081949234009,2,3,3,3,-9.550000000000001,-2.02,0.46,0.35,0.1,1.01
3.455081939697266,2,3,3,3,-9.51,-2.12,0.33,0.3,0.11,1.01
3.465081930160522,2,3,3,3,-9.529999999999999,-2.1,0.32,0.37,0.1,1.02
3.475081920623779,2,3,3,3,-9.58,-1.67,0.47,0.47,0.1,1.01
3.485081911087036,2,3,3,3,-9.57,-1.46,0.5,0.5600000000000001,0.04,1
3.495081901550293,2,3,3,3,-9.6,-1.17,0.51,0.5600000000000001,0,0.98
3.505082130432129,2,3,3,3,-9.6,-0.84,0.45,0.59,-0.01,1
3.515082120895386,2,3,3,3,-9.66,-0.27,0.62,0.6,-0.04,1.14
3.525082111358643,2,3,3,3,-9.68,-0.45,0.73,0.33,0.04,1.41
3.535082101821899,2,3,3,3,-9.699999999999999,-0.52,0.7,0.03,0.26,1.78
3.545082092285156,2,3,3,3,-9.640000000000001,-0.4,0.74,0.28,0.36,2.1
3.555082082748413,2,3,3,3,-9.58,0.18,0.57,0.73,0.36,2.36
3.56508207321167,2,3,3,3,-9.539999999999999,0.6,0.68,1.27,0.42,2.7
3.575082063674927,2,3,3,3,-9.5,1.02,0.8,1.81,0.45,3.11
3.585082054138184,2,3,3,3,-9.48,0.96,0.96,1.95,0.51,3.71
3.59508204460144,2,3,3,3,-9.43,0.57,0.95,1.75,0.7,4.3
3.605082035064697,2,3,3,3,-9.390000000000001,0.63,0.97,1.57,0.77,4.89
3.615082025527954,2,3,3,3,-9.26,1.14,1.07,2.1,0.75,5.46
3.625082015991211,2,3,3,3,-9.199999999999999,1.71,1.27,2.9,0.6,6.12
3.635082006454468,2,3,3,3,-9.16,2.65,1.62,3.26,0.43,6.89
3.645081996917725,2,3,3,3,-8.970000000000001,1.77,1.83,2.77,0.09,7.87
3.655081987380981,2,3,3,3,-8.75,1.29,1.49,1.89,-0.22,8.74
3.665081977844238,2,3,3,3,-8.539999999999999,1.47,1.43,1.93,-0.49,9.199999999999999
3.675081968307495,2,3,3,3,-8.51,2.17,1.64,3.04,-0.78,9.449999999999999
3.685081958770752,2,3,3,3,-8.390000000000001,1.75,1.85,3.98,-0.8,9.789999999999999
3.695081949234009,2,3,3,3,-8.25,1.13,1.55,3.69,-0.61,10.48
3.705081939697266,2,3,3,3,-8.109999999999999,1.32,0.95,3.73,-0.47,10.73
3.715081930160522,2,3,3,3,-8.1,1.08,0.67,3.58,-0.21,10.92
3.725081920623779,2,3,3,3,-8.199999999999999,0.51,-0.01,3.34,-0.15,11.14
3.735081911087036,2,3,3,3,-8.050000000000001,0.35,-0.26,3.49,-0.51,11.2
3.745081901550293,2,3,3,3,-8.369999999999999,-0.09,-0.45,4.51,-0.59,11
3.755082130432129,2,3,3,3,-8.41,0.15,-0.51,6.16,-0.78,10.68
3.765082120895386,2,3,3,3,-8.41,0.09,-0.48,7.06,-0.79,10.67
3.775082111358643,2,3,3,3,-8.390000000000001,-0.01,-0.37,8.039999999999999,-0.25,10.65
3.785082101821899,2,3,3,3,-8.869999999999999,-0.9399999999999999,-0.55,7.55,0.5,11.03
3.795082092285156,2,3,3,3,-9.279999999999999,-0.49,-0.67,7.52,1.08,10.98
3.805082082748413,2,3,3,3,-9.43,-0.24,-0.37,8.130000000000001,1.48,10.42
3.81508207321167,2,3,3,3,-9.300000000000001,0.19,-0.24,8.369999999999999,1.33,9.859999999999999
3.825082063674927,2,3,3,3,-9.539999999999999,0.45,-0.26,8.039999999999999,1.6,9.58
3.835082054138184,2,3,3,3,-9.93,0.92,-0.35,6.66,1.89,9.59
3.84508204460144,2,3,3,3,-10.09,1.09,-0.38,5.29,2.04,9.699999999999999
3.855082035064697,2,3,3,3,-10.24,0.91,-0.44,3.28,2.11,9.6
3.865082025527954,2,3,3,3,-10.39,0.36,-0.21,1.62,2.37,9.24
3.875082015991211,2,3,3,3,-10.11,-0.11,0.01,0.28,2.88,8.94
3.885082006454468,2,3,3,3,-10.14,-0.49,-0.15,-0.8100000000000001,3.07,8.630000000000001
3.895081996917725,2,3,3,3,-10.48,-0.7,-0.23,-0.7,3.23,8.16
3.905081987380981,2,3,3,3,-10.62,-0.35,-0.18,0.4,3.12,7.71
3.915081977844238,2,3,3,3,-10.85,-0.5600000000000001,-0.13,1.26,3.12,7.37
3.925081968307495,2,3,3,3,-10.99,-0.03,-0.28,1.76,3.05,6.66
3.935081958770752,2,3,3,3,-11.3,0.75,-0.02,2.73,2.82,5.82
3.945081949234009,2,3,3,3,-11.95,0.74,0.07000000000000001,2.54,2.63,5.06
3.955081939697266,2,3,3,3,-11.71,0.73,-0.13,1.52,2.49,4.36
3.965081930160522,2,3,3,3,-11.76,0.88,-0.03,0.67,2.5,3.92
3.975081920623779,2,3,3,3,-11.85,0.92,0.07000000000000001,0.14,2.54,3.61
3.985081911087036,2,3,3,3,-12.26,1.5,0.37,0,2.37,3.31
3.995081901550293,2,3,3,3,-12.23,1.67,0.66,0.11,1.99,3.1
4.005082130432129,2,3,3,3,-11.96,0.18,0.7,-1.04,1.6,3.03
4.015082120895386,2,3,3,3,-11.17,-2.06,0.84,-3.1,1.05,2.58
4.025082111358643,2,3,3,3,-10.3,-4.03,0.2,-3.42,0.8100000000000001,1.54
4.035082101821899,2,3,3,3,-10.96,-2.94,-0.22,-1.53,0.6,0.07000000000000001
4.045082092285156,2,3,3,3,-11.92,-1.31,-0.09,0.9399999999999999,0.06,-1.41
4.055082082748413,2,3,3,3,-14.13,0.45,0.67,2.72,-1.03,-2.69
4.06508207321167,2,3,3,3,-14.91,0.68,1.26,2.86,-1.86,-3.85
4.075082063674927,2,3,3,3,-15.26,0.21,1.7,1.47,-2.1,-4.52
4.085082054138184,2,3,3,3,-15.23,-1.53,2,-0.9399999999999999,-2.56,-4.43
4.096081972122192,2,3,3,3,-15.05,-4.65,2.77,-2.71,-2.87,-4.42
4.105082035064697,2,3,3,3,-14.7,-6.64,3.88,-3.46,-3.26,-4.69
4.115082025527954,2,3,3,3,-14.15,-8.26,4.21,-3.18,-4.13,-5.47
4.126081943511963,2,3,3,3,-14.02,-8.359999999999999,3.59,-0.86,-5.21,-7.18
4.135082006454468,2,3,3,3,-16.44,-5.16,2.71,2.17,-6.24,-9.69
4.145081996917725,2,3,3,3,-18.48,-3.8,2.6,3.66,-7.88,-12.37
4.156081914901733,2,3,3,3,-20.55,-3.7,2.42,3.27,-9.949999999999999,-14.78
4.16608190536499,2,3,3,3,-22.71,-5.95,2.18,0.37,-10.82,-16.39
4.176082134246826,2,3,3,3,-24.46,-10.52,-1.23,-2.42,-10.82,-17.27
4.186082124710083,2,3,3,2,-24.87,-12.08,-2.32,-3.91,-9.74,-17.8
4.19608211517334,2,3,3,2,-25.08,-13.75,-3.51,-4.48,-7.96,-18.36
4.206082105636597,2,3,3,2,-24.91,-13.7,-4.1,-2.99,-6.34,-20.19
4.216082096099854,2,3,3,2,-26.67,-11.74,-5.46,-2.01,-4.72,-23.04
4.22608208656311,2,3,3,2,-27.18,-6.39,-6.24,-0.87,-3.2,-26.39
4.236082077026367,2,3,3,2,-26.04,-3.44,-4.75,-0.4,-1.8,-28.82
4.246082067489624,2,3,3,2,-23.18,-2.45,-3.82,0.34,-0.68,-28.75
4.256082057952881,2,3,3,2,-15.76,1.81,-1.71,5.9,-0.25,-28.26
4.266082048416138,2,3,3,2,-12.03,0.48,-1.59,12.52,-0.07000000000000001,-27.44
4.276082038879395,2,3,3,2,-8.92,3.21,-1.3,20.65,0.84,-25.82
4.286082029342651,2,3,3,2,-8.779999999999999,28.74,-3.69,35.06,-0.67,-24.53
4.296082019805908,2,3,3,2,-0.8,39.11,20.29,24.08,-9.07,-15.15
4.306082010269165,2,3,3,2,6.33,38.56,9.41,3.15,-6.63,-2.58
4.316082000732422,2,3,3,2,4.2,18.14,2.64,-19,9.83,6.99
4.326081991195679,2,3,3,2,1.07,-7,-1.52,-17.87,10.72,13.58
4.336081981658936,2,3,3,2,-9.630000000000001,-8.720000000000001,0.87,-4.52,10.44,9.390000000000001
4.346081972122192,2,3,3,2,-5.64,-4.79,3.24,10.6,4.61,2.52
4.356081962585449,2,3,3,2,-1.97,-2.22,2.23,14.86,-0.46,2
4.366081953048706,2,3,3,2,-0.79,-4.47,-0.18,7.92,-0.54,3.97
4.376081943511963,2,3,3,2,1.14,-9,-3.52,-1.23,-1.68,5.89
4.38608193397522,2,3,3,2,0.63,-8.24,-4.7,-4.92,-2.76,5.9
4.396081924438477,2,3,3,2,0.58,-7.06,-3.62,-5.71,-2.5,4.96
4.406081914901733,2,3,3,2,0.41,-4.68,-2.38,-3.26,-2.13,4.11
4.41608190536499,2,3,3,2,0.43,0.34,-1.46,-1.94,-2.4,3.44
4.426082134246826,2,3,3,2,1.64,2.44,-1.72,-2.76,-3.77,3.38
4.436082124710083,2,3,3,2,2.02,3.71,-1.24,-4.2,-4.51,4.14
4.44608211517334,2,3,3,2,-0.06,2.12,0.5,-7.29,-4.36,4.86
4.456082105636597,2,3,3,2,-0.45,0.29,1.26,-9.84,-4.31,5.53
4.466082096099854,2,3,3,2,-0.24,-0.92,1.48,-10.37,-3.68,5.86
4.47608208656311,2,3,3,2,0.07000000000000001,-1.58,1.51,-7.69,-2.41,5.7
4.486082077026367,2,3,3,2,0.45,-1.36,1.58,-3.64,-1.08,5.42
4.496082067489624,2,3,3,2,-0.2,0.04,1.9,0.89,0.24,5.23
4.506082057952881,2,3,3,2,-0.82,0.98,2.12,3.84,0.9,6.03
4.516082048416138,2,3,3,2,-0.91,2.16,2.31,5.03,0.78,6.39
4.526082038879395,2,3,3,2,-0.5600000000000001,3.5,1.36,3.38,0.83,6.57
4.536082029342651,2,3,3,2,-0.5,3.71,-0.05,-0.57,1.55,6.54
4.546082019805908,2,3,3,2,-0.74,3.63,-1.65,-5.26,2.78,6.31
4.556082010269165,2,3,3,2,-0.64,2.76,-2.98,-9.609999999999999,3.41,5.72
4.566082000732422,2,3,3,2,0.44,-0.48,-3.4,-12.66,2.77,5.04
4.576081991195679,2,3,3,2,0.42,-1.08,-3.23,-12.65,1.7,4.34
4.586081981658936,2,3,3,2,-0.14,-1.55,-2.85,-11.05,1.15,3.55
4.596081972122192,2,3,3,2,-0.4,-2.04,-2.06,-8.41,1.05,3.04
4.606081962585449,2,3,3,2,0.4,-2.18,-0.77,-4.23,-0.06,2.96
4.616081953048706,2,3,3,2,0.53,-2.22,-1.16,-1.04,-1.27,3.47
4.626081943511963,2,3,3,2,-1.07,3.14,-0.5,3.27,-2.73,4.08
4.63608193397522,2,3,3,2,-4.36,14.64,4.2,14.36,-6.32,5.39
4.646081924438477,2,3,3,2,-6.2,4.54,9.949999999999999,13.96,-8.710000000000001,5.1
4.656081914901733,2,3,3,2,-10.03,-14.13,4.47,-2.45,-3.04,0.16
4.66608190536499,2,3,3,2,-18.37,-18.43,-0.23,-12.23,0.8,-6.27
4.676082134246826,2,3,3,2,-24.58,3.98,-2.1,24.8,-0.33,-9.34
4.686082124710083,2,3,3,2,-32.45,4.29,-1.86,35.59,2.69,-2.05
4.69608211517334,2,3,3,2,-27.76,11.01,-6.05,19.04,8.800000000000001,9.199999999999999
4.706082105636597,2,3,3,2,-17.78,11.55,1.85,14.06,10.36,17.52
4.716082096099854,2,3,3,2,-15.81,5.05,0.2,-1.42,10.96,16.58
4.72608208656311,2,3,3,2,-23.89,-2.31,-3.03,-11.77,9.550000000000001,14.1
4.736082077026367,2,3,3,2,-23.87,-3.98,-1.57,-15.73,6.94,11.57
4.746082067489624,2,3,3,2,-25.64,-2.38,3.08,-11.63,5.62,8.09
4.756082057952881,2,3,3,2,-26.69,-4.33,7.09,-8.33,3.45,5.01
4.766082048416138,2,3,3,2,-22.47,-7.52,6.49,-6.52,3.97,3.28
4.776082038879395,2,3,3,2,-20.35,-11.4,5.38,-5.86,4.79,2.86
4.786082029342651,2,3,3,2,-16.54,-14.29,4.22,-5.22,3.92,4.16
4.796082019805908,2,3,3,2,-13.92,-14.23,2.93,0.23,2.66,4.92
4.806082010269165,2,3,3,2,-14.06,-9.449999999999999,1.73,7.01,1.15,3.64
4.816082000732422,2,3,3,2,-14.91,-6.53,1.85,11.71,0.09,1.34
4.826081991195679,2,3,3,2,-15.12,-4.25,2.02,13,-0.7,-0.59
4.836081981658936,2,3,3,2,-14.68,-1.48,1.93,10.88,-1.15,-1.93
4.846081972122192,2,3,3,2,-14.48,-1.02,1.58,6.73,-1.55,-2.69
4.856081962585449,2,3,3,2,-14.46,-0.98,0.68,2.65,-1.76,-3.39
4.866081953048706,2,3,3,2,-14.33,-1.12,0.12,-0.23,-1.94,-4.01
4.876081943511963,2,3,3,2,-12.93,-1.94,-0.73,-2.14,-2.09,-4.44
4.88608193397522,2,3,3,2,-12.18,-2.08,-1.05,-3.64,-2.02,-4.72
4.896081924438477,2,3,3,2,-11.5,-2.37,-1.08,-4.78,-1.92,-4.82
4.906081914901733,2,3,3,2,-10.82,-2.61,-1.35,-5.62,-1.87,-4.94
4.91608190536499,2,3,3,2,-9.59,-2.51,-1.39,-5.64,-1.6,-5.19
4.926082134246826,2,3,3,2,-9.25,-2.32,-1.43,-4.99,-1.13,-5.66
4.936082124710083,2,3,3,2,-9.029999999999999,-1.96,-1.49,-3.95,-0.68,-6.33
4.94608211517334,2,3,3,2,-8.92,-1.36,-1.51,-2.71,-0.59,-7.07
4.956082105636597,2,3,3,2,-8.76,0.39,-0.85,-1.31,-0.52,-7.77
4.966082096099854,2,3,3,2,-8.56,1.03,-0.41,-0.83,-0.62,-8.08
4.97608208656311,2,3,3,2,-8.41,1.61,0.05,-1.22,-0.67,-8.02
4.986082077026367,2,3,3,2,-8.199999999999999,1.99,0.44,-2.47,-0.73,-7.7
4.996082067489624,2,3,3,2,-7.68,1.89,1.04,-3.88,-0.72,-7.29
5.006082057952881,2,3,3,2,-7.41,1.95,1.14,-5.14,-0.59,-6.88
5.016082048416138,2,3,3,2,-7.29,2.15,1.26,-6.18,-0.27,-6.68
5.026082038879395,2,3,3,2,-7.3,1.82,1.45,-7.62,-0.1,-6.36
5.036082029342651,2,3,3,2,-7.23,1.49,1.79,-8.18,-0.03,-5.95
5.046082019805908,2,3,3,2,-7.36,1.65,1.9,-7.51,0.09,-5.35
5.056082010269165,2,3,3,2,-7.56,1.74,1.95,-6.31,0.21,-4.64
5.066082000732422,2,3,3,2,-7.75,1.64,1.95,-4.96,0.18,-3.64
5.076081991195679,2,3,3,2,-7.84,1.35,1.66,-3.86,0.16,-2.59
5.086081981658936,2,3,3,2,-7.82,1.68,1.17,-2.4,0.26,-1.77
5.096081972122192,2,3,3,2,-8.039999999999999,1.92,0.72,-1.19,0.23,-1.31
5.106081962585449,2,3,3,2,-8.359999999999999,2.01,0.45,0.04,0,-1.14
5.116081953048706,2,3,3,2,-9.49,2.7,0.5,1.6,-0.4,-1.18
5.126081943511963,2,3,3,2,-9.890000000000001,2.3,0.88,2.7,-0.84,-1.13
5.13608193397522,2,3,3,2,-10.06,1.65,0.9399999999999999,2.79,-0.97,-0.92
5.146081924438477,2,3,3,2,-9.98,0.6,0.85,2.01,-0.72,-0.76
5.156081914901733,2,3,3,2,-9.94,-0.13,0.64,1.92,-0.19,-0.8
5.16608190536499,2,3,3,2,-9.890000000000001,-0.85,0.79,1.34,0.12,-0.83
5.176082134246826,2,3,3,2,-9.83,-1.26,0.89,0.55,0.13,-0.96
5.186082124710083,2,3,3,2,-9.890000000000001,-1.88,0.99,-0.15,-0.03,-1.05
5.197082042694092,2,3,3,2,-10.01,-1.74,1,-0.22,-0.05,-1.15
5.207082033157349,2,3,3,2,-10.1,-1.72,0.97,-0.45,-0.09,-1.15
5.217082023620605,2,3,3,2,-10.17,-1.62,1.01,-0.78,-0.22,-0.99
5.227082014083862,2,3,3,2,-10.04,-1.44,1.52,-0.62,-0.23,-0.84
5.237082004547119,2,3,3,1,-9.98,-1.55,1.41,-0.64,-0.04,-0.8
5.247081995010376,2,3,3,1,-9.9,-1.95,1.16,-1.15,0.14,-0.72
5.257081985473633,2,3,3,1,-9.77,-2.09,0.87,-1.37,0.41,-0.71
5.26708197593689,2,3,3,1,-9.81,-1.75,0.73,-1.29,0.59,-0.79
5.277081966400146,2,3,3,1,-9.720000000000001,-1.59,0.67,-1.2,0.57,-0.96
5.287081956863403,2,3,3,1,-9.619999999999999,-1.08,0.58,-0.84,0.57,-1.29
5.29708194732666,2,3,3,1,-9.59,-0.63,0.53,-0.76,0.62,-1.5
5.307081937789917,2,3,3,1,-9.539999999999999,0.15,0.24,-0.99,0.54,-1.54
5.317081928253174,2,3,3,1,-9.48,0.4,0.27,-1.26,0.46,-1.45
5.327081918716431,2,3,3,1,-9.380000000000001,0.43,0.22,-1.66,0.37,-1.29
5.337081909179688,2,3,3,1,-9.41,0.29,0.14,-2,0.34,-1.14
5.347081899642944,2,3,3,1,-9.49,0.51,0.41,-1.77,0.31,-0.98
5.35708212852478,2,3,3,1,-9.52,0.36,0.57,-1.44,0.24,-0.88
5.367082118988037,2,3,3,1,-9.390000000000001,0,0.73,-1.22,0.13,-0.8
5.377082109451294,2,3,3,1,-9.359999999999999,-0.36,0.86,-1.04,0.06,-0.7
5.387082099914551,2,3,3,1,-9.31,-0.68,1.06,-0.66,0.05,-0.76
5.397082090377808,2,3,3,1,-9.23,-0.8100000000000001,1.07,-0.16,0.09,-0.77
5.407082080841064,2,3,3,1,-9.23,-0.78,0.96,0.47,0.08,-0.71
5.417082071304321,2,3,3,1,-9.26,-0.47,0.88,1.2,-0.15,-0.49
5.427082061767578,2,3,3,1,-9.470000000000001,0.04,0.97,1.81,-0.38,-0.25
5.437082052230835,2,3,3,1,-9.699999999999999,0.02,0.92,1.87,-0.57,0.04
5.447082042694092,2,3,3,1,-9.779999999999999,-0.2,0.93,1.33,-0.6899999999999999,0.29
5.457082033157349,2,3,3,1,-9.77,-0.59,0.79,0.91,-0.57,0.5
5.467082023620605,2,3,3,1,-9.81,-1.33,0.62,0.74,-0.25,0.52
5.477082014083862,2,3,3,1,-9.880000000000001,-1.52,0.61,0.98,0,0.41
5.487082004547119,2,3,3,2,-9.880000000000001,-1.54,0.68,1.64,0.15,0.25
5.497081995010376,2,3,3,2,-9.779999999999999,-1.4,0.59,2.14,0.2,0.08
5.507081985473633,2,3,3,2,-9.720000000000001,-1.06,0.48,2.25,0.17,-0.05
5.51708197593689,2,3,3,2,-9.75,-0.89,0.63,1.92,0.08,-0.24
5.527081966400146,2,3,3,2,-9.66,-0.9,0.78,1.35,0.03,-0.32
5.537081956863403,2,3,3,2,-9.619999999999999,-0.78,0.66,0.75,0.02,-0.31
5.54708194732666,2,3,3,2,-9.789999999999999,-1.06,0.68,0.16,-0.07000000000000001,-0.3
5.557081937789917,2,3,3,2,-9.869999999999999,-1.22,0.57,-0.38,-0.24,-0.27
5.567081928253174,2,3,3,2,-9.81,-1.69,0.66,-0.92,-0.34,-0.21
5.577081918716431,2,3,3,2,-9.58,-1.76,0.62,-0.9399999999999999,-0.18,-0.3
5.587081909179688,2,3,3,2,-9.58,-1.69,0.6899999999999999,-0.96,-0.04,-0.41
5.597081899642944,2,3,3,2,-9.550000000000001,-1.71,0.72,-0.96,-0.01,-0.46
5.60708212852478,2,3,3,2,-9.550000000000001,-1.41,0.59,-0.87,0.05,-0.52
5.617082118988037,2,3,3,2,-9.83,-0.86,0.75,-0.92,-0.03,-0.51
5.627082109451294,2,3,3,2,-9.789999999999999,-0.73,0.88,-1.27,-0.14,-0.4
5.637082099914551,2,3,3,2,-9.74,-0.59,0.85,-1.64,-0.07000000000000001,-0.25
5.647082090377808,2,3,3,2,-9.66,-0.64,0.91,-1.99,0,-0.11
5.657082080841064,2,3,3,2,-9.449999999999999,-0.66,0.8100000000000001,-2,0.11,0.01
5.667082071304321,2,3,3,2,-9.369999999999999,-0.5,0.88,-1.71,0.2,0.15
5.677082061767578,2,3,3,2,-9.289999999999999,-0.29,1.02,-1.14,0.26,0.3
5.687082052230835,2,3,3,2,-9.210000000000001,-0.07000000000000001,1.08,-0.71,0.19,0.57
5.697082042694092,2,3,3,2,-8.960000000000001,0.25,1.11,-0.47,0.09,0.97
5.707082033157349,2,3,3,2,-8.68,0.34,1.1,-0.44,-0.02,1.48
5.717082023620605,2,3,3,2,-8.51,0.83,1.08,-0.07000000000000001,-0.06,1.92
5.727082014083862,2,3,3,2,-8.460000000000001,1.34,1.12,0.41,-0.11,2.33
5.737082004547119,2,3,3,2,-8.380000000000001,2.89,1.28,1.11,-0.36,2.87
5.747081995010376,2,3,3,2,-8.35,4,1.38,1.81,-0.79,3.54
5.757081985473633,2,3,3,2,-8.300000000000001,5.05,1.45,2.35,-0.98,4.34
5.76708197593689,2,3,3,2,-8.19,5.85,1.7,2.29,-1.03,5.61
5.777081966400146,2,3,3,2,-7.46,6.39,1.54,1.91,-0.8100000000000001,7.2
5.787081956863403,2,3,3,3,-7.01,4.91,1.24,0.23,-0.04,8.859999999999999
5.79708194732666,2,3,3,3,-6.94,3,0.74,-2.69,0.78,9.98
5.807081937789917,2,3,3,3,-6.78,1.46,-0.1,-4.41,1.04,10.19
5.817081928253174,2,3,3,3,-7.36,-0.1,0.01,-3.19,1.69,9.5
5.827081918716431,2,3,3,3,-7.85,-0.19,0.07000000000000001,-0.01,1.72,8.67
5.837081909179688,2,3,3,3,-8.369999999999999,-0.05,0.18,3.96,1.27,8.19
5.847081899642944,2,3,3,3,-8.779999999999999,0.22,0.75,6.66,0.9399999999999999,8.26
5.85708212852478,2,3,3,3,-9.06,1.56,0.16,7.71,1.39,8.65
5.867082118988037,2,3,3,3,-9.720000000000001,1.74,0.29,6.81,2.3,9.19
5.877082109451294,2,3,3,3,-10.24,1.14,0.46,3.87,2.55,9.779999999999999
5.887082099914551,2,3,3,3,-9.99,-0.3,0.6899999999999999,1.72,2.81,10.66
5.897082090377808,2,3,3,3,-9.52,-3.04,-0.38,2.15,3.86,11.24
5.907082080841064,2,3,3,3,-9.73,-4.22,-1.17,2.69,3.7,11.53
5.917082071304321,2,3,3,3,-9.23,-4.83,-1.3,4.34,2.76,11.01
5.927082061767578,2,3,3,3,-9.380000000000001,-3,-1.09,6.87,3.15,9.99
5.937082052230835,2,3,3,3,-9.380000000000001,-2.21,-1.63,6.38,3.15,9.109999999999999
5.947082042694092,2,3,3,3,-9.85,-0.19,-1.88,6.16,3.38,8.279999999999999
5.957082033157349,2,3,3,3,-10.67,1.34,-1.99,4.5,3.81,7.34
5.967082023620605,2,3,3,3,-12.42,2.22,-1.24,0.8,3.8,6.53
5.977082014083862,2,3,3,3,-12.97,1.32,-0.3,-3.11,3.41,6.17
5.988081932067871,2,3,3,3,-13.12,0.04,0.42,-6.15,3.25,5.66
5.997081995010376,2,3,3,3,-13.33,-1.3,0.43,-7.89,3.18,5.04
6.007081985473633,2,3,3,3,-14.25,-3.84,0.72,-8.15,2.78,3.78
6.01708197593689,2,3,3,3,-14.91,-4.72,1.01,-7.19,2.05,2.13
6.027081966400146,2,3,3,3,-15.73,-5.3,1.5,-5.64,1.18,0.24
6.037081956863403,2,3,3,3,-16.6,-5.55,1.68,-3.85,0.3,-1.61
6.04708194732666,2,3,3,3,-18.19,-6.24,3.12,-2.44,-0.33,-3.28
6.057081937789917,2,3,3,3,-18.66,-6.4,3.65,-1.41,-1.17,-4.62
6.067081928253174,2,3,3,3,-19.07,-6.4,4.69,-0.17,-2.08,-5.72
6.077081918716431,2,3,3,3,-19.4,-7.06,5.56,0.38,-3.28,-6.66
6.087081909179688,2,3,3,3,-19.45,-8.57,7.06,1.34,-4.81,-7.65
6.097081899642944,2,3,3,3,-19.74,-9.52,7.68,2.71,-6.64,-9.1
6.10708212852478,2,3,3,3,-19.58,-10.39,6.13,4.74,-8.4,-11.06
6.117082118988037,2,3,3,3,-20.48,-10.63,5.18,6.63,-9.369999999999999,-13.47
6.127082109451294,2,3,3,3,-23.82,-12.44,2.74,7.95,-10.56,-15.9
6.137082099914551,2,3,3,3,-25.54,-13.4,0.54,8.869999999999999,-11.49,-18.28
6.147082090377808,2,3,3,3,-26.87,-13.11,-1.44,10.46,-10.93,-20.02
6.157082080841064,2,3,3,3,-28.08,-12.27,-3.29,11.47,-9.960000000000001,-20.6
6.167082071304321,2,3,3,3,-28.58,-4.52,-7.22,11.79,-9.359999999999999,-20.95
6.177082061767578,2,3,3,3,-27.3,0.47,-8.960000000000001,8.539999999999999,-7.94,-21.27
6.187082052230835,2,3,3,3,-24.56,2.12,-9.42,0.95,-5.74,-20.67
6.197082042694092,2,3,3,3,-21.25,4.47,-8.92,-3.55,-2.68,-20.64
6.207082033157349,2,3,3,3,-14.88,2.7,-6.02,-3.78,0.62,-20.95
6.218081951141357,2,3,3,3,-11.29,-1.11,-6,1.28,2.54,-21.32
6.228081941604614,2,3,3,3,-7.86,-1.82,-5.53,15.58,2.75,-21.66
6.238081932067871,2,3,3,3,-6.54,9.34,-3.02,35.25,0.14,-21.73
6.248081922531128,2,3,3,3,-1.95,39.23,12.67,32.27,-7.96,-15.1
6.258081912994385,2,3,3,3,0.8,39.13,19.12,10.03,-9.9,-3.84
6.268081903457642,2,3,3,3,4.16,30.74,7.2,-9.26,1.49,3.89
6.278082132339478,2,3,3,3,5.16,8.94,4.08,-6.21,8.09,6.99
6.288082122802734,2,3,3,2,-5.36,-4.29,1.11,2.28,6,7.55
6.298082113265991,2,3,3,2,-7.39,0.68,1.98,11.42,3.15,5.01
6.308082103729248,2,3,3,2,-4.05,3.61,1.58,12.94,1.28,5.64
6.318082094192505,2,3,3,2,-0.42,2.6,0.75,8.289999999999999,2.15,8.640000000000001
6.328082084655762,2,3,3,2,-0.12,0.27,1,-0.63,2.31,10.36
6.338082075119019,2,3,3,2,-0.18,-1.18,0.13,-7.98,2.33,10.38
6.348082065582275,2,3,3,2,-0.44,-2.29,-1.77,-13.3,2.68,9.85
6.358082056045532,2,3,3,2,-1,-5.24,-3.03,-15.62,2.79,9.140000000000001
6.368082046508789,2,3,3,2,-0.76,-5.15,-3.15,-13.73,2.94,8.25
6.378082036972046,2,3,3,2,-0.6899999999999999,-5.01,-2.61,-10.1,1.95,7.25
6.388082027435303,2,3,3,2,-0.76,-5.25,-2.17,-4.03,0.04,6.16
6.39808201789856,2,3,3,2,1.21,-5.46,-2.01,0.05,-1.2,5.41
6.408082008361816,2,3,3,2,2.11,-6.11,-1.91,2.06,-1.61,4.92
6.418081998825073,2,3,3,2,2.23,-6.38,-2.22,4.92,-1.79,4.31
6.42808198928833,2,3,3,2,1.7,-6.24,-2.27,8.92,-2.19,3.56
6.438081979751587,2,3,3,2,1.03,-4.27,-1.75,13.83,-2.24,2.86
6.448081970214844,2,3,3,2,0.86,-2.88,-1.32,16.77,-1.95,2.4
6.458081960678101,2,3,3,2,0.58,-0.84,-0.99,17.08,-1.55,2.43
6.468081951141357,2,3,3,2,0.33,1.43,-0.55,13.9,-1.31,3.01
6.478081941604614,2,3,3,2,0.22,4.97,0.3,6.4,-0.88,4.27
6.488081932067871,2,3,3,2,-0.05,5.75,0.51,-2.54,0.19,5.64
6.498081922531128,2,3,3,2,-0.25,5.32,0.54,-10.89,1.5,6.49
6.508081912994385,2,3,3,2,-0.41,4.15,-0.13,-16.28,2.45,6.65
6.518081903457642,2,3,3,2,-0.95,3.1,-0.39,-17.74,2.89,6.43
6.528082132339478,2,3,3,2,-1.07,2.92,0.05,-18.36,2.34,6.7
6.538082122802734,2,3,3,2,-1.18,2.46,0.36,-19.1,1.73,6.9
6.548082113265991,2,3,3,2,-1.16,1.86,0.46,-19.32,1.6,6.41
6.558082103729248,2,3,3,2,-0.61,0.78,-1.63,-17.99,1.91,5.48
6.568082094192505,2,3,3,2,-0.6,1.08,-2.62,-15.37,2.55,4.66
6.578082084655762,2,3,3,2,-1.07,1.34,-2.53,-14.03,2.5,3.71
6.588082075119019,2,3,3,2,-1.98,2.5,-1.78,-10.74,0.01,2.92
6.598082065582275,2,3,3,2,-7.43,24.05,10.11,2.79,-4.79,2.95
6.608082056045532,2,3,3,2,-7.24,12.1,14.9,-4.73,-5.64,-0.05
6.618082046508789,2,3,3,2,-7.94,-17.12,6.4,-15.24,2.03,-9.029999999999999
6.628082036972046,2,3,3,2,-12.29,-33.56,-0.76,-15.24,2.03,-9.029999999999999
6.638082027435303,2,3,3,2,-26.4,5.93,5.61,32.96,-0.72,-10.24
6.64808201789856,2,3,3,2,-29.71,-6.69,1.9,28.53,3.01,-0.74
6.658082008361816,2,3,3,2,-22.36,-3.15,-7.38,30.24,7.25,9.75
6.668081998825073,2,3,3,2,-15.47,16.7,-7.94,36.16,7.99,9.23
6.67808198928833,2,3,3,2,-31.79,38.43,-14.18,36.16,7.99,9.23
6.688081979751587,2,3,3,2,-39.31,39.23,10.54,20.88,4.78,20.57
6.698081970214844,2,3,3,2,-38.88,20.74,15.21,-74.44,9.51,21.66
6.708081960678101,2,3,3,2,-6.22,-34.08,-2.44,-79.08,9.25,18.17
6.718081951141357,2,3,3,2,-8.279999999999999,-39.21,-7.77,-18.86,6.51,9.84
6.728081941604614,2,3,3,2,-10.43,-39.11,-5.28,-18.86,6.51,9.84
6.738081932067871,2,3,3,2,-11.58,-35.77,-4.24,47.08,6.31,5.01
6.748081922531128,2,3,3,2,-10.23,-9.94,-3.02,66.54000000000001,0.13,-7.26
6.758081912994385,2,3,3,2,-13.06,0.04,-1.66,52,-3.61,-11.97
6.768081903457642,2,3,3,2,-16,10.01,0.13,26.36,-6.16,-11.04
6.778082132339478,2,3,3,2,-17.92,17.22,1.28,26.36,-6.16,-11.04
6.788082122802734,2,3,3,2,-23.04,11.4,1.21,-3.1,-5.74,-3.57
6.798082113265991,2,3,3,2,-22.55,0.48,-1.05,-35.05,-0.99,8.24
6.808082103729248,2,3,3,2,-18.08,-3.52,-2.83,-30.59,-0.48,5.78
6.818082094192505,2,3,3,2,-11.36,-3.36,-1.94,-27.06,0.05,2.88
6.828082084655762,2,3,3,2,-8.369999999999999,-4.5,-0.74,-27.06,0.05,2.88
6.838082075119019,2,3,3,2,-9.16,-4.95,-0.67,-23.21,0.57,0.16
6.848082065582275,2,3,3,2,-10.64,-5.03,-0.58,-11.09,1.45,-6.9
6.858082056045532,2,3,3,2,-11.91,-4.98,-0.54,-4.06,0.62,-9.67
6.868082046508789,2,3,3,2,-11.37,-5.23,-0.9,2.83,-0.45,-10.36
6.878082036972046,2,3,3,2,-10,-5.31,-1.11,2.83,-0.45,-10.36
6.888082027435303,2,3,3,2,-8.85,-4.7,-1.24,9.050000000000001,-1.24,-9.83
6.89808201789856,2,3,3,2,-8.529999999999999,-3.11,-1.26,14.28,-1.7,-7.89
6.908082008361816,2,3,3,2,-9.220000000000001,1.64,-0.76,11.97,-1.29,-6.8
6.918081998825073,2,3,3,2,-9.619999999999999,3.65,-0.39,6.86,-0.76,-5.4
6.92808198928833,2,3,3,2,-9.67,4.73,-0.13,6.86,-0.76,-5.4
6.938081979751587,2,3,3,2,-9.32,5.22,0.08,1.35,-0.3,-4.17
6.948081970214844,2,3,3,2,-8.09,4.73,1,-8.59,0.28,-3.24
6.958081960678101,2,3,3,2,-7.69,4.04,1.14,-12.23,0.23,-3.63
6.968081951141357,2,3,3,2,-7.49,3.49,1.47,-14.61,0.29,-4.27
6.978081941604614,2,3,3,2,-7.51,3.04,1.83,-14.61,0.29,-4.27
6.988081932067871,2,3,3,2,-7.72,1.59,2.46,-15.46,0.41,-4.67
6.998081922531128,2,3,3,2,-8.029999999999999,0.64,2.44,-13.77,0.12,-4.14
7.008081912994385,2,3,3,2,-8.25,-0.12,2.39,-10.68,0.18,-3.36
7.018081903457642,2,3,3,2,-8.609999999999999,-0.74,2.47,-6.77,0.15,-2.5
7.028082132339478,2,3,3,2,-8.93,-0.91,2.1,-6.77,0.15,-2.5
7.038082122802734,2,3,3,2,-8.710000000000001,-0.6899999999999999,2.04,-2.89,0.13,-1.76
7.048082113265991,2,3,3,2,-8.57,-0.22,1.78,2.87,-0.11,-1.07
7.058082103729248,2,3,3,2,-8.529999999999999,0.36,1.43,3.72,-0.43,-1.04
7.068082094192505,2,3,3,2,-8.960000000000001,0.95,0.55,4.24,-0.65,-1.17
7.078082084655762,2,3,3,2,-9.18,1.09,0.43,4.24,-0.65,-1.17
7.088082075119019,2,3,3,2,-9.470000000000001,1.36,0.21,4.6,-0.53,-1.35
7.098082065582275,2,3,3,2,-9.69,1.98,0,3.45,-0.26,-1.5
7.108082056045532,2,3,3,2,-9.67,2.23,0.12,1.51,0,-1.36
7.118082046508789,2,3,3,2,-9.6,2.24,0.31,-1.25,0.23,-1.1
7.128082036972046,2,3,3,2,-9.539999999999999,1.73,0.43,-1.25,0.23,-1.1
7.138082027435303,2,3,3,2,-9.710000000000001,0.79,0.44,-3.19,0.52,-0.93
7.14808201789856,2,3,3,2,-9.800000000000001,0.18,0.6899999999999999,-4.66,0.54,-0.8
7.158082008361816,2,3,3,2,-9.880000000000001,-0.3,0.72,-4.87,0.33,-0.84
7.168081998825073,2,3,3,2,-9.890000000000001,-0.63,0.72,-4.29,0.26,-0.98
7.17808198928833,2,3,3,2,-9.869999999999999,-1.71,0.78,-4.29,0.26,-0.98
7.188081979751587,2,3,3,2,-9.98,-1.97,0.67,-3.12,0.23,-1.15
7.198081970214844,2,3,3,2,-10,-2.07,0.52,-1.51,0.15,-1.41
7.208081960678101,2,3,3,2,-10.08,-2.2,0.31,-0.2,0.1,-1.65
7.218081951141357,2,3,3,2,-10.06,-1.66,0.2,1.09,0.02,-1.92
7.228081941604614,2,3,3,2,-9.94,-1.23,0.16,1.09,0.02,-1.92
7.239082098007202,2,3,3,2,-9.9,-1.07,0.16,2.04,-0.04,-2.31
7.249082088470459,2,3,3,2,-9.869999999999999,-0.8,0.27,2,-0.11,-2.34
7.259082078933716,2,3,3,2,-9.720000000000001,-0.44,0.19,1.8,-0.16,-2.38
7.269082069396973,2,3,3,2,-9.69,-0.59,0.36,1.24,-0.28,-2.32
7.279082059860229,2,3,3,2,-9.57,-0.51,0.67,1.24,-0.28,-2.32
7.289082050323486,2,3,3,2,-9.58,-0.17,0.72,1.11,-0.22,-2.36
7.299082040786743,2,3,3,2,-9.56,0.31,0.95,0.6,-0.2,-2.43
7.30908203125,2,3,3,2,-9.49,0.49,0.97,0.2,-0.1,-2.37
7.319082021713257,2,3,3,2,-9.35,0.65,1.02,-0.37,-0.01,-2.19
7.329082012176514,2,3,3,2,-9.33,0.57,1.03,-0.37,-0.01,-2.19
7.339082002639771,2,3,3,2,-9.26,0.34,1,-1.27,0.01,-2.04
7.349081993103027,2,3,3,2,-9.31,0.42,0.9399999999999999,-1.44,0.04,-1.71
7.359081983566284,2,3,3,2,-9.390000000000001,0.32,0.86,-1.38,0.03,-1.5
7.369081974029541,2,3,3,2,-9.380000000000001,0.18,0.88,-1.3,-0.07000000000000001,-1.25
7.379081964492798,2,3,3,2,-9.42,0.3,0.83,-1.3,-0.07000000000000001,-1.25
7.389081954956055,2,3,3,2,-9.48,0.52,0.84,-1.03,-0.12,-1.02
7.399081945419312,2,3,3,2,-9.48,0.44,0.9,-0.5600000000000001,-0.29,-0.8
7.409081935882568,2,3,3,2,-9.49,0.37,0.75,-0.49,-0.34,-0.63
7.419081926345825,2,3,3,2,-9.609999999999999,-0.19,0.76,-0.53,-0.33,-0.5
7.429081916809082,2,3,3,2,-9.619999999999999,-0.25,0.72,-0.53,-0.33,-0.5
7.439081907272339,2,3,3,2,-9.68,-0.51,0.74,-0.36,-0.35,-0.37
7.449082136154175,2,3,3,2,-9.74,-0.6899999999999999,0.77,0.21,-0.1,-0.41
7.459082126617432,2,3,3,2,-9.75,-0.65,0.65,0.59,-0.12,-0.48
7.469082117080688,2,3,3,2,-9.710000000000001,-0.52,0.7,1.13,-0.24,-0.54
7.479082107543945,2,3,3,2,-9.69,-0.46,0.86,1.13,-0.24,-0.54
7.489082098007202,2,3,3,2,-9.59,-0.52,1.11,1.58,-0.31,-0.54
7.499082088470459,2,3,3,2,-9.550000000000001,-0.29,1.04,2.01,-0.23,-0.54
7.509082078933716,2,3,3,2,-9.529999999999999,-0.01,0.85,2.03,-0.2,-0.44
7.519082069396973,2,3,3,2,-9.550000000000001,0.14,0.85,1.99,-0.23,-0.33
7.529082059860229,2,3,3,2,-9.710000000000001,0.2,0.6899999999999999,1.99,-0.23,-0.33
7.539082050323486,2,3,3,2,-9.91,-0.4,0.82,1.69,-0.16,-0.29
7.549082040786743,2,3,3,2,-9.949999999999999,-0.7,0.82,0.51,-0.03,-0.37
7.55908203125,2,3,3,2,-9.83,-0.71,0.52,0.42,0.11,-0.55
7.569082021713257,2,3,3,2,-9.67,-0.37,0.46,0.5600000000000001,0.18,-0.71
7.579082012176514,2,3,3,2,-9.65,-0.4,0.63,0.5600000000000001,0.18,-0.71
7.589082002639771,2,3,3,2,-9.6,-0.54,0.66,0.46,0.13,-0.65
7.599081993103027,2,3,3,2,-9.57,-0.5600000000000001,0.66,-0.47,0.15,-0.49
7.609081983566284,2,3,3,2,-9.619999999999999,-0.72,0.66,-0.98,0.2,-0.48
7.619081974029541,2,3,3,2,-9.609999999999999,-0.8,0.8,-1.08,0.29,-0.48
7.629081964492798,2,3,3,2,-9.640000000000001,-0.5600000000000001,0.74,-1.08,0.29,-0.48
7.639081954956055,2,3,3,2,-9.699999999999999,-0.33,0.86,-1,0.26,-0.5600000000000001
7.649081945419312,2,3,3,2,-9.59,0.27,1.08,-0.46,0.18,-0.44
7.659081935882568,2,3,3,2,-9.460000000000001,0.45,1.1,-0.19,0.22,-0.28
7.669081926345825,2,3,3,2,-9.26,0.73,1.1,0.19,0.25,-0.03
7.679081916809082,2,3,3,2,-9.06,1.48,1.16,0.19,0.25,-0.03
7.689081907272339,2,3,3,2,-8.699999999999999,4,1.4,0.93,0.27,0.41
7.699082136154175,2,3,3,2,-8.460000000000001,5.46,1.56,2.33,0.27,2.45
7.709082126617432,2,3,3,2,-8.19,6.61,1.67,1.84,0.16,4.03
7.719082117080688,2,3,3,2,-7.89,7.5,1.53,-0.47,0.06,5.79
7.729082107543945,2,3,3,2,-7.28,5.95,1.79,-0.47,0.06,5.79
7.739082098007202,2,3,3,2,-7.01,5.28,1.66,-3.22,0.21,7.19
7.749082088470459,2,3,3,2,-6.9,4.78,1.65,-3.53,0.89,8.390000000000001
7.759082078933716,2,3,3,2,-7.03,4.59,1.4,-2.36,0.72,8.56
7.769082069396973,2,3,3,2,-6.88,3.54,0.83,-0.86,0.45,8.960000000000001
7.779082059860229,2,3,3,2,-7.01,2.68,-0.16,-0.86,0.45,8.960000000000001
7.789082050323486,2,3,3,2,-7.48,0.75,0.24,-0.51,0.6,9.4
7.799082040786743,2,3,3,2,-7.52,-0.96,0.3,-4.22,0.47,9.81
7.80908203125,2,3,3,2,-8.539999999999999,-3.64,-1.24,-3.16,1.12,9.26
7.819082021713257,2,3,3,2,-9.32,-4.06,-1.93,-0.06,0.63,8.640000000000001
7.829082012176514,2,3,3,2,-9.369999999999999,-5.62,-1.19,-0.06,0.63,8.640000000000001
7.839082002639771,2,3,3,2,-9.44,-3.09,-1.42,3.19,0.1,8.050000000000001
7.849081993103027,2,3,3,2,-10.15,-0.51,-0.38,12.52,2.08,6.61
7.859081983566284,2,3,3,2,-10.89,1.61,0.2,13.97,2.94,6.58
7.869081974029541,2,3,3,2,-10.96,2.85,0.49,10.83,3.31,7.46
7.879081964492798,2,3,3,1,-9.91,2,0.59,10.83,3.31,7.46
7.889081954956055,2,3,3,1,-9.859999999999999,0.4,0.44,5.82,3.72,8.529999999999999
7.899081945419312,2,3,3,1,-10.53,-1.23,-0.08,-1.74,3.79,8.91
7.909081935882568,2,3,3,1,-11.15,-2.67,-0.21,-2.33,3.06,8.390000000000001
7.919081926345825,2,3,3,1,-11.39,-4.18,-0.38,-0.34,2.86,7.58
7.929081916809082,2,3,3,1,-11.38,-3.77,-0.37,-0.34,2.86,7.58
7.939081907272339,2,3,3,1,-12.02,-3.45,0.04,2.44,3.2,6.73
7.949082136154175,2,3,3,1,-12.64,-3.03,0.27,2.2,2.69,5.26
7.959082126617432,2,3,3,1,-13.16,-2.57,0.84,0.32,2.15,4.31
7.969082117080688,2,3,3,1,-14.11,-3.5,0.92,-2.7,1.48,2.75
7.979082107543945,2,3,3,1,-15.13,-4.25,0.85,-2.7,1.48,2.75
7.989082098007202,2,3,3,1,-16.32,-4.33,1.23,-4.63,0.36,0.6899999999999999
7.999082088470459,2,3,3,1,-18.87,-5.44,2.73,-4.01,-1.35,-2.81
8.009082078933716,2,3,3,1,-18.76,-6.11,2.27,-3.67,-2.3,-3.5
8.019082069396973,2,3,3,1,-18.91,-6.33,1.99,-2.82,-3.02,-4.16
8.029082059860229,2,3,3,1,-18.91,-6.33,1.99,-2.82,-3.02,-4.16
8.039082050323486,2,3,3,1,-20.22,-7.48,2.76,-2.06,-3.9,-5.2
8.049082040786743,2,3,3,1,-21.42,-11.51,2.93,-2.84,-6.5,-8.01
8.05908203125,2,3,3,1,-21.74,-13.58,2.85,-1.42,-6.85,-10.39
8.069082021713257,2,3,3,1,-22.34,-16.92,1.05,0.89,-7.53,-12.9
8.079082012176514,2,3,3,1,-22.34,-16.92,1.05,0.89,-7.53,-12.9
8.089082002639771,2,3,3,1,-23.04,-17.51,-1.09,4.23,-7.9,-16.08
8.099081993103027,2,3,3,1,-26.06,-14.66,-4.36,12.25,-8.68,-22.68
8.109081983566284,2,3,3,1,-29.09,-4.75,-5.77,15.23,-8.17,-24.57
8.119081974029541,2,3,3,1,-27.96,0.37,-6.26,12.24,-7.99,-25.04
8.129081964492798,2,3,3,1,-27.96,0.37,-6.26,12.24,-7.99,-25.04
8.139081954956055,2,3,3,1,-25.24,5.61,-5.91,6.72,-6.49,-24.11
8.149081945419312,2,3,3,1,-15.81,5.45,-2.5,-1.87,-0.47,-22.99
8.159081935882568,2,3,3,1,-11.78,0.9,-1.86,-0.51,1.79,-23.27
8.169081926345825,2,3,3,1,-8.82,4.46,0.38,5.83,2.04,-23.61
8.179081916809082,2,3,3,1,-8.82,4.46,0.38,5.83,2.04,-23.61
8.189081907272339,2,3,3,1,-4.41,39.23,14.54,24.65,0.26,-25.18
8.199082136154175,2,3,3,1,4.05,37.19,7.12,0.82,-7.91,-5.02
8.209082126617432,2,3,3,1,4.24,17.19,1.14,-13.93,4.38,3.27
8.219082117080688,2,3,3,1,-4.96,-7.3,-0.59,-12.13,9.75,12.09
8.229082107543945,2,3,3,1,-4.96,-7.3,-0.59,-3.84,7.58,12.38
8.239082098007202,2,3,3,1,-8.369999999999999,-5.6,0.77,6.14,4.51,7.88
8.249082088470459,2,3,3,1,-1.63,-2.89,3.72,15.17,-1.19,5.73
8.259082078933716,2,3,3,1,0.25,-0.36,-1.73,20.04,-1.48,5.23
8.270081996917725,2,3,3,1,0.25,-3.24,-2.84,12.81,-0.04,7.39
8.280081987380981,2,3,3,1,0.25,-3.24,-2.84,-0.34,-1.92,9
8.290081977844238,2,3,3,1,0.92,-7.86,-3.04,-4.84,-2.3,8.27
8.300081968307495,2,3,3,1,0.63,-5.5,-2.83,-4.39,-0.06,7.51
8.310081958770752,2,3,3,1,0.15,-3.49,-1.36,-3.2,0.78,6.52
8.320081949234009,2,3,3,1,-0.44,-1.03,-1.34,0.19,0.38,5.15
8.330081939697266,2,3,3,1,-0.44,-1.03,-1.34,1.7,-1.27,4.45
8.340081930160522,2,3,3,1,0.3,1.22,-1.61,0.61,-2.85,4.63
8.350081920623779,2,3,3,1,0.93,0.4,-1.42,-2.92,-3.82,5.06
8.360081911087036,2,3,3,1,0.03,-1.11,-0.88,-6.27,-4.37,5.25
8.370081901550293,2,3,3,1,-0.49,-2.27,-0.53,-7.53,-4.33,5.2
8.380082130432129,2,3,3,1,-0.49,-2.27,-0.53,-7.53,-4.33,5.2
8.390082120895386,2,3,3,1,-0.33,-2.55,-0.57,-1.6,-2.8,4.98
8.400082111358643,2,3,3,1,0.27,-0.39,-0.02,1.77,-1.53,5.63
8.410082101821899,2,3,3,1,0.17,0.83,0.5,2.44,0.04,6.42
8.420082092285156,2,3,3,1,-0.22,1.97,0.34,0.11,1.74,7
8.430082082748413,2,3,3,1,-0.22,1.97,0.34,0.11,1.74,7
8.44008207321167,2,3,3,1,-0.39,2.15,-0.14,-5.81,3.78,6.78
8.450082063674927,2,3,3,1,-1.21,1.4,-0.85,-8.91,4.17,5.97
8.460082054138184,2,3,3,1,-1.05,-0.97,-0.46,-12.7,4,5.02
8.47008204460144,2,3,3,1,-0.27,-1.54,-0.77,-15.7,3.37,4.24
8.480082035064697,2,3,3,1,-0.27,-1.54,-0.77,-15.7,3.37,4.24
8.490082025527954,2,3,3,1,0.29,-3.03,-1.75,-12.48,2.02,3.2
8.500082015991211,2,3,3,1,1.12,-2.36,-2.99,-7.46,1.24,2.42
8.510082006454468,2,3,3,1,1.4,-1.94,-3.87,-3.94,1.16,1.99
8.520081996917725,2,3,3,1,1.42,-2.86,-3.64,-4.42,1.87,1.73
8.530081987380981,2,3,3,2,-1.57,12.17,3.5,-2.4,2.56,1.44
8.540081977844238,2,3,3,2,-1.57,12.17,3.5,14.6,0.06,1.91
8.550081968307495,2,3,3,2,-8.25,8.91,14.67,19.2,-1.64,0.5600000000000001
8.560081958770752,2,3,3,2,-12.83,-20.78,5.08,-0.6,1.52,-3.78
8.570081949234009,2,3,3,2,-30.41,10.1,0.63,-17.14,0.34,-9.49
8.580081939697266,2,3,3,2,-32.73,17.6,5.07,27.73,-4.96,-17.26
8.590081930160522,2,3,3,2,-31.24,0.02,-7.09,26.08,-1.45,-7.96
8.600081920623779,2,3,3,2,-25.23,10.2,-7.98,14,8.74,7.7
8.610081911087036,2,3,3,2,-22.23,19.5,-5.64,15.37,10.7,14.21
8.620081901550293,2,3,3,2,-35.62,26.93,-3.8,9.640000000000001,11.12,12.66
8.630082130432129,2,3,3,2,-39.31,23.5,7.64,1.62,7.87,13.2
8.640082120895386,2,3,3,2,-36.73,-0.36,11.82,-25.22,2.91,17.51
8.650082111358643,2,3,3,2,-15.94,-33.34,1.56,-46.88,5,15.6
8.660082101821899,2,3,3,2,-12.79,-39.21,1.02,-53.97,10.38,11.03
8.670082092285156,2,3,3,2,-12.7,-37.85,-0.35,-30.66,9.460000000000001,6.3
8.680082082748413,2,3,3,2,-12.95,-24.82,-0.72,15.74,5.9,2.93
8.69008207321167,2,3,3,2,-14.26,-6.05,0.83,45.43,3.08,-0.15
8.700082063674927,2,3,3,2,-16.42,0.24,2.8,47.82,0.31,-4.12
8.710082054138184,2,3,3,2,-17.89,4.01,3.56,35.86,-2.7,-7.52
8.72008204460144,2,3,3,2,-18.09,3.46,3.05,16.92,-4.93,-7.97
8.730082035064697,2,3,3,2,-18.55,-3.02,-0.63,-1.59,-4.06,-5.33
8.740082025527954,2,3,3,2,-17.2,-4.43,-1.17,-12.98,-2.78,-1.7
8.750082015991211,2,3,3,2,-14.04,-3.95,-0.89,-16.12,-1.54,0.31
8.760082006454468,2,3,3,2,-12.34,-3.11,-0.42,-14.52,-1.2,0.05
8.770081996917725,2,3,3,2,-12.22,-1.87,0.32,-13.27,-1.16,-1.23
8.780081987380981,2,3,3,2,-12.04,-1.83,0.32,-12.75,-1.18,-2.91
8.790081977844238,2,3,3,2,-11.58,-2.35,0.1,-12.36,-1,-4.79
8.800081968307495,2,3,3,2,-10.36,-3.5,-0.4,-11.36,-0.87,-6.73
8.810081958770752,2,3,3,2,-8.300000000000001,-4.69,-0.76,-8.300000000000001,-0.98,-8.1
8.820081949234009,2,3,3,2,-7.55,-4.7,-0.99,-3.36,-1.45,-8.59
8.830081939697266,2,3,3,2,-7.21,-4.14,-1.1,1.67,-1.78,-8.27
8.840081930160522,2,3,3,2,-7.04,-3.25,-1.08,5.66,-1.66,-7.7
8.850081920623779,2,3,3,2,-6.67,-1.3,-1.14,7.9,-1.48,-7.31
8.860081911087036,2,3,3,2,-6.48,-0.6899999999999999,-0.85,8.66,-1.32,-7.26
8.870081901550293,2,3,3,2,-6.35,0.43,-0.84,8.73,-0.95,-7.32
8.880082130432129,2,3,3,2,-6.01,0.55,-0.74,7.59,-0.55,-7.87
8.890082120895386,2,3,3,2,-5.28,0.95,-0.27,6.04,-0.41,-8.27
8.900082111358643,2,3,3,2,-5.07,0.95,-0.08,4.18,-0.34,-8.51
8.910082101821899,2,3,3,2,-4.8,0.68,0.04,1.87,-0.19,-8.43
8.920082092285156,2,3,3,2,-5.08,0.3,0.46,-0.09,0.01,-8.6
8.930082082748413,2,3,3,1,-5.67,-0.44,0.82,-2.35,0.51,-8.779999999999999
8.94008207321167,2,3,3,1,-6.2,-0.78,1.04,-4.69,0.8100000000000001,-8.76
8.950082063674927,2,3,3,1,-6.82,-0.44,0.67,-4.49,0.92,-8.81
8.960082054138184,2,3,3,1,-9.470000000000001,0.58,1.56,-2.64,0.92,-8.630000000000001
8.97008204460144,2,3,3,1,-11.39,2.17,3.05,-0.26,0.13,-8.039999999999999
8.980082035064697,2,3,3,1,-13.82,4.09,4.8,2.04,-1.73,-7.27
8.990082025527954,2,3,3,1,-15.63,5.13,5.85,2.19,-3.46,-6.25
9.000082015991211,2,3,3,1,-12.34,5.18,3.84,1.1,-3.59,-4.75
9.010082006454468,2,3,3,1,-9.77,4.59,1.77,-0.74,-2,-3.39
9.020081996917725,2,3,3,1,-8.890000000000001,4.41,-0.43,-2.54,0.06,-2.41
9.030081987380981,2,3,3,1,-8.74,3.77,-1.56,-5.04,1.13,-1.16
9.040081977844238,2,3,3,1,-8.800000000000001,3.43,-1.93,-5.98,0.92,-0.16
9.050081968307495,2,3,3,1,-9.039999999999999,2.14,-1.17,-6.48,0.86,-0.37
9.060081958770752,2,3,3,1,-9.07,0.6,-0.34,-8.029999999999999,0.98,-0.87
9.070081949234009,2,3,3,1,-9.34,-0.66,0.27,-9.01,0.96,-1.19
9.080081939697266,2,3,3,1,-10.59,-3.46,1.06,-9.109999999999999,0.99,-1.04
9.090081930160522,2,3,3,1,-10.88,-4.79,1.15,-7.84,0.67,-0.8100000000000001
9.100081920623779,2,3,3,1,-10.28,-5.14,0.86,-5.97,0.12,-0.87
9.110081911087036,2,3,3,1,-9.369999999999999,-5,0.83,-3.24,-0.53,-1.08
9.120081901550293,2,3,3,1,-8.75,-4.72,0.58,-0.79,-0.93,-1.09
9.130082130432129,2,3,3,1,-8.81,-4.5,0.68,0.48,-1.3,-1.24
9.140082120895386,2,3,3,1,-8.890000000000001,-3.61,0.59,1.83,-1.43,-1.77
9.150082111358643,2,3,3,1,-9.140000000000001,-2.53,0.29,2.14,-1.33,-2.28
9.160082101821899,2,3,3,1,-9.57,-0.95,0.27,1.2,-1.33,-2.79
9.170082092285156,2,3,3,1,-9.720000000000001,-0.21,0.38,0.25,-1.37,-3.19
9.180082082748413,2,3,3,1,-9.619999999999999,0.32,0.8100000000000001,-0.71,-1.41,-3.41
9.19008207321167,2,3,3,1,-9.609999999999999,1.36,1.06,-1.34,-1.27,-3.47
9.200082063674927,2,3,3,1,-9.59,3.01,1.47,-2.79,-1.14,-3.17
9.210082054138184,2,3,3,1,-9.48,3.46,1.62,-4.59,-0.98,-2.62
9.22008204460144,2,3,3,1,-9.6,2.99,1.66,-6.43,-0.55,-1.89
9.230082035064697,2,3,3,1,-9.800000000000001,2.18,1.62,-7.91,-0.13,-1.01
9.240082025527954,2,3,3,1,-10.1,0.1,1.18,-8.76,0.16,-0.07000000000000001
9.250082015991211,2,3,3,1,-9.94,-0.9399999999999999,0.76,-8.56,0.35,0.58
9.260082006454468,2,3,3,1,-9.85,-2.12,0.38,-7.8,0.45,0.88
9.270081996917725,2,3,3,1,-9.859999999999999,-3.27,0.18,-6.41,0.52,0.84
9.280081987380981,2,3,3,1,-9.550000000000001,-3.93,-0.35,-4.25,0.37,0.59
9.29108190536499,2,3,3,1,-9.470000000000001,-4.19,-0.43,-2.58,0.24,0.25
9.301082134246826,2,3,3,1,-9.470000000000001,-4.21,-0.54,-1.2,0.29,-0.06
9.311082124710083,2,3,3,1,-9.32,-3.49,-0.04,-0.04,0.25,-0.22
9.32108211517334,2,3,3,1,-9.31,-2.92,0.27,1.31,0.12,-0.39
9.331082105636597,2,3,3,1,-9.369999999999999,-2.4,0.57,2.14,0.04,-0.66
9.341082096099854,2,3,3,1,-9.48,-1.91,0.85,2.52,0.09,-0.79
9.371082067489624,2,3,3,1,-9.640000000000001,-0.23,1.12,2.17,0.01,-0.26
9.381082057952881,2,3,3,1,-9.77,-0.36,0.86,1.79,0.07000000000000001,-0.02
9.391082048416138,2,3,3,1,-9.73,-1.08,0.34,1.11,-0.01,0.19
9.401082038879395,2,3,3,1,-9.75,-1.46,0.14,0.42,0.11,0.33
9.411082029342651,2,3,3,1,-9.59,-1.7,0.07000000000000001,0.01,0.24,0.32
9.421082019805908,2,3,3,1,-9.449999999999999,-1.94,0.08,-0.24,0.31,0.21
9.431082010269165,2,3,3,1,-9.51,-2.78,0.26,-0.6899999999999999,0.43,-0.04
9.441082000732422,2,3,3,1,-9.43,-2.83,0.23,-1.12,0.44,-0.23
9.451081991195679,2,3,3,1,-9.539999999999999,-2.84,0.28,-0.99,0.35,-0.4
9.461081981658936,2,3,3,1,-9.57,-2.52,0.35,-0.67,0.2,-0.48
9.471081972122192,2,3,3,1,-9.619999999999999,-2.29,0.5,-0.49,-0.03,-0.41
9.481081962585449,2,3,3,1,-9.550000000000001,-2.15,0.49,-0.47,-0.03,-0.27
9.491081953048706,2,3,3,1,-9.539999999999999,-2.06,0.44,-0.22,-0.01,-0.19
9.501081943511963,2,3,3,1,-9.57,-2.1,0.39,0.02,-0.01,-0.15
9.51108193397522,2,3,3,1,-9.550000000000001,-2.17,0.35,0.23,-0.06,-0.08
9.521081924438477,2,3,3,1,-9.550000000000001,-2.08,0.43,0.3,-0.07000000000000001,-0.05
9.531081914901733,2,3,3,2,-9.49,-2.15,0.45,0.48,-0.01,-0.13
9.54108190536499,2,3,3,2,-9.56,-2.2,0.44,0.39,0.05,-0.2
9.551082134246826,2,3,3,2,-9.529999999999999,-2.13,0.45,0.28,0.05,-0.18
9.561082124710083,2,3,3,2,-9.5,-2.01,0.52,0.52,0.05,-0.23
9.57108211517334,2,3,3,2,-9.529999999999999,-1.93,0.54,0.6,0.04,-0.24
9.581082105636597,2,3,3,2,-9.550000000000001,-2.06,0.5600000000000001,0.63,0.12,-0.23
9.591082096099854,2,3,3,2,-9.539999999999999,-1.92,0.49,0.9,0.04,-0.24
9.60108208656311,2,3,3,2,-9.57,-1.79,0.38,1.28,-0.04,-0.22
9.611082077026367,2,3,3,2,-9.640000000000001,-1.91,0.37,1.35,-0.03,-0.2
9.621082067489624,2,3,3,2,-9.6,-2.04,0.45,1.32,0.02,-0.15
9.631082057952881,2,3,3,2,-9.550000000000001,-1.93,0.39,1.44,0.1,-0.15
9.641082048416138,2,3,3,2,-9.51,-1.94,0.34,1.33,0.1,-0.16
9.651082038879395,2,3,3,2,-9.52,-2.2,0.45,0.9,0.14,-0.21
9.661082029342651,2,3,3,2,-9.5,-2.16,0.54,0.73,0.21,-0.25
9.671082019805908,2,3,3,2,-9.49,-2.14,0.61,0.5600000000000001,0.12,-0.3
9.681082010269165,2,3,3,2,-9.57,-2.01,0.55,0.32,0.04,-0.32
9.691082000732422,2,3,3,2,-9.56,-2.3,0.77,-0.31,0.05,-0.27
9.701081991195679,2,3,3,2,-9.460000000000001,-2.1,0.43,-0.38,0.02,-0.25
9.711081981658936,2,3,3,2,-9.49,-2.14,0.5,-0.52,-0.01,-0.21
9.721081972122192,2,3,3,2,-9.48,-2.11,0.4,-0.45,-0.12,-0.2
9.731081962585449,2,3,3,2,-9.52,-2.29,0.38,-0.52,-0.06,-0.15
9.741081953048706,2,3,3,2,-9.6,-2.41,0.27,-0.39,0.04,-0.15
9.751081943511963,2,3,3,2,-9.58,-2.37,0.26,-0.07000000000000001,0.06,-0.15
9.76108193397522,2,3,3,2,-9.529999999999999,-2.4,0.35,0.23,0,-0.22
9.771081924438477,2,3,3,2,-9.550000000000001,-2.33,0.47,0.45,0.01,-0.32
9.781081914901733,2,3,3,2,-9.51,-2.11,0.54,0.6,-0.08,-0.36
9.79108190536499,2,3,3,2,-9.539999999999999,-2.06,0.55,0.64,-0.05,-0.41
9.801082134246826,2,3,3,2,-9.51,-1.91,0.51,0.55,-0.04,-0.32
9.811082124710083,2,3,3,2,-9.52,-1.81,0.5,0.55,-0.03,-0.27
9.82108211517334,2,3,3,2,-9.529999999999999,-1.59,0.47,0.5,-0.03,-0.22
9.831082105636597,2,3,3,2,-9.59,-1.62,0.47,0.44,-0.05,-0.15
9.841082096099854,2,3,3,2,-9.609999999999999,-1.87,0.54,0.03,-0.02,-0.04
9.85108208656311,2,3,3,2,-9.59,-1.9,0.35,0.02,0.01,0
9.861082077026367,2,3,3,2,-9.550000000000001,-2.07,0.39,-0.03,0.01,-0.01
9.871082067489624,2,3,3,2,-9.529999999999999,-2.08,0.39,-0.06,-0.04,-0.09
9.881082057952881,2,3,3,2,-9.550000000000001,-2.07,0.3,-0.11,-0.05,-0.15
9.891082048416138,2,3,3,2,-9.529999999999999,-2.47,0.49,-0.63,0.02,-0.06
9.901082038879395,2,3,3,2,-9.449999999999999,-2.44,0.26,-0.43,0.04,-0.06
9.911082029342651,2,3,3,2,-9.5,-2.47,0.32,-0.29,0.06,-0.07000000000000001
9.921082019805908,2,3,3,2,-9.48,-2.38,0.38,-0.05,-0.13,-0.17
9.931082010269165,2,3,3,2,-9.49,-2.26,0.41,0.14,-0.23,-0.26
9.941082000732422,2,3,3,2,-9.58,-2.16,0.41,0.14,-0.26,-0.25
9.951081991195679,2,3,3,2,-9.57,-2.21,0.43,-0.28,-0.13,-0.12
9.961081981658936,2,3,3,2,-9.57,-2.04,0.43,-0.13,-0.07000000000000001,-0.08
9.971081972122192,2,3,3,2,-9.56,-2.03,0.5,-0.04,-0.06,-0.1
9.981081962585449,2,3,3,2,-9.5,-2.01,0.54,0.09,-0.17,-0.1
9.991081953048706,2,3,3,2,-9.51,-2.07,0.55,-0.03,-0.2,-0.13
10.00108194351196,2,3,3,2,-9.529999999999999,-1.98,0.39,-0.05,-0.26,-0.11
10.01108193397522,2,3,3,2,-9.539999999999999,-1.78,0.42,-0.11,-0.25,-0.1
10.02108192443848,2,3,3,2,-9.550000000000001,-1.84,0.38,-0.24,-0.24,-0.07000000000000001
10.03108191490173,2,3,3,2,-9.57,-2.15,0.48,-0.71,-0.11,-0.01
10.04108190536499,2,3,3,2,-9.550000000000001,-2.35,0.58,-0.78,-0.02,0.04
10.05108213424683,2,3,3,2,-9.539999999999999,-2.38,0.38,-0.44,0.01,0.06
10.06108212471008,2,3,3,2,-9.48,-2.34,0.47,-0.07000000000000001,-0.07000000000000001,0.06
10.07108211517334,2,3,3,2,-9.43,-2.16,0.45,0.27,-0.17,-0.02
10.0810821056366,2,3,3,2,-9.470000000000001,-2.06,0.41,0.36,-0.19,-0.05
10.09108209609985,2,3,3,2,-9.59,-2.46,0.55,-0.03,-0.15,0.06
10.10108208656311,2,3,3,2,-9.6,-2.4,0.37,0.1,-0.05,0.05
10.11108207702637,2,3,3,2,-9.56,-2.41,0.47,0.31,-0.1,0.01
10.12108206748962,2,3,3,2,-9.49,-2.38,0.47,0.55,-0.14,-0.03
10.13108205795288,2,3,3,3,-9.43,-2.04,0.49,0.78,-0.18,-0.1
10.14108204841614,2,3,3,3,-9.449999999999999,-2.08,0.61,0.59,-0.19,-0.14
10.15108203887939,2,3,3,3,-9.5,-2.03,0.54,0.36,-0.19,-0.09
10.16108202934265,2,3,3,3,-9.58,-1.96,0.49,0.26,-0.13,-0.06
10.17108201980591,2,3,3,3,-9.58,-1.93,0.57,0.26,-0.14,-0.03
10.18108201026917,2,3,3,3,-9.550000000000001,-1.87,0.58,0.29,-0.17,-0.05
10.19108200073242,2,3,3,3,-9.539999999999999,-1.92,0.52,0.16,-0.15,-0.04
10.20108199119568,2,3,3,3,-9.56,-2.08,0.51,-0.16,-0.05,0.09
10.21108198165894,2,3,3,3,-9.529999999999999,-2.15,0.5,-0.12,-0.01,0.16
10.22108197212219,2,3,3,3,-9.550000000000001,-2.22,0.57,-0.02,0.01,0.15
10.23108196258545,2,3,3,3,-9.550000000000001,-2.32,0.53,0.1,0,0.06
10.24108195304871,2,3,3,3,-9.5,-2.31,0.55,0.28,-0.06,0.04
10.25108194351196,2,3,3,3,-9.48,-2.23,0.44,0.46,-0.12,-0.01
10.26108193397522,2,3,3,3,-9.51,-2.18,0.52,0.5,-0.1,0.01
10.27108192443848,2,3,3,3,-9.51,-2.14,0.55,0.48,-0.09,0
10.28108191490173,2,3,3,3,-9.52,-2.19,0.58,0.44,-0.03,-0.02
10.29108190536499,2,3,3,3,-9.529999999999999,-2.2,0.53,0.49,0,-0.01
10.30108213424683,2,3,3,3,-9.529999999999999,-2.21,0.48,0.51,0.01,-0.08
10.31108212471008,2,3,3,3,-9.5,-2.14,0.54,0.48,-0.06,-0.08
10.32208204269409,2,3,3,3,-9.49,-2.08,0.55,0.46,-0.06,-0.13
10.33208203315735,2,3,3,3,-9.48,-2.03,0.59,0.34,-0.03,-0.08
10.34208202362061,2,3,3,3,-9.5,-2.1,0.59,0.19,-0.02,-0.07000000000000001
10.35208201408386,2,3,3,3,-9.529999999999999,-2.14,0.52,0.02,0.07000000000000001,-0.06
10.36208200454712,2,3,3,3,-9.51,-2.14,0.51,0.08,0.04,-0.05
10.37208199501038,2,3,3,3,-9.52,-2.17,0.57,0.15,0.05,-0.08
10.38208198547363,2,3,3,3,-9.539999999999999,-2.23,0.6,0.09,0.03,-0.1
10.39208197593689,2,3,3,3,-9.52,-2.23,0.63,0.12,0.05,-0.11
10.40208196640015,2,3,3,3,-9.51,-2.13,0.45,0.24,0,-0.1
10.4120819568634,2,3,3,3,-9.52,-2.23,0.52,0.13,0.06,-0.08
10.42208194732666,2,3,3,3,-9.550000000000001,-2.29,0.59,0.05,0.06,-0.06
10.43208193778992,2,3,3,3,-9.550000000000001,-2.26,0.5600000000000001,0.24,0.06,-0.09
10.44208192825317,2,3,3,3,-9.52,-2.18,0.52,0.37,0.03,-0.11
10.45208191871643,2,3,3,3,-9.51,-2.21,0.46,0.45,0.01,-0.13
10.46208190917969,2,3,3,3,-9.5,-2.23,0.5600000000000001,0.39,0.05,-0.13
10.47208189964294,2,3,3,3,-9.48,-2.11,0.54,0.54,0.06,-0.15
10.48208212852478,2,3,3,3,-9.51,-2,0.6,0.51,0.06,-0.12
10.49208211898804,2,3,3,3,-9.550000000000001,-2.13,0.62,0.3,0.08,-0.09
10.50208210945129,2,3,3,3,-9.539999999999999,-2.15,0.55,0.24,0.12,-0.06
10.51208209991455,2,3,3,3,-9.550000000000001,-2.12,0.57,0.27,0.1,-0.04
10.52208209037781,2,3,3,3,-9.470000000000001,-2.06,0.52,0.29,0.07000000000000001,-0.05
10.53208208084106,2,3,3,3,-9.49,-2.01,0.48,0.2,0.07000000000000001,-0.07000000000000001
10.54208207130432,2,3,3,3,-9.51,-2.19,0.61,-0.22,0.14,-0.01
10.55208206176758,2,3,3,3,-9.51,-2.21,0.52,-0.27,0.2,0.01
10.56208205223083,2,3,3,3,-9.529999999999999,-2.24,0.55,-0.15,0.2,0.01
10.57208204269409,2,3,3,3,-9.48,-2.24,0.52,0,0.16,-0.01
10.58208203315735,2,3,3,3,-9.51,-2.16,0.49,0.15,0.09,-0.11
10.59208202362061,2,3,3,3,-9.51,-2.19,0.58,0,0.07000000000000001,-0.11
10.60208201408386,2,3,3,3,-9.550000000000001,-2.2,0.43,0.06,0.13,-0.1
10.61208200454712,2,3,3,3,-9.550000000000001,-2.11,0.49,0.19,0.1,-0.06
10.62208199501038,2,3,3,3,-9.51,-2.02,0.49,0.35,0.07000000000000001,-0.08
10.63208198547363,2,3,3,3,-9.51,-2,0.46,0.26,0.1,-0.08
10.64208197593689,2,3,3,3,-9.52,-2.12,0.53,0.08,0.17,-0.06
10.65208196640015,2,3,3,3,-9.539999999999999,-2.12,0.46,0.02,0.18,0
10.6620819568634,2,3,3,3,-9.529999999999999,-2.1,0.54,0,0.19,0.04
10.67208194732666,2,3,3,3,-9.5,-2.1,0.52,0.01,0.13,-0.01
10.68208193778992,2,3,3,3,-9.460000000000001,-2.07,0.57,-0.05,0.09,-0.01
10.69208192825317,2,3,3,3,-9.470000000000001,-2.07,0.53,-0.16,0.07000000000000001,-0.01
10.70208191871643,2,3,3,3,-9.52,-2.02,0.41,-0.32,0.13,-0.02
10.71208190917969,2,3,3,3,-9.539999999999999,-2.08,0.43,-0.48,0.13,0
10.72208189964294,2,3,3,3,-9.539999999999999,-2.13,0.52,-0.64,0.17,0.02
10.73208212852478,2,3,3,3,-9.529999999999999,-2.2,0.55,-0.79,0.17,0
10.74208211898804,2,3,3,3,-9.51,-2.18,0.52,-0.74,0.14,-0.06
10.75208210945129,2,3,3,3,-9.550000000000001,-2.2,0.51,-0.78,0.12,-0.09
10.76208209991455,2,3,3,3,-9.56,-2.15,0.49,-0.71,0.07000000000000001,-0.1
10.77208209037781,2,3,3,3,-9.550000000000001,-2.15,0.51,-0.77,0.07000000000000001,-0.09
10.78208208084106,2,3,3,3,-9.49,-2.17,0.5,-0.76,0.06,-0.01
10.79208207130432,2,3,3,3,-9.470000000000001,-2.25,0.43,-0.71,0.07000000000000001,-0.04
10.80208206176758,2,3,3,3,-9.460000000000001,-2.3,0.37,-0.66,0.08,-0.04
10.81208205223083,2,3,3,3,-9.5,-2.37,0.38,-0.57,0.04,-0.06
10.82208204269409,2,3,3,3,-9.529999999999999,-2.37,0.48,-0.53,0.1,-0.08
10.83208203315735,2,3,3,3,-9.49,-2.34,0.54,-0.42,0.04,-0.15
10.84208202362061,2,3,3,3,-9.5,-2.32,0.5600000000000001,-0.3,0.04,-0.24
10.85208201408386,2,3,3,3,-9.48,-2.28,0.42,-0.29,-0.04,-0.27
10.86208200454712,2,3,3,3,-9.48,-2.16,0.47,-0.34,-0.09,-0.32
10.87208199501038,2,3,3,3,-9.529999999999999,-2.07,0.53,-0.54,-0.1,-0.34
10.88208198547363,2,3,3,3,-9.539999999999999,-2.04,0.52,-0.76,-0.05,-0.36
10.89208197593689,2,3,3,3,-9.539999999999999,-1.98,0.52,-0.84,-0.02,-0.35
10.90208196640015,2,3,3,3,-9.550000000000001,-1.91,0.39,-0.95,0,-0.37
10.9120819568634,2,3,3,3,-9.529999999999999,-1.86,0.46,-1.07,0.02,-0.32
10.92208194732666,2,3,3,3,-9.550000000000001,-2.02,0.5600000000000001,-1.22,0.11,-0.23
10.93208193778992,2,3,3,3,-9.5,-2.08,0.58,-1.2,0.16,-0.17
10.94208192825317,2,3,3,3,-9.51,-2.04,0.47,-1,0.14,-0.18
10.95208191871643,2,3,3,3,-9.56,-2.26,0.37,-0.93,0.12,-0.18
10.96208190917969,2,3,3,3,-9.56,-2.31,0.42,-0.77,0.07000000000000001,-0.28
10.97208189964294,2,3,3,3,-9.52,-2.34,0.43,-0.61,0.08,-0.32
10.98208212852478,2,3,3,3,-9.5,-2.4,0.41,-0.59,0.07000000000000001,-0.4
10.99208211898804,2,3,3,3,-9.6,-2.49,0.38,-0.61,0.08,-0.48
11.00208210945129,2,3,3,3,-9.56,-2.49,0.36,-0.63,0.05,-0.53
11.01208209991455,2,3,3,3,-9.529999999999999,-2.39,0.4,-0.4,0.05,-0.63
11.02208209037781,2,3,3,3,-9.49,-2.28,0.38,-0.38,0.06,-0.67
11.03208208084106,2,3,3,3,-9.43,-2.1,0.4,-0.45,0.09,-0.65
11.04208207130432,2,3,3,3,-9.43,-1.98,0.4,-0.51,0.13,-0.53
11.05208206176758,2,3,3,3,-9.460000000000001,-1.93,0.38,-0.65,0.22,-0.41
11.06208205223083,2,3,3,3,-9.460000000000001,-1.8,0.37,-0.62,0.26,-0.29
11.07208204269409,2,3,3,3,-9.59,-1.94,0.39,-0.73,0.35,-0.16
11.08208203315735,2,3,3,3,-9.57,-2,0.33,-0.7,0.37,-0.03
11.09208202362061,2,3,3,3,-9.529999999999999,-2,0.32,-0.68,0.4,0.06
11.10208201408386,2,3,3,3,-9.51,-2.02,0.18,-0.71,0.5,0.12
11.11208200454712,2,3,3,3,-9.5,-1.58,0.13,-0.65,0.65,0.22
11.12208199501038,2,3,3,3,-9.460000000000001,-0.99,0.25,-0.53,0.8100000000000001,0.49
11.13208198547363,2,3,3,3,-9.359999999999999,-0.16,0.4,-0.38,1.04,0.9399999999999999
11.14208197593689,2,3,3,3,-9.380000000000001,1.1,0.9,-0.57,1.3,1.64
11.15208196640015,2,3,3,3,-9.43,1.1,1.02,-0.77,1.58,2.34
11.1620819568634,2,3,3,3,-9.67,0.71,1.05,-1.16,1.73,2.94
11.17208194732666,2,3,3,3,-9.84,0.05,1.19,-1.49,1.89,3.61
11.18208193778992,2,3,3,3,-9.75,-1.78,1.13,-1.16,2,4.21
11.19208192825317,2,3,3,3,-9.56,-2.73,0.89,-0.2,2.01,4.5
11.20208191871643,2,3,3,3,-9.43,-3.51,0.61,0.95,1.9,4.35
11.21208190917969,2,3,3,3,-9.289999999999999,-3.98,0.46,2.01,1.65,3.82
11.22208189964294,2,3,3,3,-9.34,-4.78,0.18,2.66,1.36,3.15
11.23208212852478,2,3,3,3,-9.390000000000001,-4.64,0.19,3.39,0.93,2.36
11.24208211898804,2,3,3,3,-9.41,-4.45,0.37,3.83,0.74,1.47
11.25208210945129,2,3,3,3,-9.44,-4.19,0.38,3.73,0.76,0.6899999999999999
11.26208209991455,2,3,3,3,-9.550000000000001,-3.21,0.63,3.2,0.8,0.1
11.27208209037781,2,3,3,3,-9.49,-2.91,0.78,2.18,0.78,-0.29
11.28208208084106,2,3,3,3,-9.550000000000001,-2.57,0.96,1.05,0.92,-0.53
11.29208207130432,2,3,3,3,-9.609999999999999,-2.25,1.04,-0.14,0.95,-0.72
11.30208206176758,2,3,3,3,-9.69,-1.92,0.95,-1.44,0.97,-0.86
11.31208205223083,2,3,3,3,-9.6,-1.69,1.02,-2.62,1.01,-0.96
11.32208204269409,2,3,3,3,-9.49,-1.71,1,-3.8,1.13,-0.98
11.33208203315735,2,3,3,3,-9.51,-1.91,0.95,-4.92,1.18,-1.1
11.34308195114136,2,3,3,3,-9.550000000000001,-2.01,0.8,-5.68,1.24,-1.24
11.35308194160461,2,3,3,3,-9.56,-2.48,0.72,-6.29,1.35,-1.32
11.36308193206787,2,3,3,3,-9.539999999999999,-2.9,0.65,-6.69,1.24,-1.47
11.37308192253113,2,3,3,3,-9.460000000000001,-2.95,0.54,-6.52,1.05,-1.71
11.38308191299438,2,3,3,3,-9.300000000000001,-3.06,0.6,-6.1,0.89,-1.92
11.39308190345764,2,3,3,3,-9.199999999999999,-3.15,0.4,-5.81,0.75,-2.19
11.40308213233948,2,3,3,3,-9.199999999999999,-3.44,0.19,-5.26,0.83,-2.42
11.41308212280273,2,3,3,3,-9.300000000000001,-3.74,0.13,-4.36,0.73,-2.65
11.42308211326599,2,3,3,3,-9.27,-3.19,-0.05,-3.09,0.49,-2.95
11.43308210372925,2,3,3,3,-9.220000000000001,-2.96,-0.13,-2.13,0.45,-3.19
11.4430820941925,2,3,3,3,-9.24,-2.58,-0.35,-1.54,0.45,-3.37
11.45308208465576,2,3,3,3,-9.42,-2.22,-0.47,-1.21,0.51,-3.49
11.46308207511902,2,3,3,3,-9.550000000000001,-1.67,-0.61,-1.27,0.43,-3.54
11.47308206558228,2,3,3,3,-9.66,-1.33,-0.65,-1.73,0.42,-3.49
11.48308205604553,2,3,3,3,-9.68,-1.2,-0.85,-2.39,0.49,-3.28
11.49308204650879,2,3,3,3,-9.74,-0.98,-1.07,-2.95,0.52,-3.08
11.50308203697205,2,3,3,3,-9.74,-0.8,-1.16,-3.31,0.5600000000000001,-2.95
11.5130820274353,2,3,3,3,-9.66,-0.89,-1.13,-3.69,0.53,-2.86
11.52308201789856,2,3,3,3,-9.699999999999999,-1.03,-1.04,-3.81,0.6,-2.83
11.53308200836182,2,3,3,3,-9.720000000000001,-1.41,-1.2,-3.58,0.68,-2.82
11.54308199882507,2,3,3,3,-9.800000000000001,-1.46,-1.23,-3.04,0.78,-2.79
11.55308198928833,2,3,3,3,-9.82,-1.52,-1.2,-2.2,0.82,-2.75
11.56308197975159,2,3,3,3,-9.81,-1.56,-1.16,-1.3,0.9,-2.7
11.57308197021484,2,3,3,3,-9.800000000000001,-1.54,-1.19,-0.3,0.9399999999999999,-2.71
11.5830819606781,2,3,3,3,-9.68,-1.46,-1.08,0.88,0.9,-2.78
11.59308195114136,2,3,3,3,-9.630000000000001,-1.59,-1.03,1.98,0.92,-2.81
11.60308194160461,2,3,3,3,-9.630000000000001,-1.81,-0.88,2.96,0.85,-2.99
11.61308193206787,2,3,3,3,-9.58,-2,-0.63,3.87,0.73,-3.27
11.62308192253113,2,3,3,3,-9.630000000000001,-1.9,-0.6,4.34,0.71,-3.47
11.63308191299438,2,3,3,3,-9.640000000000001,-1.91,-0.48,4.4,0.67,-3.53
11.64308190345764,2,3,3,3,-9.49,-1.99,-0.45,4.32,0.83,-3.5
11.65308213233948,2,3,3,3,-9.44,-2.19,-0.5600000000000001,4.06,1.01,-3.34
11.66308212280273,2,3,3,3,-9.42,-2.15,-0.51,3.8,1.03,-3.18
11.67308211326599,2,3,3,3,-9.380000000000001,-2.16,-0.39,3.53,1.04,-3.11
11.68308210372925,2,3,3,3,-9.279999999999999,-2.26,-0.29,3.07,0.9399999999999999,-3.19
11.6930820941925,2,3,3,3,-9.18,-2.21,-0.62,2.58,0.91,-3.31
11.70308208465576,2,3,3,3,-9.289999999999999,-2.36,-0.62,1.95,0.84,-3.48
11.71308207511902,2,3,3,3,-9.27,-2.5,-0.5600000000000001,1.33,0.68,-3.75
11.72308206558228,2,3,3,3,-9.25,-2.61,-0.57,0.86,0.61,-4.07
11.73308205604553,2,3,3,3,-9.32,-3.01,-0.5600000000000001,0.59,0.63,-4.39
11.74308204650879,2,3,3,3,-9.32,-3.07,-0.49,0.4,0.71,-4.49
11.75308203697205,2,3,3,3,-9.380000000000001,-3.1,-0.6,0.45,0.8100000000000001,-4.31
11.7630820274353,2,3,3,3,-9.48,-3.04,-0.53,0.6899999999999999,0.83,-4.01
11.77308201789856,2,3,3,3,-9.25,-2.59,-0.33,1.15,0.84,-3.85
11.78308200836182,2,3,3,3,-9.17,-2.47,-0.32,1.5,0.9,-3.85
11.79308199882507,2,3,3,3,-9.199999999999999,-2.54,-0.32,1.65,0.9399999999999999,-3.9
11.80308198928833,2,3,3,3,-9.199999999999999,-2.51,-0.38,1.83,1.01,-4.03
11.81308197975159,2,3,3,3,-9.27,-2.72,-0.49,2.01,1.05,-4.13
11.82308197021484,2,3,3,3,-9.369999999999999,-2.72,-0.49,2.47,1.13,-4.26
11.8330819606781,2,3,3,3,-9.369999999999999,-2.64,-0.5600000000000001,2.95,1.2,-4.41
11.84308195114136,2,3,3,3,-9.369999999999999,-2.5,-0.57,3.39,1.21,-4.52
11.85308194160461,2,3,3,3,-9.279999999999999,-2.52,-0.5,3.71,1.29,-4.66
11.86308193206787,2,3,3,3,-9.23,-2.54,-0.45,4.04,1.41,-4.78
11.87308192253113,2,3,3,3,-9.26,-2.67,-0.36,4.3,1.49,-4.82
11.88308191299438,2,3,3,3,-9.33,-2.79,-0.12,4.68,1.53,-4.87
11.89308190345764,2,3,3,3,-9.33,-2.92,-0.19,4.96,1.48,-4.9
11.90308213233948,2,3,3,3,-9.34,-2.95,-0.4,5.13,1.44,-4.95
11.91308212280273,2,3,3,3,-9.35,-2.87,-0.41,5.38,1.38,-5.02
11.92308211326599,2,3,3,3,-9.130000000000001,-2.68,-0.64,5.36,1.32,-5.05
11.93308210372925,2,3,3,2,-9.25,-2.6,-0.74,5.3,1.33,-5.07
11.9430820941925,2,3,3,2,-9.380000000000001,-2.54,-0.74,5.39,1.3,-5.13
11.95308208465576,2,3,3,2,-9.44,-2.7,-0.91,5.16,1.21,-5.28
11.96308207511902,2,3,3,2,-9.640000000000001,-3.02,-0.76,5.21,1.1,-5.46
11.97308206558228,2,3,3,2,-9.69,-3.17,-0.82,5.15,0.91,-5.64
11.98308205604553,2,3,3,2,-9.73,-3.06,-0.99,5.02,0.68,-5.74
11.99308204650879,2,3,3,2,-9.77,-2.77,-0.92,4.84,0.43,-5.87
12.00308203697205,2,3,3,2,-10.09,-2.4,-0.98,4.46,0.16,-5.94
12.0130820274353,2,3,3,2,-10.37,-2.46,-0.99,3.64,-0.07000000000000001,-5.98
12.02308201789856,2,3,3,2,-10.76,-2.54,-0.78,2.97,-0.14,-6.06
12.03308200836182,2,3,3,2,-11.11,-2.51,-0.5600000000000001,2.65,-0.28,-6.08
12.04308199882507,2,3,3,2,-11.56,-2.25,-0.09,2.44,-0.4,-6.02
12.05308198928833,2,3,3,2,-11.76,-1.92,0.04,2.34,-0.52,-5.92
12.06308197975159,2,3,3,2,-11.82,-1.68,0.27,2.39,-0.62,-5.62
12.07308197021484,2,3,3,2,-11.95,-1.47,0.5,2.7,-0.62,-5.21
12.0830819606781,2,3,3,2,-12.03,-1.35,1.12,3.02,-0.59,-4.66
12.09308195114136,2,3,3,2,-11.86,-1.1,1.16,3.73,-0.61,-3.94
12.10308194160461,2,3,3,2,-11.76,-1,0.91,4.44,-0.59,-3.21
12.11308193206787,2,3,3,2,-11.75,-0.88,0.79,5.29,-0.61,-2.5
12.12308192253113,2,3,3,2,-11.74,-0.6899999999999999,1.17,6.29,-0.48,-1.87
12.13308191299438,2,3,3,1,-11.69,-0.74,1.28,7.18,-0.29,-1.17
12.14308190345764,2,3,3,1,-11.51,-0.65,1.08,7.95,-0.02,-0.29
12.15308213233948,2,3,3,1,-11.24,-0.23,0.84,9.02,0.43,0.9
12.16308212280273,2,3,3,1,-10.68,1.36,0.57,10.43,1.05,2.48
12.17308211326599,2,3,3,1,-10.57,1.59,0.97,10.14,1.76,4.23
12.18308210372925,2,3,3,1,-10.78,0.84,2.16,8.119999999999999,1.65,5.72
12.1930820941925,2,3,3,1,-10.73,0.4,3.17,7.8,-0.14,6.44
12.20308208465576,2,3,3,1,-9.449999999999999,0.66,2.11,8.140000000000001,-2.24,7.23
12.21308207511902,2,3,3,1,-9.34,1.19,2.03,9.26,-2.95,8.470000000000001
12.22308206558228,2,3,3,1,-9.539999999999999,1.62,1.87,10.8,-3.65,9.550000000000001
12.23308205604553,2,3,3,1,-10.11,2.1,1.85,11.74,-4.08,10.33
12.24308204650879,2,3,3,1,-10,1.57,1.24,11.59,-4.44,11.39
12.25308203697205,2,3,3,1,-10.09,0.63,0.36,11.36,-4.73,12.56
12.2630820274353,2,3,3,1,-10.47,-0.33,-0.04,11.27,-4.41,13.02
12.27308201789856,2,3,3,1,-11.17,-2.21,-0.27,11.11,-3.6,13.16
12.28308200836182,2,3,3,0,-11.14,-3,-0.4,11.25,-2.44,13.2
12.29308199882507,2,3,3,0,-11.37,-3.73,-0.85,10.77,-0.89,13.17
12.30308198928833,2,3,3,0,-11.61,-3.98,-0.9,9.59,0.8100000000000001,13.38
12.31308197975159,2,3,3,0,-11.47,-3.87,-0.59,8.619999999999999,1.98,13.96
12.32308197021484,2,3,3,0,-11.16,-3.45,-0.37,8.279999999999999,3.33,14.99
12.3330819606781,2,3,3,0,-11.37,-4.12,0.04,6.9,4.46,15.73
12.34308195114136,2,3,3,0,-11.12,-4.71,0.22,5.13,4.9,15.98
12.35308194160461,2,3,3,0,-10.56,-4.33,-0.77,4.13,5.61,16.21
12.3640820980072,2,3,3,0,-10.86,-3.78,-0.54,3.27,6.47,16.77
12.37408208847046,2,3,3,0,-11.14,-3.43,-0.29,1.61,6.44,17.58
12.38408207893372,2,3,3,0,-11.11,-3.72,-0.41,-1.23,6.44,18.53
12.39408206939697,2,3,3,0,-10.67,-3.96,-0.83,-3.64,6.34,19.58
12.40408205986023,2,3,3,0,-10.68,-3.58,-0.62,-5.58,6.06,20.37
12.41408205032349,2,3,3,0,-10.71,-3.34,-0.27,-7.98,5.82,21.08
12.42408204078674,2,3,3,0,-10.51,-3.7,-0.08,-10,5.5,21.63
12.43408203125,2,3,3,0,-9.859999999999999,-3.86,-0.46,-10.82,5.41,21.77
12.44408202171326,2,3,3,0,-9.83,-3.67,-0.5,-11.2,5.41,21.79
12.45408201217651,2,3,3,0,-9.81,-3.7,-0.45,-12,5.16,21.75
12.46408200263977,2,3,3,0,-9.73,-3.98,-0.41,-12.88,4.78,21.76
12.47408199310303,2,3,3,0,-9.32,-3.9,-0.3,-13.67,4.63,21.63
12.48408198356628,2,3,3,0,-9.32,-3.88,-0.16,-14.71,4.44,21.54
12.49408197402954,2,3,3,0,-9.220000000000001,-3.92,-0.06,-16.05,3.96,21.53
12.5040819644928,2,3,3,0,-9.199999999999999,-4.12,-0.08,-17.04,3.63,21.36
12.51408195495605,2,3,3,0,-8.869999999999999,-4.62,0.15,-17.76,2.94,21.05
12.52408194541931,2,3,3,0,-8.710000000000001,-4.66,0.34,-17.79,2.33,20.3
12.53408193588257,2,3,3,0,-8.51,-4.7,0.53,-17.64,1.67,19.42
12.54408192634583,2,3,3,0,-8.109999999999999,-5.03,0.48,-17.17,1.12,18.32
12.55408191680908,2,3,3,0,-7.41,-5.35,0.52,-16.35,0.47,17.17
12.56408190727234,2,3,3,0,-7.32,-5.25,0.55,-15.26,0.15,16.05
12.57408213615417,2,3,3,0,-7.29,-5.47,0.63,-13.99,-0.32,14.63
12.58408212661743,2,3,3,0,-7.13,-5.19,0.5,-12.22,-0.67,13.03
12.59408211708069,2,3,3,0,-7.15,-4.42,0.57,-11,-0.93,11.58
12.60408210754395,2,3,3,0,-7.14,-4.06,0.66,-10.39,-1.49,10.18
12.6140820980072,2,3,3,0,-7.12,-4.07,0.86,-10.5,-2.28,9.050000000000001
12.62408208847046,2,3,3,0,-6.63,-5.18,0.85,-10.32,-3.05,7.74
12.63408207893372,2,3,3,0,-6.4,-5.44,0.73,-8.15,-2.99,6.3
12.64408206939697,2,3,3,0,-6.36,-4.96,0.43,-4.28,-1.97,4.52
12.65408205986023,2,3,3,0,-6.42,-4.02,0.21,-0.75,-0.76,2.73
12.66408205032349,2,3,3,0,-6.66,-1.36,-0.11,0.8,-0.05,1.07
12.67408204078674,2,3,3,0,-7.04,-0.33,-0.43,0.09,0.44,-0.45
12.68408203125,2,3,3,0,-7.86,0.52,-0.15,-2.2,0.55,-1.73
12.69408202171326,2,3,3,0,-8.9,1.19,0.43,-5.08,0.23,-2.65
12.70408201217651,2,3,3,0,-11.04,3.98,1.53,-6.55,-0.06,-3
12.71408200263977,2,3,3,0,-11.55,5.75,2.02,-7.48,-0.82,-1.84
12.72408199310303,2,3,3,0,-11.55,7.06,2.83,-9.779999999999999,-2.14,-0.14
12.73408198356628,2,3,3,0,-11.16,8.41,3.86,-11.74,-3.02,1.47
12.74408197402954,2,3,3,0,-10.91,11.59,4.13,-13.02,-2.69,2.87
12.7540819644928,2,3,3,0,-11.17,12.28,3.2,-13.31,-1.29,3.62
12.76408195495605,2,3,3,0,-11.32,11.96,1.85,-12.32,-0.37,3.94
12.77408194541931,2,3,3,0,-10.87,11.69,0.29,-9.56,0.07000000000000001,4.29
12.78408193588257,2,3,3,1,-10.36,9.02,1.29,-5.88,1.53,4.41
12.79408192634583,3,3,3,1,-9.94,6,1.75,-2.73,3.36,4.26
12.80408191680908,3,3,3,1,-9.49,3.69,1.3,-0.7,4.46,3.93
12.81408190727234,3,3,3,1,-9.460000000000001,2.83,1.09,0.33,4.33,3.47
12.82408213615417,3,3,3,1,-10.33,2.6,0.43,0.39,3.77,2.8
12.83408212661743,3,3,3,1,-10.96,1.95,-0.22,-1.21,4.58,2.19
12.84408211708069,3,3,3,1,-12.61,3.7,0.41,-5.16,4.7,2.11
12.85408210754395,3,3,3,1,-14.87,5.85,4.54,-13.15,-2.24,1.66
12.8640820980072,3,3,3,1,-8.84,3.78,10.46,-14.41,-9.94,-1.57
12.87408208847046,3,3,3,1,-9.44,5.12,6.52,-11.98,-3.4,-4.25
12.88408207893372,3,3,3,1,-11.65,3.59,2.75,-11.89,2.12,-3.69
12.89408206939697,3,3,3,1,-10.85,0.23,1.2,-9.93,2.79,-3.94
12.90408205986023,3,3,3,1,-10.28,-7.29,-0.34,-7.52,4.21,-4.72
12.91408205032349,3,3,3,1,-9.66,-9.77,-2.23,-5.74,5.47,-5.84
12.92408204078674,3,3,3,1,-9.43,-9.58,-3.7,-1.64,5.12,-7.89
12.93408203125,3,3,3,1,-9.32,-6.33,-4.9,2.64,4.46,-10.42
12.94408202171326,3,3,3,1,-11.76,-2.48,-3.57,2.64,4.46,-10.42
12.95408201217651,3,3,3,1,-12.1,-2.91,-2.32,2.43,4.78,-12.04
12.96408200263977,3,3,3,1,-11.17,-2.87,-1.21,0.5,4.66,-14.17
12.97408199310303,3,3,3,1,-9.9,-4.52,0.43,0.41,4.67,-14.02
12.98408198356628,3,3,3,1,-9.869999999999999,-5.69,-0.16,0.45,4.8,-13.63
12.99408197402954,3,3,3,1,-9.92,-5.35,-0.53,0.45,4.8,-13.63
13.0040819644928,3,3,3,1,-9.859999999999999,-3.75,-0.17,2.23,4.53,-13.72
13.01408195495605,3,3,3,1,-10.16,-2.01,0.54,4.31,4.12,-13.92
13.02408194541931,3,3,3,1,-10.09,-1.55,0,4.25,4.14,-13.7
13.03408193588257,3,3,3,1,-9.869999999999999,-0.83,-0.32,2.94,4.1,-13.4
13.04408192634583,3,3,3,1,-9.710000000000001,-0.2,-0.51,2.03,3.98,-13.27
13.05408191680908,3,3,3,1,-9.4,-0.06,-1.04,1.24,3.75,-13.15
13.06408190727234,3,3,3,1,-9.359999999999999,-0.36,-1.33,0.23,3.61,-13.2
13.07408213615417,3,3,3,1,-9.25,-0.64,-1.63,-0.79,3.67,-13.29
13.08408212661743,3,3,3,1,-9.15,-0.87,-1.62,-1.07,3.96,-13.22
13.09408211708069,3,3,3,1,-9.609999999999999,-0.67,-1.43,-1.07,3.96,-13.22
13.10408210754395,3,3,3,1,-9.869999999999999,-0.52,-1.03,0.21,4.07,-13.21
13.1140820980072,3,3,3,1,-9.869999999999999,-0.5600000000000001,-0.66,1.32,4.05,-13.19
13.12408208847046,3,3,3,1,-9.779999999999999,-0.24,-0.5600000000000001,2.47,3.82,-13.1
13.13408207893372,3,3,3,0,-9.68,0.64,-0.1,3.91,3.63,-12.99
13.14408206939697,3,3,3,0,-9.59,1.29,-0.15,4.89,3.23,-12.59
13.15408205986023,3,3,3,0,-9.48,1.55,-0.38,5.54,2.92,-11.96
13.16408205032349,3,3,3,0,-9.41,1.96,-0.72,5.41,2.7,-11.2
13.17408204078674,3,3,3,0,-9.460000000000001,1.6,-0.9,4.99,2.81,-10.42
13.18408203125,3,3,3,0,-9.51,1.35,-0.82,4.71,3.01,-9.74
13.19408202171326,3,3,3,0,-9.619999999999999,1.49,-0.75,5.22,3,-9.220000000000001
13.20408201217651,3,3,3,0,-9.789999999999999,1.24,-0.61,6.24,2.96,-8.9
13.21408200263977,3,3,3,0,-9.93,0,-0.5600000000000001,6.77,2.86,-8.720000000000001
13.22408199310303,3,3,3,0,-9.83,-0.15,-0.5600000000000001,7.15,2.71,-8.630000000000001
13.23408198356628,3,3,3,0,-9.68,-0.41,-0.49,7.31,2.45,-8.550000000000001
13.24408197402954,3,3,3,0,-9.57,-1.01,-0.48,6.77,2.35,-8.529999999999999
13.2540819644928,3,3,3,0,-9.35,-1.07,-0.84,5.97,2.12,-8.779999999999999
13.26408195495605,3,3,3,0,-9.42,-1.16,-0.63,5.18,1.8,-9.210000000000001
13.27408194541931,3,3,3,0,-9.57,-1.65,-0.51,3.94,1.64,-9.57
13.28408193588257,3,3,3,0,-9.6,-1.91,-0.58,2.7,1.41,-9.99
13.29408192634583,3,3,3,0,-9.51,-1.9,-0.58,2.1,1.17,-10.46
13.30408191680908,3,3,3,0,-9.41,-1.64,-0.6,1.54,0.87,-11.3
13.31408190727234,3,3,3,0,-9.289999999999999,-1.37,-0.4,1.19,0.84,-11.56
13.32408213615417,3,3,3,0,-9.449999999999999,-1.63,-0.32,1.19,0.84,-11.56
13.33408212661743,3,3,3,0,-9.56,-1.9,-0.37,1.25,1.3,-11.45
13.34408211708069,3,3,3,0,-9.68,-2.01,-0.35,2.09,1.7,-10.34
13.35408210754395,3,3,3,0,-9.609999999999999,-2.07,-0.4,2.38,1.81,-9.59
13.3640820980072,3,3,3,0,-9.32,-2.51,-0.33,2.52,1.95,-8.93
13.37408208847046,3,3,3,0,-9.17,-2.9,0.11,2.52,1.95,-8.93
13.38408207893372,3,3,3,0,-9.06,-2.97,-1.77,2.84,2.02,-8.640000000000001
13.39508199691772,3,3,3,0,-9.1,-2.92,-1.3,4.23,2.81,-8.4
13.40508198738098,3,3,3,0,-9.52,-3.27,-0.07000000000000001,5.63,2.74,-8.59
13.41508197784424,3,3,3,0,-9.6,-3.24,0.18,6.2,2.7,-8.92
13.4250819683075,3,3,3,0,-9.51,-2.77,0.2,6.2,2.7,-8.92
13.43508195877075,3,3,3,0,-9.710000000000001,-2.3,0.07000000000000001,7.12,2.51,-8.960000000000001
13.44508194923401,3,3,3,0,-9.880000000000001,-1.67,-0.32,8.25,2.38,-8.93
13.45508193969727,3,3,3,0,-9.779999999999999,-1.4,-0.39,8.31,2.34,-8.800000000000001
13.46508193016052,3,3,3,0,-9.630000000000001,-1.21,-0.48,7.89,2.29,-8.56
13.47508192062378,3,3,3,0,-9.52,-1.17,-0.54,7.89,2.29,-8.56
13.48508191108704,3,3,3,0,-9.58,-1.09,-0.42,7.2,2.15,-8.460000000000001
13.49508190155029,3,3,3,0,-9.630000000000001,-1.23,-0.43,5.43,1.75,-8.26
13.50508213043213,3,3,3,0,-9.67,-1.35,-0.63,4.73,1.58,-8.1
13.51508212089539,3,3,3,0,-9.81,-1.44,-0.63,4.22,1.43,-7.87
13.52508211135864,3,3,3,0,-10.18,-1.88,-0.65,4.22,1.43,-7.87
13.5350821018219,3,3,3,0,-10.39,-2.15,-0.78,4.03,1.32,-7.62
13.54508209228516,3,3,3,0,-10.56,-2.24,-0.68,5.11,1.21,-7.28
13.55508208274841,3,3,3,0,-10.74,-2.25,-0.71,6.23,1.28,-7.28
13.56508207321167,3,3,3,0,-11.11,-2.09,-0.74,7.5,1.28,-7.34
13.57508206367493,3,3,3,0,-11.38,-1.72,-0.95,7.5,1.28,-7.34
13.58508205413818,3,3,3,0,-11.87,-1.15,-0.99,8.69,1.12,-7.53
13.59508204460144,3,3,3,0,-12.46,-0.52,-0.38,10.83,0.66,-7.87
13.6050820350647,3,3,3,0,-12.96,1.03,0.9,11.73,0.19,-7.08
13.61508202552795,3,3,3,0,-12.72,1.84,0.66,11.84,-0.28,-6.02
13.62508201599121,3,3,3,0,-12.52,2.72,0.64,11.84,-0.28,-6.02
13.63508200645447,3,3,3,0,-12.63,3.61,1.06,12.08,-0.46,-4.85
13.64508199691772,3,3,3,0,-13.11,5.7,1.29,13.5,-0.37,-0.52
13.65508198738098,3,3,3,0,-13.36,5.68,1.85,11.45,-0.5,3.01
13.66508197784424,3,3,3,0,-13,4.87,2.04,8.800000000000001,-1.36,6.19
13.6750819683075,3,3,3,0,-12.87,4.51,2.75,8.800000000000001,-1.36,6.19
13.68508195877075,3,3,3,0,-12.02,4.65,1.87,6.66,-2.83,9.26
13.69508194923401,3,3,3,0,-12.32,4.51,1.56,5.26,-6.44,12.4
13.70508193969727,3,3,3,0,-12.73,3.69,0.83,5.42,-7.79,13.7
13.71508193016052,3,3,3,0,-12.27,0.02,-0.66,5.15,-7.92,15.03
13.72508192062378,3,3,3,0,-12.39,-1.27,-1.31,5.15,-7.92,15.03
13.73508191108704,3,3,3,0,-12.84,-2.64,-1.97,5.48,-6.46,16.1
13.74508190155029,3,3,3,0,-13.48,-3.82,-1.91,7.61,-1.79,17.13
13.75508213043213,3,3,3,0,-13.62,-4.8,-1.07,8.31,-0.17,17.77
13.76508212089539,3,3,3,0,-13.15,-4.64,-0.13,7.49,1.83,18.42
13.77508211135864,3,3,3,0,-12.66,-4.46,0.53,7.49,1.83,18.42
13.7850821018219,3,3,3,0,-12.27,-4.02,0.57,5.66,3.63,19.1
13.79508209228516,3,3,3,0,-12.24,-6.24,1.37,-0.78,5.01,19.72
13.80508208274841,3,3,3,0,-11.21,-6.85,0.37,-1.28,5.04,20.13
13.81508207321167,3,3,3,0,-11.59,-6.76,0.21,0.31,5.61,20.22
13.82508206367493,3,3,3,0,-11.58,-6.58,0.23,0.31,5.61,20.22
13.83508205413818,3,3,3,0,-11.55,-5.99,-0.28,1.5,5.41,20.67
13.84508204460144,3,3,3,0,-11.3,-6.18,-0.61,1.4,4.37,21.94
13.8550820350647,3,3,3,0,-10.16,-5.61,-0.79,1.42,4.15,23.15
13.86508202552795,3,3,3,0,-10.82,-5.03,-0.82,0.12,3.82,23.39
13.87508201599121,3,3,3,0,-10.29,-4.84,-0.39,0.12,3.82,23.39
13.88508200645447,3,3,3,0,-9.58,-4.75,-0.72,-1.84,3.53,23.67
13.89508199691772,3,3,3,0,-9.32,-4.97,-1.05,-4.97,3.53,23.31
13.90508198738098,3,3,3,0,-9.130000000000001,-4.95,-1.44,-5.83,4.02,22.99
13.91508197784424,3,3,3,0,-8.85,-4.25,-1.35,-7.49,4.37,22.83
13.9250819683075,3,3,3,0,-8.779999999999999,-4.09,-1.17,-7.49,4.37,22.83
13.93508195877075,3,3,3,0,-8.77,-4.2,-1.15,-10.09,4.37,22.68
13.94508194923401,3,3,3,0,-8.74,-4.4,-1.05,-15.13,3.79,22.03
13.95508193969727,3,3,3,0,-8.73,-4.97,-1.05,-16.18,3.55,21.65
13.96508193016052,3,3,3,0,-8.59,-5.26,-0.96,-16.26,3.31,21.14
13.97508192062378,3,3,3,0,-8.5,-5.44,-0.8100000000000001,-16.26,3.31,21.14
13.98508191108704,3,3,3,0,-8.470000000000001,-5.51,-0.72,-15.75,3.04,20.31
13.99508190155029,3,3,3,0,-8.18,-5.4,-0.6,-13.83,2.53,18.16
14.00508213043213,3,3,3,0,-8.19,-5.1,-0.51,-12.84,2.22,17
14.01508212089539,3,3,3,0,-8.07,-5,-0.39,-12.08,1.81,15.84
14.02508211135864,3,3,3,1,-7.87,-4.68,-0.23,-12.08,1.81,15.84
14.0350821018219,3,3,3,1,-7.61,-4.75,-0.09,-11.8,1.35,14.81
14.04508209228516,3,3,3,1,-7.43,-4.71,-0.12,-11.51,0.86,12.56
14.05508208274841,3,3,3,1,-7.27,-4.56,-0.11,-11.51,0.67,11.42
14.06508207321167,3,3,3,1,-7.05,-4.2,0.04,-11.94,0.26,10.5
14.07508206367493,3,3,3,1,-6.95,-3.78,0.59,-11.94,0.26,10.5
14.08508205413818,3,3,3,1,-6.71,-3.68,0.79,-12.92,-0.32,9.66
14.09508204460144,3,3,3,1,-6.47,-3.95,0.76,-15.06,-1.21,7.44
14.1050820350647,3,3,3,1,-6.57,-5.01,0.51,-15.23,-1.01,5.35
14.11508202552795,3,3,3,1,-6.31,-5.03,0.47,-14.3,-0.78,2.87
14.12508201599121,3,3,3,1,-5.75,-5.09,0.46,-14.3,-0.78,2.87
14.13508200645447,3,3,3,1,-5.4,-5.07,0.34,-12.53,-0.64,0.87
14.14508199691772,3,3,3,1,-5.69,-4.44,0.1,-6.96,-0.77,-1.94
14.15508198738098,3,3,3,1,-6.09,-3.85,-0.21,-4.1,-0.93,-3.22
14.16508197784424,3,3,3,1,-6.59,-3.16,-0.39,-2.55,-1.07,-4.66
14.1750819683075,3,3,3,1,-7.05,-2.32,-0.34,-2.55,-1.07,-4.66
14.18508195877075,3,3,3,1,-8.359999999999999,-0.24,-0.45,-2,-1.27,-6.34
14.19508194923401,3,3,3,1,-9.17,2.06,-0.02,0.53,-1.43,-7.75
14.20508193969727,3,3,3,1,-10.18,4.34,0.97,0.6,-1.69,-6.48
14.21508193016052,3,3,3,1,-11.42,6.18,2.35,-0.44,-2.87,-5.36
14.22508192062378,3,3,3,2,-11.58,12.36,5.61,-0.44,-2.87,-5.36
14.23508191108704,3,3,3,2,-11.46,16,7.24,-1.86,-4.07,-3.72
14.24508190155029,3,3,3,2,-11.38,19.27,6.52,-7.36,4.53,0.17
14.25508213043213,3,3,3,2,-12.37,20.79,2.96,-9.869999999999999,9.449999999999999,2.53
14.26508212089539,3,3,3,2,-15.68,18.05,-3.3,-11.57,4.49,5.47
14.27508211135864,3,3,3,2,-13.35,13.8,-1.58,-11.57,4.49,5.47
14.2850821018219,3,3,3,2,-10.09,8.09,2.2,-11.35,-2.81,6.83
14.29508209228516,3,3,3,2,-8.109999999999999,2.32,4.27,-3.24,3.61,6.37
14.30508208274841,3,3,3,2,-8.550000000000001,-2.25,1.66,0.24,5.77,4.85
14.31508207321167,3,3,3,2,-10.15,-3.42,0.86,3.78,5.29,2.26
14.32508206367493,3,3,3,2,-12.42,-2.9,0.2,3.78,5.29,2.26
14.33508205413818,3,3,3,2,-13.7,1.12,0.67,6.62,3.08,-0.2
14.34508204460144,3,3,3,2,-15.85,14.46,6.05,-1.83,-4.18,3.13
14.3550820350647,3,3,3,2,-16.38,14.91,9.16,-14.82,-10.28,2.18
14.36508202552795,3,3,3,2,-11.52,9.07,7.29,-17.94,-7.66,-2.12
14.37508201599121,3,3,3,2,-7.18,2.67,3.72,-17.94,-7.66,-2.12
14.38508200645447,3,3,3,2,-8.98,-6.83,-2.27,-15.81,0.76,-3.36
14.39508199691772,3,3,3,2,-10.06,-8.710000000000001,-1.85,-8.039999999999999,5.33,-5.1
14.40508198738098,3,3,3,2,-9.58,-8.44,-3.5,-5.97,6.27,-8.24
14.41608190536499,3,3,3,2,-9.050000000000001,-7.86,-4.46,-4.96,5.48,-10.75
14.42608213424683,3,3,3,2,-9.27,-4.66,-4.6,-4.96,5.48,-10.75
14.43608212471008,3,3,3,2,-11.2,-2.55,-2.91,-4.25,4.72,-13.08
14.44608211517334,3,3,3,2,-11.84,-8.31,-1.15,-5.23,5.19,-16.14
14.4560821056366,3,3,3,2,-11.84,-8.31,-1.15,-8.199999999999999,5.74,-15.66
14.46608209609985,3,3,3,2,-10.6,-8.82,-2.06,-6.18,6.3,-15.27
14.47608208656311,3,3,3,2,-9.67,-6.78,-0.75,-6.18,6.3,-15.27
14.48608207702637,3,3,3,2,-9.23,-4.95,0.27,-1.95,5.84,-15.21
14.49608206748962,3,3,3,2,-9.539999999999999,-1.13,0.01,0.68,5.43,-14.63
14.50608205795288,3,3,3,2,-9.66,0.34,0.14,-0.6899999999999999,5.47,-14.48
14.51608204841614,3,3,3,2,-9.5,0.79,0.03,-3.17,5.38,-14.48
14.52608203887939,3,3,3,2,-9.24,0.73,-0.46,-3.17,5.38,-14.48
14.53608202934265,3,3,3,2,-9.220000000000001,0.5,-0.92,-4.73,5.21,-14.58
14.54608201980591,3,3,3,2,-9.390000000000001,0.46,-1.24,-4.69,4.7,-14.45
14.55608201026917,3,3,3,2,-9.51,-0.28,-1.56,-4.31,4.94,-14.35
14.56608200073242,3,3,3,2,-9.539999999999999,-1.27,-1.55,-2.87,5.22,-14.22
14.57608199119568,3,3,3,2,-9.710000000000001,-2.03,-1.73,-2.87,5.22,-14.22
14.58608198165894,3,3,3,2,-9.720000000000001,-2.59,-1.38,-0.58,5.47,-14.22
14.59608197212219,3,3,3,2,-9.75,-1.86,-1,6.32,5.23,-14.81
14.60608196258545,3,3,3,2,-9.75,-1.86,-1,9.17,4.72,-14.98
14.61608195304871,3,3,3,2,-9.74,-1.36,0.02,11.49,3.97,-15.09
14.62608194351196,3,3,3,2,-9.66,-0.43,0.04,11.49,3.97,-15.09
14.63608193397522,3,3,3,2,-9.51,0.57,-0.15,12.69,3.11,-15.06
14.64608192443848,3,3,3,2,-9.369999999999999,1.12,-0.34,10.15,2.33,-14.27
14.65608191490173,3,3,3,2,-9.43,1.7,-1.21,8.02,2.34,-13.97
14.66608190536499,3,3,3,2,-9.66,1.39,-1.19,6.39,2.48,-13.82
14.67608213424683,3,3,3,2,-9.66,1.39,-1.19,6.39,2.48,-13.82
14.68608212471008,3,3,3,2,-9.77,0.8,-1.15,4.55,2.64,-14.16
14.69608211517334,3,3,3,2,-9.52,-1.16,-0.88,4.78,3.05,-14.08
14.7060821056366,3,3,3,2,-9.56,-1.97,-0.8100000000000001,5.45,3.47,-13.36
14.71608209609985,3,3,3,2,-9.789999999999999,-2.59,-1,5.97,3.66,-12.33
14.72608208656311,3,3,3,2,-9.789999999999999,-2.59,-1,5.97,3.66,-12.33
14.73608207702637,3,3,3,2,-9.710000000000001,-2.88,-1.07,5.95,3.47,-11.26
14.74608206748962,3,3,3,2,-9.66,-2.89,-1.18,4.68,2.87,-10.25
14.75608205795288,3,3,3,2,-9.65,-2.73,-0.98,4.16,2.77,-10.37
14.76608204841614,3,3,3,2,-9.58,-2.02,-0.53,4.26,2.75,-10.48
14.77608203887939,3,3,3,2,-9.58,-2.02,-0.53,4.26,2.75,-10.48
14.78608202934265,3,3,3,2,-9.6,-1.63,-0.38,4.82,2.79,-10.46
14.79608201980591,3,3,3,2,-9.779999999999999,-0.97,-0.42,6.14,3.03,-10.02
14.80608201026917,3,3,3,2,-9.83,-1.15,-0.25,6.6,3.03,-9.68
14.81608200073242,3,3,3,2,-9.779999999999999,-1.34,-0.2,7.1,2.98,-9.279999999999999
14.82608199119568,3,3,3,2,-9.779999999999999,-1.34,-0.2,7.1,2.98,-9.279999999999999
14.83608198165894,3,3,3,2,-9.65,-1.56,-0.64,7.59,2.99,-8.66
14.84608197212219,3,3,3,2,-9.5,-2.21,-0.51,8.210000000000001,3.11,-8.529999999999999
14.85608196258545,3,3,3,2,-9.5,-2.53,-0.35,8.51,3.28,-8.51
14.86608195304871,3,3,3,2,-9.5,-2.73,-0.28,8.76,3.4,-8.52
14.87608194351196,3,3,3,2,-9.5,-2.73,-0.28,8.76,3.4,-8.52
14.88608193397522,3,3,3,2,-9.609999999999999,-2.93,-0.18,9.18,3.47,-8.609999999999999
14.89608192443848,3,3,3,2,-9.720000000000001,-2.57,-0.32,10.71,3.34,-8.94
14.90608191490173,3,3,3,2,-9.69,-2.25,-0.39,11,3.04,-9.07
14.91608190536499,3,3,3,2,-9.59,-1.66,-0.41,10.69,2.68,-9.140000000000001
14.92608213424683,3,3,3,2,-9.59,-1.66,-0.41,10.01,2.19,-9.17
14.93608212471008,3,3,3,2,-9.550000000000001,-1.3,-0.51,10.01,2.19,-9.17
14.94608211517334,3,3,3,2,-9.48,-0.9,-1,7.93,1.38,-8.85
14.9560821056366,3,3,3,2,-9.92,-1.19,-1.21,7.1,1.22,-8.550000000000001
14.96608209609985,3,3,3,2,-10.3,-1.61,-1.08,6.67,1.26,-8.32
14.97608208656311,3,3,3,2,-10.3,-1.61,-1.08,6.67,1.26,-8.32
14.98608207702637,3,3,3,2,-10.76,-2.09,-1.27,7.02,1.39,-8.17
14.99608206748962,3,3,3,2,-12.36,-1.32,-1.25,9.07,1.64,-8.17
15.00608205795288,3,3,3,2,-12.83,-0.5600000000000001,-0.59,10.98,1.77,-8.130000000000001
15.01608204841614,3,3,3,2,-12.98,0.49,-0.38,12.96,1.6,-7.71
15.02608203887939,3,3,3,2,-12.98,0.49,-0.38,12.96,1.6,-7.71
15.03608202934265,3,3,3,2,-13.06,1.72,-0.15,14.17,1.38,-6.86
15.04608201980591,3,3,3,2,-14.14,4.73,2.08,16.48,1.18,-4.29
15.05608201026917,3,3,3,2,-14.64,5.22,2.67,17.66,0.92,-1.9
15.06608200073242,3,3,3,2,-14.76,5.41,3.95,19,0.31,1.48
15.07608199119568,3,3,3,2,-13.5,4.12,4.41,18.68,-0.93,5.4
15.08608198165894,3,3,3,2,-13.5,4.12,4.41,16.67,-2.67,8.99
15.09608197212219,3,3,3,2,-11.89,4.21,2.66,14.17,-4.27,11.72
15.10608196258545,3,3,3,2,-11.15,4.75,0.48,13.23,-5.88,12.98
15.11608195304871,3,3,3,2,-10.95,2.73,-0.97,10.77,-6.81,14
15.12608194351196,3,3,3,2,-10.95,2.73,-0.97,6.41,-5.57,15.45
15.13608193397522,3,3,3,2,-13.22,-1.59,-1.69,3.93,-4.06,16.85
15.14608192443848,3,3,3,2,-13.7,-2.48,-1.91,4.36,-2.85,17.89
15.15608191490173,3,3,3,2,-14.22,-3.16,-1.15,5.36,-0.79,18.05
15.16608190536499,3,3,3,2,-13.99,-3.64,-0.18,4.57,1.4,18.3
15.17608213424683,3,3,3,1,-13.99,-3.64,-0.18,1.66,3.09,18.76
15.18608212471008,3,3,3,1,-12.19,-4.98,0.75,-0.89,4.18,19.3
15.19608211517334,3,3,3,1,-12.08,-6.27,1.47,-2.87,5.15,19.89
15.2060821056366,3,3,3,1,-11.78,-7.62,1.41,-5,5.17,20.26
15.21608209609985,3,3,3,1,-11.52,-8.31,0.6899999999999999,-4.8,4.91,20.29
15.22608208656311,3,3,3,1,-11.52,-8.31,0.6899999999999999,-1.6,5.06,20.49
15.23608207702637,3,3,3,1,-10.94,-7.46,0.45,1.5,5.1,21.02
15.24608206748962,3,3,3,1,-10.26,-6.3,0.13,3.11,4.73,21.28
15.25608205795288,3,3,3,1,-9.970000000000001,-5.39,-0.06,4.09,4.46,22.4
15.26608204841614,3,3,3,1,-10.11,-4.22,0.06,4.16,4.51,22.78
15.27608203887939,3,3,3,0,-10.11,-4.22,0.06,4.16,4.51,22.78
15.28608202934265,3,3,3,0,-9.93,-4.28,0.52,-0.55,4.02,23.61
15.29608201980591,3,3,3,0,-9.539999999999999,-4.58,0.32,-3.93,3.67,23.57
15.30608201026917,3,3,3,0,-8.869999999999999,-5.18,-0.25,-6.22,3.5,23.32
15.31608200073242,3,3,3,0,-8.81,-5.06,-0.45,-7.21,3.72,22.95
15.32608199119568,3,3,3,0,-8.81,-5.06,-0.45,-7.87,4.06,22.64
15.33608198165894,3,3,3,0,-8.68,-4.85,-0.57,-8.859999999999999,4.3,22.29
15.34608197212219,3,3,3,0,-8.42,-4.84,-1.05,-10.44,4.26,21.98
15.35608196258545,3,3,3,0,-8.34,-4.7,-1.16,-11.51,4.05,21.67
15.36608195304871,3,3,3,0,-8.34,-4.48,-1.08,-11.82,3.77,21.4
15.37608194351196,3,3,3,0,-8.289999999999999,-4.52,-0.83,-12.16,3.31,20.98
15.38608193397522,3,3,3,0,-8.01,-4.68,-0.63,-12.46,2.52,20.4
15.39608192443848,3,3,3,0,-8.01,-4.82,-0.6,-12.42,1.75,19.55
15.40708208084106,3,3,3,0,-7.87,-4.77,-0.61,-12.19,1.17,18.62
15.41608190536499,3,3,3,0,-7.48,-4.98,-0.54,-12.11,0.5,17.4
15.42608213424683,3,3,3,0,-7.48,-4.98,-0.54,-11.74,-0.03,16.16
15.43708205223083,3,3,3,0,-6.91,-4.9,-0.63,-11.58,-0.51,14.87
15.44708204269409,3,3,3,0,-6.87,-5.05,-0.65,-11.46,-0.64,13.59
15.45708203315735,3,3,3,0,-6.66,-5.12,-0.62,-11.53,-0.92,12.43
15.46708202362061,3,3,3,0,-6.49,-4.87,-0.42,-11.47,-1.01,11.22
15.47708201408386,3,3,3,0,-6.49,-4.87,-0.42,-11.69,-0.93,9.970000000000001
15.48708200454712,3,3,3,0,-6.41,-4.82,-0.07000000000000001,-12.02,-1.07,8.73
15.49708199501038,3,3,3,0,-5.89,-5.09,0.24,-12.42,-1.41,7.53
15.50708198547363,3,3,3,0,-5.59,-5.8,0.42,-13.41,-1.93,6.26
15.51708197593689,3,3,3,0,-5.42,-6.31,0.44,-13.08,-1.93,4.6
15.52708196640015,3,3,3,0,-5.42,-6.31,0.44,-10.29,-1.43,2.62
15.5370819568634,3,3,3,0,-5.35,-6.4,0.39,-6.3,-1.02,0.42
15.54708194732666,3,3,3,0,-5.95,-3.26,0.19,-3.71,-0.64,-2.18
15.55708193778992,3,3,3,0,-6.26,-2.16,0.29,-4.71,-0.82,-4.66
15.56708192825317,3,3,3,0,-6.88,-1.18,-0.08,-7.38,-1.03,-6.44
15.57708191871643,3,3,3,0,-6.88,-1.18,-0.08,-7.18,-0.35,-7.56
15.58708190917969,3,3,3,0,-12.72,5.88,1.97,-5.34,-0.26,-7.23
15.59708189964294,3,3,3,0,-13.81,9.529999999999999,4.2,-4.82,-2.26,-5.01
15.60708212852478,3,3,3,0,-13.36,14.32,7.5,-5.75,-5.34,-2.33
15.61708211898804,3,3,3,0,-12.46,24.66,8.06,-7.58,-5.38,0.49
15.62708210945129,3,3,3,0,-14.46,24.36,2.97,-12.99,1.84,4.42
15.63708209991455,3,3,3,0,-15.43,22.64,-2.44,-16.95,6.22,6.75
15.64708209037781,3,3,3,0,-12.72,17.08,-2.2,-15.99,0.1,7.31
15.65708208084106,3,3,3,0,-9.27,0.9,3.66,-10.13,-2.66,6.57
15.66708207130432,3,3,3,0,-10.5,-3.26,3.38,-6.5,1.69,7.03
15.67708206176758,3,3,3,0,-10.83,-4.75,2.51,-3.98,5,6.77
15.68708205223083,3,3,3,0,-10.3,-3.98,-0.6899999999999999,3.2,4.12,5.15
15.69708204269409,3,3,3,0,-14.45,7.58,1.42,9.529999999999999,4.65,3.37
15.70708203315735,3,3,3,0,-19.1,12.17,9.17,7.3,2.12,2.82
15.71708202362061,3,3,3,0,-16.12,8.26,15.22,-6.46,-9.710000000000001,1.67
15.72708201408386,3,3,3,0,-8.359999999999999,5.09,12.76,-8.81,-13.85,-2.75
15.73708200454712,3,3,3,0,-9.66,-2.83,-2.13,-5.14,0.4,-4.51
15.74708199501038,3,3,3,0,-10.2,-8.369999999999999,-1.97,-10.05,5.16,-2.92
15.75708198547363,3,3,3,0,-9.890000000000001,-10.41,-5.06,-5.95,5.45,-3
15.76708197593689,3,3,3,0,-9.85,-10.46,-7.35,-4.17,6.51,-5.03
15.77708196640015,3,3,3,0,-9.390000000000001,-5.91,-8.109999999999999,-4.39,5.98,-7.67
15.7870819568634,3,3,3,0,-10.65,-1.87,-4.89,-2.61,5.06,-10.91
15.79708194732666,3,3,3,0,-12.29,0.3,-0.23,-2.61,5.28,-14.18
15.80708193778992,3,3,3,0,-12.65,-1.9,1.23,-6.76,6.3,-16.16
15.81708192825317,3,3,3,0,-10.86,-8.57,-1.42,-12.96,6.8,-16.63
15.82708191871643,3,3,3,0,-9.76,-8.5,-0.41,-11.44,6.78,-17.13
15.83708190917969,3,3,3,0,-9.25,-8.210000000000001,0.06,-6.98,6.46,-17.15
15.84708189964294,3,3,3,0,-9.550000000000001,-6.93,-0.08,-3.03,5.83,-16.51
15.85708212852478,3,3,3,0,-9.470000000000001,-1.64,0.75,0.63,5.21,-15.66
15.86708211898804,3,3,3,0,-9.369999999999999,0.03,0.67,1.38,4.89,-14.68
15.87708210945129,3,3,3,0,-9.470000000000001,0.75,0.36,-0.5600000000000001,4.77,-13.99
15.88708209991455,3,3,3,0,-9.42,0.62,-0.54,-2.68,4.84,-14.04
15.89708209037781,3,3,3,0,-9.130000000000001,0.11,-1.1,-3.65,4.94,-14.31
15.90708208084106,3,3,3,0,-9.1,-0.63,-1.6,-3.78,4.98,-14.59
15.91708207130432,3,3,3,0,-9.220000000000001,-1.55,-1.87,-3.16,5.11,-14.78
15.92708206176758,3,3,3,0,-9.869999999999999,-1.87,-1.68,-1.21,5.06,-14.81
15.93708205223083,3,3,3,0,-9.91,-2.19,-1.51,1.31,5.01,-14.84
15.94708204269409,3,3,3,0,-9.859999999999999,-2.76,-1.33,3.59,5.01,-14.94
15.95708203315735,3,3,3,0,-9.859999999999999,-2.78,-1,6.54,4.79,-15.27
15.96708202362061,3,3,3,0,-10.08,-1.98,-0.27,9.68,4.17,-15.55
15.97708201408386,3,3,3,0,-10.16,-1.11,-0.05,12.06,3.31,-15.84
15.98708200454712,3,3,3,0,-9.77,-0.13,-0.1,12.76,2.35,-15.99
15.99708199501038,3,3,3,0,-9.470000000000001,0.54,-0.48,11.73,1.86,-15.86
16.00708198547363,3,3,3,0,-9.210000000000001,2.38,-1.2,9.779999999999999,1.66,-15.63
16.01708197593689,3,3,3,0,-9.23,3.02,-1.41,7.32,1.6,-15.43
16.02708196640015,3,3,3,1,-9.32,3.29,-1.3,5.01,1.68,-15.18
16.0370819568634,3,3,3,1,-9.42,3.05,-0.6899999999999999,4.27,2.37,-14.82
16.04708194732666,3,3,3,1,-9.970000000000001,1.75,-0.4,5.52,3.17,-13.94
16.05708193778992,3,3,3,1,-10.26,1.02,-0.29,7.02,3.77,-12.44
16.0680820941925,3,3,3,1,-10.55,0.23,-0.51,8.1,4,-10.58
16.07708191871643,3,3,3,1,-10.64,-0.55,-0.75,7.64,3.79,-8.91
16.08708190917969,3,3,3,1,-9.92,-2.06,-0.8,6.12,3.36,-8.02
16.09708189964294,3,3,3,1,-9.65,-2.84,-0.97,4.25,2.97,-7.77
16.10708212852478,3,3,3,1,-9.359999999999999,-2.74,-0.9,2.77,2.83,-7.99
16.11708211898804,3,3,3,1,-9.09,-2.56,-0.78,1.96,2.7,-8.390000000000001
16.12708210945129,3,3,3,1,-9.08,-2.35,-0.53,1.66,2.7,-8.82
16.13708209991455,3,3,3,1,-9.109999999999999,-2.29,-0.45,2.08,2.72,-9.17
16.14708209037781,3,3,3,1,-9.27,-2.43,-0.51,2.73,2.85,-9.32
16.15708208084106,3,3,3,1,-9.4,-2.47,-0.49,3.57,2.94,-9.33
16.16708207130432,3,3,3,1,-9.48,-2.46,-0.5,4.5,2.86,-9.130000000000001
16.17708206176758,3,3,3,1,-9.51,-2.25,-0.52,5.18,2.62,-8.99
16.18708205223083,3,3,3,1,-9.550000000000001,-2.2,-0.43,5.39,2.47,-8.779999999999999
16.19708204269409,3,3,3,1,-9.5,-2.29,-1.15,5.27,2.53,-8.65
16.20708203315735,3,3,3,1,-9.5,-2.37,-0.79,5.47,2.77,-8.57
16.21708202362061,3,3,3,1,-9.51,-2.51,-0.52,6.08,2.85,-8.65
16.22708201408386,3,3,3,2,-9.42,-2.66,-0.39,6.2,2.89,-8.85
16.23708200454712,3,3,3,2,-9.390000000000001,-2.73,-0.33,6.26,2.86,-8.98
16.24808192253113,3,3,3,2,-9.369999999999999,-2.83,-0.42,6.48,2.87,-9.029999999999999
16.25708198547363,3,3,3,2,-9.44,-2.81,-0.39,6.9,2.81,-9.19
16.26708197593689,3,3,3,2,-9.539999999999999,-2.62,-0.23,7.69,2.74,-9.41
16.27808213233948,3,3,3,2,-9.77,-1.88,-0.41,8.34,2.6,-9.529999999999999
16.2870819568634,3,3,3,2,-9.949999999999999,-1.42,-0.42,8.9,2.48,-9.550000000000001
16.29708194732666,3,3,3,2,-10,-1.12,-0.55,9.06,2.3,-9.49
16.30808210372925,3,3,3,2,-9.99,-0.79,-0.4,8.84,2.04,-9.300000000000001
16.31708192825317,3,3,3,2,-9.6,-0.38,-0.59,8.23,1.72,-9.1
16.32708191871643,3,3,3,2,-9.44,-0.46,-0.88,7.16,1.47,-8.800000000000001
16.33708190917969,3,3,3,2,-9.56,-0.89,-0.97,6.19,1.43,-8.35
16.34708189964294,3,3,3,2,-9.92,-1.46,-0.98,5.8,1.52,-8.029999999999999
16.35708212852478,3,3,3,2,-11.12,-2.23,-0.89,6.46,1.68,-7.77
16.36708211898804,3,3,3,2,-11.56,-2.22,-1.36,7.74,1.75,-7.57
16.37708210945129,3,3,3,2,-11.97,-1.77,-1.53,9.32,1.83,-7.4
16.38708209991455,3,3,3,2,-12.48,-1.01,-1,11.16,1.86,-7.39
16.39708209037781,3,3,3,2,-13.3,0.58,0.36,12.97,1.64,-7.3
16.40708208084106,3,3,3,2,-13.3,1.73,0.5600000000000001,14.24,1.22,-6.68
16.41708207130432,3,3,3,2,-13.17,2.96,0.9,14.66,0.74,-5.69
16.42708206176758,3,3,3,3,-13.19,3.84,1.51,14.95,0.34,-4.39
16.43708205223083,3,3,3,3,-13.83,5.8,1.79,15.55,-0.05,-2.66
16.44708204269409,3,3,3,3,-14.26,6.49,2.29,16.33,-0.28,-0.01
16.45708203315735,3,3,3,3,-14.29,5.35,3.01,14.85,-0.87,3.24
16.46808195114136,3,3,3,3,-13.68,4.3,2.59,11.66,-1.95,6.34
16.47808194160461,3,3,3,3,-12,5.23,2.62,10.1,-3.01,9.69
16.48808193206787,3,3,3,3,-11.28,6.12,1.78,9.779999999999999,-4.96,12.34
16.49808192253113,3,3,3,3,-11.38,5.93,1.33,8.43,-6.72,13.93
16.50808191299438,3,3,3,3,-11.35,5.15,0.31,6.96,-8.1,15.38
16.51808190345764,3,3,3,3,-12.83,-0.64,-0.78,3.83,-7.46,16.58
16.52808213233948,3,3,3,3,-13.48,-3.17,-2.23,2.49,-5.79,17.19
16.53808212280273,3,3,3,3,-14.37,-4.18,-2.4,4.64,-3.47,17.67
16.54808211326599,3,3,3,3,-15.2,-5.1,-2.04,7.48,-1.81,17.98
16.55808210372925,3,3,3,3,-14.88,-5.09,-0.7,9.16,-0.22,18.44
16.5680820941925,3,3,3,3,-14.01,-4.66,0.13,8.720000000000001,1.94,19.41
16.57808208465576,3,3,3,3,-13.31,-4.37,0.77,6.39,4.11,20.35
16.58808207511902,3,3,3,3,-12.7,-4.73,1.06,2.86,5.73,21.27
16.59808206558228,3,3,3,3,-11.81,-6.78,0.74,-0.1,6.49,21.79
16.60808205604553,3,3,3,3,-11.9,-6.75,0.26,-0.23,6.97,21.82
16.61808204650879,3,3,3,3,-12.09,-6.65,0.18,1.37,7.32,21.9
16.62808203697205,3,3,3,3,-12.01,-5.93,-0.27,2.4,7.11,22.29
16.6380820274353,3,3,3,3,-11.92,-5.65,-0.54,2.3,6.59,22.71
16.64808201789856,3,3,3,3,-11.58,-5.44,-0.76,1.49,5.95,23.43
16.65808200836182,3,3,3,3,-11.14,-4.87,-0.58,0.67,5.47,24.54
16.66808199882507,3,3,3,3,-10.91,-4.36,-0.38,-1.28,5.14,25.29
16.67808198928833,3,3,3,3,-10.52,-4.69,-0.21,-3.91,4.76,25.97
16.68808197975159,3,3,3,3,-9.82,-4.88,-0.1,-7.01,4.22,26.03
16.69808197021484,3,3,3,3,-9.1,-5.35,-0.45,-9.44,3.92,25.61
16.7080819606781,3,3,3,3,-8.550000000000001,-5.28,-1.2,-10.65,4.16,24.98
16.71808195114136,3,3,3,3,-8.52,-4.97,-1.35,-11.27,4.6,24.24
16.72808194160461,3,3,3,3,-8.27,-4.74,-1.4,-12.1,4.82,23.49
16.73808193206787,3,3,3,3,-8.15,-4.54,-1.45,-13.22,4.78,22.86
16.74808192253113,3,3,3,3,-8.17,-4.42,-1.53,-14.36,4.68,22.37
16.75808191299438,3,3,3,3,-8.07,-4.53,-1.33,-15.18,4.26,22.09
16.76808190345764,3,3,3,3,-7.86,-4.59,-1.08,-15.78,3.55,21.76
16.77808213233948,3,3,3,3,-7.78,-4.51,-0.63,-16.55,2.79,21.04
16.78808212280273,3,3,3,3,-7.2,-4.6,-0.28,-17.41,2.09,20.12
16.79808211326599,3,3,3,3,-7.02,-5.05,-0.26,-18.05,1.48,19.23
16.80808210372925,3,3,3,3,-6.87,-5.41,-0.16,-18.2,0.76,17.96
16.8180820941925,3,3,3,3,-6.63,-5.45,-0.12,-17.72,0.09,16.42
16.82808208465576,3,3,3,3,-6.04,-6.12,-0.16,-17.29,-0.64,14.81
16.83808207511902,3,3,3,3,-5.68,-6.59,-0.63,-16.47,-1.22,13.22
16.84808206558228,3,3,3,3,-5.52,-6.67,-1.01,-14.73,-1.41,11.76
16.85808205604553,3,3,3,3,-5.45,-6.63,-1.18,-12.89,-1.71,10.34
16.86808204650879,3,3,3,3,-5.59,-6.46,-1.01,-11.8,-2.01,8.69
16.87808203697205,3,3,3,2,-5.35,-6.06,-0.6899999999999999,-11.5,-2.04,6.47
16.8880820274353,3,3,3,2,-5.12,-5.65,-0.43,-12.02,-2.19,4.55
16.89808201789856,3,3,3,2,-4.9,-5.96,-0.27,-13.46,-2.57,2.94
16.90808200836182,3,3,3,2,-4.91,-7.3,0.38,-14.57,-3.17,1.06
16.91808199882507,3,3,3,2,-5.12,-7.73,0.51,-13.85,-3.28,-1.37
16.92808198928833,3,3,3,2,-5.5,-7.29,0.66,-10.04,-2.89,-4.03
16.93808197975159,3,3,3,2,-6.03,-5.96,0.53,-4.02,-2.28,-6.32
16.94808197021484,3,3,3,2,-7.46,-1.35,-0.05,1.71,-1.32,-8.31
16.9580819606781,3,3,3,2,-8.449999999999999,1.24,0.54,2.38,-0.36,-9.49
16.96808195114136,3,3,3,2,-10.07,2.84,1.22,-1.93,0.44,-9.470000000000001
16.97808194160461,3,3,3,2,-14.36,6.92,2.69,-4.49,1.2,-7.5
16.98808193206787,3,3,3,2,-14.78,9.640000000000001,3.86,-5,0.6,-4.28
16.99808192253113,3,3,3,2,-14.3,13.58,5.75,-4.82,-0.26,-2.61
17.00808191299438,3,3,3,2,-13.51,19.14,7.77,-5.23,0.18,-1.92
17.01808190345764,3,3,3,2,-13.89,28.57,2.36,-7.14,3.92,0.33
17.02808213233948,3,3,3,2,-14.35,28.4,-0.85,-9.140000000000001,7.24,3.02
17.03808212280273,3,3,3,2,-13.22,19.77,0.37,-8.039999999999999,4.92,4.15
17.04808211326599,3,3,3,2,-11.51,8.93,2.59,-4.38,3.95,5.05
17.05808210372925,3,3,3,2,-10.38,-2.49,1.73,-0.83,4.9,5.3
17.0680820941925,3,3,3,2,-10.79,-4.7,1.12,3.56,3.64,4.44
17.07808208465576,3,3,3,2,-11.23,-3.61,-1.46,8.77,0.9399999999999999,2.14
17.08808207511902,3,3,3,2,-12.81,4.14,0.15,11.74,1.53,0.9
17.09808206558228,3,3,3,2,-16.41,19.51,12.84,5.24,-1.44,2.66
17.10808205604553,3,3,3,2,-12.22,13.69,15.79,-14.09,-11.24,3.7
17.11808204650879,3,3,3,2,-6.58,5.86,9.15,-24.95,-11.38,-0.32
17.12808203697205,3,3,3,2,-8.69,1.28,-0.88,-26,1.34,-3.18
17.1380820274353,3,3,3,2,-10.59,-11.57,-2.41,-24.92,3.9,-2.08
17.14808201789856,3,3,3,2,-10.45,-13.21,-6.44,-17.1,4.75,-3.47
17.15808200836182,3,3,3,2,-10.84,-11.84,-8.609999999999999,-11.98,6.09,-5.55
17.16808199882507,3,3,3,2,-10.28,-10.02,-8.67,-8.1,6.3,-7.71
17.17808198928833,3,3,3,2,-11.01,-3.14,-4.11,-5.21,6.55,-10.82
17.18808197975159,3,3,3,2,-12.21,-3.08,0.95,-1.4,6.86,-14.19
17.19808197021484,3,3,3,2,-11.92,-6.82,0.16,-2.61,7.55,-15.8
17.2080819606781,3,3,3,2,-10.71,-9.550000000000001,-2.93,-4.75,7.13,-15.85
17.21808195114136,3,3,3,2,-9.83,-6.91,-0.34,0.36,6.63,-16.08
17.22808194160461,3,3,3,2,-9.94,-5.46,0.25,4.41,6.25,-15.69
17.23808193206787,3,3,3,2,-9.91,-3.62,0.61,6.11,5.71,-15.1
17.24808192253113,3,3,3,2,-9.619999999999999,-1.53,1.15,5.55,5.32,-14.47
17.25808191299438,3,3,3,2,-9.75,-0.01,0.49,1.97,5.1,-13.87
17.26808190345764,3,3,3,2,-9.960000000000001,0.32,0.27,-1.78,4.83,-13.63
17.27808213233948,3,3,3,2,-9.76,0.63,-0.07000000000000001,-3.93,4.72,-13.9
17.28808212280273,3,3,3,2,-9.359999999999999,0.57,-0.8100000000000001,-5.93,4.77,-14.18
17.29808211326599,3,3,3,2,-9.140000000000001,-1.55,-1.95,-7.11,5.05,-14.36
17.30808210372925,3,3,3,2,-9.35,-2.08,-1.93,-5.68,5.41,-14.65
17.3180820941925,3,3,3,2,-9.6,-2.39,-1.87,-3.03,5.64,-14.81
17.32808208465576,3,3,3,2,-10.08,-2.39,-1.4,0.21,5.9,-14.63
17.33808207511902,3,3,3,2,-9.869999999999999,-3.09,-1.08,4.1,5.86,-14.49
17.34808206558228,3,3,3,2,-9.779999999999999,-2.63,-0.62,8.34,5.5,-14.8
17.35808205604553,3,3,3,2,-9.880000000000001,-2.41,-0.17,11.62,4.79,-15.11
17.36808204650879,3,3,3,2,-9.960000000000001,-0.92,0.25,13.95,3.82,-15.15
17.37808203697205,3,3,3,3,-9.710000000000001,0.07000000000000001,0.1,15.32,2.89,-14.93
17.3880820274353,3,3,3,3,-9.26,1.13,-0.29,15.01,2.41,-14.4
17.39808201789856,3,3,3,3,-8.99,1.71,-0.79,12.7,2.27,-13.88
17.40808200836182,3,3,3,3,-9.32,1.63,-1.22,9.380000000000001,2.16,-13.56
17.41808199882507,3,3,3,3,-9.630000000000001,1.48,-1.08,6.6,2.16,-13.52
17.42808198928833,3,3,3,3,-9.630000000000001,0.98,-0.88,4.68,2.01,-13.92
17.43808197975159,3,3,3,3,-9.539999999999999,0.73,-0.92,3.68,1.99,-14.54
17.44808197021484,3,3,3,3,-9.49,-0.06,-0.8,3.48,2.17,-14.63
17.4580819606781,3,3,3,3,-9.449999999999999,-0.65,-0.68,3.89,2.46,-13.99
17.46808195114136,3,3,3,3,-9.44,-1.38,-0.84,4.04,2.72,-12.79
17.47808194160461,3,3,3,3,-9.52,-1.95,-1.14,3.81,2.74,-11.66
17.4890820980072,3,3,3,3,-9.44,-2.73,-1.1,3.04,2.49,-10.94
17.49908208847046,3,3,3,3,-9.49,-3.02,-1.26,1.97,2.17,-10.77
17.50908207893372,3,3,3,3,-9.5,-3.16,-1.04,1.16,2.09,-11.03
17.51908206939697,3,3,3,3,-9.529999999999999,-3.07,-0.85,0.82,2.02,-11.38
17.52908205986023,3,3,3,3,-9.42,-2.4,-0.52,1.28,2.1,-11.62
17.53908205032349,3,3,3,3,-9.380000000000001,-1.98,-0.42,2.19,2.26,-11.6
17.54908204078674,3,3,3,3,-9.539999999999999,-1.62,-0.37,3.34,2.44,-11.41
17.55908203125,3,3,3,3,-9.550000000000001,-1.41,-0.28,4.39,2.51,-11.09
17.56908202171326,3,3,3,3,-9.49,-1.56,-0.6,5.13,2.65,-10.66
17.57908201217651,3,3,3,3,-9.470000000000001,-1.61,-0.68,5.71,2.74,-10.2
17.58908200263977,3,3,3,3,-9.4,-1.82,-0.58,6.14,2.82,-9.869999999999999
17.59908199310303,3,3,3,3,-9.41,-2.11,-0.7,6.6,2.89,-9.75
17.60908198356628,3,3,3,3,-9.710000000000001,-2.32,-0.7,7.3,2.99,-9.77
17.61908197402954,3,3,3,3,-9.94,-2.4,-0.66,7.77,3.17,-9.83
17.6290819644928,3,3,3,3,-10.07,-2.41,-0.59,8.43,3.19,-10.01
17.63908195495605,3,3,3,3,-10.13,-2.37,-0.62,9.029999999999999,3.09,-10.19
17.64908194541931,3,3,3,3,-10.11,-1.64,-0.58,9.49,2.88,-10.36
17.65908193588257,3,3,3,3,-10.11,-1.22,-0.41,9.5,2.61,-10.42
17.66908192634583,3,3,3,3,-10.2,-0.92,-0.29,8.83,2.17,-10.34
17.67908191680908,3,3,3,3,-10.23,-0.57,-0.49,7.92,1.66,-10.16
17.68908190727234,3,3,3,3,-10.14,-0.37,-1.15,6.78,1.24,-9.82
17.69908213615417,3,3,3,3,-10.33,-0.55,-1.22,6.14,1.05,-9.5
17.70908212661743,3,3,3,3,-10.57,-0.96,-1.17,6.18,1.06,-9.19
17.71908211708069,3,3,3,3,-11.41,-1.56,-1.1,7.04,1.32,-8.970000000000001
17.72908210754395,3,3,3,3,-11.8,-1.58,-1.17,8.59,1.7,-8.720000000000001
17.7390820980072,3,3,3,3,-12.12,-1.29,-1.38,10.32,1.94,-8.5
17.74908208847046,3,3,3,3,-12.54,-0.5600000000000001,-1.19,12.18,1.97,-8.300000000000001
17.75908207893372,3,3,3,3,-13.48,1.4,0.74,14.29,1.81,-7.96
17.76908206939697,3,3,3,3,-13.63,2.38,1.21,15.99,1.37,-6.93
17.77908205986023,3,3,3,3,-13.62,3.57,1.5,17.16,0.92,-5.41
17.78908205032349,3,3,3,3,-13.52,4.61,1.85,18.23,0.55,-3.57
17.79908204078674,3,3,3,3,-14.1,6.45,2.86,19.82,0.44,-1.17
17.80908203125,3,3,3,3,-14.46,6.2,3.78,20.31,0.14,2.3
17.81908202171326,3,3,3,3,-13.96,5.66,3.65,18.07,-1.08,6.37
17.82908201217651,3,3,3,3,-13.29,5.77,3.03,14.81,-2.73,10.4
17.83908200263977,3,3,3,3,-11.77,5.95,1.24,12.06,-4.85,13.13
17.84908199310303,3,3,3,3,-11.43,5.62,-0.51,9.869999999999999,-6.6,14.33
17.85908198356628,3,3,3,3,-11.26,4.6,-1.52,6.64,-7.14,15.43
17.86908197402954,3,3,3,3,-11.92,1.93,-1.83,1.84,-5.39,17
17.8790819644928,3,3,3,3,-14.26,-3.21,-3.14,-0.62,-3.61,18.22
17.88908195495605,3,3,3,3,-14.84,-3.84,-2.77,0.22,-2.09,18.71
17.89908194541931,3,3,3,3,-15.2,-4.53,-2.22,0.52,-0.59,19.14
17.90908193588257,3,3,3,3,-15.13,-4.81,-1.36,-0.75,1.59,19.73
17.91908192634583,3,3,3,3,-13.49,-5.25,0.39,-3.4,3.46,20.41
17.92908191680908,3,3,3,3,-12.73,-5.67,0.6899999999999999,-5.71,4.85,21.13
17.93908190727234,3,3,3,3,-12.19,-6.78,1.35,-8.130000000000001,5.33,21.61
17.94908213615417,3,3,3,3,-11.7,-8.359999999999999,1.48,-9.18,4.76,21.5
17.95908212661743,3,3,3,3,-10.48,-8.85,0,-6.47,4.71,21.23
17.96908211708069,3,3,3,3,-10.34,-8.44,0.09,-2.29,4.89,21.33
17.97908210754395,3,3,3,3,-10.48,-7.36,0,0.79,4.62,21.7
17.9890820980072,3,3,3,3,-10.47,-6.67,-0.11,1.89,4.15,22.04
17.99908208847046,3,3,3,3,-10.24,-5.12,-0.26,2.52,3.95,22.91
18.00908207893372,3,3,3,3,-10.42,-4.28,-0.04,1.84,3.68,23.49
18.01908206939697,3,3,3,3,-10.39,-4.62,0.12,-0.38,3.31,23.89
18.02908205986023,3,3,3,3,-10.04,-4.69,0.04,-2.21,2.89,24.01
18.03908205032349,3,3,3,3,-9.390000000000001,-5.13,-0.15,-3.51,2.78,24.04
18.04908204078674,3,3,3,3,-8.98,-4.75,-0.38,-4.62,2.97,23.9
18.05908203125,3,3,3,3,-8.85,-4.47,-0.22,-6.34,3.19,23.87
18.06908202171326,3,3,3,3,-8.6,-4.61,-0.75,-8.52,3.37,23.82
18.07908201217651,3,3,3,2,-8.74,-4.41,-1.02,-9.970000000000001,3.51,23.53
18.08908200263977,3,3,3,2,-8.800000000000001,-4.27,-1.06,-10.9,3.39,23.35
18.09908199310303,3,3,3,2,-8.81,-4.19,-1.18,-11.77,2.78,23.07
18.10908198356628,3,3,3,2,-8.85,-4.52,-0.65,-12.58,2.03,22.52
18.11908197402954,3,3,3,2,-8.48,-4.87,-0.57,-13.06,1.27,21.82
18.1290819644928,3,3,3,2,-8.35,-5.2,-0.42,-12.86,0.5600000000000001,21.21
18.13908195495605,3,3,3,2,-8.09,-5.42,-0.28,-12.17,-0.27,20.59
18.14908194541931,3,3,3,2,-7.22,-4.97,-0.24,-11.49,-1.19,19.5
18.15908193588257,3,3,3,2,-7.14,-5.25,-0.05,-11.44,-1.15,18.54
18.16908192634583,3,3,3,2,-6.97,-5.4,-0.01,-11.45,-1.18,17.27
18.17908191680908,3,3,3,1,-6.76,-5.42,-0.03,-11.38,-1.28,15.86
18.18908190727234,3,3,3,1,-6.39,-5.53,-0.2,-11.35,-1.29,14.35
18.19908213615417,3,3,3,1,-6.11,-5.65,-0.41,-11.49,-1.48,12.93
18.20908212661743,3,3,3,1,-5.94,-5.85,-0.53,-11.4,-1.59,11.45
18.21908211708069,3,3,3,1,-5.82,-6.03,-0.45,-11.17,-1.79,9.82
18.22908210754395,3,3,3,1,-5.32,-6.24,-0.32,-10.88,-2.02,8.119999999999999
18.2390820980072,3,3,3,1,-5.14,-7.03,-0.47,-10.31,-1.92,5.91
18.24908208847046,3,3,3,1,-4.89,-7,-0.58,-8.09,-1.37,3.31
18.25908207893372,3,3,3,1,-4.61,-7.41,-0.95,-4.7,-0.8100000000000001,0.6899999999999999
18.26908206939697,3,3,3,1,-4.78,-5.61,-1.4,-0.85,-0.27,-2.21
18.27908205986023,3,3,3,1,-5.22,-3.81,-1.57,1.31,-0.08,-4.61
18.28908205032349,3,3,3,1,-5.66,-1.7,-1.41,1.2,0.14,-6.21
18.29908204078674,3,3,3,1,-6.39,0.44,-1.19,0.52,1.25,-6.62
18.30908203125,3,3,3,1,-10.13,4.56,0.02,-0.01,2.64,-5.98
18.31908202171326,3,3,3,1,-11.88,6.55,0.76,-0.02,2.1,-4.73
18.32908201217651,3,3,3,0,-13.41,9.220000000000001,1.98,0.44,-0.13,-3.16
18.33908200263977,3,3,3,0,-14.45,13.06,5,-0.82,-2.99,-1.29
18.34908199310303,3,3,3,0,-14.28,22.44,7.83,-3.53,-2.18,1.09
18.35908198356628,3,3,3,0,-14.31,23.86,3.61,-6.95,3.21,4.78
18.36908197402954,3,3,3,0,-14.07,24.49,-0.5,-8.130000000000001,4.1,7.09
18.3790819644928,3,3,3,0,-13.05,20.47,-0.89,-6.92,0.97,6.88
18.38908195495605,3,3,3,0,-9.1,4.9,2.36,-3.43,2.24,6.13
18.39908194541931,3,3,3,0,-8.68,0.05,2.43,-2.17,5.94,5.19
18.40908193588257,3,3,3,0,-8.99,-2.66,1.38,0.26,7.39,3.36
18.41908192634583,3,3,3,0,-10.03,-3.19,-0.39,3.94,5.66,0.48
18.42908191680908,3,3,3,0,-12.93,-0.54,-0.88,4.23,3.08,-2.58
