timestamp,magCalib,accCalib,gyrCalib,sysCalib,accX,accY,accZ,gyrX,gyrY,gyrZ
0.02408194541931152,2,3,3,3,-9.59,1.45,-1.39,0.02,0.12,0.16
0.02408194541931152,2,3,3,3,-9.59,1.45,-1.39,0.02,0.12,0.16
0.0440819263458252,2,3,3,3,-9.58,1.49,-1.28,-0.19,0.17,0.19
0.0440819263458252,2,3,3,3,-9.58,1.49,-1.28,-0.19,0.17,0.19
0.06408190727233887,2,3,3,3,-9.6,1.47,-1.47,0.15,0.24,0.28
0.06408190727233887,2,3,3,3,-9.6,1.47,-1.47,0.15,0.24,0.28
0.08408212661743164,2,3,3,3,-9.630000000000001,1.51,-1.3,0.05,0.15,0.3
0.08408212661743164,2,3,3,3,-9.630000000000001,1.51,-1.3,0.05,0.15,0.3
0.1040821075439453,2,3,3,3,-9.57,1.49,-1.37,0.22,0.14,0.34
0.1040821075439453,2,3,3,3,-9.57,1.49,-1.37,0.22,0.14,0.34
0.124082088470459,2,3,3,3,-9.539999999999999,1.41,-1.48,0.12,-0.07000000000000001,0.39
0.124082088470459,2,3,3,3,-9.539999999999999,1.41,-1.48,0.12,-0.07000000000000001,0.39
0.1440820693969727,2,3,3,3,-9.59,1.41,-1.37,0.28,-0.05,0.44
0.1440820693969727,2,3,3,3,-9.59,1.41,-1.37,0.28,-0.05,0.44
0.1640820503234863,2,3,3,3,-9.529999999999999,1.42,-1.37,0.4,-0.04,0.46
0.1640820503234863,2,3,3,3,-9.529999999999999,1.42,-1.37,0.4,-0.04,0.46
0.18408203125,2,3,3,3,-9.66,1.46,-1.29,0.38,-0.04,0.51
0.18408203125,2,3,3,3,-9.66,1.46,-1.29,0.38,-0.04,0.51
0.2040820121765137,2,3,3,3,-9.609999999999999,1.47,-1.28,0.1,-0.08,0.41
0.2040820121765137,2,3,3,3,-9.609999999999999,1.47,-1.28,0.1,-0.08,0.41
0.2240819931030273,2,3,3,3,-9.609999999999999,1.47,-1.44,0.17,-0.04,0.32
0.2240819931030273,2,3,3,3,-9.609999999999999,1.47,-1.44,0.17,-0.04,0.32
0.244081974029541,2,3,3,3,-9.58,1.46,-1.3,-0.08,0.01,0.27
0.244081974029541,2,3,3,3,-9.58,1.46,-1.3,-0.08,0.01,0.27
0.2640819549560547,2,3,3,3,-9.56,1.42,-1.35,0.01,0.08,0.33
0.2640819549560547,2,3,3,3,-9.56,1.42,-1.35,0.01,0.08,0.33
0.2840819358825684,2,3,3,3,-9.550000000000001,1.32,-1.43,0.11,-0.12,0.47
0.2840819358825684,2,3,3,3,-9.550000000000001,1.32,-1.43,0.11,-0.12,0.47
0.304081916809082,2,3,3,3,-9.58,1.47,-1.32,0.07000000000000001,0.05,0.28
0.304081916809082,2,3,3,3,-9.58,1.47,-1.32,0.07000000000000001,0.05,0.28
0.3240821361541748,2,3,3,3,-9.57,1.48,-1.44,0.19,0.09,0.28
0.3240821361541748,2,3,3,3,-9.57,1.48,-1.44,0.19,0.09,0.28
0.3440821170806885,2,3,3,3,-9.529999999999999,1.46,-1.22,0.15,0,0.31
0.3440821170806885,2,3,3,3,-9.529999999999999,1.46,-1.22,0.15,0,0.31
0.3640820980072021,2,3,3,3,-9.58,1.45,-1.33,0.2,0,0.35
0.3640820980072021,2,3,3,3,-9.58,1.45,-1.33,0.2,0,0.35
0.3840820789337158,2,3,3,3,-9.67,1.41,-1.32,0.14,-0.01,0.28
0.3840820789337158,2,3,3,3,-9.67,1.41,-1.32,0.14,-0.01,0.28
0.4040820598602295,2,3,3,3,-9.699999999999999,1.51,-1.33,0,0.04,0.11
0.4040820598602295,2,3,3,3,-9.699999999999999,1.51,-1.33,0,0.04,0.11
0.4240820407867432,2,3,3,3,-9.550000000000001,1.54,-1.31,-0.06,0.22,0.1
0.4240820407867432,2,3,3,3,-9.550000000000001,1.54,-1.31,-0.06,0.22,0.1
0.4450819492340088,2,3,3,3,-9.57,1.46,-1.28,-0.15,0.18,0.13
0.4450819492340088,2,3,3,3,-9.57,1.46,-1.28,-0.15,0.18,0.13
0.4650819301605225,2,3,3,3,-9.58,1.51,-1.39,-0.31,0.32,0.03
0.4650819301605225,2,3,3,3,-9.58,1.51,-1.39,-0.31,0.32,0.03
0.4850819110870361,2,3,3,3,-9.51,1.54,-1.26,-0.43,0.35,-0.09
0.4850819110870361,2,3,3,3,-9.51,1.54,-1.26,-0.43,0.35,-0.09
0.5050821304321289,2,3,3,3,-9.539999999999999,1.52,-1.45,-0.4,0.27,-0.05
0.5050821304321289,2,3,3,3,-9.539999999999999,1.52,-1.45,-0.4,0.27,-0.05
0.5250821113586426,2,3,3,3,-9.59,1.62,-1.4,-0.34,0.48,0.05
0.5250821113586426,2,3,3,3,-9.59,1.62,-1.4,-0.34,0.48,0.05
0.5450820922851562,2,3,3,3,-9.56,1.68,-1.33,-0.34,0.39,0.03
0.5450820922851562,2,3,3,3,-9.56,1.68,-1.33,-0.34,0.39,0.03
0.5650820732116699,2,3,3,3,-9.57,1.57,-1.5,-0.2,0.17,0.04
0.5650820732116699,2,3,3,3,-9.57,1.57,-1.5,-0.2,0.17,0.04
0.5850820541381836,2,3,3,3,-9.529999999999999,1.49,-1.4,-0.16,0.06,0.08
0.5850820541381836,2,3,3,3,-9.529999999999999,1.49,-1.4,-0.16,0.06,0.08
0.6050820350646973,2,3,3,3,-9.58,1.48,-1.49,-0.04,0.22,0.05
0.6050820350646973,2,3,3,3,-9.58,1.48,-1.49,-0.04,0.22,0.05
0.6250820159912109,2,3,3,3,-9.59,1.51,-1.34,0.01,0.23,0.09
0.6250820159912109,2,3,3,3,-9.59,1.51,-1.34,0.01,0.23,0.09
0.6450819969177246,2,3,3,3,-9.550000000000001,1.52,-1.28,0.11,0.11,0.19
0.6450819969177246,2,3,3,3,-9.550000000000001,1.52,-1.28,0.11,0.11,0.19
0.6650819778442383,2,3,3,3,-9.59,1.48,-1.42,-0.02,-0.08,0.2
0.6650819778442383,2,3,3,3,-9.59,1.48,-1.42,-0.02,-0.08,0.2
0.685081958770752,2,3,3,3,-9.609999999999999,1.43,-1.43,0.02,-0.14,0.23
0.685081958770752,2,3,3,3,-9.609999999999999,1.43,-1.43,0.02,-0.14,0.23
0.7050819396972656,2,3,3,3,-9.56,1.43,-1.28,0.01,-0.05,0.08
0.7050819396972656,2,3,3,3,-9.56,1.43,-1.28,0.01,-0.05,0.08
0.7250819206237793,2,3,3,3,-9.619999999999999,1.54,-1.36,0,0.22,0.1
0.7250819206237793,2,3,3,3,-9.619999999999999,1.54,-1.36,0,0.22,0.1
0.745081901550293,2,3,3,3,-9.609999999999999,1.56,-1.42,-0.01,0.04,0.04
0.745081901550293,2,3,3,3,-9.609999999999999,1.56,-1.42,-0.01,0.04,0.04
0.7650821208953857,2,3,3,3,-9.52,1.54,-1.43,-0.05,-0.02,0.06
0.7650821208953857,2,3,3,3,-9.52,1.54,-1.43,-0.05,-0.02,0.06
0.7850821018218994,2,3,3,3,-9.529999999999999,1.63,-1.43,0,0.09,0.08
0.7850821018218994,2,3,3,3,-9.529999999999999,1.63,-1.43,0,0.09,0.08
0.8050820827484131,2,3,3,3,-9.6,1.55,-1.41,0,-0.22,0.16
0.8050820827484131,2,3,3,3,-9.6,1.55,-1.41,0,-0.22,0.16
0.8250820636749268,2,3,3,3,-9.57,1.63,-1.55,0.1,0.06,0.1
0.8250820636749268,2,3,3,3,-9.57,1.63,-1.55,0.1,0.06,0.1
0.8450820446014404,2,3,3,3,-9.470000000000001,1.56,-1.33,0.12,0.16,0.12
0.8450820446014404,2,3,3,3,-9.470000000000001,1.56,-1.33,0.12,0.16,0.12
0.8650820255279541,2,3,3,3,-9.550000000000001,1.54,-1.42,0.16,0,0.08
0.8650820255279541,2,3,3,3,-9.550000000000001,1.54,-1.42,0.16,0,0.08
0.8850820064544678,2,3,3,3,-9.59,1.58,-1.3,0.07000000000000001,0.02,0
0.8850820064544678,2,3,3,3,-9.59,1.58,-1.3,0.07000000000000001,0.02,0
0.9050819873809814,2,3,3,3,-9.6,1.57,-1.43,0.07000000000000001,0.05,-0.02
0.9050819873809814,2,3,3,3,-9.6,1.57,-1.43,0.07000000000000001,0.05,-0.02
0.9250819683074951,2,3,3,3,-9.529999999999999,1.53,-1.37,-0.11,-0.01,-0.01
0.9250819683074951,2,3,3,3,-9.529999999999999,1.53,-1.37,-0.11,-0.01,-0.01
0.9450819492340088,2,3,3,3,-9.6,1.5,-1.36,-0.2,0.07000000000000001,-0.1
0.9450819492340088,2,3,3,3,-9.6,1.5,-1.36,-0.2,0.07000000000000001,-0.1
0.9650819301605225,2,3,3,3,-9.59,1.52,-1.42,-0.29,-0.06,-0.16
0.9650819301605225,2,3,3,3,-9.59,1.52,-1.42,-0.29,-0.06,-0.16
0.9850819110870361,2,3,3,3,-9.57,1.5,-1.35,-0.19,-0.13,-0.14
0.9850819110870361,2,3,3,3,-9.57,1.5,-1.35,-0.19,-0.13,-0.14
1.005082130432129,2,3,3,3,-9.56,1.43,-1.39,-0.19,0.09,-0.16
1.005082130432129,2,3,3,3,-9.56,1.43,-1.39,-0.19,0.09,-0.16
1.025082111358643,2,3,3,3,-9.59,1.47,-1.43,-0.23,0.2,-0.21
1.025082111358643,2,3,3,3,-9.59,1.47,-1.43,-0.23,0.2,-0.21
1.045082092285156,2,3,3,3,-9.59,1.48,-1.39,-0.23,0.06,-0.16
1.045082092285156,2,3,3,3,-9.59,1.48,-1.39,-0.23,0.06,-0.16
1.06508207321167,2,3,3,3,-9.539999999999999,1.46,-1.42,-0.14,-0.02,-0.13
1.06508207321167,2,3,3,3,-9.539999999999999,1.46,-1.42,-0.14,-0.02,-0.13
1.085082054138184,2,3,3,3,-9.609999999999999,1.49,-1.32,-0.03,0.18,-0.13
1.085082054138184,2,3,3,3,-9.609999999999999,1.49,-1.32,-0.03,0.18,-0.13
1.105082035064697,2,3,3,3,-9.57,1.47,-1.39,-0.11,-0.16,-0.14
1.105082035064697,2,3,3,3,-9.57,1.47,-1.39,-0.11,-0.16,-0.14
1.125082015991211,2,3,3,3,-9.6,1.43,-1.43,-0.12,-0.03,-0.08
1.125082015991211,2,3,3,3,-9.6,1.43,-1.43,-0.12,-0.03,-0.08
1.145081996917725,2,3,3,3,-9.550000000000001,1.45,-1.31,0.04,0.25,-0.12
1.145081996917725,2,3,3,3,-9.550000000000001,1.45,-1.31,0.04,0.25,-0.12
1.165081977844238,2,3,3,3,-9.58,1.49,-1.46,-0.07000000000000001,0.13,-0.12
1.165081977844238,2,3,3,3,-9.58,1.49,-1.46,-0.07000000000000001,0.13,-0.12
1.185081958770752,2,3,3,3,-9.58,1.46,-1.34,-0.2,0.09,-0.13
1.185081958770752,2,3,3,3,-9.58,1.46,-1.34,-0.2,0.09,-0.13
1.205081939697266,2,3,3,3,-9.529999999999999,1.42,-1.32,0.05,0.01,-0.04
1.205081939697266,2,3,3,3,-9.529999999999999,1.42,-1.32,0.05,0.01,-0.04
1.225081920623779,2,3,3,3,-9.630000000000001,1.45,-1.37,0.25,0.18,-0.06
1.225081920623779,2,3,3,3,-9.630000000000001,1.45,-1.37,0.25,0.18,-0.06
1.245081901550293,2,3,3,3,-9.609999999999999,1.48,-1.38,0.24,0.12,-0.06
1.245081901550293,2,3,3,3,-9.609999999999999,1.48,-1.38,0.24,0.12,-0.06
1.265082120895386,2,3,3,3,-9.58,1.43,-1.39,0.08,-0.03,-0.02
1.265082120895386,2,3,3,3,-9.58,1.43,-1.39,0.08,-0.03,-0.02
1.285082101821899,2,3,3,3,-9.57,1.43,-1.4,0.12,0.02,-0.06
1.285082101821899,2,3,3,3,-9.57,1.43,-1.4,0.12,0.02,-0.06
1.305082082748413,2,3,3,3,-9.57,1.45,-1.35,0.3,0.25,-0.09
1.305082082748413,2,3,3,3,-9.57,1.45,-1.35,0.3,0.25,-0.09
1.325082063674927,2,3,3,3,-9.619999999999999,1.46,-1.43,0.09,0.08,-0.06
1.325082063674927,2,3,3,3,-9.619999999999999,1.46,-1.43,0.09,0.08,-0.06
1.34508204460144,2,3,3,3,-9.550000000000001,1.43,-1.36,0.09,-0.05,-0.07000000000000001
1.34508204460144,2,3,3,3,-9.550000000000001,1.43,-1.36,0.09,-0.05,-0.07000000000000001
1.365082025527954,2,3,3,3,-9.56,1.49,-1.46,0.09,0.03,-0.05
1.365082025527954,2,3,3,3,-9.56,1.49,-1.46,0.09,0.03,-0.05
1.385082006454468,2,3,3,3,-9.550000000000001,1.51,-1.36,0.08,0.11,-0.06
1.385082006454468,2,3,3,3,-9.550000000000001,1.51,-1.36,0.08,0.11,-0.06
1.405081987380981,2,3,3,3,-9.58,1.43,-1.38,-0.05,-0.08,-0.05
1.405081987380981,2,3,3,3,-9.58,1.43,-1.38,-0.05,-0.08,-0.05
1.425081968307495,2,3,3,3,-9.59,1.42,-1.37,-0.05,-0.01,-0.09
1.425081968307495,2,3,3,3,-9.59,1.42,-1.37,-0.05,-0.01,-0.09
1.445081949234009,2,3,3,3,-9.59,1.41,-1.35,-0.03,0.07000000000000001,-0.07000000000000001
1.445081949234009,2,3,3,3,-9.59,1.41,-1.35,-0.03,0.07000000000000001,-0.07000000000000001
1.466082096099854,2,3,3,3,-9.58,1.54,-1.5,-0.02,-0.03,-0.08
1.466082096099854,2,3,3,3,-9.58,1.54,-1.5,-0.02,-0.03,-0.08
1.486082077026367,2,3,3,3,-9.529999999999999,1.48,-1.43,-0.11,0.05,-0.1
1.486082077026367,2,3,3,3,-9.529999999999999,1.48,-1.43,-0.11,0.05,-0.1
1.506082057952881,2,3,3,3,-9.59,1.39,-1.38,-0.19,0.1,-0.04
1.506082057952881,2,3,3,3,-9.59,1.39,-1.38,-0.19,0.1,-0.04
1.526082038879395,2,3,3,3,-9.52,1.35,-1.43,0.02,0.1,-0.01
1.526082038879395,2,3,3,3,-9.52,1.35,-1.43,0.02,0.1,-0.01
1.546082019805908,2,3,3,3,-9.609999999999999,1.39,-1.33,-0.04,-0.13,-0.04
1.546082019805908,2,3,3,3,-9.609999999999999,1.39,-1.33,-0.04,-0.13,-0.04
1.566082000732422,2,3,3,3,-9.609999999999999,1.29,-1.4,-0.04,-0.06,-0.06
1.566082000732422,2,3,3,3,-9.609999999999999,1.29,-1.4,-0.04,-0.06,-0.06
1.586081981658936,2,3,3,3,-9.59,1.36,-1.37,0.07000000000000001,-0.03,-0.03
1.586081981658936,2,3,3,3,-9.59,1.36,-1.37,0.07000000000000001,-0.03,-0.03
1.606081962585449,2,3,3,3,-9.539999999999999,1.39,-1.33,0.16,0.04,0.06
1.606081962585449,2,3,3,3,-9.539999999999999,1.39,-1.33,0.16,0.04,0.06
1.626081943511963,2,3,3,3,-9.6,1.42,-1.41,0.15,-0.02,0.09
1.626081943511963,2,3,3,3,-9.6,1.42,-1.41,0.15,-0.02,0.09
1.646081924438477,2,3,3,3,-9.58,1.42,-1.36,0.14,0.03,0.07000000000000001
1.646081924438477,2,3,3,3,-9.58,1.42,-1.36,0.14,0.03,0.07000000000000001
1.66608190536499,2,3,3,3,-9.59,1.43,-1.41,0.05,-0.03,0.12
1.66608190536499,2,3,3,3,-9.59,1.43,-1.41,0.05,-0.03,0.12
1.686082124710083,2,3,3,3,-9.550000000000001,1.47,-1.29,0.14,-0.05,0.08
1.686082124710083,2,3,3,3,-9.550000000000001,1.47,-1.29,0.14,-0.05,0.08
1.706082105636597,2,3,3,3,-9.6,1.42,-1.43,0.08,-0.02,0.15
1.706082105636597,2,3,3,3,-9.6,1.42,-1.43,0.08,-0.02,0.15
1.72608208656311,2,3,3,3,-9.59,1.35,-1.33,0.13,-0.04,0.15
1.72608208656311,2,3,3,3,-9.59,1.35,-1.33,0.13,-0.04,0.15
1.746082067489624,2,3,3,3,-9.6,1.34,-1.3,0.26,0.06,0.16
1.746082067489624,2,3,3,3,-9.6,1.34,-1.3,0.26,0.06,0.16
1.766082048416138,2,3,3,3,-9.56,1.46,-1.38,0.23,0.04,0.15
1.766082048416138,2,3,3,3,-9.56,1.46,-1.38,0.23,0.04,0.15
1.786082029342651,2,3,3,3,-9.59,1.48,-1.35,0.13,0.1,0.13
1.786082029342651,2,3,3,3,-9.59,1.48,-1.35,0.13,0.1,0.13
1.806082010269165,2,3,3,3,-9.57,1.42,-1.46,-0.02,0.04,0.14
1.806082010269165,2,3,3,3,-9.57,1.42,-1.46,-0.02,0.04,0.14
1.826081991195679,2,3,3,3,-9.6,1.43,-1.38,0,-0.07000000000000001,0.1
1.826081991195679,2,3,3,3,-9.6,1.43,-1.38,0,-0.07000000000000001,0.1
1.846081972122192,2,3,3,3,-9.6,1.42,-1.39,0.07000000000000001,0.04,0.14
1.846081972122192,2,3,3,3,-9.6,1.42,-1.39,0.07000000000000001,0.04,0.14
1.866081953048706,2,3,3,3,-9.56,1.49,-1.42,0,-0.01,0.13
1.866081953048706,2,3,3,3,-9.56,1.49,-1.42,0,-0.01,0.13
1.88608193397522,2,3,3,3,-9.539999999999999,1.41,-1.33,0.01,0.1,0.15
1.88608193397522,2,3,3,3,-9.539999999999999,1.41,-1.33,0.01,0.1,0.15
1.906081914901733,2,3,3,3,-9.59,1.4,-1.44,0.09,0.11,0.19
1.906081914901733,2,3,3,3,-9.59,1.4,-1.44,0.09,0.11,0.19
1.926082134246826,2,3,3,3,-9.609999999999999,1.43,-1.34,0.25,0,0.23
1.926082134246826,2,3,3,3,-9.609999999999999,1.43,-1.34,0.25,0,0.23
1.94608211517334,2,3,3,3,-9.58,1.46,-1.31,0.16,-0.05,0.19
1.94608211517334,2,3,3,3,-9.58,1.46,-1.31,0.16,-0.05,0.19
1.966082096099854,2,3,3,3,-9.58,1.46,-1.41,0.14,-0.06,0.21
1.966082096099854,2,3,3,3,-9.58,1.46,-1.41,0.14,-0.06,0.21
1.986082077026367,2,3,3,3,-9.57,1.48,-1.34,-0.07000000000000001,-0.11,0.17
1.986082077026367,2,3,3,3,-9.57,1.48,-1.34,-0.07000000000000001,-0.11,0.17
2.006082057952881,2,3,3,3,-9.550000000000001,1.48,-1.46,0.02,0.09,0.11
2.006082057952881,2,3,3,3,-9.550000000000001,1.48,-1.46,0.02,0.09,0.11
2.026082038879395,2,3,3,3,-9.58,1.47,-1.42,-0.01,0.09,0.13
2.026082038879395,2,3,3,3,-9.58,1.47,-1.42,-0.01,0.09,0.13
2.046082019805908,2,3,3,3,-9.539999999999999,1.48,-1.36,-0.05,-0.03,0.13
2.046082019805908,2,3,3,3,-9.539999999999999,1.48,-1.36,-0.05,-0.03,0.13
2.066082000732422,2,3,3,3,-9.57,1.45,-1.45,-0.07000000000000001,-0.06,0.13
2.066082000732422,2,3,3,3,-9.57,1.45,-1.45,-0.07000000000000001,-0.06,0.13
2.086081981658936,2,3,3,3,-9.56,1.41,-1.4,-0.05,-0.1,0.11
2.086081981658936,2,3,3,3,-9.56,1.41,-1.4,-0.05,-0.1,0.11
2.106081962585449,2,3,3,3,-9.52,1.43,-1.46,0,0.05,0.13
2.106081962585449,2,3,3,3,-9.52,1.43,-1.46,0,0.05,0.13
2.126081943511963,2,3,3,3,-9.6,1.44,-1.38,0,0.12,0.1
2.126081943511963,2,3,3,3,-9.6,1.44,-1.38,0,0.12,0.1
2.146081924438477,2,3,3,3,-9.58,1.48,-1.44,-0.03,0,0.08
2.146081924438477,2,3,3,3,-9.58,1.48,-1.44,-0.03,0,0.08
2.16608190536499,2,3,3,3,-9.6,1.45,-1.45,-0.05,0.01,0.09
2.16608190536499,2,3,3,3,-9.6,1.45,-1.45,-0.05,0.01,0.09
2.186082124710083,2,3,3,3,-9.56,1.43,-1.36,0.11,0.07000000000000001,0.15
2.186082124710083,2,3,3,3,-9.56,1.43,-1.36,0.11,0.07000000000000001,0.15
2.206082105636597,2,3,3,3,-9.58,1.36,-1.45,0.11,0.08,0.19
2.206082105636597,2,3,3,3,-9.58,1.36,-1.45,0.11,0.08,0.19
2.22608208656311,2,3,3,3,-9.619999999999999,1.34,-1.38,0.21,-0.02,0.23
2.22608208656311,2,3,3,3,-9.619999999999999,1.34,-1.38,0.21,-0.02,0.23
2.246082067489624,2,3,3,3,-9.58,1.41,-1.33,0.19,-0.04,0.2
2.246082067489624,2,3,3,3,-9.58,1.41,-1.33,0.19,-0.04,0.2
2.266082048416138,2,3,3,3,-9.57,1.43,-1.38,0.26,-0.06,0.19
2.266082048416138,2,3,3,3,-9.57,1.43,-1.38,0.26,-0.06,0.19
2.286082029342651,2,3,3,3,-9.59,1.48,-1.36,0.27,-0.13,0.18
2.286082029342651,2,3,3,3,-9.59,1.48,-1.36,0.27,-0.13,0.18
2.306082010269165,2,3,3,3,-9.58,1.5,-1.47,0.1,-0.05,0.14
2.306082010269165,2,3,3,3,-9.58,1.5,-1.47,0.1,-0.05,0.14
2.326081991195679,2,3,3,3,-9.550000000000001,1.51,-1.35,0.13,-0.04,0.18
2.326081991195679,2,3,3,3,-9.550000000000001,1.51,-1.35,0.13,-0.04,0.18
2.346081972122192,2,3,3,3,-9.58,1.5,-1.49,0.12,-0.01,0.22
2.346081972122192,2,3,3,3,-9.58,1.5,-1.49,0.12,-0.01,0.22
2.366081953048706,2,3,3,3,-9.57,1.46,-1.47,0.11,-0.04,0.2
2.366081953048706,2,3,3,3,-9.57,1.46,-1.47,0.11,-0.04,0.2
2.38608193397522,2,3,3,3,-9.56,1.48,-1.35,0.19,-0.01,0.19
2.38608193397522,2,3,3,3,-9.56,1.48,-1.35,0.19,-0.01,0.19
2.406081914901733,2,3,3,3,-9.56,1.53,-1.4,0.11,-0.02,0.15
2.406081914901733,2,3,3,3,-9.56,1.53,-1.4,0.11,-0.02,0.15
2.426082134246826,2,3,3,3,-9.539999999999999,1.46,-1.39,0.11,-0.11,0.17
2.426082134246826,2,3,3,3,-9.539999999999999,1.46,-1.39,0.11,-0.11,0.17
2.44608211517334,2,3,3,3,-9.56,1.45,-1.38,0.2,-0.06,0.13
2.44608211517334,2,3,3,3,-9.56,1.45,-1.38,0.2,-0.06,0.13
2.466082096099854,2,3,3,3,-9.550000000000001,1.49,-1.4,0.16,-0.08,0.15
2.466082096099854,2,3,3,3,-9.550000000000001,1.49,-1.4,0.16,-0.08,0.15
2.487082004547119,2,3,3,3,-9.59,1.46,-1.38,0.18,-0.09,0.19
2.487082004547119,2,3,3,3,-9.59,1.46,-1.38,0.18,-0.09,0.19
2.507081985473633,2,3,3,3,-9.59,1.5,-1.45,-0.01,-0.03,0.16
2.507081985473633,2,3,3,3,-9.59,1.5,-1.45,-0.01,-0.03,0.16
2.527081966400146,2,3,3,3,-9.56,1.49,-1.41,0,-0.03,0.09
2.527081966400146,2,3,3,3,-9.56,1.49,-1.41,0,-0.03,0.09
2.54708194732666,2,3,3,3,-9.58,1.48,-1.36,0,-0.18,0.14
2.54708194732666,2,3,3,3,-9.58,1.48,-1.36,0,-0.18,0.14
2.567081928253174,2,3,3,3,-9.58,1.44,-1.4,0.07000000000000001,-0.11,0.17
2.567081928253174,2,3,3,3,-9.58,1.44,-1.4,0.07000000000000001,-0.11,0.17
2.587081909179688,2,3,3,3,-9.57,1.47,-1.34,0.07000000000000001,-0.16,0.15
2.587081909179688,2,3,3,3,-9.57,1.47,-1.34,0.07000000000000001,-0.16,0.15
2.60708212852478,2,3,3,3,-9.59,1.49,-1.46,0.14,-0.08,0.11
2.60708212852478,2,3,3,3,-9.59,1.49,-1.46,0.14,-0.08,0.11
2.627082109451294,2,3,3,3,-9.539999999999999,1.52,-1.34,0.15,-0.17,0.08
2.627082109451294,2,3,3,3,-9.539999999999999,1.52,-1.34,0.15,-0.17,0.08
2.647082090377808,2,3,3,3,-9.550000000000001,1.47,-1.35,0.14,-0.05,0.07000000000000001
2.647082090377808,2,3,3,3,-9.550000000000001,1.47,-1.35,0.14,-0.05,0.07000000000000001
2.667082071304321,2,3,3,3,-9.619999999999999,1.47,-1.39,0.09,0.02,0.09
2.667082071304321,2,3,3,3,-9.619999999999999,1.47,-1.39,0.09,0.02,0.09
2.687082052230835,2,3,3,3,-9.630000000000001,1.48,-1.38,0.03,0.01,0.12
2.687082052230835,2,3,3,3,-9.630000000000001,1.48,-1.38,0.03,0.01,0.12
2.707082033157349,2,3,3,3,-9.56,1.48,-1.45,0.08,-0.06,0.14
2.707082033157349,2,3,3,3,-9.56,1.48,-1.45,0.08,-0.06,0.14
2.727082014083862,2,3,3,3,-9.539999999999999,1.49,-1.33,-0.04,-0.04,0.06
2.727082014083862,2,3,3,3,-9.539999999999999,1.49,-1.33,-0.04,-0.04,0.06
2.747081995010376,2,3,3,3,-9.56,1.46,-1.34,0.01,-0.02,0.07000000000000001
2.747081995010376,2,3,3,3,-9.56,1.46,-1.34,0.01,-0.02,0.07000000000000001
2.76708197593689,2,3,3,3,-9.59,1.49,-1.41,0.07000000000000001,-0.11,0.08
2.76708197593689,2,3,3,3,-9.59,1.49,-1.41,0.07000000000000001,-0.11,0.08
2.787081956863403,2,3,3,3,-9.550000000000001,1.52,-1.31,0.1,0.02,0.08
2.787081956863403,2,3,3,3,-9.550000000000001,1.52,-1.31,0.1,0.02,0.08
2.807081937789917,2,3,3,3,-9.539999999999999,1.49,-1.41,0.09,0.06,0.07000000000000001
2.807081937789917,2,3,3,3,-9.539999999999999,1.49,-1.41,0.09,0.06,0.07000000000000001
2.827081918716431,2,3,3,3,-9.550000000000001,1.49,-1.32,0.09,0.04,0.09
2.827081918716431,2,3,3,3,-9.550000000000001,1.49,-1.32,0.09,0.04,0.09
2.847081899642944,2,3,3,3,-9.609999999999999,1.45,-1.37,0.11,-0.05,0.05
2.847081899642944,2,3,3,3,-9.609999999999999,1.45,-1.37,0.11,-0.05,0.05
2.867082118988037,2,3,3,3,-9.550000000000001,1.51,-1.35,0.03,-0.12,0.01
2.867082118988037,2,3,3,3,-9.550000000000001,1.51,-1.35,0.03,-0.12,0.01
2.887082099914551,2,3,3,3,-9.52,1.52,-1.28,0.05,-0.02,0.01
2.887082099914551,2,3,3,3,-9.52,1.52,-1.28,0.05,-0.02,0.01
2.907082080841064,2,3,3,3,-9.57,1.5,-1.39,-0.05,0.1,0.05
2.907082080841064,2,3,3,3,-9.57,1.5,-1.39,-0.05,0.1,0.05
2.927082061767578,2,3,3,3,-9.57,1.43,-1.35,-0.08,0.03,0.03
2.927082061767578,2,3,3,3,-9.57,1.43,-1.35,-0.08,0.03,0.03
2.947082042694092,2,3,3,3,-9.57,1.47,-1.28,-0.01,-0.01,0.01
2.947082042694092,2,3,3,3,-9.57,1.47,-1.28,-0.01,-0.01,0.01
2.967082023620605,2,3,3,3,-9.56,1.49,-1.35,0.01,-0.08,-0.01
2.967082023620605,2,3,3,3,-9.56,1.49,-1.35,0.01,-0.08,-0.01
2.987082004547119,2,3,3,3,-9.57,1.49,-1.34,0.07000000000000001,0.03,0
2.987082004547119,2,3,3,3,-9.57,1.49,-1.34,0.07000000000000001,0.03,0
3.007081985473633,2,3,3,3,-9.6,1.52,-1.5,0.02,0.03,-0.05
3.007081985473633,2,3,3,3,-9.6,1.52,-1.5,0.02,0.03,-0.05
3.027081966400146,2,3,3,3,-9.58,1.51,-1.31,-0.09,0,-0.11
3.027081966400146,2,3,3,3,-9.58,1.51,-1.31,-0.09,0,-0.11
3.04708194732666,2,3,3,3,-9.59,1.5,-1.33,-0.08,0.12,-0.13
3.04708194732666,2,3,3,3,-9.59,1.5,-1.33,-0.08,0.12,-0.13
3.067081928253174,2,3,3,3,-9.58,1.49,-1.42,-0.13,0.05,-0.07000000000000001
3.067081928253174,2,3,3,3,-9.58,1.49,-1.42,-0.13,0.05,-0.07000000000000001
3.087081909179688,2,3,3,3,-9.609999999999999,1.46,-1.32,-0.12,0.09,-0.07000000000000001
3.087081909179688,2,3,3,3,-9.609999999999999,1.46,-1.32,-0.12,0.09,-0.07000000000000001
3.10708212852478,2,3,3,3,-9.609999999999999,1.37,-1.4,-0.02,-0.01,-0.05
3.10708212852478,2,3,3,3,-9.609999999999999,1.37,-1.4,-0.02,-0.01,-0.05
3.127082109451294,2,3,3,3,-9.640000000000001,1.49,-1.25,0.1,0.13,-0.09
3.127082109451294,2,3,3,3,-9.640000000000001,1.49,-1.25,0.1,0.13,-0.09
3.147082090377808,2,3,3,3,-9.609999999999999,1.46,-1.32,0.03,0.08,-0.07000000000000001
3.147082090377808,2,3,3,3,-9.609999999999999,1.46,-1.32,0.03,0.08,-0.07000000000000001
3.167082071304321,2,3,3,3,-9.6,1.44,-1.38,-0.07000000000000001,0.26,-0.11
3.167082071304321,2,3,3,3,-9.6,1.44,-1.38,-0.07000000000000001,0.26,-0.11
3.187082052230835,2,3,3,3,-9.56,1.45,-1.3,-0.07000000000000001,0.07000000000000001,-0.1
3.187082052230835,2,3,3,3,-9.56,1.45,-1.3,-0.07000000000000001,0.07000000000000001,-0.1
3.207082033157349,2,3,3,3,-9.58,1.45,-1.44,0.04,0.15,-0.07000000000000001
3.207082033157349,2,3,3,3,-9.58,1.45,-1.44,0.04,0.15,-0.07000000000000001
3.227082014083862,2,3,3,3,-9.59,1.42,-1.3,-0.14,-0.03,-0.09
3.227082014083862,2,3,3,3,-9.59,1.42,-1.3,-0.14,-0.03,-0.09
3.247081995010376,2,3,3,3,-9.6,1.42,-1.36,-0.03,0.17,-0.13
3.247081995010376,2,3,3,3,-9.6,1.42,-1.36,-0.03,0.17,-0.13
3.26708197593689,2,3,3,3,-9.6,1.45,-1.46,-0.05,0.13,-0.15
3.26708197593689,2,3,3,3,-9.6,1.45,-1.46,-0.05,0.13,-0.15
3.287081956863403,2,3,3,3,-9.51,1.47,-1.36,-0.19,0.09,-0.13
3.287081956863403,2,3,3,3,-9.51,1.47,-1.36,-0.19,0.09,-0.13
3.307081937789917,2,3,3,3,-9.529999999999999,1.44,-1.53,-0.1,0.09,-0.15
3.307081937789917,2,3,3,3,-9.529999999999999,1.44,-1.53,-0.1,0.09,-0.15
3.327081918716431,2,3,3,3,-9.57,1.32,-1.31,-0.18,0.07000000000000001,-0.2
3.327081918716431,2,3,3,3,-9.57,1.32,-1.31,-0.18,0.07000000000000001,-0.2
3.347081899642944,2,3,3,3,-9.630000000000001,1.33,-1.21,-0.29,0.16,-0.27
3.347081899642944,2,3,3,3,-9.630000000000001,1.33,-1.21,-0.29,0.16,-0.27
3.367082118988037,2,3,3,3,-9.58,1.2,-1.24,-0.53,0.05,-0.36
3.367082118988037,2,3,3,3,-9.58,1.2,-1.24,-0.53,0.05,-0.36
3.387082099914551,2,3,3,3,-9.67,1.35,-1.38,-0.5,0.16,-0.47
3.387082099914551,2,3,3,3,-9.67,1.35,-1.38,-0.5,0.16,-0.47
3.407082080841064,2,3,3,3,-9.59,1.39,-1.41,-0.4,0.21,-0.41
3.407082080841064,2,3,3,3,-9.59,1.39,-1.41,-0.4,0.21,-0.41
3.427082061767578,2,3,3,3,-9.640000000000001,1.41,-1.4,-0.09,0.15,-0.34
3.427082061767578,2,3,3,3,-9.640000000000001,1.41,-1.4,-0.09,0.15,-0.34
3.447082042694092,2,3,3,3,-9.6,1.26,-1.37,-0.1,-0.11,-0.4
3.447082042694092,2,3,3,3,-9.6,1.26,-1.37,-0.1,-0.11,-0.4
3.467082023620605,2,3,3,3,-9.460000000000001,1.02,-1.29,0.11,0.23,-0.6
3.467082023620605,2,3,3,3,-9.460000000000001,1.02,-1.29,0.11,0.23,-0.6
3.487082004547119,2,3,3,3,-9.619999999999999,1.02,-1.27,0.1,0.26,-0.68
3.487082004547119,2,3,3,3,-9.619999999999999,1.02,-1.27,0.1,0.26,-0.68
3.508081912994385,2,3,3,3,-9.609999999999999,0.98,-1.26,-0.27,0.05,-1.08
3.508081912994385,2,3,3,3,-9.609999999999999,0.98,-1.26,-0.27,0.05,-1.08
3.528082132339478,2,3,3,3,-9.609999999999999,1.01,-1.28,-0.5,0.22,-1.34
3.528082132339478,2,3,3,3,-9.609999999999999,1.01,-1.28,-0.5,0.22,-1.34
3.548082113265991,2,3,3,3,-9.59,1.09,-1.35,-0.76,0.2,-1.5
3.548082113265991,2,3,3,3,-9.59,1.09,-1.35,-0.76,0.2,-1.5
3.568082094192505,2,3,3,3,-9.66,0.95,-1.33,-1,0,-1.61
3.568082094192505,2,3,3,3,-9.66,0.95,-1.33,-1,0,-1.61
3.588082075119019,2,3,3,3,-9.59,0.49,-1.09,-1.07,0.02,-1.82
3.588082075119019,2,3,3,3,-9.59,0.49,-1.09,-1.07,0.02,-1.82
3.608082056045532,2,3,3,3,-9.56,0.4,-0.98,-1.09,0.02,-2.06
3.608082056045532,2,3,3,3,-9.56,0.4,-0.98,-1.09,0.02,-2.06
3.628082036972046,2,3,3,3,-9.67,0.09,-0.91,-0.84,0.03,-2.29
3.628082036972046,2,3,3,3,-9.67,0.09,-0.91,-0.84,0.03,-2.29
3.64808201789856,2,3,3,3,-9.640000000000001,-0.77,-0.67,-0.26,-0.25,-2.59
3.64808201789856,2,3,3,3,-9.640000000000001,-0.77,-0.67,-0.26,-0.25,-2.59
3.668081998825073,2,3,3,3,-9.65,-0.98,-0.39,-0.5,-1.41,-3.48
3.668081998825073,2,3,3,3,-9.65,-0.98,-0.39,-0.5,-1.41,-3.48
3.688081979751587,2,3,3,3,-9.43,-0.91,-0.24,0.93,-1.03,-3.99
3.688081979751587,2,3,3,3,-9.43,-0.91,-0.24,0.93,-1.03,-3.99
3.708081960678101,2,3,3,3,-9.67,-2.48,0.8100000000000001,1.33,-2.07,-4.45
3.708081960678101,2,3,3,3,-9.67,-2.48,0.8100000000000001,1.33,-2.07,-4.45
3.728081941604614,2,3,3,3,-9.48,-4.17,1.06,0.73,-3.98,-5.98
3.728081941604614,2,3,3,3,-9.48,-4.17,1.06,0.73,-3.98,-5.98
3.748081922531128,2,3,3,3,-8.529999999999999,-1.35,0.75,-0.13,-3.22,-7.85
3.748081922531128,2,3,3,3,-8.529999999999999,-1.35,0.75,-0.13,-3.22,-7.85
3.768081903457642,2,3,3,3,-8.449999999999999,-1.01,0.98,0,-2.55,-7.86
3.768081903457642,2,3,3,3,-8.449999999999999,-1.01,0.98,0,-2.55,-7.86
3.788082122802734,2,3,3,3,-8.48,-1.13,0.02,-1.14,-2.7,-9.19
3.788082122802734,2,3,3,3,-8.48,-1.13,0.02,-1.14,-2.7,-9.19
3.808082103729248,2,3,3,3,-8.27,0.13,-0.89,-1.51,-3.59,-10.01
3.808082103729248,2,3,3,3,-8.27,0.13,-0.89,-1.51,-3.59,-10.01
3.828082084655762,2,3,3,3,-8.720000000000001,-0.34,0.02,-2.39,-6.48,-10.32
3.828082084655762,2,3,3,3,-8.720000000000001,-0.34,0.02,-2.39,-6.48,-10.32
3.848082065582275,2,3,3,3,-8.199999999999999,-0.65,-0.03,-3.87,-3.79,-10.83
3.848082065582275,2,3,3,3,-8.199999999999999,-0.65,-0.03,-3.87,-3.79,-10.83
3.868082046508789,2,3,3,3,-8.359999999999999,0.44,-1.55,-1.32,-3.87,-12.02
3.868082046508789,2,3,3,3,-8.359999999999999,0.44,-1.55,-1.32,-3.87,-12.02
3.888082027435303,2,3,3,3,-8.76,0.08,-1.58,-2.27,-3.88,-12.38
3.888082027435303,2,3,3,3,-8.76,0.08,-1.58,-2.27,-3.88,-12.38
3.908082008361816,2,3,3,3,-10.1,-1.39,-1.03,-2.7,-4.01,-11.02
3.908082008361816,2,3,3,3,-10.1,-1.39,-1.03,-2.7,-4.01,-11.02
3.92808198928833,2,3,3,3,-10.68,-1.01,-1.01,0.66,-3.51,-10.15
3.92808198928833,2,3,3,3,-10.68,-1.01,-1.01,0.66,-3.51,-10.15
3.948081970214844,2,3,3,3,-9.869999999999999,-1.33,-1.11,2.73,-2.46,-10.65
3.948081970214844,2,3,3,3,-9.869999999999999,-1.33,-1.11,2.73,-2.46,-10.65
3.968081951141357,2,3,3,3,-9.6,-0.75,-0.62,4.65,-0.82,-10.81
3.968081951141357,2,3,3,3,-9.6,-0.75,-0.62,4.65,-0.82,-10.81
3.988081932067871,2,3,3,3,-10.5,0.06,-0.49,2.26,-0.11,-9.91
3.988081932067871,2,3,3,3,-10.5,0.06,-0.49,2.26,-0.11,-9.91
4.008081912994385,2,3,3,3,-10.53,0.25,-0.65,-0.16,0.37,-9.039999999999999
4.008081912994385,2,3,3,3,-10.53,0.25,-0.65,-0.16,0.37,-9.039999999999999
4.028082132339478,2,3,3,3,-11.43,-1.84,-1.2,-2.69,0.07000000000000001,-8.15
4.028082132339478,2,3,3,3,-11.43,-1.84,-1.2,-2.69,0.07000000000000001,-8.15
4.048082113265991,2,3,3,3,-11.92,-2.46,-1.53,-2.73,0.06,-6.78
4.048082113265991,2,3,3,3,-11.92,-2.46,-1.53,-2.73,0.06,-6.78
4.068082094192505,2,3,3,3,-12.64,-3.33,-1.7,-1.75,-0.24,-6
4.068082094192505,2,3,3,3,-12.64,-3.33,-1.7,-1.75,-0.24,-6
4.088082075119019,2,3,3,3,-11.89,-2.38,-1.38,0.03,-0.29,-5
4.088082075119019,2,3,3,3,-11.89,-2.38,-1.38,0.03,-0.29,-5
4.108082056045532,2,3,3,3,-10.65,0.05,-1.25,1.22,0.2,-4.1
4.108082056045532,2,3,3,3,-10.65,0.05,-1.25,1.22,0.2,-4.1
4.128082036972046,2,3,3,3,-9.4,1.67,-1.15,-0.57,1.23,-2.11
4.128082036972046,2,3,3,3,-9.4,1.67,-1.15,-0.57,1.23,-2.11
4.14808201789856,2,3,3,3,-10.21,2.3,-2.36,-2.17,1.61,1.74
4.14808201789856,2,3,3,3,-10.21,2.3,-2.36,-2.17,1.61,1.74
4.168081998825073,2,3,3,3,-13.96,0.45,-3.3,-4.05,1.05,5.79
4.168081998825073,2,3,3,3,-13.96,0.45,-3.3,-4.05,1.05,5.79
4.188081979751587,2,3,3,3,-15.24,1.59,-3.34,-3.32,0.77,8.130000000000001
4.188081979751587,2,3,3,3,-15.24,1.59,-3.34,-3.32,0.77,8.130000000000001
4.208081960678101,2,3,3,3,-14.4,3.66,-1.68,-2.43,1.16,8.94
4.208081960678101,2,3,3,3,-14.4,3.66,-1.68,-2.43,1.16,8.94
4.228081941604614,2,3,3,3,-16.27,2.24,-1.35,-5.8,-0.27,11.57
4.228081941604614,2,3,3,3,-16.27,2.24,-1.35,-5.8,-0.27,11.57
4.248081922531128,2,3,3,3,-23.16,3.75,-1.7,-8.130000000000001,-3.69,16.83
4.248081922531128,2,3,3,3,-23.16,3.75,-1.7,-8.130000000000001,-3.69,16.83
4.268081903457642,2,3,3,3,-25.27,6.93,-2.57,-7.27,-3.5,20.61
4.268081903457642,2,3,3,3,-25.27,6.93,-2.57,-7.27,-3.5,20.61
4.288082122802734,2,3,3,3,-25.69,9.550000000000001,-5.82,-9.58,-0.42,23.38
4.288082122802734,2,3,3,3,-25.69,9.550000000000001,-5.82,-9.58,-0.42,23.38
4.308082103729248,2,3,3,3,-25.91,4.51,-7.31,-12.26,4.42,24.57
4.308082103729248,2,3,3,3,-25.91,4.51,-7.31,-12.26,4.42,24.57
4.328082084655762,2,3,3,3,-21.65,-2.74,-8.1,-7.16,8.67,23.33
4.328082084655762,2,3,3,3,-21.65,-2.74,-8.1,-7.16,8.67,23.33
4.348082065582275,2,3,3,3,-16.28,-6.08,-3.91,-0.78,9.390000000000001,21.87
4.348082065582275,2,3,3,3,-16.28,-6.08,-3.91,-0.78,9.390000000000001,21.87
4.368082046508789,2,3,3,3,-4.31,-15.13,0.74,-7.59,5.69,21.78
4.368082046508789,2,3,3,3,-4.31,-15.13,0.74,-7.59,5.69,21.78
4.388082027435303,2,3,3,3,-5.5,-38.72,22.03,-5.56,3.46,10.1
4.388082027435303,2,3,3,3,-5.5,-38.72,22.03,-5.56,3.46,10.1
4.408082008361816,2,3,3,3,-3.94,-14.41,8.51,14.14,-0.41,-0.5
4.408082008361816,2,3,3,3,-3.94,-14.41,8.51,14.14,-0.41,-0.5
4.42808198928833,2,3,3,3,-4.56,10.93,2.25,7.58,2.59,-4.44
4.42808198928833,2,3,3,3,-4.56,10.93,2.25,7.58,2.59,-4.44
4.448081970214844,2,3,3,3,-2.14,1.79,-2.23,-4.84,1.91,-8.33
4.448081970214844,2,3,3,3,-2.14,1.79,-2.23,-4.84,1.91,-8.33
4.468081951141357,2,3,3,3,2.3,-0.82,-6.36,-3.09,-5.28,-10.97
4.468081951141357,2,3,3,3,2.3,-0.82,-6.36,-3.09,-5.28,-10.97
4.488081932067871,2,3,3,3,2.85,8.210000000000001,-3.14,6.08,-3.18,-6.45
4.488081932067871,2,3,3,3,2.85,8.210000000000001,-3.14,6.08,-3.18,-6.45
4.508081912994385,2,3,3,3,1.28,7.86,-1.04,7.18,-3.1,-2.68
4.508081912994385,2,3,3,3,1.28,7.86,-1.04,7.18,-3.1,-2.68
4.529082059860229,2,3,3,3,0.14,2.9,-1.45,-2.24,-4.34,-0.22
4.529082059860229,2,3,3,3,0.14,2.9,-1.45,-2.24,-4.34,-0.22
4.549082040786743,2,3,3,3,0.89,1.03,-1.05,-4.95,-6.39,-0.28
4.549082040786743,2,3,3,3,0.89,1.03,-1.05,-4.95,-6.39,-0.28
4.569082021713257,2,3,3,3,0.67,-0.22,-0.6,-2.94,-3.23,-0.61
4.569082021713257,2,3,3,3,0.67,-0.22,-0.6,-2.94,-3.23,-0.61
4.589082002639771,2,3,3,3,0.52,-1.48,-0.31,2.3,-1.33,-0.86
4.589082002639771,2,3,3,3,0.52,-1.48,-0.31,2.3,-1.33,-0.86
4.609081983566284,2,3,3,3,0.4,-1.46,0.5,7.95,-1.46,-1.59
4.609081983566284,2,3,3,3,0.4,-1.46,0.5,7.95,-1.46,-1.59
4.629081964492798,2,3,3,3,-0.28,-1.13,0.46,11.07,-1.39,-1.62
4.629081964492798,2,3,3,3,-0.28,-1.13,0.46,11.07,-1.39,-1.62
4.649081945419312,2,3,3,2,-1.09,-0.78,1.21,12.64,-2.62,-1.64
4.649081945419312,2,3,3,2,-1.09,-0.78,1.21,12.64,-2.62,-1.64
4.669081926345825,2,3,3,2,-1.39,0.07000000000000001,1.49,12.6,-3.18,-1.02
4.669081926345825,2,3,3,2,-1.39,0.07000000000000001,1.49,12.6,-3.18,-1.02
4.689081907272339,2,3,3,2,-1.25,0.46,0.3,10.2,-1.78,-0.45
4.689081907272339,2,3,3,2,-1.25,0.46,0.3,10.2,-1.78,-0.45
4.709082126617432,2,3,3,2,-1.01,-0.62,0.21,7.23,-1.66,-1.66
4.709082126617432,2,3,3,2,-1.01,-0.62,0.21,7.23,-1.66,-1.66
4.729082107543945,2,3,3,2,-4.55,-18.89,4.78,-4.95,1.6,-9.85
4.729082107543945,2,3,3,2,-4.55,-18.89,4.78,-4.95,1.6,-9.85
4.749082088470459,2,3,3,2,-11.63,-14.25,-1.55,-15.79,-7.42,-6.53
4.749082088470459,2,3,3,2,-11.63,-14.25,-1.55,-15.79,-7.42,-6.53
4.769082069396973,2,3,3,2,-29.73,-13.71,4.29,-22.73,-11.14,-12.06
4.769082069396973,2,3,3,2,-29.73,-13.71,4.29,-22.73,-11.14,-12.06
4.789082050323486,2,3,3,2,-13.45,-8.44,-6.24,-12.55,6.38,-17.12
4.789082050323486,2,3,3,2,-13.45,-8.44,-6.24,-12.55,6.38,-17.12
4.80908203125,2,3,3,2,-21.87,-8.18,-3.74,-4.15,2.95,-19.08
4.80908203125,2,3,3,2,-21.87,-8.18,-3.74,-4.15,2.95,-19.08
4.829082012176514,2,3,3,2,-26.59,8.699999999999999,-3.84,10.66,-0.45,-10.87
4.829082012176514,2,3,3,2,-26.59,8.699999999999999,-3.84,10.66,-0.45,-10.87
4.849081993103027,2,3,3,2,-16.64,17.17,-0.74,16.87,3.65,-7.42
4.849081993103027,2,3,3,2,-16.64,17.17,-0.74,16.87,3.65,-7.42
4.869081974029541,2,3,3,2,-16.81,3.55,0.89,3.84,2.38,-5.04
4.869081974029541,2,3,3,2,-16.81,3.55,0.89,3.84,2.38,-5.04
4.889081954956055,2,3,3,2,-19.33,2.97,1.03,2.52,-1.16,-0.5600000000000001
4.889081954956055,2,3,3,2,-19.33,2.97,1.03,2.52,-1.16,-0.5600000000000001
4.909081935882568,2,3,3,2,-15.04,4.72,-0.55,4.33,-0.86,0.98
4.909081935882568,2,3,3,2,-15.04,4.72,-0.55,4.33,-0.86,0.98
4.929081916809082,2,3,3,2,-13.88,3.35,-0.36,2.15,-0.2,3.28
4.929081916809082,2,3,3,2,-13.88,3.35,-0.36,2.15,-0.2,3.28
4.949082136154175,2,3,3,2,-13.71,0.86,-1.01,0.31,-0.17,5.58
4.949082136154175,2,3,3,2,-13.71,0.86,-1.01,0.31,-0.17,5.58
4.969082117080688,2,3,3,2,-11.81,0.71,-1.58,1.47,0.06,7.78
4.969082117080688,2,3,3,2,-11.81,0.71,-1.58,1.47,0.06,7.78
4.989082098007202,2,3,3,2,-10.2,1.94,-2.17,1.02,0.62,8.92
4.989082098007202,2,3,3,2,-10.2,1.94,-2.17,1.02,0.62,8.92
5.009082078933716,2,3,3,2,-9.82,1.75,-2.24,-2.24,1.49,9.130000000000001
5.009082078933716,2,3,3,2,-9.82,1.75,-2.24,-2.24,1.49,9.130000000000001
5.029082059860229,2,3,3,2,-9.83,0.51,-1.24,-4.94,2.95,8.34
5.029082059860229,2,3,3,2,-9.83,0.51,-1.24,-4.94,2.95,8.34
5.049082040786743,2,3,3,2,-9.06,-0.78,-0.72,-6.4,3.68,7.26
5.049082040786743,2,3,3,2,-9.06,-0.78,-0.72,-6.4,3.68,7.26
5.069082021713257,2,3,3,2,-8.380000000000001,-2.51,0.1,-5.77,3.61,6.79
5.069082021713257,2,3,3,2,-8.380000000000001,-2.51,0.1,-5.77,3.61,6.79
5.089082002639771,2,3,3,2,-7.47,-2.74,0.5600000000000001,-3.47,3.47,6.77
5.089082002639771,2,3,3,2,-7.47,-2.74,0.5600000000000001,-3.47,3.47,6.77
5.109081983566284,2,3,3,2,-6.62,-3.31,0.3,-0.64,2.72,6.05
5.109081983566284,2,3,3,2,-6.62,-3.31,0.3,-0.64,2.72,6.05
5.129081964492798,2,3,3,2,-6.93,-3.24,0.14,2.94,2.35,5.64
5.129081964492798,2,3,3,2,-6.93,-3.24,0.14,2.94,2.35,5.64
5.149081945419312,2,3,3,2,-7.91,-2.29,-0.82,6.03,1.64,4.9
5.149081945419312,2,3,3,2,-7.91,-2.29,-0.82,6.03,1.64,4.9
5.169081926345825,2,3,3,2,-8.49,-2.18,-0.79,6.02,1.86,3.66
5.169081926345825,2,3,3,2,-8.49,-2.18,-0.79,6.02,1.86,3.66
5.189081907272339,2,3,3,2,-9.76,-2.33,0.03,6.01,1.9,2.5
5.189081907272339,2,3,3,2,-9.76,-2.33,0.03,6.01,1.9,2.5
5.209082126617432,2,3,3,2,-10.08,-1.31,0.31,5.08,1.28,1.57
5.209082126617432,2,3,3,2,-10.08,-1.31,0.31,5.08,1.28,1.57
5.229082107543945,2,3,3,2,-9.619999999999999,1.31,0.21,2.68,1.13,0.89
5.229082107543945,2,3,3,2,-9.619999999999999,1.31,0.21,2.68,1.13,0.89
5.249082088470459,2,3,3,3,-9.619999999999999,1.2,-0.48,-0.16,0.55,0.38
5.249082088470459,2,3,3,3,-9.619999999999999,1.2,-0.48,-0.16,0.55,0.38
5.269082069396973,2,3,3,3,-9.58,-0.07000000000000001,-1.09,-2.6,0.8100000000000001,0.4
5.269082069396973,2,3,3,3,-9.58,-0.07000000000000001,-1.09,-2.6,0.8100000000000001,0.4
5.289082050323486,2,3,3,3,-9.859999999999999,-0.53,-1.23,-2.66,0.25,0.43
5.289082050323486,2,3,3,3,-9.859999999999999,-0.53,-1.23,-2.66,0.25,0.43
5.30908203125,2,3,3,3,-9.779999999999999,-0.39,-0.73,-1.41,0.09,0.33
5.30908203125,2,3,3,3,-9.779999999999999,-0.39,-0.73,-1.41,0.09,0.33
5.329082012176514,2,3,3,3,-9.970000000000001,0.13,-0.36,-0.85,0.07000000000000001,0.47
5.329082012176514,2,3,3,3,-9.970000000000001,0.13,-0.36,-0.85,0.07000000000000001,0.47
5.349081993103027,2,3,3,3,-9.81,1.08,-0.65,-1.02,0.45,0.5600000000000001
5.349081993103027,2,3,3,3,-9.81,1.08,-0.65,-1.02,0.45,0.5600000000000001
5.369081974029541,2,3,3,3,-9.9,0.89,-1.1,-1.7,0.74,0.91
5.369081974029541,2,3,3,3,-9.9,0.89,-1.1,-1.7,0.74,0.91
5.389081954956055,2,3,3,3,-9.550000000000001,-0.45,-1.32,-1.29,0.75,1.07
5.389081954956055,2,3,3,3,-9.550000000000001,-0.45,-1.32,-1.29,0.75,1.07
5.409081935882568,2,3,3,3,-9.449999999999999,-0.82,-1.41,0.34,0.63,1.05
5.409081935882568,2,3,3,3,-9.449999999999999,-0.82,-1.41,0.34,0.63,1.05
5.429081916809082,2,3,3,3,-9.65,-1.03,-0.82,1.92,0.14,0.95
5.429081916809082,2,3,3,3,-9.65,-1.03,-0.82,1.92,0.14,0.95
5.449082136154175,2,3,3,3,-9.720000000000001,-0.77,-0.59,3.22,0.25,1
5.449082136154175,2,3,3,3,-9.720000000000001,-0.77,-0.59,3.22,0.25,1
5.469082117080688,2,3,3,3,-9.699999999999999,0.44,-0.89,3.43,0.8,0.96
5.469082117080688,2,3,3,3,-9.699999999999999,0.44,-0.89,3.43,0.8,0.96
5.489082098007202,2,3,3,3,-9.74,0.91,-0.71,2.69,0.59,1.09
5.489082098007202,2,3,3,3,-9.74,0.91,-0.71,2.69,0.59,1.09
5.509082078933716,2,3,3,3,-9.65,0.02,-0.36,0.98,0.07000000000000001,0.96
5.509082078933716,2,3,3,3,-9.65,0.02,-0.36,0.98,0.07000000000000001,0.96
5.529082059860229,2,3,3,3,-9.720000000000001,-0.46,-0.14,0.11,-0.07000000000000001,0.5600000000000001
5.529082059860229,2,3,3,3,-9.720000000000001,-0.46,-0.14,0.11,-0.07000000000000001,0.5600000000000001
5.549082040786743,2,3,3,3,-9.84,0.04,-0.29,-0.04,-0.09,0.16
5.549082040786743,2,3,3,3,-9.84,0.04,-0.29,-0.04,-0.09,0.16
5.570081949234009,2,3,3,3,-9.75,-0.01,-0.68,-0.89,-0.15,0
5.570081949234009,2,3,3,3,-9.75,-0.01,-0.68,-0.89,-0.15,0
5.590081930160522,2,3,3,3,-9.56,0.1,-1.09,-1.54,-0.43,0.02
5.590081930160522,2,3,3,3,-9.56,0.1,-1.09,-1.54,-0.43,0.02
5.610081911087036,2,3,3,3,-9.539999999999999,0.32,-1.55,-1.26,-0.03,-0.01
5.610081911087036,2,3,3,3,-9.539999999999999,0.32,-1.55,-1.26,-0.03,-0.01
5.630082130432129,2,3,3,3,-9.710000000000001,0.62,-1.64,-0.45,0.11,0.09
5.630082130432129,2,3,3,3,-9.710000000000001,0.62,-1.64,-0.45,0.11,0.09
5.650082111358643,2,3,3,3,-9.91,0.83,-1.69,0.03,0.19,0.29
5.650082111358643,2,3,3,3,-9.91,0.83,-1.69,0.03,0.19,0.29
5.670082092285156,2,3,3,3,-9.52,0.79,-1.51,0.74,0.22,0.57
5.670082092285156,2,3,3,3,-9.52,0.79,-1.51,0.74,0.22,0.57
5.69008207321167,2,3,3,3,-9.51,0.45,-1.04,1.28,0.4,0.78
5.69008207321167,2,3,3,3,-9.51,0.45,-1.04,1.28,0.4,0.78
5.710082054138184,2,3,3,3,-9.82,0.26,-0.89,1.45,0.18,0.65
5.710082054138184,2,3,3,3,-9.82,0.26,-0.89,1.45,0.18,0.65
5.730082035064697,2,3,3,3,-9.85,-0.23,-0.53,0.98,-0.07000000000000001,0.43
5.730082035064697,2,3,3,3,-9.85,-0.23,-0.53,0.98,-0.07000000000000001,0.43
5.750082015991211,2,3,3,3,-9.42,-0.51,-0.34,0.82,-0.2,-0.03
5.750082015991211,2,3,3,3,-9.42,-0.51,-0.34,0.82,-0.2,-0.03
5.770081996917725,2,3,3,3,-8.859999999999999,-0.99,-0.34,0.63,-0.36,-0.64
5.770081996917725,2,3,3,3,-8.859999999999999,-0.99,-0.34,0.63,-0.36,-0.64
5.790081977844238,2,3,3,3,-8.91,-1.22,-0.16,0.5,-0.14,-1.23
5.790081977844238,2,3,3,3,-8.91,-1.22,-0.16,0.5,-0.14,-1.23
5.810081958770752,2,3,3,3,-9.19,-2.27,0.02,0.35,-0.77,-1.84
5.810081958770752,2,3,3,3,-9.19,-2.27,0.02,0.35,-0.77,-1.84
5.830081939697266,2,3,3,3,-9.18,-3.28,0.83,0.31,-2.13,-2.73
5.830081939697266,2,3,3,3,-9.18,-3.28,0.83,0.31,-2.13,-2.73
5.850081920623779,2,3,3,3,-8.65,-4.76,1.69,0.83,-3.54,-4.13
5.850081920623779,2,3,3,3,-8.65,-4.76,1.69,0.83,-3.54,-4.13
5.870081901550293,2,3,3,3,-8.050000000000001,-5.13,1.67,2.7,-5.09,-6.13
5.870081901550293,2,3,3,3,-8.050000000000001,-5.13,1.67,2.7,-5.09,-6.13
5.890082120895386,2,3,3,3,-7,-1.51,0.7,4.65,-3.51,-8.470000000000001
5.890082120895386,2,3,3,3,-7,-1.51,0.7,4.65,-3.51,-8.470000000000001
5.910082101821899,2,3,3,3,-7.9,0.21,0.41,2.32,-3.93,-9.26
5.910082101821899,2,3,3,3,-7.9,0.21,0.41,2.32,-3.93,-9.26
5.930082082748413,2,3,3,3,-8.77,0.02,0.57,-2.04,-5.91,-10.42
5.930082082748413,2,3,3,3,-8.77,0.02,0.57,-2.04,-5.91,-10.42
5.950082063674927,2,3,3,3,-9.59,-0.88,0.14,-1.64,-3.49,-11.57
5.950082063674927,2,3,3,3,-9.59,-0.88,0.14,-1.64,-3.49,-11.57
5.97008204460144,2,3,3,3,-10.05,-0.88,-0.16,-3.51,-3.74,-11.7
5.97008204460144,2,3,3,3,-10.05,-0.88,-0.16,-3.51,-3.74,-11.7
5.990082025527954,2,3,3,3,-9.539999999999999,0.25,0.07000000000000001,-2.51,-3.78,-13.33
5.990082025527954,2,3,3,3,-9.539999999999999,0.25,0.07000000000000001,-2.51,-3.78,-13.33
6.010082006454468,2,3,3,3,-9.68,2.41,-0.4,-2.78,-3.42,-14.36
6.010082006454468,2,3,3,3,-9.68,2.41,-0.4,-2.78,-3.42,-14.36
6.030081987380981,2,3,3,3,-10.36,1.02,-0.34,-7.31,-2.02,-13.68
6.030081987380981,2,3,3,3,-10.36,1.02,-0.34,-7.31,-2.02,-13.68
6.050081968307495,2,3,3,3,-11.82,-2.36,-1.27,-6.05,-2.04,-12.87
6.050081968307495,2,3,3,3,-11.82,-2.36,-1.27,-6.05,-2.04,-12.87
6.070081949234009,2,3,3,3,-11.94,0,-2.95,-1.69,-1.29,-10.34
6.070081949234009,2,3,3,3,-11.94,0,-2.95,-1.69,-1.29,-10.34
6.090081930160522,2,3,3,3,-11.8,3.09,-4.71,0.46,-0.5600000000000001,-6.28
6.090081930160522,2,3,3,3,-11.8,3.09,-4.71,0.46,-0.5600000000000001,-6.28
6.110081911087036,2,3,3,3,-12.39,2.77,-3.92,-1.55,0.03,-1.82
6.110081911087036,2,3,3,3,-12.39,2.77,-3.92,-1.55,0.03,-1.82
6.130082130432129,2,3,3,3,-16.42,-1.69,-3.13,-5.15,-0.12,2.11
6.130082130432129,2,3,3,3,-16.42,-1.69,-3.13,-5.15,-0.12,2.11
6.150082111358643,2,3,3,3,-18.45,1.02,-2.37,-2.71,-0.34,4.88
6.150082111358643,2,3,3,3,-18.45,1.02,-2.37,-2.71,-0.34,4.88
6.170082092285156,2,3,3,3,-18.75,4.19,-0.95,-2.21,0.26,7.71
6.170082092285156,2,3,3,3,-18.75,4.19,-0.95,-2.21,0.26,7.71
6.19008207321167,2,3,3,3,-19.04,6.34,1.43,-5.34,-0.04,12.18
6.19008207321167,2,3,3,3,-19.04,6.34,1.43,-5.34,-0.04,12.18
6.210082054138184,2,3,3,3,-21.21,6.81,0.61,-8.699999999999999,-2.7,18.91
6.210082054138184,2,3,3,3,-21.21,6.81,0.61,-8.699999999999999,-2.7,18.91
6.230082035064697,2,3,3,3,-26.96,5.64,-4.57,-11.13,-4.84,24.78
6.230082035064697,2,3,3,3,-26.96,5.64,-4.57,-11.13,-4.84,24.78
6.250082015991211,2,3,3,3,-28.1,3.09,-8.08,-8.24,0.59,24.47
6.250082015991211,2,3,3,3,-28.1,3.09,-8.08,-8.24,0.59,24.47
6.270081996917725,2,3,3,3,-24.95,-5.39,-8.220000000000001,-1.03,6.57,23.95
6.270081996917725,2,3,3,3,-24.95,-5.39,-8.220000000000001,-1.03,6.57,23.95
6.290081977844238,2,3,3,3,-20.47,-8.76,-1.24,11.23,8.49,24.77
6.290081977844238,2,3,3,3,-20.47,-8.76,-1.24,11.23,8.49,24.77
6.310081958770752,2,3,3,3,-7.3,-0.13,0.91,2.82,8.220000000000001,24.35
6.310081958770752,2,3,3,3,-7.3,-0.13,0.91,2.82,8.220000000000001,24.35
6.330081939697266,2,3,3,3,-3.86,-18.04,1.96,-0.72,1.88,18.07
6.330081939697266,2,3,3,3,-3.86,-18.04,1.96,-0.72,1.88,18.07
6.350081920623779,2,3,3,3,-1.96,-36.42,19.39,8.220000000000001,-4.35,-1.64
6.350081920623779,2,3,3,3,-1.96,-36.42,19.39,8.220000000000001,-4.35,-1.64
6.370081901550293,2,3,3,3,-5.4,-4.7,6.13,21.88,3.3,-1.62
6.370081901550293,2,3,3,3,-5.4,-4.7,6.13,21.88,3.3,-1.62
6.390082120895386,2,3,3,3,-3.43,6.51,0.65,-0.13,0.45,-4.72
6.390082120895386,2,3,3,3,-3.43,6.51,0.65,-0.13,0.45,-4.72
6.410082101821899,2,3,3,3,-0.24,-0.49,-1.01,-9.789999999999999,-0.13,-9.390000000000001
6.410082101821899,2,3,3,3,-0.24,-0.49,-1.01,-9.789999999999999,-0.13,-9.390000000000001
6.430082082748413,2,3,3,3,2.02,1.25,-3.03,-6.22,-2.52,-11.56
6.430082082748413,2,3,3,3,2.02,1.25,-3.03,-6.22,-2.52,-11.56
6.450082063674927,2,3,3,3,0.87,5.93,-1.42,-1.81,-1.54,-10.35
6.450082063674927,2,3,3,3,0.87,5.93,-1.42,-1.81,-1.54,-10.35
6.47008204460144,2,3,3,3,1.6,4.1,-2.32,-6.15,-2.93,-7.69
6.47008204460144,2,3,3,3,1.6,4.1,-2.32,-6.15,-2.93,-7.69
6.490082025527954,2,3,3,3,1.91,3.35,-2.22,-12.72,-3.98,-4.75
6.490082025527954,2,3,3,3,1.91,3.35,-2.22,-12.72,-3.98,-4.75
6.510082006454468,2,3,3,3,1.13,2.86,-2.22,-10.3,-2.85,-3.32
6.510082006454468,2,3,3,3,1.13,2.86,-2.22,-10.3,-2.85,-3.32
6.530081987380981,2,3,3,3,0.04,1.68,-2.23,-7.99,-1.9,-3.67
6.530081987380981,2,3,3,3,0.04,1.68,-2.23,-7.99,-1.9,-3.67
6.550081968307495,2,3,3,3,-0.16,-2.32,-1.89,-5.37,-0.36,-3.75
6.550081968307495,2,3,3,3,-0.16,-2.32,-1.89,-5.37,-0.36,-3.75
6.570081949234009,2,3,3,3,-0.12,-3.48,-1.18,5.24,-0.08,-2.26
6.570081949234009,2,3,3,3,-0.12,-3.48,-1.18,5.24,-0.08,-2.26
6.591082096099854,2,3,3,3,0.28,-2.52,-0.38,15.65,0.09,-0.06
6.591082096099854,2,3,3,3,0.28,-2.52,-0.38,15.65,0.09,-0.06
6.611082077026367,2,3,3,3,0.38,-1.73,-0.51,20.82,0.79,1.75
6.611082077026367,2,3,3,3,0.38,-1.73,-0.51,20.82,0.79,1.75
6.631082057952881,2,3,3,3,-0.7,-2.46,0.01,22.01,1.41,2.28
6.631082057952881,2,3,3,3,-0.7,-2.46,0.01,22.01,1.41,2.28
6.651082038879395,2,3,3,3,-1.13,-1.63,0.34,21.87,0.26,2.37
6.651082038879395,2,3,3,3,-1.13,-1.63,0.34,21.87,0.26,2.37
6.671082019805908,2,3,3,3,-1.18,0.8,0.86,13.56,2.4,1.37
6.671082019805908,2,3,3,3,-1.18,0.8,0.86,13.56,2.4,1.37
6.691082000732422,2,3,3,3,-2.01,-8.81,10.88,-5.44,-2.41,-1.06
6.691082000732422,2,3,3,3,-2.01,-8.81,10.88,-5.44,-2.41,-1.06
6.711081981658936,2,3,3,3,-14.87,-0.6899999999999999,1.55,-4.21,-11.21,-5.67
6.711081981658936,2,3,3,3,-14.87,-0.6899999999999999,1.55,-4.21,-11.21,-5.67
6.731081962585449,2,3,3,3,-28.57,8.57,1.37,-20.82,-10.28,-6.07
6.731081962585449,2,3,3,3,-28.57,8.57,1.37,-20.82,-10.28,-6.07
6.751081943511963,2,3,3,3,-12.95,2.97,-8.52,-21.56,5.53,-13.43
6.751081943511963,2,3,3,3,-12.95,2.97,-8.52,-21.56,5.53,-13.43
6.771081924438477,2,3,3,3,-20.21,-22.25,-4.98,-14.95,0.4,-20.62
6.771081924438477,2,3,3,3,-20.21,-22.25,-4.98,-14.95,0.4,-20.62
6.79108190536499,2,3,3,3,-39.08,-7.84,-1.02,29.36,-5.46,-14.42
6.79108190536499,2,3,3,3,-39.08,-7.84,-1.02,29.36,-5.46,-14.42
6.811082124710083,2,3,3,3,-8.109999999999999,34.81,-1.83,9.08,6.04,-12.65
6.811082124710083,2,3,3,3,-8.109999999999999,34.81,-1.83,9.08,6.04,-12.65
6.831082105636597,2,3,3,3,-11.42,25.55,1.46,-15.3,2.91,-11.07
6.831082105636597,2,3,3,3,-11.42,25.55,1.46,-15.3,2.91,-11.07
6.85108208656311,2,3,3,3,-10.63,4.23,-2.35,-29.12,-2.52,1.65
6.85108208656311,2,3,3,3,-10.63,4.23,-2.35,-29.12,-2.52,1.65
6.871082067489624,2,3,3,3,-13.04,-4.32,-3.59,-8.300000000000001,-3.23,5.65
6.871082067489624,2,3,3,3,-13.04,-4.32,-3.59,-8.300000000000001,-3.23,5.65
6.891082048416138,2,3,3,3,-21.29,-13.17,-3.3,0.16,-2.21,5.01
6.891082048416138,2,3,3,3,-21.29,-13.17,-3.3,0.16,-2.21,5.01
6.911082029342651,2,3,3,3,-18.01,-5.17,-1.27,20.79,-1.37,4.71
6.911082029342651,2,3,3,3,-18.01,-5.17,-1.27,20.79,-1.37,4.71
6.931082010269165,2,3,3,3,-9.220000000000001,3.76,-1.84,19.54,0.03,4.74
6.931082010269165,2,3,3,3,-9.220000000000001,3.76,-1.84,19.54,0.03,4.74
6.951081991195679,2,3,3,3,-8.08,5.15,-2.03,7.43,1.32,6.21
6.951081991195679,2,3,3,3,-8.08,5.15,-2.03,7.43,1.32,6.21
6.971081972122192,2,3,3,3,-9.83,1.67,-1.44,2.95,2.18,7.67
6.971081972122192,2,3,3,3,-9.83,1.67,-1.44,2.95,2.18,7.67
6.991081953048706,2,3,3,3,-8.74,1.84,-1.03,1.2,2.24,7.91
6.991081953048706,2,3,3,3,-8.74,1.84,-1.03,1.2,2.24,7.91
7.01108193397522,2,3,3,3,-8.539999999999999,1.9,-0.53,-6.36,3.75,6.28
7.01108193397522,2,3,3,3,-8.539999999999999,1.9,-0.53,-6.36,3.75,6.28
7.031081914901733,2,3,3,3,-9.220000000000001,-0.37,-0.19,-8.279999999999999,3.97,5.47
7.031081914901733,2,3,3,3,-9.220000000000001,-0.37,-0.19,-8.279999999999999,3.97,5.47
7.051082134246826,2,3,3,3,-8.449999999999999,-3.31,0.15,-8.380000000000001,4.82,3.72
7.051082134246826,2,3,3,3,-8.449999999999999,-3.31,0.15,-8.380000000000001,4.82,3.72
7.07108211517334,2,3,3,3,-7.23,-4.58,0.29,-4.46,4.23,3.97
7.07108211517334,2,3,3,3,-7.23,-4.58,0.29,-4.46,4.23,3.97
7.091082096099854,2,3,3,3,-7.09,-4.9,0.68,-2.22,3.61,3.86
7.091082096099854,2,3,3,3,-7.09,-4.9,0.68,-2.22,3.61,3.86
7.111082077026367,2,3,3,3,-7.85,-3.92,0.41,1.49,1.37,2.28
7.111082077026367,2,3,3,3,-7.85,-3.92,0.41,1.49,1.37,2.28
7.131082057952881,2,3,3,3,-8.960000000000001,-3.12,0.7,1.84,1.03,1.58
7.131082057952881,2,3,3,3,-8.960000000000001,-3.12,0.7,1.84,1.03,1.58
7.151082038879395,2,3,3,3,-9.19,-2.43,0.71,1.53,1.21,0.57
7.151082038879395,2,3,3,3,-9.19,-2.43,0.71,1.53,1.21,0.57
7.171082019805908,2,3,3,3,-9.6,-1.56,-0.58,1.77,0.75,0.18
7.171082019805908,2,3,3,3,-9.6,-1.56,-0.58,1.77,0.75,0.18
7.191082000732422,2,3,3,3,-9.56,-1.71,-0.65,2.42,0.6,0.25
7.191082000732422,2,3,3,3,-9.56,-1.71,-0.65,2.42,0.6,0.25
7.211081981658936,2,3,3,3,-9.630000000000001,-1.23,-1.19,3.85,0.26,0.63
7.211081981658936,2,3,3,3,-9.630000000000001,-1.23,-1.19,3.85,0.26,0.63
7.231081962585449,2,3,3,3,-10.01,0.09,-1.6,4.47,0.68,0.67
7.231081962585449,2,3,3,3,-10.01,0.09,-1.6,4.47,0.68,0.67
7.251081943511963,2,3,3,3,-10.45,1.6,-1.45,3.71,0.78,1.31
7.251081943511963,2,3,3,3,-10.45,1.6,-1.45,3.71,0.78,1.31
7.271081924438477,2,3,3,3,-10.58,2.06,-0.78,1.2,0.95,1.51
7.271081924438477,2,3,3,3,-10.58,2.06,-0.78,1.2,0.95,1.51
7.29108190536499,2,3,3,3,-9.970000000000001,1.5,-0.01,0.19,1.17,1.63
7.29108190536499,2,3,3,3,-9.970000000000001,1.5,-0.01,0.19,1.17,1.63
7.311082124710083,2,3,3,3,-9.880000000000001,0.9,-0.42,-2,1.58,1.59
7.311082124710083,2,3,3,3,-9.880000000000001,0.9,-0.42,-2,1.58,1.59
7.331082105636597,2,3,3,3,-9.710000000000001,-0.11,-0.67,-2.41,1.37,1.5
7.331082105636597,2,3,3,3,-9.710000000000001,-0.11,-0.67,-2.41,1.37,1.5
7.35108208656311,2,3,3,3,-9.4,-0.57,-1,-1.7,1.58,1.58
7.35108208656311,2,3,3,3,-9.4,-0.57,-1,-1.7,1.58,1.58
7.371082067489624,2,3,3,3,-9.43,-0.63,-1.38,-1.07,1.6,1.85
7.371082067489624,2,3,3,3,-9.43,-0.63,-1.38,-1.07,1.6,1.85
7.391082048416138,2,3,3,3,-9.57,-0.72,-0.98,-0.62,1.52,1.94
7.391082048416138,2,3,3,3,-9.57,-0.72,-0.98,-0.62,1.52,1.94
7.411082029342651,2,3,3,3,-9.52,-0.93,-0.84,1.48,1.37,2.04
7.411082029342651,2,3,3,3,-9.52,-0.93,-0.84,1.48,1.37,2.04
7.431082010269165,2,3,3,3,-9.56,-1.08,-0.66,2.22,1.18,2
7.431082010269165,2,3,3,3,-9.56,-1.08,-0.66,2.22,1.18,2
7.451081991195679,2,3,3,3,-9.57,-0.6899999999999999,-0.95,3.95,1.25,2.13
7.451081991195679,2,3,3,3,-9.57,-0.6899999999999999,-0.95,3.95,1.25,2.13
7.471081972122192,2,3,3,3,-9.65,-0.45,-1.1,3.97,0.72,2.23
7.471081972122192,2,3,3,3,-9.65,-0.45,-1.1,3.97,0.72,2.23
7.491081953048706,2,3,3,3,-9.68,-0.23,-0.68,3.9,0.63,2.19
7.491081953048706,2,3,3,3,-9.68,-0.23,-0.68,3.9,0.63,2.19
7.51108193397522,2,3,3,3,-9.68,-0.11,-0.5,2.37,0.5600000000000001,1.74
7.51108193397522,2,3,3,3,-9.68,-0.11,-0.5,2.37,0.5600000000000001,1.74
7.531081914901733,2,3,3,3,-9.609999999999999,0.05,-0.53,1.94,0.52,1.5
7.531081914901733,2,3,3,3,-9.609999999999999,0.05,-0.53,1.94,0.52,1.5
7.551082134246826,2,3,3,3,-9.51,-0.67,-0.32,0.26,0.26,0.75
7.551082134246826,2,3,3,3,-9.51,-0.67,-0.32,0.26,0.26,0.75
7.57108211517334,2,3,3,3,-9.43,-0.66,-0.75,-0.25,-0.04,0.38
7.57108211517334,2,3,3,3,-9.43,-0.66,-0.75,-0.25,-0.04,0.38
7.591082096099854,2,3,3,3,-9.41,-0.35,-1.1,-0.49,-0.07000000000000001,0.32
7.591082096099854,2,3,3,3,-9.41,-0.35,-1.1,-0.49,-0.07000000000000001,0.32
7.612082004547119,2,3,3,3,-9.529999999999999,-0.01,-0.99,-1.64,0.59,0.5
7.612082004547119,2,3,3,3,-9.529999999999999,-0.01,-0.99,-1.64,0.59,0.5
7.632081985473633,2,3,3,3,-9.66,-0.48,-1,-1.63,0.31,0.5
7.632081985473633,2,3,3,3,-9.66,-0.48,-1,-1.63,0.31,0.5
7.652081966400146,2,3,3,3,-9.890000000000001,-0.31,-1.15,-0.39,0.26,0.53
7.652081966400146,2,3,3,3,-9.890000000000001,-0.31,-1.15,-0.39,0.26,0.53
7.67208194732666,2,3,3,3,-10.11,0.47,-1.54,0.61,-0.16,0.9
7.67208194732666,2,3,3,3,-10.11,0.47,-1.54,0.61,-0.16,0.9
7.692081928253174,2,3,3,3,-9.74,0.51,-1.43,0.95,-0.45,0.96
7.692081928253174,2,3,3,3,-9.74,0.51,-1.43,0.95,-0.45,0.96
7.712081909179688,2,3,3,3,-9.130000000000001,-0.33,-1.23,1.37,-0.28,0.86
7.712081909179688,2,3,3,3,-9.130000000000001,-0.33,-1.23,1.37,-0.28,0.86
7.73208212852478,2,3,3,3,-9.09,-0.89,-0.92,1.37,-0.28,0.86
7.73208212852478,2,3,3,3,-9.09,-0.89,-0.92,1.37,-0.28,0.86
7.752082109451294,2,3,3,3,-9.390000000000001,-1.47,-0.18,1.41,-0.68,0.26
7.752082109451294,2,3,3,3,-9.390000000000001,-1.47,-0.18,1.41,-0.68,0.26
7.772082090377808,2,3,3,3,-9.289999999999999,-1.99,0.12,0.41,-1.63,-1.03
7.772082090377808,2,3,3,3,-9.289999999999999,-1.99,0.12,0.41,-1.63,-1.03
7.792082071304321,2,3,3,3,-8.59,-4.89,1.51,-0.05,-2.57,-1.99
7.792082071304321,2,3,3,3,-8.59,-4.89,1.51,-0.05,-2.57,-1.99
7.812082052230835,2,3,3,3,-8.359999999999999,-6.66,1.63,3.97,-3.85,-5.8
7.812082052230835,2,3,3,3,-8.359999999999999,-6.66,1.63,3.97,-3.85,-5.8
7.832082033157349,2,3,3,3,-7.3,-2.89,0.71,6.84,-1.85,-5.35
7.832082033157349,2,3,3,3,-7.3,-2.89,0.71,6.84,-1.85,-5.35
7.852082014083862,2,3,3,3,-8.25,-1.16,1.08,6.7,-4.41,-5.45
7.852082014083862,2,3,3,3,-8.25,-1.16,1.08,6.7,-4.41,-5.45
7.872081995010376,2,3,3,3,-8.68,-1.42,1.69,0.61,-5.75,-7.5
7.872081995010376,2,3,3,3,-8.68,-1.42,1.69,0.61,-5.75,-7.5
7.89208197593689,2,3,3,3,-8.19,-1.58,0.77,-0.91,-4.62,-10.47
7.89208197593689,2,3,3,3,-8.19,-1.58,0.77,-0.91,-4.62,-10.47
7.912081956863403,2,3,3,3,-8.65,-0.55,0.09,0.22,-3.94,-11.7
7.912081956863403,2,3,3,3,-8.65,-0.55,0.09,0.22,-3.94,-11.7
7.932081937789917,2,3,3,3,-8.800000000000001,-0.3,0.21,-1.78,-5.19,-11.99
7.932081937789917,2,3,3,3,-8.800000000000001,-0.3,0.21,-1.78,-5.19,-11.99
7.952081918716431,2,3,3,3,-10.72,-0.05,-1,-4.2,-5.27,-14.16
7.952081918716431,2,3,3,3,-10.72,-0.05,-1,-4.2,-5.27,-14.16
7.972081899642944,2,3,3,3,-12.63,2.9,-0.99,-4.98,-5.58,-12.78
7.972081899642944,2,3,3,3,-12.63,2.9,-0.99,-4.98,-5.58,-12.78
7.992082118988037,2,3,3,3,-12.11,2.34,-0.28,-7.96,-0.86,-12.53
7.992082118988037,2,3,3,3,-12.11,2.34,-0.28,-7.96,-0.86,-12.53
8.012082099914551,2,3,3,3,-11.01,1.13,-2.12,-7.91,-0.67,-12.92
8.012082099914551,2,3,3,3,-11.01,1.13,-2.12,-7.91,-0.67,-12.92
8.032082080841064,2,3,3,3,-11.59,1.07,-2.72,-6.36,0.67,-11.95
8.032082080841064,2,3,3,3,-11.59,1.07,-2.72,-6.36,0.67,-11.95
8.052082061767578,2,3,3,3,-14.45,1.22,-3.56,-2.61,-1.28,-5.4
8.052082061767578,2,3,3,3,-14.45,1.22,-3.56,-2.61,-1.28,-5.4
8.072082042694092,2,3,3,3,-14.32,4.51,-4.27,0.34,-1.96,-0.9399999999999999
8.072082042694092,2,3,3,3,-14.32,4.51,-4.27,0.34,-1.96,-0.9399999999999999
8.092082023620605,2,3,3,3,-14.7,4.68,-4.42,-0.54,-1.1,3.44
8.092082023620605,2,3,3,3,-14.7,4.68,-4.42,-0.54,-1.1,3.44
8.112082004547119,2,3,3,3,-17.79,0.88,-3.55,-3.19,-0.08,6.59
8.112082004547119,2,3,3,3,-17.79,0.88,-3.55,-3.19,-0.08,6.59
8.132081985473633,2,3,3,3,-19.99,2.45,-2.55,-2.88,0.1,8.15
8.132081985473633,2,3,3,3,-19.99,2.45,-2.55,-2.88,0.1,8.15
8.152081966400146,2,3,3,3,-22.86,7.54,-1.58,-2.54,-0.64,15.54
8.152081966400146,2,3,3,3,-22.86,7.54,-1.58,-2.54,-0.64,15.54
8.17208194732666,2,3,3,3,-24.56,12.26,-2.46,-4.74,-0.34,20.67
8.17208194732666,2,3,3,3,-24.56,12.26,-2.46,-4.74,-0.34,20.67
8.192081928253174,2,3,3,3,-25.38,11.92,-3.84,-9.75,1.64,25.16
8.192081928253174,2,3,3,3,-25.38,11.92,-3.84,-9.75,1.64,25.16
8.212081909179688,2,3,3,3,-26.85,-8.91,-4.75,-11.4,5.45,26.33
8.212081909179688,2,3,3,3,-26.85,-8.91,-4.75,-11.4,5.45,26.33
8.23208212852478,2,3,3,2,-24.26,-13.05,-2.99,1.53,8.029999999999999,23.95
8.23208212852478,2,3,3,2,-24.26,-13.05,-2.99,1.53,8.029999999999999,23.95
8.252082109451294,2,3,3,2,-9.369999999999999,-4.35,2.53,14.8,9.85,21.1
8.252082109451294,2,3,3,2,-9.369999999999999,-4.35,2.53,14.8,9.85,21.1
8.272082090377808,2,3,3,2,-2.32,-21.87,7.43,3.53,4.45,19.57
8.272082090377808,2,3,3,2,-2.32,-21.87,7.43,3.53,4.45,19.57
8.292082071304321,2,3,3,2,-3.71,-39.08,19.62,2.91,0.19,7.11
8.292082071304321,2,3,3,2,-3.71,-39.08,19.62,2.91,0.19,7.11
8.312082052230835,2,3,3,2,-5.47,3.76,6.97,13.51,1.75,0.95
8.312082052230835,2,3,3,2,-5.47,3.76,6.97,13.51,1.75,0.95
8.332082033157349,2,3,3,2,-2.22,10.38,0.36,-0.7,0.79,-3.58
8.332082033157349,2,3,3,2,-2.22,10.38,0.36,-0.7,0.79,-3.58
8.352082014083862,2,3,3,2,1.12,-0.98,-2.57,-12.69,-4.7,-9.5
8.352082014083862,2,3,3,2,1.12,-0.98,-2.57,-12.69,-4.7,-9.5
8.372081995010376,2,3,3,2,3.45,2.49,-4.89,-10.16,-5.11,-10.92
8.372081995010376,2,3,3,2,3.45,2.49,-4.89,-10.16,-5.11,-10.92
8.39208197593689,2,3,3,2,2.07,4.58,-3.99,-0.37,-2.33,-7.49
8.39208197593689,2,3,3,2,2.07,4.58,-3.99,-0.37,-2.33,-7.49
8.412081956863403,2,3,3,2,0.4,2.85,-1.63,-0.4,-3.9,-4.85
8.412081956863403,2,3,3,2,0.4,2.85,-1.63,-0.4,-3.9,-4.85
8.432081937789917,2,3,3,2,-0.23,1.64,-2.2,-4.3,-2.72,-3.56
8.432081937789917,2,3,3,2,-0.23,1.64,-2.2,-4.3,-2.72,-3.56
8.452081918716431,2,3,3,2,1.18,0.11,-1.79,-6.37,-3.63,-2.68
8.452081918716431,2,3,3,2,1.18,0.11,-1.79,-6.37,-3.63,-2.68
8.472081899642944,2,3,3,2,0.75,-0.38,-1.39,-2.99,-2.82,-2.8
8.472081899642944,2,3,3,2,0.75,-0.38,-1.39,-2.99,-2.82,-2.8
8.492082118988037,2,3,3,2,0.64,-0.8100000000000001,-1.44,1.88,-1.35,-2.16
8.492082118988037,2,3,3,2,0.64,-0.8100000000000001,-1.44,1.88,-1.35,-2.16
8.512082099914551,2,3,3,2,0.63,-1.75,-1.31,6.75,-0.33,-1.88
8.512082099914551,2,3,3,2,0.63,-1.75,-1.31,6.75,-0.33,-1.88
8.532082080841064,2,3,3,2,0.39,-2.11,-1.12,10.5,0.18,-2.26
8.532082080841064,2,3,3,2,0.39,-2.11,-1.12,10.5,0.18,-2.26
8.552082061767578,2,3,3,2,-0.71,-0.92,-0.63,12.99,0.1,-2.54
8.552082061767578,2,3,3,2,-0.71,-0.92,-0.63,12.99,0.1,-2.54
8.572082042694092,2,3,3,2,-1.35,1.03,0.29,16.22,-0.48,-0.62
8.572082042694092,2,3,3,2,-1.35,1.03,0.29,16.22,-0.48,-0.62
8.592082023620605,2,3,3,1,-0.78,0.13,0.9399999999999999,16.93,-1.45,0.92
8.592082023620605,2,3,3,1,-0.78,0.13,0.9399999999999999,16.93,-1.45,0.92
8.612082004547119,2,3,3,1,-2.62,-5.05,3.12,16.48,1.1,0.74
8.612082004547119,2,3,3,1,-2.62,-5.05,3.12,16.48,1.1,0.74
8.633081912994385,2,3,3,1,-8.710000000000001,-17.63,12.29,-1.81,1.09,-6.88
8.633081912994385,2,3,3,1,-8.710000000000001,-17.63,12.29,-1.81,1.09,-6.88
8.653082132339478,2,3,3,1,-18.23,36.19,-4.32,1.18,-2.83,-0.89
8.653082132339478,2,3,3,1,-18.23,36.19,-4.32,1.18,-2.83,-0.89
8.673082113265991,2,3,3,1,-38.4,-1.45,-9.890000000000001,-34.21,-15.19,-6.01
8.673082113265991,2,3,3,1,-38.4,-1.45,-9.890000000000001,-34.21,-15.19,-6.01
8.693082094192505,2,3,3,1,-7.98,-10.95,-1.68,-25.81,7.94,-15.23
8.693082094192505,2,3,3,1,-7.98,-10.95,-1.68,-25.81,7.94,-15.23
8.713082075119019,2,3,3,1,-37.22,-19.57,-5.84,-11.81,3.57,-17.93
8.713082075119019,2,3,3,1,-37.22,-19.57,-5.84,-11.81,3.57,-17.93
8.733082056045532,2,3,3,1,-33.38,10.64,-2.97,13.24,-1.28,-9.449999999999999
8.733082056045532,2,3,3,1,-33.38,10.64,-2.97,13.24,-1.28,-9.449999999999999
8.753082036972046,2,3,3,1,-14.93,23.38,0.66,24.3,3.99,-6.09
8.753082036972046,2,3,3,1,-14.93,23.38,0.66,24.3,3.99,-6.09
8.77308201789856,2,3,3,1,-16.87,7.74,1.38,-4.44,3.59,-4.64
8.77308201789856,2,3,3,1,-16.87,7.74,1.38,-4.44,3.59,-4.64
8.793081998825073,2,3,3,1,-18.59,-1.76,0.55,-12.11,0.2,-1.12
8.793081998825073,2,3,3,1,-18.59,-1.76,0.55,-12.11,0.2,-1.12
8.813081979751587,2,3,3,1,-17.4,0.92,-0.3,-0.32,-0.9399999999999999,2.02
8.813081979751587,2,3,3,1,-17.4,0.92,-0.3,-0.32,-0.9399999999999999,2.02
8.833081960678101,2,3,3,1,-13.22,4.39,-2.32,7.45,-1,4.98
8.833081960678101,2,3,3,1,-13.22,4.39,-2.32,7.45,-1,4.98
8.853081941604614,2,3,3,1,-11.63,3.7,-2.84,7.26,-0.21,6.18
8.853081941604614,2,3,3,1,-11.63,3.7,-2.84,7.26,-0.21,6.18
8.873081922531128,2,3,3,1,-10.58,0.42,-2.04,6.19,0.99,8.18
8.873081922531128,2,3,3,1,-10.58,0.42,-2.04,6.19,0.99,8.18
8.893081903457642,2,3,3,1,-8.94,1.93,-1.92,7.16,1.95,10.04
8.893081903457642,2,3,3,1,-8.94,1.93,-1.92,7.16,1.95,10.04
8.913082122802734,2,3,3,1,-6.92,4.25,-2.01,4.36,2.99,10.33
8.913082122802734,2,3,3,1,-6.92,4.25,-2.01,4.36,2.99,10.33
8.933082103729248,2,3,3,1,-7.22,3.49,-1.79,-1.96,4.77,8.99
8.933082103729248,2,3,3,1,-7.22,3.49,-1.79,-1.96,4.77,8.99
8.953082084655762,2,3,3,1,-6.77,-0.15,-1.03,-7.22,5.87,6.7
8.953082084655762,2,3,3,1,-6.77,-0.15,-1.03,-7.22,5.87,6.7
8.973082065582275,2,3,3,1,-6.46,-2.6,-0.52,-9.43,5.07,6.54
8.973082065582275,2,3,3,1,-6.46,-2.6,-0.52,-9.43,5.07,6.54
8.993082046508789,2,3,3,1,-5.28,-4.54,-0.04,-6.66,3.38,7.22
8.993082046508789,2,3,3,1,-5.28,-4.54,-0.04,-6.66,3.38,7.22
9.013082027435303,2,3,3,1,-5.22,-3.99,0.52,0.68,3.23,7.06
9.013082027435303,2,3,3,1,-5.22,-3.99,0.52,0.68,3.23,7.06
9.033082008361816,2,3,3,1,-6.51,-2.2,0.21,6.43,3.22,6.48
9.033082008361816,2,3,3,1,-6.51,-2.2,0.21,6.43,3.22,6.48
9.05308198928833,2,3,3,1,-7.84,-1.63,-0.17,8.630000000000001,2.37,5.55
9.05308198928833,2,3,3,1,-7.84,-1.63,-0.17,8.630000000000001,2.37,5.55
9.073081970214844,2,3,3,1,-9.92,-1.68,-1.59,6.72,1.5,4.57
9.073081970214844,2,3,3,1,-9.92,-1.68,-1.59,6.72,1.5,4.57
9.093081951141357,2,3,3,2,-11.11,-1.24,-1.31,3.79,1.92,2.6
9.093081951141357,2,3,3,2,-11.11,-1.24,-1.31,3.79,1.92,2.6
9.113081932067871,2,3,3,2,-12.95,-1.03,-0.07000000000000001,3.12,2.14,1.2
9.113081932067871,2,3,3,2,-12.95,-1.03,-0.07000000000000001,3.12,2.14,1.2
9.133081912994385,2,3,3,2,-11.81,0.75,0.8100000000000001,1.97,0.84,0.98
9.133081912994385,2,3,3,2,-11.81,0.75,0.8100000000000001,1.97,0.84,0.98
9.153082132339478,2,3,3,2,-10.63,2.56,-0.3,-0.19,1.22,1.64
9.153082132339478,2,3,3,2,-10.63,2.56,-0.3,-0.19,1.22,1.64
9.173082113265991,2,3,3,2,-10.11,4.49,-2.36,-1.75,2.08,1.96
9.173082113265991,2,3,3,2,-10.11,4.49,-2.36,-1.75,2.08,1.96
9.193082094192505,2,3,3,2,-9.609999999999999,4.08,-2.91,-3.08,2.46,2.88
9.193082094192505,2,3,3,2,-9.609999999999999,4.08,-2.91,-3.08,2.46,2.88
9.213082075119019,2,3,3,2,-8.57,2.93,-2.36,-3.17,2.42,3.71
9.213082075119019,2,3,3,2,-8.57,2.93,-2.36,-3.17,2.42,3.71
9.233082056045532,2,3,3,2,-8.390000000000001,1.66,-1.44,-3.05,2.18,3.85
9.233082056045532,2,3,3,2,-8.390000000000001,1.66,-1.44,-3.05,2.18,3.85
9.253082036972046,2,3,3,2,-9.130000000000001,-0.62,-0.64,-2.78,0.43,3.92
9.253082036972046,2,3,3,2,-9.130000000000001,-0.62,-0.64,-2.78,0.43,3.92
9.27308201789856,2,3,3,2,-9.789999999999999,-1.43,0.02,-1.67,-0.18,4.17
9.27308201789856,2,3,3,2,-9.789999999999999,-1.43,0.02,-1.67,-0.18,4.17
9.293081998825073,2,3,3,2,-10.61,-2.26,-0.74,2.02,0.33,4.89
9.293081998825073,2,3,3,2,-10.61,-2.26,-0.74,2.02,0.33,4.89
9.313081979751587,2,3,3,2,-9.85,-2.35,-0.66,6.97,0.59,5.28
9.313081979751587,2,3,3,2,-9.85,-2.35,-0.66,6.97,0.59,5.28
9.333081960678101,2,3,3,3,-9.67,-2.38,0.39,9.460000000000001,0.27,4.85
9.333081960678101,2,3,3,3,-9.67,-2.38,0.39,9.460000000000001,0.27,4.85
9.353081941604614,2,3,3,3,-10.21,-1.42,0,9.81,-0.37,2.99
9.353081941604614,2,3,3,3,-10.21,-1.42,0,9.81,-0.37,2.99
9.373081922531128,2,3,3,3,-10.36,0.36,-0.41,6.23,-1.02,1.01
9.373081922531128,2,3,3,3,-10.36,0.36,-0.41,6.23,-1.02,1.01
9.393081903457642,2,3,3,3,-10.05,1.81,-1.02,1.83,-0.07000000000000001,-0.32
9.393081903457642,2,3,3,3,-10.05,1.81,-1.02,1.83,-0.07000000000000001,-0.32
9.413082122802734,2,3,3,3,-8.970000000000001,2.53,-1.63,-2.63,1,-1.24
9.413082122802734,2,3,3,3,-8.970000000000001,2.53,-1.63,-2.63,1,-1.24
9.433082103729248,2,3,3,3,-9.23,2.75,-1.78,-4.7,1.32,-1.69
9.433082103729248,2,3,3,3,-9.23,2.75,-1.78,-4.7,1.32,-1.69
9.453082084655762,2,3,3,3,-9.25,1.48,-1.67,-5.82,0.61,-1.48
9.453082084655762,2,3,3,3,-9.25,1.48,-1.67,-5.82,0.61,-1.48
9.473082065582275,2,3,3,3,-9.43,0.64,-1.52,-4.79,0.35,-0.75
9.473082065582275,2,3,3,3,-9.43,0.64,-1.52,-4.79,0.35,-0.75
9.493082046508789,2,3,3,3,-9.77,-0.06,-1.32,-2.12,-0.23,-0.04
9.493082046508789,2,3,3,3,-9.77,-0.06,-1.32,-2.12,-0.23,-0.04
9.513082027435303,2,3,3,3,-9.77,0.01,-1.18,1.47,-0.72,0.74
9.513082027435303,2,3,3,3,-9.77,0.01,-1.18,1.47,-0.72,0.74
9.533082008361816,2,3,3,3,-9.710000000000001,0.96,-1.3,5.29,-0.8,1.7
9.533082008361816,2,3,3,3,-9.710000000000001,0.96,-1.3,5.29,-0.8,1.7
9.55308198928833,2,3,3,3,-9.59,1.47,-1.55,7.23,-0.87,2.25
9.55308198928833,2,3,3,3,-9.59,1.47,-1.55,7.23,-0.87,2.25
9.573081970214844,2,3,3,3,-9.41,2.09,-1.39,6.83,-0.77,2.15
9.573081970214844,2,3,3,3,-9.41,2.09,-1.39,6.83,-0.77,2.15
9.593081951141357,2,3,3,3,-9.48,2.23,-1.29,4.71,-0.53,1.66
9.593081951141357,2,3,3,3,-9.48,2.23,-1.29,4.71,-0.53,1.66
9.613081932067871,2,3,3,3,-9.710000000000001,2.07,-1.41,1.68,-0.21,1.04
9.613081932067871,2,3,3,3,-9.710000000000001,2.07,-1.41,1.68,-0.21,1.04
9.633081912994385,2,3,3,3,-9.67,1.77,-1.27,-1.26,0.1,0.39
9.633081912994385,2,3,3,3,-9.67,1.77,-1.27,-1.26,0.1,0.39
9.654082059860229,2,3,3,3,-9.390000000000001,1.49,-1.11,-3.62,0.05,-0.07000000000000001
9.654082059860229,2,3,3,3,-9.390000000000001,1.49,-1.11,-3.62,0.05,-0.07000000000000001
9.674082040786743,2,3,3,3,-9.52,1.23,-1.25,-3.72,0.12,-0.16
9.674082040786743,2,3,3,3,-9.52,1.23,-1.25,-3.72,0.12,-0.16
9.694082021713257,2,3,3,3,-9.73,1.24,-1.55,-2.55,-0.27,0.12
9.694082021713257,2,3,3,3,-9.73,1.24,-1.55,-2.55,-0.27,0.12
9.714082002639771,2,3,3,3,-9.5,1.21,-1.79,-0.2,-0.66,0.63
9.714082002639771,2,3,3,3,-9.5,1.21,-1.79,-0.2,-0.66,0.63
9.734081983566284,2,3,3,3,-9.41,1.5,-1.49,1.97,-0.92,1.11
9.734081983566284,2,3,3,3,-9.41,1.5,-1.49,1.97,-0.92,1.11
9.754081964492798,2,3,3,3,-9.33,1.76,-1.39,3.1,-1.5,1.49
9.754081964492798,2,3,3,3,-9.33,1.76,-1.39,3.1,-1.5,1.49
9.774081945419312,2,3,3,3,-9.449999999999999,1.86,-1.26,3.34,-1.56,1.53
9.774081945419312,2,3,3,3,-9.449999999999999,1.86,-1.26,3.34,-1.56,1.53
9.794081926345825,2,3,3,3,-9.51,1.99,-1.35,2.83,-1,1.47
9.794081926345825,2,3,3,3,-9.51,1.99,-1.35,2.83,-1,1.47
9.814081907272339,2,3,3,3,-9.49,2.18,-1.44,1.31,-0.74,1.33
9.814081907272339,2,3,3,3,-9.49,2.18,-1.44,1.31,-0.74,1.33
9.834082126617432,2,3,3,3,-9.66,2.04,-0.96,-0.01,-0.64,1.14
9.834082126617432,2,3,3,3,-9.66,2.04,-0.96,-0.01,-0.64,1.14
9.854082107543945,2,3,3,3,-9.43,1.43,-1.46,-1.62,-0.8100000000000001,1.06
9.854082107543945,2,3,3,3,-9.43,1.43,-1.46,-1.62,-0.8100000000000001,1.06
9.874082088470459,2,3,3,3,-9.81,1.47,-1.13,-1.59,0.11,0.39
9.874082088470459,2,3,3,3,-9.81,1.47,-1.13,-1.59,0.11,0.39
9.894082069396973,2,3,3,3,-9.619999999999999,1.61,-0.97,-1.09,0.07000000000000001,-0.01
9.894082069396973,2,3,3,3,-9.619999999999999,1.61,-0.97,-1.09,0.07000000000000001,-0.01
9.914082050323486,2,3,3,3,-9.49,1.86,-1.35,-0.63,0.27,0.32
9.914082050323486,2,3,3,3,-9.49,1.86,-1.35,-0.63,0.27,0.32
9.93408203125,2,3,3,3,-9.42,1.72,-1.36,-0.25,0.03,0.5600000000000001
9.93408203125,2,3,3,3,-9.42,1.72,-1.36,-0.25,0.03,0.5600000000000001
9.954082012176514,2,3,3,3,-9.4,1.79,-1.39,0.64,-0.14,0.53
9.954082012176514,2,3,3,3,-9.4,1.79,-1.39,0.64,-0.14,0.53
9.974081993103027,2,3,3,3,-9.58,1.98,-1.36,1.02,-0.16,0.59
9.974081993103027,2,3,3,3,-9.58,1.98,-1.36,1.02,-0.16,0.59
9.994081974029541,2,3,3,3,-9.539999999999999,2.15,-1.21,0.78,-0.1,0.66
9.994081974029541,2,3,3,3,-9.539999999999999,2.15,-1.21,0.78,-0.1,0.66
10.01408195495605,2,3,3,3,-9.619999999999999,2.04,-1.27,0.34,0.08,0.53
10.01408195495605,2,3,3,3,-9.619999999999999,2.04,-1.27,0.34,0.08,0.53
10.03408193588257,2,3,3,3,-9.57,1.9,-0.97,-0.27,0.08,0.05
10.03408193588257,2,3,3,3,-9.57,1.9,-0.97,-0.27,0.08,0.05
10.05408191680908,2,3,3,3,-9.44,1.72,-1.19,-0.79,0.27,-0.15
10.05408191680908,2,3,3,3,-9.44,1.72,-1.19,-0.79,0.27,-0.15
10.07408213615417,2,3,3,3,-9.699999999999999,1.76,-1.21,-1.12,0.61,-0.16
10.07408213615417,2,3,3,3,-9.699999999999999,1.76,-1.21,-1.12,0.61,-0.16
10.09408211708069,2,3,3,3,-9.609999999999999,1.72,-1.22,-1.27,0.37,-0.25
10.09408211708069,2,3,3,3,-9.609999999999999,1.72,-1.22,-1.27,0.37,-0.25
10.1140820980072,2,3,3,3,-9.279999999999999,1.36,-1.57,-1.33,0.4,-0.21
10.1140820980072,2,3,3,3,-9.279999999999999,1.36,-1.57,-1.33,0.4,-0.21
10.13408207893372,2,3,3,3,-9.81,1.54,-1.37,-0.88,0.45,-0.12
10.13408207893372,2,3,3,3,-9.81,1.54,-1.37,-0.88,0.45,-0.12
10.15408205986023,2,3,3,3,-9.51,1.63,-1.31,-0.14,-0.04,-0.22
10.15408205986023,2,3,3,3,-9.51,1.63,-1.31,-0.14,-0.04,-0.22
10.17408204078674,2,3,3,3,-9.380000000000001,1.57,-1.33,0.03,0.13,-0.22
10.17408204078674,2,3,3,3,-9.380000000000001,1.57,-1.33,0.03,0.13,-0.22
10.19408202171326,2,3,3,3,-9.68,1.77,-1.36,0.24,0.05,-0.23
10.19408202171326,2,3,3,3,-9.68,1.77,-1.36,0.24,0.05,-0.23
10.21408200263977,2,3,3,3,-9.529999999999999,1.93,-1.38,0.45,0,-0.05
10.21408200263977,2,3,3,3,-9.529999999999999,1.93,-1.38,0.45,0,-0.05
10.23408198356628,2,3,3,3,-9.380000000000001,1.72,-1.31,0,0.18,0.26
10.23408198356628,2,3,3,3,-9.380000000000001,1.72,-1.31,0,0.18,0.26
10.2540819644928,2,3,3,3,-9.42,1.59,-1.36,-0.04,0.22,0.47
10.2540819644928,2,3,3,3,-9.42,1.59,-1.36,-0.04,0.22,0.47
10.27408194541931,2,3,3,3,-9.51,1.66,-1.31,0.11,0.37,0.59
10.27408194541931,2,3,3,3,-9.51,1.66,-1.31,0.11,0.37,0.59
10.29408192634583,2,3,3,3,-9.58,1.69,-1.35,-0.01,0.48,0.7
10.29408192634583,2,3,3,3,-9.58,1.69,-1.35,-0.01,0.48,0.7
10.31408190727234,2,3,3,3,-9.57,1.77,-1.42,0.06,0.26,0.61
10.31408190727234,2,3,3,3,-9.57,1.77,-1.42,0.06,0.26,0.61
10.33408212661743,2,3,3,3,-9.56,1.83,-1.41,0.02,0.18,0.72
10.33408212661743,2,3,3,3,-9.56,1.83,-1.41,0.02,0.18,0.72
10.35408210754395,2,3,3,3,-9.449999999999999,1.78,-1.5,0.03,0.17,0.79
10.35408210754395,2,3,3,3,-9.449999999999999,1.78,-1.5,0.03,0.17,0.79
10.37408208847046,2,3,3,3,-9.369999999999999,1.77,-1.32,0.13,0.25,0.92
10.37408208847046,2,3,3,3,-9.369999999999999,1.77,-1.32,0.13,0.25,0.92
10.39408206939697,2,3,3,3,-9.4,1.7,-1.38,0.25,0.49,1.01
10.39408206939697,2,3,3,3,-9.4,1.7,-1.38,0.25,0.49,1.01
10.41408205032349,2,3,3,3,-9.58,1.76,-1.52,0.43,0.67,1.14
10.41408205032349,2,3,3,3,-9.58,1.76,-1.52,0.43,0.67,1.14
10.43408203125,2,3,3,3,-9.699999999999999,1.96,-1.45,0.55,0.42,0.98
10.43408203125,2,3,3,3,-9.699999999999999,1.96,-1.45,0.55,0.42,0.98
10.45408201217651,2,3,3,3,-9.49,1.99,-1.46,0.45,0.26,0.79
10.45408201217651,2,3,3,3,-9.49,1.99,-1.46,0.45,0.26,0.79
10.47408199310303,2,3,3,3,-9.449999999999999,1.8,-1.49,0.2,0.37,0.75
10.47408199310303,2,3,3,3,-9.449999999999999,1.8,-1.49,0.2,0.37,0.75
10.49408197402954,2,3,3,3,-9.48,1.63,-1.42,0.18,0.17,0.78
10.49408197402954,2,3,3,3,-9.48,1.63,-1.42,0.18,0.17,0.78
10.51408195495605,2,3,3,3,-9.5,1.67,-1.45,0.39,-0.03,0.76
10.51408195495605,2,3,3,3,-9.5,1.67,-1.45,0.39,-0.03,0.76
10.53408193588257,2,3,3,3,-9.51,1.79,-1.35,0.59,-0.18,0.64
10.53408193588257,2,3,3,3,-9.51,1.79,-1.35,0.59,-0.18,0.64
10.55408191680908,2,3,3,3,-9.56,1.96,-1.54,0.63,-0.05,0.65
10.55408191680908,2,3,3,3,-9.56,1.96,-1.54,0.63,-0.05,0.65
10.57408213615417,2,3,3,3,-9.51,2.05,-1.47,0.5,-0.04,0.65
10.57408213615417,2,3,3,3,-9.51,2.05,-1.47,0.5,-0.04,0.65
10.59408211708069,2,3,3,3,-9.449999999999999,1.98,-1.42,0.53,-0.03,0.51
10.59408211708069,2,3,3,3,-9.449999999999999,1.98,-1.42,0.53,-0.03,0.51
10.6140820980072,2,3,3,3,-9.43,2.03,-1.47,0.45,-0.07000000000000001,0.39
10.6140820980072,2,3,3,3,-9.43,2.03,-1.47,0.45,-0.07000000000000001,0.39
10.63408207893372,2,3,3,3,-9.449999999999999,2.07,-1.45,0.31,-0.08,0.43
10.63408207893372,2,3,3,3,-9.449999999999999,2.07,-1.45,0.31,-0.08,0.43
10.65408205986023,2,3,3,3,-9.42,2.16,-1.54,0.27,-0.04,0.43
10.65408205986023,2,3,3,3,-9.42,2.16,-1.54,0.27,-0.04,0.43
10.67408204078674,2,3,3,3,-9.44,2.11,-1.41,0.31,-0.07000000000000001,0.43
10.67408204078674,2,3,3,3,-9.44,2.11,-1.41,0.31,-0.07000000000000001,0.43
10.69508194923401,2,3,3,3,-9.5,2.1,-1.47,0.34,-0.05,0.34
10.69508194923401,2,3,3,3,-9.5,2.1,-1.47,0.34,-0.05,0.34
10.71508193016052,2,3,3,3,-9.43,2.05,-1.44,0.19,-0.14,0.31
10.71508193016052,2,3,3,3,-9.43,2.05,-1.44,0.19,-0.14,0.31
10.73508191108704,2,3,3,3,-9.449999999999999,2.07,-1.37,0.18,-0.13,0.22
10.73508191108704,2,3,3,3,-9.449999999999999,2.07,-1.37,0.18,-0.13,0.22
10.75508213043213,2,3,3,3,-9.470000000000001,2.11,-1.44,0.1,-0.19,0.26
10.75508213043213,2,3,3,3,-9.470000000000001,2.11,-1.44,0.1,-0.19,0.26
10.77508211135864,2,3,3,3,-9.390000000000001,2.11,-1.4,0.01,-0.08,0.22
10.77508211135864,2,3,3,3,-9.390000000000001,2.11,-1.4,0.01,-0.08,0.22
10.79508209228516,2,3,3,3,-9.49,2.13,-1.44,-0.14,0.08,0.14
10.79508209228516,2,3,3,3,-9.49,2.13,-1.44,-0.14,0.08,0.14
10.81508207321167,2,3,3,3,-9.51,2.11,-1.46,-0.23,-0.02,0.12
10.81508207321167,2,3,3,3,-9.51,2.11,-1.46,-0.23,-0.02,0.12
10.83508205413818,2,3,3,3,-9.44,2.08,-1.39,-0.37,0.06,0.1
10.83508205413818,2,3,3,3,-9.44,2.08,-1.39,-0.37,0.06,0.1
10.8550820350647,2,3,3,3,-9.43,1.98,-1.49,-0.42,-0.05,-0.11
10.8550820350647,2,3,3,3,-9.43,1.98,-1.49,-0.42,-0.05,-0.11
10.87508201599121,2,3,3,3,-9.460000000000001,2.01,-1.43,-0.43,0,-0.16
10.87508201599121,2,3,3,3,-9.460000000000001,2.01,-1.43,-0.43,0,-0.16
10.89508199691772,2,3,3,3,-9.51,2.15,-1.5,-0.43,0.07000000000000001,-0.11
10.89508199691772,2,3,3,3,-9.51,2.15,-1.5,-0.43,0.07000000000000001,-0.11
10.91508197784424,2,3,3,3,-9.43,2.16,-1.53,-0.67,0.12,-0.05
10.91508197784424,2,3,3,3,-9.43,2.16,-1.53,-0.67,0.12,-0.05
10.93508195877075,2,3,3,3,-9.48,1.99,-1.44,-0.87,0.11,-0.13
10.93508195877075,2,3,3,3,-9.48,1.99,-1.44,-0.87,0.11,-0.13
10.95508193969727,2,3,3,3,-9.43,1.88,-1.47,-0.96,0.03,-0.15
10.95508193969727,2,3,3,3,-9.43,1.88,-1.47,-0.96,0.03,-0.15
10.97508192062378,2,3,3,3,-9.460000000000001,1.99,-1.42,-0.8100000000000001,0.1,-0.12
10.97508192062378,2,3,3,3,-9.460000000000001,1.99,-1.42,-0.8100000000000001,0.1,-0.12
10.99508190155029,2,3,3,3,-9.42,2,-1.35,-0.61,0,0.01
10.99508190155029,2,3,3,3,-9.42,2,-1.35,-0.61,0,0.01
11.01508212089539,2,3,3,3,-9.44,1.95,-1.44,-0.35,0.04,0.14
11.01508212089539,2,3,3,3,-9.44,1.95,-1.44,-0.35,0.04,0.14
11.0350821018219,2,3,3,3,-9.49,1.94,-1.37,-0.05,0.04,0.21
11.0350821018219,2,3,3,3,-9.49,1.94,-1.37,-0.05,0.04,0.21
11.05508208274841,2,3,3,3,-9.67,2.02,-1.58,-0.1,0.02,0.36
11.05508208274841,2,3,3,3,-9.67,2.02,-1.58,-0.1,0.02,0.36
11.07508206367493,2,3,3,3,-9.57,1.88,-1.45,-0.5600000000000001,-0.03,0.31
11.07508206367493,2,3,3,3,-9.57,1.88,-1.45,-0.5600000000000001,-0.03,0.31
11.09508204460144,2,3,3,3,-9.43,1.6,-1.28,-0.9,-0.11,-0.05
11.09508204460144,2,3,3,3,-9.43,1.6,-1.28,-0.9,-0.11,-0.05
11.11508202552795,2,3,3,3,-9.43,1.6,-1.21,-0.44,-0.03,-0.12
11.11508202552795,2,3,3,3,-9.43,1.6,-1.21,-0.44,-0.03,-0.12
11.13508200645447,2,3,3,3,-9.56,2,-1.23,0.22,-0.06,-0.05
11.13508200645447,2,3,3,3,-9.56,2,-1.23,0.22,-0.06,-0.05
11.15508198738098,2,3,3,3,-9.49,2.19,-1.29,0.22,-0.45,-0.04
11.15508198738098,2,3,3,3,-9.49,2.19,-1.29,0.22,-0.45,-0.04
11.1750819683075,2,3,3,3,-9.41,2.48,-1.33,0,-0.36,-0.15
11.1750819683075,2,3,3,3,-9.41,2.48,-1.33,0,-0.36,-0.15
11.19508194923401,2,3,3,3,-9.4,2.17,-1.44,-1,-0.33,-0.16
11.19508194923401,2,3,3,3,-9.4,2.17,-1.44,-1,-0.33,-0.16
11.21508193016052,2,3,3,3,-9.74,2.53,-1.26,-0.54,-0.62,-1.08
11.21508193016052,2,3,3,3,-9.74,2.53,-1.26,-0.54,-0.62,-1.08
11.23508191108704,2,3,3,3,-8.970000000000001,2.57,-1.22,-1.39,-1.91,-1.54
11.23508191108704,2,3,3,3,-8.970000000000001,2.57,-1.22,-1.39,-1.91,-1.54
11.25508213043213,2,3,3,3,-8.69,2.26,-1.67,-2.4,-0.73,-0.67
11.25508213043213,2,3,3,3,-8.69,2.26,-1.67,-2.4,-0.73,-0.67
11.27508211135864,2,3,3,3,-9.26,1.74,-1.82,-2.96,-0.15,0.37
11.27508211135864,2,3,3,3,-9.26,1.74,-1.82,-2.96,-0.15,0.37
11.29508209228516,2,3,3,3,-9.619999999999999,1.47,-1.89,-2.22,-0.02,1.57
11.29508209228516,2,3,3,3,-9.619999999999999,1.47,-1.89,-2.22,-0.02,1.57
11.31508207321167,2,3,3,3,-9.710000000000001,0.91,-1.58,-1.53,-0.25,2.12
11.31508207321167,2,3,3,3,-9.710000000000001,0.91,-1.58,-1.53,-0.25,2.12
11.33508205413818,2,3,3,3,-9.82,0.3,-1.39,-0.71,-0.6,2.13
11.33508205413818,2,3,3,3,-9.82,0.3,-1.39,-0.71,-0.6,2.13
11.3550820350647,2,3,3,3,-9.890000000000001,-0.36,-1.32,0.72,-0.98,1.99
11.3550820350647,2,3,3,3,-9.890000000000001,-0.36,-1.32,0.72,-0.98,1.99
11.37508201599121,2,3,3,3,-10.04,-0.41,-1.21,2.57,-1.46,1.89
11.37508201599121,2,3,3,3,-10.04,-0.41,-1.21,2.57,-1.46,1.89
11.39508199691772,2,3,3,3,-10.31,-0.37,-0.91,4.45,-2.03,1.43
11.39508199691772,2,3,3,3,-10.31,-0.37,-0.91,4.45,-2.03,1.43
11.41508197784424,2,3,3,3,-10.44,-0.29,-0.77,5.78,-2.56,0.58
11.41508197784424,2,3,3,3,-10.44,-0.29,-0.77,5.78,-2.56,0.58
11.43608212471008,2,3,3,3,-10.42,-0.7,-0.39,6.51,-2.9,-0.45
11.43608212471008,2,3,3,3,-10.42,-0.7,-0.39,6.51,-2.9,-0.45
11.45508193969727,2,3,3,3,-10.63,-0.72,-0.55,6.09,-3.22,-1.75
11.45508193969727,2,3,3,3,-10.63,-0.72,-0.55,6.09,-3.22,-1.75
11.47508192062378,2,3,3,3,-10.83,-0.74,-0.29,4.89,-4.46,-3.17
11.47508192062378,2,3,3,3,-10.83,-0.74,-0.29,4.89,-4.46,-3.17
11.49608206748962,2,3,3,3,-11.17,-1.48,0.1,3.87,-5.34,-4.96
11.49608206748962,2,3,3,3,-11.17,-1.48,0.1,3.87,-5.34,-4.96
11.51508212089539,2,3,3,3,-11.52,-3.54,1,3.69,-6.2,-7.73
11.51508212089539,2,3,3,3,-11.52,-3.54,1,3.69,-6.2,-7.73
11.5350821018219,2,3,3,3,-11.85,-4.57,1.44,4.08,-7.73,-11.78
11.5350821018219,2,3,3,3,-11.85,-4.57,1.44,4.08,-7.73,-11.78
11.55608201026917,2,3,3,3,-11.87,-3.95,0.62,3.29,-7.75,-15.59
11.55608201026917,2,3,3,3,-11.87,-3.95,0.62,3.29,-7.75,-15.59
11.57508206367493,2,3,3,3,-10.35,-1.46,0,-2.28,-6.79,-13.8
11.57508206367493,2,3,3,3,-10.35,-1.46,0,-2.28,-6.79,-13.8
11.59508204460144,2,3,3,3,-11.8,0.39,-1.86,-2.89,-3.32,-10.64
11.59508204460144,2,3,3,3,-11.8,0.39,-1.86,-2.89,-3.32,-10.64
11.61608195304871,2,3,3,3,-11.9,2.86,-1.05,-2.39,-4.89,-10.09
11.61608195304871,2,3,3,3,-11.9,2.86,-1.05,-2.39,-4.89,-10.09
11.63508200645447,2,3,3,3,-10.83,5.34,0.67,-3.98,-5.24,-9.390000000000001
11.63508200645447,2,3,3,3,-10.83,5.34,0.67,-3.98,-5.24,-9.390000000000001
11.65508198738098,2,3,3,3,-9.66,5.48,-0.71,-6.33,-2.59,-10.74
11.65508198738098,2,3,3,3,-9.66,5.48,-0.71,-6.33,-2.59,-10.74
11.67608213424683,2,3,3,3,-8.529999999999999,2.22,-1.44,-8.43,-0.9,-12.01
11.67608213424683,2,3,3,3,-8.529999999999999,2.22,-1.44,-8.43,-0.9,-12.01
11.69508194923401,2,3,3,3,-9.119999999999999,0.55,-2.12,-8.6,0.42,-12.9
11.69508194923401,2,3,3,3,-9.119999999999999,0.55,-2.12,-8.6,0.42,-12.9
11.71608209609985,2,3,3,3,-9.26,-0.25,-2.89,-4.87,0.65,-12.76
11.71608209609985,2,3,3,3,-9.26,-0.25,-2.89,-4.87,0.65,-12.76
11.73608207702637,2,3,3,3,-8.609999999999999,-0.26,-2.64,-0.25,0.61,-11.45
11.73608207702637,2,3,3,3,-8.609999999999999,-0.26,-2.64,-0.25,0.61,-11.45
11.75608205795288,2,3,3,3,-8.210000000000001,0.01,-2.07,4.59,1.37,-10.23
11.75608205795288,2,3,3,3,-8.210000000000001,0.01,-2.07,4.59,1.37,-10.23
11.77608203887939,2,3,3,3,-8.140000000000001,0.12,-1.6,9,1.75,-9.6
11.77608203887939,2,3,3,3,-8.140000000000001,0.12,-1.6,9,1.75,-9.6
11.79608201980591,2,3,3,3,-8.42,-0.51,-1.02,11.82,2.39,-8.6
11.79608201980591,2,3,3,3,-8.42,-0.51,-1.02,11.82,2.39,-8.6
11.81608200073242,2,3,3,3,-8.550000000000001,-0.8,-0.44,13.82,2.83,-7.08
11.81608200073242,2,3,3,3,-8.550000000000001,-0.8,-0.44,13.82,2.83,-7.08
11.83608198165894,2,3,3,3,-8.609999999999999,-0.73,0.45,15.47,2.11,-6
11.83608198165894,2,3,3,3,-8.609999999999999,-0.73,0.45,15.47,2.11,-6
11.85608196258545,2,3,3,3,-8.6,-1,0.61,16.65,1.7,-5.5
11.85608196258545,2,3,3,3,-8.6,-1,0.61,16.65,1.7,-5.5
11.87608194351196,2,3,3,3,-8.390000000000001,-1.03,0.74,17.23,2.19,-4.72
11.87608194351196,2,3,3,3,-8.390000000000001,-1.03,0.74,17.23,2.19,-4.72
11.89608192443848,2,3,3,3,-8.57,-0.96,0.51,16.2,2.88,-3.68
11.89608192443848,2,3,3,3,-8.57,-0.96,0.51,16.2,2.88,-3.68
11.91608190536499,2,3,3,3,-8.380000000000001,-1.4,0.78,13.14,1.77,-2.57
11.91608190536499,2,3,3,3,-8.380000000000001,-1.4,0.78,13.14,1.77,-2.57
11.93608212471008,2,3,3,3,-8.24,-2.42,1.96,8.73,0.76,-1.7
11.93608212471008,2,3,3,3,-8.24,-2.42,1.96,8.73,0.76,-1.7
11.9560821056366,2,3,3,3,-8.56,-3.22,2.2,6.42,0.52,0.12
11.9560821056366,2,3,3,3,-8.56,-3.22,2.2,6.42,0.52,0.12
11.97608208656311,2,3,3,3,-9.68,-3.91,3.09,4.98,1.61,-0.06
11.97608208656311,2,3,3,3,-9.68,-3.91,3.09,4.98,1.61,-0.06
11.99608206748962,2,3,3,3,-10.11,-4.66,3.79,4.27,1.75,-0.96
11.99608206748962,2,3,3,3,-10.11,-4.66,3.79,4.27,1.75,-0.96
12.01608204841614,2,3,3,3,-9.75,-5.48,3.29,4.37,2.7,-1.37
12.01608204841614,2,3,3,3,-9.75,-5.48,3.29,4.37,2.7,-1.37
12.03608202934265,2,3,3,3,-9.609999999999999,-5.44,2.14,1.91,4.48,-1.84
12.03608202934265,2,3,3,3,-9.609999999999999,-5.44,2.14,1.91,4.48,-1.84
12.05608201026917,2,3,3,3,-9.949999999999999,-5.09,0.46,1.35,4.48,-2.66
12.05608201026917,2,3,3,3,-9.949999999999999,-5.09,0.46,1.35,4.48,-2.66
12.07608199119568,2,3,3,3,-10.01,-4.98,0.54,1.46,4.14,-4.63
12.07608199119568,2,3,3,3,-10.01,-4.98,0.54,1.46,4.14,-4.63
12.09608197212219,2,3,3,3,-8.960000000000001,-1.2,-0.26,-1.44,1.91,-1.5
12.09608197212219,2,3,3,3,-8.960000000000001,-1.2,-0.26,-1.44,1.91,-1.5
12.11608195304871,2,3,3,3,-12.77,-6.27,0.73,1.34,2.3,1.55
12.11608195304871,2,3,3,3,-12.77,-6.27,0.73,1.34,2.3,1.55
12.13608193397522,2,3,3,3,-12.26,-4.37,2.94,-1.34,3.62,-0.65
12.13608193397522,2,3,3,3,-12.26,-4.37,2.94,-1.34,3.62,-0.65
12.15608191490173,2,3,3,3,-9.699999999999999,0.98,0.5600000000000001,5.01,3.53,5
12.15608191490173,2,3,3,3,-9.699999999999999,0.98,0.5600000000000001,5.01,3.53,5
12.17608213424683,2,3,3,3,-8.58,4.44,-2.36,5.64,8.449999999999999,5.61
12.17608213424683,2,3,3,3,-8.58,4.44,-2.36,5.64,8.449999999999999,5.61
12.19608211517334,2,3,3,3,-7.26,2.36,-3.42,2.17,7.47,6.06
12.19608211517334,2,3,3,3,-7.26,2.36,-3.42,2.17,7.47,6.06
12.21608209609985,2,3,3,3,-9.01,2.42,-3.38,2.29,6.7,6.15
12.21608209609985,2,3,3,3,-9.01,2.42,-3.38,2.29,6.7,6.15
12.23608207702637,2,3,3,3,-10.47,1.52,-3.08,0.64,5.62,7.37
12.23608207702637,2,3,3,3,-10.47,1.52,-3.08,0.64,5.62,7.37
12.25608205795288,2,3,3,3,-10.43,2.36,-2.5,2.44,5.73,8.710000000000001
12.25608205795288,2,3,3,3,-10.43,2.36,-2.5,2.44,5.73,8.710000000000001
12.27608203887939,2,3,3,3,-10.4,1.67,-1.81,1.61,7.06,9.1
12.27608203887939,2,3,3,3,-10.4,1.67,-1.81,1.61,7.06,9.1
12.29608201980591,2,3,3,3,-10.26,1.71,-1.47,1.1,6.98,10.22
12.29608201980591,2,3,3,3,-10.26,1.71,-1.47,1.1,6.98,10.22
12.31608200073242,3,3,3,3,-9.82,1.96,-2.13,0.08,7.05,10.69
12.31608200073242,3,3,3,3,-9.82,1.96,-2.13,0.08,7.05,10.69
12.33608198165894,3,3,3,3,-9.220000000000001,0.92,-2.83,-1.17,6.8,10.56
12.33608198165894,3,3,3,3,-9.220000000000001,0.92,-2.83,-1.17,6.8,10.56
12.35608196258545,3,3,3,3,-9.289999999999999,0.07000000000000001,-2.77,-1.27,6.46,10.69
12.35608196258545,3,3,3,3,-9.289999999999999,0.07000000000000001,-2.77,-1.27,6.46,10.69
12.37608194351196,3,3,3,3,-9.619999999999999,0.47,-2.51,-0.44,6.34,10.74
12.37608194351196,3,3,3,3,-9.619999999999999,0.47,-2.51,-0.44,6.34,10.74
12.39608192443848,3,3,3,3,-9.76,0.72,-2.26,-0.68,5.4,10.51
12.39608192443848,3,3,3,3,-9.76,0.72,-2.26,-0.68,5.4,10.51
12.41608190536499,3,3,3,3,-9.48,1.23,-3.14,-1.46,5.03,10.3
12.41608190536499,3,3,3,3,-9.48,1.23,-3.14,-1.46,5.03,10.3
12.43608212471008,3,3,3,3,-9.18,0.08,-3.3,-1.94,5.03,10.16
12.43608212471008,3,3,3,3,-9.18,0.08,-3.3,-1.94,5.03,10.16
12.4560821056366,3,3,3,3,-8.949999999999999,-0.35,-3.42,-1.42,4.6,10.41
12.4560821056366,3,3,3,3,-8.949999999999999,-0.35,-3.42,-1.42,4.6,10.41
12.47608208656311,3,3,3,3,-9.09,-0.24,-3.04,-1.93,4.37,10.77
12.47608208656311,3,3,3,3,-9.09,-0.24,-3.04,-1.93,4.37,10.77
12.49608206748962,3,3,3,3,-9.56,-0.74,-2.5,-4.33,4.07,10.8
12.49608206748962,3,3,3,3,-9.56,-0.74,-2.5,-4.33,4.07,10.8
12.51608204841614,3,3,3,3,-9.710000000000001,-1.47,-2.04,-5.38,3.4,10.43
12.51608204841614,3,3,3,3,-9.710000000000001,-1.47,-2.04,-5.38,3.4,10.43
12.53608202934265,3,3,3,3,-9.609999999999999,-2.67,-1.33,-5.32,3.34,9.52
12.53608202934265,3,3,3,3,-9.609999999999999,-2.67,-1.33,-5.32,3.34,9.52
12.55608201026917,3,3,3,3,-9.58,-1.77,-1.84,-4.65,4.37,8.220000000000001
12.55608201026917,3,3,3,3,-9.58,-1.77,-1.84,-4.65,4.37,8.220000000000001
12.57608199119568,3,3,3,3,-9.41,0.2,-2.57,-4.78,4.44,6.62
12.57608199119568,3,3,3,3,-9.41,0.2,-2.57,-4.78,4.44,6.62
12.59608197212219,3,3,3,3,-9.470000000000001,1.29,-2.82,-5.23,3.86,6.01
12.59608197212219,3,3,3,3,-9.470000000000001,1.29,-2.82,-5.23,3.86,6.01
12.61608195304871,3,3,3,3,-9.58,1.73,-3.03,-5.96,3.87,5.64
12.61608195304871,3,3,3,3,-9.58,1.73,-3.03,-5.96,3.87,5.64
12.63608193397522,3,3,3,3,-9.390000000000001,2.35,-2.78,-6.13,3.57,4.79
12.63608193397522,3,3,3,3,-9.390000000000001,2.35,-2.78,-6.13,3.57,4.79
12.65608191490173,3,3,3,3,-9.44,2.44,-3,-6.61,3.52,4.05
12.65608191490173,3,3,3,3,-9.44,2.44,-3,-6.61,3.52,4.05
12.67608213424683,3,3,3,3,-9.140000000000001,1.72,-3.01,-7.42,3.2,3.8
12.67608213424683,3,3,3,3,-9.140000000000001,1.72,-3.01,-7.42,3.2,3.8
12.69608211517334,3,3,3,3,-9.42,1.59,-2.71,-6.89,2.76,3.9
12.69608211517334,3,3,3,3,-9.42,1.59,-2.71,-6.89,2.76,3.9
12.71608209609985,3,3,3,3,-9.630000000000001,2.01,-2.52,-5.92,2.7,4
12.71608209609985,3,3,3,3,-9.630000000000001,2.01,-2.52,-5.92,2.7,4
12.73708200454712,3,3,3,3,-9.539999999999999,2.63,-2.74,-5.21,2.43,3.99
12.73708200454712,3,3,3,3,-9.539999999999999,2.63,-2.74,-5.21,2.43,3.99
12.75708198547363,3,3,3,3,-9.359999999999999,2.35,-2.5,-5.95,2.6,4.05
12.75708198547363,3,3,3,3,-9.359999999999999,2.35,-2.5,-5.95,2.6,4.05
12.77708196640015,3,3,3,3,-9.18,2.11,-2.59,-6.21,2.7,4.3
12.77708196640015,3,3,3,3,-9.18,2.11,-2.59,-6.21,2.7,4.3
12.79708194732666,3,3,3,3,-9.550000000000001,2.1,-2.84,-6.46,2.82,4.93
12.79708194732666,3,3,3,3,-9.550000000000001,2.1,-2.84,-6.46,2.82,4.93
12.81708192825317,3,3,3,3,-9.84,1.75,-2.91,-6.68,2.4,5.44
12.81708192825317,3,3,3,3,-9.84,1.75,-2.91,-6.68,2.4,5.44
12.83708190917969,3,3,3,3,-9.6,1.49,-2.57,-6.56,1.74,5.53
12.83708190917969,3,3,3,3,-9.6,1.49,-2.57,-6.56,1.74,5.53
12.85708212852478,3,3,3,3,-9.23,1.36,-2.77,-6.47,1.58,5.29
12.85708212852478,3,3,3,3,-9.23,1.36,-2.77,-6.47,1.58,5.29
12.87708210945129,3,3,3,3,-9.800000000000001,0.96,-2.78,-6.37,1.48,5.15
12.87708210945129,3,3,3,3,-9.800000000000001,0.96,-2.78,-6.37,1.48,5.15
12.89708209037781,3,3,3,3,-10.03,0.92,-2.73,-5.62,0.48,4.45
12.89708209037781,3,3,3,3,-10.03,0.92,-2.73,-5.62,0.48,4.45
12.91708207130432,3,3,3,3,-10.31,0.75,-2.67,-6.54,0.8100000000000001,3.67
12.91708207130432,3,3,3,3,-10.31,0.75,-2.67,-6.54,0.8100000000000001,3.67
12.93708205223083,3,3,3,3,-11.22,0.31,-2.43,-7.5,1.17,3.32
12.93708205223083,3,3,3,3,-11.22,0.31,-2.43,-7.5,1.17,3.32
12.95708203315735,3,3,3,3,-11.87,-0.8100000000000001,-1.81,-9.210000000000001,0.41,1.6
12.95708203315735,3,3,3,3,-11.87,-0.8100000000000001,-1.81,-9.210000000000001,0.41,1.6
12.97708201408386,3,3,3,3,-11.82,-2.01,-0.73,-9.119999999999999,-0.35,0.86
12.97708201408386,3,3,3,3,-11.82,-2.01,-0.73,-9.119999999999999,-0.35,0.86
12.99708199501038,3,3,3,3,-12.94,-2.65,0.99,-5.97,-4.33,-2.35
12.99708199501038,3,3,3,3,-12.94,-2.65,0.99,-5.97,-4.33,-2.35
13.01708197593689,3,3,3,3,-13.35,-3.15,2.31,-5.74,-7.62,-5.82
13.01708197593689,3,3,3,3,-13.35,-3.15,2.31,-5.74,-7.62,-5.82
13.0370819568634,3,3,3,3,-13.07,-2.33,4.73,-5.9,-8.73,-7.21
13.0370819568634,3,3,3,3,-13.07,-2.33,4.73,-5.9,-8.73,-7.21
13.05708193778992,3,3,3,3,-11.41,-2.57,2.64,-15.57,-9.970000000000001,-9.34
13.05708193778992,3,3,3,3,-11.41,-2.57,2.64,-15.57,-9.970000000000001,-9.34
13.07708191871643,3,3,3,3,-11,-3.3,-2.16,-14.77,-9.300000000000001,-11.6
13.07708191871643,3,3,3,3,-11,-3.3,-2.16,-14.77,-9.300000000000001,-11.6
13.09708189964294,3,3,3,3,-12.48,-0.7,-3.01,-5.92,-8.800000000000001,-16.58
13.09708189964294,3,3,3,3,-12.48,-0.7,-3.01,-5.92,-8.800000000000001,-16.58
13.11708211898804,3,3,3,3,-13.65,3.13,-3.82,-3.41,-7.2,-16.86
13.11708211898804,3,3,3,3,-13.65,3.13,-3.82,-3.41,-7.2,-16.86
13.13708209991455,3,3,3,3,-13.16,4.03,-3.61,-2.49,-6.46,-17.65
13.13708209991455,3,3,3,3,-13.16,4.03,-3.61,-2.49,-6.46,-17.65
13.15708208084106,3,3,3,3,-11.98,5.06,-2.25,1.3,-5.4,-19.45
13.15708208084106,3,3,3,3,-11.98,5.06,-2.25,1.3,-5.4,-19.45
13.17708206176758,3,3,3,3,-11.47,5.38,-2.1,1.41,-4.89,-19.62
13.17708206176758,3,3,3,3,-11.47,5.38,-2.1,1.41,-4.89,-19.62
13.19708204269409,3,3,3,3,-10.41,6.38,-2.66,-0.15,-3.13,-19.52
13.19708204269409,3,3,3,3,-10.41,6.38,-2.66,-0.15,-3.13,-19.52
13.21708202362061,3,3,3,3,-9.550000000000001,5.46,-3.04,-1.76,-1.9,-20.6
13.21708202362061,3,3,3,3,-9.550000000000001,5.46,-3.04,-1.76,-1.9,-20.6
13.23708200454712,3,3,3,3,-9.050000000000001,3.99,-3.53,-1.59,-1.17,-21.12
13.23708200454712,3,3,3,3,-9.050000000000001,3.99,-3.53,-1.59,-1.17,-21.12
13.25708198547363,3,3,3,3,-9.24,2.76,-3.55,0.48,0.27,-20.93
13.25708198547363,3,3,3,3,-9.24,2.76,-3.55,0.48,0.27,-20.93
13.27708196640015,3,3,3,3,-8.81,1.99,-3.12,3.34,0.38,-20.66
13.27708196640015,3,3,3,3,-8.81,1.99,-3.12,3.34,0.38,-20.66
13.29708194732666,3,3,3,3,-9.15,3.02,-2.86,11.16,0.06,-19.34
13.29708194732666,3,3,3,3,-9.15,3.02,-2.86,11.16,0.06,-19.34
13.31708192825317,3,3,3,3,-9.06,2.96,-2.51,13.86,-0.23,-17.7
13.31708192825317,3,3,3,3,-9.06,2.96,-2.51,13.86,-0.23,-17.7
13.33708190917969,3,3,3,3,-8.630000000000001,3.24,-1.71,15.29,-0.37,-17.14
13.33708190917969,3,3,3,3,-8.630000000000001,3.24,-1.71,15.29,-0.37,-17.14
13.35708212852478,3,3,3,3,-8.33,3.8,-1.73,17.98,-0.47,-14.69
13.35708212852478,3,3,3,3,-8.33,3.8,-1.73,17.98,-0.47,-14.69
13.37708210945129,3,3,3,3,-7.4,4.91,-1.61,17.22,-0.42,-13.15
13.37708210945129,3,3,3,3,-7.4,4.91,-1.61,17.22,-0.42,-13.15
13.39708209037781,3,3,3,3,-6.77,4.82,-1.52,10.25,-0.23,-10.26
13.39708209037781,3,3,3,3,-6.77,4.82,-1.52,10.25,-0.23,-10.26
13.41708207130432,3,3,3,3,-6.23,3.33,-0.86,6.92,-0.07000000000000001,-8.699999999999999
13.41708207130432,3,3,3,3,-6.23,3.33,-0.86,6.92,-0.07000000000000001,-8.699999999999999
13.43708205223083,3,3,3,3,-5.59,2.98,-0.92,6.38,0.8,-7.76
13.43708205223083,3,3,3,3,-5.59,2.98,-0.92,6.38,0.8,-7.76
13.45708203315735,3,3,3,3,-5.4,1.72,-1.5,2.82,4.69,-4.33
13.45708203315735,3,3,3,3,-5.4,1.72,-1.5,2.82,4.69,-4.33
13.47708201408386,3,3,3,2,-5.81,0.28,-1.43,1.79,5.62,-3.07
13.47708201408386,3,3,3,2,-5.81,0.28,-1.43,1.79,5.62,-3.07
13.49708199501038,3,3,3,2,-6.45,-0.96,-1.43,-1.41,8.35,0.01
13.49708199501038,3,3,3,2,-6.45,-0.96,-1.43,-1.41,8.35,0.01
13.51708197593689,3,3,3,2,-8.1,-2.41,-0.75,-1.1,9.039999999999999,-0.4
13.51708197593689,3,3,3,2,-8.1,-2.41,-0.75,-1.1,9.039999999999999,-0.4
13.5370819568634,3,3,3,2,-11.27,-6.6,1.38,0.8,8.41,-1.57
13.5370819568634,3,3,3,2,-11.27,-6.6,1.38,0.8,8.41,-1.57
13.55708193778992,3,3,3,2,-12.42,-8.699999999999999,2.43,6.79,2.65,-3.86
13.55708193778992,3,3,3,2,-12.42,-8.699999999999999,2.43,6.79,2.65,-3.86
13.57708191871643,3,3,3,1,-13.33,-13.29,3.32,8.6,-1.53,-3.97
13.57708191871643,3,3,3,1,-13.33,-13.29,3.32,8.6,-1.53,-3.97
13.59708189964294,3,3,3,1,-12.54,-13.29,2.99,4.28,-6.58,-3.8
13.59708189964294,3,3,3,1,-12.54,-13.29,2.99,4.28,-6.58,-3.8
13.61708211898804,3,3,3,1,-10.1,-4.26,0.78,4.83,-2.99,-3.32
13.61708211898804,3,3,3,1,-10.1,-4.26,0.78,4.83,-2.99,-3.32
13.63708209991455,3,3,3,1,-7.93,-1.85,-1.1,5.28,-1.44,-3.25
13.63708209991455,3,3,3,1,-7.93,-1.85,-1.1,5.28,-1.44,-3.25
13.65708208084106,3,3,3,1,-2.79,4.84,-3.72,-7.62,7.19,6.13
13.65708208084106,3,3,3,1,-2.79,4.84,-3.72,-7.62,7.19,6.13
13.67708206176758,3,3,3,1,-11.59,1.7,0.5600000000000001,-5.02,7.66,10.3
13.67708206176758,3,3,3,1,-11.59,1.7,0.5600000000000001,-5.02,7.66,10.3
13.69708204269409,3,3,3,1,-17.22,-13.3,6.41,5.13,0.05,4.36
13.69708204269409,3,3,3,1,-17.22,-13.3,6.41,5.13,0.05,4.36
13.71708202362061,3,3,3,1,-16.41,-2.97,-0.66,10.64,3.88,9.619999999999999
13.71708202362061,3,3,3,1,-16.41,-2.97,-0.66,10.64,3.88,9.619999999999999
13.73708200454712,3,3,3,1,-9.699999999999999,9.380000000000001,-0.95,7.84,3,10.3
13.73708200454712,3,3,3,1,-9.699999999999999,9.380000000000001,-0.95,7.84,3,10.3
13.75808191299438,3,3,3,1,-6.95,7.78,-9.539999999999999,-3.31,10.94,11.11
13.75808191299438,3,3,3,1,-6.95,7.78,-9.539999999999999,-3.31,10.94,11.11
13.77808213233948,3,3,3,1,-7.64,0.58,-6.28,-5.33,10.26,11.7
13.77808213233948,3,3,3,1,-7.64,0.58,-6.28,-5.33,10.26,11.7
13.79808211326599,3,3,3,1,-9.69,2.08,-4.8,1.28,6.52,14.23
13.79808211326599,3,3,3,1,-9.69,2.08,-4.8,1.28,6.52,14.23
13.8180820941925,3,3,3,1,-8.949999999999999,3.58,-3.14,0.96,6.64,13.56
13.8180820941925,3,3,3,1,-8.949999999999999,3.58,-3.14,0.96,6.64,13.56
13.83808207511902,3,3,3,1,-10.11,2.22,-1.65,0.47,6.24,13.55
13.83808207511902,3,3,3,1,-10.11,2.22,-1.65,0.47,6.24,13.55
13.85808205604553,3,3,3,1,-10.42,2.19,-1.86,-0.55,6.41,13.54
13.85808205604553,3,3,3,1,-10.42,2.19,-1.86,-0.55,6.41,13.54
13.87808203697205,3,3,3,1,-9.06,2.17,-3.15,-1.26,6.19,13.39
13.87808203697205,3,3,3,1,-9.06,2.17,-3.15,-1.26,6.19,13.39
13.89808201789856,3,3,3,1,-8.58,0.35,-4.16,-1.15,6.05,12.89
13.89808201789856,3,3,3,1,-8.58,0.35,-4.16,-1.15,6.05,12.89
13.91808199882507,3,3,3,1,-8.710000000000001,0.26,-4.37,-1.2,5.16,12.9
13.91808199882507,3,3,3,1,-8.710000000000001,0.26,-4.37,-1.2,5.16,12.9
13.93808197975159,3,3,3,1,-9.43,1.27,-2.7,-1.84,4.31,13.12
13.93808197975159,3,3,3,1,-9.43,1.27,-2.7,-1.84,4.31,13.12
13.9580819606781,3,3,3,1,-9.32,0.45,-2.57,-7.85,2.87,13.92
13.9580819606781,3,3,3,1,-9.32,0.45,-2.57,-7.85,2.87,13.92
13.97808194160461,3,3,3,1,-10.02,-1.06,-1.48,-9.619999999999999,2.82,13.84
13.97808194160461,3,3,3,1,-10.02,-1.06,-1.48,-9.619999999999999,2.82,13.84
13.99808192253113,3,3,3,1,-10.36,-5.37,-1.4,-13.01,4.07,11.11
13.99808192253113,3,3,3,1,-10.36,-5.37,-1.4,-13.01,4.07,11.11
14.01808190345764,3,3,3,1,-10.28,-2.47,-2.46,-12.13,6.69,7.8
14.01808190345764,3,3,3,1,-10.28,-2.47,-2.46,-12.13,6.69,7.8
14.03808212280273,3,3,3,1,-10.88,0.44,-3.57,-10.52,6.39,5.56
14.03808212280273,3,3,3,1,-10.88,0.44,-3.57,-10.52,6.39,5.56
14.05808210372925,3,3,3,1,-9.1,1.72,-3.38,-7.09,2.28,2.84
14.05808210372925,3,3,3,1,-9.1,1.72,-3.38,-7.09,2.28,2.84
14.07808208465576,3,3,3,1,-8.710000000000001,2.37,-3.17,-6.56,1.78,3.63
14.07808208465576,3,3,3,1,-8.710000000000001,2.37,-3.17,-6.56,1.78,3.63
14.09808206558228,3,3,3,1,-9.279999999999999,2.82,-2.06,-6.03,1.47,6.57
14.09808206558228,3,3,3,1,-9.279999999999999,2.82,-2.06,-6.03,1.47,6.57
14.11808204650879,3,3,3,1,-9.220000000000001,1.77,-2.32,-8.51,3.23,6.81
14.11808204650879,3,3,3,1,-9.220000000000001,1.77,-2.32,-8.51,3.23,6.81
14.1380820274353,3,3,3,1,-9.300000000000001,1.73,-2.62,-9.050000000000001,3.57,6.58
14.1380820274353,3,3,3,1,-9.300000000000001,1.73,-2.62,-9.050000000000001,3.57,6.58
14.15808200836182,3,3,3,1,-9.31,1.36,-2.84,-7.5,2.43,6.16
14.15808200836182,3,3,3,1,-9.31,1.36,-2.84,-7.5,2.43,6.16
14.17808198928833,3,3,3,1,-9.35,1.4,-2.86,-6.23,1.79,6.04
14.17808198928833,3,3,3,1,-9.35,1.4,-2.86,-6.23,1.79,6.04
14.19808197021484,3,3,3,1,-9.27,2.37,-2.77,-3.12,1.4,5.99
14.19808197021484,3,3,3,1,-9.27,2.37,-2.77,-3.12,1.4,5.99
14.21808195114136,3,3,3,1,-8.869999999999999,2.93,-2.3,-2.82,1.74,6
14.21808195114136,3,3,3,1,-8.869999999999999,2.93,-2.3,-2.82,1.74,6
14.23808193206787,3,3,3,1,-8.65,3.01,-2.09,-3.24,1.97,6.16
14.23808193206787,3,3,3,1,-8.65,3.01,-2.09,-3.24,1.97,6.16
14.25808191299438,3,3,3,1,-8.43,2.65,-2.18,-4.85,2.19,6.77
14.25808191299438,3,3,3,1,-8.43,2.65,-2.18,-4.85,2.19,6.77
14.27808213233948,3,3,3,1,-8.539999999999999,2.06,-2.46,-5.58,2.16,6.99
14.27808213233948,3,3,3,1,-8.539999999999999,2.06,-2.46,-5.58,2.16,6.99
14.29808211326599,3,3,3,1,-8.970000000000001,0.49,-2.67,-6.69,2.26,7.28
14.29808211326599,3,3,3,1,-8.970000000000001,0.49,-2.67,-6.69,2.26,7.28
14.3180820941925,3,3,3,1,-9.380000000000001,0.05,-2.33,-5.6,2,7.2
14.3180820941925,3,3,3,1,-9.380000000000001,0.05,-2.33,-5.6,2,7.2
14.33808207511902,3,3,3,1,-9.51,-0.11,-2,-4.91,1.76,7.03
14.33808207511902,3,3,3,1,-9.51,-0.11,-2,-4.91,1.76,7.03
14.35808205604553,3,3,3,1,-9.720000000000001,0.35,-1.76,-3.16,0.89,6.51
14.35808205604553,3,3,3,1,-9.720000000000001,0.35,-1.76,-3.16,0.89,6.51
14.37808203697205,3,3,3,1,-10.07,0.55,-1.81,-2.95,0.29,6.21
14.37808203697205,3,3,3,1,-10.07,0.55,-1.81,-2.95,0.29,6.21
14.39808201789856,3,3,3,1,-11.4,0.24,-2.02,-2.81,-0.91,4.96
14.39808201789856,3,3,3,1,-11.4,0.24,-2.02,-2.81,-0.91,4.96
14.41808199882507,3,3,3,1,-13.38,-1.16,-1.87,-4.17,0,3.95
14.41808199882507,3,3,3,1,-13.38,-1.16,-1.87,-4.17,0,3.95
14.43808197975159,3,3,3,1,-13.58,-1.74,-1.49,-3.96,-0.39,3.23
14.43808197975159,3,3,3,1,-13.58,-1.74,-1.49,-3.96,-0.39,3.23
14.4580819606781,3,3,3,1,-14.21,-5.92,0.63,-4.61,-3.18,0.18
14.4580819606781,3,3,3,1,-14.21,-5.92,0.63,-4.61,-3.18,0.18
14.47808194160461,3,3,3,1,-14.61,-6.84,1.31,-4.41,-4.68,-1.41
14.47808194160461,3,3,3,1,-14.61,-6.84,1.31,-4.41,-4.68,-1.41
14.49808192253113,3,3,3,1,-13.24,-6.74,2.9,-4.28,-9.619999999999999,-9.869999999999999
14.49808192253113,3,3,3,1,-13.24,-6.74,2.9,-4.28,-9.619999999999999,-9.869999999999999
14.51808190345764,3,3,3,1,-11.38,-2.43,2.14,-5.91,-11.72,-10.92
14.51808190345764,3,3,3,1,-11.38,-2.43,2.14,-5.91,-11.72,-10.92
14.53808212280273,3,3,3,2,-9.369999999999999,-4.04,-0.15,-11.81,-10.28,-15.41
14.53808212280273,3,3,3,2,-9.369999999999999,-4.04,-0.15,-11.81,-10.28,-15.41
14.55808210372925,3,3,3,2,-14.61,0.73,-4.37,-2.19,-9.890000000000001,-18.5
14.55808210372925,3,3,3,2,-14.61,0.73,-4.37,-2.19,-9.890000000000001,-18.5
14.57808208465576,3,3,3,2,-15.96,2.54,-4.29,0.9,-8.699999999999999,-18.17
14.57808208465576,3,3,3,2,-15.96,2.54,-4.29,0.9,-8.699999999999999,-18.17
14.59808206558228,3,3,3,2,-15.92,8.300000000000001,-3.6,-0.19,-6.76,-19.67
14.59808206558228,3,3,3,2,-15.92,8.300000000000001,-3.6,-0.19,-6.76,-19.67
14.61808204650879,3,3,3,2,-12.11,5.13,-2.71,-4.44,-4.68,-23.22
14.61808204650879,3,3,3,2,-12.11,5.13,-2.71,-4.44,-4.68,-23.22
14.6380820274353,3,3,3,2,-12.51,4.17,-2.26,-4.56,-3.94,-24.55
14.6380820274353,3,3,3,2,-12.51,4.17,-2.26,-4.56,-3.94,-24.55
14.65808200836182,3,3,3,2,-10.9,6.07,-2.46,-0.93,-3.11,-23.51
14.65808200836182,3,3,3,2,-10.9,6.07,-2.46,-0.93,-3.11,-23.51
14.67808198928833,3,3,3,2,-10.7,5.33,-2.46,0.32,-1.97,-24.48
14.67808198928833,3,3,3,2,-10.7,5.33,-2.46,0.32,-1.97,-24.48
14.69808197021484,3,3,3,2,-10.07,4.46,-2.65,2.07,-1.99,-25.33
14.69808197021484,3,3,3,2,-10.07,4.46,-2.65,2.07,-1.99,-25.33
14.71808195114136,3,3,3,2,-8.94,4.23,-2.31,4.36,-2.2,-24.75
14.71808195114136,3,3,3,2,-8.94,4.23,-2.31,4.36,-2.2,-24.75
14.73808193206787,3,3,3,2,-7.44,3.9,-2.56,8.359999999999999,-2.18,-23.07
14.73808193206787,3,3,3,2,-7.44,3.9,-2.56,8.359999999999999,-2.18,-23.07
14.75808191299438,3,3,3,2,-7.13,4.21,-2.84,11.96,-2.34,-20.55
14.75808191299438,3,3,3,2,-7.13,4.21,-2.84,11.96,-2.34,-20.55
14.77908205986023,3,3,3,2,-6.76,4.32,-2.57,14.96,-1.86,-17.88
14.77908205986023,3,3,3,2,-6.76,4.32,-2.57,14.96,-1.86,-17.88
14.79908204078674,3,3,3,2,-6.56,4.86,-2.94,17.37,-1.09,-15.04
14.79908204078674,3,3,3,2,-6.56,4.86,-2.94,17.37,-1.09,-15.04
14.81908202171326,3,3,3,2,-5.54,5.06,-3.25,16.23,-1,-10.91
14.81908202171326,3,3,3,2,-5.54,5.06,-3.25,16.23,-1,-10.91
14.83908200263977,3,3,3,2,-5.54,5.36,-3.09,13.48,0.45,-9.5
14.83908200263977,3,3,3,2,-5.54,5.36,-3.09,13.48,0.45,-9.5
14.85908198356628,3,3,3,2,-4.99,4.91,-2.97,10.13,1.95,-7.54
14.85908198356628,3,3,3,2,-4.99,4.91,-2.97,10.13,1.95,-7.54
14.8790819644928,3,3,3,2,-4.44,5.34,-2.61,7.94,2.89,-5.62
14.8790819644928,3,3,3,2,-4.44,5.34,-2.61,7.94,2.89,-5.62
14.89908194541931,3,3,3,2,-4.43,3.24,-2.43,3.47,4.84,-3.66
14.89908194541931,3,3,3,2,-4.43,3.24,-2.43,3.47,4.84,-3.66
14.91908192634583,3,3,3,2,-5.42,0.8,-1.94,-0.74,7.65,-0.79
14.91908192634583,3,3,3,2,-5.42,0.8,-1.94,-0.74,7.65,-0.79
14.93908190727234,3,3,3,2,-7.49,-1.57,-0.68,-0.87,9.57,2.36
14.93908190727234,3,3,3,2,-7.49,-1.57,-0.68,-0.87,9.57,2.36
14.95908212661743,3,3,3,2,-11.94,-5.95,1.87,3.97,9.220000000000001,3.17
14.95908212661743,3,3,3,2,-11.94,-5.95,1.87,3.97,9.220000000000001,3.17
14.97908210754395,3,3,3,2,-13.59,-10.89,3.9,11.76,6.49,0.23
14.97908210754395,3,3,3,2,-13.59,-10.89,3.9,11.76,6.49,0.23
14.99908208847046,3,3,3,2,-15.28,-15.82,4.12,15.58,2.78,-1.97
14.99908208847046,3,3,3,2,-15.28,-15.82,4.12,15.58,2.78,-1.97
15.01908206939697,3,3,3,2,-13.76,-17.2,5.57,11.27,-9.710000000000001,-2.85
15.01908206939697,3,3,3,2,-13.76,-17.2,5.57,11.27,-9.710000000000001,-2.85
15.03908205032349,3,3,3,1,-10.36,-1.13,1.51,6.61,-5.49,-3.1
15.03908205032349,3,3,3,1,-10.36,-1.13,1.51,6.61,-5.49,-3.1
15.05908203125,3,3,3,1,-7.82,-0.78,-1.81,4.99,-1.89,-4.51
15.05908203125,3,3,3,1,-7.82,-0.78,-1.81,4.99,-1.89,-4.51
15.07908201217651,3,3,3,1,-5.96,2.53,-2.65,-10.79,8.18,-2.6
15.07908201217651,3,3,3,1,-5.96,2.53,-2.65,-10.79,8.18,-2.6
15.09908199310303,3,3,3,1,-17.36,-12.2,9.039999999999999,-10.61,6.26,6.55
15.09908199310303,3,3,3,1,-17.36,-12.2,9.039999999999999,-10.61,6.26,6.55
15.11908197402954,3,3,3,1,-17.52,-1.24,1.31,2.74,0.6899999999999999,4.17
15.11908197402954,3,3,3,1,-17.52,-1.24,1.31,2.74,0.6899999999999999,4.17
15.13908195495605,3,3,3,0,-9.27,15,-2.49,12.6,2.12,9.6
15.13908195495605,3,3,3,0,-9.27,15,-2.49,12.6,2.12,9.6
15.15908193588257,3,3,3,0,-7.03,8.140000000000001,-9.710000000000001,-1.37,10.46,9.17
15.15908193588257,3,3,3,0,-7.03,8.140000000000001,-9.710000000000001,-1.37,10.46,9.17
15.17908191680908,3,3,3,0,-8.970000000000001,-1.14,-8.960000000000001,-11.51,9.9,9.91
15.17908191680908,3,3,3,0,-8.970000000000001,-1.14,-8.960000000000001,-11.51,9.9,9.91
15.19908213615417,3,3,3,0,-10.35,2.93,-4.58,-0.05,6.12,14.63
15.19908213615417,3,3,3,0,-10.35,2.93,-4.58,-0.05,6.12,14.63
15.21908211708069,3,3,3,0,-9.26,5.78,-4.46,4.76,7.42,15.83
15.21908211708069,3,3,3,0,-9.26,5.78,-4.46,4.76,7.42,15.83
15.2390820980072,3,3,3,0,-9.609999999999999,2.94,-2.24,0.96,7.1,14.41
15.2390820980072,3,3,3,0,-9.609999999999999,2.94,-2.24,0.96,7.1,14.41
15.25908207893372,3,3,3,0,-10.01,1.99,-1.83,-0.8100000000000001,6.69,14.36
15.25908207893372,3,3,3,0,-10.01,1.99,-1.83,-0.8100000000000001,6.69,14.36
15.27908205986023,3,3,3,0,-9.15,0.96,-2.59,-1.03,6.15,14.45
15.27908205986023,3,3,3,0,-9.15,0.96,-2.59,-1.03,6.15,14.45
15.29908204078674,3,3,3,0,-8.550000000000001,-0.03,-2.7,-1.31,5.91,14.02
15.29908204078674,3,3,3,0,-8.550000000000001,-0.03,-2.7,-1.31,5.91,14.02
15.31908202171326,3,3,3,0,-8.85,-0.59,-3.05,-1.59,5.44,12.61
15.31908202171326,3,3,3,0,-8.85,-0.59,-3.05,-1.59,5.44,12.61
15.33908200263977,3,3,3,0,-8.98,-0.51,-2.89,-2.86,5.31,11.45
15.33908200263977,3,3,3,0,-8.98,-0.51,-2.89,-2.86,5.31,11.45
15.35908198356628,3,3,3,0,-9.52,-0.8,-2.1,-3.42,4.5,11.11
15.35908198356628,3,3,3,0,-9.52,-0.8,-2.1,-3.42,4.5,11.11
15.3790819644928,3,3,3,0,-9.44,-0.92,-2.1,-4.84,3.68,10.95
15.3790819644928,3,3,3,0,-9.44,-0.92,-2.1,-4.84,3.68,10.95
15.39908194541931,3,3,3,0,-9.43,-1.14,-2.62,-5.43,3.48,10.22
15.39908194541931,3,3,3,0,-9.43,-1.14,-2.62,-5.43,3.48,10.22
15.41908192634583,3,3,3,0,-9.49,-0.96,-2.14,-5.81,2.59,9.67
15.41908192634583,3,3,3,0,-9.49,-0.96,-2.14,-5.81,2.59,9.67
15.43908190727234,3,3,3,0,-10.25,-1.62,-1.66,-6.9,2.53,9.359999999999999
15.43908190727234,3,3,3,0,-10.25,-1.62,-1.66,-6.9,2.53,9.359999999999999
15.45908212661743,3,3,3,0,-9.74,-1.75,-2.26,-8.83,1.87,8.84
15.45908212661743,3,3,3,0,-9.74,-1.75,-2.26,-8.83,1.87,8.84
15.47908210754395,3,3,3,0,-9.15,-0.75,-2.95,-9.279999999999999,1.4,8.49
15.47908210754395,3,3,3,0,-9.15,-0.75,-2.95,-9.279999999999999,1.4,8.49
15.49908208847046,3,3,3,0,-9.34,0.41,-2.93,-8.369999999999999,2.01,8.6
15.49908208847046,3,3,3,0,-9.34,0.41,-2.93,-8.369999999999999,2.01,8.6
15.51908206939697,3,3,3,0,-9.09,1.46,-2.69,-8.970000000000001,1.95,8.93
15.51908206939697,3,3,3,0,-9.09,1.46,-2.69,-8.970000000000001,1.95,8.93
15.53908205032349,3,3,3,0,-9.35,1.53,-2.77,-7.8,2.52,8.199999999999999
15.53908205032349,3,3,3,0,-9.35,1.53,-2.77,-7.8,2.52,8.199999999999999
15.55908203125,3,3,3,0,-9.01,2.27,-2.38,-5.99,2.28,6.92
15.55908203125,3,3,3,0,-9.01,2.27,-2.38,-5.99,2.28,6.92
15.57908201217651,3,3,3,1,-9.369999999999999,2.92,-2.39,-5.83,2.46,6.55
15.57908201217651,3,3,3,1,-9.369999999999999,2.92,-2.39,-5.83,2.46,6.55
15.59908199310303,3,3,3,1,-9.23,2.75,-2.39,-7.72,2.5,7.02
15.59908199310303,3,3,3,1,-9.23,2.75,-2.39,-7.72,2.5,7.02
15.61908197402954,3,3,3,1,-9.34,1.47,-2.19,-7.97,2.2,7.33
15.61908197402954,3,3,3,1,-9.34,1.47,-2.19,-7.97,2.2,7.33
15.63908195495605,3,3,3,1,-9.35,0.98,-2.45,-5.5,2.22,7.32
15.63908195495605,3,3,3,1,-9.35,0.98,-2.45,-5.5,2.22,7.32
15.65908193588257,3,3,3,1,-8.99,1.21,-2.17,-3.92,2.17,7.2
15.65908193588257,3,3,3,1,-8.99,1.21,-2.17,-3.92,2.17,7.2
15.67908191680908,3,3,3,1,-9.56,1.07,-1.84,-4.1,2.07,7.45
15.67908191680908,3,3,3,1,-9.56,1.07,-1.84,-4.1,2.07,7.45
15.69908213615417,3,3,3,1,-9.949999999999999,0.8100000000000001,-1.41,-5.13,1.87,7.57
15.69908213615417,3,3,3,1,-9.949999999999999,0.8100000000000001,-1.41,-5.13,1.87,7.57
15.71908211708069,3,3,3,1,-9.550000000000001,0.36,-1.34,-5.6,1.67,7.3
15.71908211708069,3,3,3,1,-9.550000000000001,0.36,-1.34,-5.6,1.67,7.3
15.7390820980072,3,3,3,1,-9.619999999999999,-0.05,-2.27,-5.81,1.38,7.16
15.7390820980072,3,3,3,1,-9.619999999999999,-0.05,-2.27,-5.81,1.38,7.16
15.75908207893372,3,3,3,1,-10.59,-0.38,-2.58,-3.88,-0.41,6.54
15.75908207893372,3,3,3,1,-10.59,-0.38,-2.58,-3.88,-0.41,6.54
15.77908205986023,3,3,3,1,-11.57,-0.9399999999999999,-2.57,-2.32,-0.89,5.17
15.77908205986023,3,3,3,1,-11.57,-0.9399999999999999,-2.57,-2.32,-0.89,5.17
15.79908204078674,3,3,3,1,-13.02,-1.1,-2.22,-2.53,-0.57,3.42
15.79908204078674,3,3,3,1,-13.02,-1.1,-2.22,-2.53,-0.57,3.42
15.82008194923401,3,3,3,1,-13.37,-3.11,-0.21,-3.73,-1.56,1.45
15.82008194923401,3,3,3,1,-13.37,-3.11,-0.21,-3.73,-1.56,1.45
15.84008193016052,3,3,3,1,-14.47,-5.62,1.06,-5.11,-3.65,-1.25
15.84008193016052,3,3,3,1,-14.47,-5.62,1.06,-5.11,-3.65,-1.25
15.86008191108704,3,3,3,1,-14.88,-6.8,2.35,-5.31,-6.15,-6.31
15.86008191108704,3,3,3,1,-14.88,-6.8,2.35,-5.31,-6.15,-6.31
15.88008213043213,3,3,3,1,-13.58,-4.3,3.76,-5.63,-11.35,-9.5
15.88008213043213,3,3,3,1,-13.58,-4.3,3.76,-5.63,-11.35,-9.5
15.90008211135864,3,3,3,1,-10.34,-5.17,-1.06,-12.27,-11.24,-12.47
15.90008211135864,3,3,3,1,-10.34,-5.17,-1.06,-12.27,-11.24,-12.47
15.92008209228516,3,3,3,1,-11.82,-2.77,-3.29,-6.91,-9.779999999999999,-17.54
15.92008209228516,3,3,3,1,-11.82,-2.77,-3.29,-6.91,-9.779999999999999,-17.54
15.94008207321167,3,3,3,1,-16.38,3.85,-3.74,0.04,-9.25,-19.04
15.94008207321167,3,3,3,1,-16.38,3.85,-3.74,0.04,-9.25,-19.04
15.96008205413818,3,3,3,1,-16.64,6.82,-4.55,0.21,-7.39,-18.27
15.96008205413818,3,3,3,1,-16.64,6.82,-4.55,0.21,-7.39,-18.27
15.9800820350647,3,3,3,1,-12.63,5.7,-2.96,-0.77,-5.69,-20.6
15.9800820350647,3,3,3,1,-12.63,5.7,-2.96,-0.77,-5.69,-20.6
16.00008201599121,3,3,3,1,-11.41,4.67,-1.91,1.22,-4.67,-23.37
16.00008201599121,3,3,3,1,-11.41,4.67,-1.91,1.22,-4.67,-23.37
16.02008199691772,3,3,3,1,-11.88,6.26,-2.33,3.25,-3.43,-22.84
16.02008199691772,3,3,3,1,-11.88,6.26,-2.33,3.25,-3.43,-22.84
16.04008197784424,3,3,3,1,-10.3,5.9,-2.74,2.94,-2.64,-22.55
16.04008197784424,3,3,3,1,-10.3,5.9,-2.74,2.94,-2.64,-22.55
16.06008195877075,3,3,3,1,-9.83,5.63,-2.53,2.18,-2.88,-23.02
16.06008195877075,3,3,3,1,-9.83,5.63,-2.53,2.18,-2.88,-23.02
16.08008193969727,3,3,3,1,-8.91,4.64,-2.93,1.45,-2.63,-23.24
16.08008193969727,3,3,3,1,-8.91,4.64,-2.93,1.45,-2.63,-23.24
16.10008192062378,3,3,3,1,-7.56,3.62,-3.09,1.15,-1.95,-22.45
16.10008192062378,3,3,3,1,-7.56,3.62,-3.09,1.15,-1.95,-22.45
16.12008190155029,3,3,3,1,-7.68,2.92,-3.06,4.19,-0.63,-20.84
16.12008190155029,3,3,3,1,-7.68,2.92,-3.06,4.19,-0.63,-20.84
16.14008212089539,3,3,3,1,-7.97,2.19,-3.23,8.48,-0.19,-19.16
16.14008212089539,3,3,3,1,-7.97,2.19,-3.23,8.48,-0.19,-19.16
16.1600821018219,3,3,3,1,-7.89,2.89,-2.95,13.68,-0.72,-17.28
16.1600821018219,3,3,3,1,-7.89,2.89,-2.95,13.68,-0.72,-17.28
16.18008208274841,3,3,3,1,-7.51,4.77,-2.56,17.41,-0.71,-15.2
16.18008208274841,3,3,3,1,-7.51,4.77,-2.56,17.41,-0.71,-15.2
16.20008206367493,3,3,3,1,-6.76,5.73,-2.49,17.4,-0.23,-11.52
16.20008206367493,3,3,3,1,-6.76,5.73,-2.49,17.4,-0.23,-11.52
16.22008204460144,3,3,3,1,-6.12,5.51,-2.41,14.04,1.32,-9.32
16.22008204460144,3,3,3,1,-6.12,5.51,-2.41,14.04,1.32,-9.32
16.24008202552795,3,3,3,1,-5.71,5.39,-2.2,10.77,1.75,-6.53
16.24008202552795,3,3,3,1,-5.71,5.39,-2.2,10.77,1.75,-6.53
16.26008200645447,3,3,3,1,-4.98,5.07,-1.62,8.789999999999999,1.85,-4.16
16.26008200645447,3,3,3,1,-4.98,5.07,-1.62,8.789999999999999,1.85,-4.16
16.28008198738098,3,3,3,1,-4.46,5.46,-1.4,7.5,3.28,-2.11
16.28008198738098,3,3,3,1,-4.46,5.46,-1.4,7.5,3.28,-2.11
16.3000819683075,3,3,3,1,-5.23,1.82,-1.21,3.75,5.66,0.43
16.3000819683075,3,3,3,1,-5.23,1.82,-1.21,3.75,5.66,0.43
16.32008194923401,3,3,3,1,-6.14,-1.04,-1.17,1.05,7.64,3.22
16.32008194923401,3,3,3,1,-6.14,-1.04,-1.17,1.05,7.64,3.22
16.34008193016052,3,3,3,1,-9.43,-3.41,-0.43,0.63,11.39,4.16
16.34008193016052,3,3,3,1,-9.43,-3.41,-0.43,0.63,11.39,4.16
16.36008191108704,3,3,3,1,-13.14,-10.51,2.99,2.73,10.41,0.1
16.36008191108704,3,3,3,1,-13.14,-10.51,2.99,2.73,10.41,0.1
16.38008213043213,3,3,3,1,-15.17,-14.43,6.28,6.17,7.54,-4.35
16.38008213043213,3,3,3,1,-15.17,-14.43,6.28,6.17,7.54,-4.35
16.40008211135864,3,3,3,1,-15.68,-20.07,4.71,8.23,-3.13,-5.23
16.40008211135864,3,3,3,1,-15.68,-20.07,4.71,8.23,-3.13,-5.23
16.42008209228516,3,3,3,1,-12.38,-8.44,2.92,2.32,-5.4,-3.82
16.42008209228516,3,3,3,1,-12.38,-8.44,2.92,2.32,-5.4,-3.82
16.44008207321167,3,3,3,1,-7.32,0.15,-1.57,4.8,-3.34,-3.98
16.44008207321167,3,3,3,1,-7.32,0.15,-1.57,4.8,-3.34,-3.98
16.46008205413818,3,3,3,1,-6.51,5.46,-3.09,-3.97,8.289999999999999,-5.78
16.46008205413818,3,3,3,1,-6.51,5.46,-3.09,-3.97,8.289999999999999,-5.78
16.4800820350647,3,3,3,1,-13.82,-7.79,6.46,-13.75,6.5,9.66
16.4800820350647,3,3,3,1,-13.82,-7.79,6.46,-13.75,6.5,9.66
16.50008201599121,3,3,3,1,-17.19,-16.31,3.86,4.21,-1.94,3.1
16.50008201599121,3,3,3,1,-17.19,-16.31,3.86,4.21,-1.94,3.1
16.52008199691772,3,3,3,1,-13.53,5.31,-2.51,13.87,2.98,9.01
16.52008199691772,3,3,3,1,-13.53,5.31,-2.51,13.87,2.98,9.01
16.54008197784424,3,3,3,2,-8.539999999999999,12,-4.2,8.640000000000001,4.96,10.95
16.54008197784424,3,3,3,2,-8.539999999999999,12,-4.2,8.640000000000001,4.96,10.95
16.56008195877075,3,3,3,2,-7.47,6.64,-7.83,1.55,10.57,10.47
16.56008195877075,3,3,3,2,-7.47,6.64,-7.83,1.55,10.57,10.47
16.58008193969727,3,3,3,2,-8.380000000000001,0.48,-5.1,-3.4,8.66,13.87
16.58008193969727,3,3,3,2,-8.380000000000001,0.48,-5.1,-3.4,8.66,13.87
16.60008192062378,3,3,3,2,-8.93,5.1,-4.9,3.22,7.62,16.1
16.60008192062378,3,3,3,2,-8.93,5.1,-4.9,3.22,7.62,16.1
16.62008190155029,3,3,3,2,-9.1,4,-3.73,3.27,7.61,15.04
16.62008190155029,3,3,3,2,-9.1,4,-3.73,3.27,7.61,15.04
16.64008212089539,3,3,3,2,-10.11,1.41,-1.54,2.5,6.42,14.53
16.64008212089539,3,3,3,2,-10.11,1.41,-1.54,2.5,6.42,14.53
16.6600821018219,3,3,3,2,-9.74,1.74,-1.83,3.03,6.5,14.61
16.6600821018219,3,3,3,2,-9.74,1.74,-1.83,3.03,6.5,14.61
16.68008208274841,3,3,3,2,-8.720000000000001,1.84,-2.88,2.15,6.16,14.35
16.68008208274841,3,3,3,2,-8.720000000000001,1.84,-2.88,2.15,6.16,14.35
16.70008206367493,3,3,3,2,-8.779999999999999,0.99,-3.51,0.82,6.14,13.69
16.70008206367493,3,3,3,2,-8.779999999999999,0.99,-3.51,0.82,6.14,13.69
16.72008204460144,3,3,3,2,-9.06,-0.55,-3.64,-1.44,6.25,12.93
16.72008204460144,3,3,3,2,-9.06,-0.55,-3.64,-1.44,6.25,12.93
16.74008202552795,3,3,3,2,-9.09,-0.34,-2.54,-3.15,4.83,12.69
16.74008202552795,3,3,3,2,-9.09,-0.34,-2.54,-3.15,4.83,12.69
16.76008200645447,3,3,3,2,-9.66,-0.7,-1.98,-5.85,3.97,12.69
16.76008200645447,3,3,3,2,-9.66,-0.7,-1.98,-5.85,3.97,12.69
16.78008198738098,3,3,3,3,-9.65,-2.41,-2.03,-8.99,2.96,12.34
16.78008198738098,3,3,3,3,-9.65,-2.41,-2.03,-8.99,2.96,12.34
16.8000819683075,3,3,3,3,-9.73,-4.31,-1.82,-11.03,3.33,11.55
16.8000819683075,3,3,3,3,-9.73,-4.31,-1.82,-11.03,3.33,11.55
16.82008194923401,3,3,3,3,-10.24,-2.77,-1.7,-11.14,5.2,9.640000000000001
16.82008194923401,3,3,3,3,-10.24,-2.77,-1.7,-11.14,5.2,9.640000000000001
16.84108209609985,3,3,3,3,-10.61,0.75,-2.81,-9.98,5.35,6.25
16.84108209609985,3,3,3,3,-10.61,0.75,-2.81,-9.98,5.35,6.25
16.86108207702637,3,3,3,3,-9.65,2,-3.12,-8.460000000000001,3.46,4.8
16.86108207702637,3,3,3,3,-9.65,2,-3.12,-8.460000000000001,3.46,4.8
16.88108205795288,3,3,3,3,-8.43,2.13,-3.24,-8.050000000000001,1.91,5.61
16.88108205795288,3,3,3,3,-8.43,2.13,-3.24,-8.050000000000001,1.91,5.61
16.90108203887939,3,3,3,3,-8.550000000000001,1.94,-2.72,-7.35,1.91,6.75
16.90108203887939,3,3,3,3,-8.550000000000001,1.94,-2.72,-7.35,1.91,6.75
16.92108201980591,3,3,3,3,-9.07,1.27,-2.36,-8.5,3.42,6.93
16.92108201980591,3,3,3,3,-9.07,1.27,-2.36,-8.5,3.42,6.93
16.94108200073242,3,3,3,3,-8.98,1.77,-2.49,-8.99,4.04,6.41
16.94108200073242,3,3,3,3,-8.98,1.77,-2.49,-8.99,4.04,6.41
16.96108198165894,3,3,3,3,-9.609999999999999,2.29,-2.66,-8.74,3.34,6.43
16.96108198165894,3,3,3,3,-9.609999999999999,2.29,-2.66,-8.74,3.34,6.43
16.98108196258545,3,3,3,3,-9.32,2.09,-2.7,-7.95,2.31,6.77
16.98108196258545,3,3,3,3,-9.32,2.09,-2.7,-7.95,2.31,6.77
17.00108194351196,3,3,3,3,-9.07,1.61,-2.6,-6.75,2.2,6.92
17.00108194351196,3,3,3,3,-9.07,1.61,-2.6,-6.75,2.2,6.92
17.02108192443848,3,3,3,3,-9.18,2.76,-2.39,-5.27,2.49,7.03
17.02108192443848,3,3,3,3,-9.18,2.76,-2.39,-5.27,2.49,7.03
17.04108190536499,3,3,3,3,-9.210000000000001,2.68,-2.48,-6.33,2.74,7.43
17.04108190536499,3,3,3,3,-9.210000000000001,2.68,-2.48,-6.33,2.74,7.43
17.06108212471008,3,3,3,3,-10.08,1.14,-2.2,-7.38,2.71,8.17
17.06108212471008,3,3,3,3,-10.08,1.14,-2.2,-7.38,2.71,8.17
17.0810821056366,3,3,3,3,-10.54,0.49,-2.05,-6.81,2.09,8.58
17.0810821056366,3,3,3,3,-10.54,0.49,-2.05,-6.81,2.09,8.58
17.10108208656311,3,3,3,3,-10.6,-0.6,-1.37,-6.96,1.94,8.140000000000001
17.10108208656311,3,3,3,3,-10.6,-0.6,-1.37,-6.96,1.94,8.140000000000001
17.12108206748962,3,3,3,3,-10.08,-1.22,-1.35,-6.65,1.44,7.34
17.12108206748962,3,3,3,3,-10.08,-1.22,-1.35,-6.65,1.44,7.34
17.14108204841614,3,3,3,3,-10.28,-1.08,-2.07,-5.91,0,6.42
17.14108204841614,3,3,3,3,-10.28,-1.08,-2.07,-5.91,0,6.42
17.16108202934265,3,3,3,3,-11.31,-1.04,-2,-4.02,-1.36,5.14
17.16108202934265,3,3,3,3,-11.31,-1.04,-2,-4.02,-1.36,5.14
17.18108201026917,3,3,3,3,-13.45,-2.61,-1.03,-4.14,-1.43,3.41
17.18108201026917,3,3,3,3,-13.45,-2.61,-1.03,-4.14,-1.43,3.41
17.20108199119568,3,3,3,3,-13.26,-4.13,-0.21,-4.1,-2.69,0.29
17.20108199119568,3,3,3,3,-13.26,-4.13,-0.21,-4.1,-2.69,0.29
17.22108197212219,3,3,3,3,-14.42,-6.99,2.45,-5.47,-4.22,-3.12
17.22108197212219,3,3,3,3,-14.42,-6.99,2.45,-5.47,-4.22,-3.12
17.24108195304871,3,3,3,3,-15.19,-7.42,3.03,-6.47,-7.23,-8.470000000000001
17.24108195304871,3,3,3,3,-15.19,-7.42,3.03,-6.47,-7.23,-8.470000000000001
17.26108193397522,3,3,3,3,-12.23,-2.5,2.26,-8.390000000000001,-11.89,-10.38
17.26108193397522,3,3,3,3,-12.23,-2.5,2.26,-8.390000000000001,-11.89,-10.38
17.28108191490173,3,3,3,3,-9.800000000000001,-5.52,-3.58,-16.98,-9.44,-14.6
17.28108191490173,3,3,3,3,-9.800000000000001,-5.52,-3.58,-16.98,-9.44,-14.6
17.30108213424683,3,3,3,3,-14.56,-1.36,-4.97,-6.32,-8.66,-19.07
17.30108213424683,3,3,3,3,-14.56,-1.36,-4.97,-6.32,-8.66,-19.07
17.32108211517334,3,3,3,3,-17.54,2.94,-4.1,5.42,-9.4,-18.81
17.32108211517334,3,3,3,3,-17.54,2.94,-4.1,5.42,-9.4,-18.81
17.34108209609985,3,3,3,3,-16.39,7.08,-4.42,6.78,-7.69,-19.01
17.34108209609985,3,3,3,3,-16.39,7.08,-4.42,6.78,-7.69,-19.01
17.36108207702637,3,3,3,3,-12.79,5.86,-3.07,3.17,-6.48,-21.73
17.36108207702637,3,3,3,3,-12.79,5.86,-3.07,3.17,-6.48,-21.73
17.38108205795288,3,3,3,3,-12.29,5.56,-2.03,2.94,-5.01,-23.45
17.38108205795288,3,3,3,3,-12.29,5.56,-2.03,2.94,-5.01,-23.45
17.40108203887939,3,3,3,3,-11.93,6.6,-2.26,4.04,-3.71,-23.13
17.40108203887939,3,3,3,3,-11.93,6.6,-2.26,4.04,-3.71,-23.13
17.42108201980591,3,3,3,3,-10.12,6.76,-2.1,2.28,-3.42,-23.56
17.42108201980591,3,3,3,3,-10.12,6.76,-2.1,2.28,-3.42,-23.56
17.44108200073242,3,3,3,3,-10,6.25,-2.58,0.24,-2.77,-24.4
17.44108200073242,3,3,3,3,-10,6.25,-2.58,0.24,-2.77,-24.4
17.46108198165894,3,3,3,3,-8.789999999999999,4.42,-2.68,-0.24,-2.15,-23.84
17.46108198165894,3,3,3,3,-8.789999999999999,4.42,-2.68,-0.24,-2.15,-23.84
17.48108196258545,3,3,3,3,-7.97,3.51,-2.72,3.04,-1.83,-21.89
17.48108196258545,3,3,3,3,-7.97,3.51,-2.72,3.04,-1.83,-21.89
17.50108194351196,3,3,3,3,-7.28,3.74,-2.95,8.119999999999999,-1.55,-19.84
17.50108194351196,3,3,3,3,-7.28,3.74,-2.95,8.119999999999999,-1.55,-19.84
17.52108192443848,3,3,3,3,-7.18,4.27,-3.02,12.61,-0.96,-17.97
17.52108192443848,3,3,3,3,-7.18,4.27,-3.02,12.61,-0.96,-17.97
17.54108190536499,3,3,3,3,-6.36,5.37,-2.73,14.65,-1.51,-16.63
17.54108190536499,3,3,3,3,-6.36,5.37,-2.73,14.65,-1.51,-16.63
17.56108212471008,3,3,3,3,-6.24,5.58,-3.08,14,-0.8100000000000001,-14.06
17.56108212471008,3,3,3,3,-6.24,5.58,-3.08,14,-0.8100000000000001,-14.06
17.5810821056366,3,3,3,3,-5.2,5.02,-3.41,11.44,0.49,-10.05
17.5810821056366,3,3,3,3,-5.2,5.02,-3.41,11.44,0.49,-10.05
17.60108208656311,3,3,3,3,-4.99,5.04,-3.33,9.94,1.81,-8.66
17.60108208656311,3,3,3,3,-4.99,5.04,-3.33,9.94,1.81,-8.66
17.62108206748962,3,3,3,3,-4.8,4.82,-2.22,8.710000000000001,2.03,-6.65
17.62108206748962,3,3,3,3,-4.8,4.82,-2.22,8.710000000000001,2.03,-6.65
17.64108204841614,3,3,3,3,-4.55,4.81,-1.93,6.84,3.99,-4.06
17.64108204841614,3,3,3,3,-4.55,4.81,-1.93,6.84,3.99,-4.06
17.66108202934265,3,3,3,3,-5.27,0.92,-1.34,3.49,6.87,-0.93
17.66108202934265,3,3,3,3,-5.27,0.92,-1.34,3.49,6.87,-0.93
17.68108201026917,3,3,3,3,-7.53,-1.18,-0.26,4.14,8.27,1.99
17.68108201026917,3,3,3,3,-7.53,-1.18,-0.26,4.14,8.27,1.99
17.70108199119568,3,3,3,3,-9.880000000000001,-2.82,0.87,8.19,6.6,3.12
17.70108199119568,3,3,3,3,-9.880000000000001,-2.82,0.87,8.19,6.6,3.12
17.72108197212219,3,3,3,3,-13.3,-10.23,4.23,13.65,4.02,1.58
17.72108197212219,3,3,3,3,-13.3,-10.23,4.23,13.65,4.02,1.58
17.74108195304871,3,3,3,3,-15.25,-14.24,6.06,14.92,3.25,-2.05
17.74108195304871,3,3,3,3,-15.25,-14.24,6.06,14.92,3.25,-2.05
17.76108193397522,3,3,3,3,-15.32,-17.24,4.83,12.41,-7.38,-5.28
17.76108193397522,3,3,3,3,-15.32,-17.24,4.83,12.41,-7.38,-5.28
17.78108191490173,3,3,3,3,-10.85,-4.54,2.37,1.1,-4.9,-4.41
17.78108191490173,3,3,3,3,-10.85,-4.54,2.37,1.1,-4.9,-4.41
17.80108213424683,3,3,3,3,-6.75,0.89,-2.12,-0.3,0.77,-4.28
17.80108213424683,3,3,3,3,-6.75,0.89,-2.12,-0.3,0.77,-4.28
17.82108211517334,3,3,3,3,-6.35,1.9,-3.29,-6.99,14.84,-7.08
17.82108211517334,3,3,3,3,-6.35,1.9,-3.29,-6.99,14.84,-7.08
17.84108209609985,3,3,3,3,-14.44,-7.37,7.57,-10.28,6.83,9.42
17.84108209609985,3,3,3,3,-14.44,-7.37,7.57,-10.28,6.83,9.42
17.86208200454712,3,3,3,3,-17.86,-14.03,5.4,5.87,-3.94,3.96
17.86208200454712,3,3,3,3,-17.86,-14.03,5.4,5.87,-3.94,3.96
17.88208198547363,3,3,3,3,-13.62,8.35,-2.42,16.14,2.33,9.43
17.88208198547363,3,3,3,3,-13.62,8.35,-2.42,16.14,2.33,9.43
17.90208196640015,3,3,3,3,-10.52,10.45,-5.58,3.71,8.109999999999999,9.960000000000001
17.90208196640015,3,3,3,3,-10.52,10.45,-5.58,3.71,8.109999999999999,9.960000000000001
17.92208194732666,3,3,3,3,-6.08,5.66,-8.550000000000001,0.2,12.06,10.47
17.92208194732666,3,3,3,3,-6.08,5.66,-8.550000000000001,0.2,12.06,10.47
17.94208192825317,3,3,3,3,-8.23,0.4,-5.03,-2.95,10.37,14.32
17.94208192825317,3,3,3,3,-8.23,0.4,-5.03,-2.95,10.37,14.32
17.96208190917969,3,3,3,3,-9.43,5.58,-4.3,1.28,7.47,14.83
17.96208190917969,3,3,3,3,-9.43,5.58,-4.3,1.28,7.47,14.83
17.98208212852478,3,3,3,3,-9.109999999999999,4.07,-3.65,-0.46,7.16,13.44
17.98208212852478,3,3,3,3,-9.109999999999999,4.07,-3.65,-0.46,7.16,13.44
18.00208210945129,3,3,3,3,-10.36,1.87,-1.77,-2,6.26,13.1
18.00208210945129,3,3,3,3,-10.36,1.87,-1.77,-2,6.26,13.1
18.02208209037781,3,3,3,3,-10.15,2.49,-2.11,-2.03,6.4,13.53
18.02208209037781,3,3,3,3,-10.15,2.49,-2.11,-2.03,6.4,13.53
18.04208207130432,3,3,3,3,-8.800000000000001,1.41,-3.29,-2.75,6.41,13.63
18.04208207130432,3,3,3,3,-8.800000000000001,1.41,-3.29,-2.75,6.41,13.63
18.06208205223083,3,3,3,3,-8.59,0.06,-3.53,-2.73,6.01,13.04
18.06208205223083,3,3,3,3,-8.59,0.06,-3.53,-2.73,6.01,13.04
18.08208203315735,3,3,3,3,-8.82,-0.52,-3.54,-3.29,5.88,12.25
18.08208203315735,3,3,3,3,-8.82,-0.52,-3.54,-3.29,5.88,12.25
18.10208201408386,3,3,3,3,-9.17,0.08,-2.53,-4.72,4.85,11.72
18.10208201408386,3,3,3,3,-9.17,0.08,-2.53,-4.72,4.85,11.72
18.12208199501038,3,3,3,3,-9.58,-0.7,-1.78,-7.32,4.29,11.46
18.12208199501038,3,3,3,3,-9.58,-0.7,-1.78,-7.32,4.29,11.46
18.14208197593689,3,3,3,3,-9.48,-1.92,-2.16,-9.81,4.27,10.92
18.14208197593689,3,3,3,3,-9.48,-1.92,-2.16,-9.81,4.27,10.92
18.1620819568634,3,3,3,3,-9.710000000000001,-3.08,-1.95,-9.539999999999999,4.01,9.84
18.1620819568634,3,3,3,3,-9.710000000000001,-3.08,-1.95,-9.539999999999999,4.01,9.84
18.18208193778992,3,3,3,3,-9.99,-1.97,-1.95,-9.98,4.44,9.73
18.18208193778992,3,3,3,3,-9.99,-1.97,-1.95,-9.98,4.44,9.73
18.20208191871643,3,3,3,3,-10.04,-0.52,-2.48,-9.98,3.98,8.869999999999999
18.20208191871643,3,3,3,3,-10.04,-0.52,-2.48,-9.98,3.98,8.869999999999999
18.22208189964294,3,3,3,3,-9.33,0.14,-2.83,-9.42,2.94,7.95
18.22208189964294,3,3,3,3,-9.33,0.14,-2.83,-9.42,2.94,7.95
18.24208211898804,3,3,3,3,-8.91,1.28,-3.15,-8.44,2.76,7.82
18.24208211898804,3,3,3,3,-8.91,1.28,-3.15,-8.44,2.76,7.82
18.26208209991455,3,3,3,3,-9.44,1.75,-3,-8,2.63,7.98
18.26208209991455,3,3,3,3,-9.44,1.75,-3,-8,2.63,7.98
18.28208208084106,3,3,3,3,-9.48,1.66,-2.39,-7.89,2.18,7.7
18.28208208084106,3,3,3,3,-9.48,1.66,-2.39,-7.89,2.18,7.7
18.30208206176758,3,3,3,3,-9.16,1.43,-2.27,-7.63,2.35,7.09
18.30208206176758,3,3,3,3,-9.16,1.43,-2.27,-7.63,2.35,7.09
18.32208204269409,3,3,3,3,-9.08,1.62,-2.45,-8.18,3.09,6.81
18.32208204269409,3,3,3,3,-9.08,1.62,-2.45,-8.18,3.09,6.81
18.34208202362061,3,3,3,3,-9.26,2.2,-2.26,-7.62,2.72,7.02
18.34208202362061,3,3,3,3,-9.26,2.2,-2.26,-7.62,2.72,7.02
18.36208200454712,3,3,3,3,-9.15,1.79,-2.4,-6.87,2.4,7.43
18.36208200454712,3,3,3,3,-9.15,1.79,-2.4,-6.87,2.4,7.43
18.38208198547363,3,3,3,3,-9.25,2.06,-2.5,-5.43,2.58,7.98
18.38208198547363,3,3,3,3,-9.25,2.06,-2.5,-5.43,2.58,7.98
18.40208196640015,3,3,3,3,-9.26,1.78,-2.77,-5.46,2.62,8.48
18.40208196640015,3,3,3,3,-9.26,1.78,-2.77,-5.46,2.62,8.48
18.42208194732666,3,3,3,3,-10.23,0.24,-2.32,-5.86,2.04,8.970000000000001
18.42208194732666,3,3,3,3,-10.23,0.24,-2.32,-5.86,2.04,8.970000000000001
18.44208192825317,3,3,3,3,-10.68,-0.38,-1.72,-4.83,1.18,8.84
18.44208192825317,3,3,3,3,-10.68,-0.38,-1.72,-4.83,1.18,8.84
18.46208190917969,3,3,3,3,-9.970000000000001,-0.17,-1.48,-3.98,0.78,8.24
18.46208190917969,3,3,3,3,-9.970000000000001,-0.17,-1.48,-3.98,0.78,8.24
18.48208212852478,3,3,3,2,-9.75,0.16,-1.92,-4.75,0.42,7.34
18.48208212852478,3,3,3,2,-9.75,0.16,-1.92,-4.75,0.42,7.34
18.50208210945129,3,3,3,2,-11.5,0.45,-1.94,-4.81,-0.28,6.12
18.50208210945129,3,3,3,2,-11.5,0.45,-1.94,-4.81,-0.28,6.12
18.52208209037781,3,3,3,2,-12.41,-0.6,-2.33,-7.13,0.54,5.16
18.52208209037781,3,3,3,2,-12.41,-0.6,-2.33,-7.13,0.54,5.16
18.54208207130432,3,3,3,2,-13.31,-2.64,-0.84,-6.59,-0.48,3.35
18.54208207130432,3,3,3,2,-13.31,-2.64,-0.84,-6.59,-0.48,3.35
18.56208205223083,3,3,3,2,-13.52,-4.84,0.55,-5.86,-2.88,1.25
18.56208205223083,3,3,3,2,-13.52,-4.84,0.55,-5.86,-2.88,1.25
18.58208203315735,3,3,3,2,-14.56,-8.07,2.02,-4.1,-6.76,-2.66
18.58208203315735,3,3,3,2,-14.56,-8.07,2.02,-4.1,-6.76,-2.66
18.60208201408386,3,3,3,2,-14.25,-6.96,1.85,-0.74,-10.04,-9.42
18.60208201408386,3,3,3,2,-14.25,-6.96,1.85,-0.74,-10.04,-9.42
18.62208199501038,3,3,3,2,-10.63,-6.99,0.37,-6.62,-11.01,-12.73
18.62208199501038,3,3,3,2,-10.63,-6.99,0.37,-6.62,-11.01,-12.73
