timestamp,magCalib,accCalib,gyrCalib,sysCalib,accX,accY,accZ,gyrX,gyrY,gyrZ
0.02008199691772461,2,3,3,3,-9.65,1.46,1.38,0.19,-0.1,-0.03
0.03008198738098145,2,3,3,3,-9.68,1.47,1.42,0.21,-0.1,0.01
0.04008197784423828,2,3,3,3,-9.640000000000001,1.52,1.46,0.29,-0.1,0.07000000000000001
0.05008196830749512,2,3,3,3,-9.65,1.52,1.45,0.38,-0.1,0.12
0.06008195877075195,2,3,3,3,-9.69,1.51,1.45,0.36,-0.05,0.18
0.07008194923400879,2,3,3,3,-9.75,1.52,1.35,0.32,0,0.2
0.08008193969726562,2,3,3,3,-9.65,1.52,1.39,0.26,-0.04,0.24
0.09008193016052246,2,3,3,3,-9.6,1.52,1.4,0.24,-0.03,0.29
0.1000819206237793,2,3,3,3,-9.58,1.53,1.43,0.19,0.04,0.37
0.1100819110870361,2,3,3,3,-9.6,1.55,1.44,0.12,0.05,0.42
0.120081901550293,2,3,3,3,-9.619999999999999,1.58,1.33,0.07000000000000001,0.07000000000000001,0.44
0.1300821304321289,2,3,3,3,-9.640000000000001,1.56,1.36,0.03,-0.01,0.46
0.1400821208953857,2,3,3,3,-9.630000000000001,1.56,1.4,0.03,-0.09,0.41
0.1500821113586426,2,3,3,3,-9.619999999999999,1.58,1.43,0.03,-0.14,0.38
0.1600821018218994,2,3,3,3,-9.65,1.57,1.43,-0.02,-0.14,0.32
0.1700820922851562,2,3,3,3,-9.67,1.55,1.35,-0.08,-0.19,0.27
0.1800820827484131,2,3,3,3,-9.65,1.54,1.35,-0.11,-0.24,0.26
0.1900820732116699,2,3,3,3,-9.59,1.54,1.4,-0.2,-0.17,0.24
0.2000820636749268,2,3,3,3,-9.6,1.54,1.47,-0.36,-0.09,0.24
0.2100820541381836,2,3,3,3,-9.57,1.54,1.49,-0.41,-0.06,0.25
0.2200820446014404,2,3,3,3,-9.609999999999999,1.54,1.39,-0.38,-0.11,0.26
0.2300820350646973,2,3,3,3,-9.630000000000001,1.53,1.42,-0.3,-0.15,0.27
0.2400820255279541,2,3,3,3,-9.609999999999999,1.51,1.37,-0.26,-0.19,0.29
0.2500820159912109,2,3,3,3,-9.57,1.53,1.38,-0.29,-0.19,0.29
0.2600820064544678,2,3,3,3,-9.609999999999999,1.55,1.46,-0.4,-0.26,0.23
0.3000819683074951,2,3,3,3,-9.65,1.57,1.46,-0.76,-0.61,-0.16
0.310081958770752,2,3,3,3,-9.57,1.5,1.46,-0.79,-0.64,-0.24
0.3200819492340088,2,3,3,3,-9.58,1.51,1.43,-0.79,-0.64,-0.26
0.3300819396972656,2,3,3,3,-9.59,1.49,1.5,-0.77,-0.62,-0.26
0.3400819301605225,2,3,3,3,-9.57,1.5,1.59,-0.66,-0.62,-0.26
0.3500819206237793,2,3,3,3,-9.59,1.54,1.58,-0.5,-0.62,-0.23
0.3600819110870361,2,3,3,3,-9.609999999999999,1.55,1.52,-0.36,-0.6,-0.27
0.370081901550293,2,3,3,3,-9.68,1.56,1.39,-0.39,-0.57,-0.28
0.3800821304321289,2,3,3,3,-9.69,1.58,1.46,-0.51,-0.65,-0.32
0.3900821208953857,2,3,3,3,-9.68,1.58,1.51,-0.55,-0.65,-0.37
0.4000821113586426,2,3,3,3,-9.65,1.56,1.52,-0.63,-0.71,-0.44
0.4100821018218994,2,3,3,3,-9.609999999999999,1.58,1.55,-0.62,-0.8100000000000001,-0.46
0.4200820922851562,2,3,3,3,-9.539999999999999,1.61,1.49,-0.62,-0.87,-0.49
0.4300820827484131,2,3,3,3,-9.539999999999999,1.63,1.58,-0.5600000000000001,-0.86,-0.48
0.4500820636749268,2,3,3,3,-9.66,1.6,1.58,-0.49,-0.66,-0.53
0.4600820541381836,2,3,3,3,-9.640000000000001,1.57,1.62,-0.49,-0.5600000000000001,-0.5600000000000001
0.4700820446014404,2,3,3,3,-9.59,1.53,1.54,-0.53,-0.47,-0.55
0.4800820350646973,2,3,3,3,-9.529999999999999,1.51,1.58,-0.61,-0.35,-0.54
0.4900820255279541,2,3,3,3,-9.52,1.46,1.66,-0.72,-0.26,-0.47
0.5000820159912109,2,3,3,3,-9.59,1.44,1.74,-0.77,-0.24,-0.38
0.5100820064544678,2,3,3,3,-9.630000000000001,1.44,1.71,-0.74,-0.26,-0.33
0.5200819969177246,2,3,3,3,-9.66,1.41,1.63,-0.59,-0.35,-0.26
0.5300819873809814,2,3,3,3,-9.710000000000001,1.38,1.67,-0.37,-0.37,-0.19
0.5400819778442383,2,3,3,3,-9.68,1.43,1.68,-0.21,-0.39,-0.1
0.5500819683074951,2,3,3,3,-9.65,1.42,1.68,-0.15,-0.38,0.03
0.560081958770752,2,3,3,3,-9.59,1.47,1.7,-0.1,-0.34,0.11
0.5700819492340088,2,3,3,3,-9.59,1.52,1.59,-0.1,-0.28,0.18
0.5800819396972656,2,3,3,3,-9.59,1.5,1.6,-0.16,-0.18,0.18
0.5900819301605225,2,3,3,3,-9.6,1.51,1.64,-0.21,-0.15,0.15
0.6000819206237793,2,3,3,3,-9.58,1.5,1.66,-0.25,-0.12,0.12
0.6100819110870361,2,3,3,3,-9.57,1.49,1.63,-0.27,-0.1,0.08
0.620081901550293,2,3,3,3,-9.59,1.48,1.61,-0.31,-0.12,0.02
0.6300821304321289,2,3,3,3,-9.59,1.5,1.66,-0.36,-0.23,-0.06
0.6400821208953857,2,3,3,3,-9.609999999999999,1.48,1.66,-0.34,-0.33,-0.08
0.6500821113586426,2,3,3,3,-9.630000000000001,1.54,1.76,-0.32,-0.41,-0.18
0.6600821018218994,2,3,3,3,-9.609999999999999,1.56,1.72,-0.25,-0.47,-0.21
0.6700820922851562,2,3,3,3,-9.630000000000001,1.54,1.59,-0.16,-0.46,-0.2
0.6800820827484131,2,3,3,3,-9.6,1.49,1.59,-0.12,-0.33,-0.15
0.6900820732116699,2,3,3,3,-9.609999999999999,1.45,1.66,-0.23,-0.15,-0.18
0.7000820636749268,2,3,3,3,-9.6,1.42,1.68,-0.31,-0.08,-0.16
0.7100820541381836,2,3,3,3,-9.59,1.43,1.71,-0.35,-0.13,-0.14
0.7200820446014404,2,3,3,3,-9.58,1.41,1.66,-0.32,-0.14,-0.13
0.7300820350646973,2,3,3,3,-9.58,1.43,1.71,-0.26,-0.1,-0.16
0.7400820255279541,2,3,3,3,-9.619999999999999,1.43,1.74,-0.23,-0.11,-0.12
0.7500820159912109,2,3,3,3,-9.6,1.44,1.74,-0.23,-0.12,-0.13
0.7600820064544678,2,3,3,3,-9.6,1.38,1.7,-0.11,-0.15,-0.1
0.7700819969177246,2,3,3,3,-9.609999999999999,1.38,1.67,-0.04,-0.2,-0.07000000000000001
0.7800819873809814,2,3,3,3,-9.66,1.38,1.69,0.06,-0.22,-0.04
0.7900819778442383,2,3,3,3,-9.67,1.38,1.71,0.21,-0.22,-0.02
0.8000819683074951,2,3,3,2,-9.699999999999999,1.37,1.72,0.32,-0.15,0.04
0.810081958770752,2,3,3,2,-9.68,1.41,1.74,0.33,-0.07000000000000001,0.12
0.8200819492340088,2,3,3,2,-9.640000000000001,1.42,1.68,0.31,-0.05,0.16
0.8300819396972656,2,3,3,2,-9.57,1.48,1.69,0.34,-0.06,0.22
0.8400819301605225,2,3,3,2,-9.539999999999999,1.57,1.76,0.36,-0.11,0.3
0.8500819206237793,2,3,3,2,-9.539999999999999,1.6,1.75,0.33,-0.1,0.31
0.8600819110870361,2,3,3,2,-9.56,1.62,1.7,0.34,-0.14,0.32
0.870081901550293,2,3,3,2,-9.56,1.63,1.62,0.31,-0.16,0.27
0.8800821304321289,2,3,3,2,-9.56,1.62,1.63,0.21,-0.12,0.21
0.8900821208953857,2,3,3,2,-9.56,1.62,1.65,0.09,-0.09,0.15
0.9000821113586426,2,3,3,2,-9.550000000000001,1.61,1.69,-0.08,-0.03,0.08
0.9100821018218994,2,3,3,2,-9.58,1.56,1.67,-0.22,-0.01,0.08
0.9200820922851562,2,3,3,2,-9.539999999999999,1.55,1.62,-0.33,-0.01,0.07000000000000001
0.9300820827484131,2,3,3,2,-9.539999999999999,1.55,1.65,-0.43,0.02,0.09
0.9400820732116699,2,3,3,2,-9.58,1.51,1.69,-0.45,0.06,0.12
0.9500820636749268,2,3,3,2,-9.65,1.5,1.73,-0.52,0.06,0.12
0.9600820541381836,2,3,3,2,-9.65,1.51,1.7,-0.54,0.04,0.1
0.9700820446014404,2,3,3,2,-9.640000000000001,1.47,1.62,-0.49,0.01,0.11
0.9810819625854492,2,3,3,2,-9.6,1.49,1.65,-0.5,-0.02,0.12
0.9910819530487061,2,3,3,2,-9.59,1.45,1.73,-0.49,-0.03,0.13
1.001081943511963,2,3,3,2,-9.56,1.45,1.75,-0.54,-0.01,0.1
1.01108193397522,2,3,3,2,-9.56,1.45,1.75,-0.6,-0.01,0.08
1.021081924438477,2,3,3,2,-9.58,1.38,1.67,-0.6,-0.01,0.01
1.031081914901733,2,3,3,2,-9.57,1.33,1.72,-0.53,-0.05,-0.06
1.04108190536499,2,3,3,2,-9.56,1.34,1.77,-0.48,-0.08,-0.1
1.051082134246826,2,3,3,2,-9.58,1.36,1.8,-0.36,-0.07000000000000001,-0.09
1.061082124710083,2,3,3,2,-9.619999999999999,1.37,1.81,-0.31,-0.01,-0.12
1.07108211517334,2,3,3,2,-9.640000000000001,1.42,1.66,-0.23,0.01,-0.1
1.081082105636597,2,3,3,2,-9.65,1.41,1.69,-0.2,-0.01,-0.12
1.091082096099854,2,3,3,2,-9.619999999999999,1.4,1.74,-0.22,-0.09,-0.12
1.10108208656311,2,3,3,2,-9.619999999999999,1.37,1.74,-0.29,-0.13,-0.09
1.111082077026367,2,3,3,2,-9.619999999999999,1.34,1.76,-0.42,-0.12,-0.1
1.121082067489624,2,3,3,2,-9.6,1.33,1.74,-0.4,-0.13,-0.08
1.131082057952881,2,3,3,2,-9.58,1.29,1.77,-0.32,-0.09,-0.03
1.141082048416138,2,3,3,2,-9.56,1.32,1.83,-0.2,-0.08,-0.02
1.151082038879395,2,3,3,2,-9.56,1.33,1.83,-0.04,-0.05,0.01
1.161082029342651,2,3,3,2,-9.6,1.35,1.76,0.11,0.01,0.01
1.171082019805908,2,3,3,2,-9.619999999999999,1.36,1.71,0.13,0.03,0
1.181082010269165,2,3,3,2,-9.619999999999999,1.39,1.75,0.1,0.02,0.03
1.201081991195679,2,3,3,2,-9.609999999999999,1.39,1.81,0.08,-0.12,0.03
1.211081981658936,2,3,3,2,-9.609999999999999,1.38,1.79,0.06,-0.17,0.02
1.221081972122192,2,3,3,2,-9.640000000000001,1.37,1.73,0.07000000000000001,-0.15,0
1.231081962585449,2,3,3,2,-9.609999999999999,1.34,1.75,0.08,-0.12,-0.04
1.241081953048706,2,3,3,2,-9.609999999999999,1.36,1.8,0.09,-0.14,-0.04
1.251081943511963,2,3,3,2,-9.6,1.37,1.75,0.12,-0.13,-0.07000000000000001
1.26108193397522,2,3,3,2,-9.6,1.38,1.79,0.15,-0.12,-0.07000000000000001
1.29108190536499,2,3,3,2,-9.6,1.42,1.76,0.27,-0.1,-0.02
1.301082134246826,2,3,3,2,-9.6,1.42,1.76,0.27,-0.1,-0.02
1.311082124710083,2,3,3,2,-9.609999999999999,1.44,1.77,0.3,-0.04,-0.06
1.32108211517334,2,3,3,2,-9.609999999999999,1.42,1.64,0.22,-0.1,-0.1
1.331082105636597,2,3,3,2,-9.6,1.46,1.75,0.19,-0.14,-0.11
1.341082096099854,2,3,3,2,-9.619999999999999,1.46,1.77,0.13,-0.19,-0.08
1.35108208656311,2,3,3,2,-9.619999999999999,1.47,1.78,0.06,-0.15,-0.05
1.361082077026367,2,3,3,2,-9.619999999999999,1.47,1.78,0.02,-0.1,-0.04
1.371082067489624,2,3,3,2,-9.640000000000001,1.49,1.8,-0.04,-0.1,-0.01
1.381082057952881,2,3,3,2,-9.58,1.46,1.68,-0.09,-0.1,0.01
1.391082048416138,2,3,3,2,-9.56,1.46,1.78,-0.13,-0.09,-0.05
1.401082038879395,2,3,3,2,-9.529999999999999,1.43,1.76,-0.15,-0.07000000000000001,-0.02
1.411082029342651,2,3,3,2,-9.529999999999999,1.44,1.77,-0.11,-0.01,-0.04
1.421082019805908,2,3,3,2,-9.58,1.4,1.77,-0.11,0,-0.04
1.431082010269165,2,3,3,2,-9.619999999999999,1.39,1.69,-0.11,0.06,-0.09
1.441082000732422,2,3,3,2,-9.619999999999999,1.41,1.72,-0.15,0.04,-0.08
1.451081991195679,2,3,3,2,-9.619999999999999,1.38,1.74,-0.15,0.04,-0.08
1.461081981658936,2,3,3,2,-9.609999999999999,1.36,1.83,-0.21,0,-0.05
1.471081972122192,2,3,3,2,-9.609999999999999,1.36,1.8,-0.21,-0.01,0.01
1.481081962585449,2,3,3,2,-9.609999999999999,1.35,1.69,-0.21,-0.01,0.05
1.491081953048706,2,3,3,2,-9.59,1.36,1.72,-0.19,0.04,0.05
1.501081943511963,2,3,3,2,-9.59,1.33,1.79,-0.15,0.06,0.08
1.51108193397522,2,3,3,2,-9.59,1.32,1.8,-0.14,0.07000000000000001,0.05
1.521081924438477,2,3,3,2,-9.58,1.33,1.82,-0.09,0.07000000000000001,0.09
1.531081914901733,2,3,3,2,-9.59,1.33,1.7,-0.04,0.08,0.09
1.54108190536499,2,3,3,2,-9.619999999999999,1.34,1.73,0.01,0.09,0.1
1.551082134246826,2,3,3,2,-9.6,1.33,1.76,0.06,0.07000000000000001,0.07000000000000001
1.561082124710083,2,3,3,2,-9.609999999999999,1.32,1.76,0.05,0.03,0.06
1.57108211517334,2,3,3,2,-9.619999999999999,1.3,1.7,0.01,0.08,-0.01
1.581082105636597,2,3,3,2,-9.619999999999999,1.33,1.7,-0.06,0.06,-0.04
1.591082096099854,2,3,3,2,-9.619999999999999,1.3,1.76,-0.11,0.01,-0.08
1.60108208656311,2,3,3,2,-9.6,1.31,1.79,-0.11,0.01,-0.08
1.611082077026367,2,3,3,2,-9.619999999999999,1.29,1.84,0.03,-0.08,-0.09
1.621082067489624,2,3,3,2,-9.640000000000001,1.27,1.82,0.14,-0.1,-0.12
1.631082057952881,2,3,3,2,-9.640000000000001,1.31,1.74,0.26,-0.04,-0.07000000000000001
1.641082048416138,2,3,3,2,-9.619999999999999,1.3,1.77,0.29,0,-0.04
1.651082038879395,2,3,3,2,-9.65,1.3,1.8,0.29,0,-0.04
1.661082029342651,2,3,3,2,-9.630000000000001,1.31,1.79,0.28,-0.01,0
1.671082019805908,2,3,3,2,-9.619999999999999,1.32,1.84,0.26,-0.02,0.08
1.681082010269165,2,3,3,2,-9.630000000000001,1.32,1.75,0.31,-0.05,0.12
1.691082000732422,2,3,3,2,-9.56,1.39,1.78,0.37,-0.11,0.08
1.701081991195679,2,3,3,2,-9.550000000000001,1.4,1.8,0.37,-0.11,0.08
1.711081981658936,2,3,3,2,-9.56,1.41,1.84,0.41,-0.1,0.13
1.721081972122192,2,3,3,2,-9.58,1.44,1.73,0.36,-0.08,0.11
1.731081962585449,2,3,3,2,-9.58,1.44,1.68,0.3,-0.03,0.12
1.741081953048706,2,3,3,2,-9.59,1.47,1.71,0.21,0.01,0.09
1.751081943511963,2,3,3,2,-9.56,1.43,1.7,0.21,0.01,0.09
1.76108193397522,2,3,3,2,-9.58,1.42,1.79,0.07000000000000001,-0.01,0.01
1.771081924438477,2,3,3,2,-9.59,1.45,1.76,0.01,-0.05,0.03
1.781081914901733,2,3,3,2,-9.57,1.44,1.7,0.01,-0.05,0.03
1.79108190536499,2,3,3,2,-9.59,1.42,1.74,-0.02,-0.04,0.01
1.801082134246826,2,3,3,2,-9.6,1.42,1.8,-0.02,-0.06,-0.02
1.811082124710083,2,3,3,2,-9.619999999999999,1.39,1.76,-0.04,-0.03,-0.02
1.82108211517334,2,3,3,2,-9.619999999999999,1.39,1.79,-0.06,-0.03,-0.01
1.831082105636597,2,3,3,2,-9.619999999999999,1.37,1.72,-0.09,-0.02,-0.01
1.841082096099854,2,3,3,2,-9.58,1.33,1.77,-0.09,-0.01,-0.03
1.85108208656311,2,3,3,2,-9.58,1.32,1.83,0,-0.02,-0.04
1.861082077026367,2,3,3,2,-9.59,1.34,1.83,0.04,0.01,-0.04
1.871082067489624,2,3,3,2,-9.619999999999999,1.36,1.85,0.06,-0.01,0
1.881082057952881,2,3,3,2,-9.58,1.42,1.71,0.12,-0.03,0.04
1.891082048416138,2,3,3,2,-9.58,1.43,1.71,0.17,-0.07000000000000001,0.09
1.901082038879395,2,3,3,2,-9.59,1.45,1.77,0.19,-0.07000000000000001,0.09
1.911082029342651,2,3,3,2,-9.6,1.44,1.77,0.14,-0.02,0.11
1.921082019805908,2,3,3,2,-9.630000000000001,1.45,1.76,0.06,-0.01,0.08
1.931082010269165,2,3,3,2,-9.6,1.43,1.7,0.03,0,0.06
1.941082000732422,2,3,3,2,-9.6,1.43,1.72,0,-0.01,0.02
1.951081991195679,2,3,3,2,-9.6,1.42,1.8,-0.04,-0.02,-0.01
1.961081981658936,2,3,3,2,-9.6,1.42,1.79,-0.06,-0.04,-0.01
1.971081972122192,2,3,3,2,-9.59,1.43,1.82,-0.08,-0.06,0
2.002082109451294,2,3,3,2,-9.58,1.45,1.77,-0.04,-0.07000000000000001,0.04
2.012082099914551,2,3,3,2,-9.58,1.47,1.81,0.02,-0.03,0.02
2.022082090377808,2,3,3,2,-9.6,1.45,1.79,0,-0.03,0.02
2.032082080841064,2,3,3,2,-9.58,1.46,1.66,0.02,-0.05,0.03
2.042082071304321,2,3,3,2,-9.59,1.42,1.71,-0.05,-0.05,0.05
2.052082061767578,2,3,3,2,-9.609999999999999,1.43,1.75,-0.18,-0.05,0.06
2.062082052230835,2,3,3,2,-9.609999999999999,1.41,1.77,-0.28,-0.01,0.08
2.072082042694092,2,3,3,2,-9.6,1.35,1.74,-0.32,0.04,0.08
2.082082033157349,2,3,3,2,-9.6,1.35,1.71,-0.29,0.08,0.08
2.092082023620605,2,3,3,2,-9.59,1.34,1.78,-0.25,0.06,0.02
2.102082014083862,2,3,3,2,-9.630000000000001,1.38,1.81,-0.16,0.03,0.03
2.112082004547119,2,3,3,2,-9.630000000000001,1.37,1.79,-0.08,-0.03,0.08
2.122081995010376,2,3,3,2,-9.619999999999999,1.35,1.76,-0.05,-0.02,0.09
2.132081985473633,2,3,3,2,-9.59,1.36,1.69,-0.03,-0.05,0.12
2.14208197593689,2,3,3,2,-9.6,1.32,1.74,-0.06,-0.05,0.14
2.152081966400146,2,3,3,2,-9.56,1.33,1.78,-0.04,-0.03,0.14
2.162081956863403,2,3,3,2,-9.56,1.34,1.79,0.02,0.02,0.15
2.17208194732666,2,3,3,2,-9.6,1.31,1.82,0.07000000000000001,0.05,0.09
2.182081937789917,2,3,3,2,-9.6,1.33,1.72,0.13,0.02,0.05
2.192081928253174,2,3,3,2,-9.58,1.35,1.74,0.24,0,0.04
2.202081918716431,2,3,3,2,-9.59,1.39,1.75,0.31,0,0.03
2.212081909179688,2,3,3,2,-9.619999999999999,1.35,1.77,0.32,0.02,0.07000000000000001
2.222081899642944,2,3,3,2,-9.630000000000001,1.41,1.74,0.29,-0.01,0.05
2.23208212852478,2,3,3,2,-9.609999999999999,1.41,1.67,0.17,-0.02,0.03
2.242082118988037,2,3,3,2,-9.609999999999999,1.41,1.72,0.11,-0.02,-0.01
2.252082109451294,2,3,3,2,-9.59,1.41,1.76,0.08,-0.07000000000000001,-0.03
2.262082099914551,2,3,3,2,-9.58,1.41,1.81,0.13,-0.11,-0.06
2.272082090377808,2,3,3,2,-9.58,1.41,1.79,0.22,-0.13,-0.04
2.282082080841064,2,3,3,2,-9.56,1.41,1.69,0.28,-0.09,-0.03
2.292082071304321,2,3,3,2,-9.58,1.43,1.69,0.32,0,0
2.302082061767578,2,3,3,2,-9.58,1.43,1.72,0.27,0.06,0.06
2.312082052230835,2,3,3,2,-9.59,1.45,1.77,0.23,0.09,0.05
2.322082042694092,2,3,3,2,-9.58,1.44,1.76,0.16,0.07000000000000001,0.08
2.332082033157349,2,3,3,2,-9.6,1.45,1.69,0.12,0.08,0.08
2.342082023620605,2,3,3,2,-9.609999999999999,1.44,1.76,0.04,0.02,0.06
2.352082014083862,2,3,3,2,-9.6,1.43,1.78,0.07000000000000001,-0.06,0.05
2.362082004547119,2,3,3,2,-9.619999999999999,1.44,1.77,0.09,-0.04,0.03
2.372081995010376,2,3,3,2,-9.630000000000001,1.45,1.75,0.1,0,-0.03
2.382081985473633,2,3,3,2,-9.59,1.41,1.69,0.12,-0.04,-0.01
2.39208197593689,2,3,3,2,-9.57,1.42,1.73,0.11,-0.06,0.03
2.402081966400146,2,3,3,2,-9.59,1.44,1.77,0.14,-0.03,0.05
2.412081956863403,2,3,3,3,-9.58,1.44,1.76,0.19,-0.01,0.1
2.42208194732666,2,3,3,3,-9.57,1.47,1.76,0.22,0.03,0.12
2.432081937789917,2,3,3,3,-9.6,1.48,1.65,0.16,0.05,0.12
2.442081928253174,2,3,3,3,-9.6,1.48,1.71,0.12,0.05,0.12
2.452081918716431,2,3,3,3,-9.6,1.47,1.76,0.07000000000000001,0.03,0.1
2.462081909179688,2,3,3,3,-9.609999999999999,1.47,1.74,0.05,-0.01,0.05
2.472081899642944,2,3,3,3,-9.59,1.47,1.76,0.01,-0.02,0.02
2.48208212852478,2,3,3,3,-9.59,1.47,1.7,-0.05,-0.03,0.02
2.492082118988037,2,3,3,3,-9.58,1.46,1.74,-0.04,-0.01,0
2.502082109451294,2,3,3,3,-9.59,1.43,1.75,-0.03,0.01,0.01
2.512082099914551,2,3,3,3,-9.59,1.41,1.8,-0.08,0.04,0.03
2.522082090377808,2,3,3,3,-9.619999999999999,1.39,1.74,-0.12,0.01,0.03
2.532082080841064,2,3,3,3,-9.59,1.4,1.7,-0.05,0.02,0.02
2.542082071304321,2,3,3,3,-9.58,1.41,1.75,0,-0.01,0.07000000000000001
2.552082061767578,2,3,3,3,-9.609999999999999,1.41,1.75,0.09,-0.01,0.07000000000000001
2.562082052230835,2,3,3,3,-9.6,1.4,1.75,0.16,0.04,0.07000000000000001
2.572082042694092,2,3,3,3,-9.59,1.42,1.74,0.21,0.02,0.09
2.582082033157349,2,3,3,3,-9.630000000000001,1.43,1.65,0.17,0.05,0.09
2.592082023620605,2,3,3,3,-9.609999999999999,1.47,1.68,0.11,0,0.09
2.602082014083862,2,3,3,3,-9.59,1.47,1.75,0.03,-0.03,0.05
2.612082004547119,2,3,3,3,-9.58,1.45,1.74,-0.04,-0.04,0.03
2.622081995010376,2,3,3,3,-9.58,1.46,1.8,-0.13,-0.04,0.03
2.632081985473633,2,3,3,3,-9.56,1.45,1.71,-0.12,-0.07000000000000001,0
2.64208197593689,2,3,3,3,-9.58,1.41,1.73,-0.04,-0.07000000000000001,-0.01
2.652081966400146,2,3,3,3,-9.57,1.4,1.78,0.02,-0.04,-0.01
2.662081956863403,2,3,3,3,-9.58,1.41,1.77,0.09,-0.01,0.01
2.67208194732666,2,3,3,3,-9.619999999999999,1.42,1.76,0.12,0.04,0.02
2.682081937789917,2,3,3,3,-9.65,1.43,1.67,0.08,0.08,-0.01
2.692081928253174,2,3,3,3,-9.630000000000001,1.42,1.7,0.04,0.03,0.02
2.702081918716431,2,3,3,3,-9.609999999999999,1.43,1.71,0.05,0.01,0.01
2.712081909179688,2,3,3,3,-9.58,1.42,1.77,0,0,0.01
2.722081899642944,2,3,3,3,-9.58,1.45,1.74,-0.02,-0.02,0
2.73208212852478,2,3,3,3,-9.6,1.42,1.69,0.02,-0.07000000000000001,-0.02
2.742082118988037,2,3,3,3,-9.59,1.45,1.72,0.08,-0.03,-0.06
2.752082109451294,2,3,3,3,-9.609999999999999,1.43,1.77,0.11,-0.07000000000000001,-0.08
2.762082099914551,2,3,3,3,-9.6,1.45,1.8,0.14,-0.05,-0.08
2.772082090377808,2,3,3,3,-9.619999999999999,1.45,1.78,0.11,-0.01,-0.1
2.782082080841064,2,3,3,3,-9.609999999999999,1.43,1.71,0.08,-0.01,-0.12
2.792082071304321,2,3,3,3,-9.59,1.48,1.74,0.06,-0.02,-0.06
2.802082061767578,2,3,3,3,-9.56,1.47,1.78,0.04,-0.06,-0.03
2.812082052230835,2,3,3,3,-9.57,1.45,1.79,0.04,-0.05,0
2.822082042694092,2,3,3,3,-9.59,1.48,1.79,0.09,-0.07000000000000001,0.04
2.832082033157349,2,3,3,3,-9.6,1.47,1.66,0.14,-0.02,0
2.842082023620605,2,3,3,3,-9.6,1.48,1.72,0.13,0,0.01
2.853081941604614,2,3,3,3,-9.619999999999999,1.46,1.73,0.02,0.07000000000000001,-0.01
2.862082004547119,2,3,3,3,-9.630000000000001,1.46,1.75,-0.03,0.05,-0.04
2.872081995010376,2,3,3,3,-9.640000000000001,1.42,1.77,-0.14,0.04,-0.04
2.883081912994385,2,3,3,3,-9.58,1.41,1.74,-0.19,0,-0.04
2.89208197593689,2,3,3,3,-9.550000000000001,1.42,1.76,-0.15,-0.04,-0.04
2.902081966400146,2,3,3,3,-9.57,1.42,1.81,-0.06,-0.08,-0.06
2.913082122802734,2,3,3,3,-9.609999999999999,1.44,1.8,0.01,-0.1,-0.07000000000000001
2.92208194732666,2,3,3,3,-9.630000000000001,1.43,1.79,0.13,-0.05,-0.03
2.932081937789917,2,3,3,3,-9.619999999999999,1.42,1.7,0.16,-0.03,-0.03
2.943082094192505,2,3,3,3,-9.609999999999999,1.44,1.74,0.15,-0.01,0.01
2.952081918716431,2,3,3,3,-9.6,1.45,1.74,0.1,0,0.05
2.962081909179688,2,3,3,3,-9.58,1.47,1.76,0.05,-0.01,0.04
2.973082065582275,2,3,3,3,-9.619999999999999,1.5,1.8,0.02,-0.02,0
2.98208212852478,2,3,3,3,-9.58,1.51,1.66,-0.04,-0.07000000000000001,-0.01
2.992082118988037,2,3,3,3,-9.58,1.49,1.74,-0.03,-0.1,-0.07000000000000001
3.003082036972046,2,3,3,3,-9.57,1.48,1.79,-0.1,-0.11,-0.03
3.012082099914551,2,3,3,3,-9.57,1.44,1.81,-0.2,-0.07000000000000001,-0.04
3.02308201789856,2,3,3,3,-9.59,1.4,1.76,-0.22,-0.02,0.01
3.033082008361816,2,3,3,3,-9.57,1.39,1.71,-0.2,0.05,0.01
3.043081998825073,2,3,3,3,-9.59,1.37,1.77,-0.12,0.06,0
3.05308198928833,2,3,3,3,-9.6,1.39,1.79,-0.06,0.05,-0.01
3.063081979751587,2,3,3,3,-9.630000000000001,1.42,1.8,0.03,0.04,0
3.073081970214844,2,3,3,3,-9.640000000000001,1.42,1.75,0.06,0,0
3.083081960678101,2,3,3,3,-9.640000000000001,1.41,1.65,0.01,-0.05,0.03
3.093081951141357,2,3,3,3,-9.6,1.41,1.7,-0.03,-0.08,0.01
3.103081941604614,2,3,3,3,-9.6,1.42,1.8,-0.07000000000000001,-0.13,0.01
3.113081932067871,2,3,3,3,-9.59,1.42,1.8,-0.13,-0.08,-0.01
3.123081922531128,2,3,3,3,-9.57,1.42,1.83,-0.15,-0.05,0.01
3.133081912994385,2,3,3,3,-9.550000000000001,1.39,1.72,-0.08,-0.02,-0.02
3.143081903457642,2,3,3,3,-9.58,1.37,1.74,-0.04,-0.01,-0.06
3.153082132339478,2,3,3,3,-9.609999999999999,1.39,1.83,-0.02,-0.06,-0.08
3.163082122802734,2,3,3,3,-9.630000000000001,1.39,1.8,-0.04,-0.05,-0.09
3.173082113265991,2,3,3,3,-9.640000000000001,1.39,1.75,-0.05,-0.11,-0.09
3.183082103729248,2,3,3,3,-9.619999999999999,1.41,1.72,-0.08,-0.13,-0.06
3.193082094192505,2,3,3,3,-9.6,1.39,1.73,-0.1,-0.09,-0.05
3.203082084655762,2,3,3,3,-9.57,1.37,1.78,-0.09,-0.07000000000000001,-0.04
3.213082075119019,2,3,3,3,-9.57,1.4,1.81,-0.04,-0.09,-0.03
3.223082065582275,2,3,3,3,-9.58,1.42,1.82,-0.06,-0.06,-0.01
3.233082056045532,2,3,3,3,-9.6,1.42,1.71,-0.01,-0.11,-0.02
3.243082046508789,2,3,3,3,-9.6,1.41,1.73,0,-0.07000000000000001,-0.04
3.253082036972046,2,3,3,3,-9.619999999999999,1.41,1.77,-0.09,-0.06,-0.04
3.263082027435303,2,3,3,3,-9.6,1.39,1.79,-0.16,0.02,-0.06
3.27308201789856,2,3,3,3,-9.59,1.38,1.81,-0.23,0.04,-0.07000000000000001
3.283082008361816,2,3,3,3,-9.58,1.36,1.78,-0.31,0.04,-0.09
3.293081998825073,2,3,3,3,-9.56,1.4,1.84,-0.3,-0.04,-0.06
3.30308198928833,2,3,3,3,-9.609999999999999,1.41,1.83,-0.2,-0.08,-0.07000000000000001
3.313081979751587,2,3,3,3,-9.609999999999999,1.44,1.85,-0.06,-0.03,-0.05
3.323081970214844,2,3,3,3,-9.640000000000001,1.45,1.74,0.05,-0.02,-0.01
3.333081960678101,2,3,3,3,-9.619999999999999,1.45,1.64,0.07000000000000001,0.11,0
3.343081951141357,2,3,3,3,-9.609999999999999,1.44,1.68,-0.02,0.14,0.05
3.353081941604614,2,3,3,3,-9.609999999999999,1.43,1.71,-0.15,0.19,0.08
3.363081932067871,2,3,3,3,-9.609999999999999,1.43,1.71,-0.29,0.14,0.11
3.373081922531128,2,3,3,3,-9.619999999999999,1.39,1.79,-0.47,0.02,0.12
3.383081912994385,2,3,3,3,-9.619999999999999,1.39,1.79,-0.5600000000000001,-0.08,0.11
3.393081903457642,2,3,3,3,-9.65,1.42,1.87,-0.52,-0.14,0.05
3.403082132339478,2,3,3,3,-9.699999999999999,1.43,2.02,-0.42,-0.33,0.01
3.413082122802734,2,3,3,3,-9.699999999999999,1.43,2.02,-0.35,-0.84,0.02
3.423082113265991,2,3,3,3,-9.539999999999999,1.41,1.93,0.17,-1.07,0.09
3.433082103729248,2,3,3,3,-9.49,1.41,1.52,0.57,-0.68,0.05
3.443082094192505,2,3,3,3,-9.69,1.42,1.67,0.49,-0.16,0.01
3.453082084655762,2,3,3,3,-9.65,1.43,1.74,0.17,0.02,-0.06
3.463082075119019,2,3,3,3,-9.6,1.46,1.77,-0.03,-0.06,-0.07000000000000001
3.473082065582275,2,3,3,3,-9.539999999999999,1.44,1.77,-0.15,-0.26,0.01
3.483082056045532,2,3,3,3,-9.449999999999999,1.45,1.59,-0.04,-0.29,0.14
3.493082046508789,2,3,3,3,-9.51,1.43,1.67,0.1,-0.07000000000000001,0.18
3.503082036972046,2,3,3,3,-9.52,1.42,1.76,-0.02,0.11,0.19
3.513082027435303,2,3,3,3,-9.52,1.42,1.76,-0.21,0.24,0.23
3.52308201789856,2,3,3,3,-9.49,1.33,1.84,-0.21,0.24,0.23
3.533082008361816,2,3,3,3,-9.52,1.32,1.83,-0.3,0.62,0.46
3.543081998825073,2,3,3,3,-9.539999999999999,1.35,1.81,-0.24,0.75,0.68
3.55308198928833,2,3,3,3,-9.539999999999999,1.35,1.85,-0.12,0.9,0.92
3.563081979751587,2,3,3,3,-9.56,1.42,1.92,-0.12,0.9,0.92
3.573081970214844,2,3,3,3,-9.59,1.43,1.87,0.09,0.97,1.21
3.583081960678101,2,3,3,3,-9.57,1.46,1.78,0.45,1.23,1.62
3.593081951141357,2,3,3,3,-9.59,1.49,1.64,0.49,1.27,1.67
3.603081941604614,2,3,3,3,-9.56,1.53,1.71,0.41,1.16,1.72
3.613081932067871,2,3,3,3,-9.5,1.51,1.69,0.41,1.16,1.72
3.623081922531128,2,3,3,3,-9.44,1.52,1.66,0.37,0.93,1.81
3.633081912994385,2,3,3,3,-9.35,1.56,1.64,0.65,0.93,2.06
3.643081903457642,2,3,3,3,-9.26,1.68,1.46,0.99,1.01,2.21
3.653082132339478,2,3,3,3,-9.18,1.71,1.43,1.42,1.15,2.31
3.663082122802734,2,3,3,3,-9.08,1.72,1.38,1.42,1.15,2.31
3.673082113265991,2,3,3,3,-9.109999999999999,1.74,1.43,1.57,1.47,2.37
3.683082103729248,2,3,3,3,-9.02,1.88,1.41,1.45,1.43,2.33
3.693082094192505,2,3,3,3,-8.869999999999999,2,1.24,1.64,1.23,2.36
3.703082084655762,2,3,3,3,-8.74,2.13,1.23,2.07,1.09,2.48
3.713082075119019,2,3,3,3,-8.279999999999999,2.51,1.14,2.07,1.09,2.48
3.723082065582275,2,3,3,3,-7.94,2.52,1.01,2.59,1.01,2.75
3.733082056045532,2,3,3,3,-7.61,2.43,0.83,2.91,1.14,3.51
3.743082046508789,2,3,3,3,-7.37,2.37,0.77,2.14,1.16,3.86
3.753082036972046,2,3,3,3,-6.7,2.27,0.9,1.68,0.89,4.24
3.763082027435303,2,3,3,3,-6.33,2.34,1.02,1.68,0.89,4.24
3.77308201789856,2,3,3,3,-6.01,2.25,0.93,1.55,0.73,4.74
3.783082008361816,2,3,3,3,-5.8,2.01,0.79,1.5,1.01,5.28
3.793081998825073,2,3,3,3,-5.82,1.64,1.25,0.97,0.98,5.2
3.80308198928833,2,3,3,3,-5.78,1.49,1.35,1,0.3,5.24
3.813081979751587,2,3,3,3,-5.59,1.49,1.29,1,0.3,5.24
3.823081970214844,2,3,3,3,-5.5,1.59,1.13,1.75,-0.34,5.32
3.833081960678101,2,3,3,3,-5.61,1.57,0.99,3.12,-0.4,5.75
3.843081951141357,2,3,3,3,-5.74,1.6,0.92,3.65,-0.22,5.86
3.853081941604614,2,3,3,3,-5.9,1.65,0.99,3.78,-0.07000000000000001,5.72
3.863081932067871,2,3,3,3,-6.12,1.62,1.07,3.78,-0.07000000000000001,5.72
3.873081922531128,2,3,3,3,-7.01,1.95,1.48,3.2,-0.1,5.39
3.883081912994385,2,3,3,3,-7.39,2.11,1.44,2.44,-1.21,4.45
3.893081903457642,2,3,3,3,-7.96,2.38,1.29,2.61,-1.16,3.92
3.903082132339478,2,3,3,3,-9.74,2.47,1.54,1.65,-1.04,3.34
3.913082122802734,2,3,3,3,-10.05,2.21,1.75,1.65,-1.04,3.34
3.923082113265991,2,3,3,3,-9.960000000000001,2.03,1.81,0.35,-1,3.17
3.933082103729248,2,3,3,3,-9.630000000000001,1.76,1.76,-0.33,-0.77,3.37
3.943082094192505,2,3,3,3,-9.140000000000001,1.44,1.23,-0.28,0.32,3.56
3.953082084655762,2,3,3,3,-9.42,1.56,1.24,0.06,1.84,3.58
3.963082075119019,2,3,3,3,-9.970000000000001,1.88,1.73,-0.54,2.4,3.16
3.973082065582275,2,3,3,3,-10.59,2.04,2.2,-1.82,1.78,2.36
3.983082056045532,2,3,3,3,-11.63,2.49,2.51,-2.29,0.22,1.74
3.993082046508789,2,3,3,3,-12.33,2.78,2.5,-1.92,-1.07,1.25
4.003082036972046,2,3,3,3,-12.82,2.46,2.42,-2.03,-1.07,0.32
4.013082027435303,2,3,3,3,-13.21,2.25,2.35,-2.14,-0.73,-0.41
4.02308201789856,2,3,3,3,-14.21,2.54,2.35,-1.59,-1.12,-0.68
4.033082008361816,2,3,3,3,-14.29,2.55,2.26,-1.29,-0.92,-0.91
4.043081998825073,2,3,3,3,-14.1,2.88,2.02,-1.19,-1.41,-0.93
4.054081916809082,2,3,3,3,-13.9,3.13,1.97,-0.93,-1.46,-0.86
4.064081907272339,2,3,3,3,-13.6,3.64,2.19,-0.89,-0.66,-0.68
4.074082136154175,2,3,3,3,-13.29,3.55,2.19,-1.04,-0.07000000000000001,-0.27
4.084082126617432,2,3,3,3,-13.28,3.15,2.42,-1.42,0.06,0.18
4.094082117080688,2,3,3,3,-13.4,2.7,2.54,-2.21,0.12,0.26
4.104082107543945,2,3,3,3,-13.28,1.84,2.11,-2.82,-0.49,-0.24
4.114082098007202,2,3,3,3,-12.91,1.86,2.56,-2.44,-1.05,-1.22
4.124082088470459,2,3,3,2,-12.65,2.12,3.16,-0.97,-1.35,-2.13
4.134082078933716,2,3,3,2,-13.55,2.99,3.75,1.7,-0.89,-2.43
4.144082069396973,2,3,3,2,-14.31,3.41,3.59,4.03,-0.39,-2.26
4.154082059860229,2,3,3,2,-15.11,3.8,3.66,6.02,0.23,-2.27
4.164082050323486,2,3,3,2,-15.79,4.22,3.38,7.1,0.98,-2.01
4.174082040786743,2,3,3,2,-17.61,4.85,2.49,7.07,1.56,-1.2
4.18408203125,2,3,3,2,-18.62,4.63,2.78,5.49,2.29,-0.01
4.194082021713257,2,3,3,2,-19.05,4.33,2.58,1.19,2.29,1.01
4.204082012176514,2,3,3,2,-19.37,4.18,3.4,-2.6,1.28,1.35
4.214082002639771,2,3,3,2,-19.87,3.97,5.74,-5.14,0.34,0.23
4.224081993103027,2,3,3,2,-20.52,3.85,6.34,-4.02,0.77,-4.62
4.234081983566284,2,3,3,2,-22.1,3.38,6.22,-4.02,0.77,-4.62
4.244081974029541,2,3,3,2,-24.31,2.56,5.25,-2.38,2.77,-7.62
4.254081964492798,2,3,3,2,-27.53,0.49,3.8,-2.39,3.7,-10.29
4.264081954956055,2,3,3,2,-28.45,-0.54,3.39,-4.7,6.47,-10.64
4.274081945419312,2,3,3,2,-28.45,-0.98,3.04,-3.1,8.130000000000001,-9.02
4.284081935882568,2,3,3,2,-27.22,-0.51,2.98,-3.1,8.130000000000001,-9.02
4.294081926345825,2,3,3,2,-20.94,1.65,2.6,-0.5600000000000001,7.86,-7.31
4.304081916809082,2,3,3,2,-16.65,2.61,2.07,3.17,3.33,-2.9
4.314081907272339,2,3,3,2,-12.86,3.76,1.53,5.49,2.52,-0.03
4.324082136154175,2,3,3,2,-8.75,7.73,0.38,8.01,1.81,3.66
4.334082126617432,2,3,3,2,-7.32,8.1,-1.98,11.13,0.32,5.8
4.344082117080688,2,3,3,2,-5.16,8.91,-4,13.01,0.74,5.95
4.354082107543945,2,3,3,2,-2.43,9.17,-3.66,8.380000000000001,3.01,5.32
4.364082098007202,2,3,3,2,4.77,10.52,-2.36,2.93,1.67,5.43
4.374082088470459,2,3,3,2,5.47,13.04,-2.9,3.37,-0.17,6.31
4.384082078933716,2,3,3,2,6.85,13.94,-4.86,7,-0.72,6.02
4.394082069396973,2,3,3,2,7.49,12.53,-8.98,9.99,-4.1,5.71
4.404082059860229,2,3,3,2,5.84,4.2,-7.28,0.03,-1.73,2.91
4.414082050323486,2,3,3,2,4.08,0.53,-1.85,-14.95,1.02,-1.62
4.424082040786743,2,3,3,2,2.72,-0.66,0.48,-18.82,-1.9,-4.81
4.43408203125,2,3,3,2,3.23,0,0.8,-16.76,-5.27,-6.78
4.444082021713257,2,3,3,2,3.7,-0.04,1.77,-15.97,-3.27,-7.93
4.454082012176514,2,3,3,2,1.99,-1.04,2.45,-15.44,-1.8,-8.9
4.464082002639771,2,3,3,2,0.17,-1.84,2.5,-12.81,-4.1,-9.19
4.474081993103027,2,3,3,2,-0.1,-2.5,1.56,-8.52,-6.14,-8.25
4.484081983566284,2,3,3,2,-0.58,-2.89,0.51,-5.95,-2.83,-7.04
4.494081974029541,2,3,3,2,-1.87,-2.8,0.77,-4.29,0.48,-5.77
4.504081964492798,2,3,3,2,-2.72,-2.45,0.8,-1.57,0.35,-4.15
4.514081954956055,2,3,3,2,-2.77,-1.08,0.46,0.8,-0.33,-2.5
4.524081945419312,2,3,3,2,-2.43,-1.02,-0.12,1.22,0.58,-1.5
4.534081935882568,2,3,3,2,-2.12,-1.18,-0.54,0.1,2.6,-0.64
4.544081926345825,2,3,3,2,-2.28,-1.26,-0.59,-1.94,4.42,0.55
4.554081916809082,2,3,3,2,-2.16,-1.55,0.55,-3.38,3.5,1.73
4.564081907272339,2,3,3,2,-1.04,-1.37,0.61,-2.45,0.48,3.13
4.574082136154175,2,3,3,2,0.06,-1.12,0.57,0.28,-1.57,4.2
4.584082126617432,2,3,3,2,0.52,-1.44,0.42,3.45,-2.21,4.5
4.594082117080688,2,3,3,2,0.73,-1.72,0.15,7.08,-3.23,4.32
4.604082107543945,2,3,3,2,0.83,-1.67,0,10.81,-3.09,5.54
4.614082098007202,2,3,3,2,0.82,-0.67,-0.31,14.14,-2.64,6.78
4.624082088470459,2,3,3,2,0.87,-0.25,-0.64,15.31,-2.41,7.08
4.634082078933716,2,3,3,2,0.72,0.54,-1.13,15.68,-1.88,7.03
4.644082069396973,2,3,3,2,0.62,0.97,-1.65,15.48,-1.43,6.69
4.654082059860229,2,3,3,2,0.5,1.52,-1.9,14.06,-1.17,6.23
4.664082050323486,2,3,3,2,0.3,1.87,-1.93,11,-0.84,5.68
4.674082040786743,2,3,3,3,-1.1,2.6,-0.53,7.01,-1.16,4.91
4.68408203125,2,3,3,3,-1.76,2.94,0.47,3.37,-4.38,4.04
4.694082021713257,2,3,3,3,-1.28,3.06,0.93,1.31,-9.380000000000001,3.26
4.704082012176514,2,3,3,3,1.13,4.33,-0.9399999999999999,1.54,-10.74,1.6
4.714082002639771,2,3,3,3,0.32,4.98,-0.42,-0.06,-6.44,-0.9399999999999999
4.724081993103027,2,3,3,3,-0.77,5.94,1.06,-2.45,-3.87,-3.27
4.734081983566284,2,3,3,3,0.05,7.2,0.07000000000000001,-0.51,-3.86,-5.12
4.744081974029541,2,3,3,3,-3.84,12.94,0.7,0,-1.17,-6.87
4.754081964492798,2,3,3,3,-7.59,14.82,0.88,-4.21,0.14,-8.15
4.764081954956055,2,3,3,3,-15.76,16.77,2.85,-15.1,2.13,-14.9
4.774081945419312,2,3,3,3,-29.27,14.67,5.84,-32.9,-7.01,-23.89
4.784081935882568,2,3,3,3,-31.46,-2.98,-2.85,-49.38,-24.56,-38.27
4.794081926345825,2,3,3,3,-36.04,-15.45,0.31,-43.43,-5.07,-27.6
4.804081916809082,2,3,3,3,-39.29,-24.57,9.550000000000001,-30.81,20.62,-8.26
4.814081907272339,2,3,3,3,-39.25,-17.85,6.66,-9.32,8.43,-4.56
4.824082136154175,2,3,3,2,-18.33,-2.55,7.09,10.62,-0.55,0.37
4.834082126617432,2,3,3,2,-11.39,-1.17,7.65,14.68,2.81,1.67
4.844082117080688,2,3,3,2,-13.57,-3.21,7.17,12.4,2.37,-1.84
4.854082107543945,2,3,3,2,-15.95,-3.29,5.89,11.15,-2.51,-3.53
4.864082098007202,2,3,3,2,-18.9,-2.95,5.04,9.1,-5.02,-3.87
4.874082088470459,2,3,3,2,-19.16,-2.09,5.38,9.949999999999999,-5,-1.97
4.884082078933716,2,3,3,2,-19.42,-0.15,5.31,12.09,-2.67,0.72
4.894082069396973,2,3,3,2,-15.7,1.65,4.26,10.74,-0.05,3.31
4.904082059860229,2,3,3,2,-15.29,2.37,3.67,8.859999999999999,4.39,4.68
4.914082050323486,2,3,3,2,-15.88,2.8,3.15,6.92,6.59,4.4
4.924082040786743,2,3,3,2,-16.16,2.97,2.95,5.31,4.24,3.85
4.93408203125,2,3,3,2,-14.49,2.75,2.75,4.3,1.97,3.6
4.944082021713257,2,3,3,2,-13.84,2.54,2.49,3.34,0.93,3.15
4.954082012176514,2,3,3,2,-13.19,2.58,2.29,2.08,0.31,2.38
4.964082002639771,2,3,3,2,-12.38,2.45,2.08,0.24,0.43,0.98
4.974081993103027,2,3,3,2,-10.55,1.99,2.3,-1.3,1.42,-0.11
4.984081983566284,2,3,3,2,-9.51,1.84,2.1,-2.01,2.67,-0.43
4.994081974029541,2,3,3,2,-8.59,1.42,1.63,-2.27,3.72,-0.34
5.004081964492798,2,3,3,2,-8.06,1.09,1.35,-1.84,4.53,0.27
5.014081954956055,2,3,3,2,-7.41,0.5,1.24,-1.27,4.75,1.2
5.024081945419312,2,3,3,2,-7.14,0.44,1.31,-0.44,4.18,2.06
5.034081935882568,2,3,3,2,-6.62,0.67,1.15,1.05,3.09,2.89
5.044081926345825,2,3,3,2,-6.01,1.05,0.93,2.64,1.91,3.73
5.054081916809082,2,3,3,2,-5.43,1.88,0.83,3.26,2.26,4.57
5.064081907272339,2,3,3,2,-5.03,2.11,0.61,3.33,2.63,4.4
5.075082063674927,2,3,3,2,-5.1,1.73,0.54,2.76,2.58,4.1
5.085082054138184,2,3,3,2,-4.69,1.98,0.59,2.91,2.86,4.03
5.09508204460144,2,3,3,2,-4.81,2.26,0.34,2.51,1.64,3.06
5.105082035064697,2,3,3,2,-4.67,2.4,0.29,1.76,-0.4,1.77
5.115082025527954,2,3,3,2,-4.81,2.49,0.41,1.18,-1.86,0.31
5.125082015991211,2,3,3,2,-5.36,2.7,0.75,0.58,-1.94,-0.96
5.135082006454468,2,3,3,2,-6.07,2.73,0.99,0.16,-1.5,-2.07
5.145081996917725,2,3,3,2,-6.82,2.69,1.03,0.07000000000000001,-1.51,-2.97
5.155081987380981,2,3,3,2,-7.52,2.55,0.91,0.48,-1.64,-3.69
5.165081977844238,2,3,3,2,-8.81,2.18,0.79,0.98,-1.31,-4.23
5.175081968307495,2,3,3,2,-9.300000000000001,2.06,0.76,1.18,-0.8100000000000001,-4.5
5.185081958770752,2,3,3,2,-9.630000000000001,1.95,0.59,1.09,-0.43,-4.4
5.195081949234009,2,3,3,2,-9.869999999999999,1.75,0.38,0.72,-0.03,-4.05
5.205081939697266,2,3,3,2,-10.66,1.37,0.68,-0.21,0.38,-3.6
5.215081930160522,2,3,3,2,-10.92,1.2,1.01,-1.25,0.04,-3.02
5.225081920623779,2,3,3,2,-10.91,1.1,1.27,-1.54,-1.33,-2.34
5.235081911087036,2,3,3,2,-10.63,1.08,1.51,-1.29,-2.67,-1.54
5.245081901550293,2,3,3,2,-9.85,1.1,1.74,-0.75,-3.12,-0.9
5.255082130432129,2,3,3,2,-9.58,1.19,1.94,-0.2,-2.68,-0.55
5.265082120895386,2,3,3,2,-9.33,1.24,2.01,-0.02,-1.8,-0.34
5.275082111358643,2,3,3,2,-9.19,1.22,1.94,-0.13,-0.9,-0.11
5.285082101821899,2,3,3,2,-9.25,1.29,1.96,-0.51,0.03,0.04
5.295082092285156,2,3,3,2,-9.32,1.26,1.8,-1.05,0.76,0.14
5.305082082748413,2,3,3,2,-9.41,1.17,1.74,-1.37,1.28,0.11
5.31508207321167,2,3,3,2,-9.76,0.83,1.89,-1.58,1.66,0.08
5.325082063674927,2,3,3,2,-9.970000000000001,0.5600000000000001,1.86,-1.64,1.99,0.22
5.335082054138184,2,3,3,2,-10.1,0.3,1.89,-1.7,2.01,0.36
5.34508204460144,2,3,3,2,-10.18,0.19,1.89,-1.74,1.86,0.57
5.355082035064697,2,3,3,2,-10.1,0.3,1.86,-1.3,1.48,0.82
5.365082025527954,2,3,3,2,-10.04,0.43,1.65,-0.5,0.92,1.15
5.375082015991211,2,3,3,2,-10.04,0.43,1.65,0.26,0.6,1.48
5.395081996917725,2,3,3,2,-9.57,1.03,1.17,0.93,0.25,2
5.405081987380981,2,3,3,2,-9.4,1.2,1.19,1.26,0.07000000000000001,2.23
5.415081977844238,2,3,3,2,-9.27,1.42,1.15,1.71,-0.11,2.31
5.425081968307495,2,3,3,2,-9.27,1.42,1.15,1.91,-0.11,2.18
5.435081958770752,2,3,3,2,-9.27,1.61,1.2,1.69,-0.24,1.89
5.445081949234009,2,3,3,2,-9.220000000000001,1.92,1.19,1.43,-0.41,1.47
5.455081939697266,2,3,3,2,-9.31,1.87,1.32,0.73,-0.5,1
5.465081930160522,2,3,3,2,-9.390000000000001,1.83,1.52,-0.22,-0.85,0.48
5.475081920623779,2,3,3,2,-9.390000000000001,1.83,1.52,-0.78,-1.39,0.01
5.485081911087036,2,3,3,2,-9.33,1.69,1.7,-0.78,-1.39,0.01
5.495081901550293,2,3,3,2,-9.23,1.47,1.46,-0.61,-1.81,-0.71
5.505082130432129,2,3,3,2,-9.18,1.28,1.58,-0.28,-1.46,-0.91
5.515082120895386,2,3,3,2,-9.26,1.2,1.72,-0.22,-0.99,-0.9
5.525082111358643,2,3,3,2,-9.26,1.2,1.72,-0.22,-0.99,-0.9
5.535082101821899,2,3,3,2,-9.25,1.19,1.7,-0.04,-0.79,-0.7
5.545082092285156,2,3,3,2,-9.619999999999999,1.24,1.42,0.38,-0.03,-0.16
5.555082082748413,2,3,3,2,-9.699999999999999,1.28,1.37,0.51,0.37,0
5.56508207321167,2,3,3,2,-9.76,1.31,1.35,0.52,0.68,0.23
5.575082063674927,2,3,3,2,-9.76,1.31,1.35,0.27,0.79,0.44
5.585082054138184,2,3,3,2,-9.800000000000001,1.31,1.29,-0.25,0.52,0.6
5.59508204460144,2,3,3,2,-9.630000000000001,1.44,1.54,-0.61,0.04,0.62
5.605082035064697,2,3,3,2,-9.67,1.43,1.69,-0.98,-0.36,0.48
5.615082025527954,2,3,3,2,-9.720000000000001,1.38,1.79,-1.34,-0.68,0.14
5.625082015991211,2,3,3,2,-9.720000000000001,1.38,1.79,-1.34,-0.68,0.14
5.635082006454468,2,3,3,2,-9.869999999999999,1.27,1.91,-1.45,-0.78,-0.27
5.645081996917725,2,3,3,2,-9.720000000000001,1.13,1.6,-1.17,-0.9,-0.6
5.655081987380981,2,3,3,2,-9.720000000000001,1.03,1.51,-0.93,-0.63,-0.47
5.665081977844238,2,3,3,2,-9.720000000000001,1.03,1.51,-0.9399999999999999,-0.2,-0.22
5.675081968307495,2,3,3,2,-9.65,0.98,1.63,-0.9399999999999999,-0.2,-0.22
5.685081958770752,2,3,3,2,-9.69,1.01,1.66,-0.92,0.02,0.14
5.695081949234009,2,3,3,2,-9.66,1.09,1.65,-0.44,-0.45,0.91
5.705081939697266,2,3,3,2,-9.66,1.33,1.35,-0.21,-0.48,1.25
5.715081930160522,2,3,3,2,-9.640000000000001,1.41,1.34,-0.1,-0.42,1.51
5.725081920623779,2,3,3,2,-9.56,1.46,1.34,-0.1,-0.42,1.51
5.735081911087036,2,3,3,2,-9.51,1.52,1.41,-0.09,-0.23,1.67
5.745081901550293,2,3,3,2,-8.99,1.7,1.31,-0.11,-0.13,2.12
5.755082130432129,2,3,3,2,-8.710000000000001,1.75,1.25,0,-0.05,2.36
5.765082120895386,2,3,3,2,-8.449999999999999,1.8,1.32,-0.04,-0.05,2.54
5.775082111358643,2,3,3,3,-8.300000000000001,1.85,1.42,-0.04,-0.05,2.54
5.785082101821899,2,3,3,3,-8.06,1.92,1.56,0.03,-0.12,2.62
5.795082092285156,2,3,3,3,-7.99,1.97,1.43,0.72,-0.47,2.44
5.805082082748413,2,3,3,3,-7.95,2.08,1.22,1.13,-0.45,2.37
5.81508207321167,2,3,3,3,-7.9,2.19,1.09,1.41,-0.26,2.49
5.825082063674927,2,3,3,3,-7.63,2.53,0.74,1.41,-0.26,2.49
5.835082054138184,2,3,3,3,-7.36,2.63,0.59,1.66,-0.05,2.92
5.84508204460144,2,3,3,3,-7.02,2.73,0.47,2.15,0.51,4.7
5.855082035064697,2,3,3,3,-6.6,2.78,0.18,2.38,0.88,5.92
5.865082025527954,2,3,3,3,-5.52,2.52,-0.01,2.31,1.55,7.07
5.875082015991211,2,3,3,3,-5.03,2.13,0.04,2.31,1.55,7.07
5.885082006454468,2,3,3,3,-4.66,1.79,0.3,1.77,2.18,7.85
5.895081996917725,2,3,3,3,-4.45,1.61,0.57,0.99,1.36,7.69
5.905081987380981,2,3,3,3,-4.05,1.98,0.79,1.69,0.07000000000000001,7.31
5.915081977844238,2,3,3,3,-3.91,2.37,0.65,2.7,-0.54,6.75
5.925081968307495,2,3,3,3,-3.94,2.74,0.39,2.7,-0.54,6.75
5.935081958770752,2,3,3,3,-4.95,2.97,0.54,2.81,0.2,6.06
5.945081949234009,2,3,3,3,-5.43,3.02,0.83,1.01,1.43,5.09
5.955081939697266,2,3,3,3,-5.8,2.86,1.06,0.25,1.19,4.86
5.965081930160522,2,3,3,3,-6.06,2.75,1.04,0.5,1.1,4.64
5.975081920623779,2,3,3,3,-6.62,2.25,0.41,0.5,1.1,4.64
5.985081911087036,2,3,3,3,-7.47,1.94,0.52,1.14,1.75,4.19
5.995081901550293,2,3,3,3,-8.449999999999999,1.47,0.96,-3.04,2.05,2.41
6.005082130432129,2,3,3,3,-9.44,1.51,1.41,-4.26,0.27,1.53
6.015082120895386,2,3,3,3,-10.76,1.62,2.19,-4.08,-0.25,0.67
6.025082111358643,2,3,3,3,-11.49,1.23,2.68,-4.08,-0.25,0.67
6.035082101821899,2,3,3,3,-12.52,1.33,2.81,-3.56,-0.43,0.05
6.045082092285156,2,3,3,3,-13.56,1.63,2.83,-1.44,-1,-1.55
6.055082082748413,2,3,3,3,-16.68,1.67,3.21,-1.92,-0.65,-2.3
6.06508207321167,2,3,3,3,-18.11,1.83,3.24,-1.7,-1.86,-2.94
6.075082063674927,2,3,3,3,-19.26,2.17,3.44,-1.7,-1.86,-2.94
6.085082054138184,2,3,3,3,-20.7,2.23,3.32,-0.93,-2.49,-2.9
6.09508204460144,2,3,3,3,-23.33,2.17,3.37,-0.5,-1.65,-2.71
6.106081962585449,2,3,3,3,-23.36,2.56,3.61,-0.39,-0.15,-2.54
6.116081953048706,2,3,3,3,-22.72,3.13,4.31,0.71,0.6,-1.17
6.126081943511963,2,3,3,3,-21.14,3.71,5.75,0.47,1.01,0.58
6.13608193397522,2,3,3,3,-20.8,3.73,6.01,-0.02,0.11,1.39
6.146081924438477,2,3,3,3,-21.02,3.36,6.18,-0.65,-0.59,1.2
6.156081914901733,2,3,3,3,-21.89,2.56,6.44,-1.84,0.28,-0.24
6.16608190536499,2,3,3,3,-24.05,1.02,6.96,-3.37,1.91,-2.42
6.176082134246826,2,3,3,3,-25.21,-0.24,6.52,-4.67,2.97,-4.8
6.186082124710083,2,3,3,3,-25.91,-1.37,6.45,-6.32,2.86,-6.84
6.19608211517334,2,3,3,3,-26.72,-2.36,7.35,-7.21,3.01,-8.550000000000001
6.206082105636597,2,3,3,3,-27.78,-3.99,6,-5.5,3.43,-8.69
6.216082096099854,2,3,3,3,-27.42,-3.73,6.09,-0.77,3.86,-8.210000000000001
6.22608208656311,2,3,3,3,-25.58,-2.94,5.02,3.81,2.7,-6.93
6.236082077026367,2,3,3,3,-23.59,-0.79,4.22,9.039999999999999,0.76,-5.05
6.246082067489624,2,3,3,3,-18.98,4.81,2.01,12.81,0.6899999999999999,-2.88
6.256082057952881,2,3,3,3,-16.23,7.94,0.54,14.56,-0.19,0.16
6.266082048416138,2,3,3,3,-14.39,9.32,-1.24,16.66,1.44,3.38
6.276082038879395,2,3,3,3,-12.43,9.91,-3.09,16.72,3.49,5.68
6.286082029342651,2,3,3,3,-7.5,9.220000000000001,-4.91,16.14,3.61,6.56
6.296082019805908,2,3,3,3,-4.3,8.32,-5.62,12.93,4.05,5.75
6.306082010269165,2,3,3,3,-1.37,8.06,-5.1,8.68,3.84,3.71
6.316082000732422,2,3,3,3,3.6,8.050000000000001,-2.64,2.52,2.47,1.19
6.326081991195679,2,3,3,3,6.59,8.9,-3.8,-1.44,-2.3,0.21
6.336081981658936,2,3,3,3,8.550000000000001,10.04,-5.7,-0.17,-10.8,2.14
6.346081972122192,2,3,3,3,7.4,10.14,-5.41,2.7,-12.89,2.86
6.356081962585449,2,3,3,3,5.91,7.06,-2.71,2.26,-7.09,1.46
6.366081953048706,2,3,3,3,5.65,5.18,-2.11,-1.96,-6.19,-1.37
6.376081943511963,2,3,3,3,4.75,4.2,-1.24,-6.77,-5.16,-3.72
6.38608193397522,2,3,3,3,4.2,2.93,-0.65,-10.4,0.8100000000000001,-6.14
6.396081924438477,2,3,3,3,2.16,-0.4,-0.77,-14.19,6.27,-7.38
6.406081914901733,2,3,3,3,0.7,-1.24,-0.72,-16.75,7.69,-6.44
6.41608190536499,2,3,3,3,0.45,-2.42,-0.11,-17.73,4.48,-5.29
6.426082134246826,2,3,3,3,0.55,-3.19,0.54,-15.98,1.43,-3.96
6.436082124710083,2,3,3,3,-0.27,-3.32,0.95,-12.37,0.95,-2.42
6.44608211517334,2,3,3,3,-0.88,-2.8,1.21,-9.109999999999999,1.15,-1.09
6.456082105636597,2,3,3,3,-1.43,-2.68,1.17,-6.2,1.03,0.04
6.466082096099854,2,3,3,3,-1.68,-2.19,1.11,-3.3,0.09,-0.03
6.47608208656311,2,3,3,3,-1.71,-1.56,0.8100000000000001,-0.95,-0.89,-1.14
6.486082077026367,2,3,3,3,-1.92,-1.2,0.72,0.3,-1.15,-2.07
6.496082067489624,2,3,3,3,-2.14,-1.23,0.5600000000000001,0.34,-0.64,-3.1
6.506082057952881,2,3,3,3,-2.13,-0.63,0.16,0.2,-0.51,-3.66
6.516082048416138,2,3,3,3,-1.95,-0.55,0.37,-0.12,-0.92,-3.66
6.526082038879395,2,3,3,3,-1.91,-0.61,0.67,-0.35,-1.38,-1.25
6.536082029342651,2,3,3,2,-1.89,-0.76,0.72,0.31,-2.1,0.39
6.546082019805908,2,3,3,2,-1.22,-1.12,0.18,0.31,-2.1,0.39
6.556082010269165,2,3,3,2,-0.61,-1.34,-0.09,1.03,-2.55,1.7
6.566082000732422,2,3,3,2,-0.14,-1.34,0.02,1.84,-2.1,3.96
6.576081991195679,2,3,3,2,0.24,-1.36,0.1,3.11,-2.91,4.98
6.586081981658936,2,3,3,2,1.07,-1.06,-0.39,5.48,-4.54,5.47
6.596081972122192,2,3,3,2,1.6,-0.75,-1.14,8.75,-4.83,5.27
6.606081962585449,2,3,3,2,1.27,-0.43,-1.07,10.09,-3.36,4.53
6.616081953048706,2,3,3,2,0.52,-0.21,-0.77,10.11,-3.51,3.63
6.626081943511963,2,3,3,2,0.55,0.24,-1.42,10.62,-4.79,2.78
6.63608193397522,2,3,3,2,0.74,0.61,-1.44,10.28,-4.8,1.93
6.646081924438477,2,3,3,2,0.22,0.91,-0.87,8.06,-4.96,0.84
6.656081914901733,2,3,3,2,0,0.88,0.12,5.79,-7.3,-0.93
6.66608190536499,2,3,3,2,0.65,2.48,1.1,4.48,-9.1,-3.5
6.676082134246826,2,3,3,2,0.5600000000000001,3.34,0.32,4.18,-8.380000000000001,-5.62
6.686082124710083,2,3,3,2,0.37,4.82,0.26,4.84,-6.13,-7.11
6.69608211517334,2,3,3,2,-2.19,8.42,0.48,3.46,-2.19,-7.99
6.706082105636597,2,3,3,2,-5.04,11.78,1.49,0.8,0.25,-8.380000000000001
6.716082096099854,2,3,3,2,-8.199999999999999,14.41,1.52,-4.48,3.43,-9.15
6.72608208656311,2,3,3,2,-16.69,15.68,4.15,-17.24,4.22,-15.5
6.736082077026367,2,3,3,2,-38.62,15.74,4.08,-30.48,-7.6,-27.25
6.746082067489624,2,3,3,2,-37.35,-0.35,-4.59,-46.72,-5.39,-35.31
6.756082057952881,2,3,3,2,-39.29,-18.4,-1.43,-36.13,21.34,-12.05
6.766082048416138,2,3,3,2,-39.29,-15.4,10.46,-16.42,7.59,2.13
6.776082038879395,2,3,3,2,-27.94,-3.45,7.48,2.7,-4.59,5.96
6.786082029342651,2,3,3,2,-16.49,1.49,9.01,9.65,3.14,6.4
6.796082019805908,2,3,3,2,-12.12,0.26,7.01,3.24,5.76,5.02
6.806082010269165,2,3,3,2,-13.1,-2.83,6.62,-0.92,4.13,0.59
6.816082000732422,2,3,3,2,-18.38,-4.48,5.2,-2.39,1.92,-3.51
6.826081991195679,2,3,3,2,-17.77,-4.15,5.67,-1.48,-2.78,-4.83
6.836081981658936,2,3,3,2,-16.76,-3.6,5.83,2.79,-6.98,-3.41
6.846081972122192,2,3,3,2,-14.97,-2.07,6.1,6.65,-4.86,-1.1
6.856081962585449,2,3,3,2,-14.79,-0.74,5.34,9.34,0.5,1.27
6.866081953048706,2,3,3,2,-15.29,0.6,3.88,12.64,3.78,4.08
6.876081943511963,2,3,3,2,-15.53,1.5,2.1,13.81,4.25,7.11
6.88608193397522,2,3,3,2,-15.67,1.97,1.14,10.9,4.48,9.609999999999999
6.896081924438477,2,3,3,2,-14.98,2.12,1.25,6.45,4.05,10.93
6.906081914901733,2,3,3,2,-13.89,2.69,0.97,2.86,3.42,11.01
6.91608190536499,2,3,3,2,-12.64,3.11,0.9399999999999999,-0.19,3.04,9.470000000000001
6.926082134246826,2,3,3,2,-11.03,3.56,1.93,-2.2,0.98,6
6.936082124710083,2,3,3,2,-9.5,2.73,2.53,-3.32,-2.05,3.53
6.94608211517334,2,3,3,2,-8.67,3.4,2.37,-1.34,-0.24,2.17
6.956082105636597,2,3,3,2,-8.18,3.21,1.68,-1.35,1.47,0.3
6.966082096099854,2,3,3,2,-7.77,2.21,0.99,-2.05,3.46,-1.02
6.97608208656311,2,3,3,2,-7.96,1.79,0.8,-2.62,5.48,-1.84
6.986082077026367,2,3,3,2,-8.300000000000001,1.48,0.77,-3.16,5.66,-1.84
6.996082067489624,2,3,3,2,-8.279999999999999,1.14,0.9399999999999999,-3.42,4.02,-1.26
7.006082057952881,2,3,3,2,-7.52,1.11,1.12,-2.94,2.27,-0.02
7.016082048416138,2,3,3,2,-7.08,1.1,1.05,-1.96,0.99,1.57
7.026082038879395,2,3,3,2,-6.51,1.06,0.83,-0.99,0.34,2.95
7.036082029342651,2,3,3,2,-5.91,0.99,0.65,-0.61,0.37,3.95
7.046082019805908,2,3,3,2,-5.01,0.84,0.59,-0.84,0.7,4.54
7.056082010269165,2,3,3,2,-4.75,0.89,0.68,-1.27,1.01,4.56
7.066082000732422,2,3,3,2,-4.57,0.98,0.98,-1.57,0.83,3.95
7.076081991195679,2,3,3,2,-4.66,1.07,1.31,-1.46,0.38,2.89
7.086081981658936,2,3,3,2,-5.14,1.2,1.58,-0.83,-0.06,1.56
7.096081972122192,2,3,3,2,-5.53,1.44,1.49,0.05,0.19,0.05
7.106081962585449,2,3,3,2,-5.94,1.61,1.38,0.65,0.86,-1.38
7.116081953048706,2,3,3,2,-7.25,1.56,1.41,0.91,1.53,-2.59
7.127082109451294,2,3,3,2,-7.94,1.55,1.38,1.14,1.8,-3.57
7.137082099914551,2,3,3,2,-8.710000000000001,1.59,1.43,1.07,1.87,-4.22
7.147082090377808,2,3,3,2,-9.52,1.59,1.38,0.6899999999999999,1.75,-4.56
7.157082080841064,2,3,3,2,-10.98,1.3,0.72,0.2,1.57,-4.82
7.167082071304321,2,3,3,2,-11.41,1.06,0.53,-0.54,1.49,-4.85
7.177082061767578,2,3,3,2,-11.58,0.82,0.48,-1.44,1.24,-4.48
7.187082052230835,2,3,3,2,-11.61,0.63,0.66,-2.29,0.49,-3.5
7.197082042694092,2,3,3,2,-11.01,0.16,1.19,-2.45,-0.83,-2.02
7.207082033157349,2,3,3,2,-10.62,0.1,1.46,-1.62,-2.01,-0.49
7.217082023620605,2,3,3,2,-10.35,0.21,1.87,-0.41,-2.51,0.77
7.227082014083862,2,3,3,2,-10.33,0.37,2.24,0.84,-2.46,1.53
7.237082004547119,2,3,3,2,-10.55,1.11,2.23,2.19,-2.2,1.75
7.247081995010376,2,3,3,2,-10.53,1.48,1.84,3.28,-1.53,1.58
7.257081985473633,2,3,3,2,-10.33,1.75,1.18,3.83,-0.38,1.24
7.26708197593689,2,3,3,2,-10.24,1.81,0.88,3.16,1.12,0.83
7.277081966400146,2,3,3,2,-10.28,1.64,1.29,1.47,1.94,0.55
7.287081956863403,2,3,3,2,-10.07,1.57,1.37,0.08,1.53,0.47
7.29708194732666,2,3,3,2,-9.68,1.5,1.48,-0.9,0.86,0.51
7.307081937789917,2,3,3,2,-9.17,1.45,1.68,-1.51,0.54,0.57
7.317081928253174,2,3,3,2,-9.029999999999999,1.42,1.77,-1.72,0.27,0.64
7.327081918716431,2,3,3,2,-9.02,1.36,1.7,-1.6,-0.03,0.71
7.337081909179688,2,3,3,2,-9.029999999999999,1.22,1.59,-1.24,-0.22,0.74
7.347081899642944,2,3,3,2,-9.25,1.02,1.5,-0.97,-0.2,0.67
7.35708212852478,2,3,3,2,-9.289999999999999,0.96,1.44,-0.74,-0.19,0.61
7.367082118988037,2,3,3,2,-9.32,0.92,1.49,-0.58,-0.15,0.5600000000000001
7.377082109451294,2,3,3,2,-9.32,0.87,1.53,-0.58,-0.1,0.58
7.387082099914551,2,3,3,2,-9.48,0.83,1.53,-0.35,-0.3,0.57
7.397082090377808,2,3,3,2,-9.42,0.76,1.35,-0.03,-0.83,0.57
7.407082080841064,2,3,3,2,-9.300000000000001,0.73,1.07,0.57,-1.19,0.72
7.417082071304321,2,3,3,2,-9.31,0.73,0.91,1.1,-0.9399999999999999,0.86
7.427082061767578,2,3,3,2,-9.640000000000001,0.89,1.25,1.16,-0.41,0.93
7.437082052230835,2,3,3,2,-9.76,0.99,1.36,0.87,-0.35,1.01
7.447082042694092,2,3,3,2,-9.76,1.04,1.29,0.95,-0.93,1.07
7.457082033157349,2,3,3,2,-9.73,1.12,1.14,1.36,-1.39,1.07
7.467082023620605,2,3,3,2,-9.77,1.33,1.26,1.55,-1.5,1.04
7.477082014083862,2,3,3,2,-9.720000000000001,1.37,1.31,1.5,-1.52,1.03
7.487082004547119,2,3,3,2,-9.58,1.32,1.25,1.68,-1.61,1.1
7.497081995010376,2,3,3,2,-9.33,1.43,1.18,1.81,-1.45,1.18
7.507081985473633,2,3,3,2,-9.32,1.51,1.25,1.7,-1.08,1.31
7.51708197593689,2,3,3,2,-9.23,1.55,1.36,1.55,-0.9399999999999999,1.4
7.527081966400146,2,3,3,2,-9.08,1.65,1.34,1.65,-0.78,1.51
7.537081956863403,2,3,3,3,-9.08,1.65,1.34,1.75,-0.38,1.6
7.54708194732666,2,3,3,3,-8.85,1.78,1.36,1.59,0.21,1.62
7.557081937789917,2,3,3,3,-8.869999999999999,1.78,1.31,1.32,0.64,1.43
7.567081928253174,2,3,3,3,-8.800000000000001,1.75,1.26,1,0.74,1.22
7.577081918716431,2,3,3,3,-9,1.73,1.27,0.71,0.8,0.9
7.587081909179688,2,3,3,3,-9,1.73,1.27,0.22,1.03,0.39
7.597081899642944,2,3,3,3,-9.23,1.71,1.3,-0.36,1.14,-0.27
7.60708212852478,2,3,3,3,-9.85,1.51,1.48,-0.87,0.67,-0.8100000000000001
7.617082118988037,2,3,3,3,-9.890000000000001,1.11,1.41,-0.75,0.13,-1.08
7.627082109451294,2,3,3,3,-10.04,0.89,1.55,-0.77,0.05,-1.2
7.637082099914551,2,3,3,3,-10.04,0.89,1.55,-1.08,0.1,-1.14
7.647082090377808,2,3,3,3,-10.09,0.76,1.62,-0.96,0.12,-0.8
7.657082080841064,2,3,3,3,-10.25,0.91,1.67,-0.5600000000000001,0.18,-0.42
7.667082071304321,2,3,3,3,-10.21,1.05,1.55,-0.06,-0.05,0
7.677082061767578,2,3,3,3,-9.99,1.12,1.39,0.59,-0.57,0.59
7.687082052230835,2,3,3,3,-9.99,1.12,1.39,0.59,-0.57,0.59
7.697082042694092,2,3,3,3,-9.380000000000001,1.28,0.9,1.31,-0.86,1.26
7.707082033157349,2,3,3,3,-9.18,1.6,1.07,1.31,0.17,2.13
7.717082023620605,2,3,3,3,-9.06,1.74,1.27,0.62,0.25,2.41
7.727082014083862,2,3,3,3,-8.82,2.12,1.24,0.28,-0.01,2.5
7.737082004547119,2,3,3,3,-8.82,2.12,1.24,0.34,-0.31,2.56
7.747081995010376,2,3,3,3,-8.65,2.33,1.1,0.42,-0.35,2.63
7.757081985473633,2,3,3,3,-8.199999999999999,2.64,0.74,0.48,-0.14,2.73
7.76708197593689,2,3,3,3,-7.58,2.86,0.64,0.55,0.22,3.07
7.777081966400146,2,3,3,3,-7.13,2.88,0.55,0.85,0.75,3.69
7.787081956863403,2,3,3,3,-7.13,2.88,0.55,0.85,0.75,3.69
7.79708194732666,2,3,3,3,-6.66,2.76,0.3,1.34,1.26,4.45
7.807081937789917,2,3,3,3,-5.56,2.02,0.31,0.95,2.05,5.51
7.817081928253174,2,3,3,3,-5.4,1.93,0.64,-0.48,1.64,5.39
7.827081918716431,2,3,3,3,-5.15,2.12,0.8,-0.93,0.13,5.14
7.837081909179688,2,3,3,3,-5.15,2.12,0.8,-0.93,0.13,5.14
7.847081899642944,2,3,3,3,-4.9,2.38,0.79,0.13,-1.75,4.94
7.85708212852478,2,3,3,3,-4.69,2.79,0.27,3.37,-2.41,4.32
7.867082118988037,2,3,3,3,-4.8,2.73,-0.14,3.91,-1.49,3.83
7.877082109451294,2,3,3,3,-4.83,2.73,-0.21,2.91,-0.76,3.37
7.887082099914551,2,3,3,3,-4.83,2.61,-0.21,2.91,-0.76,3.37
7.897082090377808,2,3,3,3,-4.4,2.53,0.28,0.79,-0.47,2.9
7.907082080841064,2,3,3,3,-4.03,2.42,0.16,-2.67,0.06,1.65
7.917082071304321,2,3,3,3,-3.75,2.38,0.16,-4.08,1.27,0.9
7.927082061767578,2,3,3,3,-4.73,2.83,1.4,-5.78,2.12,0.2
7.937082052230835,2,3,3,3,-5.71,3.08,2.3,-5.78,2.12,0.2
7.947082042694092,2,3,3,3,-7.14,3.35,2.92,-6.66,1.66,-0.26
7.957082033157349,2,3,3,3,-8.84,3.24,2.98,-6.32,-2.24,-0.34
7.967082023620605,2,3,3,3,-12.39,1.24,2.51,-4.75,-1.55,-0.74
7.977082014083862,2,3,3,3,-14.21,0.27,3.31,-1.63,0.92,-1.35
7.987082004547119,2,3,3,3,-16.11,0.1,3.31,-1.63,0.92,-1.35
7.997081995010376,2,3,3,3,-16.14,-0.42,1.75,0.57,4.24,-1.32
8.007081985473633,2,3,3,3,-16.59,-0.38,-0.55,-3.9,7.5,2.45
8.01708197593689,2,3,3,3,-17.27,0,0.23,-5.42,2.54,3.63
8.027081966400146,2,3,3,3,-18.19,0.54,1.74,-3.44,-4.74,3.32
8.037081956863403,2,3,3,3,-18.36,0.88,3.18,-3.44,-4.74,3.32
8.04708194732666,2,3,3,3,-18.89,2.35,5.24,1.68,-8.07,2
8.057081937789917,2,3,3,3,-19.54,3.31,6.32,6.9,-5.45,-0.74
8.067081928253174,2,3,3,3,-20.13,3.53,6.66,6.79,-3.02,-0.9399999999999999
8.077081918716431,2,3,3,3,-22.22,4.42,5.95,5.48,-0.31,-0.5
8.087081909179688,2,3,3,3,-23.39,3.85,4.55,5.48,-0.31,-0.5
8.097081899642944,2,3,3,3,-24.12,3.44,4.32,2.47,2.04,0.13
8.10708212852478,2,3,3,3,-24.98,3.01,5.27,-4.86,2.44,0.37
8.117082118988037,2,3,3,3,-25.16,1.96,7.16,-4.49,1.14,-0.43
8.127082109451294,2,3,3,3,-25.24,1.92,7.18,-2.47,0.9,-2.21
8.137082099914551,2,3,3,3,-25.63,0.95,6.8,-2.47,0.9,-2.21
8.14808201789856,2,3,3,3,-26.15,0.52,5.59,-1.05,2.53,-4.19
8.158082008361816,2,3,3,3,-26.68,-0.44,3.92,-0.87,4.78,-8.02
8.168081998825073,2,3,3,3,-26.32,-0.72,4.2,-1.89,4.93,-8.44
8.17808198928833,2,3,3,3,-25.59,-0.63,4.83,-1.31,4.09,-7.69
8.188081979751587,2,3,3,3,-24.62,-0.24,4.85,-1.31,4.09,-7.69
8.198081970214844,2,3,3,3,-19.62,0.75,2.45,1.59,2.39,-6.37
8.208081960678101,2,3,3,3,-15.75,2.7,1.58,10.25,2.44,-1.31
8.218081951141357,2,3,3,3,-12.75,4.56,0.7,13.35,2.01,3.41
8.228081941604614,2,3,3,3,-9.880000000000001,5.99,-1.23,17.16,1.32,7.58
8.238081932067871,2,3,3,3,-4.87,6.36,-5.26,17.16,1.32,7.58
8.248081922531128,2,3,3,3,-1.89,6.82,-4.52,18.21,0.88,8.710000000000001
8.258081912994385,2,3,3,3,1.27,8.48,-1.95,13.93,0.39,8.119999999999999
8.268081903457642,2,3,3,3,3.6,10.29,-1.42,7.6,-1.65,8.32
8.278082132339478,2,3,3,3,7.12,13.86,-3.67,8.140000000000001,-5.63,8.52
8.288082122802734,2,3,3,3,7.59,12.91,-6.03,10.95,-6.13,7.02
8.298082113265991,2,3,3,3,7.37,10.65,-7.29,9.619999999999999,-5.48,3.98
8.308082103729248,2,3,3,3,5.27,3.08,-3.78,3.77,-2.59,0.95
8.318082094192505,2,3,3,3,3.87,1.21,-2.08,-6.94,-0.63,-2.62
8.328082084655762,2,3,3,3,3.59,1.17,-0.59,-13.54,-0.44,-5.15
8.338082075119019,2,3,3,3,4.17,0.78,0.04,-16.98,0.62,-6.82
8.348082065582275,2,3,3,3,1.59,-0.8,0.72,-18.9,2.85,-7.26
8.358082056045532,2,3,3,3,0.23,-1.63,0.74,-18.79,4.14,-6.29
8.368082046508789,2,3,3,3,-0.02,-2.19,0.61,-16.57,1.32,-5.17
8.378082036972046,2,3,3,3,0.29,-2.9,0.5600000000000001,-13.15,-2.19,-4.27
8.388082027435303,2,3,3,3,-0.96,-2.98,1.29,-9.42,-1.97,-2.85
8.39808201789856,2,3,3,3,-1.87,-2.69,1.53,-5.89,0.49,-1.39
8.408082008361816,2,3,3,3,-2.34,-2.54,1.23,-2.43,1.68,-0.43
8.418081998825073,2,3,3,3,-2.5,-1.74,0.84,1.38,1.35,0.39
8.42808198928833,2,3,3,3,-2.69,-0.6,0.24,3.57,1.29,0.67
8.438081979751587,2,3,3,3,-2.57,-0.27,-0.14,3.96,1.87,0.72
8.448081970214844,2,3,3,3,-2.29,-0.01,-0.4,3.07,2.82,0.77
8.458081960678101,2,3,3,3,-1.63,-0.13,-0.59,1.28,3.34,0.84
8.468081951141357,2,3,3,3,-0.61,-0.21,-0.02,-0.13,2.83,1.65
8.478081941604614,2,3,3,3,-0.29,-0.32,0.02,-0.99,1.15,1.84
8.488081932067871,2,3,3,3,0.17,-0.57,-0.23,-0.9,-1.32,1.42
8.498081922531128,2,3,3,3,0.64,-1.54,0.26,-0.41,-3,0.61
8.508081912994385,2,3,3,3,0.85,-1.37,0.4,0.54,-3.82,0.59
8.518081903457642,2,3,3,3,0.89,-1.2,0.16,3.22,-4.26,0.9399999999999999
8.528082132339478,2,3,3,3,0.8100000000000001,-0.97,0.02,6.09,-4.23,1.46
8.538082122802734,2,3,3,3,0.33,-0.16,-0.07000000000000001,8.73,-3.75,1.94
8.548082113265991,2,3,3,3,0.3,0,-0.72,10.82,-3.29,2.19
8.558082103729248,2,3,3,3,0.11,0.37,-1.15,12.16,-2.85,1.99
8.568082094192505,2,3,3,3,-0.77,0.87,-0.74,11.86,-1.72,1.18
8.578082084655762,2,3,3,3,-1.99,1.65,0.13,9.35,-2.43,0.67
8.588082075119019,2,3,3,3,-0.36,1.6,-1.16,6.97,-6.95,1.03
8.598082065582275,2,3,3,3,0.82,1.95,-1.47,6.66,-10.06,1.6
8.608082056045532,2,3,3,3,-0.29,2.64,0,4.94,-6.56,1.02
8.618082046508789,2,3,3,3,-1.37,3.64,0.58,-0.95,-3.88,-0.72
8.628082036972046,2,3,3,3,-0.49,4.39,0.72,-4.17,-5.2,-2.63
8.638082027435303,2,3,3,3,-0.83,5.57,1.86,-5.26,-4.28,-4.61
8.64808201789856,2,3,3,3,-3.6,8.59,2.55,-6.23,-2.68,-6.43
8.658082008361816,2,3,3,3,-8.9,16.98,2.08,0.06,-6.25,-6.32
8.668081998825073,2,3,3,3,-20.34,17.26,3.12,0.07000000000000001,-4.18,-8.23
8.67808198928833,2,3,3,3,-38.4,20.86,8.58,-13.23,-0.02,-15.99
8.688081979751587,2,3,3,3,-38.03,-11.99,-8.91,-37.73,-15.84,-35.04
8.698081970214844,2,3,3,3,-39.29,-21.4,5.24,-51.43,-10.25,-31.46
8.708081960678101,2,3,3,3,-39.27,-16.32,10.88,-40.44,26.83,-1.91
8.718081951141357,2,3,3,3,-38.27,-9.85,12.39,-22.94,9.9,-1.77
8.728081941604614,2,3,3,3,-18.13,-1.18,8.529999999999999,7.26,-2.3,-4.63
8.738081932067871,2,3,3,3,-17.21,-0.25,7.74,19.77,-1.06,-0.17
8.748081922531128,2,3,3,3,-19.56,-2.65,5.36,15.49,3.01,0.42
8.758081912994385,2,3,3,3,-22.47,-3.67,3.83,9.289999999999999,5.41,-0.15
8.768081903457642,2,3,3,3,-23.82,-0.73,3.77,4.53,5.85,1.2
8.778082132339478,2,3,3,3,-20.96,-0.04,3.66,3.77,0.79,2.85
8.788082122802734,2,3,3,3,-17.5,1.42,3.92,6.63,-4.74,5.12
8.798082113265991,2,3,3,3,-14.96,2.08,4.35,5.91,-1.52,7.18
8.808082103729248,2,3,3,3,-14.64,2.41,4.12,5.91,-1.52,7.18
8.818082094192505,2,3,3,3,-14.85,2.25,3.33,4.94,2.35,6.2
8.828082084655762,2,3,3,3,-14.46,2.05,2.81,5.7,2.21,4.51
8.838082075119019,2,3,3,3,-13.91,2.03,2.6,4.9,1.03,4.23
8.848082065582275,2,3,3,3,-12.39,1.86,2.29,4.17,-0.48,3.97
8.858082056045532,2,3,3,3,-11.6,1.93,1.92,4.38,-0.7,3.6
8.868082046508789,2,3,3,3,-10.56,2.3,1.67,4.51,-0.05,3
8.878082036972046,2,3,3,3,-9.31,2.35,1.43,4.17,1.3,2.81
8.888082027435303,2,3,3,3,-7.19,2.25,0.85,3.24,3.19,3.14
8.89808201789856,2,3,3,3,-6.45,2.07,0.59,2.35,5.08,3.36
8.908082008361816,2,3,3,3,-5.79,1.82,0.46,1.81,6.02,3.58
8.918081998825073,2,3,3,3,-4.38,1.01,0.29,1.82,5.98,3.67
8.92808198928833,2,3,3,3,-3.65,0.9399999999999999,0.53,2.3,5.17,3.82
8.938081979751587,2,3,3,3,-3.13,1.05,0.64,2.99,3.53,4.4
8.948081970214844,2,3,3,3,-2.9,1.38,0.53,3.47,1.82,4.7
8.958081960678101,2,3,3,3,-3.04,1.59,0.15,3.5,1.47,3.97
8.968081951141357,2,3,3,3,-3.06,1.53,-0.17,3.7,2.24,3.79
8.978081941604614,2,3,3,3,-2.95,1.65,-0.37,3.84,2.82,3.33
8.988081932067871,2,3,3,3,-2.99,1.63,-0.45,3.06,2.24,2.82
8.998081922531128,2,3,3,3,-3.31,1.6,-0.09,2.18,1.1,2.16
9.008081912994385,2,3,3,3,-3.48,1.79,-0.01,1.8,-0.12,1.46
9.018081903457642,2,3,3,3,-3.74,2.1,-0.04,1.91,-1.26,0.64
9.028082132339478,2,3,3,3,-4.06,2.51,0.35,1.86,-1.61,-0.19
9.038082122802734,2,3,3,3,-5.3,3.33,1.42,1.72,-1.37,-1.24
9.048082113265991,2,3,3,3,-6.24,3.79,1.86,1.63,-1.07,-2.42
9.058082103729248,2,3,3,3,-7.35,4.11,1.86,1.48,-1.39,-3.63
9.068082094192505,2,3,3,3,-8.35,4.2,1.44,1.03,-1.72,-4.84
9.078082084655762,2,3,3,3,-10.44,4.06,0.98,0.19,-1.26,-6.05
9.088082075119019,2,3,3,3,-11.4,3.6,0.78,-0.67,-0.7,-7
9.098082065582275,2,3,3,3,-12.16,3,0.74,-0.95,0.17,-7.45
9.108082056045532,2,3,3,3,-14.28,0.9399999999999999,0.5600000000000001,-0.98,2.18,-7.12
9.118082046508789,2,3,3,3,-15.39,0.17,0.5600000000000001,-0.63,4.09,-6.09
9.128082036972046,2,3,3,3,-16.12,-0.32,0.5600000000000001,-0.02,4.99,-4.44
9.138082027435303,2,3,3,3,-16.13,-0.61,0.51,0.74,4.63,-1.95
9.14808201789856,2,3,3,2,-14.14,0.3,0.97,1.03,2.79,1.31
9.158082008361816,2,3,3,2,-12.79,1.1,1.14,1.03,-0.42,4.03
9.168081998825073,2,3,3,2,-11.18,1.61,1.17,1.44,-2.97,5.71
9.179081916809082,2,3,3,2,-9.619999999999999,2.11,1.11,1.84,-3.24,6.02
9.189081907272339,2,3,3,2,-7.52,2.54,1.28,1.05,-2.01,5.6
9.199082136154175,2,3,3,2,-6.89,2.47,1.34,-1.07,-0.98,4.72
9.209082126617432,2,3,3,2,-6.58,2.27,1.35,-3.01,-0.49,3.65
9.219082117080688,2,3,3,2,-6.35,2.13,1.31,-4.22,-0.73,2.57
9.229082107543945,2,3,3,2,-6.03,1.79,1.68,-4.79,-1.03,1.79
9.239082098007202,2,3,3,2,-6.37,1.52,1.98,-4.68,-0.78,1.13
9.249082088470459,2,3,3,2,-7.07,1.31,2.26,-3.97,-0.26,0.4
9.259082078933716,2,3,3,2,-7.95,1.2,2.44,-2.64,-0.32,-0.27
9.269082069396973,2,3,3,2,-9.699999999999999,1.15,2.19,-1.23,-0.79,-0.86
9.279082059860229,2,3,3,2,-10.35,1.11,1.86,0.18,-0.99,-1.42
9.289082050323486,2,3,3,2,-10.76,1.09,1.51,1.06,-0.6899999999999999,-1.66
9.299082040786743,2,3,3,2,-10.89,1.08,0.83,1.29,-0.59,-1.53
9.30908203125,2,3,3,2,-10.61,1.15,0.6,1.24,-0.89,-0.97
9.319082021713257,2,3,3,2,-10.39,1.34,0.58,0.85,-1.34,-0.27
9.329082012176514,2,3,3,2,-10.21,1.6,0.76,0.5600000000000001,-2.15,0.43
9.339082002639771,2,3,3,2,-9.75,2.41,0.86,0.83,-3.16,0.87
9.349081993103027,2,3,3,2,-9.609999999999999,2.85,0.8100000000000001,1.26,-3.41,0.96
9.359081983566284,2,3,3,2,-9.640000000000001,3.21,0.77,0.99,-2.55,0.54
9.369081974029541,2,3,3,2,-9.81,3.33,0.73,-0.32,-1.2,-0.21
9.379081964492798,2,3,3,2,-9.779999999999999,2.98,0.97,-2.17,-0.09,-0.9399999999999999
9.389081954956055,2,3,3,2,-9.529999999999999,2.55,1.2,-4.15,0.57,-1.51
9.399081945419312,2,3,3,2,-9.199999999999999,2.05,1.51,-5.84,0.88,-1.89
9.409081935882568,2,3,3,2,-8.880000000000001,1.55,1.87,-6.89,0.63,-2.06
9.419081926345825,2,3,3,2,-8.710000000000001,0.59,2.32,-7.06,-0.05,-2.17
9.429081916809082,2,3,3,2,-8.880000000000001,0.17,2.45,-6.28,-0.65,-2.2
9.439081907272339,2,3,3,2,-9.08,-0.15,2.42,-4.71,-0.88,-2.21
9.449082136154175,2,3,3,2,-9.23,-0.38,2.23,-2.78,-0.64,-2.2
9.459082126617432,2,3,3,2,-9.44,-0.54,1.97,-1.1,-0.14,-1.97
9.469082117080688,2,3,3,2,-9.57,-0.39,1.96,0.19,0.16,-1.65
9.479082107543945,2,3,3,2,-9.67,-0.04,2.02,1.46,0.02,-1.21
9.489082098007202,2,3,3,2,-10.13,0.74,2.01,2.83,-0.22,-0.84
9.499082088470459,2,3,3,2,-10.41,1.12,2,3.78,-0.52,-0.72
9.509082078933716,2,3,3,2,-10.53,1.46,1.87,4.42,-1.03,-0.66
9.519082069396973,2,3,3,2,-10.44,1.73,1.66,4.66,-1.54,-0.6
9.529082059860229,2,3,3,2,-10.1,2.09,1.5,4.18,-1.8,-0.39
9.539082050323486,2,3,3,2,-9.83,2.18,1.48,3.05,-1.9,-0.12
9.549082040786743,2,3,3,2,-9.57,2.27,1.45,1.64,-1.83,0.11
9.55908203125,2,3,3,2,-9.31,2.31,1.44,0.4,-1.61,0.23
9.569082021713257,2,3,3,2,-8.99,2.2,1.38,-0.35,-1.35,0.18
9.579082012176514,2,3,3,2,-9.02,2.08,1.56,-0.68,-0.9399999999999999,-0.06
9.589082002639771,2,3,3,2,-9.1,1.94,1.72,-0.75,-0.63,-0.35
9.599081993103027,2,3,3,2,-9.199999999999999,1.77,1.73,-0.49,-0.36,-0.63
9.609081983566284,2,3,3,2,-9.41,1.6,1.6,-0.01,0.07000000000000001,-0.82
9.619081974029541,2,3,3,2,-9.48,1.56,1.52,0.34,0.6,-0.88
9.629081964492798,2,3,3,2,-9.539999999999999,1.55,1.58,0.44,0.98,-0.82
9.639081954956055,2,3,3,2,-9.6,1.6,1.59,0.5600000000000001,1.13,-0.65
9.649081945419312,2,3,3,2,-9.699999999999999,1.65,1.51,0.8100000000000001,1.01,-0.46
9.659081935882568,2,3,3,2,-9.76,1.65,1.46,0.97,0.8100000000000001,-0.29
9.669081926345825,2,3,3,2,-9.880000000000001,1.66,1.4,0.92,0.51,-0.26
9.679081916809082,2,3,3,2,-9.81,1.62,1.51,0.6899999999999999,-0.02,-0.35
9.689081907272339,2,3,3,2,-9.75,1.61,1.54,0.38,-0.4,-0.46
9.699082136154175,2,3,3,2,-9.69,1.57,1.6,0.03,-0.55,-0.64
9.709082126617432,2,3,3,2,-9.619999999999999,1.54,1.71,-0.29,-0.65,-0.8
9.719082117080688,2,3,3,2,-9.51,1.48,1.74,-0.46,-0.82,-0.88
9.729082107543945,2,3,3,2,-9.470000000000001,1.44,1.79,-0.25,-0.95,-0.93
9.739082098007202,2,3,3,2,-9.4,1.39,1.68,0.33,-0.82,-0.96
9.749082088470459,2,3,3,2,-9.48,1.4,1.71,0.8,-0.41,-0.87
9.759082078933716,2,3,3,2,-9.699999999999999,1.37,1.65,0.95,-0.24,-0.73
9.769082069396973,2,3,3,2,-9.69,1.39,1.51,1.13,-0.27,-0.59
9.779082059860229,2,3,3,2,-9.65,1.44,1.47,1.1,-0.18,-0.37
9.789082050323486,2,3,3,2,-9.6,1.53,1.52,0.9,0.1,-0.07000000000000001
9.799082040786743,2,3,3,2,-9.550000000000001,1.75,1.56,0.8,0.25,0.2
9.80908203125,2,3,3,2,-9.56,1.8,1.5,0.79,0.31,0.47
9.819082021713257,2,3,3,2,-9.630000000000001,1.83,1.34,0.76,0.37,0.6
9.829082012176514,2,3,3,2,-9.640000000000001,1.82,1.34,0.59,0.35,0.57
9.839082002639771,2,3,3,2,-9.57,1.79,1.47,0.32,0.29,0.52
9.849081993103027,2,3,3,2,-9.57,1.79,1.47,-0.09,0.23,0.38
9.859081983566284,2,3,3,2,-9.619999999999999,1.81,1.57,-0.45,0.2,0.11
9.869081974029541,2,3,3,2,-9.65,1.82,1.61,-0.6,0.02,-0.08
9.879081964492798,2,3,3,2,-9.48,1.72,1.5,-0.54,-0.07000000000000001,-0.32
9.889081954956055,2,3,3,2,-9.52,1.66,1.6,-0.55,0.1,-0.51
9.899081945419312,2,3,3,2,-9.52,1.66,1.6,-0.55,0.1,-0.51
9.909081935882568,2,3,3,2,-9.619999999999999,1.59,1.75,-0.68,0.15,-0.63
9.919081926345825,2,3,3,2,-9.619999999999999,1.43,1.61,-0.42,-0.34,-0.55
9.929081916809082,2,3,3,2,-9.619999999999999,1.43,1.65,-0.22,-0.3,-0.4
9.939081907272339,2,3,3,2,-9.619999999999999,1.47,1.74,-0.14,-0.19,-0.24
9.949082136154175,2,3,3,2,-9.619999999999999,1.47,1.74,-0.14,-0.19,-0.24
9.959082126617432,2,3,3,2,-9.630000000000001,1.61,1.78,-0.02,-0.24,-0.11
9.969082117080688,2,3,3,2,-9.699999999999999,1.69,1.46,0.15,-0.27,0.01
9.979082107543945,2,3,3,2,-9.68,1.69,1.49,0.01,-0.13,-0.01
9.989082098007202,2,3,3,2,-9.58,1.71,1.64,-0.24,-0.09,0
9.999082088470459,2,3,3,2,-9.58,1.71,1.64,-0.24,-0.09,0
10.00908207893372,2,3,3,2,-9.59,1.71,1.71,-0.51,-0.12,0.11
10.01908206939697,2,3,3,2,-9.59,1.71,1.77,-0.8,-0.2,0.25
10.02908205986023,2,3,3,2,-9.550000000000001,1.75,1.67,-0.68,-0.24,0.22
10.03908205032349,2,3,3,2,-9.42,1.67,1.62,-0.59,-0.07000000000000001,0.16
10.04908204078674,2,3,3,2,-9.44,1.66,1.62,-0.59,-0.07000000000000001,0.16
10.05908203125,2,3,3,3,-9.539999999999999,1.61,1.64,-0.76,0.22,0.1
10.06908202171326,2,3,3,3,-9.66,1.59,1.7,-1.16,0.18,-0.04
10.07908201217651,2,3,3,3,-9.68,1.55,1.53,-1.07,0.07000000000000001,-0.04
10.08908200263977,2,3,3,3,-9.58,1.49,1.56,-0.98,0.1,-0.04
10.09908199310303,2,3,3,3,-9.5,1.43,1.62,-0.98,0.1,-0.04
10.10908198356628,2,3,3,3,-9.619999999999999,1.4,1.81,-0.95,0.15,-0.01
10.11908197402954,2,3,3,3,-9.710000000000001,1.42,1.76,-0.72,-0.18,0.01
10.1290819644928,2,3,3,3,-9.81,1.4,1.63,-0.59,-0.34,-0.07000000000000001
10.13908195495605,2,3,3,3,-9.779999999999999,1.34,1.57,-0.51,-0.33,-0.16
10.14908194541931,2,3,3,3,-9.58,1.3,1.62,-0.51,-0.33,-0.16
10.15908193588257,2,3,3,3,-9.49,1.28,1.7,-0.54,-0.29,-0.19
10.16908192634583,2,3,3,3,-9.43,1.3,1.74,-0.54,-0.28,-0.13
10.17908191680908,2,3,3,3,-9.5,1.27,1.67,-0.42,-0.26,-0.14
10.18908190727234,2,3,3,3,-9.640000000000001,1.31,1.66,-0.35,-0.23,-0.22
10.20008206367493,2,3,3,3,-9.68,1.29,1.65,-0.35,-0.23,-0.22
10.21008205413818,2,3,3,3,-9.66,1.29,1.67,-0.31,-0.24,-0.29
10.22008204460144,2,3,3,3,-9.67,1.25,1.76,-0.18,-0.35,-0.2
10.2300820350647,2,3,3,3,-9.630000000000001,1.25,1.67,-0.03,-0.28,-0.1
10.24008202552795,2,3,3,3,-9.630000000000001,1.24,1.63,0.04,-0.13,0.05
10.25008201599121,2,3,3,3,-9.609999999999999,1.25,1.67,0.04,-0.13,0.05
10.26008200645447,2,3,3,3,-9.6,1.26,1.7,0.25,0.03,0.23
10.27008199691772,2,3,3,3,-9.539999999999999,1.31,1.63,0.35,-0.02,0.23
10.28008198738098,2,3,3,3,-9.550000000000001,1.34,1.53,0.47,0.02,0.25
10.29008197784424,2,3,3,3,-9.6,1.35,1.56,0.43,0.05,0.23
10.3000819683075,2,3,3,3,-9.66,1.43,1.62,0.43,0.05,0.23
10.31008195877075,2,3,3,3,-9.65,1.43,1.62,0.28,0.01,0.14
10.32008194923401,2,3,3,3,-9.68,1.42,1.63,0.16,-0.16,0.03
10.33008193969727,2,3,3,3,-9.68,1.44,1.55,0.13,-0.2,-0.03
10.34008193016052,2,3,3,3,-9.59,1.35,1.62,0.07000000000000001,-0.19,-0.03
10.35008192062378,2,3,3,3,-9.550000000000001,1.32,1.67,0.07000000000000001,-0.19,-0.03
10.36008191108704,2,3,3,3,-9.550000000000001,1.3,1.71,-0.09,-0.01,0.02
10.37008190155029,2,3,3,3,-9.56,1.31,1.72,-0.06,-0.01,0.04
10.38008213043213,2,3,3,3,-9.609999999999999,1.24,1.63,0.1,-0.07000000000000001,0.09
10.39008212089539,2,3,3,3,-9.6,1.27,1.68,0.32,-0.05,0.05
10.40008211135864,2,3,3,3,-9.609999999999999,1.28,1.69,0.32,-0.05,0.05
10.4100821018219,2,3,3,3,-9.630000000000001,1.28,1.71,0.51,-0.04,0.03
10.42008209228516,2,3,3,3,-9.73,1.35,1.63,0.58,0.01,0.02
10.43008208274841,2,3,3,3,-9.67,1.33,1.52,0.63,-0.03,0.03
10.44008207321167,2,3,3,3,-9.66,1.35,1.57,0.65,-0.08,-0.01
10.45008206367493,2,3,3,3,-9.640000000000001,1.35,1.57,0.62,-0.09,0.01
10.46008205413818,2,3,3,3,-9.57,1.38,1.59,0.58,-0.07000000000000001,0.04
10.47008204460144,2,3,3,3,-9.6,1.43,1.64,0.5600000000000001,-0.1,0.08
10.4800820350647,2,3,3,3,-9.609999999999999,1.46,1.53,0.55,-0.12,0.08
10.49008202552795,2,3,3,3,-9.609999999999999,1.46,1.59,0.59,-0.08,0.08
10.50008201599121,2,3,3,3,-9.57,1.46,1.61,0.64,-0.03,0.05
10.51008200645447,2,3,3,3,-9.59,1.47,1.6,0.64,-0.08,0.01
10.52008199691772,2,3,3,3,-9.58,1.49,1.62,0.57,-0.12,-0.03
10.53008198738098,2,3,3,3,-9.58,1.47,1.51,0.51,-0.05,-0.07000000000000001
10.54008197784424,2,3,3,3,-9.65,1.47,1.57,0.37,-0.04,-0.11
10.5500819683075,2,3,3,3,-9.619999999999999,1.47,1.61,0.28,-0.02,-0.12
10.56008195877075,2,3,3,3,-9.609999999999999,1.47,1.66,0.27,-0.05,-0.14
10.57008194923401,2,3,3,3,-9.619999999999999,1.43,1.63,0.32,-0.07000000000000001,-0.19
10.58008193969727,2,3,3,3,-9.59,1.44,1.55,0.35,-0.08,-0.19
10.59008193016052,2,3,3,3,-9.6,1.43,1.59,0.44,-0.08,-0.19
10.60008192062378,2,3,3,3,-9.550000000000001,1.46,1.62,0.46,-0.11,-0.16
10.61008191108704,2,3,3,3,-9.619999999999999,1.5,1.66,0.44,-0.06,-0.14
10.62008190155029,2,3,3,3,-9.59,1.49,1.63,0.44,-0.01,-0.14
10.63008213043213,2,3,3,3,-9.59,1.51,1.48,0.48,0.03,-0.15
10.64008212089539,2,3,3,3,-9.57,1.5,1.52,0.45,0.08,-0.11
10.65008211135864,2,3,3,3,-9.619999999999999,1.5,1.62,0.28,0.12,-0.07000000000000001
10.6600821018219,2,3,3,3,-9.619999999999999,1.54,1.62,0.25,0.02,-0.06
10.67008209228516,2,3,3,3,-9.609999999999999,1.58,1.62,0.28,-0.1,-0.01
10.68008208274841,2,3,3,3,-9.640000000000001,1.59,1.51,0.33,-0.05,-0.04
10.69008207321167,2,3,3,3,-9.65,1.59,1.57,0.29,-0.02,-0.02
10.70008206367493,2,3,3,3,-9.630000000000001,1.61,1.64,0.21,-0.08,-0.04
10.71008205413818,2,3,3,3,-9.6,1.62,1.61,0.18,-0.11,-0.01
10.72008204460144,2,3,3,3,-9.59,1.61,1.55,0.16,-0.03,0.02
10.7300820350647,2,3,3,3,-9.59,1.6,1.49,0.1,0.02,0.06
10.74008202552795,2,3,3,3,-9.58,1.59,1.55,0.06,0.03,0.06
10.75008201599121,2,3,3,3,-9.59,1.6,1.56,-0.04,0.03,0.05
10.76008200645447,2,3,3,3,-9.619999999999999,1.61,1.62,-0.15,0.06,0.08
10.77008199691772,2,3,3,3,-9.609999999999999,1.61,1.63,-0.29,0.05,0.11
10.78008198738098,2,3,3,3,-9.59,1.6,1.53,-0.35,-0.04,0.11
10.79008197784424,2,3,3,3,-9.6,1.63,1.57,-0.33,-0.15,0.11
10.8000819683075,2,3,3,3,-9.699999999999999,1.65,1.63,-0.29,-0.13,0.1
10.81008195877075,2,3,3,3,-9.699999999999999,1.59,1.58,-0.26,-0.03,0.07000000000000001
10.82008194923401,2,3,3,3,-9.65,1.59,1.58,-0.27,-0.02,0.08
10.83008193969727,2,3,3,3,-9.6,1.59,1.49,-0.31,0.01,0.12
10.84008193016052,2,3,3,3,-9.6,1.6,1.5,-0.46,0.06,0.22
10.85008192062378,2,3,3,3,-9.640000000000001,1.56,1.52,-0.58,0.17,0.28
10.86008191108704,2,3,3,3,-9.69,1.57,1.54,-0.72,0.24,0.37
10.87008190155029,2,3,3,3,-9.69,1.51,1.58,-0.84,0.2,0.38
10.88008213043213,2,3,3,3,-9.66,1.46,1.5,-0.9,0.16,0.36
10.89008212089539,2,3,3,3,-9.630000000000001,1.42,1.61,-0.92,0.13,0.33
10.90008211135864,2,3,3,3,-9.6,1.41,1.68,-0.97,0.07000000000000001,0.36
10.9100821018219,2,3,3,3,-9.65,1.36,1.75,-0.9,0.06,0.38
10.92008209228516,2,3,3,3,-9.66,1.36,1.68,-0.8,0.05,0.42
10.93008208274841,2,3,3,3,-9.68,1.32,1.63,-0.7,0.09,0.48
10.94008207321167,2,3,3,3,-9.68,1.25,1.66,-0.57,0.14,0.5
10.95008206367493,2,3,3,3,-9.609999999999999,1.23,1.68,-0.55,0.19,0.59
10.96008205413818,2,3,3,3,-9.59,1.31,1.7,-0.57,0.29,0.71
10.97008204460144,2,3,3,3,-9.58,1.37,1.71,-0.53,0.38,0.83
10.9800820350647,2,3,3,3,-9.57,1.46,1.56,-0.45,0.4,0.89
10.99008202552795,2,3,3,3,-9.56,1.49,1.54,-0.37,0.28,0.9
11.00008201599121,2,3,3,3,-9.56,1.45,1.61,-0.32,0.2,0.82
11.01008200645447,2,3,3,3,-9.56,1.45,1.63,-0.44,0.03,0.66
11.02008199691772,2,3,3,3,-9.52,1.43,1.69,-0.64,-0.08,0.52
11.03008198738098,2,3,3,3,-9.609999999999999,1.42,1.65,-0.75,-0.11,0.43
11.04008197784424,2,3,3,3,-9.65,1.4,1.69,-0.79,-0.08,0.33
11.0500819683075,2,3,3,3,-9.699999999999999,1.4,1.71,-0.61,-0.13,0.28
11.06008195877075,2,3,3,3,-9.73,1.4,1.65,-0.48,0.01,0.22
11.07008194923401,2,3,3,3,-9.66,1.37,1.65,-0.43,0.17,0.18
11.08008193969727,2,3,3,3,-9.609999999999999,1.41,1.58,-0.5,0.25,0.27
11.09008193016052,2,3,3,3,-9.609999999999999,1.44,1.65,-0.57,0.28,0.4
11.10008192062378,2,3,3,3,-9.56,1.45,1.67,-0.6,0.29,0.51
11.11008191108704,2,3,3,3,-9.6,1.47,1.67,-0.5,0.29,0.67
11.12008190155029,2,3,3,3,-9.56,1.52,1.71,-0.5,0.29,0.67
11.13008213043213,2,3,3,3,-9.470000000000001,1.51,1.64,-0.63,0.08,0.61
11.14008212089539,2,3,3,3,-9.32,1.47,1.75,-0.78,0.05,0.38
11.15008211135864,2,3,3,3,-9.31,1.51,1.81,-0.84,0.12,0.24
11.1600821018219,2,3,3,3,-9.35,1.53,1.94,-0.77,0.01,0.07000000000000001
11.17008209228516,2,3,3,3,-9.51,1.54,2.2,-0.85,-0.63,-0.11
11.18008208274841,2,3,3,3,-9.470000000000001,1.37,1.77,-0.99,-1.37,-0.33
11.19108200073242,2,3,3,3,-9.539999999999999,1.26,1.31,-1.16,-1.17,-0.5600000000000001
11.20008206367493,2,3,3,3,-9.75,1.14,1.33,-1.57,-1.02,-0.6
11.21008205413818,2,3,3,3,-9.58,1,1.28,-0.93,-1.27,-0.42
11.22108197212219,2,3,3,3,-9.27,1.08,1.13,0.05,-0.43,-0.06
11.23108196258545,2,3,3,3,-9.380000000000001,1.01,1.05,0.29,0.71,0.42
11.24108195304871,2,3,3,3,-9.550000000000001,0.93,1.14,0.28,1.32,0.99
11.25108194351196,2,3,3,3,-9.630000000000001,0.8,1.15,0.41,1.31,1.6
11.26108193397522,2,3,3,3,-9.73,0.7,0.92,0.9399999999999999,1.36,2.06
11.27108192443848,2,3,3,3,-9.99,0.64,1,1.41,1.4,2.21
11.28108191490173,2,3,3,3,-10.19,0.63,1.03,2.07,0.92,2.08
11.29108190536499,2,3,3,3,-10.18,0.66,0.9399999999999999,2.95,0.27,1.79
11.30108213424683,2,3,3,3,-10.08,0.77,0.79,3.63,-0.04,1.57
11.31108212471008,2,3,3,3,-10.02,0.92,0.74,3.76,0,1.46
11.32108211517334,2,3,3,3,-9.94,1.07,0.71,3.45,-0.01,1.46
11.3310821056366,2,3,3,3,-9.84,1.35,0.67,3.11,-0.11,1.46
11.34108209609985,2,3,3,3,-9.789999999999999,1.5,0.79,2.64,-0.32,1.4
11.35108208656311,2,3,3,3,-9.76,1.57,0.83,2.24,-0.51,1.22
11.36108207702637,2,3,3,3,-9.74,1.63,0.88,1.92,-0.73,0.95
11.37108206748962,2,3,3,3,-9.67,1.58,0.7,1.68,-0.93,0.64
11.38108205795288,2,3,3,3,-9.74,1.58,0.61,1.51,-0.82,0.36
11.39108204841614,2,3,3,3,-9.859999999999999,1.55,0.72,1.18,-0.78,0.14
11.40108203887939,2,3,3,3,-9.949999999999999,1.55,0.75,0.89,-1.09,-0.04
11.41108202934265,2,3,3,3,-10.09,1.64,0.82,0.87,-1.36,-0.12
11.42108201980591,2,3,3,3,-10.19,1.7,0.82,0.96,-1.55,-0.21
11.43108201026917,2,3,3,3,-10.23,1.71,0.76,1.04,-1.83,-0.31
11.44108200073242,2,3,3,3,-10.27,1.76,0.88,1.05,-2.25,-0.47
11.45108199119568,2,3,3,3,-10.3,1.92,1.37,0.97,-2.61,-0.73
11.46108198165894,2,3,3,3,-10.29,2.09,1.55,0.8,-3.12,-0.95
11.47108197212219,2,3,3,3,-10.25,2.28,1.67,0.85,-3.87,-1.18
11.48108196258545,2,3,3,3,-10.18,2.52,1.67,0.88,-4.46,-1.36
11.49108195304871,2,3,3,3,-9.789999999999999,2.86,1.51,0.9,-4.71,-1.5
11.50108194351196,2,3,3,3,-9.630000000000001,3.01,1.37,1.05,-3.99,-1.61
11.51108193397522,2,3,3,3,-9.619999999999999,3.08,1.46,0.42,-2.97,-1.7
11.52108192443848,2,3,3,3,-9.4,3.01,1.81,-0.92,-2.46,-1.65
11.53108191490173,2,3,3,3,-9.25,2.95,2.1,-2.52,-2.17,-1.46
11.54108190536499,2,3,3,3,-9.09,2.8,2.36,-3.96,-2.05,-1.23
11.55108213424683,2,3,3,3,-8.869999999999999,2.55,2.64,-5.04,-2.04,-1.18
11.56108212471008,2,3,3,3,-8.59,2.04,3.14,-5.83,-1.98,-1.26
11.57108211517334,2,3,3,3,-8.470000000000001,1.69,3.21,-6.25,-2,-1.53
11.5810821056366,2,3,3,3,-8.41,1.24,3.2,-6.35,-2.17,-1.64
11.59108209609985,2,3,3,3,-8.51,0.87,3.34,-6.44,-2.08,-1.8
11.60108208656311,2,3,3,3,-8.949999999999999,0.09,3.86,-6.41,-1.94,-1.9
11.61108207702637,2,3,3,3,-9.4,-0.28,4.12,-6.04,-2.29,-2.04
11.62108206748962,2,3,3,3,-9.91,-0.57,4.3,-5.1,-3.19,-2.24
11.63108205795288,2,3,3,3,-10.24,-0.72,4.22,-3.58,-4.32,-2.33
11.64108204841614,2,3,3,3,-10.35,-0.84,3.68,-1.66,-4.61,-2.25
11.65108203887939,2,3,3,3,-10.48,-0.8,3.41,0.26,-4.08,-2
11.66108202934265,2,3,3,3,-10.55,-0.57,3.28,1.68,-3.47,-1.46
11.67108201980591,2,3,3,3,-10.54,-0.44,3.1,2.46,-3.01,-0.65
11.68108201026917,2,3,3,3,-10.2,-0.06,2.85,2.9,-2.84,0.33
11.69108200073242,2,3,3,3,-9.91,0.19,2.93,2.76,-2.93,1.2
11.70108199119568,2,3,3,3,-9.5,0.4,2.92,2.56,-2.93,1.83
11.71108198165894,2,3,3,3,-8.74,0.79,3.1,2.38,-2.7,2
11.72108197212219,2,3,3,3,-8.359999999999999,0.9399999999999999,3.28,1.84,-2.64,1.72
11.73108196258545,2,3,3,3,-8.15,1.01,3.41,1.16,-2.86,1.16
11.74108195304871,2,3,3,3,-8.01,1,3.56,0.7,-2.88,0.43
11.75108194351196,2,3,3,3,-8.01,0.85,3.75,0.37,-3.05,-0.4
11.76108193397522,2,3,3,3,-7.96,0.68,3.72,0.36,-3.43,-1.19
11.77108192443848,2,3,3,3,-7.95,0.44,3.62,0.5600000000000001,-3.54,-1.83
11.78108191490173,2,3,3,3,-8.08,0.2,3.5,0.66,-3.27,-2.29
11.79108190536499,2,3,3,3,-8.49,-0.13,3.57,0.64,-3.21,-2.53
11.80108213424683,2,3,3,3,-8.69,-0.25,3.67,0.76,-3.39,-2.49
11.81108212471008,2,3,3,3,-8.869999999999999,-0.32,3.62,0.9,-3.76,-2.36
11.82108211517334,2,3,3,3,-8.789999999999999,-0.47,3.38,1.1,-4.1,-2.16
11.8310821056366,2,3,3,3,-8.58,-0.6899999999999999,3.26,1.33,-3.46,-1.87
11.84108209609985,2,3,3,3,-8.859999999999999,-0.72,3.66,1.36,-2.27,-1.56
11.85108208656311,2,3,3,3,-9.01,-0.76,3.76,1.57,-1.93,-1.43
11.86108207702637,2,3,3,3,-8.859999999999999,-0.83,3.63,2.39,-2.19,-1.3
11.87108206748962,2,3,3,3,-8.68,-0.85,3.48,3.42,-1.99,-1.19
11.88108205795288,2,3,3,3,-8.65,-0.83,3.41,3.94,-1.53,-1.24
11.89108204841614,2,3,3,3,-8.529999999999999,-0.89,3.35,4.3,-1.08,-1.32
11.90108203887939,2,3,3,3,-8.65,-0.72,3.55,4.56,-0.52,-1.4
11.91108202934265,2,3,3,3,-8.75,-0.61,3.52,4.53,-0.18,-1.43
11.92108201980591,2,3,3,3,-8.75,-0.61,3.52,4.62,-0.15,-1.35
11.93108201026917,2,3,3,3,-8.74,-0.3,3.46,4.58,-0.1,-1.19
11.94108200073242,2,3,3,3,-8.640000000000001,-0.08,3.58,4.65,-0.06,-1.17
11.95108199119568,2,3,3,3,-8.630000000000001,-0.08,3.69,4.62,0.11,-1.25
11.96108198165894,2,3,3,3,-8.630000000000001,-0.08,3.69,4.45,0.17,-1.42
11.97108197212219,2,3,3,3,-8.710000000000001,-0.02,3.91,4.52,-0.12,-1.69
11.98108196258545,2,3,3,3,-8.83,0.14,3.85,4.81,-0.34,-1.83
11.99108195304871,2,3,3,3,-8.9,0.31,3.95,5.09,-0.33,-1.82
12.00108194351196,2,3,3,3,-8.94,0.41,3.86,5.09,0.01,-1.66
12.01108193397522,2,3,3,3,-8.94,0.41,3.86,4.92,0.89,-1.46
12.02108192443848,2,3,3,3,-8.949999999999999,0.44,3.73,4.3,1.85,-1.33
12.03108191490173,2,3,3,3,-8.93,0.09,4.05,3.55,2.15,-1.27
12.04108190536499,2,3,3,3,-8.99,0,4.39,3.19,2,-1.32
12.05108213424683,2,3,3,3,-9.119999999999999,0,4.68,3.55,1.39,-1.52
12.06108212471008,2,3,3,3,-9.119999999999999,0,4.68,3.55,1.39,-1.52
12.07108211517334,2,3,3,3,-9.949999999999999,0.02,5.21,4.32,0.46,-1.93
12.0810821056366,2,3,3,3,-11.29,0.12,5.17,6.13,-2.18,-3.34
12.09108209609985,2,3,3,3,-12.69,0.65,4.76,6.92,-3.28,-4.14
12.10108208656311,2,3,3,3,-13.17,0.85,4.51,7.02,-3.75,-4.66
12.11108207702637,2,3,3,2,-13.17,0.85,4.51,6.7,-3.95,-4.5
12.12108206748962,2,3,3,2,-13.15,1.43,4.34,5.83,-3.66,-2.8
12.13108205795288,2,3,3,2,-11.61,2.32,3.48,4.84,-3.04,-1.52
12.14108204841614,2,3,3,2,-10.92,1.45,3.95,2.78,-4.91,-1.16
12.15108203887939,2,3,3,2,-9.890000000000001,0.8,4.76,1.36,-4.88,-0.43
12.16108202934265,2,3,3,2,-9.890000000000001,0.8,4.76,1.36,-4.88,-0.43
12.17108201980591,2,3,3,2,-9.029999999999999,0.43,5.71,-0.67,-4.19,-1.01
12.18108201026917,2,3,3,2,-7.88,0.09,5.59,-0.05,-3.28,-3.15
12.19108200073242,2,3,3,2,-7.88,0.09,5.59,2.58,-2.12,-3.86
12.20108199119568,2,3,3,2,-8.41,0.2,5.63,4.14,-0.73,-3.91
12.21108198165894,2,3,3,2,-8.880000000000001,0.21,5.1,4.14,-0.73,-3.91
12.22108197212219,2,3,3,2,-9.869999999999999,0.6899999999999999,3.67,4.83,1.32,-3.26
12.23108196258545,2,3,3,2,-10.34,1.14,2.79,2.99,4.54,0.31
12.24108195304871,2,3,3,2,-10.65,1.54,2.26,0.93,5.1,2.22
12.25208210945129,2,3,3,2,-10.75,2.01,1.91,-0.62,4.56,3.47
12.26208209991455,2,3,3,2,-10.13,2.65,2.16,-0.62,4.56,3.47
12.27208209037781,2,3,3,2,-9.58,2.7,2.18,-1.38,3.08,4.09
12.28208208084106,2,3,3,2,-8.890000000000001,2.57,2.37,-1.65,2.33,3.57
12.29208207130432,2,3,3,2,-8.4,2.49,2.24,-1.65,3.04,3.04
12.30208206176758,2,3,3,2,-7.95,2.36,2.19,-1.8,3.54,2.82
12.31208205223083,2,3,3,2,-8.050000000000001,2.3,1.9,-1.8,3.54,2.82
12.32208204269409,2,3,3,2,-8.130000000000001,2.27,1.45,-1.41,3.68,2.82
12.33208203315735,2,3,3,2,-8.18,1.92,1.15,-1.3,4.28,2.86
12.34208202362061,2,3,3,2,-8.359999999999999,1.95,1.13,-0.84,4.1,2.68
12.35208201408386,2,3,3,2,-8.5,2.03,1.14,-0.2,3.21,2.35
12.36208200454712,2,3,3,2,-8.59,2.09,0.9399999999999999,-0.2,3.21,2.35
12.37208199501038,2,3,3,2,-8.630000000000001,2.14,0.77,0.35,2.42,1.78
12.38208198547363,2,3,3,2,-8.779999999999999,2.24,1.03,0.23,1.28,0.62
12.39208197593689,2,3,3,2,-8.91,2.36,1.17,-0.25,0.71,0.19
12.40208196640015,2,3,3,2,-9.08,2.42,1.34,-0.53,0.37,-0.07000000000000001
12.4120819568634,2,3,3,2,-8.93,2.36,1.53,-0.53,0.37,-0.07000000000000001
12.42208194732666,2,3,3,2,-8.83,2.2,1.58,-0.78,0.55,-0.18
12.43208193778992,2,3,3,2,-8.619999999999999,2.09,1.53,-1.15,1.97,0.22
12.44208192825317,2,3,3,2,-8.449999999999999,1.97,1.5,-1.35,2.74,0.64
12.45208191871643,2,3,3,2,-8.49,1.87,1.45,-1.63,3.4,1.18
12.46208190917969,2,3,3,2,-8.42,1.85,1.49,-1.63,3.4,1.18
12.47208189964294,2,3,3,2,-8.529999999999999,1.89,1.37,-2,3.96,1.44
12.48208212852478,2,3,3,2,-8.67,1.95,1.36,-2.92,4.82,1.66
12.49208211898804,2,3,3,2,-9.02,2.07,1.22,-3.24,4.87,1.73
12.50208210945129,2,3,3,2,-9.16,1.92,1.17,-3.84,4.74,1.76
12.51208209991455,2,3,3,2,-9.19,2.02,1.21,-3.84,4.74,1.76
12.52208209037781,2,3,3,2,-9.279999999999999,1.94,1.2,-4.48,4.59,2
12.53208208084106,2,3,3,2,-9.199999999999999,1.92,1.24,-5.22,4.14,2.36
12.54208207130432,2,3,3,2,-9.140000000000001,1.96,1.18,-5.78,4.07,2.35
12.55208206176758,2,3,3,2,-9.140000000000001,1.73,1.24,-6.26,3.86,2.3
12.56208205223083,2,3,3,2,-9.050000000000001,1.59,1.6,-6.26,3.86,2.3
12.57208204269409,2,3,3,2,-9.18,1.5,1.7,-6.56,3.55,2.16
12.58208203315735,2,3,3,2,-9.300000000000001,1.23,1.81,-6.23,2.75,1.21
12.59208202362061,2,3,3,2,-9.380000000000001,1.01,1.6,-5.7,2.75,0.6899999999999999
12.60208201408386,2,3,3,2,-9.859999999999999,0.55,1.68,-5.45,2.91,0.2
12.61208200454712,2,3,3,2,-10.01,0.38,1.79,-5.45,2.91,0.2
12.62208199501038,2,3,3,2,-10.13,0.24,1.75,-5.12,2.8,-0.06
12.63208198547363,2,3,3,2,-10.21,0.22,1.85,-4.31,2.32,0.27
12.64208197593689,2,3,3,2,-10.26,0.33,1.88,-4.31,2.32,0.27
12.65208196640015,2,3,3,2,-10.15,0.48,1.89,-3.62,2.11,0.79
12.6620819568634,2,3,3,2,-9.98,0.5600000000000001,2,-2.84,1.94,1.44
12.67208194732666,2,3,3,2,-9.869999999999999,0.7,2.11,-2.2,1.86,2.16
12.68208193778992,2,3,3,2,-9.699999999999999,1.07,1.87,-1.39,2.15,2.86
12.69208192825317,2,3,3,2,-9.720000000000001,1.2,1.69,-0.95,2.64,3.41
12.70208191871643,2,3,3,2,-9.74,1.19,1.6,-1.32,2.95,3.76
12.72208189964294,2,3,3,2,-9.949999999999999,0.78,1.89,-3.8,2.46,3.68
12.73208212852478,2,3,3,2,-9.83,0.6,1.85,-4.93,1.35,3.45
12.74208211898804,2,3,3,2,-9.69,0.43,1.79,-5.44,0.31,3.08
12.75208210945129,2,3,3,2,-9.42,0.03,1.85,-5.92,-0.3,2.75
12.76208209991455,2,3,3,2,-9.44,-0.13,1.9,-6.08,-0.52,2.44
12.77208209037781,2,3,3,2,-9.539999999999999,-0.25,1.92,-6.05,-0.64,2.17
12.78208208084106,2,3,3,2,-9.699999999999999,-0.32,1.88,-5.61,-0.67,1.95
12.79208207130432,2,3,3,2,-10.06,-0.31,1.66,-5.04,-0.79,1.8
12.80208206176758,2,3,3,2,-10.21,-0.2,1.63,-4.66,-0.85,1.83
12.81208205223083,2,3,3,2,-10.31,-0.11,1.5,-4.35,-0.89,2.02
12.82208204269409,2,3,3,2,-10.28,-0.03,1.38,-4.35,-0.86,2.49
12.83208203315735,2,3,3,2,-10.11,0.13,1.59,-4.48,-0.65,3.18
12.84208202362061,2,3,3,2,-10,0.17,1.5,-4.31,-0.28,3.92
12.85208201408386,2,3,3,2,-9.92,0.27,1.64,-3.53,0.11,4.55
12.86208200454712,2,3,3,2,-9.960000000000001,0.3,1.75,-2.93,0.59,4.88
12.87208199501038,2,3,3,2,-9.859999999999999,0.32,1.89,-2.84,1.02,5.06
12.88208198547363,2,3,3,2,-9.91,0.42,2.15,-3.25,1.29,5
12.89208197593689,2,3,3,2,-9.970000000000001,0.45,2.23,-4.22,1.27,4.84
12.90208196640015,2,3,3,2,-9.960000000000001,0.8,2.74,-4.82,1.08,4.51
12.9120819568634,2,3,3,2,-10.08,1.08,3.26,-5.11,1.04,3.98
12.92208194732666,2,3,3,2,-10.37,1.3,3.59,-5.33,1.2,3.41
12.93208193778992,2,3,3,2,-10.48,1.38,3.43,-4.89,1.43,2.69
12.94208192825317,2,3,3,2,-10.83,1.07,2.59,-3.66,2.52,1.89
12.95208191871643,2,3,3,2,-11.08,0.7,2.53,-2.76,4.22,0.98
12.96208190917969,2,3,3,2,-11.4,0.19,2.49,-2.36,5.87,0.14
12.97208189964294,2,3,3,2,-11.79,-0.11,2.35,-1.63,7.04,-0.55
12.98208212852478,2,3,3,2,-12.27,-0.15,1.28,-0.42,7.74,-0.99
12.99208211898804,2,3,3,2,-12.41,0.36,0.79,1.3,7.89,-0.74
13.00208210945129,2,3,3,2,-12.46,1.03,0.53,2.76,7.82,0.23
13.01208209991455,2,3,3,2,-12.55,1.74,0.33,3.95,7.3,1.16
13.02208209037781,2,3,3,2,-11.54,4.01,1,5.27,5.99,1.68
13.03208208084106,2,3,3,2,-10.76,5.02,0.72,5.88,4.64,1.55
13.04208207130432,2,3,3,2,-9.66,5.98,0.22,6.89,2.9,0.8
13.05208206176758,2,3,3,2,-8.65,6.74,-0.39,7.32,2.12,-0.26
13.06208205223083,2,3,3,2,-8.119999999999999,8.27,-0.95,5.98,2.81,-1.54
13.07208204269409,2,3,3,1,-8.289999999999999,6.36,-0.31,1.89,2.49,-3.73
13.08208203315735,2,3,3,1,-8.49,7.23,0.52,-3.89,3.17,-4.16
13.09208202362061,2,3,3,1,-8.859999999999999,5.74,1.24,-8.130000000000001,4.05,-4.97
13.10208201408386,2,3,3,1,-8.76,4.68,1.63,-12.05,2.29,-6.56
13.11308193206787,2,3,3,1,-8.859999999999999,3.55,2.15,-13.49,1.25,-8.31
13.12208199501038,2,3,3,1,-9.199999999999999,2.27,2.71,-13.75,1.47,-9.789999999999999
13.13208198547363,2,3,3,1,-9.640000000000001,0.05,3.12,-13.43,0.84,-10.8
13.14308190345764,2,3,3,1,-9.859999999999999,-0.6899999999999999,3.14,-11.4,-0.82,-11.24
13.15208196640015,2,3,3,1,-10.3,-1.19,3.15,-7.91,-2.49,-10.99
13.1620819568634,2,3,3,1,-10.66,-1.43,2.86,-4.27,-4.03,-10.41
13.17308211326599,2,3,3,1,-10.44,-1.25,1.88,-0.76,-5.53,-9.26
13.18208193778992,2,3,3,1,-10.4,-0.84,1.66,2.32,-6.28,-7.55
13.19208192825317,2,3,3,1,-10.24,-0.63,1.4,4.24,-6.13,-5.73
13.20308208465576,2,3,3,1,-9.99,-0.17,1.29,5.52,-6.12,-4.08
13.21208190917969,2,3,3,1,-9.42,0.61,1.45,6.82,-6.57,-2.53
13.22208189964294,2,3,3,1,-8.77,0.93,1.52,7.48,-7.19,-1.57
13.23308205604553,2,3,3,1,-8.33,1.14,1.58,7.65,-7.9,-1.04
13.24208211898804,2,3,3,1,-7.95,1.22,1.61,7.86,-7.86,-1.12
13.25208210945129,2,3,3,1,-7.29,1.5,2.18,7.99,-7.82,-1.41
13.2630820274353,2,3,3,1,-7.04,1.65,2.23,7.96,-8.26,-1.71
13.27308201789856,2,3,3,1,-7.01,1.76,2.29,7.92,-8.5,-2.11
13.28308200836182,2,3,3,1,-7.46,2.08,2.17,7.88,-8.16,-2.48
13.29308199882507,2,3,3,1,-7.76,2.15,2.25,7.63,-7.28,-2.91
13.30308198928833,2,3,3,1,-8.029999999999999,2.03,2.38,6.51,-6.45,-3.29
13.31308197975159,2,3,3,1,-8.27,1.93,2.52,5.22,-5.99,-3.45
13.32308197021484,2,3,3,1,-8.609999999999999,1.81,2.8,4.12,-5.67,-3.4
13.3330819606781,2,3,3,1,-8.74,1.65,2.85,2.98,-5.03,-3.13
13.34308195114136,2,3,3,1,-8.93,1.52,2.88,1.67,-4.56,-2.64
13.35308194160461,2,3,3,1,-8.949999999999999,1.29,2.76,0.46,-4.54,-2.12
13.36308193206787,2,3,3,1,-8.56,0.71,2.42,-0.24,-4.32,-1.64
13.37308192253113,2,3,3,1,-8.58,0.43,2.6,-0.15,-2.07,-0.53
13.38308191299438,2,3,3,1,-8.67,0.06,2.92,-0.15,-2.07,-0.53
13.39308190345764,2,3,3,1,-8.56,-0.27,2.85,-0.53,-0.99,-0.19
13.40308213233948,2,3,3,1,-7.91,-0.52,2.58,-0.38,-0.52,0.11
13.41308212280273,2,3,3,1,-7.71,-0.72,2.53,-0.24,0.14,0.28
13.42308211326599,2,3,3,1,-7.54,-0.79,2.5,0,0.85,0.5
13.43308210372925,2,3,3,1,-7.39,-0.8100000000000001,2.52,0.22,1.5,0.76
13.4430820941925,2,3,3,1,-7.34,-0.98,2.49,0.28,2.2,1.04
13.45308208465576,2,3,3,1,-7.38,-1.12,2.7,0.45,2.71,1.17
13.46308207511902,2,3,3,1,-7.58,-1.25,3.01,0.61,2.88,1.08
13.47308206558228,2,3,3,1,-7.96,-1.56,3.39,0.83,2.68,0.83
13.48308205604553,2,3,3,1,-8.17,-1.64,3.37,1.69,2.62,0.5
13.49308204650879,2,3,3,1,-8.49,-1.68,3.28,2.78,2.88,0.13
13.50308203697205,2,3,3,1,-8.779999999999999,-1.62,3.33,3.84,3.12,-0.15
13.5130820274353,2,3,3,1,-9.51,-1.19,3.67,4.85,2.8,-0.5
13.52308201789856,2,3,3,1,-9.83,-0.87,3.77,5.98,1.77,-0.85
13.53308200836182,2,3,3,1,-9.869999999999999,-0.6,3.41,7.55,0.26,-1.16
13.54308199882507,2,3,3,1,-9.94,-0.28,3.02,9.24,-0.43,-1.31
13.55308198928833,2,3,3,1,-10.61,0.75,3.05,10.63,-0.62,-1.32
13.56308197975159,2,3,3,1,-10.75,1.28,2.57,12,-0.79,-0.99
13.57308197021484,2,3,3,1,-10.85,1.46,2.07,12.11,0.04,-0.49
13.5830819606781,2,3,3,1,-11.03,1.33,2.03,9.77,1.67,0.02
13.59308195114136,2,3,3,1,-11.53,0.3,3.15,5.68,2.68,0.3
13.60308194160461,2,3,3,1,-11.6,-0.42,4,1.36,2.19,0.01
13.61308193206787,2,3,3,1,-11.3,-1.17,4.72,-2.18,0.44,-1.09
13.62308192253113,2,3,3,1,-10.59,-1.89,4.83,-3.6,-1.37,-2.81
13.63308191299438,2,3,3,1,-10.39,-3.06,6.17,-2.27,-2.32,-4.69
13.64308190345764,2,3,3,1,-10.65,-2.81,6.24,1.67,-4.42,-5.99
13.65308213233948,2,3,3,1,-10.7,-1.45,5.05,7.05,-8.300000000000001,-8.210000000000001
13.66308212280273,2,3,3,1,-12.98,-1.19,5.12,10.22,-8.9,-8.789999999999999
13.67308211326599,2,3,3,1,-15.17,-0.75,5.38,10.76,-7.06,-8.380000000000001
13.68308210372925,2,3,3,1,-16.69,0.7,4.87,10.61,-5.44,-7.13
13.6930820941925,2,3,3,1,-17.25,2.85,3.03,11.55,-3.57,-3.75
13.70308208465576,2,3,3,1,-17.43,6.12,-0.62,10.84,-0.34,1.38
13.71308207511902,2,3,3,1,-15.89,5.52,-0.11,3.39,1.54,5.97
13.72308206558228,2,3,3,1,-12.97,5.39,2.06,-5.69,-0.5600000000000001,8.789999999999999
13.73308205604553,2,3,3,1,-10.4,4.82,3.16,-10.83,-4.83,9.369999999999999
13.74308204650879,2,3,3,1,-6.52,3.68,4.57,-11.15,-6.64,7.88
13.75308203697205,2,3,3,1,-4.92,2.82,4.45,-8.6,-6.29,5.21
13.7630820274353,2,3,3,1,-4.5,1.93,3.88,-5.24,-2.83,2.06
13.77308201789856,2,3,3,1,-4.81,1.13,2.92,-1.43,1.35,-0.33
13.78308200836182,2,3,3,1,-6.52,0.14,1.37,2.22,4.93,-1.16
13.79308199882507,2,3,3,1,-7.46,-0.06,0.41,4.76,7.56,-0.15
13.80308198928833,2,3,3,1,-8.44,0.06,-0.4,6.04,9.41,1.84
13.81308197975159,2,3,3,1,-9.449999999999999,0.63,-0.91,6.52,9.32,3.79
13.82308197021484,2,3,3,1,-10.68,2.75,-0.29,6.6,6.44,5.23
13.8330819606781,2,3,3,1,-10.42,3.47,0.18,6.11,2.04,5.69
13.84308195114136,2,3,3,1,-9.59,3.94,0.44,5.7,-1.56,4.99
13.85308194160461,2,3,3,1,-8.69,4.43,0.79,4.97,-2.93,3.82
13.86308193206787,2,3,3,1,-7.31,4.57,1.34,4.05,-2.53,2.95
13.87308192253113,2,3,3,1,-6.89,4.5,1.52,3.16,-1.39,2.44
13.88308191299438,2,3,3,1,-6.64,4.29,1.48,2.3,-0.26,2.14
13.89308190345764,2,3,3,1,-6.57,3.91,1.02,1.59,1.04,1.86
13.90308213233948,2,3,3,1,-6.81,3.67,0.96,0.37,2.54,1.58
13.91308212280273,2,3,3,1,-7.07,3.57,0.9399999999999999,-1.02,3.92,1.56
13.92308211326599,2,3,3,1,-7.27,3.8,0.8100000000000001,-2.44,4.99,1.74
13.93308210372925,2,3,3,1,-8.199999999999999,3.71,0.68,-4.34,6.02,1.83
13.9430820941925,2,3,3,1,-8.58,3.55,0.61,-6.35,6.43,1.83
13.95308208465576,2,3,3,1,-8.9,3.5,0.59,-7.63,6.14,1.74
13.96308207511902,2,3,3,1,-9.08,3.51,0.44,-8.26,6.03,1.46
13.97308206558228,2,3,3,1,-9.220000000000001,3.05,0.55,-9.09,5.87,1.53
13.98308205604553,2,3,3,1,-9.65,3,0.75,-9.42,6.16,1.89
13.99308204650879,2,3,3,1,-9.869999999999999,2.55,0.6,-9.42,6.17,1.68
14.00308203697205,2,3,3,1,-9.710000000000001,1.97,0.47,-9.9,6.01,1
14.0130820274353,2,3,3,1,-9.65,1.3,1.08,-10.71,5.93,0.34
14.02308201789856,2,3,3,1,-9.65,1.06,1.34,-10.99,5.16,-0.29
14.03308200836182,2,3,3,1,-9.720000000000001,0.8100000000000001,1.5,-10.89,3.83,-0.77
14.04308199882507,2,3,3,1,-9.75,0.53,1.57,-10.85,2.78,-1.17
14.05308198928833,2,3,3,1,-9.83,-0.33,1.61,-10.48,2.3,-1.46
14.06308197975159,2,3,3,1,-9.869999999999999,-0.66,1.85,-9.800000000000001,2.03,-1.63
14.07308197021484,2,3,3,1,-9.869999999999999,-0.66,1.85,-8.83,2.12,-1.47
14.0830819606781,2,3,3,1,-9.99,-1.01,2.02,-7.05,2.16,-1.05
14.09308195114136,2,3,3,1,-10.2,-1.05,1.85,-5.5,2.47,-0.44
14.10308194160461,2,3,3,1,-10.21,-0.6899999999999999,2.03,-4.24,2.61,0.57
14.11308193206787,2,3,3,1,-10.2,-0.19,2.03,-2.91,2.44,1.87
14.12308192253113,2,3,3,1,-10.2,-0.19,2.03,-1.57,2.37,3.19
14.13308191299438,2,3,3,1,-10.05,0.84,1.59,-0.71,2.24,4.43
14.14308190345764,2,3,3,1,-9.81,1.58,1.25,-0.72,1.95,5.47
14.15308213233948,2,3,3,1,-9.630000000000001,1.82,1.06,-0.66,1.77,6.1
14.16308212280273,2,3,3,1,-9.630000000000001,1.88,1.37,-1.72,1.49,6.17
14.17308211326599,2,3,3,1,-9.630000000000001,1.88,1.37,-2.96,0.63,5.7
14.18308210372925,2,3,3,1,-9.619999999999999,1.76,1.36,-3.84,-0.27,4.93
14.1930820941925,2,3,3,1,-9.41,1.24,1.28,-4.77,-1.19,4.07
14.20308208465576,2,3,3,1,-8.970000000000001,0.59,1.58,-5.57,-1.88,3.31
14.21308207511902,2,3,3,1,-8.75,0.2,1.62,-6.07,-2.5,2.68
14.22308206558228,2,3,3,1,-8.75,0.2,1.62,-6.07,-2.5,2.68
14.23308205604553,2,3,3,1,-8.59,0,1.66,-5.78,-2.81,2.3
14.24308204650879,2,3,3,1,-8.470000000000001,-0.41,1.59,-4.7,-2.39,2.23
14.2540819644928,2,3,3,1,-8.52,-0.46,1.7,-4.21,-1.86,2.38
14.2630820274353,2,3,3,1,-8.609999999999999,-0.47,1.51,-3.52,-1.51,2.48
14.27308201789856,2,3,3,1,-8.609999999999999,-0.47,1.51,-3.21,-1.23,2.5
14.28308200836182,2,3,3,1,-8.83,-0.14,2.02,-3.55,-1.49,2.6
14.29308199882507,2,3,3,1,-8.82,0.36,2.05,-3.58,-1.87,2.73
14.30408191680908,2,3,3,1,-8.949999999999999,0.49,1.86,-3.63,-2.01,2.78
14.33408212661743,2,3,3,1,-9.18,0.28,1.22,-2.74,-1.3,3.02
14.34408211708069,2,3,3,1,-9.35,-0.23,1.32,-0.55,1.32,3.04
14.35408210754395,2,3,3,1,-9.35,-0.23,1.32,0.05,2.62,2.74
14.3640820980072,2,3,3,1,-10.14,-0.68,0.92,-1.25,3.14,2.47
14.37408208847046,2,3,3,1,-10.59,-0.68,1.37,-1.25,3.14,2.47
14.38408207893372,2,3,3,1,-10.83,-0.32,2.2,-3.73,2.77,2.52
14.39408206939697,2,3,3,1,-11.02,0.22,3.32,-7.09,0.61,2.28
14.40408205986023,2,3,3,1,-11.67,0.65,3.92,-6.23,-0.24,1.13
14.41408205032349,2,3,3,1,-11.93,0.49,3.9,-4.18,0.15,-0.6
14.42408204078674,2,3,3,1,-11.97,0.05,3.57,-4.18,0.15,-0.6
14.43408203125,2,3,3,1,-12.01,-0.6,2.96,-1.23,2.09,-2.37
14.44408202171326,2,3,3,1,-12.68,-1.91,1.97,3.65,6.85,-4.01
14.45408201217651,2,3,3,1,-13.45,-2.21,1.8,5.36,7.13,-3.54
14.46408200263977,2,3,3,1,-13.99,-1.86,1.59,7.27,6.3,-1.98
14.47408199310303,2,3,3,1,-13.53,0.28,0.89,7.27,6.3,-1.98
14.48408198356628,2,3,3,1,-12.96,1.45,0.32,8.59,5.32,-0.01
14.49408197402954,2,3,3,1,-12.47,2.68,-0.09,9.279999999999999,5.08,2.67
14.5040819644928,2,3,3,1,-11.61,4.04,0.23,8.73,4.38,3.14
14.51408195495605,2,3,3,1,-8.609999999999999,7.06,0.3,9.31,2.58,3.03
14.52408194541931,2,3,3,2,-7,8.08,-0.51,9.31,2.58,3.03
14.53408193588257,2,3,3,2,-6.01,8.789999999999999,-1.5,8.970000000000001,1.94,1.2
14.54408192634583,2,3,3,2,-6.14,10,-1.92,-1.49,2.55,-7.85
14.55408191680908,2,3,3,2,-8.44,7.75,0.34,-9.82,4.42,-9.800000000000001
14.56408190727234,2,3,3,2,-10.4,8.51,0.85,-16.29,4.78,-11.35
14.57408213615417,2,3,3,2,-11.58,7.32,0.99,-16.29,4.78,-11.35
14.58408212661743,2,3,3,2,-11.74,5.82,1.51,-21.24,1.16,-12.72
14.59408211708069,2,3,3,2,-11.02,2.08,2.64,-22.07,-0.12,-13.95
14.60408210754395,2,3,3,2,-10.8,0.19,3.06,-19.8,0.61,-13.85
14.6140820980072,2,3,3,2,-10.91,-1.63,3.44,-15.55,0.4,-12.83
14.62408208847046,2,3,3,2,-11.41,-2.82,3.89,-15.55,0.4,-12.83
14.63408207893372,2,3,3,2,-12.47,-4.41,2.98,-10.34,-1.26,-11.06
14.64408206939697,2,3,3,2,-12.37,-4.06,2.32,1.08,-4.9,-5.27
14.65408205986023,2,3,3,2,-11.8,-2.96,1.57,4.66,-7.99,-3.05
14.66408205032349,2,3,3,2,-10.12,-1.68,0.85,7.57,-9.99,-1.3
14.67408204078674,2,3,3,2,-9.35,-0.72,0.95,7.57,-9.99,-1.3
14.68408203125,2,3,3,2,-8.470000000000001,0.06,1.28,9.1,-10.83,0.15
14.69408202171326,2,3,3,2,-8.279999999999999,0.43,1.57,8.289999999999999,-10.58,0.8100000000000001
14.70408201217651,2,3,3,2,-6.71,0.98,1.59,7.74,-10.75,0.04
14.71408200263977,2,3,3,2,-6.35,1.31,1.77,7.62,-10.92,-1.02
14.72408199310303,2,3,3,2,-5.68,1.41,1.99,7.62,-10.92,-1.02
14.73408198356628,2,3,3,3,-5.44,1.45,2.25,7.2,-10.56,-2.3
14.74408197402954,2,3,3,3,-5.91,1.22,2.8,6.1,-9.09,-5.02
14.7540819644928,2,3,3,3,-6.14,1.18,2.81,5.86,-8.48,-6.17
14.76408195495605,2,3,3,3,-6.36,1.13,2.83,5.74,-7.31,-6.83
14.77408194541931,2,3,3,3,-6.67,0.93,2.76,5.74,-7.31,-6.83
14.78408193588257,2,3,3,3,-7.71,0.78,2.89,5.56,-5.79,-7.15
14.79408192634583,2,3,3,3,-8.08,0.65,2.88,5.06,-4.66,-6.76
14.80408191680908,2,3,3,3,-8.42,0.47,2.8,4.11,-3.74,-5.66
14.81408190727234,2,3,3,3,-8.74,0.33,2.82,3.38,-2.85,-3.92
14.82408213615417,2,3,3,3,-8.5,1.19,2.6,3.59,-0.86,-0.86
14.83408212661743,2,3,3,3,-8.449999999999999,0.22,2.53,3.46,-0.03,-0.09
14.84408211708069,2,3,3,3,-8.4,-0.09,2.83,2.72,-0.09,0.99
14.85408210754395,2,3,3,3,-8.050000000000001,-0.58,2.87,3.02,0.9399999999999999,1.92
14.8640820980072,2,3,3,3,-7.75,-0.8100000000000001,2.92,3.23,1.2,2.41
14.87408208847046,2,3,3,3,-7.43,-0.92,2.98,3.42,1.53,2.54
14.88408207893372,2,3,3,3,-7.37,-0.95,3.03,3.67,1.87,2.4
14.89408206939697,2,3,3,3,-7.31,-1.11,2.72,3.72,1.88,2.05
14.90408205986023,2,3,3,3,-7.42,-1.24,2.7,3.87,1.9,1.55
14.91408205032349,2,3,3,3,-7.72,-1.35,2.92,4.16,2.46,0.9399999999999999
14.92408204078674,2,3,3,3,-8.029999999999999,-1.58,2.9,4.52,2.57,0.32
14.93408203125,2,3,3,3,-8.26,-2.11,3.01,4.97,2.4,-0.28
14.94408202171326,2,3,3,3,-8.5,-2.16,3.26,5.49,2.53,-0.76
14.95408201217651,2,3,3,3,-8.859999999999999,-2.06,3.52,6.24,2.69,-0.97
14.96408200263977,2,3,3,3,-9.300000000000001,-1.73,3.84,7.2,2.41,-1.14
14.97408199310303,2,3,3,3,-9.779999999999999,-0.64,3.62,8.640000000000001,1.17,-1.19
14.98408198356628,2,3,3,3,-10.2,0.12,3.56,10.86,0.13,-1.25
14.99408197402954,2,3,3,3,-10.6,0.75,3.12,13.23,-0.15,-1.09
15.0040819644928,2,3,3,3,-10.84,1.49,2.22,15.55,-0.66,-0.52
15.01408195495605,2,3,3,3,-11.08,1.2,1.51,16.13,-0.38,0.32
15.02408194541931,2,3,3,3,-11.32,0.39,2.25,12.96,0.96,1.06
15.03408193588257,2,3,3,3,-11.62,-0.43,3.62,7.18,1.7,1.25
15.04408192634583,2,3,3,3,-11.88,-0.96,4.6,1.99,0.6899999999999999,0.45
15.05408191680908,2,3,3,3,-11.79,-1.77,5.14,-1.15,-1,-1.45
15.06408190727234,2,3,3,3,-12.07,-1.67,5.56,-1.3,-2.68,-4.28
15.07408213615417,2,3,3,3,-11.98,-1.18,5.39,2.87,-5.58,-6.99
15.08408212661743,2,3,3,3,-13.18,-0.61,5.13,8.09,-8.07,-8.539999999999999
15.09408211708069,2,3,3,3,-14.44,-0.22,4.95,10.61,-8.210000000000001,-9.32
15.10408210754395,2,3,3,3,-15.96,0.82,4.09,11.01,-6.72,-8.82
15.1140820980072,2,3,3,3,-17.33,2.26,2.33,12.07,-3.32,-5.78
15.12408208847046,2,3,3,3,-19.37,3.77,0.37,12.18,0.17,-0.8100000000000001
15.13408207893372,2,3,3,2,-16.87,3.35,0.57,5.72,1.21,4.9
15.14408206939697,2,3,3,2,-13.17,4.64,2.92,-2.61,-0.25,8.59
15.15408205986023,2,3,3,2,-10.01,4.74,4.22,-6.87,-5.89,9.869999999999999
15.16408205032349,2,3,3,2,-6.28,3.97,4.45,-5.21,-8.75,9.460000000000001
15.17408204078674,2,3,3,2,-5.25,2.87,3.45,-1.71,-7.93,7.24
15.18408203125,2,3,3,2,-5.46,2.21,2.6,1.9,-4.82,4.78
15.19408202171326,2,3,3,2,-6.46,1.62,1.63,4.43,1.2,3.16
15.20408201217651,2,3,3,2,-8.300000000000001,1.67,-0.15,5.89,6.55,2.79
15.21408200263977,2,3,3,2,-8.75,1.82,-0.6899999999999999,5.3,8.630000000000001,3.41
15.22408199310303,2,3,3,2,-8.93,2.22,-0.8,3.73,7.88,4.6
15.23408198356628,2,3,3,2,-8.390000000000001,3.26,0.32,2.42,5.6,5.35
15.24408197402954,2,3,3,2,-7.71,3.25,0.77,1.55,2.45,5.36
15.2540819644928,2,3,3,2,-7.14,3.32,1.15,1.31,-0.32,4.72
15.26408195495605,2,3,3,2,-7,3.46,1.32,2.03,-1.08,3.62
15.27408194541931,2,3,3,2,-7.29,3.26,1.18,3.04,0.13,2.56
15.28408193588257,2,3,3,2,-7.56,3.18,1.22,3.69,2.03,1.88
15.29408192634583,2,3,3,2,-7.57,3.04,0.83,3.41,3.22,1.68
15.30408191680908,2,3,3,2,-7.34,3.42,0.62,3.1,3.29,1.93
15.31408190727234,2,3,3,2,-7.17,3.75,0.63,2.48,3.24,2.43
15.32508206367493,2,3,3,2,-7.06,4.14,0.72,1.38,3.17,2.87
15.33508205413818,2,3,3,2,-7.2,4.4,0.8100000000000001,-0.22,3.5,2.97
15.34508204460144,2,3,3,2,-7.34,4.59,0.92,-2.47,3.77,2.56
15.3550820350647,2,3,3,2,-7.77,4.15,0.88,-4.72,3.72,2.52
15.36508202552795,2,3,3,2,-8.130000000000001,4.05,0.84,-5.88,4.59,2.79
15.37508201599121,2,3,3,2,-8.41,3.62,0.87,-8.01,5.28,2.45
15.38508200645447,2,3,3,2,-8.550000000000001,3.11,0.76,-10.15,5.78,1.72
15.39508199691772,2,3,3,2,-8.82,1.8,0.86,-11.44,6.04,0.92
15.40508198738098,2,3,3,2,-9.1,1.2,0.92,-12.33,6.07,0.27
15.41508197784424,2,3,3,2,-9.42,0.8,1.2,-12.23,5.52,-0.42
15.4250819683075,2,3,3,2,-9.68,0.38,1.3,-11.53,4.74,-0.99
15.43508195877075,2,3,3,2,-10.12,0.1,1.4,-10.34,4.1,-1.42
15.44508194923401,2,3,3,2,-10.29,-0.08,1.34,-8.98,3.64,-1.7
15.45508193969727,2,3,3,2,-10.22,-0.15,1.17,-7.69,3.49,-1.81
15.47508192062378,2,3,3,2,-10.37,0.17,1.22,-6.01,3.02,-0.85
15.48508191108704,2,3,3,2,-10.27,0.11,1.23,-5.65,2.56,-0.09
15.49508190155029,2,3,3,2,-10.1,0.03,1.3,-5.41,1.95,0.72
15.50508213043213,2,3,3,2,-9.720000000000001,-0.13,1.61,-5.33,1.47,1.26
15.51508212089539,2,3,3,2,-9.369999999999999,-0.26,1.74,-5.26,1.21,1.73
15.52508211135864,2,3,3,2,-9.140000000000001,-0.27,1.93,-5.15,1.08,2.08
15.5350821018219,2,3,3,2,-9.02,-0.16,2.16,-4.68,1.17,2.38
15.54508209228516,2,3,3,2,-8.84,0.03,2.01,-4.21,1.26,2.73
15.55508208274841,2,3,3,2,-8.960000000000001,0.12,1.89,-3.46,1.39,3.17
15.56508207321167,2,3,3,2,-9.19,0.24,1.87,-2.71,1.73,3.57
15.57508206367493,2,3,3,2,-9.380000000000001,0.37,1.79,-2.12,1.93,3.85
15.58508205413818,2,3,3,2,-9.550000000000001,0.51,1.45,-1.6,2.05,3.99
15.59508204460144,2,3,3,2,-9.66,0.49,1.44,-1.55,1.98,4.15
15.6050820350647,2,3,3,2,-9.77,0.49,1.37,-2.14,1.64,4.29
15.61508202552795,2,3,3,2,-9.85,0.45,1.4,-2.87,0.93,4.38
15.62508201599121,2,3,3,2,-9.859999999999999,0.3,1.58,-3.52,-0.02,4.42
15.63508200645447,2,3,3,2,-9.69,0.15,1.64,-4.52,-1.03,4.43
15.64508199691772,2,3,3,2,-9.449999999999999,0,1.7,-5.39,-1.99,4.38
15.65508198738098,2,3,3,2,-9.09,-0.17,1.73,-5.71,-2.7,4.28
15.66508197784424,2,3,3,2,-8.99,-0.2,1.99,-5.6,-3.29,4.01
15.6750819683075,2,3,3,2,-9.029999999999999,-0.24,2.13,-5.36,-3.7,3.6
15.68508195877075,2,3,3,2,-9.02,-0.17,2.08,-4.84,-3.62,2.9
15.69508194923401,2,3,3,2,-9.140000000000001,-0.11,1.43,-4.84,-3.62,2.9
15.70508193969727,2,3,3,2,-9.140000000000001,-0.15,1.48,-3.26,-1.55,2.96
15.71508193016052,2,3,3,2,-9.220000000000001,-0.27,1.93,-1.63,-0.35,2.99
15.72508192062378,2,3,3,2,-9.279999999999999,-0.54,1.92,1.01,0.33,2.81
15.73508191108704,2,3,3,2,-9.619999999999999,-0.78,1.07,2.85,1.05,2.5
15.74508190155029,2,3,3,2,-10.14,-0.3,1.44,1.74,1.77,2.47
15.75508213043213,2,3,3,2,-10.67,0.22,1.98,-1.04,1.65,2.82
15.76508212089539,2,3,3,2,-11.14,0.86,2.48,-3.15,0.43,3.01
15.77508211135864,2,3,3,2,-11.75,2.14,4.01,-4.8,-1.03,2.65
15.7850821018219,2,3,3,2,-11.57,2.29,4.16,-4.72,-1.58,1.62
15.79508209228516,2,3,3,2,-11.24,2.03,3.62,-2.85,-0.65,0
15.80508208274841,2,3,3,2,-11.03,1.36,2.88,-0.2,2.03,-1.92
15.81508207321167,2,3,3,2,-11.8,0.15,1.95,1.93,5.55,-3.84
15.82508206367493,2,3,3,2,-12.6,-0.06,1.47,3.75,8.619999999999999,-4.84
15.83508205413818,2,3,3,2,-13.26,0,1.03,4.96,10.47,-4.28
15.84508204460144,2,3,3,2,-14.46,1.71,0.09,5.84,10.86,-2.63
15.8550820350647,2,3,3,2,-14.52,3.07,-0.02,6.22,9.43,-0.98
15.86508202552795,2,3,3,2,-13.91,4.52,0.25,5.33,7.48,0.63
15.87508201599121,2,3,3,2,-12.61,6.06,0.02,4.43,5.27,1.47
15.88508200645447,2,3,3,2,-9.26,8.15,-1.6,3.94,3.01,1.17
15.89508199691772,2,3,3,2,-7.58,8.779999999999999,-2.21,2.19,-0.01,-1.68
15.90508198738098,2,3,3,2,-6.16,7.34,-0.97,-2.78,-1.18,-4.19
15.91508197784424,2,3,3,2,-6.27,7.97,0.45,-6.53,5.69,-5.45
15.9250819683075,2,3,3,2,-9.31,7.34,1.81,-13.04,5.96,-8.01
15.93508195877075,2,3,3,2,-10.3,5.88,2.5,-17.64,3.58,-9.779999999999999
15.94508194923401,2,3,3,2,-10.69,4.58,2.72,-18.68,2.95,-10.85
15.95508193969727,2,3,3,2,-10.67,2.94,2.46,-17.54,2.49,-11.6
15.96508193016052,2,3,3,2,-10.43,-0.41,2.76,-15.96,2.03,-11.87
15.97508192062378,2,3,3,2,-10.77,-1.81,3.28,-14.14,1.04,-11.23
15.98508191108704,2,3,3,2,-11.21,-3.16,3.52,-10.73,-0.92,-10.05
15.99508190155029,2,3,3,2,-11.54,-3.77,3.39,-5.62,-3.4,-8.449999999999999
16.00508213043213,2,3,3,2,-11.21,-3.62,2.33,-0.62,-5.3,-6.38
16.01508212089539,2,3,3,2,-10.93,-3.09,2.15,3.73,-6.27,-4.53
16.04508209228516,2,3,3,2,-8.4,0.52,1.17,11.38,-11.16,-2.06
16.05508208274841,2,3,3,2,-7.72,1.04,1,11.74,-11.35,-1.7
16.06508207321167,2,3,3,2,-7.47,1.23,1.16,11.1,-10.39,-1.6
16.07508206367493,2,3,3,2,-7,1.44,1.78,10.03,-9.76,-2.06
16.08508205413818,2,3,3,2,-6.84,1.44,2.15,8.779999999999999,-9.630000000000001,-2.87
16.09508204460144,2,3,3,2,-6.89,1.54,2.53,8.07,-10.13,-3.77
16.1050820350647,2,3,3,2,-6.82,1.75,2.63,7.96,-10.59,-4.32
16.11508202552795,2,3,3,2,-5.97,1.53,2.25,8.300000000000001,-10.19,-4.36
16.12508201599121,2,3,3,2,-6.05,1.55,2.23,8.41,-7.97,-4.33
16.13508200645447,2,3,3,2,-6.78,1.49,2.47,7.61,-4.95,-4.44
16.14508199691772,2,3,3,2,-7.32,1.38,2.65,6.43,-3.52,-4.38
16.15508198738098,2,3,3,2,-8.25,1.28,2.65,5.36,-3.56,-3.92
16.16508197784424,2,3,3,2,-8.5,1.21,2.7,4.13,-3.91,-3.09
16.1750819683075,2,3,3,2,-8.529999999999999,1.19,2.64,3.27,-3.5,-2.06
16.18508195877075,2,3,3,2,-8.75,1.2,2.69,2.85,-2.43,-0.88
16.19508194923401,2,3,3,2,-8.91,0.91,2.95,2.33,-1.31,-0.18
16.20508193969727,2,3,3,2,-8.84,0.66,2.77,2.13,-0.5,0.75
16.21508193016052,2,3,3,2,-8.529999999999999,0.5,2.74,1.82,-0.03,0.9
16.22508192062378,2,3,3,2,-8.24,-0.5,2.99,1.24,0.3,0.96
16.23508191108704,2,3,3,3,-8.24,-0.5,2.99,1.35,0.8100000000000001,1.02
16.24508190155029,2,3,3,3,-8.050000000000001,-0.68,3.07,1.78,0.9399999999999999,1.09
16.25508213043213,2,3,3,3,-7.4,-0.87,2.72,2.32,1.25,0.99
16.26508212089539,2,3,3,3,-7.12,-1.11,2.71,2.56,2.04,0.92
16.27508211135864,2,3,3,3,-7.33,-1.2,2.95,2.24,3.32,0.88
16.2850821018219,2,3,3,3,-7.33,-1.2,2.95,1.5,3.97,0.77
16.29508209228516,2,3,3,3,-7.71,-1.28,3.15,1.13,3.58,0.72
16.30508208274841,2,3,3,3,-7.78,-1.8,3.47,1.36,3.41,0.78
16.31508207321167,2,3,3,3,-7.95,-2.07,3.73,2.02,3.61,0.86
16.32508206367493,2,3,3,3,-8.199999999999999,-1.98,3.98,3.62,3.67,0.88
16.33508205413818,2,3,3,3,-8.199999999999999,-1.98,3.98,3.62,3.67,0.88
16.34508204460144,2,3,3,3,-8.57,-1.67,4.1,6.06,3.2,0.91
16.35608196258545,2,3,3,3,-9.52,-0.43,3.35,11.22,0.8100000000000001,0.38
16.36608195304871,2,3,3,3,-9.880000000000001,0.38,3.21,14.13,0.77,0.38
16.37608194351196,2,3,3,3,-10.34,1.44,2.74,16.2,0.6899999999999999,1
16.38608193397522,2,3,3,3,-10.34,1.44,2.74,16.2,0.6899999999999999,1
16.39608192443848,2,3,3,3,-11.04,2.5,0.9,16.86,1.25,2.15
16.40608191490173,2,3,3,3,-12.09,1.12,1.54,7.26,4.24,3.07
16.41608190536499,2,3,3,3,-12.94,-0.63,4.62,-0.3,3.08,2.02
16.42608213424683,2,3,3,3,-12.59,-1.43,5.52,-5.57,0.18,-0.03
16.43608212471008,2,3,3,3,-12.59,-1.43,5.52,-5.57,0.18,-0.03
16.44608211517334,2,3,3,3,-12.03,-2.41,5.91,-7.58,-3.26,-3.23
16.4560821056366,2,3,3,3,-11.67,-2.78,5.63,0.46,-9.039999999999999,-10.14
16.46608209609985,2,3,3,3,-11.67,-2.78,5.63,6.55,-8.449999999999999,-10.98
16.47608208656311,2,3,3,3,-12.4,-2.11,5.51,9.16,-7.61,-10.95
16.48608207702637,2,3,3,3,-13.64,-1.37,5.56,9.16,-7.61,-10.95
16.49608206748962,2,3,3,3,-14.69,-0.72,5.09,10.53,-6.93,-8.93
16.50608205795288,2,3,3,3,-17.25,2.77,2.03,12.56,-1.7,-0.76
16.51608204841614,2,3,3,3,-18.14,3.91,1.12,6.29,0.91,3.83
16.52608203887939,2,3,3,3,-17.36,4.44,1.3,-1.25,-0.23,7.38
16.53608202934265,2,3,3,3,-14.88,5.19,2.3,-1.25,-0.23,7.38
16.54608201980591,2,3,3,3,-9.18,5.11,3.58,-5.96,-5.27,9.15
16.55608201026917,2,3,3,3,-6.56,4.02,3.58,-5.79,-6.7,6.77
16.56608200073242,2,3,3,3,-4.68,3.21,3.79,-3.8,-2.4,4.14
16.57608199119568,2,3,3,3,-4.33,2.51,3.9,-0.64,1.54,2.15
16.58608198165894,2,3,3,3,-6.23,1.08,2.45,-0.64,1.54,2.15
16.59608197212219,2,3,3,3,-7.02,0.73,1.55,2.66,4.5,1.29
16.60608196258545,2,3,3,3,-7.65,0.59,0.5,5.8,7.24,2.67
16.61608195304871,2,3,3,3,-8.57,1.41,-1.02,6.27,6.55,4.07
16.62608194351196,2,3,3,3,-8.859999999999999,2.19,-0.9399999999999999,6.06,4,5.06
16.63608193397522,2,3,3,3,-9.08,3.15,-0.32,6.06,4,5.06
16.64608192443848,2,3,3,3,-8.99,3.83,0.32,5.21,0.29,5.28
16.65608191490173,2,3,3,3,-8.15,4.32,0.96,3.94,-3.04,3.13
16.66608190536499,2,3,3,3,-7.56,4.4,1.1,3.38,-1.89,2.06
16.67608213424683,2,3,3,3,-7.09,4.15,1.3,2.84,-0.21,1.56
16.68608212471008,2,3,3,3,-6.95,4.04,1.47,2.84,-0.21,1.56
16.69608211517334,2,3,3,3,-6.8,3.54,1.41,2.31,1.3,1.39
16.7060821056366,2,3,3,3,-6.85,3.37,1.21,1.19,4.32,1.66
16.71608209609985,2,3,3,3,-7,3.39,0.92,-0.15,5.76,1.8
16.72608208656311,2,3,3,3,-7.23,3.66,0.8100000000000001,-1.94,6.33,1.97
16.73608207702637,2,3,3,3,-7.59,4.03,0.73,-1.94,6.33,1.97
16.74608206748962,2,3,3,3,-8,4.22,0.68,-4.12,6.69,1.94
16.75608205795288,2,3,3,3,-8.31,3.54,0.74,-8.449999999999999,7.29,1.94
16.76608204841614,2,3,3,3,-8.6,3.59,0.61,-10.21,7.47,1.82
16.77608203887939,2,3,3,3,-9.119999999999999,2.98,0.45,-11.91,6.74,1.46
16.78608202934265,2,3,3,3,-9.380000000000001,2.64,0.61,-11.91,6.74,1.46
16.79608201980591,2,3,3,3,-9.720000000000001,2.15,0.89,-12.93,6.15,1
16.80608201026917,2,3,3,3,-9.76,0.67,1.19,-13,4.83,-0.32
16.81608200073242,2,3,3,3,-9.65,0.09,1.35,-12.46,4.83,-0.76
16.82608199119568,2,3,3,3,-9.630000000000001,-0.06,1.59,-11.43,4.56,-0.96
16.83608198165894,2,3,3,3,-9.880000000000001,-0.34,1.78,-11.43,4.56,-0.96
16.84608197212219,2,3,3,3,-10.17,-0.89,1.67,-9.880000000000001,3.67,-1.19
16.85608196258545,2,3,3,3,-10.08,-0.77,1.68,-6.65,1.97,-1.01
16.86608195304871,2,3,3,3,-9.859999999999999,-0.77,1.4,-6.65,1.97,-1.01
16.87608194351196,2,3,3,3,-9.710000000000001,-0.72,1.41,-5.38,1.95,-0.35
16.88608193397522,2,3,3,3,-9.65,-0.43,1.55,-4.68,1.97,0.49
16.89608192443848,2,3,3,3,-9.65,-0.12,1.55,-3.93,1.9,1.48
16.90608191490173,2,3,3,3,-9.640000000000001,0.11,1.57,-3.44,2,2.45
16.91608190536499,2,3,3,3,-9.56,0.29,1.57,-3.3,2.16,3.36
16.92608213424683,2,3,3,3,-9.4,0.5600000000000001,1.73,-3.34,2.2,4.14
16.93608212471008,2,3,3,3,-9.32,0.6899999999999999,1.75,-3.33,2.38,4.75
16.94608211517334,2,3,3,3,-9.31,0.74,1.68,-3.33,2.55,5.18
16.9560821056366,2,3,3,3,-9.34,0.77,1.62,-3.34,2.81,5.3
16.96608209609985,2,3,3,3,-9.470000000000001,0.6899999999999999,1.62,-3.9,2.8,5.26
16.97608208656311,2,3,3,3,-9.4,0.64,1.54,-4.38,2.27,5.16
16.98608207702637,2,3,3,3,-9.42,0.49,1.55,-4.54,1.71,5.02
16.99608206748962,2,3,3,3,-9.49,-0.02,1.62,-5.08,1.15,4.9
17.00608205795288,2,3,3,3,-9.43,-0.26,1.68,-5.7,0.44,4.72
17.01608204841614,2,3,3,3,-9.460000000000001,-0.59,1.77,-6.24,-0.11,4.44
17.03608202934265,2,3,3,3,-9.18,-1.07,2.25,-6.75,-1.31,3.9
17.04608201980591,2,3,3,3,-9.289999999999999,-1.06,2.21,-5.98,-1.61,3.77
17.05608201026917,2,3,3,3,-9.529999999999999,-0.9,2.16,-4.6,-1.64,3.67
17.06608200073242,2,3,3,3,-9.859999999999999,-0.74,1.95,-3.31,-1.57,3.56
17.07608199119568,2,3,3,3,-10.22,-0.19,1.46,-2.25,-1.49,3.54
17.08608198165894,2,3,3,3,-10.35,0,1.27,-1.9,-1.43,3.79
17.09608197212219,2,3,3,3,-10.36,0.14,1.21,-2.09,-1.22,4.29
17.10608196258545,2,3,3,3,-10.22,0.21,1.47,-1.78,-1.03,4.8
17.11608195304871,2,3,3,3,-9.720000000000001,-0.04,1.11,-0.3,-0.61,5.12
17.12608194351196,2,3,3,3,-9.52,-0.49,0.61,1.86,0.15,4.81
17.13608193397522,2,3,3,3,-9.6,-0.74,1.02,1.81,1.4,3.89
17.15608191490173,2,3,3,3,-11.1,0.82,3.4,-3.54,1.47,2.15
17.16608190536499,2,3,3,3,-11.64,1.65,3.72,-4.6,0.17,1.44
17.17608213424683,2,3,3,3,-11.71,2.32,3.91,-4.25,-1.24,0.59
17.18608212471008,2,3,3,3,-11.4,2.63,3.55,-2.48,-1.49,-0.27
17.19608211517334,2,3,3,3,-11.23,2.36,2.68,0.13,-0.15,-1.35
17.2060821056366,2,3,3,3,-11.66,1.76,2.21,3,3.04,-2.77
17.21608209609985,2,3,3,3,-12.44,1.38,1.48,3.89,7.43,-4.05
17.22608208656311,2,3,3,3,-13.34,1.5,-1.07,4.79,10.41,-4.93
17.23608207702637,2,3,3,3,-13.63,1.71,-0.5,5.7,11.81,-4.49
17.24608206748962,2,3,3,3,-13.21,2.68,0.32,3.37,10.45,-2.46
17.25608205795288,2,3,3,3,-12.48,4.72,0.28,3.11,7.12,0.6
17.26608204841614,2,3,3,3,-9.42,7.35,-1.27,4.38,4.04,1.99
17.27608203887939,2,3,3,3,-7.77,9.32,-1.82,4.09,1.28,1.08
17.28608202934265,2,3,3,3,-6.86,6.06,-0.97,0.82,-3.22,-4.28
17.29608201980591,2,3,3,3,-7.46,8.210000000000001,0.48,-3.08,1.69,-5.72
17.30608201026917,2,3,3,3,-11.59,7.56,2.24,-8.470000000000001,5.27,-9.449999999999999
17.31608200073242,2,3,3,3,-12.06,6.53,2.62,-14.63,1.86,-12.29
17.32608199119568,2,3,3,3,-11.71,4.97,2.51,-16.59,-0.9,-14.05
17.33608198165894,2,3,3,3,-11.27,3.04,2.33,-16.11,-0.66,-15.1
17.34608197212219,2,3,3,3,-10.98,-0.49,3.08,-15.18,0.98,-14.99
17.35608196258545,2,3,3,3,-10.97,-1.89,3.28,-14.24,1.89,-13.8
17.36608195304871,2,3,3,3,-11.22,-2.82,3.15,-11.67,0.98,-11.67
17.37708210945129,2,3,3,3,-11.69,-4.23,2.03,-8.029999999999999,-1.23,-8.92
17.38708209991455,2,3,3,3,-10.92,-2.87,1.68,-3.36,-3.37,-5.95
17.39708209037781,2,3,3,3,-10.48,-2.24,1.38,1.49,-5.25,-3.75
17.40708208084106,2,3,3,3,-9.890000000000001,-1.54,1.53,4.48,-7.51,-2.69
17.41708207130432,2,3,3,3,-8.6,0.2,1.74,7.16,-9.23,-2.46
17.42708206176758,2,3,3,3,-7.75,0.92,1.67,9.27,-10.65,-2.3
17.43708205223083,2,3,3,3,-7.15,1.17,1.51,10.01,-11.76,-2.16
17.44708204269409,2,3,3,3,-6.91,1.53,1.51,10.32,-11.5,-2.2
17.45708203315735,2,3,3,3,-6.05,1.93,1.58,10.29,-11.11,-2.53
17.46708202362061,2,3,3,3,-5.8,1.99,1.87,9.56,-10.82,-3.04
17.47708201408386,2,3,3,3,-5.96,1.9,2.22,8.25,-10.27,-3.54
17.48708200454712,2,3,3,3,-6.21,1.7,2.42,6.94,-9.67,-4.05
17.49708199501038,2,3,3,3,-6.35,1.42,2.46,6,-9.119999999999999,-4.5
17.50708198547363,2,3,3,3,-6.45,1.33,2.4,5.29,-8.25,-4.75
17.51708197593689,2,3,3,3,-6.74,1.19,2.31,4.98,-6.5,-4.79
17.52708196640015,2,3,3,3,-7.21,1.07,2.54,4.4,-4.16,-4.63
17.5370819568634,2,3,3,3,-8.43,0.73,3.19,3.13,-2.58,-4.22
17.54708194732666,2,3,3,3,-8.48,0.2,2.71,1.63,-2.99,-3.45
17.55708193778992,2,3,3,3,-7.74,0.48,2.4,1.86,-3.51,-2.08
17.56708192825317,2,3,3,3,-7.74,0.52,2.34,2.49,-2.36,-1.16
17.57708191871643,2,3,3,3,-8.18,0.01,2.77,2.09,-1.73,-0.39
17.58708190917969,2,3,3,3,-8.32,-0.12,3.02,2.06,-0.67,0.38
17.59708189964294,2,3,3,3,-8.210000000000001,-0.3,3.1,1.83,-0.15,1.01
17.60708212852478,2,3,3,3,-7.84,-0.53,3.15,1.74,-0.04,1.39
17.61708211898804,2,3,3,3,-7.58,-0.72,2.88,1.59,0.11,1.58
17.62708210945129,2,3,3,3,-7.35,-1.1,2.74,1.7,0.2,1.67
17.63708209991455,2,3,3,3,-7.24,-1.35,2.85,1.82,0.77,1.56
17.64708209037781,2,3,3,3,-7.23,-1.96,3.09,1.77,1.52,1.26
17.65708208084106,2,3,3,3,-7.29,-2.26,3.18,1.89,2.16,0.95
17.66708207130432,2,3,3,3,-7.46,-2.56,3.12,2.33,2.69,0.83
17.67708206176758,2,3,3,3,-7.86,-2.75,3.21,3.31,3.15,0.55
17.68708205223083,2,3,3,3,-8.800000000000001,-2.42,3.7,4.74,3.32,0.47
17.69708204269409,2,3,3,3,-9.5,-1.89,4.27,6,3.05,0.26
17.70708203315735,2,3,3,3,-10.05,-1.06,4.34,7.26,1.9,0.06
17.71708202362061,2,3,3,3,-10.19,-0.47,3.55,9.18,0.01,-0.26
17.72708201408386,2,3,3,3,-11.12,1.42,3.37,11.85,-1.07,-0.42
17.73708200454712,2,3,3,3,-11.43,2.25,2.94,13.88,-1.17,-0.38
17.74708199501038,2,3,3,3,-11.39,2.78,2.1,15.39,-1.79,0.27
17.75708198547363,2,3,3,3,-11.51,2.46,1.78,15.29,-1.71,1.29
17.76708197593689,2,3,3,3,-12.39,0.77,3.59,11.06,-0.3,1.99
17.77708196640015,2,3,3,3,-12.57,-0.39,4.72,4.28,1.26,1.74
17.7870819568634,2,3,3,3,-12.1,-1.57,5.34,-2.47,1.01,0.47
17.79708194732666,2,3,3,3,-10.13,-4.15,6.17,-6.18,-0.49,-1.77
17.80708193778992,2,3,3,3,-9.67,-3.74,7.02,-6.72,-1.62,-4.36
17.81708192825317,2,3,3,3,-9.99,-3.27,6.37,-2.61,-2.61,-6.42
17.82708191871643,2,3,3,3,-10.47,-3.02,5.62,3.23,-7.16,-9.359999999999999
17.83708190917969,2,3,3,3,-14.45,-1.69,6.34,7.74,-8.83,-10.22
17.84708189964294,2,3,3,3,-15.97,0.15,4.67,13.72,-4.73,-6.99
17.85708212852478,2,3,3,3,-17.59,2.54,2.29,13.72,-4.73,-6.99
17.86708211898804,2,3,3,3,-19.29,4.58,0.38,15.42,-0.55,-1.97
17.87708210945129,2,3,3,3,-18.23,6.13,1.11,3.65,1.44,8.52
17.88708209991455,2,3,3,3,-14.82,6.18,2.3,-3.19,-5.42,11.12
17.89708209037781,2,3,3,3,-11.37,5.52,3.13,-6.08,-10.15,11.17
17.90708208084106,2,3,3,3,-7.94,4.42,3.1,-4.79,-9.630000000000001,9.26
17.91708207130432,2,3,3,3,-3.87,2.89,2.88,-2.4,-5.66,6.72
17.92708206176758,2,3,3,3,-3.78,2.48,2.65,0.35,-0.59,4.1
17.93708205223083,2,3,3,3,-4.38,1.99,2.08,3.06,3.33,1.92
17.94708204269409,2,3,3,3,-5.42,1.73,1.63,4.59,5.81,0.9399999999999999
17.95708203315735,2,3,3,3,-7.69,2.03,0.1,4.67,6.99,1.35
17.96708202362061,2,3,3,3,-8.529999999999999,2.39,-0.63,3.77,7.52,2.35
17.97708201408386,2,3,3,3,-9.050000000000001,2.91,-0.7,2.76,6.48,3.19
17.98708200454712,2,3,3,3,-9.279999999999999,3.73,0.74,1.48,3.49,3.74
17.99708199501038,2,3,3,3,-8.9,3.91,1.24,0.45,0.42,3.63
18.00708198547363,2,3,3,3,-8.33,4.07,1.62,0.17,-0.44,3.03
18.01708197593689,2,3,3,3,-7.81,4.06,1.53,-0.14,0.66,2.69
18.02708196640015,2,3,3,3,-7.05,3.46,1.51,-0.4,2.61,2.75
18.0370819568634,2,3,3,3,-6.92,3.31,1.46,-0.53,4.07,3.06
18.04708194732666,2,3,3,3,-6.81,3.28,1.31,-0.73,4.91,3.66
18.05708193778992,2,3,3,3,-6.82,3.33,1.14,-1.25,5.38,4.26
18.06708192825317,2,3,3,3,-7.3,3.62,0.68,-2.46,5.58,4.38
18.07708191871643,2,3,3,3,-7.52,4.36,0.85,-4.52,6.23,3.82
18.08708190917969,2,3,3,3,-7.67,3.16,0.6899999999999999,-6.93,6.52,3.93
18.09708189964294,2,3,3,3,-8.02,3.4,1.02,-8.050000000000001,7.21,4.4
18.10708212852478,2,3,3,3,-8.74,2.75,0.84,-10.02,6.65,4
18.11708211898804,2,3,3,3,-8.960000000000001,2.52,0.85,-11.09,5.73,3.3
18.12708210945129,2,3,3,3,-8.970000000000001,2.15,1.08,-11.53,4.96,2.64
18.13708209991455,2,3,3,3,-8.92,1.75,1.1,-11.11,4.48,2.15
18.14708209037781,2,3,3,3,-9.41,0.98,1.52,-10.38,4.03,1.75
18.15708208084106,2,3,3,3,-9.77,0.67,1.54,-9.07,4.08,1.42
18.16708207130432,2,3,3,3,-10.02,0.09,1.46,-7.87,4.01,0.93
18.17708206176758,2,3,3,3,-9.85,-0.02,1.44,-6.56,3.53,0.64
18.18708205223083,2,3,3,3,-9.82,-0.28,1.29,-5.84,3.1,0.68
18.19708204269409,2,3,3,3,-9.92,-0.25,1.37,-5.22,2.47,0.76
18.20708203315735,2,3,3,3,-9.99,-0.23,1.57,-5.11,1.71,1.02
18.21708202362061,2,3,3,3,-9.789999999999999,-0.25,1.64,-4.75,0.85,1.4
18.22708201408386,2,3,3,3,-9.619999999999999,-0.21,1.82,-4.12,0.38,1.93
18.23708200454712,2,3,3,3,-9.539999999999999,-0.19,2.09,-3.6,0.39,2.41
18.24708199501038,2,3,3,3,-9.48,-0.26,2.25,-2.74,0.52,2.83
18.25708198547363,2,3,3,3,-9.25,0.04,2.37,-1.87,0.78,3.19
18.26708197593689,2,3,3,3,-9.130000000000001,0.22,2.17,-1.14,1.05,3.59
18.27708196640015,2,3,3,3,-8.94,0.34,2.12,-0.5,1.58,3.95
18.2870819568634,2,3,3,3,-8.859999999999999,0.62,2.12,-0.34,1.9,4.35
18.29708194732666,2,3,3,3,-8.93,0.9,1.74,-0.46,1.92,4.68
18.30708193778992,2,3,3,3,-9.07,1.02,1.55,-0.72,1.87,4.79
18.31708192825317,2,3,3,3,-9.220000000000001,0.98,1.38,-1.49,1.6,4.78
18.32708191871643,2,3,3,3,-9.31,0.86,1.41,-2.53,1.02,4.62
18.33708190917969,2,3,3,3,-9.369999999999999,0.25,1.64,-3.6,0.48,4.32
18.34708189964294,2,3,3,3,-9.470000000000001,-0.02,1.73,-4.36,-0.18,4.01
18.35708212852478,2,3,3,3,-9.470000000000001,-0.42,1.52,-4.62,-0.77,3.66
18.36708211898804,2,3,3,3,-9.41,-0.93,1.58,-4.81,-1.08,3.37
18.37708210945129,2,3,3,3,-9.369999999999999,-1.07,1.89,-4.71,-1.21,3.18
18.38708209991455,2,3,3,3,-9.359999999999999,-1.04,2.14,-4.21,-1.24,3.06
18.39808201789856,2,3,3,3,-9.359999999999999,-1.04,2.14,-3.38,-1.29,3.05
18.40808200836182,2,3,3,3,-9.359999999999999,-0.91,2.3,-2.51,-1.38,3.06
18.41808199882507,2,3,3,3,-9.720000000000001,0.15,1.82,-1.78,-1.53,3.14
18.42808198928833,2,3,3,3,-9.75,0.43,1.47,-0.86,-1.39,3.39
18.43808197975159,2,3,3,3,-9.75,0.57,1.56,0.2,-0.74,3.61
18.44808197021484,2,3,3,3,-9.75,0.57,1.56,1.66,0.4,3.67
18.4580819606781,2,3,3,3,-9.68,0.4,1.88,2.86,1.62,3.43
18.46808195114136,2,3,3,3,-9.779999999999999,-0.39,1.22,2.02,2.4,2.97
18.47808194160461,2,3,3,3,-10.04,-0.55,1.85,-1.17,2.49,2.53
18.48808193206787,2,3,3,3,-10.87,0.28,4.09,-4.53,1.92,2.21
18.49808192253113,2,3,3,3,-10.87,0.28,4.09,-4.53,1.92,2.21
18.50808191299438,2,3,3,3,-11.32,0.86,4.23,-5.38,0.47,1.92
18.51808190345764,2,3,3,3,-11.89,1.52,4.34,-2.37,-0.83,-0.03
18.52808213233948,2,3,3,3,-11.48,1.33,3.11,0.9399999999999999,0.78,-1.41
18.53808212280273,2,3,3,3,-11.46,0.88,2.51,4.09,4.23,-2.63
18.54808211326599,2,3,3,3,-11.46,0.88,2.51,4.09,4.23,-2.63
18.55808210372925,2,3,3,3,-12.09,0.49,2.35,5.7,8.82,-3.39
18.5680820941925,2,3,3,3,-13.7,1.76,-1.01,9.43,13.27,-2.09
18.57808208465576,2,3,3,3,-14.23,3,-1.62,10.95,12.96,-0.73
18.58808207511902,2,3,3,3,-14.23,3,-1.62,9.68,9.73,1.81
18.59808206558228,2,3,3,3,-13.82,3.27,-1.34,9.68,9.73,1.81
18.60808205604553,2,3,3,3,-11.69,7.53,-1.37,9.98,5.05,2.82
18.61808204650879,2,3,3,3,-9.470000000000001,6.6,-1.11,6.73,0.48,1.67
18.62808203697205,2,3,3,3,-7.66,9.140000000000001,-1.34,2.38,1.44,-3.5
18.6380820274353,2,3,3,3,-6.87,9.52,-1.42,-4.61,2.43,-8
18.64808201789856,2,3,3,3,-7.96,9.029999999999999,0.49,-4.61,2.43,-8
18.65808200836182,2,3,3,3,-9.23,8.789999999999999,1.52,-10.85,3.23,-11.75
18.66808199882507,2,3,3,3,-10.31,7.81,2.41,-18.41,-0.8,-16.45
18.67808198928833,2,3,3,3,-10.82,6.23,2.75,-17.57,-1.37,-16.72
18.68808197975159,2,3,3,3,-10.65,2.22,2.71,-16.02,-0.61,-15.86
18.69808197021484,2,3,3,3,-10.78,0.36,2.88,-16.02,-0.61,-15.86
18.7080819606781,2,3,3,3,-11.09,-1.65,2.97,-13.97,-0.19,-14.36
18.71808195114136,2,3,3,3,-11.37,-2.9,3.01,-5.28,-1.43,-9.85
18.72808194160461,2,3,3,3,-12.3,-4.04,2.29,-0.29,-2.93,-6.4
18.73808193206787,2,3,3,3,-12.59,-3.81,1.74,4.21,-4.62,-3.29
18.74808192253113,2,3,3,3,-11.91,-1.54,1.29,4.21,-4.62,-3.29
18.75808191299438,2,3,3,3,-10.2,0.11,0.83,6.16,-7.54,-2.03
18.76808190345764,2,3,3,3,-9.58,0.85,1.07,9.07,-11.93,-1.18
18.77808213233948,2,3,3,3,-8.51,1.47,1.31,9.6,-12.24,-0.64
18.78808212280273,2,3,3,3,-7.77,1.79,1.49,9.66,-11.7,-0.45
18.79808211326599,2,3,3,3,-6.6,2.34,1.63,9.66,-11.7,-0.45
18.80808210372925,2,3,3,3,-6.28,2.08,1.79,8.77,-10.74,-1.08
18.8180820941925,2,3,3,3,-6.1,2.13,1.95,6.72,-9.67,-2.96
18.82808208465576,2,3,3,3,-5.67,2.06,2,5.58,-8.9,-4.01
18.83808207511902,2,3,3,3,-5.57,1.55,2.52,4.92,-8.130000000000001,-4.98
18.84808206558228,2,3,3,3,-5.67,1.38,2.51,4.92,-8.130000000000001,-4.98
18.85808205604553,2,3,3,3,-5.89,1.34,2.52,4.69,-7.22,-5.9
18.86808204650879,2,3,3,3,-6.35,1.16,2.55,3.7,-4.77,-6.55
18.87808203697205,2,3,3,3,-7.39,0.91,2.34,3.1,-3.82,-6.17
18.8880820274353,2,3,3,3,-7.7,0.71,2.29,2.5,-3.09,-4.94
18.89808201789856,2,3,3,3,-8.24,0.28,2.37,2.5,-3.09,-4.94
18.90808200836182,2,3,3,3,-8.279999999999999,0.25,2.49,2.38,-1.78,-2.81
18.91808199882507,2,3,3,3,-8.029999999999999,0.21,2.4,1.77,-2.42,-0.77
18.92808198928833,2,3,3,3,-7.97,0.08,2.56,2.44,-1.55,0.45
18.93808197975159,2,3,3,3,-7.96,0.04,2.74,2.91,-1.12,1.32
18.94808197021484,2,3,3,3,-7.77,-0.18,2.98,2.91,-1.12,1.32
18.9580819606781,2,3,3,3,-7.71,-0.37,3.04,3.25,-0.52,1.6
18.96808195114136,2,3,3,3,-7.63,-0.47,2.97,3.85,0.6,1.78
18.97808194160461,2,3,3,3,-7.6,-0.62,2.99,3.23,0.65,1.56
18.98808193206787,2,3,3,3,-7.71,-1.09,3.11,2.74,0.41,1.27
18.99808192253113,2,3,3,3,-7.39,-1.31,2.84,2.74,0.41,1.27
19.00808191299438,2,3,3,3,-7.3,-1.47,2.65,2.95,1.03,1.08
19.01808190345764,2,3,3,3,-7.55,-1.51,2.92,2.67,3.79,0.48
19.02808213233948,2,3,3,3,-8.33,-1.84,3.45,2.67,3.79,0.48
19.03808212280273,2,3,3,3,-8.369999999999999,-2.12,3.68,2.18,3.72,0.27
19.04808211326599,2,3,3,3,-8.69,-1.77,4,2.79,3.26,0.46
19.07808208465576,2,3,3,3,-9.92,0.2,3.69,9.69,-0.37,-0.9
19.08808207511902,2,3,3,3,-10.2,1.02,3.37,12.6,-1.52,-1.01
19.09808206558228,2,3,3,3,-10.38,1.68,2.42,15.1,-2.2,-0.36
19.10808205604553,2,3,3,3,-11.76,1.45,1.74,14.85,-0.86,0.6
19.11808204650879,2,3,3,3,-12.48,0.64,2.63,10.38,1.35,1.19
19.12808203697205,2,3,3,3,-12.89,-0.16,3.69,3.55,2.12,1.01
19.1380820274353,2,3,3,3,-12.93,-1.05,4.78,-2.68,1.43,0
19.14808201789856,2,3,3,3,-11.67,-2.49,5.76,-6.01,-0.18,-2.19
19.15808200836182,2,3,3,3,-11.61,-3.28,6.42,-5.49,-2.11,-4.84
19.16808199882507,2,3,3,3,-11.95,-3.51,6.72,-1.17,-4.28,-7.02
19.17808198928833,2,3,3,3,-12.55,-3.35,6.14,5.63,-7.46,-9.210000000000001
19.18808197975159,2,3,3,3,-13.72,-2.92,5.88,9.18,-10.08,-10.18
19.19808197021484,2,3,3,3,-15.34,-1.59,4.99,11.36,-8.59,-9.81
19.2080819606781,2,3,3,3,-16.83,0.68,3.6,13.02,-4.49,-7.24
19.21808195114136,2,3,3,3,-19.03,4.43,0.55,12.8,-0.61,-3.04
19.22808194160461,2,3,3,3,-17.96,4.77,1.4,8.73,0.67,2.02
19.23808193206787,2,3,3,3,-14.81,5.4,2.99,2.97,-2.47,5.88
19.24808192253113,2,3,3,3,-11.33,5.21,3.67,-1.2,-8.02,7.95
19.25808191299438,2,3,3,3,-6.07,3.66,3.67,-3.48,-9.9,7.53
19.26808190345764,2,3,3,3,-4.56,3.03,3.34,-3.3,-8.74,5.88
19.27808213233948,2,3,3,3,-4.3,2.3,2.74,-0.82,-4.52,4.21
19.28808212280273,2,3,3,3,-4.93,1.85,2.31,2.11,0.15,2.6
19.3180820941925,2,3,3,3,-8.050000000000001,2.28,-0.65,6.88,6.33,1.74
19.32808208465576,2,3,3,3,-8.449999999999999,2.85,-1.09,5.96,6.27,2.73
19.33808207511902,2,3,3,3,-8.73,4.24,0.04,4.69,4.45,3.43
19.34808206558228,2,3,3,3,-8.5,4.36,0.68,3.01,1.05,3.69
19.35808205604553,2,3,3,3,-8.050000000000001,4.62,1.13,2.1,-1.7,2.99
