timestamp,magCalib,accCalib,gyrCalib,sysCalib,accX,accY,accZ,gyrX,gyrY,gyrZ
-0.01991796493530273,2,3,3,2,-9.470000000000001,-0.9399999999999999,2.39,0.12,-0.11,-0.05
-0.009917974472045898,2,3,3,2,-9.460000000000001,-0.9399999999999999,2.38,0.07000000000000001,-0.03,-0.07000000000000001
8.20159912109375e-05,2,3,3,2,-9.44,-0.99,2.28,0.11,0.01,-0.11
0.01008200645446777,2,3,3,2,-9.460000000000001,-0.99,2.33,0.11,0.01,-0.17
0.02008199691772461,2,3,3,2,-9.470000000000001,-0.98,2.33,0.11,0,-0.22
0.03008198738098145,2,3,3,2,-9.470000000000001,-0.95,2.43,0.24,-0.01,-0.24
0.04008197784423828,2,3,3,2,-9.49,-0.96,2.39,0.24,-0.01,-0.24
0.05008196830749512,2,3,3,2,-9.449999999999999,-0.9399999999999999,2.38,0.3,0.05,-0.23
0.06008195877075195,2,3,3,2,-9.44,-0.9399999999999999,2.38,0.26,0.05,-0.22
0.07008194923400879,2,3,3,2,-9.449999999999999,-0.89,2.45,0.13,0.12,-0.22
0.08008193969726562,2,3,3,2,-9.48,-0.89,2.48,-0.04,0.24,-0.27
0.09008193016052246,2,3,3,2,-9.460000000000001,-0.91,2.46,-0.04,0.24,-0.27
0.1000819206237793,2,3,3,2,-9.44,-0.93,2.33,-0.12,0.21,-0.27
0.1100819110870361,2,3,3,2,-9.460000000000001,-0.93,2.37,-0.18,0.24,-0.3
0.120081901550293,2,3,3,2,-9.44,-0.97,2.39,-0.21,0.24,-0.28
0.1300821304321289,2,3,3,2,-9.460000000000001,-0.95,2.4,-0.19,0.18,-0.22
0.1400821208953857,2,3,3,2,-9.44,-0.9399999999999999,2.42,-0.19,0.18,-0.22
0.1500821113586426,2,3,3,2,-9.460000000000001,-0.92,2.32,-0.22,0.18,-0.2
0.1600821018218994,2,3,3,2,-9.49,-0.95,2.36,-0.24,0.1,-0.16
0.1700820922851562,2,3,3,2,-9.449999999999999,-0.98,2.42,-0.28,0,-0.15
0.1800820827484131,2,3,3,2,-9.44,-0.97,2.41,-0.34,-0.06,-0.14
0.1900820732116699,2,3,3,2,-9.43,-0.98,2.37,-0.34,-0.06,-0.14
0.2000820636749268,2,3,3,2,-9.43,-0.99,2.29,-0.31,-0.03,-0.11
0.2100820541381836,2,3,3,2,-9.4,-1.04,2.35,-0.28,-0.07000000000000001,-0.04
0.2200820446014404,2,3,3,2,-9.44,-1.06,2.38,-0.27,-0.1,0.02
0.2300820350646973,2,3,3,2,-9.51,-1.05,2.42,-0.35,-0.09,0.07000000000000001
0.2400820255279541,2,3,3,2,-9.529999999999999,-1.03,2.38,-0.33,-0.02,0.13
0.2500820159912109,2,3,3,2,-9.539999999999999,-0.98,2.27,-0.33,-0.02,0.14
0.2600820064544678,2,3,3,2,-9.48,-0.95,2.38,-0.27,-0.05,0.18
0.2700819969177246,2,3,3,2,-9.44,-0.99,2.46,-0.16,-0.06,0.23
0.2800819873809814,2,3,3,2,-9.42,-0.99,2.44,-0.28,-0.29,0.25
0.2900819778442383,2,3,3,2,-9.42,-1.05,2.42,-0.28,-0.29,0.25
0.3000819683074951,2,3,3,2,-9.44,-1.09,2.26,-0.33,-0.27,0.27
0.310081958770752,2,3,3,2,-9.470000000000001,-1.07,2.28,-0.35,-0.23,0.28
0.3200819492340088,2,3,3,2,-9.48,-1.12,2.32,-0.35,-0.26,0.33
0.3300819396972656,2,3,3,2,-9.48,-1.11,2.3,-0.25,-0.39,0.31
0.3400819301605225,2,3,3,2,-9.52,-1.1,2.32,-0.25,-0.39,0.31
0.3500819206237793,2,3,3,2,-9.49,-1.12,2.22,-0.16,-0.43,0.34
0.3600819110870361,2,3,3,2,-9.49,-1.11,2.25,-0.1,-0.44,0.39
0.370081901550293,2,3,3,2,-9.48,-1.12,2.35,0,-0.38,0.41
0.3800821304321289,2,3,3,2,-9.44,-1.1,2.4,0.1,-0.6899999999999999,0.52
0.3900821208953857,2,3,3,2,-9.42,-1.09,2.42,0.1,-0.6899999999999999,0.52
0.4000821113586426,2,3,3,2,-9.4,-1.06,2.32,0.08,-0.79,0.57
0.4100821018218994,2,3,3,2,-9.43,-1.06,2.34,0.06,-0.85,0.61
0.4210820198059082,2,3,3,2,-9.470000000000001,-1,2.33,0.01,-0.75,0.65
0.431082010269165,2,3,3,2,-9.49,-1,2.37,0.09,-0.58,0.57
0.4410820007324219,2,3,3,2,-9.49,-0.97,2.36,0.09,-0.58,0.57
0.4510819911956787,2,3,3,2,-9.470000000000001,-0.89,2.33,0.09,-0.47,0.5
0.4610819816589355,2,3,3,2,-9.49,-0.89,2.4,0.09,-0.42,0.4
0.4710819721221924,2,3,3,2,-9.49,-0.89,2.43,0.03,-0.4,0.34
0.4810819625854492,2,3,3,2,-9.5,-0.92,2.49,-0.16,-0.37,0.25
0.4910819530487061,2,3,3,2,-9.49,-0.93,2.43,-0.16,-0.37,0.25
0.5010819435119629,2,3,3,2,-9.43,-0.97,2.28,-0.25,-0.37,0.2
0.5110819339752197,2,3,3,2,-9.449999999999999,-0.99,2.36,-0.31,-0.19,0.1
0.5210819244384766,2,3,3,2,-9.470000000000001,-0.99,2.42,-0.23,-0.22,0.04
0.5310819149017334,2,3,3,2,-9.470000000000001,-1.04,2.43,-0.18,-0.19,0
0.5410819053649902,2,3,3,2,-9.49,-0.99,2.42,-0.03,-0.21,0
0.5510821342468262,2,3,3,2,-9.470000000000001,-0.96,2.32,0.03,-0.35,0.05
0.561082124710083,2,3,3,2,-9.43,-0.96,2.36,0.1,-0.31,0.11
0.5710821151733398,2,3,3,2,-9.390000000000001,-1.02,2.46,0.08,-0.36,0.19
0.5810821056365967,2,3,3,2,-9.41,-1.03,2.49,0.01,-0.42,0.25
0.5910820960998535,2,3,3,2,-9.44,-1.02,2.51,0.01,-0.42,0.25
0.6010820865631104,2,3,3,2,-9.44,-1.01,2.39,-0.08,-0.47,0.3
0.6110820770263672,2,3,3,2,-9.460000000000001,-1.02,2.4,-0.22,-0.27,0.28
0.621082067489624,2,3,3,2,-9.449999999999999,-1.04,2.4,-0.28,-0.2,0.22
0.6310820579528809,2,3,3,2,-9.470000000000001,-1.01,2.42,-0.35,-0.16,0.2
0.6410820484161377,2,3,3,2,-9.529999999999999,-1,2.42,-0.35,-0.16,0.2
0.6510820388793945,2,3,3,2,-9.550000000000001,-1.03,2.39,-0.19,-0.03,0.16
0.6610820293426514,2,3,3,2,-9.51,-1.05,2.44,-0.06,-0.35,0.08
0.6710820198059082,2,3,3,2,-9.48,-1.08,2.38,-0.16,-0.42,0.09
0.681082010269165,2,3,3,2,-9.42,-1.1,2.42,-0.05,-0.34,0.1
0.6910820007324219,2,3,3,2,-9.42,-1.07,2.46,-0.05,-0.34,0.1
0.7010819911956787,2,3,3,2,-9.390000000000001,-1.07,2.38,0.13,-0.37,0.1
0.7110819816589355,2,3,3,2,-9.359999999999999,-1.11,2.39,0.06,-0.27,0.08
0.7210819721221924,2,3,3,2,-9.43,-1.1,2.5,0.1,-0.24,0.09
0.7310819625854492,2,3,3,2,-9.42,-1.04,2.45,0.09,-0.26,0.05
0.7410819530487061,2,3,3,2,-9.42,-1.02,2.42,0.12,-0.19,0.03
0.7510819435119629,2,3,3,2,-9.42,-1.01,2.37,0.28,-0.12,0.01
0.7610819339752197,2,3,3,2,-9.52,-0.97,2.5,0.47,-0.17,-0.02
0.7710819244384766,2,3,3,2,-9.539999999999999,-0.95,2.49,0.47,-0.22,-0.06
0.7810819149017334,2,3,3,2,-9.5,-0.92,2.48,0.39,-0.27,-0.11
0.7910819053649902,2,3,3,2,-9.44,-0.91,2.47,0.34,-0.26,-0.13
0.8010821342468262,2,3,3,2,-9.43,-0.87,2.4,0.27,-0.22,-0.12
0.811082124710083,2,3,3,2,-9.43,-0.89,2.47,0.21,-0.2,-0.14
0.8210821151733398,2,3,3,2,-9.470000000000001,-0.88,2.53,0.2,-0.19,-0.12
0.8310821056365967,2,3,3,2,-9.43,-0.89,2.61,0.12,-0.25,-0.1
0.8410820960998535,2,3,3,2,-9.460000000000001,-0.89,2.6,0.15,-0.25,-0.08
0.8510820865631104,2,3,3,2,-9.44,-0.84,2.48,0.1,-0.31,-0.05
0.8610820770263672,2,3,3,2,-9.4,-0.87,2.46,0.04,-0.35,-0.04
0.871082067489624,2,3,3,2,-9.359999999999999,-0.83,2.51,0.05,-0.3,-0.02
0.8810820579528809,2,3,3,2,-9.41,-0.86,2.61,-0.06,-0.31,-0.01
0.8910820484161377,2,3,3,2,-9.42,-0.86,2.64,-0.17,-0.31,0.05
0.9010820388793945,2,3,3,2,-9.43,-0.87,2.5,-0.35,-0.34,0.05
0.9110820293426514,2,3,3,2,-9.44,-0.92,2.5,-0.47,-0.22,0.09
0.9210820198059082,2,3,3,2,-9.43,-0.9399999999999999,2.54,-0.59,-0.18,0.1
0.931082010269165,2,3,3,2,-9.44,-0.97,2.58,-0.64,-0.16,0.12
0.9410820007324219,2,3,3,2,-9.48,-0.99,2.62,-0.63,-0.22,0.09
0.9510819911956787,2,3,3,2,-9.44,-0.98,2.42,-0.6,-0.24,0.09
0.9610819816589355,2,3,3,2,-9.44,-0.99,2.46,-0.43,-0.26,0.1
0.9710819721221924,2,3,3,2,-9.44,-1.02,2.5,-0.36,-0.29,0.14
0.9810819625854492,2,3,3,2,-9.44,-1.03,2.55,-0.19,-0.31,0.12
0.9910819530487061,2,3,3,2,-9.4,-1.02,2.49,-0.11,-0.31,0.17
1.001081943511963,2,3,3,2,-9.369999999999999,-0.99,2.45,0,-0.25,0.12
1.01108193397522,2,3,3,2,-9.369999999999999,-0.96,2.51,0.04,-0.22,0.14
1.021081924438477,2,3,3,2,-9.35,-0.97,2.6,-0.04,-0.15,0.14
1.031081914901733,2,3,3,2,-9.380000000000001,-0.9399999999999999,2.63,-0.18,-0.09,0.16
1.04108190536499,2,3,3,2,-9.449999999999999,-0.9399999999999999,2.63,-0.35,-0.03,0.2
1.051082134246826,2,3,3,2,-9.52,-0.95,2.52,-0.37,-0.12,0.17
1.061082124710083,2,3,3,2,-9.42,-0.9399999999999999,2.38,-0.37,-0.13,0.13
1.07108211517334,2,3,3,2,-9.43,-0.96,2.47,-0.3,0.04,0.1
1.081082105636597,2,3,3,2,-9.449999999999999,-0.99,2.55,-0.1,0.03,0.01
1.091082096099854,2,3,3,2,-9.470000000000001,-0.95,2.6,0.02,-0.09,-0.08
1.10108208656311,2,3,3,2,-9.460000000000001,-0.96,2.42,0.01,-0.1,-0.11
1.111082077026367,2,3,3,2,-9.449999999999999,-0.96,2.52,0.11,-0.11,-0.09
1.121082067489624,2,3,3,2,-9.44,-0.99,2.6,0.03,-0.2,-0.1
1.131082057952881,2,3,3,2,-9.43,-1,2.6,-0.04,-0.15,-0.07000000000000001
1.141082048416138,2,3,3,2,-9.34,-0.97,2.5,-0.04,0.01,-0.05
1.151082038879395,2,3,3,2,-9.390000000000001,-0.95,2.47,0.03,0.09,-0.01
1.161082029342651,2,3,3,2,-9.41,-0.98,2.45,0.08,0.1,-0.02
1.171082019805908,2,3,3,2,-9.460000000000001,-0.96,2.58,0.18,0.06,-0.02
1.181082010269165,2,3,3,2,-9.460000000000001,-0.96,2.58,0.27,-0.07000000000000001,-0.01
1.191082000732422,2,3,3,2,-9.449999999999999,-0.93,2.6,0.22,-0.08,-0.04
1.201081991195679,2,3,3,2,-9.44,-0.92,2.46,0.16,-0.11,0
1.211081981658936,2,3,3,2,-9.42,-0.9,2.52,0.12,-0.1,-0.01
1.221081972122192,2,3,3,2,-9.42,-0.9399999999999999,2.58,0.14,-0.01,-0.02
1.231081962585449,2,3,3,2,-9.44,-0.91,2.65,0.22,0,-0.01
1.241081953048706,2,3,3,2,-9.44,-0.91,2.6,0.25,0.01,-0.01
1.251081943511963,2,3,3,2,-9.460000000000001,-0.88,2.51,0.33,-0.03,-0.02
1.26108193397522,2,3,3,2,-9.43,-0.87,2.57,0.32,-0.07000000000000001,-0.03
1.271081924438477,2,3,3,2,-9.380000000000001,-0.85,2.52,0.29,-0.03,-0.03
1.281081914901733,2,3,3,2,-9.380000000000001,-0.85,2.59,0.33,-0.02,0
1.29108190536499,2,3,3,2,-9.42,-0.88,2.58,0.35,-0.05,0.01
1.301082134246826,2,3,3,2,-9.449999999999999,-0.86,2.51,0.35,-0.15,0.07000000000000001
1.311082124710083,2,3,3,2,-9.460000000000001,-0.84,2.57,0.22,-0.21,0.08
1.32108211517334,2,3,3,2,-9.44,-0.8100000000000001,2.53,0.08,-0.25,0.12
1.331082105636597,2,3,3,2,-9.42,-0.84,2.58,-0.02,-0.18,0.13
1.341082096099854,2,3,3,2,-9.380000000000001,-0.87,2.59,-0.07000000000000001,-0.06,0.09
1.35108208656311,2,3,3,2,-9.390000000000001,-0.92,2.52,-0.07000000000000001,-0.01,0.11
1.361082077026367,2,3,3,2,-9.41,-0.91,2.59,-0.02,0.03,0.07000000000000001
1.371082067489624,2,3,3,2,-9.44,-0.9,2.61,0.05,-0.02,0.05
1.381082057952881,2,3,3,2,-9.43,-0.88,2.64,0.02,-0.13,0.07000000000000001
1.391082048416138,2,3,3,2,-9.44,-0.88,2.61,0.01,-0.11,0.09
1.401082038879395,2,3,3,2,-9.4,-0.86,2.55,0.04,-0.13,0.12
1.411082029342651,2,3,3,2,-9.4,-0.83,2.61,0.1,-0.14,0.13
1.421082019805908,2,3,3,2,-9.4,-0.84,2.66,0.08,-0.16,0.13
1.431082010269165,2,3,3,2,-9.380000000000001,-0.8100000000000001,2.62,-0.09,-0.17,0.09
1.442081928253174,2,3,3,2,-9.43,-0.85,2.59,-0.2,-0.14,0.05
1.452081918716431,2,3,3,2,-9.44,-0.86,2.48,-0.27,-0.16,0.01
1.462081909179688,2,3,3,2,-9.449999999999999,-0.88,2.51,-0.28,-0.06,-0.03
1.472081899642944,2,3,3,2,-9.43,-0.89,2.58,-0.21,-0.02,-0.04
1.48208212852478,2,3,3,2,-9.369999999999999,-1,2.57,-0.27,0,-0.11
1.492082118988037,2,3,3,2,-9.33,-1.01,2.49,-0.37,0.18,-0.08
1.502082109451294,2,3,3,2,-9.41,-1.02,2.42,-0.32,0.36,-0.05
1.512082099914551,2,3,3,2,-9.449999999999999,-0.98,2.5,-0.21,0.35,-0.08
1.522082090377808,2,3,3,2,-9.42,-0.96,2.53,-0.18,0.36,-0.06
1.532082080841064,2,3,3,2,-9.369999999999999,-0.96,2.61,-0.21,0.46,-0.08
1.542082071304321,2,3,3,2,-9.33,-0.96,2.65,-0.18,0.51,-0.09
1.552082061767578,2,3,3,2,-9.4,-0.96,2.53,-0.07000000000000001,0.55,-0.07000000000000001
1.562082052230835,2,3,3,2,-9.49,-0.88,2.58,0.28,0.44,-0.08
1.572082042694092,2,3,3,2,-9.51,-0.86,2.67,0.55,0.25,-0.08
1.582082033157349,2,3,3,2,-9.49,-0.85,2.68,0.59,0.02,-0.09
1.592082023620605,2,3,3,2,-9.41,-0.83,2.55,0.53,-0.15,-0.08
1.602082014083862,2,3,3,2,-9.369999999999999,-0.84,2.48,0.43,-0.16,-0.07000000000000001
1.612082004547119,2,3,3,2,-9.4,-0.85,2.5,0.45,0.01,-0.07000000000000001
1.622081995010376,2,3,3,2,-9.449999999999999,-0.84,2.59,0.43,-0.03,-0.08
1.632081985473633,2,3,3,2,-9.470000000000001,-0.85,2.55,0.28,-0.16,-0.09
1.64208197593689,2,3,3,2,-9.44,-0.86,2.49,0.18,-0.1,-0.1
1.652081966400146,2,3,3,2,-9.41,-0.86,2.42,0.29,-0.03,-0.1
1.662081956863403,2,3,3,2,-9.43,-0.88,2.5,0.38,0.01,-0.09
1.67208194732666,2,3,3,2,-9.449999999999999,-0.83,2.61,0.43,-0.08,-0.08
1.682081937789917,2,3,3,2,-9.4,-0.84,2.56,0.33,-0.12,-0.09
1.692081928253174,2,3,3,2,-9.390000000000001,-0.87,2.57,0.28,-0.05,-0.05
1.702081918716431,2,3,3,2,-9.43,-0.87,2.47,0.24,-0.03,-0.05
1.712081909179688,2,3,3,2,-9.43,-0.88,2.54,0.17,-0.02,-0.02
1.722081899642944,2,3,3,2,-9.44,-0.86,2.54,0.11,-0.01,0
1.73208212852478,2,3,3,2,-9.470000000000001,-0.88,2.6,0.16,-0.06,0
1.742082118988037,2,3,3,2,-9.41,-0.87,2.56,0.12,-0.09,-0.03
1.752082109451294,2,3,3,2,-9.44,-0.88,2.5,0.16,-0.06,-0.05
1.762082099914551,2,3,3,2,-9.43,-0.86,2.54,0.2,-0.08,-0.02
1.772082090377808,2,3,3,2,-9.42,-0.87,2.55,0.15,-0.13,-0.04
1.782082080841064,2,3,3,2,-9.41,-0.88,2.6,0.09,-0.16,-0.02
1.792082071304321,2,3,3,2,-9.42,-0.87,2.61,0.14,-0.01,-0.04
1.802082061767578,2,3,3,2,-9.43,-0.9,2.53,0.2,-0.02,0.02
1.812082052230835,2,3,3,2,-9.42,-0.88,2.52,0.18,-0.03,-0.01
1.822082042694092,2,3,3,2,-9.44,-0.92,2.61,0.22,0,-0.01
1.832082033157349,2,3,3,2,-9.449999999999999,-0.88,2.61,0.23,-0.12,-0.02
1.842082023620605,2,3,3,2,-9.4,-0.88,2.59,0.1,-0.17,-0.02
1.852082014083862,2,3,3,2,-9.4,-0.89,2.49,0.07000000000000001,-0.12,-0.04
1.862082004547119,2,3,3,2,-9.42,-0.91,2.51,0.04,-0.07000000000000001,-0.04
1.872081995010376,2,3,3,2,-9.42,-0.92,2.52,0.03,0.01,-0.06
1.882081985473633,2,3,3,2,-9.44,-0.89,2.55,0.01,0.04,-0.05
1.89208197593689,2,3,3,2,-9.44,-0.88,2.51,0.01,0.05,-0.07000000000000001
1.902081966400146,2,3,3,2,-9.44,-0.89,2.45,0.02,0.07000000000000001,-0.08
1.912081956863403,2,3,3,2,-9.449999999999999,-0.9,2.58,0.12,0,-0.01
1.92208194732666,2,3,3,2,-9.42,-0.9,2.61,0.04,-0.09,-0.02
1.932081937789917,2,3,3,2,-9.41,-0.9,2.59,-0.02,-0.07000000000000001,-0.02
1.942081928253174,2,3,3,2,-9.390000000000001,-0.91,2.56,0.02,-0.04,0.01
1.952081918716431,2,3,3,2,-9.380000000000001,-0.92,2.44,-0.02,-0.02,0.03
1.962081909179688,2,3,3,2,-9.41,-0.9399999999999999,2.5,0.01,0,0.02
1.972081899642944,2,3,3,2,-9.41,-0.91,2.57,-0.04,-0.03,0.04
1.98208212852478,2,3,3,2,-9.460000000000001,-0.9,2.54,-0.06,0.01,0.06
1.992082118988037,2,3,3,2,-9.460000000000001,-0.9,2.58,-0.04,-0.02,0.04
2.002082109451294,2,3,3,2,-9.42,-0.91,2.52,-0.06,0,0.01
2.012082099914551,2,3,3,2,-9.43,-0.9,2.57,-0.14,0.05,0.01
2.022082090377808,2,3,3,2,-9.449999999999999,-0.88,2.62,-0.17,0.01,0.01
2.032082080841064,2,3,3,2,-9.43,-0.92,2.64,-0.22,0.04,0
2.042082071304321,2,3,3,2,-9.42,-0.89,2.65,-0.25,0.01,0
2.052082061767578,2,3,3,2,-9.369999999999999,-0.95,2.48,-0.34,0.05,-0.02
2.062082052230835,2,3,3,2,-9.43,-0.98,2.52,-0.26,0.06,-0.01
2.072082042694092,2,3,3,2,-9.44,-0.95,2.55,-0.16,0.03,-0.07000000000000001
2.082082033157349,2,3,3,2,-9.48,-0.98,2.6,-0.06,-0.02,-0.05
2.092082023620605,2,3,3,2,-9.44,-0.99,2.55,0.02,-0.15,-0.1
2.102082014083862,2,3,3,2,-9.4,-0.99,2.43,-0.03,-0.16,-0.09
2.112082004547119,2,3,3,2,-9.4,-1.01,2.46,0.02,-0.04,-0.1
2.122081995010376,2,3,3,2,-9.44,-1.01,2.56,0.13,0.02,-0.11
2.132081985473633,2,3,3,2,-9.44,-1,2.57,0.16,0.01,-0.07000000000000001
2.14208197593689,2,3,3,2,-9.43,-1.01,2.6,0.23,0.01,-0.06
2.152081966400146,2,3,3,2,-9.41,-1,2.56,0.3,-0.06,-0.05
2.162081956863403,2,3,3,2,-9.390000000000001,-0.96,2.57,0.25,-0.03,-0.05
2.17208194732666,2,3,3,2,-9.42,-0.91,2.6,0.23,0.03,-0.04
2.182081937789917,2,3,3,2,-9.44,-0.93,2.61,0.29,0.01,-0.05
2.192081928253174,2,3,3,2,-9.460000000000001,-0.92,2.64,0.29,-0.06,-0.06
2.202081918716431,2,3,3,2,-9.43,-0.93,2.51,0.21,-0.15,-0.06
2.212081909179688,2,3,3,2,-9.44,-0.93,2.58,0.22,-0.15,-0.09
2.222081899642944,2,3,3,2,-9.44,-0.93,2.55,0.14,-0.17,-0.1
2.23208212852478,2,3,3,2,-9.390000000000001,-0.9399999999999999,2.54,0.18,-0.08,-0.11
2.242082118988037,2,3,3,2,-9.43,-0.97,2.51,0.23,-0.06,-0.08
2.252082109451294,2,3,3,2,-9.43,-0.97,2.47,0.25,-0.07000000000000001,-0.12
2.262082099914551,2,3,3,2,-9.43,-0.95,2.51,0.26,-0.04,-0.08
2.272082090377808,2,3,3,2,-9.43,-0.97,2.65,0.34,-0.03,-0.06
2.282082080841064,2,3,3,2,-9.41,-0.9399999999999999,2.62,0.33,-0.14,-0.07000000000000001
2.292082071304321,2,3,3,2,-9.380000000000001,-0.95,2.61,0.18,-0.12,-0.04
2.302082061767578,2,3,3,2,-9.4,-0.9399999999999999,2.52,0.25,-0.08,-0.05
2.312082052230835,2,3,3,2,-9.43,-0.88,2.58,0.3,-0.14,-0.04
2.322082042694092,2,3,3,2,-9.42,-0.92,2.6,0.29,-0.13,-0.03
2.332082033157349,2,3,3,2,-9.42,-0.92,2.6,0.28,-0.16,-0.04
2.342082023620605,2,3,3,2,-9.41,-0.88,2.62,0.17,-0.16,-0.03
2.352082014083862,2,3,3,2,-9.44,-0.89,2.45,0.12,-0.1,-0.01
2.362082004547119,2,3,3,2,-9.449999999999999,-0.9,2.55,0.08,-0.09,-0.03
2.372081995010376,2,3,3,2,-9.49,-0.92,2.6,0.12,-0.08,-0.05
2.382081985473633,2,3,3,2,-9.44,-0.9399999999999999,2.57,-0.01,-0.07000000000000001,-0.08
2.39208197593689,2,3,3,2,-9.4,-0.97,2.49,-0.11,0.05,-0.11
2.402081966400146,2,3,3,2,-9.380000000000001,-0.95,2.43,-0.08,0.15,-0.12
2.412081956863403,2,3,3,2,-9.380000000000001,-0.99,2.51,-0.08,0.19,-0.12
2.42208194732666,2,3,3,2,-9.43,-0.98,2.6,0.12,0.13,-0.09
2.432081937789917,2,3,3,2,-9.43,-0.98,2.6,0.21,-0.06,-0.07000000000000001
2.442081928253174,2,3,3,2,-9.449999999999999,-0.95,2.59,0.19,-0.1,-0.01
2.452081918716431,2,3,3,2,-9.43,-0.9399999999999999,2.48,0.18,-0.07000000000000001,0.01
2.462081909179688,2,3,3,2,-9.43,-0.91,2.64,0.27,-0.14,0
2.473082065582275,2,3,3,2,-9.359999999999999,-0.88,2.59,0.16,-0.2,0.02
2.483082056045532,2,3,3,2,-9.359999999999999,-0.91,2.58,0,-0.11,0.02
2.493082046508789,2,3,3,2,-9.34,-0.9,2.63,-0.03,0.05,-0.01
2.503082036972046,2,3,3,2,-9.43,-0.92,2.48,-0.06,0.12,-0.05
2.513082027435303,2,3,3,2,-9.470000000000001,-0.92,2.57,-0.04,0.13,-0.07000000000000001
2.52308201789856,2,3,3,2,-9.460000000000001,-0.95,2.61,-0.01,0.06,-0.1
2.533082008361816,2,3,3,2,-9.44,-0.96,2.58,-0.07000000000000001,0.08,-0.09
2.543081998825073,2,3,3,2,-9.41,-0.96,2.54,-0.08,0.14,-0.06
2.55308198928833,2,3,3,2,-9.42,-0.98,2.48,-0.03,0.1,-0.04
2.563081979751587,2,3,3,2,-9.43,-0.93,2.55,0.11,0.02,0.02
2.573081970214844,2,3,3,2,-9.41,-0.93,2.56,0.15,-0.08,0.03
2.583081960678101,2,3,3,2,-9.4,-0.92,2.65,0.16,-0.05,0.03
2.593081951141357,2,3,3,2,-9.390000000000001,-0.93,2.62,0.12,-0.01,0
2.603081941604614,2,3,3,2,-9.380000000000001,-0.92,2.53,0.07000000000000001,0.03,-0.05
2.613081932067871,2,3,3,2,-9.43,-0.97,2.51,0.07000000000000001,0,-0.02
2.623081922531128,2,3,3,2,-9.460000000000001,-1.02,2.53,0,-0.04,-0.02
2.633081912994385,2,3,3,2,-9.449999999999999,-0.99,2.56,0.04,-0.1,-0.01
2.643081903457642,2,3,3,2,-9.43,-0.99,2.58,0.09,-0.14,-0.01
2.653082132339478,2,3,3,2,-9.390000000000001,-0.97,2.42,0.1,-0.13,0.02
2.663082122802734,2,3,3,2,-9.41,-0.99,2.53,0.12,-0.05,0
2.673082113265991,2,3,3,2,-9.4,-1.01,2.6,0.19,-0.03,0
2.683082103729248,2,3,3,2,-9.41,-0.9399999999999999,2.62,0.2,-0.08,0
2.693082094192505,2,3,3,2,-9.390000000000001,-0.9399999999999999,2.56,0.2,-0.04,0.04
2.703082084655762,2,3,3,2,-9.42,-0.9399999999999999,2.54,0.25,-0.03,0.04
2.713082075119019,2,3,3,2,-9.44,-0.93,2.58,0.23,-0.09,0.06
2.723082065582275,2,3,3,2,-9.460000000000001,-0.93,2.65,0.25,-0.16,0.06
2.733082056045532,2,3,3,2,-9.460000000000001,-0.93,2.65,0.25,-0.16,0.06
2.743082046508789,2,3,3,2,-9.390000000000001,-0.93,2.55,0.07000000000000001,-0.25,0.03
2.753082036972046,2,3,3,2,-9.42,-0.97,2.5,0.06,0,0.05
2.763082027435303,2,3,3,2,-9.42,-0.98,2.46,0.02,0.03,0
2.77308201789856,2,3,3,2,-9.44,-0.96,2.6,0.12,0.02,-0.01
2.783082008361816,2,3,3,2,-9.48,-0.96,2.62,0.2,-0.06,0
2.793081998825073,2,3,3,2,-9.449999999999999,-0.97,2.62,0.19,-0.15,-0.01
2.80308198928833,2,3,3,2,-9.42,-0.96,2.42,0.09,-0.18,-0.02
2.813081979751587,2,3,3,2,-9.390000000000001,-0.96,2.5,0.05,-0.12,0
2.823081970214844,2,3,3,2,-9.41,-0.95,2.65,0.19,-0.08,0.03
2.833081960678101,2,3,3,2,-9.42,-0.92,2.63,0.12,-0.15,0.03
2.843081951141357,2,3,3,2,-9.4,-0.92,2.53,0.04,-0.13,0.04
2.853081941604614,2,3,3,2,-9.41,-0.89,2.51,0.12,-0.07000000000000001,0.08
2.863081932067871,2,3,3,2,-9.43,-0.93,2.56,0.11,-0.12,0.09
2.873081922531128,2,3,3,2,-9.4,-0.9399999999999999,2.54,0.06,-0.14,0.04
2.883081912994385,2,3,3,2,-9.43,-0.92,2.61,0.06,-0.01,0.05
2.893081903457642,2,3,3,2,-9.449999999999999,-0.9399999999999999,2.6,0.17,-0.03,0.06
2.903082132339478,2,3,3,2,-9.43,-0.93,2.51,0.16,-0.08,0.03
2.913082122802734,2,3,3,2,-9.42,-0.93,2.53,0.08,-0.14,0.01
2.923082113265991,2,3,3,2,-9.42,-0.96,2.57,-0.01,-0.11,0.01
2.933082103729248,2,3,3,2,-9.44,-0.9399999999999999,2.58,-0.07000000000000001,-0.06,0.01
2.943082094192505,2,3,3,2,-9.449999999999999,-0.9399999999999999,2.59,-0.01,-0.06,0.05
2.953082084655762,2,3,3,2,-9.42,-0.9,2.49,-0.05,-0.1,0.05
2.963082075119019,2,3,3,2,-9.43,-0.88,2.6,0.05,-0.06,0.03
2.973082065582275,2,3,3,2,-9.41,-0.9,2.61,0.09,-0.1,0.03
2.983082056045532,2,3,3,2,-9.4,-0.92,2.64,0.02,-0.06,0.05
2.993082046508789,2,3,3,2,-9.4,-0.92,2.64,0.01,-0.05,0.05
3.003082036972046,2,3,3,2,-9.390000000000001,-0.92,2.61,-0.02,-0.07000000000000001,0.05
3.013082027435303,2,3,3,2,-9.380000000000001,-0.92,2.52,-0.08,-0.05,0.06
3.02308201789856,2,3,3,2,-9.359999999999999,-0.95,2.55,-0.13,0,0.02
3.033082008361816,2,3,3,2,-9.4,-0.95,2.57,-0.05,-0.02,0.02
3.043081998825073,2,3,3,2,-9.44,-0.91,2.61,-0.04,-0.05,0.02
3.05308198928833,2,3,3,2,-9.44,-0.96,2.53,0.04,-0.03,-0.02
3.063081979751587,2,3,3,2,-9.449999999999999,-0.92,2.43,0.16,-0.07000000000000001,0.01
3.073081970214844,2,3,3,2,-9.470000000000001,-0.93,2.55,0.14,-0.13,0.03
3.083081960678101,2,3,3,2,-9.43,-0.93,2.59,0.1,-0.12,0.05
3.093081951141357,2,3,3,2,-9.42,-0.91,2.61,0.15,-0.09,0.06
3.103081941604614,2,3,3,2,-9.380000000000001,-0.91,2.65,0.1,-0.05,0.07000000000000001
3.113081932067871,2,3,3,2,-9.359999999999999,-0.92,2.54,0.07000000000000001,-0.01,0.09
3.123081922531128,2,3,3,2,-9.369999999999999,-0.9,2.62,0.07000000000000001,-0.03,0.11
3.133081912994385,2,3,3,2,-9.359999999999999,-0.91,2.61,0.06,-0.05,0.13
3.143081903457642,2,3,3,2,-9.42,-0.91,2.62,0.13,-0.12,0.09
3.153082132339478,2,3,3,2,-9.43,-0.86,2.69,0.09,-0.16,0.11
3.163082122802734,2,3,3,2,-9.4,-0.89,2.47,0.05,-0.14,0.08
3.173082113265991,2,3,3,2,-9.43,-0.9,2.53,0.05,-0.15,0.06
3.183082103729248,2,3,3,2,-9.42,-0.88,2.59,0.06,-0.11,0.05
3.193082094192505,2,3,3,2,-9.42,-0.87,2.61,0.1,-0.14,0.1
3.203082084655762,2,3,3,2,-9.4,-0.86,2.61,0.11,-0.17,0.11
3.213082075119019,2,3,3,2,-9.390000000000001,-0.87,2.51,0.09,-0.14,0.12
3.223082065582275,2,3,3,2,-9.369999999999999,-0.84,2.56,0.12,-0.11,0.13
3.233082056045532,2,3,3,2,-9.41,-0.83,2.63,0.13,-0.12,0.12
3.243082046508789,2,3,3,2,-9.4,-0.8,2.66,0.12,-0.13,0.14
3.253082036972046,2,3,3,2,-9.41,-0.83,2.66,0.08,-0.09,0.1
3.263082027435303,2,3,3,2,-9.4,-0.86,2.56,0.02,-0.08,0.07000000000000001
3.27308201789856,2,3,3,2,-9.43,-0.84,2.63,0.05,-0.15,0.07000000000000001
3.283082008361816,2,3,3,2,-9.44,-0.86,2.67,0.05,-0.15,0.07000000000000001
3.293081998825073,2,3,3,2,-9.44,-0.85,2.67,-0.01,-0.24,0.05
3.30308198928833,2,3,3,2,-9.43,-0.87,2.65,-0.18,-0.37,0.02
3.313081979751587,2,3,3,2,-9.42,-0.89,2.45,-0.04,-0.33,-0.02
3.323081970214844,2,3,3,2,-9.44,-0.87,2.58,0.01,-0.42,-0.04
3.333081960678101,2,3,3,2,-9.460000000000001,-0.88,2.62,0.01,-0.42,-0.04
3.343081951141357,2,3,3,2,-9.49,-0.89,2.61,-0.06,-0.52,-0.01
3.353081941604614,2,3,3,2,-9.43,-0.89,2.58,-0.06,-0.51,0.06
3.363081932067871,2,3,3,2,-9.41,-0.91,2.54,-0.03,-0.47,0.05
3.373081922531128,2,3,3,2,-9.369999999999999,-0.95,2.59,-0.02,-0.45,0.08
3.383081912994385,2,3,3,2,-9.390000000000001,-0.98,2.7,-0.02,-0.45,0.08
3.393081903457642,2,3,3,2,-9.41,-1.09,2.67,-0.04,-0.42,0.01
3.403082132339478,2,3,3,2,-9.4,-1.15,2.66,-0.17,-0.53,0.06
3.413082122802734,2,3,3,2,-9.42,-1.16,2.52,-0.25,-0.46,0.09
3.423082113265991,2,3,3,2,-9.359999999999999,-1.22,2.44,-0.06,-0.33,0.08
3.433082103729248,2,3,3,2,-9.35,-1.18,2.45,-0.06,-0.33,0.08
3.443082094192505,2,3,3,2,-9.369999999999999,-1.17,2.48,0.25,-0.25,0
3.453082084655762,2,3,3,2,-9.380000000000001,-1.11,2.61,0.9399999999999999,-0.34,-0.21
3.463082075119019,2,3,3,2,-9.390000000000001,-0.9399999999999999,2.55,1.01,-0.45,-0.29
3.473082065582275,2,3,3,2,-9.34,-0.86,2.59,0.96,-0.42,-0.4
3.483082056045532,2,3,3,2,-9.31,-0.78,2.66,0.96,-0.42,-0.4
3.494081974029541,2,3,3,2,-9.32,-0.73,2.77,0.85,-0.2,-0.52
3.504081964492798,2,3,3,2,-9.33,-0.65,2.73,0.12,0.32,-0.64
3.514081954956055,2,3,3,2,-9.380000000000001,-0.63,2.67,-0.24,0.48,-0.7
3.524081945419312,2,3,3,2,-9.44,-0.68,2.69,-0.54,0.51,-0.83
3.534081935882568,2,3,3,2,-9.51,-0.73,2.72,-0.54,0.51,-0.83
3.544081926345825,2,3,3,2,-9.529999999999999,-0.9,2.56,-0.98,0.53,-0.97
3.554081916809082,2,3,3,2,-9.529999999999999,-1.02,2.43,-1.4,0.92,-1.35
3.564081907272339,2,3,3,2,-9.49,-1.11,2.24,-1.23,1.08,-1.56
3.574082136154175,2,3,3,2,-9.380000000000001,-1.28,2.23,-1.01,1.3,-1.77
3.584082126617432,2,3,3,2,-9.300000000000001,-1.33,2.27,-1.01,1.3,-1.77
3.594082117080688,2,3,3,2,-9.25,-1.46,2.39,-0.72,1.5,-1.91
3.604082107543945,2,3,3,2,-9.19,-1.54,2.51,-0.27,1.54,-2.07
3.614082098007202,2,3,3,2,-9.07,-1.6,2.32,-0.51,1.46,-2.11
3.624082088470459,2,3,3,2,-8.869999999999999,-1.53,2.13,-0.74,1.72,-2.14
3.634082078933716,2,3,3,2,-8.73,-1.45,1.99,-0.74,1.72,-2.14
3.644082069396973,2,3,3,2,-8.640000000000001,-1.37,2.02,-0.68,1.98,-2.11
3.654082059860229,2,3,3,2,-8.57,-1.53,2.03,-0.91,2,-2.25
3.664082050323486,2,3,3,2,-8.48,-1.7,1.8,-1.07,1.99,-2.48
3.674082040786743,2,3,3,2,-8.369999999999999,-1.86,1.61,-1.02,1.98,-2.86
3.68408203125,2,3,3,2,-8.220000000000001,-1.88,1.56,-1.02,1.98,-2.86
3.694082021713257,2,3,3,2,-7.75,-1.76,1.59,-1.17,1.93,-3.2
3.704082012176514,2,3,3,2,-7.51,-1.67,1.58,-2.02,1.43,-4.18
3.714082002639771,2,3,3,2,-7.34,-1.7,1.38,-2.25,0.71,-4.87
3.724081993103027,2,3,3,2,-7.14,-1.63,1.21,-2.26,0.22,-5.39
3.734081983566284,2,3,3,2,-6.55,-1.46,0.97,-2.26,0.22,-5.39
3.744081974029541,2,3,3,2,-6.24,-1.45,0.91,-2.09,-0.02,-5.74
3.754081964492798,2,3,3,2,-5.94,-1.42,0.87,-1.84,-0.78,-6.14
3.764081954956055,2,3,3,2,-5.48,-1.32,0.78,-1.31,-1.41,-6.06
3.774081945419312,2,3,3,2,-5.32,-1.37,1.06,-0.44,-2.01,-5.73
3.784081935882568,2,3,3,2,-5.31,-1.48,1.37,-0.44,-2.01,-5.73
3.794081926345825,2,3,3,2,-5.27,-1.5,1.5,0.05,-2.24,-5.35
3.804081916809082,2,3,3,2,-5.15,-1.56,1.13,0.75,-0.7,-4.65
3.814081907272339,2,3,3,2,-5.57,-1.27,1.42,2.02,-0.97,-4.03
3.824082136154175,2,3,3,2,-6.23,-0.99,2.37,2.19,-2.39,-3.1
3.834082126617432,2,3,3,2,-6.89,-0.75,3.05,2.19,-2.39,-3.1
3.844082117080688,2,3,3,2,-7.47,-0.54,2.5,0.68,-3.5,-2.37
3.854082107543945,2,3,3,2,-7.86,-0.53,2.54,0.11,-1.86,-1.65
3.864082098007202,2,3,3,2,-8.5,-0.57,2.81,0.08,-1.49,-1.6
3.874082088470459,2,3,3,2,-9.25,-0.58,3.12,-0.5600000000000001,-2.38,-2.13
3.884082078933716,2,3,3,2,-10.23,-0.5,3.24,-0.5600000000000001,-2.38,-2.13
3.894082069396973,2,3,3,2,-10.46,-0.35,3.43,-1.24,-3.03,-2.9
3.904082059860229,2,3,3,2,-10.62,-0.47,3.66,-3.05,-1.8,-3.86
3.914082050323486,2,3,3,2,-10.81,-0.73,3.66,-3.8,-1.51,-3.71
3.924082040786743,2,3,3,2,-10.88,-1.27,3.34,-3.55,-2.01,-3.09
3.93408203125,2,3,3,2,-10.91,-1.45,3.27,-3.55,-2.01,-3.09
3.944082021713257,2,3,3,2,-10.98,-1.65,3.62,-2.61,-3.14,-1.9
3.954082012176514,2,3,3,2,-11.45,-1.98,4.38,-0.4,-4.46,0.6899999999999999
3.964082002639771,2,3,3,2,-11.95,-2.12,4.56,-0.36,-3.92,1.38
3.974081993103027,2,3,3,2,-12.43,-1.9,4.86,-1.16,-3.5,1.47
3.984081983566284,2,3,3,2,-12.95,-2.17,4.93,-1.16,-3.5,1.47
3.994081974029541,2,3,3,2,-13.3,-1.85,4.74,-1.35,-3.06,1.3
4.004081964492798,2,3,3,2,-13.05,-1.79,4.31,-1.86,-2.13,0.91
4.014081954956055,2,3,3,2,-12.71,-1.93,3.83,-1.87,-0.82,0.64
4.024081945419312,2,3,3,2,-12.25,-2.11,3.55,-1.67,-0.43,0.37
4.034081935882568,2,3,3,2,-11.56,-2.55,3.84,-1.42,-0.55,0.32
4.044081926345825,2,3,3,2,-11.77,-2.67,4.35,-0.7,-0.8100000000000001,0.97
4.054081916809082,2,3,3,2,-12.3,-2.66,4.79,-0.36,-1.72,1.79
4.064081907272339,2,3,3,2,-12.77,-2.64,5.04,-0.35,-1.94,2.16
4.074082136154175,2,3,3,2,-13.74,-2.8,5.59,-0.45,-0.52,2.15
4.084082126617432,2,3,3,2,-14.12,-2.98,5.46,-1.12,0.58,1.85
4.094082117080688,2,3,3,2,-14.31,-3.43,4.83,-2.18,0.76,1.12
4.104082107543945,2,3,3,2,-14.52,-3.86,4.32,-2.31,1.29,0.22
4.114082098007202,2,3,3,2,-15.77,-4.15,4.58,-1.01,1.86,-0.7
4.124082088470459,2,3,3,2,-16.75,-3.81,5.1,0.01,1.73,-1.55
4.134082078933716,2,3,3,2,-17.45,-3.16,5.23,0.29,0.83,-2.13
4.144082069396973,2,3,3,2,-18.43,-1.35,6.7,0.53,1.35,-2.07
4.154082059860229,2,3,3,2,-18.91,-0.59,7.44,1.07,2.04,-1.43
4.164082050323486,2,3,3,2,-19.2,-0.55,7.59,0.99,2.95,1.42
4.174082040786743,2,3,3,2,-19.39,-0.72,7.54,0.99,2.95,1.42
4.18408203125,2,3,3,2,-20.21,-1.94,6.89,0.36,4.72,3.07
4.194082021713257,2,3,3,2,-21.19,-1.98,7.36,0.62,5.95,4.64
4.204082012176514,2,3,3,2,-22.38,-1.86,7.38,0.5600000000000001,6.6,5.89
4.214082002639771,2,3,3,2,-23.28,-1.63,7.18,1.27,7.59,6.92
4.224081993103027,2,3,3,2,-24,-1.97,6.75,2.41,8.390000000000001,7.7
4.234081983566284,2,3,3,2,-23.47,-1.92,6.42,3.62,8.6,7.84
4.244081974029541,2,3,3,2,-22.29,-1.75,6.06,4.55,8.91,7.29
4.254081964492798,2,3,3,2,-20.54,-1.47,5.89,4.89,9,6.17
4.264081954956055,2,3,3,2,-15.5,-1.72,4.5,4.04,8.380000000000001,4.79
4.274081945419312,2,3,3,2,-12.6,-1.67,3.56,2.63,7.2,3.03
4.284081935882568,2,3,3,2,-9.859999999999999,-3.13,2.63,0.51,7.32,1.83
4.294081926345825,2,3,3,2,-5.87,-5.1,0.79,-1.74,9.710000000000001,1.03
4.304081916809082,2,3,3,2,-3.92,-4.67,-1.02,-3.59,12.39,-0.18
4.314081907272339,2,3,3,2,-1.99,-4.44,-2.74,-7.77,12.75,-0.79
4.324082136154175,2,3,3,2,-0.43,-5.58,-2.82,-16.43,8.119999999999999,-2.17
4.334082126617432,2,3,3,2,2.91,-13.24,-12.61,-31.18,-2.58,-7.02
4.344082117080688,2,3,3,2,3.84,-15.68,-16.48,-37.59,-6.69,-10.86
4.354082107543945,2,3,3,2,2.75,-16.34,-11.98,-17.27,3.38,-11.34
4.364082098007202,2,3,3,2,2.19,-15.61,-4.22,10.68,7.48,-11.34
4.374082088470459,2,3,3,2,5.07,-8.550000000000001,1.52,23.29,-1.5,-9.029999999999999
4.384082078933716,2,3,3,2,5.29,-3.69,1.5,23.86,-9.699999999999999,-2.79
4.394082069396973,2,3,3,2,4.73,1.14,2.52,24.48,-11.26,3.77
4.404082059860229,2,3,3,2,4.31,4.11,3.35,22.43,-7.13,7.35
4.414082050323486,2,3,3,2,3.46,6.68,1.03,18.55,-3.58,9.029999999999999
4.424082040786743,2,3,3,2,3.25,6.4,0.43,14.41,-0.99,11.09
4.43408203125,2,3,3,2,1.77,5.91,0.84,10.02,1.34,12.69
4.444082021713257,2,3,3,2,0.04,5.76,1.31,4.22,0.84,12.43
4.454082012176514,2,3,3,2,-3.3,2.9,0.72,-1.59,-1,10.59
4.464082002639771,2,3,3,2,-4.01,1.52,-0.09,-6.05,-2.99,8.34
4.474081993103027,2,3,3,2,-4.14,0.31,-0.8,-8.619999999999999,-4.03,6.58
4.484081983566284,2,3,3,2,-3.62,0.08,-1.54,-8.83,-2.74,5
4.494081974029541,2,3,3,2,-3.43,0.24,-1.19,-7.26,0.05,3.59
4.504081964492798,2,3,3,2,-3.43,0.13,-0.77,-5.45,1.64,1.86
4.514081954956055,2,3,3,2,-3.14,-0.09,-0.57,-4.24,0.6,-0.29
4.525082111358643,2,3,3,2,-1.19,-0.3,-0.35,-3.25,-1.05,-1.83
4.535082101821899,2,3,3,2,-0.65,-0.51,-0.02,-2.21,-1,-3.28
4.545082092285156,2,3,3,2,-0.23,-0.87,0.3,-0.99,-0.16,-5.03
4.555082082748413,2,3,3,2,0.08,-1.4,0.4,-0.47,-0.1,-7.01
4.56508207321167,2,3,3,2,0.85,-1.73,0.01,-0.16,-0.7,-8.98
4.575082063674927,2,3,3,2,1.41,-1.81,-0.18,0.06,-1.21,-10.56
4.585082054138184,2,3,3,2,1.9,-1.8,-0.24,0.5,-1.4,-11.17
4.59508204460144,2,3,3,2,2.08,-1.68,-0.21,1.41,-1.36,-10.9
4.605082035064697,2,3,3,2,1.93,-0.88,0.04,2.8,-1.32,-9.949999999999999
4.615082025527954,2,3,3,2,1.75,-0.24,0.04,4.06,-1.55,-8.699999999999999
4.625082015991211,2,3,3,2,1.52,0.48,0.12,5,-1.41,-7.5
4.635082006454468,2,3,3,2,1.4,1.22,0.13,5.27,-0.78,-6.16
4.645081996917725,2,3,3,3,1.37,2.07,-0.05,4.81,-0.27,-4.5
4.655081987380981,2,3,3,3,1.43,2.21,0.58,3.58,0.17,-2.02
4.665081977844238,2,3,3,3,0.6899999999999999,1.4,0.48,1.47,0.21,1.97
4.675081968307495,2,3,3,3,-1.44,-1.08,2.36,-0.03,-1.28,6.3
4.685081958770752,2,3,3,3,-2.12,-2.55,3.55,-0.53,-3.03,10.14
4.695081949234009,2,3,3,3,-3.17,-5.09,5.76,-1.2,-4.05,13.89
4.705081939697266,2,3,3,3,-4.03,-8.699999999999999,5.79,-5.02,-5.44,16.96
4.715081930160522,2,3,3,3,-7.76,-13.65,-0.51,-11.14,0.63,19.11
4.725081920623779,2,3,3,3,-24.86,-12.34,2.68,-4.69,25.89,24.21
4.735081911087036,2,3,3,3,-39.11,-16.05,14.08,7.19,6.73,27.06
4.745081901550293,2,3,3,3,-39.09,-15.44,-2.08,25.19,-34.12,10.68
4.755082130432129,2,3,3,3,-24.48,24.68,-0.07000000000000001,38.94,-2.52,-18.43
4.765082120895386,2,3,3,3,-15.05,22.95,12.77,23.63,-19.18,-15.6
4.775082111358643,2,3,3,3,-17.55,10.85,18.86,4.89,10.43,0.37
4.785082101821899,2,3,3,3,-19.81,3.46,16.31,-6.42,12.55,13.71
4.795082092285156,2,3,3,3,-15.74,-3.16,6.46,-12.9,-13.59,18.65
4.805082082748413,2,3,3,3,-15.47,-2.43,6.69,-7.86,-16.07,15.15
4.81508207321167,2,3,3,3,-18.58,0.54,6.75,-2.13,5.4,10.96
4.825082063674927,2,3,3,3,-23.54,3.38,4.98,1.41,22.58,5.17
4.835082054138184,2,3,3,3,-27.58,2.52,-0.39,6.8,17.56,-2.2
4.84508204460144,2,3,3,3,-24.15,1.3,0.5,11.55,-1.97,-6.82
4.855082035064697,2,3,3,3,-19.31,0.76,3.29,9.630000000000001,-16.88,-7.91
4.865082025527954,2,3,3,3,-11.84,1.06,6.84,5.02,-16.21,-6.55
4.875082015991211,2,3,3,3,-10.79,1.03,6.85,2.21,-7.31,-4.36
4.885082006454468,2,3,3,3,-11.34,2.28,6.54,-0.09,-0.54,-3.16
4.895081996917725,2,3,3,3,-11.99,2.93,5.92,-3.79,0.96,-3.66
4.905081987380981,2,3,3,3,-13.02,1.23,3.75,-5.47,1.77,-3.78
4.915081977844238,2,3,3,3,-13.23,-0.01,2.85,-5.02,3.04,-3.14
4.925081968307495,2,3,3,3,-13.08,-1.22,2.18,-4.72,3.07,-1.69
4.935081958770752,2,3,3,3,-12.52,-2.03,1.71,-4.42,1.72,-0.06
4.945081949234009,2,3,3,3,-10.46,-2.09,1.33,-4.05,0.09,1.29
4.955081939697266,2,3,3,3,-9.359999999999999,-1.59,1.44,-3.25,-0.57,1.62
4.965081930160522,2,3,3,3,-8.66,-1.13,1.62,-2.27,-0.34,1.12
4.975081920623779,2,3,3,3,-8.09,-0.99,1.84,-1.61,0.15,0.29
4.985081911087036,2,3,3,3,-6.66,-1.34,1.53,-1.44,0.24,-0.63
4.995081901550293,2,3,3,3,-5.82,-1.38,1.3,-1.54,0.05,-1.38
5.005082130432129,2,3,3,3,-5.01,-1.34,1.16,-1.77,-0.12,-1.98
5.015082120895386,2,3,3,3,-4.48,-1.36,1.04,-1.97,-0.04,-2.45
5.025082111358643,2,3,3,3,-3.71,-1.43,1.2,-2.03,0.26,-2.84
5.035082101821899,2,3,3,3,-3.72,-1.59,1.23,-2.03,1.15,-3.02
5.045082092285156,2,3,3,3,-3.87,-1.82,1.33,-1.83,2.07,-2.84
5.055082082748413,2,3,3,3,-4.65,-2.24,1.35,-1.2,2.65,-2.31
5.06508207321167,2,3,3,3,-5.18,-2.38,1.37,-0.5600000000000001,2.68,-1.54
5.075082063674927,2,3,3,3,-5.59,-2.52,1.41,-0.08,1.76,-0.76
5.085082054138184,2,3,3,3,-5.91,-2.67,1.28,0.19,0.75,0.13
5.09508204460144,2,3,3,3,-6.58,-2.71,0.88,0.54,0.46,0.95
5.105082035064697,2,3,3,3,-6.98,-2.54,1,1.35,0.37,1.48
5.115082025527954,2,3,3,3,-7.3,-2.37,1.22,2.22,0.11,1.79
5.125082015991211,2,3,3,3,-7.53,-2.25,1.59,2.92,0,1.9
5.135082006454468,2,3,3,3,-7.9,-2.08,2.04,3.34,0.17,1.89
5.145081996917725,2,3,3,2,-8.15,-2,2.08,3.77,0.61,1.94
5.155081987380981,2,3,3,2,-8.529999999999999,-1.87,2.11,3.91,1.06,2.08
5.165081977844238,2,3,3,2,-9.1,-1.63,1.99,4.13,1.45,2.24
5.175081968307495,2,3,3,2,-10.4,-0.8100000000000001,2.27,4.54,1.49,2.5
5.185081958770752,2,3,3,2,-10.9,-0.42,2.35,4.83,0.92,2.73
5.195081949234009,2,3,3,2,-11.09,-0.09,2.51,4.77,0.06,2.77
5.205081939697266,2,3,3,2,-11.07,0.2,2.78,4.15,-0.71,2.61
5.215081930160522,2,3,3,2,-10.69,0.58,2.6,2.92,-0.82,2.24
5.225081920623779,2,3,3,2,-10.67,0.8,2.8,1.92,-0.17,1.72
5.235081911087036,2,3,3,2,-10.74,0.91,3.16,1.41,0.23,1.17
5.245081901550293,2,3,3,2,-10.67,1,3.14,0.54,-0.08,0.5600000000000001
5.255082130432129,2,3,3,2,-10.38,0.96,2.85,-0.64,-0.59,0.02
5.265082120895386,2,3,3,2,-10.13,0.76,2.61,-1.79,-0.64,-0.4
5.275082111358643,2,3,3,2,-9.960000000000001,0.5,2.54,-2.56,-0.21,-0.77
5.285082101821899,2,3,3,2,-9.82,-0.06,2.38,-3.07,0.14,-1.13
5.295082092285156,2,3,3,2,-9.76,-0.31,2.34,-3.16,0.3,-1.49
5.305082082748413,2,3,3,2,-9.77,-0.44,2.22,-2.76,0.02,-1.72
5.31508207321167,2,3,3,2,-9.68,-0.59,2.12,-2.28,-0.59,-1.84
5.325082063674927,2,3,3,2,-9.18,-0.98,2.33,-1.9,-1.15,-1.93
5.335082054138184,2,3,3,2,-8.91,-1.14,2.44,-1.75,-1.37,-2.06
5.34508204460144,2,3,3,2,-8.68,-1.3,2.43,-1.81,-1.19,-2.16
5.355082035064697,2,3,3,2,-8.550000000000001,-1.41,2.38,-1.78,-0.63,-2.22
5.365082025527954,2,3,3,2,-8.56,-1.46,2.22,-1.54,0.05,-2.16
5.375082015991211,2,3,3,2,-8.640000000000001,-1.55,2.23,-1.16,0.39,-1.92
5.385082006454468,2,3,3,2,-8.65,-1.62,2.1,-0.99,0.52,-1.6
5.395081996917725,2,3,3,2,-8.550000000000001,-1.6,1.82,-0.9,0.76,-1.23
5.405081987380981,2,3,3,2,-8.59,-1.39,1.6,-0.39,1.22,-0.78
5.415081977844238,2,3,3,2,-8.65,-1.24,1.67,0.4,1.34,-0.3
5.425081968307495,2,3,3,2,-8.720000000000001,-1.1,1.85,0.99,1.08,0.17
5.435081958770752,2,3,3,2,-8.81,-0.93,2.11,1.25,0.7,0.57
5.445081949234009,2,3,3,2,-8.970000000000001,-0.95,2.25,1.29,0.48,0.93
5.455081939697266,2,3,3,2,-9.15,-0.99,2.38,1.13,0.28,1.22
5.465081930160522,2,3,3,2,-9.300000000000001,-0.98,2.3,0.83,0.15,1.24
5.475081920623779,2,3,3,2,-9.52,-0.9399999999999999,2.31,0.53,0.19,1.09
5.485081911087036,2,3,3,2,-9.68,-0.89,2.31,0.23,0.43,0.88
5.495081901550293,2,3,3,2,-9.869999999999999,-0.79,2.39,0.08,0.78,0.52
5.505082130432129,2,3,3,2,-10.09,-0.66,2.55,0.19,1.13,0.2
5.515082120895386,2,3,3,2,-10.3,-0.32,2.44,0.21,1.23,-0.11
5.525082111358643,2,3,3,2,-10.17,-0.19,2.38,0.09,1.12,-0.4
5.535082101821899,2,3,3,2,-9.93,-0.14,2.34,-0.1,0.77,-0.58
5.546082019805908,2,3,3,2,-9.67,-0.17,2.34,-0.22,0.43,-0.6
5.556082010269165,2,3,3,2,-9.31,-0.43,2.42,-0.2,0.18,-0.51
5.566082000732422,2,3,3,2,-9.210000000000001,-0.6,2.4,-0.29,-0.14,-0.21
5.576081991195679,2,3,3,2,-9.15,-0.67,2.44,-0.5,-0.43,0.21
5.586081981658936,2,3,3,2,-9.1,-0.67,2.43,-0.79,-0.48,0.65
5.596081972122192,2,3,3,2,-9.289999999999999,-0.63,2.61,-0.91,-0.38,0.85
5.606081962585449,2,3,3,2,-9.470000000000001,-0.67,2.61,-0.89,-0.2,0.79
5.616081953048706,2,3,3,2,-9.630000000000001,-0.71,2.41,-0.89,0.03,0.57
5.626081943511963,2,3,3,2,-9.74,-0.78,2.24,-0.97,0.24,0.27
5.63608193397522,2,3,3,2,-9.77,-0.86,2.22,-0.82,0.46,-0.06
5.646081924438477,2,3,3,3,-9.76,-0.97,2.22,-0.53,0.45,-0.35
5.656081914901733,2,3,3,3,-9.74,-1.1,2.22,-0.33,0.12,-0.68
5.66608190536499,2,3,3,3,-9.67,-1.22,2,-0.29,-0.14,-0.93
5.676082134246826,2,3,3,3,-9.619999999999999,-1.28,2.08,-0.23,-0.12,-1.08
5.686082124710083,2,3,3,3,-9.550000000000001,-1.31,2.17,-0.24,-0.02,-1.16
5.69608211517334,2,3,3,3,-9.470000000000001,-1.35,2.1,-0.45,-0.02,-1.24
5.706082105636597,2,3,3,3,-9.199999999999999,-1.42,1.84,-0.93,-0.16,-1.41
5.716082096099854,2,3,3,3,-9.050000000000001,-1.47,1.67,-1.33,-0.15,-1.64
5.72608208656311,2,3,3,3,-8.869999999999999,-1.52,1.55,-1.47,-0.07000000000000001,-1.96
5.736082077026367,2,3,3,3,-8.65,-1.51,1.48,-1.46,-0.01,-2.34
5.746082067489624,2,3,3,3,-8.16,-1.6,1.57,-1.25,0.09,-2.62
5.756082057952881,2,3,3,3,-7.93,-1.67,1.57,-1,0.09,-2.83
5.766082048416138,2,3,3,3,-7.58,-1.76,1.46,-1.05,-0.03,-2.94
5.776082038879395,2,3,3,3,-7.29,-1.85,1.4,-1.18,-0.15,-3.05
5.786082029342651,2,3,3,3,-6.85,-2.05,1.38,-1.46,-0.3,-3.19
5.796082019805908,2,3,3,3,-6.68,-2.17,1.27,-1.93,-0.45,-3.47
5.806082010269165,2,3,3,3,-6.45,-2.31,0.99,-2.55,-0.5600000000000001,-4.04
5.816082000732422,2,3,3,3,-5.77,-2.1,0.04,-3.18,-0.41,-4.98
5.826081991195679,2,3,3,3,-5.47,-1.81,0.17,-3.31,0.08,-6.12
5.836081981658936,2,3,3,3,-5.35,-1.61,0.59,-2.45,0.34,-6.82
5.846081972122192,2,3,3,3,-5.31,-1.4,1.13,-1.44,-0.59,-6.97
5.856081962585449,2,3,3,3,-4.76,-1.48,1.15,-1.55,-2.6,-6.9
5.866081953048706,2,3,3,3,-4.46,-1.73,0.64,-2.38,-3.98,-6.64
5.876081943511963,2,3,3,3,-4.15,-2.12,0.54,-3.02,-3.82,-6.17
5.88608193397522,2,3,3,3,-4.09,-2.59,0.78,-2.9,-3.21,-5.22
5.896081924438477,2,3,3,3,-4.91,-2.69,1.05,-2.19,-2.26,-4.44
5.906081914901733,2,3,3,3,-5.46,-2.42,1.36,-1.06,-1.48,-3.96
5.91608190536499,2,3,3,3,-6.15,-2.08,1.86,0.26,-1.49,-3.48
5.926082134246826,2,3,3,3,-6.99,-1.76,2.46,1.11,-2.49,-2.7
5.936082124710083,2,3,3,3,-8.619999999999999,-1.52,3.84,1.18,-4.35,-2.01
5.94608211517334,2,3,3,3,-9.26,-1.34,4.41,0.68,-6.13,-1.59
5.956082105636597,2,3,3,3,-9.779999999999999,-1.02,4.56,-0.36,-6.86,-1.45
5.966082096099854,2,3,3,3,-10.33,-0.72,4.56,-1.35,-6.12,-1.63
5.97608208656311,2,3,3,3,-12.06,-0.68,4.74,-1.48,-4.52,-1.6
5.986082077026367,2,3,3,3,-13.03,-0.8100000000000001,4.86,-2.09,-3.22,-1.46
5.996082067489624,2,3,3,3,-13.78,-0.98,5,-2.81,-3.07,-1.31
6.006082057952881,2,3,3,3,-14.59,-0.83,4.71,-2.97,-3.56,-0.99
6.016082048416138,2,3,3,3,-14.57,-1.22,4.69,-2.54,-3.97,-0.5
6.026082038879395,2,3,3,3,-14.71,-1.67,4.91,-1.45,-3.41,0.2
6.036082029342651,2,3,3,3,-15.43,-2.16,5.52,-0.19,-2.65,1.7
6.046082019805908,2,3,3,3,-17.51,-2.43,7.65,0.57,-2.34,3.17
6.056082010269165,2,3,3,3,-19.07,-2.37,8.039999999999999,-0.19,-1.59,4.39
6.066082000732422,2,3,3,3,-20.85,-2.1,7.86,-1.57,0.28,5
6.076081991195679,2,3,3,3,-22.45,-1.42,7.63,-1.6,3.05,4.51
6.086081981658936,2,3,3,3,-24.59,-0.31,5.99,-0.47,5.69,2.83
6.096081972122192,2,3,3,3,-24.65,-0.03,5.34,0.55,6.38,0.58
6.106081962585449,2,3,3,3,-24.39,-0.32,5.85,1.33,4.32,-0.76
6.116081953048706,2,3,3,3,-23.58,-0.42,6.3,1.39,0.9,-0.75
6.126081943511963,2,3,3,3,-21.36,-0.5600000000000001,7.23,1.42,-1.06,0.27
6.13608193397522,2,3,3,3,-20.53,-0.36,7.35,0.74,-1.1,1.82
6.146081924438477,2,3,3,3,-20.5,-0.74,8.15,1.59,1.12,3.81
6.156081914901733,2,3,3,3,-21.34,-1.31,8.69,3.79,3.38,5.14
6.16608190536499,2,3,3,3,-23.41,-1.84,7.4,5.19,5.13,5.46
6.176082134246826,2,3,3,3,-23.89,-1.82,7.16,6.84,6.96,5.15
6.186082124710083,2,3,3,3,-23.46,-1.26,6.67,7.84,8.5,4.58
6.19608211517334,2,3,3,3,-19.75,-1.75,4.78,6.7,9.859999999999999,3.9
6.206082105636597,2,3,3,3,-17.81,-2.83,4.26,5.03,10.35,3.16
6.216082096099854,2,3,3,3,-15.73,-3.66,3.46,4.59,11.92,3.07
6.22608208656311,2,3,3,3,-13.58,-4.48,2.41,3.69,13.58,1.77
6.236082077026367,2,3,3,3,-10.36,-4.73,0.42,3.58,14.75,0.75
6.246082067489624,2,3,3,3,-8.039999999999999,-3.99,-0.51,2.77,13.07,-0.35
6.256082057952881,2,3,3,3,-5.54,-3.62,-0.47,0.59,7.67,-0.66
6.266082048416138,2,3,3,3,-2.73,-2.86,-0.16,-2.17,-1.58,-1.97
6.276082038879395,2,3,3,3,3.71,-5.89,1.05,-9.779999999999999,-10.36,-4.33
6.286082029342651,2,3,3,3,6.31,-9.359999999999999,-2.57,-20.68,-14.96,-8.58
6.296082019805908,2,3,3,3,5.97,-11.35,-5.57,-26.81,-10.09,-11.52
6.306082010269165,2,3,3,3,4.19,-10.68,-7.69,-23.64,0.43,-11.18
6.316082000732422,2,3,3,3,3.76,-8.630000000000001,-5.2,-14.09,7.1,-9.210000000000001
6.326081991195679,2,3,3,3,4.76,-7,-2.5,-1.1,5.04,-8.58
6.336081981658936,2,3,3,3,4.5,-5.17,-0.82,6.21,1.33,-5.41
6.346081972122192,2,3,3,3,3.33,-3.22,0.43,8.83,-0.6899999999999999,0.68
6.356081962585449,2,3,3,3,1.96,0.7,1.42,9.699999999999999,-4.38,5.8
6.366081953048706,2,3,3,3,2.04,1.82,0.83,9.029999999999999,-7.81,9.039999999999999
6.376081943511963,2,3,3,3,2.32,2.37,-0.12,8.32,-7.3,10.75
6.38608193397522,2,3,3,3,1.83,2.59,-1.05,9.07,-3.13,10.8
6.396081924438477,2,3,3,3,0.97,2.73,-0.59,10.81,0.77,9.81
6.406081914901733,2,3,3,3,-0.18,2.6,0.04,12.15,1.81,9
6.41608190536499,2,3,3,3,-1.36,2.48,0.51,12.27,0.87,8.77
6.426082134246826,2,3,3,3,-2.69,2.8,1.49,10.75,-0.68,8.69
6.436082124710083,2,3,3,3,-2.7,2.91,1.88,7.76,-2.46,8.34
6.44608211517334,2,3,3,3,-2.46,2.68,1.95,3.49,-3.34,7.6
6.456082105636597,2,3,3,3,-2.15,2.3,1.62,-1.16,-3.06,6.48
6.466082096099854,2,3,3,3,-1.18,1.79,-0.16,-5.34,-2.15,5.2
6.47608208656311,2,3,3,3,-0.8,1.59,-0.98,-8.470000000000001,-0.22,3.57
6.486082077026367,2,3,3,3,-0.91,1.27,-1.32,-10.01,2.74,1.51
6.496082067489624,2,3,3,3,-1.41,0.92,-1.22,-9.65,4.61,-0.6899999999999999
6.507081985473633,2,3,3,3,-1.59,-0.03,-0.8,-8.289999999999999,4,-2.76
6.516082048416138,2,3,3,3,-1.16,-0.68,-0.51,-6.43,2.77,-4.42
6.526082038879395,2,3,3,3,-0.79,-1.17,0.06,-4.53,1.82,-5.74
6.537081956863403,2,3,3,3,-0.65,-1.72,0.57,-2.78,0.43,-6.38
6.546082019805908,2,3,3,3,-0.33,-2.33,0.52,-1.93,-1.68,-6.76
6.556082010269165,2,3,3,3,0.3,-2.4,0.07000000000000001,-2.01,-3.53,-6.77
6.567081928253174,2,3,3,3,0.97,-2.35,-0.55,-1.34,-3.22,-6.53
6.577081918716431,2,3,3,3,1.01,-1.56,-0.33,0.98,-1.84,-6.15
6.587081909179688,2,3,3,3,0.9399999999999999,-1.15,0.16,3.73,-1.57,-5.52
6.597081899642944,2,3,3,3,0.96,-0.98,0.66,5.45,-2.11,-4.53
6.60708212852478,2,3,3,3,0.76,-0.84,1.54,6.94,-3.05,-3.02
6.617082118988037,2,3,3,3,0.67,-0.83,0.45,6.75,-5.18,-0.86
6.627082109451294,2,3,3,3,-0.17,-1.44,-0.27,3.8,-7.45,2.57
6.637082099914551,2,3,3,3,-0.71,-2.04,1.66,4.65,-8.44,6.12
6.647082090377808,2,3,3,3,-0.72,-2.41,3.69,8.869999999999999,-7.91,9.35
6.657082080841064,2,3,3,3,-2.51,-7.2,3.9,8.69,-6.67,12.82
6.667082071304321,2,3,3,3,-5.75,-9.09,3.49,7.32,-5.08,16.67
6.677082061767578,2,3,3,3,-10.36,-8.07,6.24,9.31,0.36,21.85
6.687082052230835,2,3,3,3,-19.09,-7.63,9.92,7.21,10.62,28.48
6.697082042694092,2,3,3,3,-39.11,-4.03,-5.47,17.53,3.49,34.95
6.707082033157349,2,3,3,3,-39.05,0.02,-12.62,24.46,52.36,2.54
6.717082023620605,2,3,3,3,-38.35,17.69,1.8,28.53,-4.87,-26.46
6.727082014083862,2,3,3,3,-25.5,17.5,5.53,0.76,-37.08,-20.22
6.737082004547119,2,3,3,3,-11.8,4.17,13.19,-11.5,-12.14,-5
6.747081995010376,2,3,3,3,-6.81,0.73,13.65,-8.73,-18.18,9.130000000000001
6.757081985473633,2,3,3,3,-4.5,-3,11.27,-8.640000000000001,-17.83,15.94
6.76708197593689,2,3,3,3,-11.98,0.06,8.140000000000001,-5.97,-3.99,13.74
6.777081966400146,2,3,3,3,-17.84,3.23,7.19,-7.41,7.79,10.9
6.787081956863403,2,3,3,3,-23.6,4.91,6.15,-9.94,12.68,7.15
6.79708194732666,2,3,3,3,-26.57,3.95,2.05,-7.52,15.86,1.51
6.807081937789917,2,3,3,3,-24.19,1.21,-2.23,2.3,16.1,-3.79
6.817081928253174,2,3,3,3,-19.84,0.3,1.18,7.8,1.77,-9.56
6.827081918716431,2,3,3,3,-14.77,0.06,4.64,5.67,-13.7,-12.68
6.837081909179688,2,3,3,3,-11.23,-0.17,6.48,2.74,-13.55,-12.09
6.847081899642944,2,3,3,3,-10.37,1.04,6.1,1,-3.41,-9.050000000000001
6.85708212852478,2,3,3,3,-11.3,1.85,5.77,-0.55,4.41,-6.23
6.867082118988037,2,3,3,3,-12.42,1.92,5.64,-2.72,5.99,-4.6
6.877082109451294,2,3,3,3,-13.17,1.55,5.17,-5.01,3.43,-3.27
6.887082099914551,2,3,3,3,-11.93,0.32,2.88,-6.83,0.88,-1.84
6.897082090377808,2,3,3,3,-10.33,-0.22,2.26,-8.01,-0.37,-0.61
6.907082080841064,2,3,3,3,-8.82,-0.74,2.01,-8.529999999999999,-0.23,0.3
6.917082071304321,2,3,3,3,-7.67,-1.09,2.02,-8.48,0.83,0.59
6.927082061767578,2,3,3,3,-6.47,-1.86,2.26,-8.35,1.53,0.71
6.937082052230835,2,3,3,3,-6.14,-2.05,1.93,-8.15,1.72,0.34
6.947082042694092,2,3,3,3,-5.73,-2.15,1.4,-7.77,2.33,-0.49
6.957082033157349,2,3,3,3,-5.49,-2.12,0.57,-7.03,2.69,-1.55
6.967082023620605,2,3,3,3,-5.54,-2.17,0.33,-6.15,2.54,-2.3
6.977082014083862,2,3,3,3,-5.63,-2.43,0.33,-5.25,1.88,-2.74
6.987082004547119,2,3,3,3,-5.65,-2.58,0.49,-3.81,1.45,-2.75
6.997081995010376,2,3,3,3,-5.71,-2.84,0.8,-2.3,1.48,-2.43
7.007081985473633,2,3,3,3,-5.78,-2.64,0.84,-0.8100000000000001,1.99,-1.64
7.01708197593689,2,3,3,3,-5.86,-2.44,0.82,0.35,2.67,-0.43
7.027081966400146,2,3,3,3,-6.14,-2.4,1.03,1.45,2.89,0.6
7.037081956863403,2,3,3,3,-7.43,-1.93,1.7,2.48,1.93,1.27
7.04708194732666,2,3,3,3,-8.1,-1.56,2.07,3.04,0.12,1.54
7.057081937789917,2,3,3,3,-8.58,-1.13,2.24,2.98,-1.48,1.48
7.067081928253174,2,3,3,3,-8.85,-0.8100000000000001,2.12,2.32,-2.1,1.16
7.077081918716431,2,3,3,3,-8.789999999999999,-0.84,2.15,1.38,-1.79,0.86
7.087081909179688,2,3,3,3,-8.75,-0.9399999999999999,2.3,0.65,-1.3,0.54
7.097081899642944,2,3,3,3,-8.800000000000001,-1,2.44,0.28,-1.18,0.23
7.10708212852478,2,3,3,3,-8.869999999999999,-1.01,2.4,0.12,-0.85,0
7.117082118988037,2,3,3,3,-9.279999999999999,-0.8,1.82,0.58,-0.21,-0.16
7.127082109451294,2,3,3,3,-9.539999999999999,-0.53,1.93,1.44,0.05,-0.11
7.137082099914551,2,3,3,3,-9.81,-0.43,2.27,2.15,-0.41,-0.01
7.147082090377808,2,3,3,3,-9.83,-0.62,2.76,2.33,-1.37,-0.07000000000000001
7.157082080841064,2,3,3,3,-9.630000000000001,-0.59,2.85,2.14,-1.84,-0.27
7.167082071304321,2,3,3,3,-9.539999999999999,-0.59,2.89,1.84,-1.23,-0.4
7.177082061767578,2,3,3,3,-9.57,-0.51,2.91,1.48,-0.41,-0.37
7.187082052230835,2,3,3,3,-9.460000000000001,-0.3,2.56,0.99,0.03,-0.4
7.197082042694092,2,3,3,3,-9.42,-0.25,2.57,0.48,0.31,-0.4
7.207082033157349,2,3,3,3,-9.390000000000001,-0.3,2.73,0.35,0.31,-0.33
7.217082023620605,2,3,3,3,-9.369999999999999,-0.44,2.79,0.14,0.31,-0.08
7.227082014083862,2,3,3,3,-9.51,-0.72,2.49,-0.18,0.67,0.17
7.237082004547119,2,3,3,3,-9.710000000000001,-0.72,2.37,-0.39,1.02,0.28
7.247081995010376,2,3,3,3,-9.93,-0.62,2.41,-0.23,1.08,0.33
7.257081985473633,2,3,3,3,-10.07,-0.43,2.38,-0.17,0.88,0.15
7.26708197593689,2,3,3,3,-10.01,-0.3,2.18,-0.3,0.71,-0.21
7.277081966400146,2,3,3,3,-9.85,-0.35,2.27,-0.44,0.6,-0.6
7.287081956863403,2,3,3,3,-9.619999999999999,-0.42,2.32,-0.86,0.48,-0.98
7.29708194732666,2,3,3,3,-9.4,-0.49,2.33,-1.31,0.51,-1.26
7.307081937789917,2,3,3,3,-9.210000000000001,-0.73,2.32,-1.5,0.5600000000000001,-1.33
7.317081928253174,2,3,3,3,-9.16,-0.98,2.22,-1.64,0.42,-1.25
7.327081918716431,2,3,3,3,-9.109999999999999,-1.18,2.22,-1.47,0.26,-1.07
7.337081909179688,2,3,3,3,-8.890000000000001,-1.44,2.19,-1.18,-0.03,-0.95
7.347081899642944,2,3,3,3,-8.75,-1.5,2.18,-0.75,-0.2,-0.84
7.35708212852478,2,3,3,3,-8.6,-1.53,2.11,-0.29,-0.11,-0.75
7.367082118988037,2,3,3,3,-8.5,-1.53,2.02,0.19,0.24,-0.67
7.377082109451294,2,3,3,3,-8.6,-1.34,2.36,0.76,0.58,-0.64
7.387082099914551,2,3,3,3,-8.640000000000001,-1.22,2.54,1.19,0.72,-0.65
7.397082090377808,2,3,3,3,-8.699999999999999,-1.12,2.62,1.39,0.76,-0.61
7.407082080841064,2,3,3,3,-8.76,-1.04,2.66,1.43,0.92,-0.59
7.417082071304321,2,3,3,3,-8.869999999999999,-1.01,2.42,1.28,1.14,-0.67
7.427082061767578,2,3,3,3,-8.99,-1.04,2.39,1.03,1.5,-0.76
7.437082052230835,2,3,3,3,-9.16,-1.04,2.37,0.85,1.8,-0.93
7.447082042694092,2,3,3,3,-9.32,-1.06,2.35,0.65,1.96,-1.06
7.457082033157349,2,3,3,3,-9.66,-1.05,2.22,0.58,1.86,-1.16
7.467082023620605,2,3,3,3,-9.800000000000001,-1.08,2.14,0.57,1.55,-1.24
7.477082014083862,2,3,3,3,-9.859999999999999,-1.07,2.22,0.75,1.1,-1.24
7.487082004547119,2,3,3,3,-9.859999999999999,-1.11,2.22,0.87,0.66,-1.21
7.497081995010376,2,3,3,3,-9.609999999999999,-1,2.22,0.87,0.37,-1.2
7.507081985473633,2,3,3,3,-9.49,-0.93,2.28,0.84,0.33,-1.19
7.51708197593689,2,3,3,3,-9.43,-0.85,2.26,0.68,0.3,-1.18
7.527081966400146,2,3,3,3,-9.220000000000001,-0.6899999999999999,2.34,0.33,0.2,-1.16
7.537081956863403,2,3,3,3,-9.15,-0.62,2.45,0.1,0.18,-1.05
7.54708194732666,2,3,3,3,-9.1,-0.6,2.49,-0.03,0.19,-0.85
7.557081937789917,2,3,3,3,-9.029999999999999,-0.59,2.56,-0.28,0.08,-0.55
7.567081928253174,2,3,3,3,-9.119999999999999,-0.75,2.63,-0.55,-0.13,-0.21
7.577081918716431,2,3,3,3,-9.27,-0.92,2.65,-0.73,-0.21,0.05
7.587081909179688,2,3,3,3,-9.51,-0.97,2.55,-0.68,-0.05,0.19
7.598082065582275,2,3,3,3,-9.73,-0.99,2.35,-0.59,0.11,0.17
7.608082056045532,2,3,3,3,-9.720000000000001,-0.91,2.2,-0.41,0.14,-0.03
7.618082046508789,2,3,3,3,-9.619999999999999,-0.87,2.26,-0.12,0.21,-0.34
7.628082036972046,2,3,3,3,-9.49,-0.8,2.34,0.16,0.17,-0.5600000000000001
7.638082027435303,2,3,3,3,-9.43,-0.76,2.45,0.47,0.25,-0.71
7.64808201789856,2,3,3,3,-9.44,-0.9,2.79,0.75,0.22,-0.7
7.658082008361816,2,3,3,3,-9.33,-0.93,2.69,0.49,-0.12,-0.7
7.668081998825073,2,3,3,3,-9.210000000000001,-0.95,2.35,-0.17,-0.19,-0.82
7.67808198928833,2,3,3,3,-9.1,-0.93,2.08,-0.66,0.2,-0.95
7.688081979751587,2,3,3,3,-9.210000000000001,-1,2,-0.88,0.67,-1.18
7.698081970214844,2,3,3,3,-9.19,-1.13,1.97,-1.06,0.6899999999999999,-1.42
7.708081960678101,2,3,3,3,-9.08,-1.26,1.87,-1.42,0.26,-1.75
7.718081951141357,2,3,3,3,-8.609999999999999,-1.76,1.29,-1.82,-0.41,-2.16
7.728081941604614,2,3,3,3,-8.09,-1.96,1,-2.35,-1.06,-2.7
7.738081932067871,2,3,3,3,-7.46,-2.15,0.57,-2.87,-1.37,-3.39
7.748081922531128,2,3,3,3,-6.81,-2.23,0.31,-3.11,-1.2,-4.14
7.758081912994385,2,3,3,3,-5.71,-2.24,0.87,-2.72,-1.07,-4.85
7.768081903457642,2,3,3,3,-5.19,-2.29,0.86,-2.7,-1.39,-5.37
7.778082132339478,2,3,3,3,-4.66,-2.39,0.6899999999999999,-3.4,-1.81,-5.7
7.788082122802734,2,3,3,3,-4.21,-2.42,0.48,-3.83,-2.06,-5.8
7.798082113265991,2,3,3,3,-3.44,-2.3,0.24,-3.62,-2.14,-5.7
7.808082103729248,2,3,3,3,-3.13,-2.08,0.45,-2.82,-2.2,-5.27
7.818082094192505,2,3,3,3,-3.03,-2.04,0.96,-1.8,-2.03,-4.15
7.828082084655762,2,3,3,3,-3.11,-2.06,1.4,-1.06,-1.83,-2.56
7.838082075119019,2,3,3,3,-3.92,-2.03,1.36,-0.84,-1.69,-0.76
7.848082065582275,2,3,3,3,-4.81,-1.65,1.48,-0.29,-1.61,0.71
7.858082056045532,2,3,3,3,-6.05,-1.53,2.29,0.04,-2.47,2.04
7.868082046508789,2,3,3,3,-7.34,-1.56,3.35,0.6,-4.63,3.02
7.878082036972046,2,3,3,3,-9.16,-1.56,3.42,0.55,-6.12,3.61
7.888082027435303,2,3,3,3,-10.32,-1.39,3.1,0.34,-5.15,3.32
7.89808201789856,2,3,3,3,-11.54,-1.14,3.04,-0.53,-3.39,1.67
7.908082008361816,2,3,3,3,-11.58,-1.58,1,-3.08,-2.08,-0.8
7.918081998825073,2,3,3,3,-11.25,-1.56,0.73,-3.89,-0.42,-3.12
7.92808198928833,2,3,3,3,-11.48,-1.09,1.72,-2.53,-0.45,-4.8
7.938081979751587,2,3,3,3,-11.99,-1.11,3.13,-1.93,-4.15,-5.6
7.948081970214844,2,3,3,3,-11.89,-2.33,6.82,-2.41,-9.029999999999999,-4.97
7.958081960678101,2,3,3,3,-11.45,-2.66,7.36,-3.42,-10.97,-2.73
7.968081951141357,2,3,3,3,-11.73,-2.99,6.49,-3.1,-7.82,0.11
7.978081941604614,2,3,3,3,-12.72,-3.17,5.62,-1,-2.18,2.24
7.988081932067871,2,3,3,3,-15.76,-3.02,7.05,1.1,1.88,3.08
7.998081922531128,2,3,3,3,-17.8,-2.82,7.36,1.4,2.59,2.62
8.008081912994385,2,3,3,3,-19.85,-2.5,6.56,0.67,0.86,1.07
8.018081903457642,2,3,3,3,-22,-1.45,5.8,0.75,0.92,-0.38
8.028082132339478,2,3,3,3,-25.42,0.4,5.97,1.49,2.89,-0.86
8.038082122802734,2,3,3,3,-25.7,0.48,6.28,2.18,3.01,-1.55
8.048082113265991,2,3,3,3,-25.7,0.48,6.28,2.36,2.01,-2.1
8.058082103729248,2,3,3,3,-24.98,0.03,6.59,1.77,1.95,-1.91
8.068082094192505,2,3,3,3,-23.13,-1.41,6.74,0.78,2.99,-0.78
8.078082084655762,2,3,3,3,-22.78,-1.48,6.9,0.12,4.48,0.91
8.088082075119019,2,3,3,3,-22.82,-1.29,7.08,0.77,6.01,2.31
8.098082065582275,2,3,3,3,-22.82,-1.29,7.08,1.8,7.09,3.1
8.108082056045532,2,3,3,3,-23.21,-0.28,8.220000000000001,2.46,7.05,3.69
8.118082046508789,2,3,3,3,-22.34,-0.5,8.16,3.44,6.99,4.28
8.128082036972046,2,3,3,3,-21.38,-0.9399999999999999,7.26,3.68,6.97,4.33
8.138082027435303,2,3,3,3,-19.33,-2.41,5.36,3.09,7.48,4.15
8.14808201789856,2,3,3,3,-19.33,-2.41,5.36,2.13,8.99,3.74
8.158082008361816,2,3,3,3,-18.26,-3.13,4.36,1.29,10.45,3.12
8.168081998825073,2,3,3,3,-15.14,-3.72,2.5,0.73,10.51,1.92
8.17808198928833,2,3,3,3,-10.91,-6.02,0.86,0.9399999999999999,8.630000000000001,-0.03
8.188081979751587,2,3,3,3,-8.07,-4.5,-0.3,2.84,6.94,-1.22
8.198081970214844,2,3,3,3,-8.07,-4.5,-0.3,1.17,7.07,-2.32
8.208081960678101,2,3,3,3,-5.65,-3.51,-1.28,-3.58,6.51,-2.45
8.218081951141357,2,3,3,3,0.99,-6.42,-1.21,-13.9,0.93,-3.37
8.228081941604614,2,3,3,3,3.25,-9.279999999999999,-5.89,-27.26,-8.35,-7.73
8.238081932067871,2,3,3,3,4.41,-11.33,-10.64,-32.97,-9.140000000000001,-11.08
8.248081922531128,2,3,3,3,4.41,-11.33,-10.64,-20.34,2.38,-12.02
8.258081912994385,2,3,3,3,3.69,-11.23,-11.31,0.39,7.49,-11.37
8.268081903457642,2,3,3,3,6.15,-7.48,0.43,17.1,3.71,-9.039999999999999
8.278082132339478,2,3,3,3,5.81,-4.41,2.29,21.24,-2.92,-2.76
8.288082122802734,2,3,3,3,4.64,0.22,1.06,17.95,-8.1,4.56
8.298082113265991,2,3,3,3,4.64,0.22,1.06,17.95,-8.1,4.56
8.308082103729248,2,3,3,3,4.89,1.96,0.31,16.38,-0.34,10.47
8.318082094192505,2,3,3,3,3.36,4.8,1.6,17.04,2.56,10.74
8.328082084655762,2,3,3,3,0.67,4.41,1.7,13.48,0.59,10.52
8.338082075119019,2,3,3,3,-0.17,3.67,0.91,7.48,-1.75,9.31
8.348082065582275,2,3,3,3,-0.17,3.67,0.91,7.48,-1.75,9.31
8.358082056045532,2,3,3,3,-1.4,3.04,0.37,2.06,-2.75,7.11
8.368082046508789,2,3,3,3,-3.83,1.05,-0.34,-5.58,-4.41,4.86
8.378082036972046,2,3,3,3,-3.85,0.86,-0.65,-6.5,-2.4,4.15
8.388082027435303,2,3,3,3,-3.9,0.8100000000000001,-0.79,-5.66,0.77,3.45
8.39808201789856,2,3,3,3,-3.9,0.8100000000000001,-0.79,-5.66,0.77,3.45
8.408082008361816,2,3,3,3,-3.85,0.64,-0.79,-4.38,2.25,2.46
8.418081998825073,2,3,3,3,-2.74,-0.35,-0.02,-3.79,0.66,-0.59
8.42808198928833,2,3,3,3,-2.25,-0.71,0.09,-3.8,-1.35,-1.89
8.438081979751587,2,3,3,3,-1.66,-0.98,0.01,-3.54,-2.78,-2.97
8.448081970214844,2,3,3,3,-1.66,-0.98,0.01,-3.54,-2.78,-2.97
8.458081960678101,2,3,3,3,-0.37,-1.22,-0.22,-2.74,-3.14,-3.97
8.468081951141357,2,3,3,3,0.88,-1.07,-0.11,0.59,-2.11,-6.35
8.478081941604614,2,3,3,3,2.01,-1.13,0.17,1.49,-2.09,-7.3
8.488081932067871,2,3,3,3,2.32,-0.92,0.11,1.45,-2,-7.6
8.498081922531128,2,3,3,3,2.32,-0.92,0.11,1.45,-2,-7.6
8.508081912994385,2,3,3,3,2.24,-0.63,0.18,1.28,-1.41,-7.13
8.518081903457642,2,3,3,3,1.26,0.84,-0.08,2.42,-0.72,-4.44
8.528082132339478,2,3,3,3,1.16,1.42,-0.12,3.56,-0.8100000000000001,-2.64
8.538082122802734,2,3,3,3,0.96,2.01,-0.04,4.65,-0.48,-0.93
8.548082113265991,2,3,3,3,0.96,2.01,-0.04,4.65,-0.48,-0.93
8.558082103729248,2,3,3,3,0.55,2.41,0.79,5.03,-0.34,0.51
8.568082094192505,2,3,3,3,-0.88,-0.48,2,1,-5.38,4.98
8.578082084655762,2,3,3,3,-1.07,-2.08,2.6,-2.19,-8,7.32
8.588082075119019,2,3,3,3,-0.3,-3.94,3.93,-3.05,-7.1,9.619999999999999
8.598082065582275,2,3,3,3,-0.3,-3.94,3.93,-3.05,-7.1,9.619999999999999
8.608082056045532,2,3,3,3,-1.44,-9.92,2.17,-5.57,1.78,18.35
8.619081974029541,2,3,3,3,-3.9,-13.08,1.95,-0.5,17.04,23.85
8.629081964492798,2,3,3,3,-10.06,-11.02,4.18,3.63,25.19,30.94
8.639081954956055,2,3,3,3,-39.11,-15.54,14.64,24.86,-10.2,30.01
8.649081945419312,2,3,3,3,-39.01,-13.82,-11.98,24.86,-10.2,30.01
8.659081935882568,2,3,3,3,-38.89,8.09,-12.93,33.18,33.97,-13.52
8.669081926345825,2,3,3,3,-27.21,25.99,3.82,5.98,-12.92,-8.4
8.679081916809082,2,3,3,3,-20.31,6.92,17.1,-5.31,0.12,6.48
8.689081907272339,2,3,3,3,-16.79,1.9,11.25,-7.97,-19.61,14.03
8.699082136154175,2,3,3,3,-12.63,-1.28,8.26,-7.97,-19.61,14.03
8.709082126617432,2,3,3,3,-12.34,-2.2,8.44,-3.61,-18.23,14.08
8.719082117080688,2,3,3,3,-17.96,4.72,7.6,-6.97,14.16,5.77
8.729082107543945,2,3,3,3,-21.83,5.2,4.28,-5.46,19.25,0.96
8.739082098007202,2,3,3,3,-26.3,3.85,1.32,1.43,12.56,-3.42
8.749082088470459,2,3,3,3,-28.55,2.52,0.51,1.43,12.56,-3.42
8.759082078933716,2,3,3,3,-21.71,-0.83,3.33,3.06,-3.37,-7.94
8.769082069396973,2,3,3,3,-16.15,-1.39,4.51,-1.9,-9.699999999999999,-9.74
8.779082059860229,2,3,3,3,-12.27,-1.31,5.09,-3.09,-2.9,-8.02
8.789082050323486,2,3,3,3,-10.57,-1,5.07,-4.15,1.96,-6.93
8.799082040786743,2,3,3,3,-10.18,-1.02,3.74,-4.15,1.96,-6.93
8.80908203125,2,3,3,3,-10.9,-1.02,3.24,-4.52,3.91,-6.17
8.819082021713257,2,3,3,3,-11.7,-1.44,2.78,-4,2.75,-4.31
8.829082012176514,2,3,3,3,-12.03,-2.04,2.1,-3.62,0.8,-3.02
8.839082002639771,2,3,3,3,-10.44,-2.97,0.83,-3.17,-0.65,-1.9
8.849081993103027,2,3,3,3,-9.029999999999999,-3.04,0.48,-3.17,-0.65,-1.9
8.859081983566284,2,3,3,3,-7.52,-2.65,0.25,-2.57,-0.65,-1.12
8.869081974029541,2,3,3,3,-5.25,-1.76,0.58,-0.95,1.21,-1
8.879081964492798,2,3,3,3,-4.46,-1.7,0.91,-0.35,1.14,-1.75
8.889081954956055,2,3,3,3,-3.89,-1.67,1.26,-0.31,0.77,-2.18
8.899081945419312,2,3,3,3,-3.32,-1.64,1.3,-0.31,0.77,-2.18
8.909081935882568,2,3,3,3,-2.4,-1.28,1.14,-0.4,0.57,-2.6
8.919081926345825,2,3,3,3,-2.19,-1.13,1.32,-0.48,0.01,-3.95
8.929081916809082,2,3,3,3,-2.23,-1.13,1.43,-0.79,-0.09,-4.71
8.939081907272339,2,3,3,3,-2.2,-1.27,1.45,-0.85,1.01,-4.99
8.949082136154175,2,3,3,3,-1.89,-1.79,1.27,-0.85,1.01,-4.99
8.959082126617432,2,3,3,3,-1.96,-1.94,1.14,-0.5600000000000001,2.98,-4.6
8.969082117080688,2,3,3,3,-2.26,-2.12,1.09,0.47,5.81,-2.61
8.979082107543945,2,3,3,3,-2.78,-2.27,1,1.65,5.55,-1.28
8.989082098007202,2,3,3,3,-4.49,-2.54,1.13,2.75,4.14,-0.07000000000000001
8.999082088470459,2,3,3,3,-5.64,-2.64,1.35,2.75,4.14,-0.07000000000000001
9.009082078933716,2,3,3,3,-6.9,-2.77,1.6,3.5,1.43,1.23
9.019082069396973,2,3,3,3,-8.27,-2.91,2.05,4.08,-4.86,4.36
9.029082059860229,2,3,3,3,-11.52,-3.41,3.03,3.29,-6.58,5.84
9.039082050323486,2,3,3,3,-13.48,-3.65,3.02,2.77,-6.3,6.63
9.049082040786743,2,3,3,3,-15.91,-3.78,2.7,2.77,-6.3,6.63
9.05908203125,2,3,3,3,-17.49,-3.09,-0.14,4.26,-4.55,6.48
9.069082021713257,2,3,3,3,-15.53,-1.7,-1.05,9.550000000000001,3.05,-1.27
9.079082012176514,2,3,3,3,-13.34,0.54,-0.24,10.23,-0.91,-5.49
9.089082002639771,2,3,3,3,-11.89,2.43,1.71,7.77,-6.07,-6.42
9.099081993103027,2,3,3,3,-9.119999999999999,2.29,4.64,7.77,-6.07,-6.42
9.109081983566284,2,3,3,3,-7.57,1.64,5.11,3.6,-6.14,-4.67
9.119081974029541,2,3,3,3,-6.75,0.98,4.91,-2.83,1.84,0.15
9.129081964492798,2,3,3,3,-6.99,0.43,4.44,-4.55,3.04,1.52
9.139081954956055,2,3,3,3,-8.17,0.25,3.52,-5.74,1.97,1.9
9.149081945419312,2,3,3,3,-8.34,0.35,2.95,-5.74,1.97,1.9
9.159081935882568,2,3,3,3,-8.15,0.4,2.58,-5.96,1.39,1.72
9.169081926345825,2,3,3,3,-8.01,0.37,2.36,-5.39,0.35,0.53
9.179081916809082,2,3,3,3,-7.72,-0.2,1.77,-4.81,-0.06,0.15
9.189081907272339,2,3,3,3,-7.8,-0.68,1.52,-3.84,-0.19,0.08
9.199082136154175,2,3,3,3,-8.08,-1.18,1.49,-3.84,-0.19,0.08
9.209082126617432,2,3,3,3,-8.380000000000001,-1.55,1.49,-2.65,-0.58,0.19
9.219082117080688,2,3,3,3,-8.789999999999999,-2.01,1.54,-1.24,-2.09,0.73
9.229082107543945,2,3,3,3,-8.9,-2.19,1.62,-1.12,-2.12,0.96
9.239082098007202,2,3,3,3,-9.050000000000001,-2.33,1.9,-1.47,-1.27,1.19
9.249082088470459,2,3,3,3,-9.9,-2.41,2.13,-1.47,-1.27,1.19
9.259082078933716,2,3,3,3,-10.71,-2.3,2.3,-1.82,-0.08,1.23
9.269082069396973,2,3,3,3,-11.45,-2.08,2.2,-1.03,1.02,0.64
9.279082059860229,2,3,3,3,-11.89,-1.83,2,0.13,0.51,0.09
9.289082050323486,2,3,3,3,-11.47,-1.36,2.33,0.74,-0.61,-0.45
9.299082040786743,2,3,3,3,-10.73,-1.26,2.28,0.74,-0.61,-0.45
9.30908203125,2,3,3,3,-9.99,-1.29,2.39,0.64,-1.14,-0.79
9.319082021713257,2,3,3,3,-9.43,-1.31,2.48,-0.18,-0.68,-0.16
9.329082012176514,2,3,3,3,-8.710000000000001,-1.1,2.24,-0.74,-0.35,0.53
9.339082002639771,2,3,3,3,-8.57,-0.92,2.31,-1.2,-0.42,1.33
9.349081993103027,2,3,3,3,-8.529999999999999,-0.76,2.34,-1.2,-0.42,1.33
9.359081983566284,2,3,3,3,-8.449999999999999,-0.7,2.32,-1.79,-0.97,2.04
9.369081974029541,2,3,3,3,-8.41,-1.02,2.18,-2.09,-1.78,2.9
9.379081964492798,2,3,3,3,-8.630000000000001,-1.22,2.24,-1.73,-2.01,3
9.389081954956055,2,3,3,3,-8.91,-1.31,2.3,-1.7,-1.96,2.86
9.399081945419312,2,3,3,3,-9.17,-1.44,2.17,-1.7,-1.96,2.86
9.409081935882568,2,3,3,3,-9.619999999999999,-1.7,2.08,-1.21,-1.57,2.56
9.419081926345825,2,3,3,3,-9.75,-1.73,2.06,0.98,-0.41,1.55
9.429081916809082,2,3,3,3,-9.82,-1.66,1.93,2.22,0.2,0.98
9.439081907272339,2,3,3,3,-9.92,-1.42,2.19,3.41,0.36,0.48
9.449082136154175,2,3,3,3,-9.85,-1.11,2.25,3.41,0.36,0.48
9.459082126617432,2,3,3,3,-9.73,-0.8,2.27,4.01,0.29,0.12
9.469082117080688,2,3,3,3,-9.57,-0.5600000000000001,2.37,3.72,0.32,-0.18
9.479082107543945,2,3,3,3,-9.449999999999999,-0.39,2.49,2.99,0.27,-0.13
9.489082098007202,2,3,3,3,-9.49,-0.34,2.59,2.11,0.17,0.05
9.499082088470459,2,3,3,3,-9.550000000000001,-0.39,2.7,2.11,0.17,0.05
9.509082078933716,2,3,3,3,-9.59,-0.39,2.64,1.13,-0.04,0.28
9.519082069396973,2,3,3,3,-9.67,-0.68,2.52,-0.47,-0.54,0.49
9.529082059860229,2,3,3,3,-9.59,-0.92,2.27,-0.84,-0.36,0.44
9.539082050323486,2,3,3,3,-9.58,-1.16,2.15,-0.78,-0.05,0.36
9.549082040786743,2,3,3,3,-9.550000000000001,-1.32,2.05,-0.78,-0.05,0.36
9.55908203125,2,3,3,3,-9.5,-1.44,2.15,-0.34,0.1,0.24
9.569082021713257,2,3,3,3,-9.449999999999999,-1.46,2.19,0.63,-0.18,0.04
9.579082012176514,2,3,3,3,-9.4,-1.39,2.11,1.01,-0.41,0.01
9.589082002639771,2,3,3,3,-9.279999999999999,-1.28,2.28,1.38,-0.55,0
9.599081993103027,2,3,3,3,-9.26,-1.21,2.38,1.38,-0.55,0
9.609081983566284,2,3,3,3,-9.220000000000001,-1.13,2.45,1.45,-0.5600000000000001,0.05
9.619081974029541,2,3,3,3,-9.25,-1.1,2.51,1.52,-0.38,0.29
9.629081964492798,2,3,3,3,-9.33,-1.03,2.59,1.21,-0.55,0.46
9.639081954956055,2,3,3,3,-9.31,-0.9399999999999999,2.49,0.64,-0.46,0.55
9.650082111358643,2,3,3,3,-9.35,-0.9,2.44,0.64,-0.46,0.55
9.660082101821899,2,3,3,3,-9.449999999999999,-0.85,2.55,0.58,-0.22,0.64
9.670082092285156,2,3,3,3,-9.48,-0.78,2.48,0.61,-0.12,0.7
9.680082082748413,2,3,3,3,-9.51,-0.77,2.43,0.51,0.06,0.7
9.69008207321167,2,3,3,3,-9.550000000000001,-0.75,2.57,0.64,0.04,0.61
9.700082063674927,2,3,3,3,-9.550000000000001,-0.8,2.6,0.52,-0.07000000000000001,0.51
9.710082054138184,2,3,3,3,-9.609999999999999,-0.95,2.46,0.28,-0.05,0.33
9.72008204460144,2,3,3,3,-9.68,-0.9399999999999999,2.45,0.37,0.09,0.16
9.730082035064697,2,3,3,3,-9.68,-0.93,2.41,0.68,-0.1,0.02
9.740082025527954,2,3,3,3,-9.550000000000001,-0.93,2.44,0.67,-0.3,-0.14
9.750082015991211,2,3,3,3,-9.300000000000001,-1.02,2.42,0.4,-0.22,-0.26
9.760082006454468,2,3,3,3,-9.300000000000001,-1.09,2.45,0.29,0.02,-0.31
9.770081996917725,2,3,3,3,-9.33,-1.1,2.46,0.29,0.17,-0.35
9.780081987380981,2,3,3,3,-9.43,-1.09,2.41,0.3,0.19,-0.31
9.790081977844238,2,3,3,3,-9.5,-1.07,2.45,0.37,0.03,-0.27
9.800081968307495,2,3,3,3,-9.41,-1.02,2.41,0.29,-0.16,-0.21
9.810081958770752,2,3,3,3,-9.35,-1,2.48,0.11,-0.27,-0.16
9.820081949234009,2,3,3,3,-9.449999999999999,-1.01,2.49,-0.03,-0.23,-0.07000000000000001
9.830081939697266,2,3,3,3,-9.51,-0.9399999999999999,2.44,-0.03,-0.26,-0.02
9.840081930160522,2,3,3,3,-9.51,-0.95,2.4,0.02,-0.35,0.03
9.850081920623779,2,3,3,3,-9.449999999999999,-0.97,2.39,-0.07000000000000001,-0.38,0.1
9.860081911087036,2,3,3,3,-9.34,-1.03,2.4,-0.13,-0.3,0.2
9.870081901550293,2,3,3,3,-9.359999999999999,-0.97,2.38,-0.11,-0.17,0.25
9.880082130432129,2,3,3,3,-9.41,-0.96,2.31,-0.08,-0.19,0.34
9.890082120895386,2,3,3,3,-9.44,-0.92,2.34,-0.1,-0.14,0.41
9.900082111358643,2,3,3,3,-9.460000000000001,-0.93,2.42,-0.11,-0.06,0.46
9.910082101821899,2,3,3,3,-9.529999999999999,-0.91,2.38,-0.06,0.02,0.44
9.920082092285156,2,3,3,3,-9.6,-0.88,2.46,-0.01,-0.02,0.35
9.930082082748413,2,3,3,3,-9.59,-0.76,2.39,0.07000000000000001,-0.2,0.3
9.94008207321167,2,3,3,3,-9.44,-0.76,2.44,-0.01,-0.19,0.21
9.950082063674927,2,3,3,3,-9.35,-0.82,2.46,-0.29,-0.12,0.17
9.960082054138184,2,3,3,3,-9.33,-0.89,2.49,-0.53,-0.04,0.12
9.97008204460144,2,3,3,3,-9.33,-0.93,2.46,-0.77,0.16,0.13
9.980082035064697,2,3,3,3,-9.51,-0.93,2.33,-0.9,0.25,0.16
9.990082025527954,2,3,3,3,-9.57,-0.9399999999999999,2.33,-0.89,0.11,0.18
10.00008201599121,2,3,3,3,-9.56,-0.97,2.29,-0.89,-0.02,0.23
10.01008200645447,2,3,3,3,-9.449999999999999,-1.07,2.38,-0.9399999999999999,-0.08,0.24
10.02008199691772,2,3,3,3,-9.43,-1.06,2.36,-0.93,-0.02,0.23
10.03008198738098,2,3,3,3,-9.44,-1.08,2.29,-0.86,0.06,0.2
10.04008197784424,2,3,3,3,-9.5,-1.05,2.38,-0.82,0.12,0.21
10.0500819683075,2,3,3,3,-9.44,-1.11,2.43,-0.84,0.09,0.22
10.06008195877075,2,3,3,3,-9.369999999999999,-1.1,2.35,-0.89,0.04,0.3
10.07008194923401,2,3,3,3,-9.42,-1.08,2.39,-0.82,0.1,0.38
10.08008193969727,2,3,3,3,-9.5,-1.01,2.38,-0.65,0.04,0.43
10.09008193016052,2,3,3,3,-9.41,-0.99,2.38,-0.58,-0.02,0.44
10.10008192062378,2,3,3,3,-9.359999999999999,-1.05,2.48,-0.42,0.13,0.41
10.11008191108704,2,3,3,3,-9.32,-1.05,2.48,-0.39,0.19,0.38
10.12008190155029,2,3,3,3,-9.33,-1.06,2.47,-0.45,0.28,0.33
10.13008213043213,2,3,3,3,-9.51,-0.99,2.41,-0.43,0.3,0.34
10.14008212089539,2,3,3,3,-9.56,-0.98,2.48,-0.43,0.23,0.35
10.15008211135864,2,3,3,3,-9.539999999999999,-0.98,2.44,-0.47,0.2,0.3
10.1600821018219,2,3,3,3,-9.41,-0.99,2.39,-0.39,0.3,0.21
10.17008209228516,2,3,3,3,-9.42,-0.99,2.41,-0.33,0.42,0.12
10.18008208274841,2,3,3,3,-9.460000000000001,-0.97,2.41,-0.32,0.44,0.02
10.19008207321167,2,3,3,3,-9.52,-0.97,2.46,-0.28,0.32,-0.05
10.20008206367493,2,3,3,3,-9.539999999999999,-0.99,2.44,-0.28,0.22,-0.08
10.21008205413818,2,3,3,3,-9.5,-1,2.41,-0.28,0.22,-0.07000000000000001
10.22008204460144,2,3,3,3,-9.51,-1.03,2.4,-0.21,0.33,-0.09
10.2300820350647,2,3,3,3,-9.48,-1.03,2.3,-0.05,0.32,-0.12
10.24008202552795,2,3,3,3,-9.449999999999999,-1.01,2.48,0.15,0.33,-0.1
10.25008201599121,2,3,3,3,-9.449999999999999,-0.98,2.53,0.32,0.25,-0.08
10.26008200645447,2,3,3,3,-9.42,-0.9399999999999999,2.57,0.36,0.05,-0.01
10.27008199691772,2,3,3,3,-9.380000000000001,-0.93,2.57,0.31,0.07000000000000001,0.03
10.28008198738098,2,3,3,3,-9.34,-0.87,2.46,0.24,0.15,0.04
10.29008197784424,2,3,3,3,-9.380000000000001,-0.86,2.46,0.11,0.23,0.06
10.3000819683075,2,3,3,3,-9.42,-0.83,2.49,-0.02,0.26,0.03
10.31008195877075,2,3,3,3,-9.48,-0.85,2.5,-0.1,0.3,-0.02
10.32008194923401,2,3,3,3,-9.550000000000001,-0.87,2.44,-0.1,0.32,-0.08
10.33008193969727,2,3,3,3,-9.550000000000001,-0.92,2.36,-0.04,0.32,-0.1
10.34008193016052,2,3,3,3,-9.52,-0.92,2.38,-0.05,0.28,-0.14
10.35008192062378,2,3,3,3,-9.5,-0.96,2.45,-0.02,0.22,-0.17
10.36008191108704,2,3,3,3,-9.449999999999999,-1,2.47,0.09,0.18,-0.2
10.37008190155029,2,3,3,3,-9.44,-1.04,2.43,0.16,0.15,-0.24
10.38008213043213,2,3,3,3,-9.42,-1.05,2.34,0.23,0.15,-0.25
10.39008212089539,2,3,3,3,-9.44,-1.04,2.45,0.37,0.11,-0.26
10.40008211135864,2,3,3,3,-9.42,-1.09,2.42,0.42,0.08,-0.23
10.4100821018219,2,3,3,3,-9.449999999999999,-1.06,2.43,0.37,0.09,-0.19
10.42008209228516,2,3,3,3,-9.449999999999999,-1.02,2.48,0.5,0.09,-0.16
10.43008208274841,2,3,3,3,-9.43,-1,2.41,0.53,0.05,-0.1
10.44008207321167,2,3,3,3,-9.380000000000001,-0.99,2.43,0.49,0.01,-0.1
10.45008206367493,2,3,3,3,-9.41,-0.95,2.47,0.47,0.02,-0.1
10.46008205413818,2,3,3,3,-9.42,-0.98,2.5,0.58,-0.04,-0.08
10.47008204460144,2,3,3,3,-9.42,-0.99,2.44,0.55,-0.1,-0.06
10.4800820350647,2,3,3,3,-9.49,-1.01,2.34,0.4,-0.03,-0.06
10.49008202552795,2,3,3,3,-9.5,-1.01,2.37,0.39,-0.01,-0.06
10.50008201599121,2,3,3,3,-9.52,-1.01,2.39,0.48,0,-0.1
10.51008200645447,2,3,3,3,-9.449999999999999,-0.97,2.44,0.55,-0.01,-0.13
10.52008199691772,2,3,3,3,-9.470000000000001,-0.99,2.47,0.51,-0.05,-0.13
10.53008198738098,2,3,3,3,-9.44,-0.99,2.4,0.48,-0.1,-0.12
10.54008197784424,2,3,3,3,-9.470000000000001,-1.01,2.41,0.43,-0.18,-0.08
10.5500819683075,2,3,3,3,-9.460000000000001,-0.99,2.42,0.36,-0.21,-0.07000000000000001
10.56008195877075,2,3,3,3,-9.449999999999999,-1.01,2.42,0.42,-0.17,-0.08
10.57008194923401,2,3,3,3,-9.42,-0.97,2.38,0.44,-0.16,-0.1
10.58008193969727,2,3,3,3,-9.449999999999999,-0.93,2.42,0.59,-0.12,-0.12
10.59008193016052,2,3,3,3,-9.44,-0.93,2.5,0.7,-0.2,-0.1
10.60008192062378,2,3,3,3,-9.369999999999999,-1,2.48,0.5600000000000001,-0.33,-0.09
10.61008191108704,2,3,3,3,-9.31,-0.99,2.44,0.32,-0.14,-0.06
10.62008190155029,2,3,3,3,-9.48,-0.92,2.45,0.24,0.02,-0.08
10.63008213043213,2,3,3,3,-9.49,-0.91,2.41,0.26,0,-0.05
10.64008212089539,2,3,3,3,-9.52,-0.9,2.42,0.26,-0.02,-0.01
10.65008211135864,2,3,3,3,-9.5,-0.91,2.41,0.18,-0.05,-0.02
10.6600821018219,2,3,3,3,-9.460000000000001,-0.95,2.36,0.01,-0.03,-0.04
10.67108201980591,2,3,3,3,-9.470000000000001,-0.93,2.4,0.04,0.03,-0.08
10.68108201026917,2,3,3,3,-9.5,-0.95,2.36,0.14,0.01,-0.1
10.69108200073242,2,3,3,3,-9.49,-0.92,2.37,0.18,-0.11,-0.09
10.70108199119568,2,3,3,3,-9.41,-0.93,2.49,0.17,-0.19,-0.05
10.71108198165894,2,3,3,3,-9.359999999999999,-0.95,2.49,0.08,-0.25,-0.05
10.72108197212219,2,3,3,3,-9.359999999999999,-0.92,2.5,0,-0.34,-0.07000000000000001
10.73108196258545,2,3,3,3,-9.4,-0.88,2.45,-0.04,-0.45,-0.07000000000000001
10.74108195304871,2,3,3,3,-9.41,-0.89,2.52,-0.1,-0.66,-0.04
10.75108194351196,2,3,3,3,-9.35,-0.93,2.49,-0.26,-0.79,0.01
10.76108193397522,2,3,3,3,-9.33,-0.95,2.45,-0.36,-0.64,0.13
10.77108192443848,2,3,3,3,-9.33,-1.02,2.46,-0.3,-0.38,0.23
10.78108191490173,2,3,3,3,-9.359999999999999,-1.02,2.37,-0.35,-0.06,0.32
10.79108190536499,2,3,3,3,-9.550000000000001,-1.02,2.44,-0.5,0.21,0.36
10.80108213424683,2,3,3,3,-9.68,-0.91,2.51,-0.41,0.06,0.3
10.81108212471008,2,3,3,3,-9.52,-0.8100000000000001,2.53,-0.41,-0.02,0.22
10.82108211517334,2,3,3,3,-9.44,-0.76,2.61,-0.37,0.14,0.1
10.8310821056366,2,3,3,3,-9.369999999999999,-0.84,2.54,-0.55,0.18,-0.03
10.84108209609985,2,3,3,3,-9.369999999999999,-0.88,2.57,-0.74,0.18,-0.12
10.85108208656311,2,3,3,3,-9.369999999999999,-0.97,2.51,-0.9399999999999999,0.26,-0.17
10.86108207702637,2,3,3,3,-9.449999999999999,-0.96,2.48,-0.99,0.36,-0.11
10.87108206748962,2,3,3,3,-9.52,-0.9,2.42,-0.86,0.37,-0.08
10.88108205795288,2,3,3,3,-9.52,-0.9,2.38,-0.54,0.1,-0.03
10.89108204841614,2,3,3,3,-9.369999999999999,-0.87,2.56,-0.1,-0.16,-0.03
10.90108203887939,2,3,3,3,-9.369999999999999,-0.85,2.64,0.15,-0.3,-0.02
10.91108202934265,2,3,3,3,-9.35,-0.87,2.62,0.11,-0.38,-0.05
10.92108201980591,2,3,3,3,-9.380000000000001,-0.88,2.61,-0.18,-0.34,-0.05
10.93108201026917,2,3,3,3,-9.460000000000001,-0.95,2.33,-0.51,-0.19,-0.04
10.94108200073242,2,3,3,3,-9.5,-0.92,2.34,-0.66,0,-0.05
10.95108199119568,2,3,3,3,-9.48,-0.92,2.35,-0.79,0.02,-0.07000000000000001
10.96108198165894,2,3,3,3,-9.470000000000001,-0.92,2.47,-0.92,0.07000000000000001,-0.12
10.97108197212219,2,3,3,3,-9.460000000000001,-0.95,2.49,-0.95,0.16,-0.16
10.98108196258545,2,3,3,3,-9.460000000000001,-0.96,2.37,-0.97,0.28,-0.2
10.99108195304871,2,3,3,3,-9.5,-0.98,2.35,-0.92,0.37,-0.19
11.00108194351196,2,3,3,3,-9.48,-1.02,2.52,-0.61,0.12,-0.21
11.01108193397522,2,3,3,2,-9.380000000000001,-1.03,2.6,-0.26,-0.2,-0.2
11.02108192443848,2,3,3,2,-9.32,-1.03,2.59,-0.18,-0.38,-0.13
11.03108191490173,2,3,3,2,-9.35,-0.99,2.46,-0.34,-0.32,-0.02
11.04108190536499,2,3,3,2,-9.460000000000001,-0.86,2.49,-0.46,-0.23,0.08
11.05108213424683,2,3,3,2,-9.49,-0.79,2.45,-0.53,-0.12,0.13
11.06108212471008,2,3,3,2,-9.52,-0.78,2.48,-0.72,-0.04,0.08
11.07108211517334,2,3,3,2,-9.49,-0.8,2.44,-0.96,0.05,-0.05
11.0810821056366,2,3,3,2,-9.56,-0.99,2.23,-1.25,0.15,-0.17
11.09108209609985,2,3,3,2,-9.57,-1.08,2.22,-1.51,0.2,-0.21
11.10108208656311,2,3,3,2,-9.58,-1.22,2.15,-1.72,0.18,-0.13
11.11108207702637,2,3,3,2,-9.539999999999999,-1.36,2.12,-1.68,0,-0.05
11.12108206748962,2,3,3,2,-9.49,-1.4,2.13,-1.27,-0.25,0.02
11.13108205795288,2,3,3,2,-9.449999999999999,-1.39,2.17,-0.75,-0.38,-0.04
11.14108204841614,2,3,3,2,-9.369999999999999,-1.38,2.32,-0.34,-0.45,-0.15
11.15108203887939,2,3,3,2,-9.33,-1.44,2.61,-0.14,-0.49,-0.3
11.16108202934265,2,3,3,2,-9.31,-1.54,2.72,-0.05,-0.38,-0.4
11.17108201980591,2,3,3,2,-9.33,-1.62,2.72,-0.01,-0.05,-0.53
11.18108201026917,2,3,3,2,-9.300000000000001,-1.69,2.61,-0.14,0.25,-0.63
11.19108200073242,2,3,3,2,-9.23,-1.81,2.55,-0.43,0.52,-0.64
11.20108199119568,2,3,3,2,-9.26,-1.86,2.34,-0.91,0.8,-0.62
11.21108198165894,2,3,3,2,-9.359999999999999,-1.88,2.26,-0.9399999999999999,1.12,-0.64
11.22108197212219,2,3,3,2,-9.49,-1.8,2.39,0.1,1.24,-0.89
11.23108196258545,2,3,3,2,-9.59,-1.49,2.9,1.98,0.9399999999999999,-1.3
11.24108195304871,2,3,3,2,-9.449999999999999,-1.34,3.19,4,0.28,-1.68
11.25108194351196,2,3,3,2,-9.1,-1.16,3.44,5.35,-0.6,-1.93
11.26108193397522,2,3,3,2,-8.75,-1.02,3.62,5.71,-1.24,-1.86
11.27108192443848,2,3,3,2,-8.31,-0.7,3.83,5.48,-1.48,-1.44
11.28108191490173,2,3,3,2,-8.32,-0.52,3.93,4.97,-1.42,-0.75
11.29108190536499,2,3,3,2,-8.52,-0.4,4.03,4.43,-1.17,-0.05
11.30108213424683,2,3,3,2,-9.15,-0.21,4.38,3.92,-1.04,0.45
11.31108212471008,2,3,3,2,-9.390000000000001,-0.26,4.25,3.03,-1.32,0.62
11.32108211517334,2,3,3,2,-9.57,-0.37,4.08,1.53,-1.73,0.44
11.3310821056366,2,3,3,2,-9.67,-0.53,3.65,0.09,-1.8,0.09
11.34108209609985,2,3,3,2,-9.75,-1.09,3.46,-0.89,-1.57,-0.33
11.35108208656311,2,3,3,2,-9.77,-1.18,3.58,-0.55,-1.4,-0.75
11.36108207702637,2,3,3,2,-9.56,-1.35,3.18,-0.74,-1.57,-1.04
11.37108206748962,2,3,3,2,-9.43,-1.57,3.17,-0.82,-1.34,-1.25
11.38108205795288,2,3,3,2,-9.35,-1.74,3.24,0.08,-1.38,-1.25
11.39108204841614,2,3,3,2,-9.26,-1.71,3.1,0.72,-1.98,-1.05
11.40108203887939,2,3,3,2,-9.220000000000001,-1.58,3.18,1.86,-2.56,-1.01
11.41108202934265,2,3,3,2,-8.92,-1.23,3.03,2.87,-3.26,-0.93
11.42108201980591,2,3,3,2,-8.06,-1.09,2.67,2.63,-2.89,-0.75
11.43108201026917,2,3,3,2,-8.09,-1.04,2.87,2.82,-1.78,-0.44
11.44108200073242,2,3,3,2,-8.26,-0.95,2.82,3.37,-1.14,-0.11
11.45108199119568,2,3,3,2,-8.43,-0.89,2.74,3.81,-1.02,0.29
11.46108198165894,2,3,3,3,-8.69,-0.53,2.62,3.9,-0.75,0.6
11.47108197212219,2,3,3,3,-8.859999999999999,-0.31,2.7,3.31,-0.42,0.78
11.48108196258545,2,3,3,3,-9.06,-0.09,2.44,2.45,0.05,0.92
11.49108195304871,2,3,3,3,-9.550000000000001,0.21,2.15,1.06,0.77,0.99
11.50108194351196,2,3,3,3,-9.81,0.23,2.02,-0.15,1.37,1
11.51108193397522,2,3,3,3,-10.03,0.23,1.85,-1.31,1.6,0.92
11.52108192443848,2,3,3,3,-10.17,0.18,1.78,-1.98,1.58,0.71
11.53108191490173,2,3,3,3,-10.23,0.05,1.7,-2.12,1.32,0.4
11.54108190536499,2,3,3,3,-10.17,0,1.92,-2.15,0.99,0.04
11.55108213424683,2,3,3,3,-10.06,-0.07000000000000001,2.02,-2.19,0.79,-0.22
11.56108212471008,2,3,3,3,-9.94,-0.15,2.01,-2.53,0.74,-0.35
11.57108211517334,2,3,3,3,-9.699999999999999,-0.26,2.04,-2.93,0.88,-0.4
11.5810821056366,2,3,3,3,-9.630000000000001,-0.36,2.01,-2.96,1.36,-0.43
11.59108209609985,2,3,3,3,-9.550000000000001,-0.5,2,-2.88,1.76,-0.54
11.60108208656311,2,3,3,3,-9.44,-0.63,2.05,-2.64,2.06,-0.64
11.61108207702637,2,3,3,3,-9.35,-0.91,2.01,-2.05,2.28,-0.75
11.62108206748962,2,3,3,3,-9.35,-0.93,2.01,-1.21,2.62,-0.96
11.63108205795288,2,3,3,3,-9.34,-0.91,1.89,-0.19,2.98,-1.08
11.64108204841614,2,3,3,3,-9.33,-0.76,1.87,0.72,3.36,-1.17
11.65108203887939,2,3,3,3,-9.380000000000001,-0.23,1.98,1.43,3.58,-1.1
11.66108202934265,2,3,3,3,-9.35,-0.06,2.06,1.81,3.63,-0.9399999999999999
11.67108201980591,2,3,3,3,-9.4,0.05,2.11,1.96,3.67,-0.82
11.68108201026917,2,3,3,3,-9.48,0.2,1.95,1.92,3.65,-0.77
11.69208192825317,2,3,3,3,-9.51,0.19,1.99,1.41,3.53,-0.77
11.70208191871643,2,3,3,3,-9.5,0.13,1.9,1.04,3.39,-0.76
11.71208190917969,2,3,3,3,-9.460000000000001,0.07000000000000001,1.84,0.74,3.26,-0.67
11.72208189964294,2,3,3,3,-9.4,0,1.85,0.42,2.87,-0.61
11.73208212852478,2,3,3,3,-9.42,-0.16,1.83,0.15,2.4,-0.62
11.74208211898804,2,3,3,3,-9.51,-0.36,1.93,-0.05,2.13,-0.59
11.75208210945129,2,3,3,3,-9.539999999999999,-0.41,1.9,-0.25,1.94,-0.57
11.76208209991455,2,3,3,3,-9.57,-0.5,1.9,-0.26,1.72,-0.78
11.77208209037781,2,3,3,3,-9.59,-0.51,1.93,0.04,1.63,-0.9399999999999999
11.78208208084106,2,3,3,3,-9.56,-0.54,1.88,0.24,1.34,-1.07
11.79208207130432,2,3,3,3,-9.619999999999999,-0.7,1.8,0.49,1.1,-1.22
11.80208206176758,2,3,3,3,-9.640000000000001,-0.8,1.75,0.95,0.89,-1.33
11.81208205223083,2,3,3,3,-9.550000000000001,-0.8100000000000001,1.87,1.56,0.72,-1.5
11.82208204269409,2,3,3,3,-9.48,-0.75,2,2.43,0.5,-1.73
11.83208203315735,2,3,3,3,-9.390000000000001,-0.7,1.97,3.13,0.42,-1.95
11.84208202362061,2,3,3,3,-9.34,-0.54,2.15,3.81,0.51,-2.14
11.85208201408386,2,3,3,3,-9.33,-0.46,2.24,4.35,0.59,-2.16
11.86208200454712,2,3,3,3,-9.33,-0.38,2.29,4.5,0.63,-2.1
11.87208199501038,2,3,3,3,-9.31,-0.18,2.27,4.52,0.65,-1.98
11.88208198547363,2,3,3,3,-9.25,-0.03,2.11,4.27,0.76,-1.94
11.89208197593689,2,3,3,3,-9.279999999999999,0.09,1.99,4.01,0.9,-1.97
11.90208196640015,2,3,3,3,-9.35,0.11,1.99,3.96,1.12,-2.1
11.9120819568634,2,3,3,3,-9.51,0.21,1.93,4.02,1.26,-2.26
11.92208194732666,2,3,3,3,-9.609999999999999,0.24,1.71,3.9,1.3,-2.43
11.93208193778992,2,3,3,3,-9.67,0.27,1.67,3.93,1.24,-2.62
11.94208192825317,2,3,3,3,-9.68,0.3,1.66,4.13,0.96,-2.8
11.95208191871643,2,3,3,3,-9.550000000000001,0.36,1.55,4.15,0.87,-2.97
11.96208190917969,2,3,3,3,-9.44,0.35,1.51,4.27,0.86,-3.13
11.97208189964294,2,3,3,3,-9.369999999999999,0.36,1.51,4.14,0.79,-3.22
11.98208212852478,2,3,3,3,-9.4,0.38,1.45,4.05,0.8,-3.15
11.99208211898804,2,3,3,3,-9.5,0.44,1.44,4.04,0.76,-2.98
12.00208210945129,2,3,3,3,-9.550000000000001,0.44,1.46,4.23,0.77,-2.72
12.01208209991455,2,3,3,3,-9.58,0.38,1.43,4.49,0.86,-2.5
12.02208209037781,2,3,3,3,-9.57,0.29,1.6,5.01,1.06,-2.36
12.03208208084106,2,3,3,3,-9.630000000000001,0.05,1.66,5.44,1.56,-2.31
12.04208207130432,2,3,3,3,-9.81,-0.04,1.74,5.61,2.3,-2.15
12.05208206176758,2,3,3,3,-10.11,-0.03,1.84,5.64,2.94,-1.76
12.06208205223083,2,3,3,3,-10.82,0.02,1.93,5.37,3.2,-1.25
12.07208204269409,2,3,3,3,-11.17,0.18,1.88,4.84,3.22,-0.65
12.08208203315735,2,3,3,3,-11.53,0.32,1.75,4.07,3.17,-0.08
12.09208202362061,2,3,3,3,-11.97,0.47,1.8,3.32,3.12,0.26
12.10208201408386,2,3,3,3,-12.91,0.78,1.51,2.34,2.9,0.41
12.11208200454712,2,3,3,3,-13.25,0.9399999999999999,1.34,1.36,2.5,0.48
12.12208199501038,2,3,3,3,-13.38,0.9399999999999999,1.24,0.63,2.32,0.44
12.13208198547363,2,3,3,3,-13.33,0.77,1.3,0.49,1.65,0.13
12.14208197593689,2,3,3,3,-13.03,-0.2,1.97,0.62,0.67,-0.3
12.15208196640015,2,3,3,3,-12.79,-0.74,1.92,0.51,-0.3,-0.64
12.1620819568634,2,3,3,3,-12.48,-1.07,1.66,0.14,-0.47,-0.67
12.17208194732666,2,3,3,3,-12.12,-1.35,1.77,0.2,-0.32,-0.22
12.18208193778992,2,3,3,3,-11.28,-1.66,1.95,0.34,-0.75,0.51
12.19208192825317,2,3,3,3,-10.62,-1.75,1.9,-0.35,-1.49,1.2
12.20208191871643,2,3,3,3,-10.03,-1.82,1.92,-1.23,-1.29,1.7
12.21208190917969,2,3,3,3,-9.710000000000001,-1.9,1.97,-1.95,-0.43,2.15
12.22208189964294,2,3,3,3,-9.4,-2.28,1.9,-2.61,0.45,2.32
12.23208212852478,2,3,3,3,-9.23,-2.46,1.75,-2.92,1.27,2.26
12.24208211898804,2,3,3,3,-9.039999999999999,-2.6,1.79,-3.05,1.82,2.13
12.25208210945129,2,3,3,3,-8.57,-3.11,1.64,-3.26,1.94,2.15
12.26208209991455,2,3,3,2,-8.289999999999999,-3.4,1.53,-3.57,1.66,2.33
12.27208209037781,2,3,3,2,-7.93,-3.61,1.53,-3.72,1.19,2.39
12.28208208084106,2,3,3,2,-7.69,-3.74,1.36,-3.44,0.82,2.57
12.29208207130432,2,3,3,2,-7.68,-4.14,1.3,-2.73,0.8,2.73
12.30208206176758,2,3,3,2,-7.67,-4.14,1.23,-1.39,0.75,2.94
12.31208205223083,2,3,3,2,-7.97,-4.07,1.35,0.42,0.44,3.23
12.32208204269409,2,3,3,2,-8.199999999999999,-3.9,1.67,2.84,-0.1,3.86
12.33208203315735,2,3,3,2,-8.470000000000001,-3.15,1.94,5.01,-0.87,4.59
12.34208202362061,2,3,3,2,-8.529999999999999,-2.62,2.13,6.21,-1.56,5.36
12.35208201408386,2,3,3,2,-8.73,-2,2.39,6.99,-1.78,6.14
12.36208200454712,2,3,3,2,-9.050000000000001,-1.35,2.62,7.17,-1.76,6.7
12.37208199501038,2,3,3,2,-9.75,-0.07000000000000001,3.45,7.12,-2.03,6.97
12.38208198547363,2,3,3,2,-10.21,0.37,3.83,6.78,-3.08,7
12.39208197593689,2,3,3,2,-10.41,0.75,4.01,5.35,-5.09,6.69
12.40208196640015,2,3,3,2,-10.35,1.07,3.9,2.8,-6.69,6
12.4120819568634,2,3,3,2,-10.3,0.93,3.56,-0.25,-7.62,5.14
12.42208194732666,2,3,3,2,-10.16,0.67,3.25,-3.47,-8.619999999999999,3.96
12.43208193778992,2,3,3,2,-9.9,0.37,2.72,-6.03,-9.210000000000001,2.81
12.44208192825317,2,3,3,2,-9.380000000000001,-0.07000000000000001,2.44,-7.41,-8.85,1.95
12.45208191871643,2,3,3,2,-9.1,-0.47,2.51,-7.49,-8.44,1.38
12.46208190917969,2,3,3,1,-8.630000000000001,-0.71,2.44,-7.08,-8.369999999999999,0.97
12.47208189964294,2,3,3,1,-7.9,-0.84,2.19,-7.32,-8.470000000000001,0.75
12.48208212852478,2,3,3,1,-7.07,-1.14,2.15,-7.5,-7.77,0.79
12.49208211898804,2,3,3,1,-7.36,-1.31,2.74,-6.9,-6.47,1.54
12.50208210945129,2,3,3,1,-7.7,-1.37,3.06,-6.04,-6.49,2.38
12.51208209991455,2,3,3,0,-7.8,-1.43,2.97,-6.11,-7.38,3.01
12.52208209037781,2,3,3,0,-7.87,-1.35,2.72,-6.12,-7.61,3.39
12.53208208084106,2,3,3,0,-8.09,-1.2,2.69,-5.48,-7.07,3.55
12.54208207130432,2,3,3,0,-8.26,-1.06,2.87,-4.43,-6.45,3.6
12.55208206176758,2,3,3,0,-8.460000000000001,-0.79,3.15,-3.31,-6.1,3.65
12.56208205223083,2,3,3,0,-8.710000000000001,-0.4,3.55,-2.5,-5.98,3.53
12.57208204269409,2,3,3,0,-8.74,-0.21,3.62,-2.03,-5.45,3.34
12.58208203315735,2,3,3,0,-8.76,0.09,3.58,-1.73,-4.68,3.08
12.59208202362061,2,3,3,0,-8.76,0.37,3.55,-1.83,-3.95,2.85
12.60208201408386,2,3,3,0,-8.69,0.84,3.56,-2.08,-3.04,2.65
12.61208200454712,2,3,3,0,-8.630000000000001,0.95,3.63,-2.21,-1.99,2.36
12.62208199501038,2,3,3,0,-8.529999999999999,1.08,3.7,-2.52,-1.39,2.02
12.63208198547363,2,3,3,0,-8.42,1.22,3.73,-2.97,-1.07,1.69
12.64208197593689,2,3,3,0,-8.32,1.21,3.77,-3.57,-0.71,1.23
12.65208196640015,2,3,3,0,-8.109999999999999,1.16,3.73,-4.39,-0.5600000000000001,0.74
12.6620819568634,2,3,3,0,-8.029999999999999,1.19,3.74,-4.97,-0.18,0.22
12.67208194732666,2,3,3,0,-7.79,1.24,3.51,-5.39,0.16,-0.29
12.68208193778992,2,3,3,0,-7.55,1.21,3.43,-5.91,0.67,-0.73
12.69208192825317,2,3,3,0,-7.51,1.13,3.62,-6.06,1.77,-0.95
12.70208191871643,2,3,3,0,-7.56,0.95,3.94,-5.75,2.77,-0.9
12.71208190917969,2,3,3,0,-7.83,0.68,4.06,-5.52,3.19,-0.67
12.74308204650879,2,3,3,0,-8.619999999999999,0.29,4.08,-4.8,3.55,0.11
12.75308203697205,2,3,3,0,-8.93,0.21,4.29,-4.19,3,0.23
12.7630820274353,2,3,3,0,-8.890000000000001,0.14,4.16,-3.75,2.36,0.36
12.77308201789856,2,3,3,0,-8.73,-0.16,4.07,-4.44,1.99,0.5600000000000001
12.78308200836182,2,3,3,0,-8.81,-0.55,3.94,-5.47,2.07,0.76
12.79308199882507,2,3,3,0,-9.31,-1.36,3.69,-7.28,2.08,0.7
12.80308198928833,2,3,3,0,-9.800000000000001,-1.61,2.81,-9.640000000000001,2.38,0.18
12.81308197975159,2,3,3,0,-10.61,-1.3,1.98,-9.67,3.36,-0.38
12.82308197021484,2,3,3,0,-11.87,0.46,3.19,-7.24,3.71,-0.83
12.8330819606781,2,3,3,0,-12.03,1.28,4.48,-2.73,2.06,-0.89
12.84308195114136,2,3,3,0,-11.38,1.82,5.18,1.25,-1.13,-0.02
12.85308194160461,2,3,3,0,-10.33,1.94,5.46,1.43,-3.44,1.33
12.86308193206787,2,3,3,0,-9.6,1.51,5.46,-0.8,-3.39,2.75
12.87308192253113,2,3,3,0,-9.960000000000001,1.19,4.81,-4.17,-1.91,4.27
12.88308191299438,2,3,3,0,-10.88,0.98,4.66,-7.02,0,5.27
12.89308190345764,2,3,3,0,-12.37,0.86,5.3,-7.93,0.33,5.49
12.90308213233948,2,3,3,0,-14.96,-0.32,3.85,-8.380000000000001,-1.2,5
12.91308212280273,2,3,3,0,-16.08,-1.1,3.43,-8.43,-1.21,3.69
12.92308211326599,2,3,3,0,-16.66,-1.5,2.94,-6.38,-1.67,1.58
12.93308210372925,2,3,3,0,-15.72,-1.57,2.44,-3.25,-4.04,-0.96
12.9430820941925,2,3,3,0,-10.56,-2.08,3.69,0.29,-6.24,-2.69
12.95308208465576,2,3,3,0,-8.25,-2.52,4.58,2.08,-7.5,-3.47
12.96308207511902,2,3,3,0,-6.91,-3.08,5.45,2.83,-6.15,-2.79
12.97308206558228,2,3,3,0,-6.45,-3.43,5.49,2.07,-2.94,-1.28
12.98308205604553,2,3,3,0,-7.78,-2.68,3.34,0.51,-0.8,-0.19
12.99308204650879,2,3,3,0,-8.449999999999999,-1.93,2.46,-0.2,1.26,-0.17
13.00308203697205,2,3,3,0,-8.92,-1.47,1.6,-1.64,3.29,-0.83
13.0130820274353,2,3,3,0,-9.31,-1.63,0.67,-2.57,4.44,-1.8
13.02308201789856,2,3,3,0,-9.23,-1.8,0.36,-2.9,4.78,-3.02
13.03308200836182,2,3,3,0,-9.130000000000001,-2.11,0.28,-3.54,4.53,-4
13.04308199882507,2,3,3,0,-9.050000000000001,-2.7,0.46,-4.02,3.64,-4.12
13.05308198928833,2,3,3,0,-8.67,-3.59,1.02,-3.89,1.59,-3.59
13.06308197975159,2,3,3,0,-8.5,-3.54,1.28,-3.07,-0.53,-2.93
13.07308197021484,2,3,3,0,-8.220000000000001,-3.4,1.35,-2.02,-1.86,-2.21
13.0830819606781,2,3,3,0,-7.8,-3.22,1.43,-1.5,-2.25,-1.55
13.09308195114136,2,3,3,0,-7.18,-2.77,2.08,-0.91,-1.66,-0.74
13.10308194160461,2,3,3,0,-6.99,-2.49,2.12,-0.39,-0.54,0.12
13.11308193206787,2,3,3,0,-6.91,-2.27,2.15,0.1,0.74,0.95
13.12308192253113,2,3,3,0,-7.15,-2.16,2.21,0.66,2.19,1.65
13.13308191299438,2,3,3,0,-7.82,-2.45,1.55,1.29,3.13,2.11
13.14308190345764,2,3,3,0,-7.92,-2.56,1.32,1.96,3.68,2.14
13.15308213233948,2,3,3,0,-8.15,-2.65,1.3,3.2,4.27,1.76
13.16308212280273,2,3,3,0,-8.68,-2.53,1.19,4.67,4.65,0.9399999999999999
13.17308211326599,2,3,3,0,-8.970000000000001,-2.56,1.17,5.96,4.73,-0.05
13.18308210372925,2,3,3,0,-9.289999999999999,-2.37,1.23,7.32,4.68,-1.16
13.1930820941925,2,3,3,0,-9.42,-1.92,1.47,8.630000000000001,4.64,-1.92
13.20308208465576,2,3,3,0,-8.91,-1.24,1.61,9.4,3.87,-2.45
13.21308207511902,2,3,3,0,-8.68,-0.85,1.58,9.42,3.23,-2.77
13.22308206558228,2,3,3,0,-8.640000000000001,-0.38,1.94,9.15,2.94,-2.8
13.23308205604553,2,3,3,0,-8.73,0.03,2.06,8.630000000000001,2.68,-2.73
13.24308204650879,2,3,3,0,-8.960000000000001,0.66,2.34,7.66,2.3,-2.51
13.25308203697205,2,3,3,0,-9.050000000000001,0.88,2.4,6.74,2.15,-2.18
13.2630820274353,2,3,3,0,-9.130000000000001,1.07,2.43,5.95,2.12,-1.84
13.27308201789856,2,3,3,0,-9.16,1.17,2.49,5.05,2.31,-1.5
13.28308200836182,2,3,3,0,-9.380000000000001,1.1,2.33,4.01,2.28,-1.28
13.29308199882507,2,3,3,0,-9.44,1.02,2.27,2.86,2.11,-1.28
13.30308198928833,2,3,3,0,-9.5,0.95,2.27,1.65,2.1,-1.27
13.31308197975159,2,3,3,0,-9.5,0.95,2.27,0.68,2.07,-1.25
13.32308197021484,2,3,3,0,-9.6,0.88,2.2,0,1.92,-1.37
13.3330819606781,2,3,3,0,-9.56,0.36,2.38,-0.8,1.64,-1.59
13.34308195114136,2,3,3,0,-9.51,0.02,2.41,-1.49,1.32,-1.88
13.35308194160461,2,3,3,0,-9.43,-0.72,2.34,-2,1.06,-2.22
13.36308193206787,2,3,3,0,-9.43,-0.72,2.34,-2.3,0.92,-2.46
13.37308192253113,2,3,3,0,-9.390000000000001,-1.05,2.28,-2.33,0.9,-2.61
13.38308191299438,2,3,3,0,-9.42,-1.47,1.9,-2.06,0.91,-2.84
13.39308190345764,2,3,3,0,-9.220000000000001,-1.3,1.94,-1.48,0.78,-3.12
13.40308213233948,2,3,3,0,-9.130000000000001,-1.14,2.22,-0.86,0.5600000000000001,-3.66
13.41308212280273,2,3,3,0,-9.130000000000001,-1.14,2.22,-0.06,0.36,-4.16
13.42308211326599,2,3,3,0,-9.050000000000001,-1,2.09,0.41,0.31,-4.6
13.43308210372925,2,3,3,0,-8.92,-0.37,2.12,1.35,0.28,-4.88
13.4430820941925,2,3,3,0,-8.93,-0.28,2.25,2.23,-0.28,-4.95
13.45308208465576,2,3,3,0,-9.039999999999999,-0.26,2.29,2.73,-0.85,-4.78
13.46308207511902,2,3,3,0,-9.039999999999999,-0.26,2.29,3.14,-1.31,-4.51
13.47308206558228,2,3,3,0,-9.34,-0.39,2.23,3.53,-1.59,-4.17
13.48308205604553,2,3,3,0,-9.300000000000001,-0.49,2.07,4.03,-1.69,-3.91
13.49308204650879,2,3,3,0,-9.289999999999999,-0.55,2.17,4.77,-1.49,-3.84
13.50308203697205,2,3,3,0,-9.279999999999999,-0.6,2.22,5.4,-1.19,-3.99
13.5130820274353,2,3,3,0,-9.369999999999999,-0.45,2.15,5.7,-0.96,-4.11
13.52308201789856,2,3,3,0,-9.44,-0.23,2.18,5.95,-0.55,-4.14
13.53308200836182,2,3,3,0,-9.52,0.13,2.09,6.25,0.1,-3.97
13.54308199882507,2,3,3,0,-9.699999999999999,0.88,2.21,6.31,0.73,-3.62
13.55308198928833,2,3,3,0,-9.84,1.19,2.35,6.08,1.04,-3.14
13.56308197975159,2,3,3,0,-9.970000000000001,1.43,2.54,5.85,0.76,-2.66
13.57308197021484,2,3,3,0,-10.07,1.47,2.76,5.75,-0.05,-2.3
13.5830819606781,2,3,3,0,-10.2,1.22,3.32,5.77,-0.92,-2.06
13.59308195114136,2,3,3,0,-10.09,0.96,3.86,6.09,-1.35,-2.03
13.60308194160461,2,3,3,0,-10.16,0.6,4.54,6.59,-1.14,-2.12
13.61308193206787,2,3,3,0,-10.51,0.47,5.06,6.59,-0.48,-1.99
13.62308192253113,2,3,3,0,-11.13,0.55,4.01,5.11,0.54,-1.28
13.63308191299438,2,3,3,0,-11.15,0.6,3.43,2.93,3,-0.16
13.64308190345764,2,3,3,0,-11.15,0.7,3.4,1.53,6.21,0.76
13.65308213233948,2,3,3,0,-11.4,0.5,3.69,0.48,8.130000000000001,1.27
13.66308212280273,2,3,3,0,-12.77,-0.38,2.5,-1.18,9.19,1.46
13.67308211326599,2,3,3,0,-13.36,-0.83,0.82,-4.03,10.64,1.71
13.68308210372925,2,3,3,0,-13.71,-1.41,-0.49,-7.18,12.27,1.85
13.6930820941925,2,3,3,0,-13.91,-2.21,-0.61,-9.210000000000001,12.21,1.88
13.70308208465576,2,3,3,0,-13.25,-3.95,0.1,-10.53,9.789999999999999,1.93
13.71308207511902,2,3,3,0,-13.25,-3.95,0.1,-11.92,6.74,1.95
13.72308206558228,2,3,3,0,-12.6,-5.64,0.14,-10.91,5.79,2.65
13.73308205604553,2,3,3,0,-11.51,-7.88,-0.48,-9.02,4.79,3.08
13.74408197402954,2,3,3,0,-10.8,-8.94,-0.33,-4.79,4.52,4.28
13.7540819644928,2,3,3,0,-10.09,-8.93,0.04,0.92,4.34,4.99
13.76408195495605,2,3,3,0,-10.09,-8.93,0.04,7.19,2.53,5.69
13.77408194541931,2,3,3,0,-9.390000000000001,-8.02,0.66,12.04,0.17,6.22
13.78408193588257,2,3,3,0,-6.83,-3.97,2.25,15.45,-0.82,6.89
13.79408192634583,2,3,3,0,-6.95,-2.69,2.65,17.68,-0.57,7.69
13.80408191680908,2,3,3,0,-7.34,-1.49,3.01,18.41,-0.63,8.109999999999999
13.81408190727234,2,3,3,0,-7.34,-1.49,3.01,17.36,-1.32,7.96
13.82408213615417,2,3,3,0,-8.06,0.93,3.28,13.97,-2.14,7.31
13.83408212661743,2,3,3,0,-9.07,2.15,3.22,9.42,-3.03,6.49
13.84408211708069,2,3,3,0,-9.58,2.33,3.1,4.93,-4.07,5.64
13.85408210754395,2,3,3,0,-10.59,1.57,2.71,0.73,-5.14,4.92
13.8640820980072,2,3,3,0,-10.59,1.57,2.71,-2.45,-6.62,4.01
13.87408208847046,2,3,3,0,-10.79,1.16,2.47,-4.79,-8.449999999999999,2.85
13.88408207893372,2,3,3,0,-10.34,0.35,1.86,-6.28,-9.44,2.63
13.89408206939697,2,3,3,0,-9.43,0.01,1.81,-7.04,-9.6,2.94
13.90408205986023,2,3,3,0,-8.66,-0.07000000000000001,1.89,-7.91,-9.91,3.26
13.91408205032349,2,3,3,0,-8.66,-0.07000000000000001,1.89,-7.91,-9.91,3.26
13.92408204078674,2,3,3,0,-7.92,-0.36,2.04,-9.279999999999999,-9.970000000000001,3.67
13.93408203125,2,3,3,0,-6.97,-1.11,2.87,-9.48,-9.539999999999999,4.21
13.94408202171326,2,3,3,0,-7.26,-1.25,2.94,-9.869999999999999,-8.65,4.89
13.95408201217651,2,3,3,0,-7.82,-1.4,3.05,-10.28,-7.86,5.58
13.96408200263977,2,3,3,0,-7.82,-1.4,3.05,-10.28,-7.86,5.58
13.97408199310303,2,3,3,0,-8.56,-1.76,2.78,-10.58,-7.75,6.17
13.98408198356628,2,3,3,0,-8.779999999999999,-1.73,2.4,-9.84,-7.39,6.64
13.99408197402954,2,3,3,0,-8.69,-1.55,2.49,-8.41,-6.96,6.62
14.0040819644928,2,3,3,0,-8.67,-1.37,2.93,-6.89,-6.78,6.11
14.01408195495605,2,3,3,0,-8.67,-1.37,2.93,-6.89,-6.78,6.11
14.02408194541931,2,3,3,0,-8.69,-1.2,3.17,-5.16,-6.37,4.21
14.03408193588257,2,3,3,0,-8.85,-0.9,3.4,-4.8,-5.73,3.2
14.04408192634583,2,3,3,0,-9.26,-0.57,3.77,-4.49,-5.07,2.63
14.05408191680908,2,3,3,0,-9.19,-0.31,3.71,-4.28,-4.95,2.2
14.06408190727234,2,3,3,0,-9.19,-0.31,3.71,-4.28,-4.95,2.2
14.07408213615417,2,3,3,0,-8.890000000000001,-0.05,3.47,-4.24,-4.87,1.78
14.08408212661743,2,3,3,0,-8.130000000000001,0.4,2.98,-4.33,-2.71,0.5
14.09408211708069,2,3,3,0,-8.08,0.34,3.07,-4.07,-1.67,0.08
14.10408210754395,2,3,3,0,-7.97,0.27,3.15,-3.93,-1.32,-0.32
14.1140820980072,2,3,3,0,-7.97,0.27,3.15,-3.93,-1.32,-0.32
14.12408208847046,2,3,3,0,-7.91,0.23,3.17,-4.65,-0.98,-0.85
14.13408207893372,2,3,3,0,-7.63,0.25,3,-5.28,-0.41,-1.04
14.14408206939697,2,3,3,0,-7.53,0.27,2.86,-5.33,0.4,-1.16
14.15408205986023,2,3,3,0,-7.44,0.36,3.06,-5.17,1.14,-1.33
14.16408205032349,2,3,3,0,-7.04,0.63,3.25,-5.17,1.14,-1.33
14.17408204078674,2,3,3,0,-6.82,0.72,3.37,-4.92,2.03,-1.54
14.18408203125,2,3,3,0,-6.68,0.82,3.59,-3.54,4.56,-1.5
14.19408202171326,2,3,3,0,-6.62,0.89,3.7,-2.95,5.35,-1.3
14.20408201217651,2,3,3,0,-6.71,0.99,4.08,-2.91,5.69,-1.08
14.21408200263977,2,3,3,0,-6.84,1,4,-2.91,5.69,-1.08
14.22408199310303,2,3,3,0,-7.03,0.96,3.85,-3.09,6,-0.77
14.23408198356628,2,3,3,0,-7.34,0.84,3.76,-3.59,6.3,-0.21
14.24408197402954,2,3,3,0,-8.32,0.68,3.47,-4.09,5.68,0
14.2540819644928,2,3,3,0,-8.77,0.5,3.4,-5.17,4.93,0.26
14.26408195495605,2,3,3,0,-9.24,0.12,3.27,-5.17,4.93,0.26
14.27408194541931,2,3,3,0,-9.390000000000001,-0.34,2.91,-6.96,4.17,0.42
14.28408193588257,2,3,3,0,-9.550000000000001,-2.08,2.76,-9.59,3.69,-1.17
14.29408192634583,2,3,3,0,-9.949999999999999,-2.85,2.33,-9.27,3.05,-2.74
14.30408191680908,2,3,3,0,-10.57,-3.27,1.67,-6.45,1.88,-3.73
14.31408190727234,2,3,3,0,-11.82,-2.16,2,-6.45,1.88,-3.73
14.32408213615417,2,3,3,0,-11.76,-1.12,3.11,-1.5,-0.05,-3.52
14.33408212661743,2,3,3,0,-11.14,-0.01,4.6,8.1,-4.78,-0.35
14.34408211708069,2,3,3,0,-10.47,0.89,6.19,8.43,-6.91,2.69
14.35408210754395,2,3,3,0,-10.17,1.76,7.47,3.45,-8.710000000000001,6.03
14.3640820980072,2,3,3,0,-10.31,1.89,7.02,3.45,-8.710000000000001,6.03
14.37408208847046,2,3,3,0,-10.9,1.83,6.69,-2.18,-7.36,8.77
14.38408207893372,2,3,3,0,-12.92,1.7,6.51,-3.96,-1.24,10.31
14.39408206939697,2,3,3,0,-18.12,1.46,6.61,-4.08,-1.62,6.67
14.40408205986023,2,3,3,0,-19.03,1.14,4.59,-2.14,-0.38,0.92
14.41408205032349,2,3,3,0,-18.19,1.06,2.58,-2.14,-0.38,0.92
14.42408204078674,2,3,3,0,-16.08,1.04,2.1,2.81,-0.23,-3.34
14.43408203125,2,3,3,0,-9.359999999999999,0.18,5.51,6.36,-8.81,-4.22
14.44408202171326,2,3,3,0,-6.57,-0.78,6.46,5.41,-7.87,-2.71
14.45408201217651,2,3,3,0,-5.01,-1.73,5.88,4.66,-3.17,-0.87
14.46408200263977,2,3,3,0,-5.16,-2.09,4.87,4.66,-3.17,-0.87
14.47408199310303,2,3,3,0,-8.119999999999999,-1.14,4.04,3.02,0.9399999999999999,0.12
14.48408198356628,2,3,3,0,-9.56,-0.44,3.43,-4.29,2.11,-0.16
14.49408197402954,2,3,3,0,-10.5,-0.15,2.43,-5.56,3.81,-1.6
14.5040819644928,2,3,3,0,-11.07,-0.66,0.22,-5.73,5.11,-3.43
14.51408195495605,2,3,3,0,-10.59,-1.42,-0.26,-5.73,5.11,-3.43
14.52408194541931,2,3,3,0,-9.869999999999999,-2.21,-0.09,-6.34,3.6,-4.87
14.53408193588257,2,3,3,0,-8.800000000000001,-2.9,0.44,-6.94,-3.34,-5.08
14.54408192634583,2,3,3,0,-6.69,-3.43,1.34,-6.7,-4.69,-3.21
14.55408191680908,2,3,3,0,-6.12,-3.44,1.76,-5.98,-4.04,-1.12
14.56408190727234,2,3,3,0,-5.93,-3.39,2.15,-5.98,-4.04,-1.12
14.57408213615417,2,3,3,0,-5.93,-3.15,2.42,-4.87,-2.55,0.6
14.58408212661743,2,3,3,0,-6.24,-2.69,2.52,-3.49,0.87,2.99
14.59408211708069,2,3,3,0,-6.55,-2.51,2.56,-3.09,2.87,3.59
14.60408210754395,2,3,3,0,-6.85,-2.39,2.55,-2.72,4.98,3.56
14.6140820980072,2,3,3,0,-7.2,-2.49,2.18,-2.72,4.98,3.56
14.62408208847046,2,3,3,0,-8.06,-2.8,1.37,-1.52,7.24,2.98
14.63408207893372,2,3,3,0,-8.25,-2.63,0.99,3.03,8.800000000000001,0.93
14.64408206939697,2,3,3,0,-8.48,-2.95,0.48,5.8,8.07,0.09
14.65408205986023,2,3,3,0,-8.720000000000001,-2.95,0.34,8.41,6.62,-0.9
14.66408205032349,2,3,3,1,-8.82,-2.89,0.57,8.41,6.62,-0.9
14.67408204078674,2,3,3,1,-8.880000000000001,-2.6,0.75,10.45,5.12,-1.53
14.68408203125,2,3,3,1,-8.9,-2,1.02,11.43,3.7,-1.84
14.69408202171326,2,3,3,1,-8.83,-1.34,1.15,10.95,3.15,-1.9
14.70408201217651,2,3,3,1,-8.69,-0.08,1.8,9.94,2.96,-1.94
14.71408200263977,2,3,3,1,-8.720000000000001,0.22,2.1,9.94,2.96,-1.94
14.72408199310303,2,3,3,1,-8.94,0.39,2.33,8.83,3.07,-1.99
14.73408198356628,2,3,3,1,-9.550000000000001,0.49,2.42,6.42,3.04,-2.29
14.74408197402954,2,3,3,1,-9.81,0.65,2.27,5.2,2.81,-2.47
14.75508213043213,2,3,3,1,-10,0.78,2.06,4.2,2.33,-2.55
14.76408195495605,2,3,3,1,-10.04,0.91,2.06,4.2,2.33,-2.55
14.77508211135864,2,3,3,1,-9.779999999999999,0.78,2.08,3.24,1.58,-2.73
14.7850821018219,2,3,3,1,-9.57,0.4,1.96,1.61,1.1,-3.55
14.79508209228516,2,3,3,1,-9.539999999999999,0.23,1.75,0.96,1.67,-4.13
14.80508208274841,2,3,3,1,-9.57,0,1.72,0.7,2.18,-4.83
14.81508207321167,2,3,3,2,-9.83,-0.53,1.94,0.7,2.18,-4.83
14.82508206367493,2,3,3,2,-9.779999999999999,-0.66,1.83,0.8,2.12,-5.48
14.83508205413818,2,3,3,2,-9.66,-0.77,1.86,2.09,0.9399999999999999,-6.03
14.84508204460144,2,3,3,2,-9.470000000000001,-0.85,1.92,2.71,0.15,-5.85
14.8550820350647,2,3,3,2,-9.1,-1.04,2.03,3.5,-0.3,-5.46
14.86508202552795,2,3,3,2,-9.07,-1.09,2.32,3.5,-0.3,-5.46
14.87508201599121,2,3,3,2,-9.07,-1.07,2.39,4.2,-0.77,-5.08
14.88508200645447,2,3,3,2,-9.119999999999999,-0.89,2.27,5.36,-1.07,-4.86
14.89508199691772,2,3,3,2,-9.199999999999999,-0.59,2.19,6.28,-1.38,-4.91
14.90508198738098,2,3,3,2,-9.19,-0.29,2.24,7.2,-1.88,-4.98
14.91508197784424,2,3,3,3,-9.130000000000001,0.03,2.27,7.2,-1.88,-4.98
14.9250819683075,2,3,3,3,-9.02,0.43,2.57,7.94,-2.4,-5.05
14.93508195877075,2,3,3,3,-9.02,0.41,2.57,8.24,-2.77,-4.98
14.94508194923401,2,3,3,3,-9.050000000000001,0.36,2.4,8.08,-2.28,-5.05
14.95508193969727,2,3,3,3,-9.210000000000001,0.34,2.38,8.06,-1.72,-5.3
14.96508193016052,2,3,3,3,-9.34,0.5,2.66,8.06,-1.72,-5.3
14.97508192062378,2,3,3,3,-9.34,0.76,2.7,8.02,-0.88,-5.51
14.98508191108704,2,3,3,3,-9.32,1.07,2.35,7.07,1.57,-5.28
14.99508190155029,2,3,3,3,-9.359999999999999,1.39,1.92,7.05,1.87,-4.78
15.00508213043213,2,3,3,3,-9.76,1.63,2.72,7.25,1.09,-4.25
15.01508212089539,2,3,3,3,-9.84,1.21,3.69,7.25,1.09,-4.25
15.02508211135864,2,3,3,3,-10.03,0.49,4.65,7.62,0.19,-3.79
15.0350821018219,2,3,3,3,-10.35,-0.04,5.18,6.65,-0.21,-2.3
15.04508209228516,2,3,3,3,-10.67,-0.22,4.78,5.44,1.77,-0.98
15.05508208274841,2,3,3,3,-10.78,-0.11,4.76,4.06,4.23,0.3
15.06508207321167,2,3,3,3,-11.01,0.2,4.73,4.06,4.23,0.3
15.07508206367493,2,3,3,3,-11.93,0.37,4,1.92,6.28,1.51
15.08508205413818,2,3,3,3,-12.58,0.42,3.17,-3.17,10.85,3.62
15.09508204460144,2,3,3,3,-13.32,0.36,1.75,-6.51,13.36,3.74
15.1050820350647,2,3,3,3,-14.1,-0.31,0.31,-8.32,15.24,2.8
15.11508202552795,2,3,3,3,-15.1,-2.35,0.43,-8.32,15.24,2.8
15.12508201599121,2,3,3,3,-15.1,-3.98,1.25,-7.76,15.65,1.55
15.13508200645447,2,3,3,3,-14.86,-5.52,1.33,-5.73,11.05,0.39
15.14508199691772,2,3,3,3,-14.08,-6.81,0.66,-5.02,6.69,1.07
15.15508198738098,2,3,3,3,-11.1,-8.300000000000001,-0.5,-2.78,3.96,2.58
15.16508197784424,2,3,3,3,-9.789999999999999,-8.279999999999999,-0.45,-2.78,3.96,2.58
15.1750819683075,2,3,3,3,-8.720000000000001,-7.97,-0.01,0.78,3.38,4.34
15.18508195877075,2,3,3,3,-8.31,-7.27,0.5,5.16,3.4,6.14
15.20508193969727,2,3,3,3,-7.76,-3.18,2.71,12.41,3.01,7.86
15.21508193016052,2,3,3,3,-8.01,-2.06,3.14,13.47,2.32,8.119999999999999
15.22508192062378,2,3,3,3,-8.31,-1.06,3.53,13.88,0.6,7.82
15.23508191108704,2,3,3,3,-8.57,0.63,3.58,10.45,-2.67,6.12
15.24508190155029,2,3,3,3,-8.76,1.15,3.23,10.45,-2.67,6.12
15.25508213043213,2,3,3,3,-9.119999999999999,1.37,3.17,6.7,-3.18,5.15
15.26508212089539,2,3,3,2,-9.460000000000001,1.5,2.59,3.24,-4.34,4.33
15.27508211135864,2,3,3,2,-9.529999999999999,1.35,2.3,0.08,-5.52,3.46
15.2850821018219,2,3,3,2,-9.57,1.08,2.15,-2.49,-6.85,2.58
15.29508209228516,2,3,3,2,-9.550000000000001,0.88,1.83,-4.55,-8.210000000000001,2.09
15.30508208274841,2,3,3,2,-8.970000000000001,0.73,1.59,-6.14,-9.33,2.26
15.31508207321167,2,3,3,2,-8.66,0.49,1.7,-7.05,-10.11,2.85
15.32508206367493,2,3,3,2,-8.359999999999999,0.15,1.84,-7.52,-10.83,3.42
15.33508205413818,2,3,3,2,-8.039999999999999,-0.17,2.03,-7.79,-11.86,3.86
15.34508204460144,2,3,3,2,-7.14,-0.65,2.33,-8.470000000000001,-12.86,4.2
15.3550820350647,2,3,3,2,-6.71,-0.93,2.19,-9.99,-13.29,4.32
15.36508202552795,2,3,3,2,-6.71,-1.21,2.27,-11.51,-11.68,4.54
15.37508201599121,2,3,3,1,-7.03,-1.35,2.6,-11.82,-8.880000000000001,4.97
15.38508200645447,2,3,3,1,-8.08,-1.71,3.15,-10.93,-6.78,5.09
15.39508199691772,2,3,3,1,-8.359999999999999,-1.79,3.05,-9.51,-5.92,4.91
15.40508198738098,2,3,3,1,-8.59,-1.83,3.03,-8.1,-5.65,4.6
15.41508197784424,2,3,3,1,-8.57,-1.68,2.93,-6.58,-5.58,4.43
15.4250819683075,2,3,3,1,-8.32,-1.17,2.89,-5.35,-5.19,4.2
15.43508195877075,2,3,3,1,-8.31,-0.83,2.97,-4.27,-4.61,3.85
15.44508194923401,2,3,3,1,-8.41,-0.48,3.02,-3.62,-3.99,3.55
15.45508193969727,2,3,3,1,-8.65,0.05,3.46,-3.3,-3.6,3.22
15.46508193016052,2,3,3,1,-8.66,0.25,3.58,-3.47,-3.58,2.99
15.47508192062378,2,3,3,1,-8.65,0.25,3.56,-4.01,-3.5,2.74
15.48508191108704,2,3,3,1,-8.529999999999999,0.26,3.49,-4.68,-3.44,2.33
15.49508190155029,2,3,3,1,-8.19,0.3,3.16,-5.33,-2.98,1.82
15.50508213043213,2,3,3,1,-8,0.45,3.14,-5.45,-2.27,1.18
15.51508212089539,2,3,3,1,-7.75,0.54,3.18,-5.2,-1.52,0.48
15.52508211135864,2,3,3,1,-7.6,0.59,3.25,-4.66,-0.66,-0.21
15.5350821018219,2,3,3,1,-7.24,0.68,3.27,-4.07,0,-0.78
15.54508209228516,2,3,3,1,-7.12,0.68,3.27,-3.54,0.57,-1.23
15.55508208274841,2,3,3,1,-7.06,0.78,3.44,-2.94,1.31,-1.63
15.56508207321167,2,3,3,1,-7,1,3.59,-2.37,2.02,-1.92
15.57508206367493,2,3,3,1,-7.09,1.45,3.76,-2.39,2.88,-1.84
15.58508205413818,2,3,3,1,-7.27,1.63,3.86,-2.45,3.64,-1.42
15.59508204460144,2,3,3,1,-7.28,1.8,3.78,-2.6,3.68,-0.97
15.6050820350647,2,3,3,1,-7.31,1.86,3.79,-3.05,3.75,-0.63
15.61508202552795,2,3,3,1,-7.8,1.73,4.24,-3.1,4.15,-0.14
15.62508201599121,2,3,3,1,-8.07,1.45,4.4,-3.21,4.09,0.58
15.63508200645447,2,3,3,1,-8.24,1.08,4.4,-4.07,3.32,1.1
15.64508199691772,2,3,3,1,-8.220000000000001,-0.3,3.54,-6.43,2.45,1.39
15.65508198738098,2,3,3,1,-8.18,-1.44,3.57,-9.17,2.42,1.64
15.66508197784424,2,3,3,1,-8.300000000000001,-2.7,3.36,-11.64,2.45,1.6
15.6750819683075,2,3,3,1,-8.51,-3.63,2.21,-14.08,2.41,0.5600000000000001
15.68508195877075,2,3,3,1,-11.06,-3.57,0.5600000000000001,-13.65,4.08,-1.41
15.69508194923401,2,3,3,1,-13.3,-2.69,1.99,-8.029999999999999,6.42,-2.64
15.70508193969727,2,3,3,1,-15.09,-1.44,4.35,1.22,4.7,-2.65
15.71508193016052,2,3,3,1,-15.57,-0.02,6,8.859999999999999,-1.35,-1.57
15.72508192062378,2,3,3,1,-12.98,0.95,5.92,10.24,-7.2,0.72
15.73508191108704,2,3,3,1,-11.67,1.23,5.64,7.75,-8.460000000000001,3.84
15.74508190155029,2,3,3,1,-11.34,1.69,6.02,4.33,-5.64,7.03
15.75508213043213,2,3,3,1,-11.87,1.92,6.48,1.67,-3.45,9.06
15.76508212089539,2,3,3,1,-14.08,2.32,6.06,0.41,-3.25,9.42
15.77508211135864,2,3,3,2,-16.15,1.82,5.83,-1.41,-3.87,7.27
15.7850821018219,2,3,3,2,-18.66,1.26,4.93,-3.27,-3.52,2.65
15.79608201980591,2,3,3,2,-19.23,1.02,4.35,-0.06,-3.8,-2.22
15.80608201026917,2,3,3,2,-12.42,-1.19,4.18,2.16,-6.15,-4
15.81608200073242,2,3,3,2,-9,-1.53,5.31,1.36,-8.5,-3.5
15.82608199119568,2,3,3,2,-6.42,-1.72,5.48,-0.18,-7.99,-2.3
15.83608198165894,2,3,3,2,-5.47,-1.89,3.62,-2.41,-4.6,-1.45
15.84608197212219,2,3,3,2,-6.68,-1.67,2.71,-4.2,-0.84,-1.29
15.85608196258545,2,3,3,2,-8.050000000000001,-1.24,2.06,-5.62,1.4,-1.97
15.86608195304871,2,3,3,2,-9.25,-1.12,1.45,-6.89,2.78,-2.52
15.87608194351196,2,3,3,2,-9.81,-1.82,-0.07000000000000001,-7.76,3.77,-3.3
15.88608193397522,2,3,3,2,-9.19,-2.43,-0.53,-8.48,3.56,-4.24
15.89608192443848,2,3,3,2,-8.390000000000001,-3.21,-0.44,-8.6,2.16,-5.04
15.90608191490173,2,3,3,2,-7.53,-3.71,0.08,-8.029999999999999,-0.14,-5.08
15.91608190536499,2,3,3,2,-6.33,-3.92,1.34,-6.99,-2.24,-4.34
15.92608213424683,2,3,3,2,-6.04,-3.88,1.7,-5.75,-2.87,-2.93
15.93608212471008,2,3,3,2,-5.93,-3.78,1.98,-4.44,-2.28,-1.41
15.94608211517334,2,3,3,2,-6,-3.61,2.05,-3.23,-1.03,0.19
15.9560821056366,2,3,3,2,-6.33,-3.29,2.18,-2.15,0.45,1.6
15.96608209609985,2,3,3,2,-6.7,-3.18,2.15,-1.12,2.27,2.78
15.97608208656311,2,3,3,2,-7.16,-3.15,1.99,-0.15,4.16,3.19
15.98608207702637,2,3,3,2,-7.7,-3.15,1.64,1.22,6.05,2.98
15.99608206748962,2,3,3,2,-8.59,-3,0.9,3.06,7.56,2.39
16.00608205795288,2,3,3,2,-8.74,-2.85,0.67,5.39,8.119999999999999,1.37
16.01608204841614,2,3,3,2,-9.1,-3.06,0.54,8.050000000000001,7.91,0.2
16.02608203887939,2,3,3,2,-9.51,-2.46,0.61,10.68,7.25,-0.72
16.03608202934265,2,3,3,2,-9.41,-1.92,0.91,12.72,5.83,-1.51
16.04608201980591,2,3,3,2,-9.289999999999999,-1.28,1.25,13.68,4.42,-2.24
16.05608201026917,2,3,3,2,-9.050000000000001,-0.57,1.37,13.64,3.22,-2.67
16.06608200073242,2,3,3,2,-8.31,0.41,2.39,12.84,2.44,-2.98
16.07608199119568,2,3,3,2,-8.220000000000001,0.5600000000000001,2.74,11.35,2.26,-3.17
16.08608198165894,2,3,3,2,-8.359999999999999,0.54,3,9.300000000000001,2.81,-3.19
16.09608197212219,2,3,3,2,-8.880000000000001,0.54,2.73,7.14,3.72,-3.23
16.10608196258545,2,3,3,2,-10.02,0.52,2.35,5.14,4.17,-3.17
16.11608195304871,2,3,3,2,-10.15,0.48,2.03,3.86,3.81,-3.17
16.12608194351196,2,3,3,2,-10.09,0.33,1.55,3.13,3.18,-3.12
16.13608193397522,2,3,3,2,-10,0.27,1.52,3.12,2.57,-3.01
16.14608192443848,2,3,3,2,-9.529999999999999,0.43,1.53,3.33,1.85,-3.11
16.15608191490173,2,3,3,2,-9.289999999999999,0.52,1.89,3.4,1.3,-3.26
16.16608190536499,2,3,3,2,-9.15,0.51,2.26,3.25,0.68,-3.51
16.17608213424683,2,3,3,2,-9.1,0.47,2.41,2.67,0.25,-3.6
16.18608212471008,2,3,3,2,-9.140000000000001,0.4,2.57,1.79,0.33,-3.69
16.19608211517334,2,3,3,2,-9.199999999999999,0.21,2.33,0.73,0.86,-3.85
16.2060821056366,2,3,3,2,-9.210000000000001,-0.06,2.35,0.15,1.42,-3.95
16.21608209609985,2,3,3,2,-9.27,-0.59,2.22,-0.06,1.56,-4
16.22608208656311,2,3,3,2,-9.32,-0.74,2.2,0.02,1.33,-4.05
16.23608207702637,2,3,3,2,-9.369999999999999,-0.85,2.03,0.27,0.93,-4.09
16.24608206748962,2,3,3,2,-9.34,-0.92,1.8,0.51,0.5600000000000001,-4.24
16.25608205795288,2,3,3,2,-9.41,-0.5600000000000001,1.72,1.27,0.4,-4.56
16.26608204841614,2,3,3,2,-9.43,-0.31,1.69,2.13,0.27,-4.91
16.27608203887939,2,3,3,2,-9.4,0.07000000000000001,1.77,3.11,-0.13,-5.39
16.28608202934265,2,3,3,2,-9.279999999999999,0.4,2.04,4.14,-1,-5.83
16.29608201980591,2,3,3,2,-8.99,0.45,2.38,5.06,-1.67,-6.13
16.30608201026917,2,3,3,2,-8.94,0.23,2.59,5.47,-1.92,-6.31
16.31608200073242,2,3,3,2,-8.960000000000001,0,2.65,5.46,-1.96,-6.18
16.32608199119568,2,3,3,2,-9.02,-0.28,2.36,5.08,-1.93,-5.87
16.33608198165894,2,3,3,2,-9.140000000000001,-0.55,2.08,4.85,-1.88,-5.48
16.34608197212219,2,3,3,2,-9.18,-0.62,2.24,5.12,-1.77,-5.19
16.35608196258545,2,3,3,2,-9.15,-0.46,2.46,5.19,-1.07,-4.94
16.36608195304871,2,3,3,2,-9.119999999999999,-0.13,2.41,4.9,0.32,-4.69
16.37608194351196,2,3,3,2,-9.359999999999999,0.92,2.26,4.97,1.85,-4.28
16.38608193397522,2,3,3,2,-9.74,1.38,2.67,5.75,2.32,-3.54
16.39608192443848,2,3,3,2,-10.13,1.44,3.31,6.7,1.34,-2.82
16.40608191490173,2,3,3,2,-10.78,0.61,4.77,7.34,-0.14,-2.38
16.41608190536499,2,3,3,2,-11.06,0.39,5.19,7.45,-1.34,-2.05
16.42608213424683,2,3,3,1,-11.36,0.31,5.08,6.66,-1.87,-1.35
16.43608212471008,2,3,3,1,-11.42,0.36,4.68,5.12,-0.35,-0.23
16.44608211517334,2,3,3,1,-11.51,0.87,4.08,3.71,3.07,1
16.4560821056366,2,3,3,1,-11.76,0.92,3.75,2.16,6.21,1.82
16.46608209609985,2,3,3,1,-12.19,0.76,3.2,0.05,8.18,2.16
16.47608208656311,2,3,3,1,-12.75,0.46,2.37,-2.04,9.92,2.28
16.48608207702637,2,3,3,1,-14.01,-0.34,0.16,-3.94,11.98,2.46
16.49608206748962,2,3,3,1,-14.41,-1.18,-0.07000000000000001,-5.66,13.49,2.55
16.50608205795288,2,3,3,1,-14.33,-2.31,0.25,-6.54,13.19,2.25
16.51608204841614,2,3,3,1,-13.77,-3.72,0.34,-7.3,11.02,2.01
16.52608203887939,2,3,3,1,-11.47,-6.31,-0.34,-8.43,8.300000000000001,2.07
16.53608202934265,2,3,3,1,-10.39,-7.38,-0.68,-8.630000000000001,5.66,2.6
16.54608201980591,2,3,3,1,-9.640000000000001,-8.42,-0.77,-7.11,4.37,3.34
16.55608201026917,2,3,3,1,-9.19,-8.880000000000001,-0.44,-3.47,4.24,4.82
16.56608200073242,2,3,3,1,-8.699999999999999,-8.25,0.82,2.22,4.8,6.5
16.57608199119568,2,3,3,1,-8.460000000000001,-6.73,1.38,8.890000000000001,4.59,7.44
16.58608198165894,2,3,3,1,-8.109999999999999,-5.35,1.79,13.48,2.92,7.94
16.59608197212219,2,3,3,1,-8.6,-2.75,2.66,16.2,1.78,8.52
16.60608196258545,2,3,3,1,-9.01,-1.52,3.08,17.45,0.48,8.52
16.61608195304871,2,3,3,1,-9.300000000000001,-0.17,3.37,17.66,-1.53,7.98
16.62608194351196,2,3,3,1,-9.460000000000001,1.02,3.47,16.2,-3.46,6.85
16.63608193397522,2,3,3,1,-9.970000000000001,2.47,3.42,12.77,-4.44,5.55
16.64608192443848,2,3,3,1,-10.09,2.69,3.22,8.390000000000001,-5,4.44
16.65608191490173,2,3,3,1,-10.22,2.46,3.05,3.48,-5.75,3.65
16.66608190536499,2,3,3,1,-10.44,2.19,2.97,-0.79,-6.79,2.79
16.67608213424683,2,3,3,1,-10.3,1.01,2.54,-4.23,-8.73,2.19
16.68608212471008,2,3,3,1,-9.970000000000001,0.59,2.19,-6.82,-10.38,1.83
16.69608211517334,2,3,3,1,-9.49,0.34,1.84,-8.57,-11.48,1.93
16.7060821056366,2,3,3,1,-8.9,0.11,1.59,-9.35,-11.6,2.45
16.71608209609985,2,3,3,1,-7.6,-0.29,1.81,-9.609999999999999,-11.13,3.09
16.72608208656311,2,3,3,1,-7.13,-0.61,2.29,-10.01,-11.14,3.63
16.73608207702637,2,3,3,1,-6.68,-0.77,2.61,-10.29,-11.46,4.05
16.74608206748962,2,3,3,1,-6.53,-0.92,2.78,-10.73,-11.33,4.49
16.75608205795288,2,3,3,1,-7.11,-1.14,3.15,-11.34,-10.64,4.9
16.76608204841614,2,3,3,1,-7.59,-1.34,3.14,-11.46,-9.390000000000001,5.3
16.77608203887939,2,3,3,1,-7.91,-1.56,2.95,-11.12,-8.369999999999999,5.64
16.78608202934265,2,3,3,1,-8.44,-1.79,2.74,-10.26,-7.67,5.9
16.79608201980591,2,3,3,1,-8.56,-1.45,2.65,-8.41,-7.24,6.17
16.80608201026917,2,3,3,1,-8.369999999999999,-1.2,2.73,-6.32,-7.02,6
16.81708192825317,2,3,3,1,-8.27,-0.95,2.95,-4.6,-6.81,5.29
16.82708191871643,2,3,3,2,-8.119999999999999,-0.12,3.43,-3.07,-6.42,4.33
16.83708190917969,2,3,3,2,-7.92,0.19,3.57,-2.31,-6.14,3.52
16.84708189964294,2,3,3,2,-7.77,0.4,3.63,-2.36,-5.64,2.91
16.85708212852478,2,3,3,2,-7.7,0.5600000000000001,3.8,-2.86,-4.7,2.63
16.86708211898804,2,3,3,2,-7.76,1.01,3.87,-3.71,-3.72,2.37
16.87708210945129,2,3,3,2,-7.72,1.14,3.77,-4.81,-2.8,2.04
16.88708209991455,2,3,3,2,-7.7,1.15,3.61,-5.76,-2.09,1.58
16.89708209037781,2,3,3,2,-7.6,1.12,3.4,-6.61,-1.24,1.02
16.90708208084106,2,3,3,2,-7.4,0.95,3.37,-7.01,-0.23,0.36
16.91708207130432,2,3,3,2,-7.24,0.85,3.35,-6.97,0.62,-0.28
16.92708206176758,2,3,3,2,-7.08,0.78,3.37,-6.72,1.25,-0.88
16.93708205223083,2,3,3,2,-6.97,0.7,3.42,-6.26,2.11,-1.54
16.94708204269409,2,3,3,2,-7.06,0.72,3.52,-5.64,3.05,-2.09
16.95708203315735,2,3,3,2,-7.17,0.88,3.59,-4.99,3.86,-2.48
16.96708202362061,2,3,3,2,-7.22,1.02,3.66,-4.67,4.69,-2.71
16.97708201408386,2,3,3,3,-7.67,1.36,3.89,-4.43,5.52,-2.6
16.98708200454712,2,3,3,3,-7.83,1.49,3.91,-4.17,5.86,-2.46
16.99708199501038,2,3,3,3,-7.9,1.58,3.88,-3.99,5.95,-2.31
17.00708198547363,2,3,3,3,-8.17,1.51,4.1,-3.49,6.3,-1.92
17.01708197593689,2,3,3,3,-8.81,1.08,4.34,-3.04,6.23,-1.15
17.02708196640015,2,3,3,3,-8.85,0.67,4.3,-3.72,5.28,-0.33
17.0370819568634,2,3,3,3,-8.949999999999999,-0.06,4.35,-5.33,4.44,0.45
17.04708194732666,2,3,3,3,-9.09,-1.13,4.28,-7.59,3.59,1.15
17.05708193778992,2,3,3,3,-9.42,-4.03,2.79,-11.1,2.27,1.02
17.06708192825317,2,3,3,3,-9.85,-4.77,0.72,-14.47,1.54,-0.44
17.07708191871643,2,3,3,3,-11.14,-4.34,-0.1,-14.07,3.78,-2.59
17.08708190917969,2,3,3,3,-13.28,-3.17,1.94,-6.36,6.11,-3.53
17.09708189964294,2,3,3,3,-15.55,0.09,6.3,5.33,2.04,-2.72
17.10708212852478,2,3,3,3,-13.57,1.31,6.07,13.2,-6.96,0.14
17.11708211898804,2,3,3,3,-11.16,2.06,5.48,13.03,-12.59,3.85
17.12708210945129,2,3,3,3,-9.15,2.52,5.75,9.039999999999999,-10.51,6.66
17.13708209991455,2,3,3,3,-9.85,4.1,7.24,6,-4.27,9.119999999999999
17.14708209037781,2,3,3,3,-11.26,3.69,6.94,3.53,-1.14,11.78
17.15708208084106,2,3,3,3,-13.04,2.42,6.2,-1.31,-1.14,11.49
17.16708207130432,2,3,3,3,-18.96,0.92,3.87,-5.7,-1.61,7.5
17.17708206176758,2,3,3,3,-18.64,0.46,3.68,-5.69,-3.27,2.15
17.18708205223083,2,3,3,3,-16.15,-1.25,3.22,-3.2,-3.23,-1.66
17.19708204269409,2,3,3,3,-13.67,-2.48,3.05,-1.74,-3.29,-3.36
17.20708203315735,2,3,3,3,-8.09,-2.81,3.96,-1.85,-5.24,-4.08
17.21708202362061,2,3,3,3,-6.36,-2.88,3.4,-3.11,-5.12,-4.5
17.22708201408386,2,3,3,3,-6.22,-3.13,2.6,-4.92,-3.04,-4.24
17.23708200454712,2,3,3,3,-6.82,-3.1,2.29,-6.12,-0.58,-3.87
17.24708199501038,2,3,3,3,-8.59,-2.58,1.14,-6.13,0.85,-2.99
17.25708198547363,2,3,3,3,-9.109999999999999,-2.46,0.55,-5.49,1.86,-2.51
17.26708197593689,2,3,3,3,-8.81,-2.8,0.36,-5.04,2.67,-2.81
17.27708196640015,2,3,3,3,-8.279999999999999,-3.17,0.49,-4.63,2.38,-2.91
17.2870819568634,2,3,3,3,-7.52,-3.4,1.37,-3.95,1.2,-2.48
17.29708194732666,2,3,3,3,-7.13,-3.36,1.74,-3.64,-0.09,-1.39
17.30708193778992,2,3,3,3,-6.84,-3.28,2.14,-3.19,-0.5,0.06
17.31708192825317,2,3,3,3,-6.72,-3.19,2.29,-2.49,0.1,1.48
17.32708191871643,2,3,3,3,-6.76,-2.91,2.06,-1.65,1.21,2.63
17.33708190917969,2,3,3,3,-6.99,-2.78,2.07,-0.85,2.55,3.36
17.34708189964294,2,3,3,3,-7.24,-2.74,2.05,-0.01,3.96,3.62
17.35708212852478,2,3,3,3,-7.92,-2.73,1.43,0.88,5.15,3.2
17.36708211898804,2,3,3,3,-8.24,-2.63,1.17,2.13,6.37,2.48
17.37708210945129,2,3,3,3,-8.4,-2.33,0.86,4.02,7.1,1.38
17.38708209991455,2,3,3,3,-8.5,-2.41,0.64,6.18,7.15,-0.04
17.39708209037781,2,3,3,3,-8.859999999999999,-2.36,0.78,8.300000000000001,6.99,-1.12
17.40708208084106,2,3,3,3,-8.970000000000001,-2.25,1.09,10.1,5.89,-1.96
17.41708207130432,2,3,3,3,-9.1,-1.85,1.22,10.96,4.3,-2.48
17.42708206176758,2,3,3,3,-9.26,-1.28,1.29,10.98,3.53,-2.81
17.43708205223083,2,3,3,3,-8.859999999999999,-0.13,1.52,10.39,3.09,-2.93
17.44708204269409,2,3,3,3,-8.470000000000001,0.27,1.86,9.550000000000001,2.61,-3.1
17.45708203315735,2,3,3,3,-8.140000000000001,0.52,2.07,8.619999999999999,2.14,-3.17
17.46708202362061,2,3,3,3,-8.02,0.64,2.37,7.65,2.11,-3.01
17.47708201408386,2,3,3,3,-8.529999999999999,0.58,2.58,6.66,2.56,-2.58
17.48708200454712,2,3,3,3,-8.94,0.58,2.45,5.71,2.82,-2.01
17.49708199501038,2,3,3,3,-9.289999999999999,0.66,2.03,4.83,2.6,-1.5
17.51708197593689,2,3,3,3,-9.449999999999999,0.82,2.1,3.31,1.08,-1.26
17.52708196640015,2,3,3,3,-9.42,0.64,2.22,2.54,0.34,-1.72
17.5370819568634,2,3,3,3,-9.359999999999999,0.47,2.13,1.61,-0.08,-2.38
17.54708194732666,2,3,3,3,-9.44,0.36,2.01,0.86,0.11,-3.13
17.55708193778992,2,3,3,3,-9.619999999999999,0.28,2.01,0.45,0.58,-4.04
17.56708192825317,2,3,3,3,-9.699999999999999,0.14,2.13,0.22,0.99,-4.88
17.57708191871643,2,3,3,3,-9.69,-0.01,2.11,0.38,1.05,-5.58
17.58708190917969,2,3,3,3,-9.35,-0.46,2.09,0.73,0.82,-6.12
17.59708189964294,2,3,3,3,-9.130000000000001,-0.67,2.15,1.09,0.37,-6.44
17.60708212852478,2,3,3,3,-8.91,-0.82,2.26,1.51,-0.08,-6.45
17.61708211898804,2,3,3,3,-8.75,-0.93,2.36,1.92,-0.44,-6.42
17.62708210945129,2,3,3,3,-8.74,-1.12,2.47,2.48,-0.57,-6.4
17.63708209991455,2,3,3,3,-8.789999999999999,-1.03,2.2,3.33,-0.6,-6.46
17.64708209037781,2,3,3,3,-8.9,-0.77,1.9,4.23,-0.52,-6.57
17.65708208084106,2,3,3,3,-9.08,-0.37,1.85,5.72,-0.6899999999999999,-6.51
17.66708207130432,2,3,3,3,-9.130000000000001,0.26,2.48,7.11,-1.28,-6.28
17.67708206176758,2,3,3,3,-9.119999999999999,0.41,2.57,8.16,-1.81,-6.03
17.68708205223083,2,3,3,3,-9.15,0.53,2.54,8.48,-1.98,-5.73
17.69708204269409,2,3,3,3,-9.19,0.6,2.54,8.17,-1.77,-5.28
17.70708203315735,2,3,3,3,-9.460000000000001,0.9399999999999999,2.82,7.44,-1.14,-4.81
17.71708202362061,2,3,3,3,-9.6,1.33,2.68,6.54,0.09,-4.35
17.72708201408386,2,3,3,3,-9.73,1.68,2.27,5.37,1.58,-3.81
17.73708200454712,2,3,3,3,-10.23,2.19,2.11,4.65,2.67,-3.24
17.74708199501038,2,3,3,3,-10.5,2.15,2.95,4.89,2.5,-2.7
17.75708198547363,2,3,3,3,-10.68,1.65,3.9,5.38,1.08,-2.38
17.76708197593689,2,3,3,3,-10.8,0.95,4.68,5.52,-0.26,-2.26
17.77708196640015,2,3,3,3,-11.42,0.06,5.57,5.38,-0.62,-2.22
17.7870819568634,2,3,3,3,-11.62,0.04,5.15,4.5,-0.07000000000000001,-1.9
17.79708194732666,2,3,3,3,-11.59,0.02,4.39,2.63,1.67,-1.01
17.80708193778992,2,3,3,3,-11.48,0.07000000000000001,3.85,0.72,4.88,0.1
17.8180820941925,2,3,3,3,-11.97,-0.24,3.49,-0.65,8.32,1.14
17.82708191871643,2,3,3,3,-12.68,-0.7,2.75,-1.86,10.91,1.72
17.83708190917969,2,3,3,3,-13.25,-1.2,1.02,-4.09,13.05,1.99
17.84808206558228,2,3,3,3,-13.68,-1.78,-0.19,-6.57,15.64,2.11
17.85808205604553,2,3,3,3,-14.29,-3.68,0.39,-7.45,16.76,2.07
17.86808204650879,2,3,3,3,-13.92,-4.65,0.44,-8.33,14.19,2.19
17.87808203697205,2,3,3,3,-13.04,-6.14,0.23,-9.380000000000001,9.76,2.57
17.8880820274353,2,3,3,3,-11.97,-7.37,-0.21,-8.859999999999999,5.57,3.04
17.89808201789856,2,3,3,3,-10.76,-8.81,-0.47,-6.35,4.15,3.9
17.90808200836182,2,3,3,3,-10.71,-8.800000000000001,0.01,-1.86,5.16,5.27
17.91808199882507,2,3,3,3,-10.33,-7.81,0.54,3.69,5.69,7.21
17.92808198928833,2,3,3,3,-9.26,-5.05,2.29,8.32,4.31,8.289999999999999
17.93808197975159,2,3,3,3,-9.01,-3.37,3.13,12.01,2.4,8.640000000000001
17.94808197021484,2,3,3,3,-9.039999999999999,-2,3.7,13.52,0.82,8.880000000000001
17.9580819606781,2,3,3,3,-9.119999999999999,-0.52,4.06,14.25,-1.26,8.67
17.96808195114136,2,3,3,3,-8.69,1.55,3.51,12.92,-3.2,7.8
17.97808194160461,2,3,3,3,-8.75,2.24,3.14,9.57,-3.5,6.41
17.98808193206787,2,3,3,3,-8.960000000000001,2.55,3,5.35,-2.95,5.21
17.99808192253113,2,3,3,3,-9.119999999999999,2.49,2.76,0.84,-3.97,4.11
18.00808191299438,2,3,3,3,-9.220000000000001,1.26,2.36,-3.46,-5.78,3.16
18.01808190345764,2,3,3,3,-9.35,0.74,1.97,-6.63,-7.55,2.39
18.02808213233948,2,3,3,3,-9.18,0.31,1.5,-8.949999999999999,-9.49,1.77
18.03808212280273,2,3,3,3,-8.949999999999999,-0.2,1.39,-10.24,-10.55,1.67
18.04808211326599,2,3,3,3,-8.390000000000001,-0.62,1.27,-10.35,-11.2,1.85
18.05808210372925,2,3,3,3,-7.78,-0.8,1.25,-10.38,-11.86,2.31
18.0680820941925,2,3,3,3,-7.15,-1.26,1.27,-10.52,-12.71,2.74
18.07808208465576,2,3,3,3,-6.58,-1.71,1.37,-10.38,-12.4,2.86
18.08808207511902,2,3,3,3,-6.06,-2.05,2.07,-9.74,-10.83,2.95
18.09808206558228,2,3,3,3,-6.19,-1.95,2.41,-8.93,-9.130000000000001,3.15
18.10808205604553,2,3,3,3,-6.5,-1.96,2.65,-8.390000000000001,-7.81,3.45
18.11808204650879,2,3,3,3,-7.61,-2.05,2.95,-7.97,-6.41,3.7
18.12808203697205,2,3,3,3,-8.109999999999999,-1.94,3.01,-7.33,-5.28,4
18.1380820274353,2,3,3,3,-8.33,-1.79,2.86,-6.56,-5.08,4.2
18.14808201789856,2,3,3,3,-8.57,-1.67,2.76,-5.41,-4.76,4.09
18.15808200836182,2,3,3,3,-8.74,-0.99,2.78,-3.95,-4.63,3.88
18.16808199882507,2,3,3,3,-8.869999999999999,-0.76,2.86,-2.97,-4.38,3.33
18.17808198928833,2,3,3,2,-8.98,-0.42,3.06,-2.54,-4.16,2.52
18.18808197975159,2,3,3,2,-8.93,-0.12,3.29,-2.49,-4.3,1.53
18.19808197021484,2,3,3,2,-8.66,0.29,3.36,-2.93,-4.42,0.76
18.2080819606781,2,3,3,2,-8.529999999999999,0.39,3.43,-3.69,-3.88,0.28
18.21808195114136,2,3,3,2,-8.359999999999999,0.36,3.4,-4.34,-3.01,0.02
18.22808194160461,2,3,3,2,-8.19,0.44,3.27,-4.42,-2.17,-0.28
18.23808193206787,2,3,3,2,-7.89,0.66,3.18,-4.09,-1.3,-0.5
18.24808192253113,2,3,3,2,-7.73,0.75,3.17,-3.57,-0.88,-0.59
18.25808191299438,2,3,3,2,-7.51,0.77,3.27,-3.12,-0.64,-0.66
18.26808190345764,2,3,3,2,-7.27,0.87,3.35,-2.87,-0.24,-0.84
18.27808213233948,2,3,3,2,-6.84,1.04,3.4,-2.87,0.67,-1.13
18.28808212280273,2,3,3,2,-6.88,1.11,3.56,-2.81,2.27,-1.42
18.29808211326599,2,3,3,2,-6.98,1.22,3.66,-2.69,3.64,-1.71
18.30808210372925,2,3,3,2,-6.97,1.36,3.82,-2.87,4.43,-2.01
18.3180820941925,2,3,3,2,-7.01,1.43,4.11,-3.19,5.35,-2.38
18.32808208465576,2,3,3,2,-7.22,1.41,4.47,-3.22,6.35,-2.41
18.33808207511902,2,3,3,2,-7.53,1.17,4.75,-3.05,6.82,-1.97
18.34808206558228,2,3,3,2,-8.109999999999999,0.5600000000000001,4.37,-3.27,6.12,-1.2
18.35808205604553,2,3,3,2,-8.33,0.19,3.95,-4.11,4.83,-0.27
18.36808204650879,2,3,3,2,-8.630000000000001,-0.24,3.61,-5.23,4.17,0.68
18.37808203697205,2,3,3,2,-8.93,-0.86,3.4,-6.6,4.03,1.36
18.3880820274353,2,3,3,2,-9.449999999999999,-2.86,2.88,-8.67,3.79,1.21
18.39808201789856,2,3,3,2,-10.08,-3.68,1.69,-10.39,3.49,0.1
18.40808200836182,2,3,3,2,-11.3,-3.7,0.59,-10.36,3.54,-1.54
18.41808199882507,2,3,3,2,-12.97,-3.01,0.34,-6.62,4.1,-2.94
18.42808198928833,2,3,3,2,-14.87,-0.16,4.04,1.25,2.56,-3.57
18.43808197975159,2,3,3,2,-13.92,1.52,6.12,11.06,-1.75,-2.64
18.44808197021484,2,3,3,2,-12.43,2.76,7.26,17.19,-6.73,0.48
18.4580819606781,2,3,3,2,-11.16,2.98,7.84,14.29,-11.46,4.63
18.46808195114136,2,3,3,2,-9.869999999999999,3.46,7.11,6.29,-12.95,8.51
18.47808194160461,2,3,3,2,-11.11,3.81,6.56,0.09,-8.210000000000001,10.89
18.48808193206787,2,3,3,2,-13.86,4.06,7.18,-2.32,-2.77,12.41
18.49808192253113,2,3,3,2,-17.66,0.8,4.44,-4.68,-2.1,10.81
18.50808191299438,2,3,3,2,-19.35,-1.12,1.23,-10.07,-3.34,5.13
18.51808190345764,2,3,3,2,-19.69,-1.95,0.49,-9.359999999999999,-2.78,-1.84
18.52808213233948,2,3,3,2,-16.36,-2.37,1.54,-1.03,-2.95,-6.88
18.53808212280273,2,3,3,2,-7.97,-3.39,4.48,2.95,-6.51,-8.359999999999999
18.54808211326599,2,3,3,2,-4.8,-3.66,5.57,3.49,-9.94,-7.04
18.55808210372925,2,3,3,2,-2.92,-3.68,5.09,2.86,-9.300000000000001,-5
18.5680820941925,2,3,3,2,-2.84,-3.77,3.68,1.01,-4.07,-3.13
18.57808208465576,2,3,3,2,-6.23,-2.75,2.34,-0.88,1.16,-0.8
18.58808207511902,2,3,3,2,-8.77,-1.83,1.91,-2.13,3.71,0.88
18.59808206558228,2,3,3,2,-10.47,-1.08,1.17,-2.72,5.4,0.95
18.60808205604553,2,3,3,2,-11.13,-1.02,0.34,-2.93,6.45,0.12
18.61808204650879,2,3,3,2,-10.44,-2.44,0,-3.39,6.41,-1.18
18.62808203697205,2,3,3,2,-9.9,-3.23,0.71,-3.3,4.43,-2.5
18.6380820274353,2,3,3,2,-9.24,-3.68,1.37,-2.7,0.68,-3.21
18.64808201789856,2,3,3,2,-8.41,-3.91,1.68,-2.64,-2.49,-2.9
18.65908193588257,2,3,3,2,-6.99,-3.76,2.19,-2.58,-2.9,-1.77
18.66808199882507,2,3,3,2,-6.7,-3.59,2.34,-1.92,-1.26,-0.59
18.67808198928833,2,3,3,2,-6.56,-3.4,2.34,-1.1,0.48,0.43
18.68908190727234,2,3,3,2,-6.62,-2.93,2.26,-0.42,2.03,1.26
18.69808197021484,2,3,3,2,-6.98,-2.89,2.05,0.45,3.87,1.82
18.7080819606781,2,3,3,2,-7.4,-2.69,1.63,1.56,5.71,2.13
18.71808195114136,2,3,3,2,-7.86,-2.59,1.25,2.88,7.08,1.99
18.72808194160461,2,3,3,2,-8.380000000000001,-2.12,0.63,4.69,7.77,1.29
18.73808193206787,2,3,3,2,-8.460000000000001,-2.21,0.54,6.83,7.47,0.32
18.74808192253113,2,3,3,2,-8.710000000000001,-2.05,0.63,8.83,6.75,-0.66
18.75808191299438,2,3,3,2,-8.800000000000001,-1.79,0.77,10.4,5.39,-1.53
18.76808190345764,2,3,3,2,-9.130000000000001,-1.14,1.31,11,3.83,-2.14
18.77908205986023,2,3,3,2,-9.210000000000001,-0.53,1.44,10.93,2.98,-2.41
18.78808212280273,2,3,3,2,-8.93,0,1.7,10.23,2.53,-2.47
18.79808211326599,2,3,3,2,-8.51,0.36,1.88,8.9,2.31,-2.6
18.80908203125,2,3,3,2,-7.97,0.65,2.36,7.48,2.33,-2.5
18.8180820941925,2,3,3,2,-7.92,0.6,2.56,6.22,2.57,-2.24
18.82808208465576,2,3,3,2,-8.08,0.55,2.6,5.19,2.94,-1.85
