timestamp,magCalib,accCalib,gyrCalib,sysCalib,accX,accY,accZ,gyrX,gyrY,gyrZ
-0.09482002258300781,3,3,3,2,-9.51,-2.45,0.19,0.13,-0.02,-0.04
-0.08482003211975098,3,3,3,2,-9.49,-2.4,0.19,0.16,-0.06,-0.05
-0.07482004165649414,3,3,3,2,-9.470000000000001,-2.35,0.31,0.16,-0.06,-0.05
-0.0648200511932373,3,3,3,2,-9.49,-2.37,0.31,0.15,-0.08,-0.06
-0.05482006072998047,3,3,3,2,-9.5,-2.35,0.31,0.15,-0.08,-0.06
-0.04482007026672363,3,3,3,2,-9.52,-2.33,0.22,0.12,-0.09,-0.05
-0.0348200798034668,3,3,3,2,-9.5,-2.36,0.29,0.07000000000000001,-0.05,-0.06
-0.02482008934020996,3,3,3,2,-9.51,-2.37,0.28,0.03,-0.06,-0.05
-0.01481986045837402,3,3,3,2,-9.51,-2.39,0.26,-0.07000000000000001,-0.08,-0.03
-0.004819869995117188,3,3,3,2,-9.51,-2.43,0.3,-0.07000000000000001,-0.08,-0.03
0.005180120468139648,3,3,3,2,-9.49,-2.41,0.2,-0.09,-0.08,-0.01
0.01518011093139648,3,3,3,2,-9.48,-2.44,0.2,-0.01,-0.02,-0.06
0.02518010139465332,3,3,3,2,-9.48,-2.48,0.28,0,-0.03,-0.06
0.03518009185791016,3,3,3,2,-9.48,-2.4,0.25,0.13,-0.05,-0.05
0.04518008232116699,3,3,3,2,-9.49,-2.4,0.29,0.13,-0.05,-0.05
0.05518007278442383,3,3,3,2,-9.5,-2.42,0.2,0.08,-0.12,-0.03
0.06518006324768066,3,3,3,2,-9.5,-2.42,0.24,0.07000000000000001,-0.09,-0.08
0.0751800537109375,3,3,3,2,-9.51,-2.46,0.32,0.09,-0.06,-0.03
0.08518004417419434,3,3,3,2,-9.48,-2.41,0.32,0.14,-0.01,-0.04
0.09518003463745117,3,3,3,2,-9.51,-2.49,0.28,0.17,-0.05,-0.01
0.105180025100708,3,3,3,2,-9.49,-2.45,0.18,0.19,-0.06,-0.04
0.1151800155639648,3,3,3,2,-9.48,-2.44,0.23,0.28,-0.05,-0.03
0.1251800060272217,3,3,3,2,-9.48,-2.43,0.24,0.28,0,-0.03
0.1351799964904785,3,3,3,2,-9.48,-2.44,0.31,0.32,-0.01,-0.02
0.1451799869537354,3,3,3,2,-9.5,-2.34,0.3,0.38,-0.02,0.01
0.1551799774169922,3,3,3,2,-9.52,-2.36,0.18,0.38,-0.06,0.02
0.165179967880249,3,3,3,2,-9.49,-2.38,0.26,0.3,-0.03,0.01
0.1751799583435059,3,3,3,2,-9.5,-2.35,0.26,0.27,-0.01,0.02
0.1851799488067627,3,3,3,2,-9.51,-2.48,0.33,0.21,0.01,0.07000000000000001
0.1951799392700195,3,3,3,2,-9.49,-2.56,0.26,0.23,0.05,0.05
0.2051799297332764,3,3,3,2,-9.49,-2.48,0.19,0.28,0.04,0.02
0.2151799201965332,3,3,3,2,-9.470000000000001,-2.51,0.22,0.33,0.01,0.01
0.22517991065979,3,3,3,2,-9.48,-2.52,0.26,0.34,-0.01,0.01
0.235180139541626,3,3,3,2,-9.48,-2.43,0.33,0.32,0,-0.01
0.2451801300048828,3,3,3,2,-9.48,-2.44,0.29,0.32,-0.01,-0.02
0.2551801204681396,3,3,3,2,-9.48,-2.4,0.22,0.27,-0.01,-0.03
0.2651801109313965,3,3,3,2,-9.51,-2.39,0.27,0.21,0.02,-0.05
0.2751801013946533,3,3,3,2,-9.52,-2.42,0.33,0.16,0.04,-0.04
0.2851800918579102,3,3,3,2,-9.5,-2.36,0.35,0.15,-0.02,-0.06
0.295180082321167,3,3,3,2,-9.5,-2.31,0.34,0.19,-0.01,-0.05
0.3051800727844238,3,3,3,2,-9.48,-2.33,0.26,0.11,-0.05,-0.04
0.3151800632476807,3,3,3,2,-9.52,-2.34,0.33,0.08,-0.05,-0.06
0.3251800537109375,3,3,3,2,-9.5,-2.34,0.33,0.02,-0.07000000000000001,-0.06
0.3351800441741943,3,3,3,2,-9.49,-2.3,0.35,-0.02,-0.1,-0.06
0.3451800346374512,3,3,3,2,-9.529999999999999,-2.34,0.35,-0.05,-0.1,-0.07000000000000001
0.355180025100708,3,3,3,2,-9.51,-2.34,0.19,-0.03,-0.04,-0.06
0.3651800155639648,3,3,3,2,-9.49,-2.4,0.29,-0.11,-0.05,-0.04
0.3751800060272217,3,3,3,2,-9.49,-2.36,0.3,-0.13,-0.07000000000000001,-0.01
0.3851799964904785,3,3,3,2,-9.539999999999999,-2.35,0.29,-0.1,-0.04,-0.03
0.3961799144744873,3,3,3,2,-9.5,-2.37,0.25,-0.08,-0.07000000000000001,-0.01
0.4051799774169922,3,3,3,2,-9.5,-2.36,0.19,-0.03,-0.1,-0.01
0.415179967880249,3,3,3,2,-9.5,-2.32,0.24,-0.01,-0.07000000000000001,-0.01
0.4261801242828369,3,3,3,2,-9.5,-2.33,0.27,0.04,-0.11,0
0.4351799488067627,3,3,3,2,-9.52,-2.38,0.31,0.03,-0.09,0
0.4451799392700195,3,3,3,2,-9.52,-2.37,0.29,-0.01,-0.07000000000000001,0.01
0.4561800956726074,3,3,3,2,-9.52,-2.4,0.22,0.03,-0.04,-0.01
0.4651799201965332,3,3,3,2,-9.49,-2.38,0.26,0.05,-0.02,-0.02
0.47517991065979,3,3,3,2,-9.529999999999999,-2.4,0.28,0.08,-0.01,-0.01
0.485180139541626,3,3,3,3,-9.49,-2.42,0.31,0,0.01,0
0.4951801300048828,3,3,3,3,-9.460000000000001,-2.4,0.32,0.02,-0.04,0.02
0.5051801204681396,3,3,3,3,-9.5,-2.41,0.24,0.05,-0.03,0.02
0.5151801109313965,3,3,3,3,-9.470000000000001,-2.35,0.3,0.1,-0.05,0.06
0.5251801013946533,3,3,3,3,-9.5,-2.29,0.28,0.13,-0.08,0.07000000000000001
0.5351800918579102,3,3,3,3,-9.52,-2.32,0.32,0.07000000000000001,-0.12,0.03
0.545180082321167,3,3,3,3,-9.5,-2.32,0.27,-0.06,-0.07000000000000001,0.04
0.5551800727844238,3,3,3,3,-9.51,-2.33,0.22,-0.12,-0.08,0.06
0.5651800632476807,3,3,3,3,-9.51,-2.36,0.27,-0.22,-0.02,0.05
0.5751800537109375,3,3,3,3,-9.49,-2.41,0.31,-0.23,-0.03,0.05
0.5851800441741943,3,3,3,3,-9.470000000000001,-2.43,0.37,-0.22,-0.04,0.07000000000000001
0.5951800346374512,3,3,3,3,-9.49,-2.44,0.3,-0.2,-0.06,0.1
0.605180025100708,3,3,3,3,-9.5,-2.45,0.2,-0.12,-0.08,0.09
0.6151800155639648,3,3,3,3,-9.5,-2.44,0.21,-0.14,-0.08,0.06
0.6251800060272217,3,3,3,3,-9.51,-2.52,0.26,-0.1,-0.09,0.07000000000000001
0.6351799964904785,3,3,3,3,-9.51,-2.49,0.28,-0.11,-0.1,0.03
0.6461799144744873,3,3,3,3,-9.48,-2.45,0.32,-0.08,-0.08,0.04
0.6561801433563232,3,3,3,3,-9.49,-2.54,0.26,-0.05,-0.05,-0.01
0.6661801338195801,3,3,3,3,-9.49,-2.5,0.29,0.01,-0.04,0
0.6761801242828369,3,3,3,3,-9.51,-2.48,0.28,0.08,-0.08,-0.03
0.6861801147460938,3,3,3,2,-9.49,-2.38,0.3,0.09,-0.09,-0.03
0.6961801052093506,3,3,3,2,-9.5,-2.35,0.31,0.12,-0.13,-0.03
0.7061800956726074,3,3,3,2,-9.51,-2.29,0.19,0.1,-0.11,-0.01
0.7161800861358643,3,3,3,2,-9.51,-2.29,0.26,0.1,-0.08,-0.03
0.7261800765991211,3,3,3,2,-9.49,-2.28,0.3,0.15,-0.06,-0.01
0.7361800670623779,3,3,3,2,-9.51,-2.28,0.34,0.1,-0.02,0
0.7461800575256348,3,3,3,2,-9.529999999999999,-2.28,0.34,0.15,-0.06,0.03
0.7561800479888916,3,3,3,2,-9.52,-2.24,0.26,0.22,-0.05,0.02
0.7661800384521484,3,3,3,2,-9.52,-2.28,0.31,0.18,-0.04,0.04
0.7761800289154053,3,3,3,2,-9.51,-2.36,0.31,0.13,-0.03,0.05
0.7861800193786621,3,3,3,2,-9.52,-2.39,0.34,0.15,-0.05,0.07000000000000001
0.7961800098419189,3,3,3,2,-9.539999999999999,-2.44,0.29,0.21,-0.01,0.07000000000000001
0.8061800003051758,3,3,3,2,-9.51,-2.41,0.18,0.19,-0.03,0.03
0.8161799907684326,3,3,3,2,-9.49,-2.38,0.19,0.26,0,0.01
0.8261799812316895,3,3,3,2,-9.5,-2.37,0.31,0.31,-0.03,0.01
0.8361799716949463,3,3,3,2,-9.51,-2.36,0.32,0.36,-0.01,-0.01
0.8461799621582031,3,3,3,2,-9.51,-2.34,0.36,0.41,0.01,-0.04
0.85617995262146,3,3,3,2,-9.529999999999999,-2.21,0.26,0.5,0.01,-0.01
0.8661799430847168,3,3,3,2,-9.52,-2.16,0.28,0.45,0.03,-0.02
0.8761799335479736,3,3,3,2,-9.539999999999999,-2.19,0.36,0.46,0.01,-0.04
0.8861799240112305,3,3,3,2,-9.52,-2.21,0.38,0.38,0.03,0
0.8961799144744873,3,3,3,2,-9.550000000000001,-2.3,0.27,0.41,0.03,-0.01
0.9061801433563232,3,3,3,2,-9.52,-2.36,0.24,0.35,0.03,0.02
0.9161801338195801,3,3,3,2,-9.49,-2.37,0.33,0.42,0.11,0.04
0.9261801242828369,3,3,3,2,-9.52,-2.41,0.34,0.49,0.08,0.01
0.9361801147460938,3,3,3,2,-9.48,-2.38,0.37,0.53,0.08,-0.01
0.9461801052093506,3,3,3,2,-9.52,-2.38,0.35,0.67,0.1,-0.03
0.9561800956726074,3,3,3,2,-9.5,-2.37,0.25,0.62,0.07000000000000001,-0.05
0.9661800861358643,3,3,3,2,-9.51,-2.41,0.28,0.53,0.06,-0.09
0.9761800765991211,3,3,3,2,-9.52,-2.33,0.32,0.45,0.06,-0.09
0.9861800670623779,3,3,3,2,-9.5,-2.31,0.32,0.44,0.05,-0.11
0.9961800575256348,3,3,3,2,-9.51,-2.3,0.31,0.43,0.06,-0.13
1.006180047988892,3,3,3,2,-9.529999999999999,-2.31,0.26,0.39,0.08,-0.15
1.016180038452148,3,3,3,2,-9.51,-2.29,0.33,0.36,0.08,-0.16
1.026180028915405,3,3,3,2,-9.51,-2.28,0.33,0.33,0.04,-0.19
1.036180019378662,3,3,3,2,-9.51,-2.3,0.37,0.34,0.06,-0.19
1.046180009841919,3,3,3,2,-9.539999999999999,-2.32,0.41,0.31,0.08,-0.15
1.056180000305176,3,3,3,2,-9.529999999999999,-2.35,0.29,0.28,0.05,-0.18
1.066179990768433,3,3,3,2,-9.49,-2.41,0.34,0.17,0.04,-0.16
1.076179981231689,3,3,3,2,-9.52,-2.35,0.32,0.22,0.03,-0.18
1.086179971694946,3,3,3,2,-9.5,-2.35,0.35,0.18,0,-0.18
1.096179962158203,3,3,3,2,-9.52,-2.36,0.28,0.15,-0.02,-0.19
1.10617995262146,3,3,3,2,-9.51,-2.3,0.17,0.15,0.03,-0.24
1.116179943084717,3,3,3,2,-9.539999999999999,-2.33,0.25,0.12,0.05,-0.21
1.126179933547974,3,3,3,2,-9.51,-2.36,0.33,0.06,0.04,-0.21
1.13617992401123,3,3,3,2,-9.52,-2.45,0.33,0.11,0.07000000000000001,-0.24
1.146179914474487,3,3,3,2,-9.48,-2.44,0.37,0.17,0.05,-0.25
1.156180143356323,3,3,3,2,-9.49,-2.44,0.29,0.21,0.05,-0.25
1.16618013381958,3,3,3,2,-9.48,-2.38,0.28,0.27,0.04,-0.23
1.176180124282837,3,3,3,2,-9.52,-2.34,0.33,0.23,0.01,-0.24
1.186180114746094,3,3,3,2,-9.52,-2.3,0.34,0.15,0,-0.25
1.196180105209351,3,3,3,2,-9.539999999999999,-2.3,0.34,0.03,0,-0.25
1.206180095672607,3,3,3,2,-9.5,-2.31,0.31,-0.04,0.01,-0.27
1.216180086135864,3,3,3,2,-9.529999999999999,-2.37,0.36,-0.04,0.03,-0.32
1.226180076599121,3,3,3,2,-9.49,-2.32,0.35,-0.12,0.03,-0.25
1.236180067062378,3,3,3,3,-9.5,-2.33,0.37,-0.1,-0.03,-0.28
1.246180057525635,3,3,3,3,-9.5,-2.34,0.36,-0.09,-0.03,-0.25
1.256180047988892,3,3,3,3,-9.49,-2.41,0.25,-0.09,0.05,-0.28
1.266180038452148,3,3,3,3,-9.51,-2.43,0.29,-0.05,0.08,-0.25
1.276180028915405,3,3,3,3,-9.49,-2.43,0.33,0.07000000000000001,0.01,-0.26
1.286180019378662,3,3,3,3,-9.470000000000001,-2.38,0.36,0.12,0.04,-0.26
1.296180009841919,3,3,3,3,-9.49,-2.34,0.31,0.14,0,-0.28
1.306180000305176,3,3,3,3,-9.539999999999999,-2.4,0.23,0.13,0.03,-0.3
1.316179990768433,3,3,3,3,-9.51,-2.4,0.31,0.07000000000000001,0.01,-0.29
1.326179981231689,3,3,3,3,-9.56,-2.43,0.31,0.15,0.03,-0.32
1.336179971694946,3,3,3,3,-9.49,-2.41,0.37,0.01,0.08,-0.32
1.346179962158203,3,3,3,3,-9.48,-2.42,0.37,0.11,0.06,-0.34
1.35617995262146,3,3,3,3,-9.48,-2.38,0.24,0.17,0.08,-0.34
1.366179943084717,3,3,3,3,-9.470000000000001,-2.34,0.29,0.15,0.04,-0.3
1.376179933547974,3,3,3,3,-9.51,-2.4,0.3,0.18,0.02,-0.35
1.38617992401123,3,3,3,3,-9.48,-2.43,0.35,0.07000000000000001,0.04,-0.34
1.396179914474487,3,3,3,3,-9.470000000000001,-2.31,0.33,0.13,0.03,-0.34
1.406180143356323,3,3,3,3,-9.48,-2.48,0.27,0.08,0.06,-0.33
1.41618013381958,3,3,3,3,-9.460000000000001,-2.4,0.24,0.02,0.07000000000000001,-0.3
1.426180124282837,3,3,3,3,-9.52,-2.45,0.26,0.15,0.09,-0.37
1.436180114746094,3,3,3,3,-9.5,-2.5,0.35,0.1,0.09,-0.35
1.446180105209351,3,3,3,3,-9.5,-2.52,0.3,0.23,0.02,-0.36
1.456180095672607,3,3,3,3,-9.460000000000001,-2.53,0.23,0.18,0.08,-0.4
1.466180086135864,3,3,3,3,-9.460000000000001,-2.38,0.21,0.34,0.05,-0.42
1.476180076599121,3,3,3,3,-9.5,-2.51,0.28,0.29,0.12,-0.39
1.486180067062378,3,3,3,2,-9.449999999999999,-2.36,0.29,0.32,0.08,-0.39
1.496180057525635,3,3,3,2,-9.5,-2.43,0.28,0.4,0.04,-0.36
1.506180047988892,3,3,3,2,-9.48,-2.38,0.2,0.33,0.09,-0.38
1.516180038452148,3,3,3,2,-9.52,-2.29,0.19,0.38,0.07000000000000001,-0.38
1.526180028915405,3,3,3,2,-9.460000000000001,-2.31,0.28,0.28,0.07000000000000001,-0.35
1.536180019378662,3,3,3,2,-9.539999999999999,-2.52,0.33,0.28,0.12,-0.31
1.546180009841919,3,3,3,2,-9.449999999999999,-2.29,0.29,0.35,0.09,-0.29
1.556180000305176,3,3,3,2,-9.529999999999999,-2.4,0.23,0.49,0.09,-0.31
1.566179990768433,3,3,3,2,-9.48,-2.25,0.28,0.59,0.09,-0.3
1.576179981231689,3,3,3,2,-9.52,-2.21,0.33,0.79,0.09,-0.27
1.586179971694946,3,3,3,2,-9.5,-2.19,0.33,0.8,0.04,-0.22
1.596179962158203,3,3,3,2,-9.52,-2.19,0.33,0.8,0.08,-0.17
1.60617995262146,3,3,3,2,-9.539999999999999,-2.24,0.15,0.73,0.09,-0.12
1.616179943084717,3,3,3,2,-9.539999999999999,-2.46,0.26,0.44,0.15,-0.04
1.626179933547974,3,3,3,2,-9.5,-2.54,0.33,0.29,0.25,0.02
1.63617992401123,3,3,3,2,-9.5,-2.63,0.3,0.41,0.28,0.01
1.646179914474487,3,3,3,2,-9.42,-2.88,0.26,0.53,0.29,-0.01
1.656180143356323,3,3,3,2,-9.41,-2.93,0.17,0.64,0.26,-0.05
1.66618013381958,3,3,3,2,-9.359999999999999,-2.88,0.22,0.77,0.18,-0.14
1.677180051803589,3,3,3,2,-9.449999999999999,-2.87,0.21,0.78,0.13,-0.17
1.687180042266846,3,3,3,2,-9.43,-2.8,0.22,0.64,0.11,-0.19
1.697180032730103,3,3,3,2,-9.460000000000001,-2.8,0.2,0.57,0.06,-0.28
1.707180023193359,3,3,3,2,-9.460000000000001,-2.86,0.16,0.37,0.08,-0.35
1.717180013656616,3,3,3,2,-9.43,-2.8,0.25,0.32,0.09,-0.41
1.727180004119873,3,3,3,2,-9.449999999999999,-2.77,0.29,0.41,0.07000000000000001,-0.45
1.73717999458313,3,3,3,2,-9.44,-2.7,0.34,0.45,0.01,-0.51
1.747179985046387,3,3,3,2,-9.42,-2.62,0.37,0.49,-0.08,-0.57
1.757179975509644,3,3,3,2,-9.460000000000001,-2.43,0.29,0.48,-0.1,-0.58
1.7671799659729,3,3,3,2,-9.49,-2.38,0.34,0.35,-0.12,-0.54
1.777179956436157,3,3,3,2,-9.470000000000001,-2.36,0.32,0.18,-0.11,-0.51
1.787179946899414,3,3,3,2,-9.49,-2.38,0.35,0.05,-0.05,-0.48
1.797179937362671,3,3,3,2,-9.449999999999999,-2.53,0.37,-0.09,0.06,-0.37
1.807179927825928,3,3,3,2,-9.44,-2.6,0.27,0.07000000000000001,0.06,-0.39
1.817179918289185,3,3,3,2,-9.449999999999999,-2.71,0.31,0.08,0.08,-0.35
1.827179908752441,3,3,3,2,-9.41,-2.65,0.34,0.21,0.01,-0.34
1.837180137634277,3,3,3,2,-9.449999999999999,-2.52,0.32,0.39,0.01,-0.36
1.847180128097534,3,3,3,2,-9.42,-2.56,0.29,0.33,-0.03,-0.34
1.857180118560791,3,3,3,2,-9.449999999999999,-2.6,0.17,0.23,-0.02,-0.33
1.867180109024048,3,3,3,2,-9.48,-2.63,0.24,0.13,0,-0.33
1.877180099487305,3,3,3,2,-9.51,-2.84,0.3,0.1,0.01,-0.34
1.887180089950562,3,3,3,2,-9.43,-2.89,0.37,-0.1,0.05,-0.38
1.897180080413818,3,3,3,2,-9.4,-2.82,0.35,0.06,0.01,-0.44
1.907180070877075,3,3,3,2,-9.41,-2.83,0.27,0.2,0.01,-0.52
1.917180061340332,3,3,3,2,-9.369999999999999,-2.64,0.31,0.22,-0.07000000000000001,-0.53
1.927180051803589,3,3,3,2,-9.390000000000001,-2.44,0.29,0.2,-0.19,-0.5600000000000001
1.937180042266846,3,3,3,2,-9.470000000000001,-2.58,0.34,-0.02,-0.19,-0.5600000000000001
1.947180032730103,3,3,3,2,-9.449999999999999,-2.54,0.38,-0.22,-0.21,-0.58
1.957180023193359,3,3,3,2,-9.49,-2.5,0.21,-0.24,-0.16,-0.58
1.967180013656616,3,3,3,2,-9.49,-2.62,0.23,-0.28,-0.16,-0.55
1.977180004119873,3,3,3,2,-9.44,-2.55,0.31,-0.28,-0.14,-0.5600000000000001
1.98717999458313,3,3,3,2,-9.460000000000001,-2.63,0.34,-0.26,-0.11,-0.53
1.997179985046387,3,3,3,2,-9.42,-2.58,0.26,-0.18,-0.1,-0.47
2.007179975509644,3,3,3,2,-9.449999999999999,-2.72,0.27,-0.16,-0.09,-0.43
2.0171799659729,3,3,3,2,-9.41,-2.68,0.26,-0.11,-0.1,-0.41
2.027179956436157,3,3,3,2,-9.41,-2.66,0.35,0,-0.09,-0.39
2.037179946899414,3,3,3,2,-9.41,-2.62,0.35,0.13,-0.16,-0.38
2.047179937362671,3,3,3,2,-9.42,-2.56,0.35,0.21,-0.15,-0.42
2.057179927825928,3,3,3,2,-9.43,-2.57,0.26,0.1,-0.18,-0.39
2.067179918289185,3,3,3,2,-9.43,-2.49,0.28,-0.01,-0.14,-0.4
2.077179908752441,3,3,3,2,-9.470000000000001,-2.58,0.34,-0.03,-0.08,-0.36
2.087180137634277,3,3,3,2,-9.41,-2.53,0.35,-0.1,-0.07000000000000001,-0.32
2.097180128097534,3,3,3,2,-9.4,-2.53,0.32,-0.01,-0.05,-0.3
2.107180118560791,3,3,3,2,-9.390000000000001,-2.49,0.27,-0.05,-0.03,-0.26
2.117180109024048,3,3,3,2,-9.449999999999999,-2.51,0.33,-0.03,-0.02,-0.23
2.127180099487305,3,3,3,2,-9.449999999999999,-2.57,0.32,-0.12,-0.04,-0.2
2.137180089950562,3,3,3,2,-9.49,-2.59,0.37,-0.23,-0.08,-0.21
2.147180080413818,3,3,3,2,-9.460000000000001,-2.69,0.29,-0.27,-0.06,-0.21
2.157180070877075,3,3,3,2,-9.460000000000001,-2.77,0.18,-0.38,-0.06,-0.19
2.167180061340332,3,3,3,2,-9.41,-2.79,0.28,-0.45,-0.02,-0.15
2.177180051803589,3,3,3,2,-9.359999999999999,-2.7,0.3,-0.33,-0.04,-0.17
2.187180042266846,3,3,3,2,-9.380000000000001,-2.84,0.36,-0.29,0,-0.15
2.197180032730103,3,3,3,2,-9.390000000000001,-2.74,0.27,-0.19,0,-0.18
2.207180023193359,3,3,3,2,-9.41,-2.75,0.2,-0.15,-0.03,-0.17
2.217180013656616,3,3,3,2,-9.43,-2.85,0.28,-0.17,-0.03,-0.12
2.227180004119873,3,3,3,2,-9.43,-2.72,0.3,-0.09,-0.06,-0.14
2.23717999458313,3,3,3,2,-9.390000000000001,-2.75,0.33,-0.11,-0.07000000000000001,-0.12
2.247179985046387,3,3,3,2,-9.4,-2.62,0.31,-0.14,-0.12,-0.16
2.257179975509644,3,3,3,2,-9.44,-2.65,0.21,-0.28,-0.09,-0.16
2.2671799659729,3,3,3,2,-9.380000000000001,-2.72,0.28,-0.5,-0.06,-0.1
2.277179956436157,3,3,3,2,-9.43,-2.76,0.32,-0.42,-0.02,-0.14
2.287179946899414,3,3,3,2,-9.359999999999999,-2.71,0.31,-0.39,-0.05,-0.13
2.297179937362671,3,3,3,2,-9.460000000000001,-2.87,0.35,-0.36,-0.04,-0.12
2.307179927825928,3,3,3,2,-9.43,-2.64,0.21,-0.15,-0.11,-0.1
2.317179918289185,3,3,3,2,-9.42,-2.66,0.25,-0.23,-0.12,-0.13
2.327179908752441,3,3,3,2,-9.449999999999999,-2.6,0.22,-0.34,-0.15,-0.15
2.337180137634277,3,3,3,2,-9.449999999999999,-2.71,0.31,-0.41,-0.11,-0.13
2.347180128097534,3,3,3,2,-9.460000000000001,-2.63,0.29,-0.38,-0.08,-0.17
2.357180118560791,3,3,3,2,-9.42,-2.69,0.27,-0.34,-0.06,-0.16
2.367180109024048,3,3,3,2,-9.380000000000001,-2.58,0.28,-0.17,-0.08,-0.16
2.377180099487305,3,3,3,2,-9.43,-2.62,0.36,-0.18,-0.08,-0.12
2.387180089950562,3,3,3,2,-9.449999999999999,-2.55,0.35,-0.13,-0.15,-0.11
2.397180080413818,3,3,3,2,-9.460000000000001,-2.54,0.35,-0.17,-0.15,-0.1
2.407180070877075,3,3,3,2,-9.460000000000001,-2.51,0.23,-0.26,-0.2,-0.11
2.417180061340332,3,3,3,2,-9.449999999999999,-2.49,0.22,-0.34,-0.18,-0.09
2.427180051803589,3,3,3,2,-9.43,-2.62,0.29,-0.4,-0.11,-0.07000000000000001
2.437180042266846,3,3,3,2,-9.44,-2.67,0.32,-0.42,-0.06,-0.06
2.447180032730103,3,3,3,2,-9.460000000000001,-2.74,0.34,-0.36,-0.04,-0.01
2.457180023193359,3,3,3,2,-9.42,-2.74,0.27,-0.29,-0.02,-0.01
2.467180013656616,3,3,3,2,-9.42,-2.68,0.31,-0.17,-0.04,0.01
2.477180004119873,3,3,3,2,-9.42,-2.65,0.31,-0.11,-0.07000000000000001,-0.01
2.48717999458313,3,3,3,2,-9.43,-2.65,0.31,-0.12,-0.11,0.01
2.497179985046387,3,3,3,2,-9.390000000000001,-2.6,0.27,-0.13,-0.13,0.05
2.507179975509644,3,3,3,2,-9.41,-2.68,0.28,-0.12,-0.11,0.03
2.5171799659729,3,3,3,2,-9.42,-2.7,0.26,-0.14,-0.03,0.04
2.527179956436157,3,3,3,2,-9.449999999999999,-2.72,0.3,-0.16,-0.03,0.06
2.537179946899414,3,3,3,2,-9.43,-2.75,0.36,-0.15,0.01,0.07000000000000001
2.547179937362671,3,3,3,2,-9.390000000000001,-2.76,0.35,-0.11,-0.03,0.09
2.557179927825928,3,3,3,2,-9.4,-2.74,0.26,-0.04,0,0.07000000000000001
2.567179918289185,3,3,3,2,-9.42,-2.68,0.25,-0.01,0,0.06
2.577179908752441,3,3,3,2,-9.390000000000001,-2.59,0.33,-0.08,-0.03,0.07000000000000001
2.587180137634277,3,3,3,2,-9.41,-2.62,0.34,-0.13,0,0.07000000000000001
2.597180128097534,3,3,3,2,-9.460000000000001,-2.67,0.37,-0.17,-0.02,0.09
2.607180118560791,3,3,3,2,-9.43,-2.66,0.28,-0.15,-0.03,0.11
2.617180109024048,3,3,3,2,-9.449999999999999,-2.64,0.31,-0.16,-0.06,0.1
2.627180099487305,3,3,3,2,-9.460000000000001,-2.64,0.31,-0.1,-0.04,0.1
2.637180089950562,3,3,3,2,-9.449999999999999,-2.67,0.34,-0.15,-0.04,0.13
2.647180080413818,3,3,3,2,-9.44,-2.62,0.35,-0.17,-0.04,0.13
2.657180070877075,3,3,3,2,-9.369999999999999,-2.69,0.23,-0.21,-0.04,0.17
2.667180061340332,3,3,3,2,-9.4,-2.74,0.29,-0.2,0,0.17
2.677180051803589,3,3,3,2,-9.42,-2.79,0.31,-0.14,0,0.21
2.687180042266846,3,3,3,2,-9.42,-2.81,0.33,-0.1,-0.02,0.18
2.698179960250854,3,3,3,2,-9.44,-2.77,0.31,-0.01,-0.04,0.17
2.708179950714111,3,3,3,2,-9.44,-2.75,0.2,0.02,-0.02,0.17
2.718179941177368,3,3,3,2,-9.41,-2.73,0.19,-0.01,-0.03,0.15
2.728179931640625,3,3,3,2,-9.4,-2.69,0.26,-0.03,0,0.17
2.738179922103882,3,3,3,2,-9.449999999999999,-2.74,0.33,-0.02,-0.01,0.15
2.748179912567139,3,3,3,2,-9.369999999999999,-2.71,0.36,-0.06,0,0.17
2.758180141448975,3,3,3,2,-9.4,-2.67,0.23,0.04,0.02,0.13
2.768180131912231,3,3,3,2,-9.449999999999999,-2.65,0.25,0.02,0.02,0.16
2.778180122375488,3,3,3,2,-9.43,-2.64,0.36,-0.01,-0.04,0.12
2.788180112838745,3,3,3,2,-9.42,-2.59,0.36,-0.02,-0.01,0.13
2.798180103302002,3,3,3,2,-9.449999999999999,-2.59,0.32,-0.08,-0.02,0.14
2.808180093765259,3,3,3,2,-9.44,-2.65,0.26,-0.1,-0.03,0.12
2.818180084228516,3,3,3,2,-9.449999999999999,-2.63,0.25,-0.04,-0.03,0.11
2.828180074691772,3,3,3,2,-9.44,-2.67,0.27,0.04,-0.03,0.14
2.838180065155029,3,3,3,2,-9.42,-2.66,0.29,0.18,-0.02,0.13
2.848180055618286,3,3,3,2,-9.44,-2.61,0.28,0.27,-0.01,0.15
2.858180046081543,3,3,3,2,-9.449999999999999,-2.58,0.21,0.3,-0.03,0.14
2.8681800365448,3,3,3,2,-9.470000000000001,-2.61,0.23,0.25,0.01,0.13
2.878180027008057,3,3,3,2,-9.460000000000001,-2.6,0.31,0.16,0.03,0.18
2.888180017471313,3,3,3,2,-9.460000000000001,-2.66,0.31,0.19,0.06,0.15
2.89818000793457,3,3,3,2,-9.43,-2.68,0.34,0.2,0.04,0.16
2.908179998397827,3,3,3,2,-9.42,-2.63,0.26,0.26,0.01,0.13
2.918179988861084,3,3,3,2,-9.43,-2.57,0.22,0.28,-0.05,0.13
2.928179979324341,3,3,3,2,-9.44,-2.45,0.32,0.27,-0.05,0.12
2.938179969787598,3,3,3,2,-9.470000000000001,-2.46,0.31,0.22,-0.09,0.11
2.948179960250854,3,3,3,2,-9.460000000000001,-2.46,0.34,0.07000000000000001,-0.04,0.15
2.958179950714111,3,3,3,2,-9.460000000000001,-2.44,0.22,-0.01,-0.04,0.17
2.968179941177368,3,3,3,2,-9.49,-2.57,0.26,-0.05,0.02,0.18
2.978179931640625,3,3,3,2,-9.470000000000001,-2.67,0.29,-0.12,0.03,0.24
2.988179922103882,3,3,3,2,-9.48,-2.69,0.32,-0.08,0.04,0.26
2.998179912567139,3,3,3,2,-9.49,-2.69,0.3,0.01,0.04,0.3
3.008180141448975,3,3,3,2,-9.369999999999999,-2.62,0.18,0.04,0,0.27
3.018180131912231,3,3,3,2,-9.41,-2.6,0.2,0.04,-0.01,0.25
3.028180122375488,3,3,3,2,-9.4,-2.62,0.31,0.01,-0.01,0.25
3.038180112838745,3,3,3,2,-9.449999999999999,-2.63,0.33,0,-0.02,0.25
3.048180103302002,3,3,3,2,-9.49,-2.64,0.27,-0.02,0.01,0.23
3.058180093765259,3,3,3,2,-9.48,-2.63,0.22,0.02,0.01,0.25
3.068180084228516,3,3,3,2,-9.42,-2.63,0.27,0.06,-0.01,0.27
3.078180074691772,3,3,3,2,-9.44,-2.55,0.29,0.05,0.02,0.24
3.088180065155029,3,3,3,2,-9.42,-2.56,0.37,0.07000000000000001,-0.03,0.26
3.098180055618286,3,3,3,2,-9.44,-2.59,0.29,-0.04,-0.05,0.26
3.108180046081543,3,3,3,2,-9.449999999999999,-2.58,0.2,-0.02,-0.04,0.28
3.1181800365448,3,3,3,2,-9.48,-2.55,0.28,0,-0.04,0.25
3.128180027008057,3,3,3,2,-9.449999999999999,-2.67,0.31,0,-0.04,0.25
3.138180017471313,3,3,3,2,-9.449999999999999,-2.66,0.32,0.03,-0.01,0.24
3.14818000793457,3,3,3,2,-9.44,-2.64,0.31,0.02,-0.09,0.19
3.158179998397827,3,3,3,2,-9.44,-2.58,0.23,0.02,-0.05,0.21
3.168179988861084,3,3,3,2,-9.44,-2.57,0.25,0.01,-0.03,0.17
3.178179979324341,3,3,3,2,-9.470000000000001,-2.57,0.24,0.01,-0.03,0.17
3.188179969787598,3,3,3,2,-9.48,-2.5,0.31,0.14,-0.06,0.16
3.198179960250854,3,3,3,2,-9.48,-2.52,0.33,0.24,-0.05,0.15
3.208179950714111,3,3,3,2,-9.49,-2.38,0.22,0.28,-0.03,0.1
3.218179941177368,3,3,3,2,-9.49,-2.37,0.29,0.24,-0.06,0.15
3.228179931640625,3,3,3,2,-9.49,-2.39,0.34,0.24,-0.06,0.15
3.238179922103882,3,3,3,2,-9.49,-2.4,0.36,0.23,-0.06,0.13
3.248179912567139,3,3,3,2,-9.49,-2.34,0.33,0.24,-0.05,0.1
3.258180141448975,3,3,3,2,-9.49,-2.34,0.25,0.22,-0.06,0.12
3.268180131912231,3,3,3,2,-9.48,-2.32,0.27,0.19,-0.03,0.11
3.278180122375488,3,3,3,2,-9.5,-2.33,0.35,0.19,-0.03,0.11
3.288180112838745,3,3,3,2,-9.5,-2.37,0.36,0.01,-0.03,0.16
3.298180103302002,3,3,3,2,-9.460000000000001,-2.42,0.38,0.06,0.01,0.16
3.308180093765259,3,3,3,2,-9.48,-2.48,0.3,0.06,0.01,0.16
3.318180084228516,3,3,3,2,-9.48,-2.53,0.34,0.1,-0.09,0.1
3.328180074691772,3,3,3,2,-9.449999999999999,-2.53,0.33,0.1,-0.09,0.1
3.338180065155029,3,3,3,2,-9.449999999999999,-2.51,0.3,0.07000000000000001,-0.17,0.08
3.348180055618286,3,3,3,2,-9.48,-2.47,0.29,0.06,-0.16,0.03
3.358180046081543,3,3,3,2,-9.48,-2.57,0.19,-0.03,-0.09,0.01
3.3681800365448,3,3,3,2,-9.5,-2.54,0.19,0.04,-0.06,-0.01
3.378180027008057,3,3,3,2,-9.449999999999999,-2.54,0.28,0.04,-0.06,-0.01
3.388180017471313,3,3,3,2,-9.470000000000001,-2.56,0.35,0.23,-0.08,-0.03
3.39818000793457,3,3,3,2,-9.449999999999999,-2.53,0.34,0.27,-0.12,-0.11
3.408179998397827,3,3,3,2,-9.460000000000001,-2.49,0.27,0.21,-0.13,-0.1
3.418179988861084,3,3,3,2,-9.49,-2.45,0.33,0.25,-0.15,-0.06
3.428179979324341,3,3,3,2,-9.470000000000001,-2.39,0.37,0.25,-0.15,-0.06
3.438179969787598,3,3,3,2,-9.5,-2.3,0.38,0.08,-0.12,-0.06
3.448179960250854,3,3,3,2,-9.470000000000001,-2.33,0.38,0.01,-0.07000000000000001,-0.02
3.478179931640625,3,3,3,2,-9.449999999999999,-2.4,0.36,0.03,-0.02,0.03
3.488179922103882,3,3,3,3,-9.49,-2.51,0.42,0.14,-0.08,0
3.498179912567139,3,3,3,3,-9.460000000000001,-2.5,0.4,0.17,-0.06,0.03
3.508180141448975,3,3,3,3,-9.5,-2.55,0.3,0.14,-0.1,0.02
3.518180131912231,3,3,3,3,-9.460000000000001,-2.51,0.3,0.11,-0.08,0.02
3.528180122375488,3,3,3,3,-9.449999999999999,-2.56,0.36,0.11,-0.08,0.02
3.538180112838745,3,3,3,3,-9.43,-2.46,0.37,0.06,-0.04,-0.02
3.548180103302002,3,3,3,3,-9.49,-2.51,0.35,0.16,-0.06,-0.02
3.558180093765259,3,3,3,3,-9.470000000000001,-2.35,0.19,0.04,-0.05,-0.01
3.568180084228516,3,3,3,3,-9.48,-2.43,0.29,0.08,-0.02,-0.03
3.578180074691772,3,3,3,3,-9.449999999999999,-2.17,0.3,-0.04,0.02,0.07000000000000001
3.588180065155029,3,3,3,3,-9.449999999999999,-2.1,0.42,-0.11,0,0.15
3.598180055618286,3,3,3,3,-9.5,-2.22,0.4,-0.25,0.03,0.24
3.608180046081543,3,3,3,3,-9.449999999999999,-2.07,0.3,-0.28,0.1,0.31
3.6181800365448,3,3,3,3,-9.5,-2.15,0.38,-0.3,0.07000000000000001,0.37
3.628180027008057,3,3,3,3,-9.470000000000001,-2.34,0.42,-0.3,0.07000000000000001,0.37
3.638180017471313,3,3,3,3,-9.51,-2.3,0.4,-0.25,0.07000000000000001,0.43
3.64818000793457,3,3,3,3,-9.52,-2.28,0.38,-0.18,0.04,0.53
3.658179998397827,3,3,3,3,-9.49,-2.28,0.32,-0.12,0.03,0.62
3.668179988861084,3,3,3,3,-9.44,-2.27,0.33,-0.13,0.09,0.6899999999999999
3.678179979324341,3,3,3,3,-9.460000000000001,-2.3,0.33,-0.13,0.09,0.6899999999999999
3.688179969787598,3,3,3,3,-9.460000000000001,-2.33,0.35,-0.05,0.14,0.76
3.698179960250854,3,3,3,3,-9.470000000000001,-2.44,0.36,0.2,0.27,0.87
3.708179950714111,3,3,3,3,-9.550000000000001,-2.51,0.2,0.37,0.25,0.88
3.719180107116699,3,3,3,3,-9.470000000000001,-2.65,0.31,0.72,0.27,0.84
3.729180097579956,3,3,3,3,-9.48,-2.65,0.28,0.72,0.27,0.84
3.739180088043213,3,3,3,3,-9.48,-2.64,0.27,0.95,0.2,0.8100000000000001
3.74918007850647,3,3,3,3,-9.51,-2.47,0.34,1.22,0.06,0.66
3.759180068969727,3,3,3,3,-9.52,-2.32,0.25,0.98,-0.02,0.6
3.769180059432983,3,3,3,3,-9.51,-2.22,0.18,0.31,0.04,0.66
3.77918004989624,3,3,3,3,-9.460000000000001,-2.71,0.31,0.31,0.04,0.66
3.789180040359497,3,3,3,3,-9.449999999999999,-2.67,0.33,0.32,0.17,0.59
3.799180030822754,3,3,3,3,-9.48,-2.8,0.3,0.5,0.12,0.49
3.809180021286011,3,3,3,3,-9.49,-2.85,0.19,0.7,0.02,0.37
3.819180011749268,3,3,3,3,-9.43,-2.74,0.18,0.84,0.01,0.29
3.829180002212524,3,3,3,3,-9.449999999999999,-2.34,0.3,0.84,0.01,0.29
3.839179992675781,3,3,3,3,-9.48,-2.41,0.33,0.59,0.01,0.33
3.849179983139038,3,3,3,3,-9.49,-2.51,0.39,0.37,0.11,0.44
3.859179973602295,3,3,3,3,-9.51,-2.46,0.3,0.38,0.08,0.41
3.869179964065552,3,3,3,3,-9.56,-2.34,0.3,0.4,-0.02,0.4
3.879179954528809,3,3,3,3,-9.52,-2.34,0.4,0.4,-0.02,0.4
3.889179944992065,3,3,3,3,-9.52,-2.24,0.41,0.43,-0.01,0.39
3.899179935455322,3,3,3,3,-9.51,-2.1,0.37,0.05,0.03,0.48
3.909179925918579,3,3,3,3,-9.529999999999999,-2.27,0.38,0.14,0.02,0.51
3.919179916381836,3,3,3,3,-9.529999999999999,-2.2,0.34,0.14,0.08,0.53
3.929180145263672,3,3,3,3,-9.539999999999999,-2.29,0.36,0.14,0.08,0.53
3.939180135726929,3,3,3,3,-9.56,-2.43,0.38,0.18,0.1,0.55
3.949180126190186,3,3,3,3,-9.49,-2.38,0.29,0.82,0.06,0.61
3.959180116653442,3,3,3,3,-9.470000000000001,-2.3,0.17,0.9399999999999999,0.06,0.71
3.969180107116699,3,3,3,3,-9.5,-2.28,0.21,1.06,0.2,0.74
3.979180097579956,3,3,3,3,-9.48,-2.41,0.22,1.06,0.2,0.74
3.989180088043213,3,3,3,3,-9.49,-2.38,0.36,1.32,0.25,0.76
3.99918007850647,3,3,3,3,-9.52,-2.44,0.41,1.5,0.22,0.78
4.009180068969727,3,3,3,3,-9.529999999999999,-2.36,0.29,1.5,0.09,0.73
4.019180059432983,3,3,3,3,-9.5,-2.22,0.4,1.49,0.09,0.7
4.02918004989624,3,3,3,3,-9.49,-2.11,0.39,1.49,0.09,0.7
4.039180040359497,3,3,3,3,-9.539999999999999,-2.04,0.39,1.21,0.08,0.68
4.049180030822754,3,3,3,3,-9.52,-2.08,0.36,0.5,0.09,0.71
4.059180021286011,3,3,3,3,-9.6,-2.32,0.24,0.32,0.12,0.74
4.069180011749268,3,3,3,3,-9.58,-2.54,0.29,0.48,0.19,0.62
4.079180002212524,3,3,3,3,-9.6,-2.76,0.3,0.48,0.19,0.62
4.089179992675781,3,3,3,3,-9.57,-2.79,0.32,1.05,0.1,0.5
4.099179983139038,3,3,3,3,-9.539999999999999,-2.51,0.24,1.7,0,0.34
4.109179973602295,3,3,3,3,-9.529999999999999,-2.35,0.18,1.63,-0.07000000000000001,0.27
4.119179964065552,3,3,3,3,-9.56,-2.18,0.22,1.47,-0.11,0.19
4.129179954528809,3,3,3,3,-9.609999999999999,-2.02,0.2,1.47,-0.11,0.19
4.139179944992065,3,3,3,3,-9.640000000000001,-1.91,0.33,1.25,-0.17,0.15
4.149179935455322,3,3,3,3,-9.6,-1.93,0.39,0.62,-0.12,0.07000000000000001
4.159179925918579,3,3,3,3,-9.57,-1.89,0.24,0.4,-0.05,-0.01
4.169179916381836,3,3,3,3,-9.619999999999999,-1.89,0.23,0.16,-0.1,-0.1
4.179180145263672,3,3,3,3,-9.67,-2.08,0.3,0.16,-0.1,-0.1
4.189180135726929,3,3,3,3,-9.699999999999999,-2.18,0.27,-0.24,-0.18,-0.13
4.199180126190186,3,3,3,3,-9.630000000000001,-2.28,0.36,-0.52,-0.27,-0.27
4.209180116653442,3,3,3,3,-9.56,-2.36,0.27,-0.42,-0.26,-0.35
4.219180107116699,3,3,3,3,-9.5,-2.36,0.31,-0.37,-0.24,-0.4
4.229180097579956,3,3,3,3,-9.5,-2.39,0.36,-0.37,-0.24,-0.4
4.239180088043213,3,3,3,3,-9.449999999999999,-2.33,0.42,-0.15,-0.3,-0.38
4.24918007850647,3,3,3,3,-9.43,-2.21,0.44,-0.06,-0.28,-0.26
4.259180068969727,3,3,3,3,-9.529999999999999,-2.01,0.43,-0.03,-0.25,-0.18
4.269180059432983,3,3,3,3,-9.51,-1.84,0.54,-0.06,-0.18,-0.11
4.27918004989624,3,3,3,3,-9.550000000000001,-1.66,0.59,-0.15,-0.1,0.01
4.289180040359497,3,3,3,3,-9.6,-1.51,0.64,-0.37,-0.1,0.13
4.299180030822754,3,3,3,3,-9.619999999999999,-1.51,0.59,-0.38,-0.09,0.25
4.309180021286011,3,3,3,3,-9.6,-1.49,0.49,-0.47,0.02,0.4
4.319180011749268,3,3,3,3,-9.630000000000001,-1.55,0.42,-0.57,0.09,0.55
4.329180002212524,3,3,3,3,-9.67,-1.83,0.55,-0.57,0.09,0.55
4.339179992675781,3,3,3,3,-9.44,-1.87,0.49,-0.24,0.11,0.6
4.349179983139038,3,3,3,3,-9.359999999999999,-1.99,0.45,0.26,0.29,0.93
4.359179973602295,3,3,3,3,-9.300000000000001,-2.01,0.38,0.63,0.27,1.09
4.369179964065552,3,3,3,3,-9.42,-1.83,0.44,0.8,0.25,1.29
4.379179954528809,3,3,3,3,-9.449999999999999,-1.82,0.51,0.8,0.25,1.29
4.389179944992065,3,3,3,3,-9.52,-1.63,0.46,1.11,0.25,1.48
4.399179935455322,3,3,3,3,-9.630000000000001,-1.54,0.49,1.02,0.27,1.94
4.409179925918579,3,3,3,3,-9.529999999999999,-1.45,0.41,1.1,0.23,2.1
4.419179916381836,3,3,3,3,-9.470000000000001,-1.18,0.4,1.13,0.23,2.34
4.429180145263672,3,3,3,3,-9.44,-0.99,0.41,1.13,0.23,2.34
4.439180135726929,3,3,3,3,-9.449999999999999,-0.59,0.39,1.05,0.26,2.55
4.449180126190186,3,3,3,3,-9.6,-0.41,0.39,-0.42,0.27,3.42
4.459180116653442,3,3,3,3,-9.289999999999999,-0.12,0.53,-0.03,0.42,3.77
4.469180107116699,3,3,3,3,-9.220000000000001,0.36,0.57,0.04,0.58,4.19
4.479180097579956,3,3,3,3,-9.25,0.44,0.55,0.04,0.58,4.19
4.489180088043213,3,3,3,3,-9.67,0.67,0.63,0.11,0.45,4.54
4.49918007850647,3,3,3,3,-9.789999999999999,0.9399999999999999,0.68,0.16,0.12,5.31
4.509180068969727,3,3,3,3,-9.75,0.57,0.76,0.2,0,5.55
4.519180059432983,3,3,3,3,-9.44,0.31,0.92,0.64,0.05,5.87
4.52918004989624,3,3,3,3,-9.02,1.1,0.86,0.64,0.05,5.87
4.539180040359497,3,3,3,3,-8.9,1.76,1.04,0.92,0.03,6.42
4.549180030822754,3,3,3,3,-8.83,2.74,1.09,0.89,-0.19,8.27
4.559180021286011,3,3,3,3,-8.83,3.22,1.16,0.54,-0.51,9.359999999999999
4.569180011749268,3,3,3,3,-8.449999999999999,4.21,1.26,-1.08,-0.64,10.23
4.579180002212524,3,3,3,3,-8.460000000000001,2.96,1.58,-1.08,-0.64,10.23
4.589179992675781,3,3,3,3,-8.050000000000001,1.7,1.29,-2,-0.82,10.3
4.599179983139038,3,3,3,3,-7.62,0.57,0.59,-0.61,0.42,9.23
4.609179973602295,3,3,3,3,-8.25,-1.64,0.22,0.48,0.8,8.380000000000001
4.619179964065552,3,3,3,3,-9.07,-2.31,-0.32,1.72,0.52,7.95
4.629179954528809,3,3,3,3,-9.56,-2.65,-0.66,1.72,0.52,7.95
4.639179944992065,3,3,3,3,-9.51,-2.3,-0.91,3.86,0.42,7.78
4.649179935455322,3,3,3,3,-9.43,-2.6,-0.76,3.49,-0.41,7.77
4.659179925918579,3,3,3,3,-9.32,-2.5,-0.21,3.7,0.25,7.36
4.669179916381836,3,3,3,3,-9.59,-2.48,-0.19,4.1,0.93,6.72
4.679180145263672,3,3,3,3,-9.59,-2.48,-0.19,4.1,0.93,6.72
4.689180135726929,3,3,3,3,-10.1,-0.93,-0.04,4.99,0.85,6.02
4.699180126190186,3,3,3,3,-11.12,-0.25,0.67,4.9,0.58,5.01
4.709180116653442,3,3,3,3,-11.05,-0.54,0.48,2.98,0.88,4.66
4.719180107116699,3,3,3,3,-10.71,-1.58,-0.09,1.51,1.59,4.46
4.729180097579956,3,3,3,3,-10.71,-1.58,-0.09,1.51,1.59,4.46
4.739180088043213,3,3,3,3,-10.7,-1.8,-0.13,1.1,2.01,4.37
4.750180006027222,3,3,3,3,-10.43,-3.06,-0.64,1.22,1.81,4.36
4.760179996490479,3,3,3,3,-9.98,-2.37,-0.66,2.62,2.15,3.93
4.770179986953735,3,3,3,3,-10.06,-1.89,-0.38,3.53,2.39,3.6
4.780179977416992,3,3,3,3,-10.06,-1.89,-0.38,3.53,2.39,3.6
4.790179967880249,3,3,3,3,-10.05,-1.53,-0.1,3.54,2.43,3.34
4.800179958343506,3,3,3,3,-9.880000000000001,-1.54,0.25,1.68,1.77,2.94
4.810179948806763,3,3,3,3,-10.16,-0.6,0.42,2.38,1.57,2.68
4.82017993927002,3,3,3,3,-10.52,0.45,0.91,3.07,1.45,2.56
4.830179929733276,3,3,3,2,-10.52,0.45,0.91,3.07,1.45,2.56
4.840179920196533,3,3,3,2,-10.59,1.6,1.34,2.57,1.25,2.67
4.85017991065979,3,3,3,2,-10.23,1.07,1.06,-1.36,1.38,3.17
4.860180139541626,3,3,3,2,-10.08,0.8100000000000001,0.66,-2.65,1.36,3.27
4.870180130004883,3,3,3,2,-9.74,-0.08,-0.02,-3.46,1.12,3.26
4.88018012046814,3,3,3,2,-9.74,-0.08,-0.02,-3.25,1.18,2.91
4.890180110931396,3,3,3,2,-9.83,0.28,-0.41,-2.43,1.23,2.55
4.900180101394653,3,3,3,2,-10.05,-0.21,-0.24,-2.39,1.05,2.16
4.91018009185791,3,3,3,2,-10.45,0.15,-0.32,-1.99,1.19,1.72
4.920180082321167,3,3,3,2,-10.59,-0.1,-0.34,-1.87,1.31,1.41
4.930180072784424,3,3,3,2,-10.59,-0.1,-0.34,-1.87,1.31,1.41
4.940180063247681,3,3,3,2,-10.58,-0.17,-0.45,-1.6,1.29,1.29
4.950180053710938,3,3,3,2,-10.36,-0.95,-0.61,-0.55,1.19,1.2
4.960180044174194,3,3,3,2,-10.29,-0.85,-0.65,0.36,1.09,0.97
4.970180034637451,3,3,3,2,-10.36,-0.66,-0.5,1.38,1.1,0.58
4.980180025100708,3,3,3,2,-10.36,-0.66,-0.5,1.38,1.1,0.58
4.990180015563965,3,3,3,2,-10.46,-0.57,-0.38,2.04,0.98,0.14
5.000180006027222,3,3,3,2,-10.77,-0.17,-0.38,2.05,0.87,-0.48
5.010179996490479,3,3,3,2,-10.74,-0.15,-0.33,1.7,0.79,-0.6
5.020179986953735,3,3,3,2,-10.69,-0.14,-0.33,1.26,0.79,-0.58
5.030179977416992,3,3,3,2,-10.69,-0.14,-0.33,1.26,0.79,-0.58
5.040179967880249,3,3,3,2,-10.49,0.12,-0.13,0.86,0.77,-0.53
5.050179958343506,3,3,3,2,-10.24,0.19,0.08,-0.03,0.64,-0.23
5.060179948806763,3,3,3,2,-10.07,0.33,0.21,-0.27,0.61,-0.11
5.07017993927002,3,3,3,2,-9.890000000000001,0.67,0.6899999999999999,-0.3,0.52,-0.02
5.080179929733276,3,3,3,2,-9.890000000000001,0.67,0.6899999999999999,-0.39,0.5,0.12
5.090179920196533,3,3,3,2,-9.74,0.74,0.9,-0.62,0.47,0.33
5.10017991065979,3,3,3,2,-9.460000000000001,0.48,0.8100000000000001,-1.04,0.22,0.61
5.110180139541626,3,3,3,2,-8.9,-0.06,0.44,-1.14,0.02,0.88
5.120180130004883,3,3,3,2,-8.859999999999999,0.17,0.09,-0.57,-0.05,0.96
5.13018012046814,3,3,3,2,-8.859999999999999,0.17,0.09,0.33,-0.22,0.91
5.140180110931396,3,3,3,2,-8.91,0.64,0.02,0.66,-0.31,0.84
5.150180101394653,3,3,3,2,-9.35,2.2,-0.8100000000000001,0.62,-0.24,0.82
5.16018009185791,3,3,3,2,-9.65,2.46,-0.67,0.26,-0.13,0.85
5.170180082321167,3,3,3,2,-9.56,2.03,-0.83,-0.71,-0.03,0.91
5.180180072784424,3,3,3,2,-9.56,2.03,-0.83,-1.19,0.12,1
5.190180063247681,3,3,3,2,-9.42,1.37,-0.87,-1.25,0.3,1.14
5.200180053710938,3,3,3,2,-9.33,0.63,-1.01,-0.86,0.45,1.09
5.210180044174194,3,3,3,2,-9.289999999999999,0.47,-0.83,-0.28,0.52,0.9399999999999999
5.220180034637451,3,3,3,2,-9.32,0.58,-0.88,0.27,0.6,0.61
5.230180025100708,3,3,3,2,-9.32,0.58,-0.88,0.27,0.6,0.61
5.240180015563965,3,3,3,2,-9.67,0.6899999999999999,-0.8100000000000001,0.83,0.6899999999999999,0.22
5.250180006027222,3,3,3,2,-10.47,0.68,-0.96,0.64,0.53,-0.65
5.260179996490479,3,3,3,2,-11.09,0.5,-0.58,0.29,0.38,-0.97
5.270179986953735,3,3,3,2,-11.5,0.41,-0.33,-0.29,0.35,-1.1
5.280179977416992,3,3,3,2,-11.5,0.41,-0.33,-0.29,0.35,-1.1
5.290179967880249,3,3,3,2,-11.87,-0.39,0,-1.65,0.09,-1.22
5.300179958343506,3,3,3,2,-12.76,-3.21,0.4,-3.21,-0.8,-1.82
5.310179948806763,3,3,3,2,-13.14,-3.79,0.72,-3.1,-1.54,-2.65
5.32017993927002,3,3,3,2,-13.52,-4.33,1.12,-2.81,-2.28,-3.75
5.330179929733276,3,3,3,2,-14.4,-4.49,1.69,-2.1,-2.83,-4.92
5.340179920196533,3,3,3,2,-16.92,-5.67,2.96,-1.86,-3.74,-6.1
5.35017991065979,3,3,3,2,-17.55,-6.71,3.07,-2.22,-4.74,-7.05
5.360180139541626,3,3,3,2,-18.01,-7.64,2.87,-2.22,-5.45,-7.69
5.370180130004883,3,3,3,2,-18.3,-8.779999999999999,2.25,-1.92,-6.15,-8.220000000000001
5.38018012046814,3,3,3,2,-19.24,-10.76,1.2,-2.22,-6.82,-8.94
5.390180110931396,3,3,3,2,-20.02,-12.07,0.29,-2.92,-7.37,-10.06
5.400180101394653,3,3,3,2,-21,-12.73,0.7,-4.55,-7.74,-11.7
5.41018009185791,3,3,3,2,-20.88,-14.4,-1.2,-6.5,-7.8,-13.32
5.420180082321167,3,3,3,2,-22.07,-14.17,-6.09,-2.25,-6.36,-16.06
5.430180072784424,3,3,3,2,-23.67,-11.09,-6.79,2.09,-5.23,-19.19
5.440180063247681,3,3,3,2,-24.44,-7.3,-7.69,5.28,-4.45,-21.55
5.450180053710938,3,3,3,2,-24.54,-2.12,-6.69,7.76,-3.18,-22.4
5.460180044174194,3,3,3,2,-20.82,7.03,-1.76,8.07,-2.26,-21.58
5.470180034637451,3,3,3,2,-17.19,8.59,-0.12,5.83,-0.45,-20.16
5.480180025100708,3,3,3,2,-14.23,7.63,1.12,3.81,1.56,-18.81
5.490180015563965,3,3,3,2,-10.91,5.18,1.94,3.24,2.46,-17.89
5.500180006027222,3,3,3,2,-4.63,3.57,1.95,7.29,3.3,-17.43
5.510179996490479,3,3,3,2,-3.16,10.95,2.17,13.86,1.17,-16.18
5.520179986953735,3,3,3,2,-2.52,22.67,4.31,16.2,-1.8,-10.8
5.530179977416992,3,3,3,2,-3.54,36.45,11.5,10.39,-3.29,-1.87
5.540179967880249,3,3,3,2,-0.65,30.86,7.42,1.84,-2.34,3.85
5.550179958343506,3,3,3,2,-1.32,18.29,1.83,-5.68,2.58,7.24
5.560179948806763,3,3,3,2,-2.76,6.54,0.23,-7.07,5.26,9.289999999999999
5.57017993927002,3,3,3,2,-3.13,-7.66,-2.99,-5.17,4.27,8.960000000000001
5.580179929733276,3,3,3,2,-3.81,-8.539999999999999,-2.5,0.26,2.66,7.37
5.590179920196533,3,3,3,2,-1.93,-7.91,-1.67,3.27,-1.54,5.43
5.60017991065979,3,3,3,2,-0.23,-8.27,-1.39,3.76,-2.39,3.78
5.610180139541626,3,3,3,2,1.16,-6.18,-3.52,3.4,-2.24,2.27
5.620180130004883,3,3,3,2,0.9399999999999999,-4.9,-2.49,3.07,-1.87,1.24
5.63018012046814,3,3,3,2,-0.05,-3.48,-1.42,4.62,-1.68,0.32
5.640180110931396,3,3,3,2,-0.98,-2.28,-0.85,5.85,-2.07,-0.21
5.650180101394653,3,3,3,2,-0.18,0.82,0.23,6.79,-2.41,0.06
5.66018009185791,3,3,3,2,0.31,1.89,0.72,6.38,-2.17,1.26
5.670180082321167,3,3,3,2,0.61,3.02,0.8100000000000001,3.99,-1.57,2.68
5.680180072784424,3,3,3,2,0.61,3.02,0.8100000000000001,0.33,-0.73,4.29
5.690180063247681,3,3,3,2,0.7,3.92,0.63,-2.87,-0.03,5.62
5.700180053710938,3,3,3,2,0.8100000000000001,3.62,-0.6899999999999999,-4.65,0.87,5.95
5.710180044174194,3,3,3,2,0.58,2.53,-0.42,-5.64,1.92,5.24
5.720180034637451,3,3,3,2,0.22,0.93,0.1,-5.66,3.32,3.87
5.730180025100708,3,3,3,2,0.22,0.93,0.1,-4.15,3.87,2.27
5.740180015563965,3,3,3,2,-0.91,-1.89,0.47,-1.75,3.72,0.93
5.750180006027222,3,3,3,2,-1.48,-2.45,-0.64,0.84,2.96,0.26
5.760179996490479,3,3,3,2,-1.11,-1.8,-0.52,2.99,1.83,0.33
5.771179914474487,3,3,3,2,-0.38,-0.44,-0.26,3.87,0.8,0.76
5.781180143356323,3,3,3,2,-0.38,-0.44,-0.26,3.73,0.17,1.2
5.79118013381958,3,3,3,2,0.5,1.87,-0.93,2.44,-0.37,1.98
5.801180124282837,3,3,3,2,0.47,3.3,-1.14,0.65,-1.32,2.74
5.811180114746094,3,3,3,2,-3.32,19.5,2.55,0.2,-1.97,4.49
5.821180105209351,3,3,3,2,-5.57,16.4,4.16,-11.17,-2.89,4.48
5.831180095672607,3,3,3,2,-5.57,16.4,4.16,-26.31,-1.27,0.16
5.841180086135864,3,3,3,2,-8.99,-17.86,-3.83,-34.14,-0.17,-3.89
5.851180076599121,3,3,3,2,-28.55,9.529999999999999,-2.01,-0.35,-1.63,-3.94
5.861180067062378,3,3,3,2,-34.22,14.93,7.31,20.26,-0.61,3.67
5.871180057525635,3,3,3,2,-27.61,4.88,-1.7,6.27,5.9,10.98
5.881180047988892,3,3,3,2,-27.61,4.88,-1.7,6.82,6.76,13.54
5.891180038452148,3,3,3,2,-15.51,3.23,-4.2,18.38,3.79,12.25
5.901180028915405,3,3,3,2,-39.33,30.13,19.74,11.73,1.34,17.5
5.911180019378662,3,3,3,2,-34.5,-5.89,8.890000000000001,-26.38,3.1,19.2
5.921180009841919,3,3,3,2,-8.16,-33.45,1.29,-39.55,6.62,14.34
5.931180000305176,3,3,3,2,-8.16,-33.45,1.29,-34.23,7.73,10.12
5.941179990768433,3,3,3,2,-10.5,-38.18,-4.57,2.63,6.38,5.6
5.951179981231689,3,3,3,2,-15.17,-30.92,-2.39,31.77,5.63,4.08
5.961179971694946,3,3,3,2,-6.98,-13.17,-3.2,41.73,2.36,2.96
5.971179962158203,3,3,3,2,-8.77,-7.54,-4.15,37.45,-1.85,-1.92
5.98117995262146,3,3,3,2,-12.59,0.78,-5.05,30.29,-3.02,-5.93
5.991179943084717,3,3,3,2,-18.13,11.03,-2.29,23.56,-4.11,-7.59
6.001179933547974,3,3,3,2,-25.4,12.55,2.64,4.51,-5.4,-4.91
6.01117992401123,3,3,3,2,-22.9,1.6,0.18,-21.04,-3.23,0.48
6.021179914474487,3,3,3,2,-16.1,-5.49,-1.39,-31.1,-0.17,3.08
6.031180143356323,3,3,3,2,-7.14,-6.7,-0.65,-28.21,0.15,1.96
6.04118013381958,3,3,3,2,-7.41,-8.859999999999999,-1.61,-22.44,-0.58,-0.46
6.051180124282837,3,3,3,2,-10.03,-8.279999999999999,-1.54,-12.74,-0.18,-3.32
6.061180114746094,3,3,3,2,-11.41,-6.42,-0.42,-3.97,0.36,-6.1
6.071180105209351,3,3,3,2,-11.07,-4.11,0.14,0.43,-0.06,-8.220000000000001
6.081180095672607,3,3,3,2,-10.32,-1.88,-0.06,1.47,-0.57,-9.57
6.091180086135864,3,3,3,2,-10.25,-1.69,-0.11,1.81,-0.92,-9.84
6.101180076599121,3,3,3,2,-9.640000000000001,-2.03,-0.25,2.29,-1.22,-9.06
6.111180067062378,3,3,3,2,-8.800000000000001,-2.19,-0.36,3,-1.25,-7.74
6.121180057525635,3,3,3,2,-8.34,-0.86,-0.33,3.27,-1.04,-6.63
6.131180047988892,3,3,3,2,-8.34,-0.01,-0.2,2.66,-0.78,-6.16
6.141180038452148,3,3,3,2,-8.33,0.71,0.01,1.63,-0.59,-6.04
6.151180028915405,3,3,3,2,-8.19,1.21,0.09,0.39,-0.58,-5.79
6.161180019378662,3,3,3,2,-8.140000000000001,1.76,0.84,-1.18,-0.59,-5.53
6.171180009841919,3,3,3,2,-8.33,1.89,1.28,-2.94,-0.51,-5.3
6.181180000305176,3,3,3,2,-8.51,1.9,1.73,-4.28,-0.22,-5.13
6.191179990768433,3,3,3,2,-8.539999999999999,1.48,2.18,-4.68,0.27,-4.91
6.201179981231689,3,3,3,2,-8.49,0.49,2.28,-4.14,0.71,-4.59
6.211179971694946,3,3,3,2,-8.42,-0.18,2.28,-3.07,0.88,-4.23
6.221179962158203,3,3,3,2,-8.4,-0.35,2.12,-1.15,1.02,-4.01
6.23117995262146,3,3,3,2,-8.550000000000001,0.08,1.79,1.04,0.79,-3.64
6.241179943084717,3,3,3,2,-8.640000000000001,0.82,0.84,2.64,0.32,-3.26
6.251179933547974,3,3,3,2,-8.82,1.13,0.29,3.12,-0.07000000000000001,-2.78
6.26117992401123,3,3,3,2,-9.09,1.28,-0.06,2.86,-0.22,-2.27
6.271179914474487,3,3,3,2,-9.33,1.57,-0.34,2.35,-0.05,-1.81
6.281180143356323,3,3,3,2,-9.880000000000001,1.04,-0.71,1.31,-0.03,-1.45
6.29118013381958,3,3,3,2,-9.880000000000001,0.29,-0.73,0.5,0.11,-1.33
6.301180124282837,3,3,3,2,-9.85,-0.22,-0.75,0.22,0.31,-1.55
6.311180114746094,3,3,3,2,-9.92,-0.82,-0.28,0.29,0.41,-1.9
6.321180105209351,3,3,3,2,-9.9,-1.2,-0.13,0.07000000000000001,0.21,-2.2
6.331180095672607,3,3,3,2,-9.91,-1.5,0.19,-0.11,0.06,-2.41
6.341180086135864,3,3,3,2,-9.94,-1.72,0.49,-0.44,0.06,-2.55
6.351180076599121,3,3,3,2,-9.869999999999999,-2.69,0.78,-1.31,0.06,-2.64
6.361180067062378,3,3,3,2,-9.67,-3.21,0.96,-2.03,0.25,-2.77
6.371180057525635,3,3,3,2,-9.789999999999999,-3.61,1.1,-2.09,0.6,-3.01
6.381180047988892,3,3,3,2,-9.949999999999999,-4.27,1.22,-2.15,0.61,-3.37
6.391180038452148,3,3,3,2,-10.07,-4.4,0.9,-1.65,0.63,-3.81
6.401180028915405,3,3,3,2,-10.07,-4.08,0.67,-0.78,0.64,-4.16
6.411180019378662,3,3,3,2,-9.9,-3.64,0.53,-0.24,0.55,-4.37
6.421180009841919,3,3,3,2,-9.75,-3.09,0.33,0.18,0.49,-4.46
6.431180000305176,3,3,3,2,-9.5,-2.3,-0.1,0.44,0.33,-4.53
6.441179990768433,3,3,3,2,-9.44,-2.02,-0.23,0.5600000000000001,0.12,-4.49
6.451179981231689,3,3,3,2,-9.34,-1.65,-0.27,0.86,0,-4.46
6.461179971694946,3,3,3,2,-9.33,-1.39,0,1.37,-0.16,-4.46
6.471179962158203,3,3,3,2,-9.27,-0.91,0.23,1.33,-0.29,-4.49
6.48117995262146,3,3,3,2,-9.210000000000001,-1.37,0.48,0.35,-0.34,-4.58
6.491179943084717,3,3,3,2,-9.18,-1.4,0.62,0.14,-0.27,-4.78
6.501179933547974,3,3,3,2,-9.279999999999999,-1.22,0.63,-0.11,-0.33,-4.88
6.51117992401123,3,3,3,2,-9.449999999999999,-1.3,0.77,-0.58,-0.63,-4.89
6.521179914474487,3,3,3,2,-9.390000000000001,-1.2,0.75,-0.97,-0.93,-4.74
6.531180143356323,3,3,3,2,-9.359999999999999,-1.03,0.77,-1.34,-1.18,-4.43
6.54118013381958,3,3,3,2,-9.359999999999999,-0.84,0.72,-2.06,-1.34,-4.16
6.551180124282837,3,3,3,2,-9.35,-0.86,0.42,-3.27,-1.37,-3.75
6.561180114746094,3,3,3,2,-9.34,-1.21,0.47,-4.39,-1.12,-3.34
6.571180105209351,3,3,3,2,-9.380000000000001,-1.65,0.43,-5.22,-0.57,-2.98
6.581180095672607,3,3,3,2,-9.380000000000001,-2.43,0.52,-5.07,-0.11,-2.61
6.591180086135864,3,3,3,2,-9.449999999999999,-3.08,0.46,-3.56,-0.06,-2.58
6.601180076599121,3,3,3,2,-9.31,-3.18,0.32,-1.99,-0.31,-2.65
6.611180067062378,3,3,3,2,-9.25,-3.22,0.35,-0.53,-0.75,-2.81
6.621180057525635,3,3,3,2,-9.390000000000001,-3.1,0.26,0.53,-1.15,-2.93
6.631180047988892,3,3,3,2,-9.51,-2.55,0.1,1.02,-1.43,-2.95
6.641180038452148,3,3,3,2,-9.48,-2.34,-0.1,0.93,-1.44,-2.86
6.651180028915405,3,3,3,2,-9.460000000000001,-2.31,-0.31,0.25,-1.03,-2.71
6.661180019378662,3,3,3,2,-9.460000000000001,-2.72,0.06,-0.21,-0.58,-2.56
6.671180009841919,3,3,3,2,-9.369999999999999,-2.72,0.15,0.04,-0.44,-2.58
6.681180000305176,3,3,3,2,-9.369999999999999,-2.8,0.25,0.27,-0.55,-2.66
6.691179990768433,3,3,3,2,-9.33,-2.89,0.38,0.34,-0.9399999999999999,-2.81
6.701179981231689,3,3,3,2,-9.24,-2.68,0.51,0.33,-1.35,-2.95
6.711179971694946,3,3,3,2,-9.31,-2.53,0.63,-0.02,-1.55,-2.91
6.721179962158203,3,3,3,2,-9.369999999999999,-2.53,0.61,-0.87,-1.6,-2.86
6.73117995262146,3,3,3,2,-9.42,-2.62,0.53,-1.66,-1.58,-2.8
6.741179943084717,3,3,3,2,-9.35,-2.93,0.21,-1.66,-1.58,-2.8
6.751179933547974,3,3,3,2,-9.24,-3.05,0.02,-2.14,-1.46,-2.82
6.76117992401123,3,3,3,2,-9.27,-3.3,-0.02,-2.59,-0.62,-2.32
6.771179914474487,3,3,3,2,-9.4,-3.54,0.16,-2.07,-0.49,-1.95
6.781180143356323,3,3,3,3,-9.32,-3.34,0.27,-1.29,-0.46,-1.94
6.79118013381958,3,3,3,3,-9.26,-3.49,0.23,-1.29,-0.46,-1.94
6.802180051803589,3,3,3,3,-9.140000000000001,-3.58,0.17,-1.09,-0.5600000000000001,-2.02
6.812180042266846,3,3,3,3,-9.119999999999999,-3.43,0.31,-0.82,-0.85,-2.17
6.822180032730103,3,3,3,3,-9.050000000000001,-3.06,0.44,-0.55,-1.05,-2.35
6.832180023193359,3,3,3,3,-9.039999999999999,-2.99,0.51,-0.29,-1.13,-2.36
6.842180013656616,3,3,3,3,-9.039999999999999,-2.91,0.6,-0.29,-1.13,-2.36
6.852180004119873,3,3,3,3,-9.07,-2.88,0.53,0.02,-1.05,-2.28
6.86217999458313,3,3,3,3,-9.07,-2.67,0.54,0.16,-0.92,-2.23
6.872179985046387,3,3,3,3,-9.16,-2.75,0.67,0.22,-0.76,-2.07
6.882179975509644,3,3,3,3,-9.24,-2.76,0.76,-0.09,-0.29,-1.24
6.8921799659729,3,3,3,3,-9.24,-2.82,0.82,-0.09,-0.29,-1.24
6.902179956436157,3,3,3,3,-9.279999999999999,-3.08,0.77,-0.28,-0.24,-0.91
6.912179946899414,3,3,3,3,-9.26,-3.15,0.74,-0.39,-0.22,-0.7
6.922179937362671,3,3,3,3,-9.220000000000001,-3.15,0.8,-0.54,-0.25,-0.62
6.932179927825928,3,3,3,3,-9.23,-3.18,0.75,-0.57,-0.26,-0.58
6.942179918289185,3,3,3,3,-9.140000000000001,-3.18,0.58,-0.53,-0.3,-0.49
6.952179908752441,3,3,3,3,-9.15,-3.22,0.42,-0.55,-0.28,-0.42
6.962180137634277,3,3,3,3,-9.19,-3.32,0.38,-0.5600000000000001,-0.2,-0.33
6.972180128097534,3,3,3,3,-9.220000000000001,-3.44,0.42,-0.46,-0.07000000000000001,-0.24
6.982180118560791,3,3,3,3,-9.35,-3.72,0.52,-0.35,0.08,-0.05
6.992180109024048,3,3,3,3,-9.279999999999999,-3.71,0.62,-0.05,0.21,0.16
7.002180099487305,3,3,3,3,-9.199999999999999,-3.74,0.57,0.41,0.29,0.24
7.012180089950562,3,3,3,3,-9.109999999999999,-3.76,0.64,0.75,0.33,0.28
7.022180080413818,3,3,3,3,-9.01,-3.37,0.62,0.9399999999999999,0.27,0.26
7.032180070877075,3,3,3,3,-9.039999999999999,-3.21,0.59,0.93,0.12,0.23
7.042180061340332,3,3,3,3,-9.050000000000001,-3.11,0.49,0.87,0.07000000000000001,0.19
7.052180051803589,3,3,3,3,-9.029999999999999,-3.08,0.39,0.66,0.12,0.19
7.062180042266846,3,3,3,3,-9.1,-3.18,0.37,0.47,0.21,0.26
7.072180032730103,3,3,3,3,-9.220000000000001,-3.37,0.37,0.29,0.39,0.4
7.082180023193359,3,3,3,3,-9.279999999999999,-3.48,0.43,0.12,0.5,0.59
7.092180013656616,3,3,3,3,-9.289999999999999,-3.53,0.47,0.21,0.55,0.65
7.102180004119873,3,3,3,3,-9.33,-3.48,0.52,0.18,0.6,0.78
7.11217999458313,3,3,3,3,-9.33,-3.19,0.57,0.01,0.62,1
7.122179985046387,3,3,3,3,-9.210000000000001,-2.92,0.57,-0.01,0.43,1.13
7.132179975509644,3,3,3,3,-9.08,-2.85,0.53,-0.21,0.34,1.09
7.1421799659729,3,3,3,3,-9.1,-2.83,0.41,-0.39,0.35,1
7.152179956436157,3,3,3,3,-9.109999999999999,-2.68,0.3,-0.43,0.35,0.91
7.162179946899414,3,3,3,3,-9.17,-2.59,0.24,-0.31,0.34,0.95
7.172179937362671,3,3,3,3,-9.380000000000001,-2.67,0.32,-0.26,0.49,1.13
7.182179927825928,3,3,3,3,-9.529999999999999,-2.83,0.38,-0.21,0.8,1.5
7.192179918289185,3,3,3,3,-9.57,-2.87,0.38,-0.28,1,1.94
7.202179908752441,3,3,3,3,-9.57,-2.91,0.38,-0.25,0.99,2.12
7.212180137634277,3,3,3,3,-9.32,-3.21,0.42,-0.18,1.06,2.19
7.222180128097534,3,3,3,3,-9.220000000000001,-3.07,0.43,0.1,1,2.03
7.232180118560791,3,3,3,2,-9.15,-2.83,0.45,0.48,0.83,1.84
7.242180109024048,3,3,3,2,-9.119999999999999,-2.57,0.42,0.51,0.72,1.77
7.252180099487305,3,3,3,2,-9.199999999999999,-2.4,0.24,0.15,0.8,1.96
7.262180089950562,3,3,3,2,-9.279999999999999,-2.38,0.35,-0.37,1.09,2.35
7.272180080413818,3,3,3,2,-9.26,-2.37,0.45,-0.62,1.3,2.7
7.282180070877075,3,3,3,2,-9.26,-2.43,0.57,-0.48,1.48,2.97
7.292180061340332,3,3,3,2,-9.41,-2.79,0.4,-0.23,1.57,3.14
7.302180051803589,3,3,3,2,-9.4,-2.7,0.32,-0.08,1.28,3.05
7.312180042266846,3,3,3,2,-9.33,-2.54,0.29,0.2,0.84,2.93
7.322180032730103,3,3,3,2,-9.44,-2.42,0.23,0.15,0.5600000000000001,2.86
7.332180023193359,3,3,3,2,-9.550000000000001,-2.64,0.19,-0.29,0.57,2.91
7.342180013656616,3,3,3,2,-9.369999999999999,-2.47,0.21,-0.72,0.77,3.22
7.352180004119873,3,3,3,2,-9.27,-2.35,0.13,-0.44,0.91,3.42
7.36217999458313,3,3,3,2,-9.199999999999999,-2.13,0.17,0.02,1.07,3.57
7.372179985046387,3,3,3,2,-9.07,-0.99,0.52,0.63,1.17,3.75
7.382179975509644,3,3,3,2,-9.01,-0.19,0.6899999999999999,1.44,1.1,4.1
7.3921799659729,3,3,3,2,-9.06,0.01,0.8100000000000001,1.69,1.05,4.7
7.402179956436157,3,3,3,2,-9.18,-0.04,0.95,1.1,1.18,5.44
7.412179946899414,3,3,3,2,-9.460000000000001,0.03,0.77,0.89,1.12,6.1
7.422179937362671,3,3,3,2,-9.51,-0.15,0.76,0.65,0.92,6.63
7.432179927825928,3,3,3,2,-9.48,-0.29,0.67,0.62,0.73,7.08
7.442179918289185,3,3,3,2,-9.42,-0.76,0.54,0.52,0.5,7.48
7.452179908752441,3,3,3,2,-8.949999999999999,-1.6,0.62,0.33,0.27,7.84
7.462180137634277,3,3,3,2,-8.720000000000001,-1.55,0.68,0.84,0.11,8.01
7.472180128097534,3,3,3,2,-8.65,-1.1,0.64,1.85,0.28,8.07
7.482180118560791,3,3,3,2,-8.49,0.58,0.89,2.8,0.29,8.24
7.492180109024048,3,3,3,2,-8.44,1.45,1.07,3.43,0.06,8.720000000000001
7.502180099487305,3,3,3,2,-8.380000000000001,2.16,1.16,3.56,-0.28,9.51
7.512180089950562,3,3,3,2,-8.34,2.88,1.01,3.3,-0.6,10.49
7.522180080413818,3,3,3,2,-8.539999999999999,0.59,1.11,1.88,-0.71,11.56
7.532180070877075,3,3,3,2,-8.32,-0.6,0.53,-0.54,-0.62,12.34
7.542180061340332,3,3,3,2,-8.23,-1.53,0.26,-1.71,-0.36,12.31
7.552180051803589,3,3,3,2,-8.56,-1.97,0.22,-0.96,0.6,11.97
7.562180042266846,3,3,3,2,-9.41,-1.27,-0.28,1,1.37,11.55
7.572180032730103,3,3,3,2,-9.380000000000001,-0.41,-0.47,3.12,1.15,11.59
7.582180023193359,3,3,3,2,-8.83,0.31,-0.42,5.09,0.3,12.13
7.592180013656616,3,3,3,2,-8.18,0.24,-0.3,6.05,-0.08,12.63
7.602180004119873,3,3,3,2,-7.41,-1.18,-0.67,5.03,0.42,12.8
7.61217999458313,3,3,3,2,-7.77,-1.33,-1.24,3.17,1.34,12.6
7.622179985046387,3,3,3,2,-8.74,-0.59,-1.35,2.74,2.37,12.29
7.632179975509644,3,3,3,2,-9.48,0.32,-0.8100000000000001,5.03,2.54,11.97
7.6421799659729,3,3,3,2,-9.949999999999999,-0.43,0.68,6.48,2.44,11.92
7.652179956436157,3,3,3,2,-9.800000000000001,-0.75,0.27,5.51,2.18,11.77
7.662179946899414,3,3,3,2,-9.550000000000001,-1.33,0.25,4.15,2.57,11.67
7.672179937362671,3,3,3,2,-9.210000000000001,-1.18,0.19,3.53,2.96,11.61
7.682179927825928,3,3,3,2,-9.279999999999999,0.58,-0.67,4.73,3.62,11.48
7.692179918289185,3,3,3,2,-9.65,0.9,-0.48,6.13,4.25,11.47
7.702179908752441,3,3,3,2,-9.73,0.68,-0.65,6.37,4.64,11.63
7.712180137634277,3,3,3,2,-10.14,-0.31,-1.17,4.78,4.39,11.62
7.722180128097534,3,3,3,2,-10.7,-0.27,-1.71,2.86,3.68,11.45
7.732180118560791,3,3,3,3,-10.95,-0.11,-1.55,2.93,3.58,11.07
7.742180109024048,3,3,3,3,-10.85,0.07000000000000001,-1.44,2.71,3.84,10.77
7.752180099487305,3,3,3,3,-10.72,0.37,-1.94,2.31,3.93,10.64
7.762180089950562,3,3,3,3,-10.68,-0.07000000000000001,-1.51,1.38,4.52,10.62
7.772180080413818,3,3,3,3,-10.55,0.15,-1.44,-0.35,4.53,10.52
7.782180070877075,3,3,3,3,-10.54,0.23,-0.75,-1.35,4.29,10.31
7.792180061340332,3,3,3,3,-10.57,0.01,-0.7,-2.51,4.03,9.6
7.802180051803589,3,3,3,3,-11.68,1.29,-1,-3,3.83,8.130000000000001
7.812180042266846,3,3,3,3,-12.34,0.83,-0.37,-2.56,3.46,6.64
7.823179960250854,3,3,3,3,-12.68,0.35,-0.5,-3.02,2.89,4.87
7.833179950714111,3,3,3,3,-13.75,-0.44,-0.67,-3.86,2.4,3.31
7.843179941177368,3,3,3,3,-14.08,-1.01,-0.7,-4.22,1.97,2.04
7.853179931640625,3,3,3,3,-14.77,-2,-0.92,-4.61,1.45,0.75
7.863179922103882,3,3,3,3,-15.31,-1.72,-0.65,-4.44,1.03,-0.36
7.873179912567139,3,3,3,3,-16.25,-2.05,0.76,-3.7,0.63,-1.26
7.883180141448975,3,3,3,2,-16.21,-2.22,1.34,-2.9,0.05,-1.87
7.893180131912231,3,3,3,2,-16.51,-2.4,2.2,-2.17,-0.34,-2.61
7.903180122375488,3,3,3,2,-16.62,-2.9,3.31,-1.83,-1.09,-3.6
7.913180112838745,3,3,3,2,-16.73,-3.83,5.25,-1.62,-2.34,-4.69
7.923180103302002,3,3,3,2,-16.57,-4.2,5.74,-1.34,-4.09,-5.97
7.933180093765259,3,3,3,2,-17.19,-3.43,5.82,0.19,-6.27,-7.57
7.943180084228516,3,3,3,2,-17.46,-3.04,5.07,2.71,-7.85,-9.460000000000001
7.953180074691772,3,3,3,2,-19.14,-4.32,1.58,3.91,-10.03,-11.11
7.963180065155029,3,3,3,2,-20.23,-5.53,-0.53,3.75,-11.41,-12.99
7.973180055618286,3,3,3,2,-21.62,-6.07,-1.89,3.41,-12.41,-14.99
7.983180046081543,3,3,3,1,-22.81,-7.14,-2.04,3.25,-12.8,-16.57
7.9931800365448,3,3,3,1,-23.77,-9.59,-3.44,3.19,-12.6,-17.4
8.003180027008057,3,3,3,1,-24.04,-11.39,-4.21,2.41,-12.06,-18
8.013180017471313,3,3,3,1,-24.18,-13.67,-5.61,1.03,-11.25,-19.43
8.02318000793457,3,3,3,1,-24.05,-14.85,-7.14,0.88,-10.24,-22.08
8.033179998397827,3,3,3,1,-24.26,-14.99,-9.1,2.07,-8.98,-25.25
8.043179988861084,3,3,3,1,-23.43,-12.69,-11.12,3,-8.380000000000001,-28.45
8.053179979324341,3,3,3,1,-22.39,-7.73,-10.82,6.73,-6.86,-31.19
8.063179969787598,3,3,3,1,-21.51,-2.44,-9.130000000000001,10.53,-5.32,-32.41
8.073179960250854,3,3,3,1,-16.08,7.6,-2.2,11.78,-3.95,-32.32
8.083179950714111,3,3,3,1,-11.68,9.69,0.24,10.35,-3.44,-31.02
8.093179941177368,3,3,3,1,-8.279999999999999,19.98,4.8,9.43,-4.16,-29.09
8.103179931640625,3,3,3,1,-5.95,39.14,10.84,15.65,-3.78,-24.86
8.113179922103882,3,3,3,1,-1.15,39.08,21.95,2.63,-1.98,-12.09
8.123179912567139,3,3,3,1,6.07,32.89,3.24,-18.36,-1.52,-2.44
8.133180141448975,3,3,3,1,1.16,7.93,-0.43,-27.44,9.859999999999999,5.35
8.143180131912231,3,3,3,1,-4.5,-7.72,0.47,-21.9,9.359999999999999,9.1
8.153180122375488,3,3,3,1,-7.94,-4.5,-0.34,-9.210000000000001,7.08,6.05
8.163180112838745,3,3,3,1,-2.29,0.25,-0.28,-0.07000000000000001,2.97,4.93
8.173180103302002,3,3,3,1,-0.21,-2.43,-1.95,1.76,-0.9,6.49
8.183180093765259,3,3,3,1,1.93,-7.44,-3.3,-5.81,-2.26,8.470000000000001
8.193180084228516,3,3,3,1,2.56,-12.93,-5.45,-9.31,-2.87,8.48
8.203180074691772,3,3,3,1,1.2,-12.35,-5.09,-7.59,-1.14,5.82
8.213180065155029,3,3,3,1,-0.02,-9.460000000000001,-2.74,-1.49,0.34,3.43
8.223180055618286,3,3,3,1,0.25,-2.77,-2.06,5.81,-0.6899999999999999,2.02
8.233180046081543,3,3,3,1,0.8,-0.66,-0.65,10.76,-3.26,1.64
8.2431800365448,3,3,3,1,0.75,0.6899999999999999,1.09,11.46,-4.92,2.05
8.253180027008057,3,3,3,1,0.68,1.72,1.75,7.92,-5.47,3.15
8.263180017471313,3,3,3,1,0.71,-0.76,2.07,2.38,-5.5,5.05
8.27318000793457,3,3,3,1,1.38,-1.92,1.18,-1.6,-4.26,6.52
8.283179998397827,3,3,3,1,1.8,-2.09,0.31,-0.53,-1.86,6.42
8.293179988861084,3,3,3,1,1.52,-1.33,-0.02,1.93,1.57,5.32
8.303179979324341,3,3,3,1,-0.17,1.08,-0.44,3.79,4.53,4.55
8.313179969787598,3,3,3,1,-0.61,1.84,-0.98,4.14,5.39,4.39
8.323179960250854,3,3,3,1,-0.85,2.51,-1.31,3.42,4.78,4.48
8.333179950714111,3,3,3,1,-0.87,3.12,-1.33,1.83,3.82,4.67
8.343179941177368,3,3,3,1,-0.37,2.31,-0.98,-1.62,3.11,4.91
8.353179931640625,3,3,3,1,-0.23,1.57,-1.88,-5.97,2.56,5.1
8.363179922103882,3,3,3,1,-0.53,0.25,-2.43,-8.640000000000001,1.98,5.01
8.373179912567139,3,3,3,1,-0.67,-1.25,-2.37,-9.66,1.1,4.77
8.383180141448975,3,3,3,1,-0.05,-0.89,-1.34,-6.82,0.19,4.4
8.393180131912231,3,3,3,1,-0.06,-0.87,-0.73,-2.6,-0.36,4.51
8.403180122375488,3,3,3,1,-0.22,-1.17,0.07000000000000001,-0.24,-0.35,4.66
8.413180112838745,3,3,3,1,-0.31,-1.48,0.23,2.12,-0.24,4.38
8.423180103302002,3,3,3,1,-0.17,-0.2,0.78,6.66,-0.37,3.9
8.433180093765259,3,3,3,1,0,1.2,0.93,10.57,-0.5,3.45
8.443180084228516,3,3,3,1,-0.02,3.25,0.79,13.53,0,3.16
8.453180074691772,3,3,3,1,-0.12,5.62,1.04,16.27,0.36,3.25
8.463180065155029,3,3,3,1,-3.62,25.36,1.52,14.81,0.27,3.52
8.473180055618286,3,3,3,1,-9.15,35.52,5.72,17.31,-0.14,5.55
8.483180046081543,3,3,3,1,-9.81,6.15,9.25,1.32,-0.76,5.98
8.4931800365448,3,3,3,1,-6.27,-29.45,-2.8,-29.07,0.5,-1.77
8.503180027008057,3,3,3,1,-27.66,8.279999999999999,-3.89,-21.91,2.83,-9.09
8.513180017471313,3,3,3,1,-31.99,15.33,7.26,23.22,-3.65,-5.47
8.52318000793457,3,3,3,1,-29.11,4.72,-9.01,18.07,-0.7,4.07
8.533179998397827,3,3,3,2,-25.52,10.15,-8.58,2.02,6.95,11.93
8.543179988861084,3,3,3,2,-39.33,39.14,11.92,7.01,3.55,12.66
8.553179979324341,3,3,3,2,-39.33,24.25,22.29,24.57,3.51,16.73
8.563179969787598,3,3,3,2,-30.2,-11.45,4.29,-53.14,5.58,28.61
8.573179960250854,3,3,3,2,-6.5,-36.35,-0.16,-81.34,10.28,22.14
8.583179950714111,3,3,3,2,-6.36,-39.19,-7.38,-73.38,12.63,15.37
8.593179941177368,3,3,3,2,-11.5,-39.2,-3.47,-12.2,9.029999999999999,8.59
8.603179931640625,3,3,3,2,-6.31,-28.48,-3.48,49.72,7.56,7.06
8.613179922103882,3,3,3,2,-10.43,-7.63,-5.49,65.5,2.75,1.51
8.623179912567139,3,3,3,2,-16.75,6.09,-5.8,58.51,-3.77,-6.95
8.633180141448975,3,3,3,3,-24.92,23.66,1.45,49.33,-6.7,-14.03
8.643180131912231,3,3,3,3,-32.22,27.17,8.789999999999999,30.51,-9.52,-15.51
8.653180122375488,3,3,3,3,-25.48,-6.55,-1.7,-11.27,-8.83,-6.03
8.663180112838745,3,3,3,3,-13.89,-10.16,-2.81,-40.04,-1.72,4.99
8.673180103302002,3,3,3,3,-4.26,-9.470000000000001,-0.5,-38.72,2.14,5.17
8.683180093765259,3,3,3,2,-4.33,-9.73,-0.7,-29.29,0.45,0.38
8.693180084228516,3,3,3,2,-10.64,-8.25,-0.51,-19.52,0.05,-3.78
8.703180074691772,3,3,3,2,-11.65,-5.67,0.09,-9.210000000000001,0.87,-6.85
8.713180065155029,3,3,3,2,-11.51,-3.73,0.42,-1.27,1.21,-9.609999999999999
8.723180055618286,3,3,3,2,-10.67,-2.67,-0.05,2.64,0.88,-11.76
8.733180046081543,3,3,3,2,-9.31,-2.72,-0.55,5.05,0.44,-12.79
8.7431800365448,3,3,3,2,-8.51,-2.23,-0.49,7.64,0.19,-12.18
8.753180027008057,3,3,3,2,-7.64,-1.27,-0.39,9.720000000000001,-0.34,-10.46
8.763180017471313,3,3,3,2,-7.62,0.03,-0.2,10.11,-0.67,-8.82
8.77318000793457,3,3,3,2,-7.34,1.91,0.04,8.140000000000001,-0.5600000000000001,-8.02
8.783179998397827,3,3,3,2,-6.91,3.01,0.15,4.51,-0.59,-7.58
8.793179988861084,3,3,3,2,-6.82,4.13,0.6,0.86,-0.45,-7.05
8.803179979324341,3,3,3,2,-7.17,5.01,1.02,-3.17,-0.27,-6.43
8.813179969787598,3,3,3,2,-7.88,4.9,1.48,-8.23,-0.36,-5.96
8.823179960250854,3,3,3,2,-8.31,3.64,1.54,-13.01,0.2,-5.74
8.833179950714111,3,3,3,2,-8.75,2.14,1.81,-16.49,0.86,-5.5
8.844180107116699,3,3,3,2,-9.109999999999999,0.82,1.7,-17.34,1.47,-5.21
8.854180097579956,3,3,3,2,-9.220000000000001,-1.82,1.07,-16.2,1.68,-4.88
8.864180088043213,3,3,3,2,-9.35,-2.21,0.92,-12.64,1.78,-4.62
8.87418007850647,3,3,3,2,-9.25,-2.22,0.65,-7.68,1.82,-4.43
8.884180068969727,3,3,3,2,-8.949999999999999,-1.7,0.33,-2.72,1.41,-4.44
8.894180059432983,3,3,3,2,-9,0.16,-0.07000000000000001,1.47,1.31,-4.54
8.90418004989624,3,3,3,2,-9.27,0.71,-0.25,3.78,1.07,-4.56
8.914180040359497,3,3,3,2,-9.49,1.02,-0.31,4.62,0.4,-4.4
8.924180030822754,3,3,3,2,-9.720000000000001,0.87,-0.14,4.62,0.08,-4.15
8.934180021286011,3,3,3,2,-10.02,0.58,-0.14,4.17,-0.02,-4.04
8.944180011749268,3,3,3,2,-9.82,0.11,-0.05,3.66,-0.22,-4
8.954180002212524,3,3,3,2,-9.67,-0.25,-0.2,2.9,-0.16,-3.97
8.964179992675781,3,3,3,2,-9.66,-0.91,0.01,1.6,-0.02,-3.87
8.974179983139038,3,3,3,2,-9.779999999999999,-1.53,0.1,0.41,0.07000000000000001,-3.79
8.984179973602295,3,3,3,1,-9.609999999999999,-2.16,0.3,-0.53,-0.01,-3.69
8.994179964065552,3,3,3,1,-9.5,-2.59,0.25,-1.16,-0.01,-3.69
9.004179954528809,3,3,3,1,-9.73,-2.83,-0.05,-1.35,0.04,-4.04
9.014179944992065,3,3,3,1,-9.449999999999999,-2.81,0.14,-1.45,-0.12,-4.55
9.024179935455322,3,3,3,1,-9.43,-2.72,0.1,-1.18,-0.12,-5.09
9.034179925918579,3,3,3,1,-9.41,-2.69,0.23,-1.44,-0.25,-5.48
9.044179916381836,3,3,3,1,-9.25,-1.78,0.28,-1.06,-0.48,-5.83
9.054180145263672,3,3,3,1,-9.300000000000001,-1.85,0.21,-1.12,-0.74,-5.8
9.064180135726929,3,3,3,1,-9.24,-1.89,0.29,-1.87,-1.08,-5.46
9.074180126190186,3,3,3,1,-9.199999999999999,-2.03,0.47,-2.25,-1.19,-5.2
9.084180116653442,3,3,3,1,-9.26,-1.4,0.42,-1.91,-1.12,-5.1
9.094180107116699,3,3,3,1,-9.26,-1.24,0.32,-1.76,-1.3,-4.99
9.104180097579956,3,3,3,1,-9.33,-1.12,0.18,-2.07,-1.38,-4.69
9.114180088043213,3,3,3,1,-9.470000000000001,-0.23,0.1,-1.95,-1.27,-4.53
9.12418007850647,3,3,3,1,-9.56,0.88,0.38,-1.77,-1.3,-4.28
9.134180068969727,3,3,3,1,-9.66,0.88,0.65,-2.57,-1.03,-3.76
9.144180059432983,3,3,3,1,-9.789999999999999,1.08,0.76,-3.18,-0.58,-3.03
9.15418004989624,3,3,3,1,-9.960000000000001,1.05,0.8100000000000001,-3.22,-0.3,-2.32
9.164180040359497,3,3,3,1,-10.11,0.3,1.01,-2.82,-0.2,-1.62
9.174180030822754,3,3,3,1,-10.15,-0.23,0.9399999999999999,-1.89,-0.08,-1.08
9.184180021286011,3,3,3,1,-10.03,-0.65,0.9,-0.61,0.01,-0.67
9.194180011749268,3,3,3,1,-9.880000000000001,-1.01,0.76,0.64,0.01,-0.41
9.204180002212524,3,3,3,1,-9.58,-2.13,0.37,1.32,0.12,-0.27
9.214179992675781,3,3,3,1,-9.5,-2.66,0.26,1.73,0.38,-0.15
9.224179983139038,3,3,3,1,-9.390000000000001,-3.33,0.24,2.18,0.52,-0.13
9.234179973602295,3,3,3,1,-9.26,-3.62,0.27,2.76,0.63,-0.16
9.244179964065552,3,3,3,1,-9.130000000000001,-3.22,0.19,3.83,0.58,-0.38
9.254179954528809,3,3,3,1,-9.140000000000001,-3.02,0.08,4.46,0.39,-0.55
9.264179944992065,3,3,3,1,-9.26,-2.78,0.15,4.45,0.18,-0.64
9.274179935455322,3,3,3,1,-9.33,-2.56,0.32,3.82,0.12,-0.67
9.284179925918579,3,3,3,1,-9.49,-2.33,0.28,3.13,0.11,-0.67
9.294179916381836,3,3,3,1,-9.58,-2.37,0.31,2.05,0.06,-0.6899999999999999
9.304180145263672,3,3,3,1,-9.550000000000001,-2.27,0.19,1.24,-0.1,-0.83
9.314180135726929,3,3,3,1,-9.5,-2.22,0.17,0.3,-0.26,-0.9
9.324180126190186,3,3,3,1,-9.44,-2.32,0.26,-0.72,-0.33,-0.96
9.334180116653442,3,3,3,2,-9.449999999999999,-2.31,0.27,-1.45,-0.33,-0.97
9.344180107116699,3,3,3,2,-9.5,-2.39,0.26,-1.85,-0.42,-1.02
9.354180097579956,3,3,3,2,-9.56,-2.59,0.17,-2.1,-0.49,-1.03
9.364180088043213,3,3,3,2,-9.51,-2.7,0.27,-2,-0.45,-1.08
9.37418007850647,3,3,3,2,-9.4,-2.61,0.31,-1.42,-0.41,-1.01
9.384180068969727,3,3,3,2,-9.369999999999999,-2.65,0.35,-0.7,-0.4,-0.9399999999999999
9.394180059432983,3,3,3,2,-9.390000000000001,-2.69,0.33,0.12,-0.41,-0.86
9.40418004989624,3,3,3,2,-9.41,-2.73,0.23,0.82,-0.44,-0.78
9.414180040359497,3,3,3,2,-9.449999999999999,-2.82,0.31,1.34,-0.4,-0.66
9.424180030822754,3,3,3,2,-9.51,-2.89,0.35,1.75,-0.29,-0.64
9.434180021286011,3,3,3,2,-9.42,-2.8,0.27,2.15,-0.18,-0.65
9.444180011749268,3,3,3,2,-9.41,-3.12,0.35,2.26,-0.11,-0.61
9.454180002212524,3,3,3,2,-9.42,-3.12,0.37,2.11,0.11,-0.53
9.464179992675781,3,3,3,2,-9.33,-2.94,0.38,2.37,0.16,-0.5
9.474179983139038,3,3,3,2,-9.23,-2.9,0.49,2.33,0.15,-0.49
9.484179973602295,3,3,3,2,-9.210000000000001,-2.9,0.52,2.01,0.13,-0.44
9.494179964065552,3,3,3,2,-9.25,-2.73,0.48,1.8,0.09,-0.4
9.504179954528809,3,3,3,2,-9.300000000000001,-2.61,0.35,1.37,-0.04,-0.45
9.514179944992065,3,3,3,2,-9.359999999999999,-2.61,0.24,0.83,-0.27,-0.47
9.524179935455322,3,3,3,2,-9.41,-2.76,0.24,0.24,-0.36,-0.52
9.534179925918579,3,3,3,2,-9.460000000000001,-2.83,0.26,-0.32,-0.32,-0.58
9.544179916381836,3,3,3,2,-9.449999999999999,-2.87,0.24,-0.68,-0.26,-0.55
9.554180145263672,3,3,3,2,-9.460000000000001,-3.19,0.26,-0.97,-0.11,-0.52
9.564180135726929,3,3,3,2,-9.390000000000001,-3.12,0.31,-1.01,0.02,-0.47
9.574180126190186,3,3,3,2,-9.41,-3.11,0.43,-0.52,0.02,-0.55
9.584180116653442,3,3,3,2,-9.380000000000001,-3.07,0.47,-0.19,-0.08,-0.63
9.594180107116699,3,3,3,2,-9.380000000000001,-2.75,0.38,0.15,-0.25,-0.65
9.604180097579956,3,3,3,2,-9.369999999999999,-2.5,0.32,0.37,-0.35,-0.63
9.614180088043213,3,3,3,2,-9.380000000000001,-2.31,0.31,0.32,-0.34,-0.57
9.62418007850647,3,3,3,2,-9.42,-2.32,0.41,0.02,-0.17,-0.42
9.634180068969727,3,3,3,2,-9.460000000000001,-2.39,0.44,0.11,-0.04,-0.33
9.644180059432983,3,3,3,2,-9.49,-2.45,0.41,0.19,0.06,-0.32
9.65418004989624,3,3,3,2,-9.470000000000001,-2.51,0.28,0.23,0.07000000000000001,-0.27
9.664180040359497,3,3,3,2,-9.460000000000001,-2.58,0.41,0.19,0.09,-0.19
9.674180030822754,3,3,3,2,-9.369999999999999,-2.58,0.36,0.2,0.01,-0.14
9.684180021286011,3,3,3,2,-9.380000000000001,-2.63,0.37,0.02,0.06,-0.09
9.694180011749268,3,3,3,2,-9.31,-2.53,0.31,-0.14,0.01,-0.03
9.704180002212524,3,3,3,2,-9.390000000000001,-2.58,0.19,-0.54,0.12,0.11
9.714179992675781,3,3,3,2,-9.41,-2.68,0.39,-0.9,0.28,0.33
9.724179983139038,3,3,3,2,-9.369999999999999,-2.72,0.44,-0.99,0.47,0.5600000000000001
9.734179973602295,3,3,3,2,-9.24,-2.74,0.5,-0.82,0.5600000000000001,0.65
9.744179964065552,3,3,3,2,-9.19,-2.67,0.51,-0.53,0.5600000000000001,0.66
9.754179954528809,3,3,3,2,-9.199999999999999,-2.49,0.43,-0.4,0.45,0.72
9.764179944992065,3,3,3,2,-9.27,-2.4,0.48,-0.16,0.3,0.8
9.774179935455322,3,3,3,2,-9.4,-2.33,0.52,-0.18,0.25,0.93
9.784179925918579,3,3,3,2,-9.48,-2.32,0.53,-0.36,0.28,1.09
9.794179916381836,3,3,3,2,-9.57,-2.36,0.36,-0.46,0.35,1.19
9.804180145263672,3,3,3,2,-9.630000000000001,-2.58,0.29,-0.62,0.43,1.25
9.814180135726929,3,3,3,2,-9.6,-2.78,0.38,-0.67,0.51,1.28
9.824180126190186,3,3,3,2,-9.390000000000001,-2.46,0.37,-0.2,0.45,1.31
9.834180116653442,3,3,3,2,-9.35,-2.36,0.43,0.09,0.46,1.3
9.844180107116699,3,3,3,2,-9.31,-2.02,0.42,0.38,0.47,1.36
9.854180097579956,3,3,3,2,-9.32,-1.61,0.34,0.51,0.45,1.52
9.864180088043213,3,3,3,2,-9.279999999999999,-0.95,0.5600000000000001,0.33,0.6,1.9
9.875180006027222,3,3,3,2,-9.24,-0.54,0.67,0.04,0.98,2.5
9.885179996490479,3,3,3,2,-9.23,0.09,0.73,0.41,1.24,3.13
9.895179986953735,3,3,3,2,-9.369999999999999,0.34,0.8100000000000001,0.57,1.4,3.79
9.935179948806763,3,3,3,2,-9.81,-1.99,0.27,-1.09,0.89,4.82
9.94517993927002,3,3,3,2,-9.19,-2.54,0.46,-0.34,1,4.84
9.955179929733276,3,3,3,2,-9.130000000000001,-2.35,0.41,0.91,1.17,4.7
9.965179920196533,3,3,3,2,-9.119999999999999,-2.03,0.5,1.82,1.2,4.81
9.97517991065979,3,3,3,2,-9.08,-1.5,0.54,2.51,0.96,5.03
9.985180139541626,3,3,3,2,-8.94,-0.7,0.6899999999999999,2.4,0.74,5.57
9.995180130004883,3,3,3,2,-8.73,0.05,0.82,1.7,0.59,6.39
10.00518012046814,3,3,3,2,-8.550000000000001,1.1,0.83,2.01,0.36,7.37
10.0151801109314,3,3,3,2,-8.619999999999999,1.95,0.96,2.28,0.22,8.35
10.02518010139465,3,3,3,2,-9.08,2.62,1.06,1.86,-0.14,9.210000000000001
10.03518009185791,3,3,3,3,-9.26,2.44,1.01,0.74,-0.57,9.880000000000001
10.04518008232117,3,3,3,3,-9.380000000000001,1.44,0.88,-0.98,-0.74,10.53
10.05518007278442,3,3,3,3,-9.23,0.43,0.37,-2.09,-0.92,10.86
10.06518006324768,3,3,3,3,-8.43,-1.72,-0.17,-2.31,-0.78,10.79
10.07518005371094,3,3,3,3,-8.039999999999999,-2,-0.37,-1.57,-0.06,10.2
10.08518004417419,3,3,3,3,-8.01,-2.01,-0.25,-0.39,0.85,9.58
10.09518003463745,3,3,3,3,-8.289999999999999,-1.37,0.02,1.72,1.22,9.32
10.10518002510071,3,3,3,3,-8.77,0.82,0.67,4.5,0.82,9.880000000000001
10.11518001556396,3,3,3,3,-8.56,0.9399999999999999,1.36,6.01,0.38,11.23
10.12518000602722,3,3,3,3,-8.09,1.16,1.01,5.97,-0.1,12.24
10.13517999649048,3,3,3,3,-7.87,0.97,0.82,4.81,0.44,12.39
10.14517998695374,3,3,3,3,-8.970000000000001,-1.21,0.07000000000000001,2.53,1.21,12.02
10.15517997741699,3,3,3,3,-9.27,-1.78,-1.03,0.85,0.62,11.59
10.16517996788025,3,3,3,3,-9.48,-1.1,-0.66,3.1,0.57,11.09
10.17517995834351,3,3,3,3,-9.609999999999999,-0.35,-0.08,6.36,1.43,10.72
10.18517994880676,3,3,3,3,-9.380000000000001,-0.34,0.05,6.95,2.07,11.19
10.19517993927002,3,3,3,3,-9.289999999999999,-0.12,-0.9399999999999999,5.06,2.36,11.82
10.20517992973328,3,3,3,3,-9.33,0.28,-1.46,3.86,2.25,11.98
10.21517992019653,3,3,3,3,-9.35,-0.68,-1.27,3.26,2.18,11.64
10.22517991065979,3,3,3,3,-9.369999999999999,-0.46,-1.21,3.14,2.21,11.04
10.23518013954163,3,3,3,3,-9.33,-0.4,-0.99,3.15,2.54,10.83
10.24518013000488,3,3,3,3,-9.390000000000001,-0.31,-0.4,2.77,3.37,10.75
10.25518012046814,3,3,3,3,-10.09,-0.38,0.04,2.83,4.37,10.52
10.2651801109314,3,3,3,3,-10.28,0.18,-0.46,2.38,4.29,10.33
10.27518010139465,3,3,3,3,-10.94,1.33,0.02,3.79,4.01,10.03
10.28518009185791,3,3,3,3,-10.71,0.6,0.38,4.03,3.63,9.74
10.29518008232117,3,3,3,3,-9.890000000000001,0.71,-0.59,3.56,3.52,9.6
10.30518007278442,3,3,3,3,-9.58,0.72,-1.04,2.99,3.68,10.03
10.31518006324768,3,3,3,3,-9.76,0.65,-1.77,1.8,3.65,10.15
10.32518005371094,3,3,3,3,-10.1,0.86,-1.73,0.83,3.34,9.56
10.33518004417419,3,3,3,3,-11.31,1.46,-1.83,0.63,3.08,8.460000000000001
10.34518003463745,3,3,3,3,-12.2,1.26,-1.81,0.04,3.08,7.3
10.35518002510071,3,3,3,3,-12.79,0.17,-1.81,-2.03,2.58,6.24
10.36518001556396,3,3,3,3,-12.9,-0.91,-1.9,-4.49,2.35,5.02
10.37518000602722,3,3,3,3,-13.27,-1.25,-1.23,-4.86,2.8,3.59
10.38517999649048,3,3,3,3,-13.88,-1.33,-0.5600000000000001,-3.92,2.8,2.38
10.39517998695374,3,3,3,3,-14.22,-1.54,0.41,-2.74,2.39,1.58
10.40517997741699,3,3,3,3,-14.32,-1.38,1.02,-1.62,1.91,0.8
10.41517996788025,3,3,3,3,-14.5,-1.69,1.96,-0.9399999999999999,1.24,0.12
10.42517995834351,3,3,3,3,-14.97,-1.87,2.23,-0.27,0.32,-0.73
10.43517994880676,3,3,3,3,-15.5,-1.7,2.23,0.24,-0.92,-1.81
10.44517993927002,3,3,3,3,-16.07,-1.62,2.31,0.31,-2.26,-2.97
10.45517992973328,3,3,3,3,-16.97,-2.62,2.45,-0.32,-3.66,-4.23
10.46517992019653,3,3,3,3,-17.22,-3.2,2.16,-1.08,-5.02,-5.63
10.47517991065979,3,3,3,3,-17.41,-3.39,2,-1.31,-6.56,-7.05
10.48518013954163,3,3,3,3,-17.76,-3.76,2.09,-1.62,-8.220000000000001,-8.449999999999999
10.49518013000488,3,3,3,3,-18.64,-4.59,2.46,-1.54,-9.050000000000001,-9.98
10.50518012046814,3,3,3,3,-19.26,-5.27,3.04,-1.07,-9.49,-11.64
10.5151801109314,3,3,3,3,-20.02,-6.3,3.29,-0.22,-9.91,-13.54
10.52518010139465,3,3,3,3,-20.68,-7.72,2.95,1.04,-10.37,-15.59
10.53518009185791,3,3,3,2,-22.48,-10.7,0.62,3.1,-10.66,-17.97
10.54518008232117,3,3,3,2,-23.57,-12.36,-1.44,5.17,-11.32,-20.56
10.55518007278442,3,3,3,2,-25,-13.87,-4.01,6.53,-11.84,-23.01
10.56518006324768,3,3,3,2,-26.78,-15.03,-6.7,7.4,-11.61,-25.16
10.57518005371094,3,3,3,2,-29.54,-13.42,-10.33,8.42,-10.75,-26.5
10.58518004417419,3,3,3,2,-29.73,-10.16,-11.38,7.81,-8.99,-27.68
10.59518003463745,3,3,3,2,-28.03,-4.8,-10.65,7.01,-6.22,-29.02
10.60518002510071,3,3,3,2,-25.59,0.57,-7.83,6.41,-3.38,-30.3
10.61518001556396,3,3,3,2,-16.23,1.65,-5,8.75,-0.92,-32
10.62518000602722,3,3,3,2,-10.92,1.19,-6.03,11.09,-0.68,-32.82
10.63517999649048,3,3,3,2,-6.29,8.869999999999999,-3.55,20.24,-0.5,-31.55
10.64517998695374,3,3,3,2,-6.29,39.14,19.27,34.5,-2.01,-25.45
10.65517997741699,3,3,3,2,-5.65,39.02,23.49,14.68,-5.35,-7.97
10.66517996788025,3,3,3,2,4.7,36.49,5.71,-19.29,1.01,1.12
10.67517995834351,3,3,3,2,2.93,14.44,-1.51,-26.41,9.94,5.51
10.68517994880676,3,3,3,2,-7.86,-6.83,0.66,-20.26,6.01,8.93
10.69517993927002,3,3,3,2,-9.390000000000001,-3.21,6.19,-4.62,5.14,6.73
10.70517992973328,3,3,3,2,-3.73,-0.49,3.55,3.37,-0.93,6.65
10.71517992019653,3,3,3,2,-1.08,-1.06,-0.44,-0.91,-1.96,8.07
10.72517991065979,3,3,3,2,1.26,-10.78,-4.24,-9.18,-2.62,10.29
10.73518013954163,3,3,3,2,2.39,-12.24,-5.64,-11.56,-4.11,10.33
10.74518013000488,3,3,3,2,1.86,-13.33,-5.38,-9.359999999999999,-1.9,7.12
10.75518012046814,3,3,3,2,1.05,-12.5,-4.41,-3.26,1.1,3.86
10.7651801109314,3,3,3,2,0.04,-6.34,-3.56,3.74,0.78,2.32
10.77518010139465,3,3,3,2,0.59,-1.94,-2.3,10.34,-1.89,1.81
10.78518009185791,3,3,3,2,0.75,0,-1.19,12.06,-4.01,1.8
10.79518008232117,3,3,3,2,0.5600000000000001,0.24,-0.3,9.52,-4.88,1.88
10.80518007278442,3,3,3,2,0.78,0.46,0.6,7.27,-4.83,2.33
10.81518006324768,3,3,3,2,1.24,0.86,0.82,6.43,-3.82,3.34
10.82518005371094,3,3,3,2,1.52,1.38,0.75,6.21,-1.83,4.3
10.83518004417419,3,3,3,2,1.69,2.19,0.24,5.7,0.55,4.98
10.84518003463745,3,3,3,2,-0.05,3.92,1.37,4.05,2.39,5.89
10.85518002510071,3,3,3,2,-0.76,4.25,1.7,0.33,2.43,7.07
10.86518001556396,3,3,3,2,-1.23,4.02,1.95,-11.09,1.61,7.08
10.87518000602722,3,3,3,2,-1.41,3.1,2.24,-11.09,1.61,7.08
10.88517999649048,3,3,3,2,-1.2,0.53,0.1,-16.04,1.63,6.39
10.89617991447449,3,3,3,2,-1.02,0.31,-2.27,-17.31,3.69,5.21
10.90618014335632,3,3,3,2,-1.28,-0.19,-3.02,-17.31,3.69,5.21
10.91618013381958,3,3,3,2,-1.29,-1.07,-2.64,-13.86,3.15,5.03
10.92618012428284,3,3,3,2,-0.08,-2.09,-2.19,-11.34,1.82,4.85
10.93618011474609,3,3,3,2,-0.12,-1.98,-2.43,-9.43,1.68,4.77
10.94618010520935,3,3,3,2,-0.12,-1.4,-2.58,-6.73,1.96,4.39
10.95618009567261,3,3,3,2,0.17,-1.65,-2.51,-2.22,0.89,4.01
10.96618008613586,3,3,3,2,0.72,-2.22,-1.14,-2.22,0.89,4.01
10.97618007659912,3,3,3,2,0.68,-1.93,-0.15,0.39,0.45,3.53
10.98618006706238,3,3,3,2,0.57,-1.33,0.64,2.27,0.16,2.6
10.99618005752563,3,3,3,2,0.47,-0.12,1.12,3.68,0.05,1.68
11.00618004798889,3,3,3,2,0.1,3.17,1.85,4.37,0.16,1.1
11.01618003845215,3,3,3,2,-0.62,5.21,1.22,2.49,-0.88,0.29
11.02618002891541,3,3,3,2,-2.98,14.48,1.41,2.49,-0.88,0.29
11.03618001937866,3,3,3,2,-6.33,11.95,13.79,2.81,-3.47,1.01
11.04618000984192,3,3,3,2,-5.78,-12.06,-1.45,-32.39,4.31,-8.859999999999999
11.05618000030518,3,3,3,2,-15.16,-27.06,-10.78,-32.39,4.31,-8.859999999999999
11.06617999076843,3,3,3,2,-29.55,-3.07,-8.619999999999999,-0.93,-0.16,-11.75
11.07617998123169,3,3,3,2,-37.28,9.390000000000001,-1.69,28.36,-1.6,-1.11
11.08617997169495,3,3,3,2,-22.16,7.61,-11.55,7.48,7.78,11.14
11.0961799621582,3,3,3,2,-28.82,33.44,-19.74,17.77,8.06,15.56
11.10617995262146,3,3,3,2,-39.33,39.14,33.35,42.18,3.09,18.34
11.11617994308472,3,3,3,2,-19.04,-8.94,7.03,-48.06,4.77,28.27
11.12617993354797,3,3,3,2,-5.64,-39.3,0.8100000000000001,-78.67,10.78,23.07
11.13617992401123,3,3,3,2,-9.85,-39.3,-11.88,-81.73,10.08,14.57
11.14617991447449,3,3,3,2,-13.2,-39.21,-12.31,78.31999999999999,9,7.94
11.15618014335632,3,3,3,2,-4.52,-19.95,-8.630000000000001,99.52,7.86,-1.17
11.16618013381958,3,3,3,2,-13.64,-7.39,-5.04,82.31,-1.39,-9.43
11.17618012428284,3,3,3,2,-20.68,1.08,-1.11,82.31,-1.39,-9.43
11.18618011474609,3,3,3,2,-23.08,13.22,2.13,52.9,-8.23,-14.16
11.19618010520935,3,3,3,2,-26.04,13.31,-0.31,-18.62,-5.08,-1.31
11.20618009567261,3,3,3,2,-29.21,3.93,-2.8,-37.46,-2.9,4.39
11.21618008613586,3,3,3,2,-22.7,-4.17,-3.03,-38.69,-1.76,3.25
11.22618007659912,3,3,3,2,-11.46,-7.03,-2.32,-38.69,-1.76,3.25
11.23618006706238,3,3,3,2,-7.15,-7.76,-1.27,-32.67,-1.67,-0.26
11.24618005752563,3,3,3,2,-9.720000000000001,-7.15,-0.88,-21.95,-1.14,-4.82
11.25618004798889,3,3,3,2,-11.15,-5.81,-0.6899999999999999,-16.48,0.06,-7.8
11.26618003845215,3,3,3,2,-11.76,-4.62,-0.25,-12.84,0.87,-10.5
11.27618002891541,3,3,3,2,-10.59,-3.54,-0.64,-12.84,0.87,-10.5
11.28618001937866,3,3,3,2,-9.48,-4.43,-1.01,-10.13,1.17,-11.81
11.29618000984192,3,3,3,2,-8.49,-4.83,-1.17,-0.4,0.97,-10.93
11.30618000030518,3,3,3,2,-7.66,-4.2,-1.52,3.84,0.43,-10.21
11.31617999076843,3,3,3,2,-6.2,-2.06,-1.56,6.3,0.17,-9.84
11.32617998123169,3,3,3,2,-6.16,-0.28,-1.5,6.3,0.17,-9.84
11.33617997169495,3,3,3,2,-6.68,1.61,-1.34,6.31,0.25,-9.710000000000001
11.3461799621582,3,3,3,2,-6.96,2.93,-0.71,-0.37,-0.38,-9.23
11.35617995262146,3,3,3,2,-7.36,5.16,0.82,-5.17,-0.5,-8.52
11.36617994308472,3,3,3,2,-7.31,5.38,1.59,-9.720000000000001,-0.5,-7.97
11.37617993354797,3,3,3,2,-7.29,4.88,2.22,-9.720000000000001,-0.5,-7.97
11.38617992401123,3,3,3,2,-7.99,2.99,3.49,-12.97,-0.05,-7.48
11.39617991447449,3,3,3,2,-8.289999999999999,1.76,3.7,-13.87,0.53,-6.42
11.40618014335632,3,3,3,2,-8.52,0.59,3.54,-10.9,0.82,-6.04
11.41618013381958,3,3,3,2,-8.789999999999999,-0.05,3.47,-6.53,0.87,-5.4
11.42618012428284,3,3,3,2,-8.99,-0.16,2.51,-6.53,0.87,-5.4
11.43618011474609,3,3,3,2,-8.75,0.11,1.77,-1.73,0.25,-4.53
11.44618010520935,3,3,3,2,-8.539999999999999,0.93,1.05,6.41,-0.72,-2.98
11.45618009567261,3,3,3,2,-8.67,2.34,0.19,7.21,-0.89,-2.22
11.46618008613586,3,3,3,2,-9.539999999999999,3.22,-0.6,5.67,-0.7,-1.72
11.47618007659912,3,3,3,2,-9.99,2.98,-0.6899999999999999,5.67,-0.7,-1.72
11.48618006706238,3,3,3,2,-10.54,2.06,-0.95,3.01,-0.01,-1.41
11.49618005752563,3,3,3,2,-10.81,0.9399999999999999,-0.88,-1.26,0.84,-1.66
11.50618004798889,3,3,3,2,-10.24,-1.66,-0.65,-1.7,0.87,-2.39
11.51618003845215,3,3,3,2,-9.99,-2.46,-0.38,-1.28,0.74,-3.25
11.52618002891541,3,3,3,2,-9.970000000000001,-3.12,0.1,-1.28,0.74,-3.25
11.53618001937866,3,3,3,2,-9.91,-3.58,0.43,-0.59,0.49,-3.93
11.54618000984192,3,3,3,2,-9.550000000000001,-3.77,0.93,0.88,-0.19,-4.27
11.55618000030518,3,3,3,2,-9.26,-3.44,1.1,1.25,-0.13,-4.14
11.56617999076843,3,3,3,2,-9.210000000000001,-3.04,1.45,1.32,-0.21,-3.97
11.57617998123169,3,3,3,2,-9.220000000000001,-2.79,1.41,1.32,-0.21,-3.97
11.58617997169495,3,3,3,3,-9.359999999999999,-1.8,1.01,1.31,-0.23,-3.99
11.5961799621582,3,3,3,3,-9.48,-1.28,0.6,0.15,-0.21,-3.8
11.60617995262146,3,3,3,3,-9.32,-0.72,0.07000000000000001,-0.65,-0.23,-3.78
11.61617994308472,3,3,3,3,-9.24,-0.53,-0.27,-1.15,-0.48,-3.7
11.62617993354797,3,3,3,3,-9.65,0.59,-0.24,-1.15,-0.48,-3.7
11.63617992401123,3,3,3,3,-9.65,0.79,-0.11,-1.79,-0.8100000000000001,-3.61
11.64617991447449,3,3,3,3,-9.57,0.49,-0.15,-3.69,-0.77,-3.32
11.65618014335632,3,3,3,3,-9.529999999999999,0.13,-0.29,-3.56,-0.68,-3.24
11.66618013381958,3,3,3,3,-9.74,0.39,0.15,-3.8,-0.67,-3.01
11.67618012428284,3,3,3,3,-9.76,0.35,0.47,-3.8,-0.67,-3.01
11.68618011474609,3,3,3,3,-9.869999999999999,0.25,0.64,-3.97,-0.48,-2.71
11.69618010520935,3,3,3,3,-9.91,0.31,0.79,-3.28,-0.1,-1.87
11.70618009567261,3,3,3,3,-9.83,0,0.83,-2.89,0.25,-1.34
11.71618008613586,3,3,3,3,-9.869999999999999,-1.06,0.8,-2.24,0.43,-0.96
11.72618007659912,3,3,3,3,-9.91,-1.84,0.71,-2.24,0.43,-0.96
11.73618006706238,3,3,3,3,-9.83,-2.18,0.5,-1.25,0.43,-0.68
11.74618005752563,3,3,3,3,-9.460000000000001,-3.04,0.04,-0.03,0.4,-0.45
11.75618004798889,3,3,3,3,-9.32,-3.33,-0.24,0.71,0.16,-0.64
11.76618003845215,3,3,3,3,-9.31,-3.39,-0.23,1.24,-0.02,-0.91
11.77618002891541,3,3,3,3,-9.32,-3.48,-0.38,1.24,-0.02,-0.91
11.78618001937866,3,3,3,3,-9.35,-3.29,-0.31,1.6,-0.1,-1.16
11.79618000984192,3,3,3,3,-9.380000000000001,-2.9,-0.19,2.14,-0.15,-1.33
11.80618000030518,3,3,3,3,-9.43,-2.36,-0.16,1.96,-0.23,-1.24
11.81617999076843,3,3,3,3,-9.460000000000001,-1.58,0.05,1.34,-0.24,-1.21
11.8461799621582,3,3,3,3,-9.59,-1.64,0.38,-1.01,-0.04,-1
11.85718011856079,3,3,3,3,-9.58,-2.32,0.26,-1.52,0.09,-0.93
11.86617994308472,3,3,3,3,-9.6,-2.6,0.27,-1.58,0.09,-0.91
11.87617993354797,3,3,3,3,-9.56,-2.96,0.29,-1.58,0.09,-0.91
11.88617992401123,3,3,3,3,-9.58,-3.05,0.18,-1.23,-0.06,-0.97
11.89617991447449,3,3,3,3,-9.49,-2.94,0.06,-0.08,-0.06,-0.97
11.90618014335632,3,3,3,3,-9.4,-2.91,-0.08,0.66,-0.02,-1.02
11.91618013381958,3,3,3,3,-9.4,-2.68,-0.07000000000000001,1.33,0.02,-1.05
11.92718005180359,3,3,3,3,-9.390000000000001,-2.55,-0.03,1.33,0.02,-1.05
11.93718004226685,3,3,3,3,-9.5,-2.46,0.1,1.78,0.08,-1.02
11.9471800327301,3,3,3,3,-9.51,-2.32,0.2,2.53,0.06,-0.98
11.95718002319336,3,3,3,3,-9.470000000000001,-2.22,0.19,2.62,0.03,-0.9399999999999999
11.96718001365662,3,3,3,3,-9.470000000000001,-2.06,0.28,2.32,-0.01,-0.8100000000000001
11.97718000411987,3,3,3,3,-9.470000000000001,-2.05,0.44,2.32,-0.01,-0.8100000000000001
11.98717999458313,3,3,3,3,-9.49,-2.14,0.51,1.74,0,-0.6899999999999999
11.99717998504639,3,3,3,3,-9.5,-2.19,0.54,0.51,0.01,-0.51
12.00717997550964,3,3,3,3,-9.5,-2.28,0.39,-0.17,0.17,-0.4
12.0171799659729,3,3,3,3,-9.369999999999999,-3.06,0.32,-0.32,0.2,-0.41
12.02717995643616,3,3,3,3,-9.34,-3.22,0.37,-0.32,0.2,-0.41
12.03717994689941,3,3,3,3,-9.32,-3.42,0.36,-0.2,0.12,-0.49
12.04717993736267,3,3,3,3,-9.35,-3.35,0.26,0.09,-0.16,-0.67
12.05717992782593,3,3,3,3,-9.33,-3.15,0.08,0.14,-0.15,-0.71
12.06717991828918,3,3,3,3,-9.31,-2.98,0.17,0.21,-0.13,-0.71
12.07717990875244,3,3,3,3,-9.300000000000001,-2.84,0.23,0.21,-0.13,-0.71
12.08718013763428,3,3,3,3,-9.33,-2.74,0.23,0.19,-0.18,-0.7
12.09718012809753,3,3,3,3,-9.460000000000001,-2.68,0.31,0.29,-0.18,-0.61
12.10718011856079,3,3,3,3,-9.5,-2.55,0.26,0.37,-0.1,-0.55
12.11718010902405,3,3,3,3,-9.5,-2.42,0.28,0.36,0.02,-0.46
12.1271800994873,3,3,3,3,-9.5,-2.45,0.36,0.36,0.02,-0.46
12.13718008995056,3,3,3,3,-9.52,-2.36,0.37,0.44,0.07000000000000001,-0.39
12.14718008041382,3,3,3,3,-9.48,-2.35,0.32,0.33,0.05,-0.19
12.15718007087708,3,3,3,3,-9.390000000000001,-2.53,0.28,0.31,0.08,-0.21
12.16718006134033,3,3,3,3,-9.42,-2.66,0.28,0.28,0.09,-0.24
12.17718005180359,3,3,3,3,-9.359999999999999,-2.75,0.28,0.28,0.09,-0.24
12.18718004226685,3,3,3,3,-9.41,-2.87,0.25,0.19,0.1,-0.24
12.1971800327301,3,3,3,3,-9.42,-2.79,0.22,0.21,0.07000000000000001,-0.31
12.20718002319336,3,3,3,3,-9.41,-2.62,0.09,0.08,0.03,-0.31
12.21718001365662,3,3,3,3,-9.43,-2.54,0.2,-0.08,-0.03,-0.32
12.22718000411987,3,3,3,3,-9.4,-2.47,0.28,-0.08,-0.03,-0.32
12.23717999458313,3,3,3,3,-9.42,-2.41,0.25,-0.34,-0.06,-0.28
12.24717998504639,3,3,3,3,-9.470000000000001,-2.43,0.23,-0.95,-0.05,-0.23
12.25717997550964,3,3,3,3,-9.51,-2.67,0.17,-1.12,0,-0.21
12.2671799659729,3,3,3,3,-9.52,-2.78,0.18,-0.98,-0.01,-0.23
12.27717995643616,3,3,3,3,-9.51,-2.78,0.15,-0.98,-0.01,-0.23
12.28717994689941,3,3,3,3,-9.42,-2.98,0.18,-0.99,-0.06,-0.21
12.29717993736267,3,3,3,3,-9.390000000000001,-2.92,0.14,-0.55,-0.09,-0.3
12.30717992782593,3,3,3,3,-9.33,-2.75,0.05,-0.45,-0.15,-0.29
12.31717991828918,3,3,3,3,-9.359999999999999,-2.65,0.11,-0.45,-0.13,-0.28
12.32717990875244,3,3,3,3,-9.44,-2.6,0.21,-0.45,-0.13,-0.28
12.33718013763428,3,3,3,3,-9.449999999999999,-2.54,0.19,-0.38,-0.13,-0.26
12.34718012809753,3,3,3,3,-9.49,-2.47,0.14,-0.51,-0.15,-0.14
12.35718011856079,3,3,3,3,-9.51,-2.53,0.03,-0.5,-0.05,-0.11
12.36718010902405,3,3,3,3,-9.4,-2.6,0.04,-0.39,-0.05,-0.08
12.3771800994873,3,3,3,3,-9.43,-2.58,0.12,-0.39,-0.05,-0.08
12.38718008995056,3,3,3,3,-9.4,-2.58,0.16,-0.36,-0.08,-0.07000000000000001
12.39718008041382,3,3,3,3,-9.44,-2.72,0.19,-0.44,-0.12,-0.07000000000000001
12.40718007087708,3,3,3,3,-9.42,-2.69,0.17,-0.47,-0.13,-0.09
12.41718006134033,3,3,3,3,-9.42,-2.73,0.16,-0.5600000000000001,-0.17,-0.08
12.42718005180359,3,3,3,3,-9.4,-2.79,0.15,-0.5600000000000001,-0.17,-0.08
12.43718004226685,3,3,3,3,-9.4,-2.8,0.12,-0.55,-0.18,-0.1
12.4471800327301,3,3,3,3,-9.41,-2.7,0.07000000000000001,-0.44,-0.17,-0.15
12.45718002319336,3,3,3,3,-9.44,-2.69,-0.02,-0.36,-0.2,-0.14
12.46718001365662,3,3,3,3,-9.44,-2.68,0.01,-0.22,-0.18,-0.17
12.47718000411987,3,3,3,3,-9.42,-2.63,0.12,-0.22,-0.18,-0.17
12.48717999458313,3,3,3,3,-9.449999999999999,-2.57,0.27,-0.08,-0.13,-0.14
12.49717998504639,3,3,3,3,-9.449999999999999,-2.56,0.27,-0.1,-0.14,-0.08
12.50717997550964,3,3,3,3,-9.48,-2.57,0.2,-0.13,-0.13,-0.08
12.5171799659729,3,3,3,3,-9.449999999999999,-2.59,0.24,-0.21,-0.14,-0.03
12.52717995643616,3,3,3,3,-9.460000000000001,-2.71,0.24,-0.21,-0.14,-0.03
12.53717994689941,3,3,3,3,-9.449999999999999,-2.76,0.23,-0.24,-0.12,-0.04
12.54717993736267,3,3,3,3,-9.449999999999999,-2.8,0.21,-0.11,-0.2,-0.05
12.55717992782593,3,3,3,3,-9.4,-2.79,0.13,-0.02,-0.18,-0.05
12.56717991828918,3,3,3,3,-9.35,-2.79,0.17,0.04,-0.16,-0.11
12.57717990875244,3,3,3,3,-9.390000000000001,-2.69,0.18,0.04,-0.16,-0.11
12.58718013763428,3,3,3,3,-9.380000000000001,-2.67,0.22,-0.01,-0.14,-0.08
12.59718012809753,3,3,3,3,-9.43,-2.62,0.21,0,-0.14,-0.09
12.60718011856079,3,3,3,3,-9.460000000000001,-2.56,0.16,0,-0.17,-0.07000000000000001
12.61718010902405,3,3,3,3,-9.49,-2.56,0.28,-0.03,-0.25,-0.08
12.6271800994873,3,3,3,3,-9.460000000000001,-2.55,0.24,-0.03,-0.25,-0.08
12.63718008995056,3,3,3,3,-9.49,-2.57,0.24,-0.07000000000000001,-0.23,-0.1
12.64718008041382,3,3,3,3,-9.49,-2.63,0.24,-0.04,-0.12,0.01
12.65718007087708,3,3,3,3,-9.42,-2.66,0.16,0.02,-0.07000000000000001,0.03
12.66718006134033,3,3,3,3,-9.41,-2.7,0.18,0.08,-0.08,0.02
12.67718005180359,3,3,3,3,-9.369999999999999,-2.74,0.26,0.08,-0.08,0.02
12.68718004226685,3,3,3,3,-9.359999999999999,-2.68,0.27,0.21,-0.11,0.01
12.6971800327301,3,3,3,3,-9.41,-2.66,0.29,0.16,-0.13,0.01
12.70718002319336,3,3,3,3,-9.44,-2.72,0.2,0.18,-0.1,0.01
12.71718001365662,3,3,3,3,-9.449999999999999,-2.67,0.26,0.27,-0.11,0.01
12.72718000411987,3,3,3,3,-9.49,-2.65,0.26,0.27,-0.11,0.01
12.73717999458313,3,3,3,3,-9.449999999999999,-2.63,0.26,0.33,-0.14,0
12.74717998504639,3,3,3,3,-9.43,-2.64,0.24,0.31,-0.09,0.05
12.75717997550964,3,3,3,3,-9.44,-2.64,0.19,0.35,-0.07000000000000001,0.06
12.7671799659729,3,3,3,3,-9.43,-2.62,0.25,0.39,-0.03,0.05
12.77717995643616,3,3,3,3,-9.43,-2.62,0.25,0.39,-0.03,0.05
12.78717994689941,3,3,3,3,-9.44,-2.66,0.22,0.38,-0.04,0.04
12.79717993736267,3,3,3,3,-9.460000000000001,-2.62,0.18,0.47,-0.09,0.03
12.80717992782593,3,3,3,3,-9.460000000000001,-2.59,0.19,0.43,-0.07000000000000001,-0.01
12.81717991828918,3,3,3,3,-9.42,-2.6,0.25,0.49,-0.04,0.01
12.82717990875244,3,3,3,3,-9.42,-2.6,0.25,0.49,-0.04,0.01
12.83718013763428,3,3,3,3,-9.41,-2.55,0.32,0.46,-0.01,0.01
12.84718012809753,3,3,3,3,-9.44,-2.65,0.26,0.43,0.02,-0.02
12.85718011856079,3,3,3,3,-9.48,-2.66,0.26,0.48,0,-0.06
12.86718010902405,3,3,3,3,-9.460000000000001,-2.69,0.34,0.49,0,-0.08
12.8771800994873,3,3,3,3,-9.460000000000001,-2.69,0.34,0.49,0,-0.08
12.88718008995056,3,3,3,3,-9.470000000000001,-2.61,0.31,0.51,-0.06,-0.06
12.89718008041382,3,3,3,3,-9.4,-2.47,0.19,0.42,0,-0.11
12.90718007087708,3,3,3,3,-9.44,-2.46,0.29,0.37,0,-0.1
12.91718006134033,3,3,3,3,-9.42,-2.48,0.32,0.37,0.05,-0.08
12.92718005180359,3,3,3,3,-9.42,-2.48,0.32,0.37,0.05,-0.08
12.93718004226685,3,3,3,3,-9.470000000000001,-2.52,0.34,0.33,0.03,-0.05
12.94817996025085,3,3,3,3,-9.49,-2.68,0.2,0.48,0.05,-0.03
12.95817995071411,3,3,3,3,-9.460000000000001,-2.68,0.26,0.58,0.04,-0.01
12.96817994117737,3,3,3,3,-9.44,-2.63,0.27,0.65,0.04,-0.02
12.97817993164062,3,3,3,3,-9.44,-2.63,0.27,0.63,-0.01,-0.02
12.98817992210388,3,3,3,3,-9.41,-2.69,0.29,0.65,0.07000000000000001,-0.03
12.99817991256714,3,3,3,3,-9.43,-2.64,0.17,0.57,0.06,0.01
13.00818014144897,3,3,3,3,-9.390000000000001,-2.71,0.22,0.5600000000000001,0.05,-0.01
13.01818013191223,3,3,3,3,-9.42,-2.74,0.24,0.54,0.09,-0.03
13.02818012237549,3,3,3,3,-9.42,-2.74,0.24,0.54,0.09,-0.03
13.03818011283875,3,3,3,3,-9.42,-2.89,0.31,0.47,0.06,-0.01
13.048180103302,3,3,3,3,-9.41,-2.7,0.18,0.43,-0.01,-0.01
13.05818009376526,3,3,3,3,-9.359999999999999,-2.76,0.27,0.31,-0.05,-0.01
13.06818008422852,3,3,3,3,-9.31,-2.69,0.27,0.29,-0.09,-0.01
13.07818007469177,3,3,3,3,-9.31,-2.69,0.27,0.13,-0.05,0.02
13.08818006515503,3,3,3,3,-9.390000000000001,-2.72,0.33,0.09,-0.08,0.03
13.09818005561829,3,3,3,3,-9.460000000000001,-2.58,0.17,0.07000000000000001,-0.08,0
13.10818004608154,3,3,3,3,-9.460000000000001,-2.57,0.27,-0.01,-0.11,0
13.1181800365448,3,3,3,3,-9.449999999999999,-2.57,0.31,-0.08,-0.08,0
13.12818002700806,3,3,3,3,-9.449999999999999,-2.57,0.31,-0.21,-0.08,0.01
13.13818001747131,3,3,3,3,-9.52,-2.61,0.3,-0.23,-0.09,0.03
13.14818000793457,3,3,3,3,-9.4,-2.7,0.17,-0.18,-0.11,0.04
13.15817999839783,3,3,3,3,-9.369999999999999,-2.69,0.2,-0.18,-0.1,0.04
13.16817998886108,3,3,3,3,-9.359999999999999,-2.71,0.24,-0.16,-0.05,0.02
13.17817997932434,3,3,3,3,-9.359999999999999,-2.71,0.24,-0.11,-0.05,0
13.1881799697876,3,3,3,3,-9.449999999999999,-2.65,0.31,-0.08,-0.07000000000000001,-0.03
13.19817996025085,3,3,3,3,-9.449999999999999,-2.61,0.22,-0.01,-0.02,-0.06
13.20817995071411,3,3,3,3,-9.470000000000001,-2.57,0.22,0.04,-0.08,-0.02
13.21817994117737,3,3,3,3,-9.42,-2.43,0.35,0.07000000000000001,-0.13,-0.01
13.22817993164062,3,3,3,3,-9.460000000000001,-2.4,0.32,-0.02,-0.12,0.03
13.23817992210388,3,3,3,3,-9.449999999999999,-2.47,0.34,-0.22,-0.1,0.02
13.24817991256714,3,3,3,3,-9.48,-2.46,0.22,-0.36,-0.07000000000000001,0.06
13.25818014144897,3,3,3,3,-9.44,-2.6,0.26,-0.45,-0.01,0.06
13.26818013191223,3,3,3,3,-9.449999999999999,-2.69,0.3,-0.44,0.02,0.02
13.27818012237549,3,3,3,3,-9.449999999999999,-2.69,0.3,-0.35,0.01,0.01
13.28818011283875,3,3,3,3,-9.42,-2.72,0.26,-0.21,-0.07000000000000001,-0.04
13.298180103302,3,3,3,3,-9.42,-2.69,0.16,-0.23,-0.1,-0.02
13.30818009376526,3,3,3,3,-9.44,-2.59,0.23,-0.23,-0.06,-0.04
13.31818008422852,3,3,3,3,-9.470000000000001,-2.58,0.26,-0.26,-0.06,-0.02
13.32818007469177,3,3,3,3,-9.470000000000001,-2.58,0.26,-0.31,-0.03,-0.07000000000000001
13.33818006515503,3,3,3,3,-9.460000000000001,-2.62,0.3,-0.34,0,-0.03
13.34818005561829,3,3,3,3,-9.44,-2.69,0.24,-0.3,0.01,-0.02
13.35818004608154,3,3,3,3,-9.42,-2.63,0.25,-0.25,0.01,0
13.3681800365448,3,3,3,3,-9.43,-2.59,0.34,-0.15,-0.01,0.04
13.37818002700806,3,3,3,3,-9.43,-2.59,0.34,-0.1,0.02,0.05
13.38818001747131,3,3,3,3,-9.48,-2.53,0.35,-0.19,-0.01,0.06
13.39818000793457,3,3,3,3,-9.470000000000001,-2.61,0.24,-0.23,0,0.09
13.40817999839783,3,3,3,3,-9.44,-2.54,0.28,-0.25,-0.04,0.02
13.41817998886108,3,3,3,3,-9.42,-2.59,0.29,-0.36,-0.01,0.09
13.42817997932434,3,3,3,3,-9.42,-2.59,0.29,-0.44,-0.06,0.05
13.4381799697876,3,3,3,3,-9.42,-2.63,0.31,-0.44,-0.01,0.05
13.44817996025085,3,3,3,3,-9.449999999999999,-2.77,0.19,-0.4,0.03,0.06
13.45817995071411,3,3,3,3,-9.460000000000001,-2.66,0.24,-0.26,-0.01,0.04
13.46817994117737,3,3,3,3,-9.44,-2.64,0.27,-0.18,-0.06,0.07000000000000001
13.47817993164062,3,3,3,3,-9.43,-2.6,0.28,-0.08,-0.08,0.06
13.48817992210388,3,3,3,3,-9.460000000000001,-2.52,0.27,-0.1,-0.09,0.1
13.49817991256714,3,3,3,3,-9.449999999999999,-2.56,0.19,-0.16,-0.04,0.14
13.50818014144897,3,3,3,3,-9.449999999999999,-2.52,0.3,-0.16,0.01,0.14
13.51818013191223,3,3,3,3,-9.449999999999999,-2.54,0.33,-0.16,0.04,0.13
13.52818012237549,3,3,3,3,-9.470000000000001,-2.55,0.33,-0.07000000000000001,0.01,0.16
13.53818011283875,3,3,3,3,-9.470000000000001,-2.57,0.29,-0.15,-0.01,0.17
13.548180103302,3,3,3,3,-9.48,-2.63,0.19,-0.14,0.01,0.2
13.55818009376526,3,3,3,3,-9.449999999999999,-2.56,0.21,-0.12,0.03,0.18
13.56818008422852,3,3,3,3,-9.42,-2.67,0.22,-0.11,0.02,0.18
13.57818007469177,3,3,3,3,-9.449999999999999,-2.69,0.24,-0.08,0.01,0.18
13.58818006515503,3,3,3,3,-9.41,-2.62,0.26,-0.01,-0.03,0.16
13.59818005561829,3,3,3,3,-9.42,-2.64,0.18,-0.02,-0.05,0.16
13.60818004608154,3,3,3,3,-9.44,-2.58,0.24,0,-0.04,0.15
13.6181800365448,3,3,3,3,-9.470000000000001,-2.54,0.24,-0.08,-0.06,0.12
13.62818002700806,3,3,3,3,-9.5,-2.5,0.26,-0.1,-0.08,0.11
13.63818001747131,3,3,3,3,-9.49,-2.5,0.31,-0.09,-0.05,0.14
13.64818000793457,3,3,3,3,-9.48,-2.57,0.18,-0.04,-0.03,0.17
13.65817999839783,3,3,3,3,-9.449999999999999,-2.54,0.23,0.02,0.01,0.16
13.66817998886108,3,3,3,3,-9.460000000000001,-2.62,0.25,-0.03,-0.01,0.13
13.67817997932434,3,3,3,3,-9.380000000000001,-2.55,0.29,0.08,0,0.12
13.6881799697876,3,3,3,3,-9.449999999999999,-2.66,0.27,-0.02,0,0.18
13.69817996025085,3,3,3,3,-9.43,-2.58,0.19,0,-0.02,0.16
13.70817995071411,3,3,3,3,-9.460000000000001,-2.54,0.23,-0.01,-0.03,0.17
13.71817994117737,3,3,3,3,-9.470000000000001,-2.56,0.27,-0.03,-0.04,0.15
13.72817993164062,3,3,3,3,-9.460000000000001,-2.46,0.28,0.04,-0.06,0.13
13.73817992210388,3,3,3,3,-9.470000000000001,-2.4,0.29,0.01,-0.06,0.09
13.74817991256714,3,3,3,3,-9.460000000000001,-2.48,0.17,-0.01,-0.01,0.12
13.75818014144897,3,3,3,3,-9.470000000000001,-2.46,0.23,-0.02,-0.03,0.14
13.76818013191223,3,3,3,3,-9.470000000000001,-2.48,0.28,0.02,0.04,0.15
13.77818012237549,3,3,3,3,-9.5,-2.48,0.28,0.02,0.03,0.15
13.78818011283875,3,3,3,3,-9.5,-2.49,0.29,0.08,0.01,0.13
13.798180103302,3,3,3,3,-9.460000000000001,-2.43,0.18,0.05,0.02,0.15
13.80818009376526,3,3,3,3,-9.460000000000001,-2.39,0.24,0.04,-0.05,0.16
13.81818008422852,3,3,3,3,-9.470000000000001,-2.43,0.24,-0.01,0.03,0.14
13.82818007469177,3,3,3,3,-9.51,-2.42,0.28,0.02,-0.02,0.12
13.83818006515503,3,3,3,3,-9.48,-2.62,0.21,0.06,0.01,0.12
13.84818005561829,3,3,3,3,-9.51,-2.57,0.19,0.16,0.01,0.06
13.85818004608154,3,3,3,3,-9.48,-2.56,0.19,0.24,-0.02,0.05
13.8681800365448,3,3,3,3,-9.48,-2.55,0.17,0.22,0,0.02
13.87818002700806,3,3,3,3,-9.48,-2.55,0.17,0.25,0,-0.01
13.88818001747131,3,3,3,3,-9.460000000000001,-2.46,0.27,0.25,0,-0.01
13.89818000793457,3,3,3,3,-9.43,-2.53,0.19,0.19,0.01,-0.04
13.90817999839783,3,3,3,3,-9.470000000000001,-2.51,0.22,0.14,-0.02,-0.04
13.91817998886108,3,3,3,3,-9.49,-2.5,0.31,0.15,-0.01,-0.03
13.92817997932434,3,3,3,3,-9.5,-2.43,0.28,0.13,-0.05,-0.05
13.9381799697876,3,3,3,3,-9.470000000000001,-2.44,0.31,0.13,-0.05,-0.05
13.94817996025085,3,3,3,3,-9.44,-2.52,0.21,0.05,-0.02,-0.04
13.95817995071411,3,3,3,3,-9.449999999999999,-2.56,0.3,0.01,0.02,-0.05
13.9691801071167,3,3,3,3,-9.449999999999999,-2.6,0.27,0.02,-0.01,-0.05
13.97918009757996,3,3,3,3,-9.460000000000001,-2.61,0.27,0.11,-0.02,-0.08
13.98918008804321,3,3,3,3,-9.460000000000001,-2.53,0.3,0.11,-0.02,-0.08
13.99918007850647,3,3,3,3,-9.449999999999999,-2.53,0.17,0.09,-0.04,-0.06
14.00918006896973,3,3,3,3,-9.449999999999999,-2.48,0.26,0.03,-0.04,-0.05
14.01918005943298,3,3,3,3,-9.470000000000001,-2.5,0.23,0.03,-0.03,-0.09
14.02918004989624,3,3,3,3,-9.48,-2.57,0.29,-0.04,-0.04,-0.08
14.0391800403595,3,3,3,3,-9.460000000000001,-2.57,0.23,-0.04,-0.04,-0.08
14.04918003082275,3,3,3,3,-9.449999999999999,-2.52,0.17,0.08,-0.06,-0.1
14.05918002128601,3,3,3,3,-9.470000000000001,-2.55,0.23,0.1,-0.12,-0.08
14.06918001174927,3,3,3,3,-9.449999999999999,-2.46,0.27,0.13,-0.07000000000000001,-0.08
14.07918000221252,3,3,3,3,-9.43,-2.53,0.28,0.11,-0.06,-0.1
14.08917999267578,3,3,3,3,-9.470000000000001,-2.52,0.28,0.04,-0.04,-0.07000000000000001
14.09917998313904,3,3,3,3,-9.48,-2.53,0.25,0.07000000000000001,0,-0.11
14.10917997360229,3,3,3,3,-9.48,-2.43,0.27,0.07000000000000001,-0.04,-0.14
14.11917996406555,3,3,3,3,-9.48,-2.47,0.28,0.05,-0.09,-0.14
14.12917995452881,3,3,3,3,-9.470000000000001,-2.45,0.32,-0.08,-0.1,-0.11
14.13917994499207,3,3,3,3,-9.470000000000001,-2.46,0.31,-0.17,-0.14,-0.06
14.14917993545532,3,3,3,3,-9.460000000000001,-2.62,0.16,-0.25,-0.09,-0.08
14.15917992591858,3,3,3,3,-9.449999999999999,-2.63,0.21,-0.22,-0.08,-0.08
14.16917991638184,3,3,3,3,-9.449999999999999,-2.63,0.25,-0.16,-0.05,-0.12
14.17918014526367,3,3,3,3,-9.43,-2.64,0.24,-0.08,-0.07000000000000001,-0.11
14.18918013572693,3,3,3,3,-9.470000000000001,-2.58,0.26,-0.07000000000000001,-0.08,-0.11
14.19918012619019,3,3,3,3,-9.470000000000001,-2.6,0.19,-0.01,-0.05,-0.11
14.20918011665344,3,3,3,3,-9.449999999999999,-2.57,0.25,0,-0.07000000000000001,-0.09
14.2191801071167,3,3,3,3,-9.42,-2.53,0.31,-0.02,-0.08,-0.11
14.22918009757996,3,3,3,3,-9.460000000000001,-2.58,0.31,-0.04,-0.05,-0.09
14.23918008804321,3,3,3,3,-9.449999999999999,-2.53,0.28,-0.02,-0.08,-0.11
14.24918007850647,3,3,3,3,-9.460000000000001,-2.52,0.19,-0.03,-0.08,-0.08
14.25918006896973,3,3,3,3,-9.460000000000001,-2.5,0.22,0,-0.11,-0.05
14.26918005943298,3,3,3,3,-9.460000000000001,-2.47,0.28,-0.02,-0.08,-0.05
14.27918004989624,3,3,3,3,-9.470000000000001,-2.51,0.28,0,-0.05,-0.05
14.2891800403595,3,3,3,3,-9.460000000000001,-2.46,0.28,-0.05,-0.07000000000000001,-0.04
14.29918003082275,3,3,3,3,-9.449999999999999,-2.53,0.2,0,-0.06,-0.03
14.30918002128601,3,3,3,3,-9.49,-2.63,0.25,-0.03,-0.02,-0.04
14.31918001174927,3,3,3,3,-9.449999999999999,-2.58,0.27,0.01,-0.02,-0.02
14.36917996406555,3,3,3,3,-9.449999999999999,-2.51,0.28,0.26,-0.03,-0.06
14.37917995452881,3,3,3,3,-9.470000000000001,-2.52,0.32,0.23,-0.04,-0.08
14.38917994499207,3,3,3,3,-9.5,-2.48,0.31,0.25,-0.08,-0.06
14.39917993545532,3,3,3,3,-9.5,-2.45,0.25,0.22,-0.07000000000000001,-0.04
14.40917992591858,3,3,3,3,-9.470000000000001,-2.41,0.26,0.18,-0.07000000000000001,-0.04
14.41917991638184,3,3,3,3,-9.449999999999999,-2.43,0.32,0.16,-0.03,-0.02
14.42918014526367,3,3,3,3,-9.48,-2.47,0.34,0.11,-0.02,-0.05
14.43918013572693,3,3,3,3,-9.449999999999999,-2.56,0.32,0.09,-0.03,-0.04
14.44918012619019,3,3,3,3,-9.470000000000001,-2.56,0.17,0.07000000000000001,-0.03,-0.02
14.45918011665344,3,3,3,3,-9.449999999999999,-2.61,0.25,0.11,-0.02,-0.05
14.4691801071167,3,3,3,3,-9.44,-2.58,0.29,0.1,-0.01,-0.06
14.48918008804321,3,3,3,2,-9.42,-2.58,0.35,0.17,-0.02,-0.09
14.49918007850647,3,3,3,2,-9.449999999999999,-2.57,0.24,0.14,-0.01,-0.08
14.50918006896973,3,3,3,2,-9.49,-2.59,0.28,0.12,0.01,-0.08
14.51918005943298,3,3,3,2,-9.5,-2.57,0.31,0.12,0.04,-0.07000000000000001
14.52918004989624,3,3,3,2,-9.51,-2.54,0.36,0.19,0,-0.06
14.5391800403595,3,3,3,2,-9.48,-2.53,0.32,0.17,0.03,-0.07000000000000001
14.54918003082275,3,3,3,2,-9.48,-2.5,0.22,0.19,0.02,-0.07000000000000001
14.55918002128601,3,3,3,2,-9.48,-2.52,0.28,0.23,0.12,-0.05
14.56918001174927,3,3,3,2,-9.42,-2.38,0.26,0.22,0.18,-0.01
14.57918000221252,3,3,3,2,-9.43,-2.14,0.35,0.3,0.18,0.03
14.58917999267578,3,3,3,2,-9.48,-1.87,0.34,0.3,0.2,0.06
14.59917998313904,3,3,3,2,-9.49,-1.51,0.3,0.34,0.24,0.17
14.60917997360229,3,3,3,2,-9.5,-1.17,0.35,0.36,0.32,0.38
14.61917996406555,3,3,3,2,-9.460000000000001,-0.79,0.5600000000000001,0.32,0.48,0.65
14.62917995452881,3,3,3,2,-9.539999999999999,-0.98,0.7,0.28,0.66,0.96
14.63917994499207,3,3,3,2,-9.609999999999999,-1.32,0.76,0.15,0.82,1.29
14.64917993545532,3,3,3,2,-9.640000000000001,-1.77,0.61,0.17,0.95,1.53
14.65917992591858,3,3,3,2,-9.59,-2.29,0.46,0.43,1.05,1.77
14.66917991638184,3,3,3,2,-9.56,-2.52,0.42,0.75,1.07,1.8
14.67918014526367,3,3,3,2,-9.539999999999999,-2.67,0.43,0.96,1.08,1.83
14.68918013572693,3,3,3,2,-9.380000000000001,-2.69,0.42,1.35,1.09,1.75
14.69918012619019,3,3,3,2,-9.220000000000001,-2.64,0.21,1.6,1.1,1.58
14.70918011665344,3,3,3,2,-9.18,-2.24,0.21,1.65,1.08,1.46
14.7191801071167,3,3,3,2,-9.279999999999999,-1.85,0.27,1.69,1.01,1.41
14.72918009757996,3,3,3,2,-9.43,-1.65,0.39,1.36,0.92,1.42
14.73918008804321,3,3,3,2,-9.69,-1.64,0.58,0.91,0.86,1.42
14.74918007850647,3,3,3,2,-9.67,-1.85,0.58,0.47,0.93,1.45
14.75918006896973,3,3,3,2,-9.609999999999999,-1.8,0.59,0.22,0.96,1.49
14.76918005943298,3,3,3,2,-9.52,-1.53,0.75,0.33,0.98,1.49
14.77918004989624,3,3,3,2,-9.369999999999999,-1.55,0.79,0.04,1.05,1.54
14.7891800403595,3,3,3,2,-9.41,-1.83,0.73,-0.57,1.21,1.63
14.79918003082275,3,3,3,2,-9.4,-2.33,0.58,-1.5,1.31,1.67
14.80918002128601,3,3,3,2,-9.359999999999999,-2.44,0.52,-2.18,1.32,1.61
14.81918001174927,3,3,3,2,-9.42,-2.72,0.55,-2.35,1.42,1.45
14.82918000221252,3,3,3,2,-9.44,-2.91,0.57,-2.57,1.38,1.26
14.83917999267578,3,3,3,2,-9.49,-2.84,0.44,-2.52,1.38,0.96
14.84917998313904,3,3,3,2,-9.44,-2.95,0.39,-2.43,1.21,0.67
14.85917997360229,3,3,3,2,-9.42,-3.05,0.44,-2.55,1.21,0.45
14.86917996406555,3,3,3,2,-9.460000000000001,-3.29,0.42,-2.43,1.31,0.28
14.87917995452881,3,3,3,2,-9.6,-3.48,0.45,-2.3,1.49,0.04
14.88917994499207,3,3,3,2,-9.640000000000001,-3.27,0.57,-1.98,1.53,-0.15
14.89917993545532,3,3,3,2,-9.59,-3.13,0.48,-1.71,1.38,-0.37
14.90917992591858,3,3,3,2,-9.52,-3.15,0.45,-1.89,1.42,-0.68
14.91917991638184,3,3,3,2,-9.449999999999999,-3.3,0.44,-2.49,1.47,-0.89
14.92918014526367,3,3,3,2,-9.44,-3.2,0.48,-2.88,1.62,-1.08
14.93918013572693,3,3,3,2,-9.449999999999999,-3.1,0.51,-3.04,1.58,-1.32
14.94918012619019,3,3,3,2,-9.449999999999999,-3.13,0.53,-3.37,1.41,-1.57
14.95918011665344,3,3,3,2,-9.42,-2.77,0.5,-3.84,1.23,-1.79
14.9691801071167,3,3,3,2,-9.449999999999999,-2.94,0.79,-4.21,1.2,-1.92
14.97918009757996,3,3,3,2,-9.35,-3.55,0.58,-4.73,1.14,-2.02
14.98918008804321,3,3,3,2,-9.26,-3.67,0.27,-5.07,1.18,-2.12
15.00018000602722,3,3,3,2,-9.210000000000001,-3.39,-0.07000000000000001,-4.58,1.4,-2.16
15.01017999649048,3,3,3,2,-8.94,-3.36,0.02,-4.08,1.44,-2.16
15.02017998695374,3,3,3,2,-8.960000000000001,-3.43,0,-3.58,1.49,-2.21
15.03017997741699,3,3,3,2,-8.99,-3.09,-0.26,-3.17,1.3,-2.31
15.04017996788025,3,3,3,2,-9.289999999999999,-2.64,-0.49,-3.15,0.88,-2.42
15.05017995834351,3,3,3,2,-9.81,-2.08,-0.9,-3.34,0.57,-2.41
15.06017994880676,3,3,3,2,-9.9,-2.29,-1.27,-3.69,0.31,-2.43
15.07017993927002,3,3,3,2,-9.960000000000001,-2.58,-1.58,-4.25,0.42,-2.41
15.08017992973328,3,3,3,2,-9.92,-2.79,-1.96,-4.19,0.65,-2.4
15.09017992019653,3,3,3,2,-9.82,-2.47,-2.4,-3.39,0.9399999999999999,-2.44
15.10017991065979,3,3,3,2,-9.67,-2.63,-2.4,-2.08,1.25,-2.56
15.11018013954163,3,3,3,2,-9.57,-2.51,-2.34,-1.12,1.38,-2.76
15.12018013000488,3,3,3,2,-9.529999999999999,-2.22,-2.08,-0.05,1.49,-3.01
15.13018012046814,3,3,3,2,-9.59,-2.82,-1.57,0.86,1.59,-3.15
15.1401801109314,3,3,3,2,-9.51,-3.02,-1.65,1.73,1.61,-3.29
15.15018010139465,3,3,3,2,-9.5,-3.06,-1.57,2.82,1.68,-3.41
15.16018009185791,3,3,3,2,-9.43,-2.68,-1.55,4.15,1.64,-3.48
15.17018008232117,3,3,3,2,-9.56,-1.87,-1.46,5.17,1.54,-3.49
15.18018007278442,3,3,3,2,-9.58,-1.55,-1.3,5.76,1.46,-3.43
15.19018006324768,3,3,3,2,-9.52,-1.21,-1.07,5.92,1.44,-3.31
15.20018005371094,3,3,3,2,-9.49,-0.8,-0.9399999999999999,5.93,1.47,-3.23
15.21018004417419,3,3,3,2,-9.390000000000001,-0.98,-0.43,5.39,1.51,-3.1
15.22018003463745,3,3,3,2,-9.4,-1.12,-0.29,5.08,1.45,-3.08
15.23018002510071,3,3,3,2,-9.460000000000001,-1.29,-0.3,4.68,1.37,-3.06
15.24018001556396,3,3,3,2,-9.51,-1.03,-0.61,4.44,1.23,-3.09
15.25018000602722,3,3,3,2,-9.449999999999999,-1.11,-0.77,3.99,1.1,-2.98
15.26017999649048,3,3,3,2,-9.359999999999999,-1.22,-0.76,3.56,1.1,-2.98
15.27017998695374,3,3,3,2,-9.300000000000001,-1.46,-0.83,3.22,1.25,-3
15.28017997741699,3,3,3,2,-9.44,-2.01,-0.83,2.81,1.36,-3.02
15.29017996788025,3,3,3,2,-9.41,-2.09,-0.63,2.43,1.4,-3.08
15.30017995834351,3,3,3,2,-9.279999999999999,-2.38,-0.83,2.47,1.35,-3.2
15.31017994880676,3,3,3,2,-9.17,-2.45,-0.87,2.25,1.32,-3.32
15.32017993927002,3,3,3,2,-9.15,-1.38,-0.77,2.15,1.14,-3.46
15.33017992973328,3,3,3,2,-9.34,-1.46,-0.53,1.71,0.9,-3.53
15.34017992019653,3,3,3,2,-9.880000000000001,-2.33,-0.29,0.79,0.83,-3.64
15.35017991065979,3,3,3,2,-10.22,-3.35,-0.49,0.29,0.71,-4.02
15.36018013954163,3,3,3,2,-9.52,-3.53,-0.66,0.52,0.7,-4.49
15.37018013000488,3,3,3,2,-9.289999999999999,-2.87,-0.7,1.56,0.74,-4.8
15.38018012046814,3,3,3,2,-9.119999999999999,-2.65,-0.66,2.03,0.77,-4.9
15.3901801109314,3,3,3,2,-9.02,-2.59,-0.78,1.55,0.85,-4.83
15.40018010139465,3,3,3,2,-9.039999999999999,-2.55,-1.17,1.22,1.03,-4.69
15.41018009185791,3,3,3,2,-8.99,-2.6,-1.07,1.08,1.05,-4.6
15.42018008232117,3,3,3,2,-8.949999999999999,-2.76,-0.83,1.02,0.97,-4.53
15.43018007278442,3,3,3,2,-8.9,-2.53,-0.8100000000000001,1.36,1,-4.51
15.44018006324768,3,3,3,2,-8.84,-2.34,-0.65,1.8,0.96,-4.49
15.45018005371094,3,3,3,2,-8.99,-2.59,-0.76,1.84,0.92,-4.39
15.46018004417419,3,3,3,2,-9.279999999999999,-2.88,-0.7,1.84,0.84,-4.42
15.47018003463745,3,3,3,2,-9.449999999999999,-3.23,-0.75,1.9,0.8100000000000001,-4.58
15.48018002510071,3,3,3,2,-9.369999999999999,-3.67,-0.8100000000000001,2.17,0.8,-4.78
15.49018001556396,3,3,3,2,-9.23,-3.7,-0.8100000000000001,2.57,0.87,-5.02
15.50018000602722,3,3,3,2,-9.07,-3.65,-0.93,3.04,0.83,-5.3
15.51017999649048,3,3,3,2,-8.99,-3.64,-0.95,3.27,0.76,-5.63
15.52017998695374,3,3,3,2,-9.210000000000001,-3.36,-0.8100000000000001,3.39,0.63,-5.89
15.53017997741699,3,3,3,2,-9.52,-3.17,-0.67,3.84,0.54,-6.15
15.54017996788025,3,3,3,2,-9.74,-3.05,-0.58,4.26,0.37,-6.29
15.55017995834351,3,3,3,2,-9.880000000000001,-2.84,-0.59,4.47,0.19,-6.43
15.56017994880676,3,3,3,2,-9.880000000000001,-2.69,-0.46,4.72,-0.05,-6.41
15.57017993927002,3,3,3,2,-9.859999999999999,-2.78,-0.5600000000000001,4.85,-0.23,-6.48
15.58017992973328,3,3,3,2,-9.92,-2.94,-0.54,4.95,-0.53,-6.66
15.59017992019653,3,3,3,2,-10.02,-2.61,-0.4,5.1,-0.92,-6.96
15.60017991065979,3,3,3,2,-10.33,-2.57,-0.76,4.45,-1.34,-7.25
15.61018013954163,3,3,3,2,-10.49,-2.58,-0.79,3.68,-1.65,-7.43
15.62018013000488,3,3,3,2,-10.69,-2.64,-0.79,3.28,-1.63,-7.58
15.63018012046814,3,3,3,2,-10.97,-2.22,-0.8100000000000001,3.08,-1.49,-7.7
15.6401801109314,3,3,3,2,-11.13,-1.96,-0.83,2.64,-1.39,-7.63
15.65018010139465,3,3,3,2,-11.31,-1.77,-1.04,2.2,-1.12,-7.36
15.66018009185791,3,3,3,2,-11.51,-1.52,-0.89,2.64,-0.86,-7.17
15.67018008232117,3,3,3,2,-12.03,-1.08,-0.38,3.59,-0.77,-6.9
15.68018007278442,3,3,3,1,-12.16,-0.78,-0.13,4.51,-0.73,-6.46
15.69018006324768,3,3,3,1,-12.27,-0.72,0.36,5.35,-0.64,-5.82
15.70018005371094,3,3,3,1,-12.31,-0.48,0.55,6.05,-0.57,-5.13
15.71018004417419,3,3,3,1,-12.44,0.39,0.83,6.6,-0.52,-4.32
15.72018003463745,3,3,3,1,-12.43,0.84,1.16,6.85,-0.42,-3.25
15.73018002510071,3,3,3,1,-12.39,1.19,1.12,7.21,-0.27,-1.94
15.74018001556396,3,3,3,1,-12.3,1.49,0.78,7.27,-0.15,-0.34
15.75018000602722,3,3,3,1,-12.23,2.67,0.31,7.19,0.14,1.52
15.76017999649048,3,3,3,1,-12.2,2.59,0.28,7.5,0.5600000000000001,3.5
15.77017998695374,3,3,3,1,-12.43,2.41,0.93,7.02,0.61,5.3
15.78017997741699,3,3,3,1,-12.32,2.33,1.32,6.79,-0.35,6.81
15.79017996788025,3,3,3,1,-11.9,2.06,1.59,6.12,-1.8,8.27
15.80017995834351,3,3,3,1,-11.72,1.92,1.1,5.75,-3.69,9.630000000000001
15.81017994880676,3,3,3,1,-11.74,1.8,0.54,5.62,-5.06,11.29
15.82017993927002,3,3,3,1,-11.6,1.69,-0.58,6.6,-5.48,12.58
15.83017992973328,3,3,3,0,-11.94,0.27,-0.14,7.48,-4.77,13.65
15.84017992019653,3,3,3,0,-11.68,-0.63,-0.31,8.35,-4.95,15
15.85017991065979,3,3,3,0,-11.6,-1.67,-0.39,8.35,-5.03,16.49
15.86018013954163,3,3,3,0,-11.69,-2.94,-0.25,8.050000000000001,-3.7,17.17
15.87018013000488,3,3,3,0,-11.59,-4.98,-0.89,8.4,-1.26,16.93
15.88018012046814,3,3,3,0,-11.32,-5.19,-1.28,8.210000000000001,1.67,16.69
15.8901801109314,3,3,3,0,-11.09,-4.43,-1.61,8.470000000000001,4.07,17.22
15.90018010139465,3,3,3,0,-11.77,-4.6,-0.5,9.199999999999999,6.37,18.27
15.91018009185791,3,3,3,0,-10.56,-5.73,-0.47,7.84,6.96,18.81
15.92018008232117,3,3,3,0,-9.789999999999999,-4.99,-0.75,6.72,7,19.35
15.93018007278442,3,3,3,0,-10.03,-4.25,-0.14,6.43,8.630000000000001,20.04
15.94018006324768,3,3,3,0,-10.75,-4.49,0.54,4.87,9.33,20.81
15.95018005371094,3,3,3,0,-10.71,-5.55,0.19,2.01,8.550000000000001,21.42
15.96018004417419,3,3,3,0,-10.33,-5.68,0.21,-0.4,7.28,21.94
15.97018003463745,3,3,3,0,-9.859999999999999,-5.92,0.11,-2.01,6.23,22.43
15.98018002510071,3,3,3,0,-8.859999999999999,-6,-0.57,-3.17,5.58,22.69
15.99018001556396,3,3,3,0,-8.56,-5.51,-0.77,-4,5.37,22.78
16.00018000602722,3,3,3,0,-8.390000000000001,-5.21,-0.9399999999999999,-5.02,5.4,22.73
16.01017999649048,3,3,3,0,-8.35,-5.09,-1.05,-6.9,5.38,22.67
16.02117991447449,3,3,3,0,-8.210000000000001,-4.57,-1.18,-9.09,5.25,22.64
16.03118014335632,3,3,3,0,-8.300000000000001,-4.31,-0.9399999999999999,-11.56,4.89,22.53
16.04118013381958,3,3,3,0,-8.25,-4.29,-0.86,-15.01,4.16,22.21
16.05118012428284,3,3,3,0,-8.27,-4.57,-1.02,-18.39,3.16,21.83
16.06118011474609,3,3,3,0,-8.25,-5.25,-1.1,-20.73,2.04,21.22
16.07118010520935,3,3,3,0,-8.43,-5.43,-0.47,-21.96,1.38,20.62
16.08118009567261,3,3,3,0,-8.44,-5.24,0.32,-22.87,0.82,19.85
16.09118008613586,3,3,3,0,-8.390000000000001,-5.05,0.29,-24.41,0.22,18.94
16.10118007659912,3,3,3,0,-7.71,-6.14,-0.36,-24.63,0,18.25
16.11118006706238,3,3,3,0,-7.43,-6.32,-0.52,-22.56,0.03,17.39
16.12118005752563,3,3,3,0,-7.14,-6.3,-0.29,-19.07,-0.25,16.66
16.13118004798889,3,3,3,0,-6.78,-6.19,-0.16,-15.86,-0.76,15.95
16.14118003845215,3,3,3,0,-6.52,-5.92,-0.36,-12.76,-0.92,14.96
16.15118002891541,3,3,3,0,-6.66,-5.9,-0.47,-10.29,-0.6899999999999999,13.57
16.16118001937866,3,3,3,0,-6.61,-5.21,-0.55,-7.52,-0.43,11.64
16.17118000984192,3,3,3,0,-6.18,-4.11,-0.66,-4.89,-0.77,9.93
16.18118000030518,3,3,3,1,-6.16,-2.19,0.15,-4.48,-1.19,8.26
16.19117999076843,3,3,3,1,-6.45,-1.85,0.58,-7.1,-1.69,6.57
16.20117998123169,3,3,3,1,-6.95,-1.56,0.95,-10.56,-2.13,4.53
16.21117997169495,3,3,3,1,-7.55,-0.9,1.39,-11.73,-2.4,2.2
16.2211799621582,3,3,3,1,-9.119999999999999,1.9,3.01,-10.58,-3.01,0.5
16.23117995262146,3,3,3,1,-9.56,3.23,4.32,-9.83,-4.35,-0.18
16.24117994308472,3,3,3,1,-9.84,4.31,5.28,-10.64,-5.29,-0.26
16.25117993354797,3,3,3,1,-10.37,6.14,5.47,-11.2,-4.94,-0.04
16.26117992401123,3,3,3,1,-11.27,11.5,5.04,-10.14,-3.46,1.31
16.27117991447449,3,3,3,1,-12.6,13.52,3.53,-9.130000000000001,-0.41,3.64
16.28118014335632,3,3,3,1,-13.88,14.24,1.19,-9.140000000000001,2.92,6.55
16.29118013381958,3,3,3,1,-14.83,13.5,-1.03,-9.23,2.81,9.26
16.30118012428284,3,3,3,1,-11.64,8.57,0.25,-6.95,0.14,10.32
16.31118011474609,3,3,3,1,-10.62,4.74,1.52,-2.29,0.61,9.210000000000001
16.32118010520935,3,3,3,1,-10.22,1.99,1.27,1.36,3.61,7.99
16.33118009567261,3,3,3,1,-9.949999999999999,1.02,0.57,2.54,5.69,6.65
16.34118008613586,3,3,3,1,-9.210000000000001,1.86,-0.75,2.78,6.23,3.9
16.35118007659912,3,3,3,1,-8.609999999999999,2.11,-1.14,1.42,6.16,1.12
16.36118006706238,3,3,3,1,-8.18,2.2,-1.76,-1.47,5.48,-0.54
16.37118005752563,3,3,3,1,-8.6,-0.45,-1.53,-6.31,4.25,-0.52
16.38118004798889,3,3,3,1,-9.5,-1.18,-1.1,-13.14,2.99,0.18
16.39118003845215,3,3,3,1,-12.02,-0.25,2.28,-18.22,2.35,-0.17
16.40118002891541,3,3,3,1,-13.34,0.66,7.14,-20.71,-1.45,-2.32
16.41118001937866,3,3,3,1,-13.66,8.34,5.84,-19.27,-7.59,-4.63
16.42118000984192,3,3,3,1,-15.1,7.56,3.83,-18.61,-5.27,-4.7
16.43118000030518,3,3,3,1,-14.03,4.43,2.8,-19.57,-1.8,-4.52
16.44117999076843,3,3,3,1,-11.65,0.08,3.2,-19.65,-1.5,-6.05
16.45117998123169,3,3,3,1,-8.859999999999999,-7.8,-0.78,-18.01,0.39,-7.34
16.46117997169495,3,3,3,1,-8.77,-8.640000000000001,-4.24,-12.74,4.65,-8.279999999999999
16.4711799621582,3,3,3,1,-8.4,-9.01,-6.69,-6.13,7.27,-9.119999999999999
16.48117995262146,3,3,3,1,-6.8,-7.95,-8.49,-1.75,7.94,-10.56
16.49117994308472,3,3,3,1,-8.949999999999999,-0.9399999999999999,-1.36,3.77,7.85,-12.2
16.50117993354797,3,3,3,1,-10.11,-2.66,0.5600000000000001,8.300000000000001,6.84,-13.03
16.51117992401123,3,3,3,1,-9.800000000000001,-4.09,-1.73,6.74,5.48,-13.73
16.52117991447449,3,3,3,1,-9.6,-4.67,-1.71,3.89,4.78,-13.65
16.53118014335632,3,3,3,0,-9.73,-3.33,-0.8100000000000001,4.05,4.18,-13.26
16.54118013381958,3,3,3,0,-10.27,-1.83,-0.52,3.73,4.44,-13.12
16.55118012428284,3,3,3,0,-10.81,-1.16,0.6,1.61,5.2,-13.19
16.56118011474609,3,3,3,0,-11.26,-1.94,1.44,-0.53,5.82,-13.28
16.57118010520935,3,3,3,0,-10.03,-3.03,0.6899999999999999,-1.22,6.27,-13.58
16.58118009567261,3,3,3,0,-9.609999999999999,-3.09,-0.25,-1.03,6.02,-13.92
16.59118008613586,3,3,3,0,-9.56,-2.89,-1.3,-0.62,5.35,-14.3
16.60118007659912,3,3,3,0,-9.51,-2.49,-2.01,-0.04,4.94,-14.41
16.61118006706238,3,3,3,0,-9.380000000000001,-1.77,-2.24,0.17,5.06,-14.3
16.62118005752563,3,3,3,0,-9.44,-2.19,-2.46,0.13,5.47,-14.31
16.63118004798889,3,3,3,0,-9.52,-2.68,-2.52,1.21,5.91,-14.39
16.64118003845215,3,3,3,0,-9.66,-2.99,-2.45,3.24,6.22,-14.57
16.65118002891541,3,3,3,0,-9.56,-2.41,-1.81,6.34,6.13,-14.78
16.66118001937866,3,3,3,0,-9.57,-2.29,-1.25,8.99,5.6,-15.11
16.67118000984192,3,3,3,0,-9.69,-1.73,-0.71,10.87,4.79,-15.58
16.68118000030518,3,3,3,0,-9.76,-0.9399999999999999,-0.42,11.47,3.97,-15.64
16.69117999076843,3,3,3,0,-9.68,-0.34,-0.67,10.85,3.51,-15.43
16.70117998123169,3,3,3,0,-9.710000000000001,-0.01,-0.72,9.82,3.42,-15.04
16.71117997169495,3,3,3,0,-9.699999999999999,0.06,-0.6,8.68,3.26,-14.72
16.7211799621582,3,3,3,0,-9.69,-0.33,-0.66,7.37,3.06,-14.68
16.73117995262146,3,3,3,0,-9.779999999999999,-0.37,-0.78,6.33,2.76,-14.98
16.74117994308472,3,3,3,0,-9.710000000000001,-0.04,-0.92,5.54,2.19,-15.43
16.75117993354797,3,3,3,0,-9.4,0.24,-1.19,4.6,1.66,-15.85
16.76117992401123,3,3,3,0,-8.890000000000001,-0.28,-1.28,3.13,1.44,-15.96
16.77117991447449,3,3,3,0,-8.94,-1.01,-1.24,2.05,1.56,-15.38
16.78118014335632,3,3,3,0,-9.029999999999999,-1.46,-1.06,1.87,1.9,-14.45
16.79118013381958,3,3,3,0,-9.15,-1.88,-1.06,2.54,2.16,-13.47
16.80118012428284,3,3,3,0,-9.640000000000001,-2.51,-1.06,3.1,2.37,-12.71
16.81118011474609,3,3,3,0,-9.73,-2.89,-0.8,3.2,2.34,-12.23
16.82118010520935,3,3,3,0,-9.85,-3.09,-0.5600000000000001,3.31,2.32,-12.1
16.83118009567261,3,3,3,0,-9.779999999999999,-3.24,-0.44,3.78,2.36,-11.92
16.84118008613586,3,3,3,0,-9.69,-2.65,-0.32,4.37,2.54,-11.79
16.85118007659912,3,3,3,0,-9.74,-2.11,-0.22,5.48,2.89,-11.66
16.86118006706238,3,3,3,0,-9.85,-1.76,-0.1,6.56,3.22,-11.41
16.87118005752563,3,3,3,0,-9.91,-1.56,-0.15,7.22,3.5,-10.95
16.88118004798889,3,3,3,0,-9.869999999999999,-1.43,-0.95,7.6,3.69,-10.52
16.89118003845215,3,3,3,0,-9.91,-1.36,-0.87,8.01,3.82,-9.970000000000001
16.90118002891541,3,3,3,0,-9.91,-1.5,-1.09,8.32,3.73,-9.619999999999999
16.91118001937866,3,3,3,0,-9.949999999999999,-1.61,-1.03,8.279999999999999,3.68,-9.49
16.92118000984192,3,3,3,0,-9.98,-2.19,-0.73,8.23,3.64,-9.48
16.93118000030518,3,3,3,0,-9.94,-2.57,-0.86,7.86,3.58,-9.529999999999999
16.94117999076843,3,3,3,0,-9.85,-2.77,-0.9,7.68,3.39,-9.619999999999999
16.95117998123169,3,3,3,0,-9.779999999999999,-2.81,-0.88,7.91,3.21,-9.76
16.96117997169495,3,3,3,0,-9.82,-2.64,-0.66,8.15,2.97,-9.92
16.9711799621582,3,3,3,0,-9.859999999999999,-2.35,-0.58,8.359999999999999,2.78,-10.06
16.98117995262146,3,3,3,0,-9.859999999999999,-2.06,-0.57,8.33,2.55,-10.04
16.99117994308472,3,3,3,0,-9.73,-1.81,-0.65,8.050000000000001,2.43,-9.94
17.00117993354797,3,3,3,0,-9.67,-1.68,-0.86,7.78,2.46,-9.67
17.01117992401123,3,3,3,0,-9.789999999999999,-1.77,-0.97,7.69,2.51,-9.4
17.02117991447449,3,3,3,0,-10.01,-1.81,-0.86,8.08,2.59,-9.119999999999999
17.03118014335632,3,3,3,0,-10.29,-2,-0.96,9.02,2.71,-8.9
17.04118013381958,3,3,3,0,-10.86,-1.33,-1.24,10.5,2.88,-8.74
17.05218005180359,3,3,3,0,-11.09,-0.66,-1.64,11.84,2.95,-8.56
17.06218004226685,3,3,3,0,-11.57,0.06,-1.55,12.65,2.94,-8.43
17.0721800327301,3,3,3,0,-12.32,0.75,-0.87,13.28,2.82,-8.24
17.08218002319336,3,3,3,0,-13.24,2.05,0.35,13.81,2.53,-7.48
17.09218001365662,3,3,3,0,-13.02,2.58,0.77,14.03,2.13,-5.97
17.10218000411987,3,3,3,0,-12.73,2.94,1.19,14.14,1.66,-3.95
17.11217999458313,3,3,3,0,-13.71,3.38,2.67,15.12,1.21,-1.65
17.12217998504639,3,3,3,0,-14.38,4,3.51,16.34,0.54,1.41
17.13217997550964,3,3,3,0,-14.79,3.93,3.9,17.08,-0.46,5.3
17.1421799659729,3,3,3,0,-14.8,3.16,3.7,15.92,-2.36,9.08
17.15217995643616,3,3,3,0,-13.18,0.59,0.97,14.75,-5,10.98
17.16217994689941,3,3,3,0,-10.91,0.41,-1.17,15.2,-6.73,11.35
17.17217993736267,3,3,3,0,-10.57,-0.26,-1.74,14.03,-5.24,12.84
17.18217992782593,3,3,3,0,-10.57,-0.26,-1.74,14.03,-5.24,12.84
17.19217991828918,3,3,3,0,-12.39,-1.89,-2.86,9.15,-4.27,17.88
17.20217990875244,3,3,3,0,-13.16,-1.5,-2.56,7.07,-3.18,18.35
17.21218013763428,3,3,3,0,-13.71,-1.66,-1.76,4.99,-0.66,17.96
17.22218012809753,3,3,3,0,-13.76,-2.74,-1.09,2.18,1.73,17.63
17.23218011856079,3,3,3,0,-12.54,-4.34,-0.88,-0.98,3.46,17.81
17.24218010902405,3,3,3,0,-12.29,-4.99,0.08,-2.77,4.69,18.49
17.2521800994873,3,3,3,0,-12.36,-6.98,1.27,-5.29,4.95,19.12
17.26218008995056,3,3,3,0,-11.37,-8.32,0.83,-8.109999999999999,3.63,19.06
17.27218008041382,3,3,3,0,-10.28,-7.98,0.37,-7.69,3.45,19.52
17.28218007087708,3,3,3,0,-10.49,-7.97,0.54,-5.95,3.71,20.23
17.29218006134033,3,3,3,0,-10.3,-7.92,0.38,-4.22,3.43,20.83
17.30218005180359,3,3,3,0,-9.779999999999999,-7.62,-0.02,-2.39,3.1,21.22
17.31218004226685,3,3,3,0,-9.01,-6.38,0,-0.32,3.19,21.52
17.3221800327301,3,3,3,0,-8.869999999999999,-5.93,0.2,1.02,3.31,21.84
17.33218002319336,3,3,3,0,-8.74,-5.27,0.33,1.02,3.34,22.17
17.34218001365662,3,3,3,0,-8.77,-4.9,0.36,-0.26,3.27,22.31
17.35218000411987,3,3,3,0,-8.65,-4.04,-0.26,-2.54,3.15,22.01
17.36217999458313,3,3,3,0,-8.460000000000001,-4.24,-0.3,-5.54,2.82,21.63
17.37217998504639,3,3,3,0,-8.26,-4.27,-0.52,-8.9,2.34,21.31
17.38217997550964,3,3,3,0,-8.19,-4.42,-0.78,-12.09,1.89,21
17.3921799659729,3,3,3,0,-8.27,-5.01,-1.19,-14.61,1.34,20.87
17.40217995643616,3,3,3,0,-8.380000000000001,-5.36,-1.48,-16.42,0.8100000000000001,20.93
17.41217994689941,3,3,3,0,-8.34,-5.48,-1.63,-17.36,0.26,20.57
17.42217993736267,3,3,3,0,-8.31,-5.01,-1.52,-17.94,-0.2,20.01
17.43217992782593,3,3,3,0,-8.24,-5.27,-1.61,-18.8,-1.1,19.65
17.44217991828918,3,3,3,0,-8.09,-5.08,-1.21,-18.24,-1.85,19.34
17.45217990875244,3,3,3,0,-8.17,-5.14,-0.96,-18.47,-2,18.95
17.46218013763428,3,3,3,0,-8.130000000000001,-4.87,-1.24,-17.39,-1.88,18.43
17.49218010902405,3,3,3,0,-7.58,-4.63,-0.77,-13.77,-1.62,16.24
17.5021800994873,3,3,3,0,-7.23,-3.67,-0.5,-12.87,-1.84,15.93
17.51218008995056,3,3,3,0,-7.15,-3.67,0.1,-12.09,-1.67,15.43
17.52218008041382,3,3,3,0,-6.91,-4.11,0.25,-11.88,-1.64,14.53
17.53218007087708,3,3,3,0,-6.77,-4.53,0.38,-10.89,-1.28,13.2
17.54218006134033,3,3,3,0,-6.97,-4.71,0.37,-9.33,-0.74,11.25
17.55218005180359,3,3,3,0,-7.07,-4.48,0.11,-7.92,-0.32,8.81
17.56218004226685,3,3,3,0,-7.05,-4.07,-0.03,-6.76,-0.34,6.37
17.5721800327301,3,3,3,0,-6.96,-3.47,-0.15,-6.15,-0.95,4.37
17.58218002319336,3,3,3,0,-7.16,-1.66,0.42,-6.24,-1.46,2.89
17.59218001365662,3,3,3,0,-7.54,-0.45,0.61,-6.19,-1.68,1.89
17.60218000411987,3,3,3,0,-8.17,0.88,0.65,-4.75,-1.5,1.45
17.61217999458313,3,3,3,0,-8.800000000000001,2.34,0.86,-2.86,-1.25,1.23
17.62217998504639,3,3,3,0,-9.56,6.93,2.72,-1.23,-1.3,1.49
17.63217997550964,3,3,3,0,-10.73,9.44,4.02,-1.33,-1.05,2.4
17.6421799659729,3,3,3,0,-11.85,11.59,4.6,-2.5,-0.84,3.98
17.65217995643616,3,3,3,0,-12.71,12.27,4.18,-5.04,-0.24,5.93
17.66217994689941,3,3,3,0,-12.32,12.15,-0.04,-8.130000000000001,0.7,7.51
17.67217993736267,3,3,3,0,-12.1,12,-0.32,-7.56,0.47,8.380000000000001
17.69217991828918,3,3,3,1,-10.47,5.64,1.74,-3.64,0.62,7.02
17.70217990875244,3,3,3,1,-9.130000000000001,0.75,0.12,-4.18,1.93,5.81
17.71218013763428,3,3,3,1,-9.17,0.37,-0.63,-4.45,3.11,4.88
17.72218012809753,3,3,3,1,-9.4,0.44,-0.86,-4.35,3.88,4.07
17.73218011856079,3,3,3,1,-9.16,0.37,-0.49,-4.91,4.13,3.55
17.74218010902405,3,3,3,1,-7.3,-2.28,-0.9399999999999999,-6.16,4.09,2.77
17.7521800994873,3,3,3,1,-7.32,-3.89,-2.71,-10.08,4.22,1.93
17.76218008995056,3,3,3,1,-10.67,-6.2,-1.33,-16.13,4.67,-0.99
17.77218008041382,3,3,3,1,-12.57,-7.34,3.62,-17.45,-0.75,-6.53
17.78218007087708,3,3,3,1,-15.98,4.87,10.27,-9.67,-5.94,-9.779999999999999
17.79218006134033,3,3,3,1,-16.28,10.05,9.25,-4.15,-7.73,-8.4
17.80218005180359,3,3,3,1,-14.76,10.62,4.66,-5.11,-5.49,-6.72
17.81218004226685,3,3,3,1,-13.24,7.32,1.83,-9.970000000000001,1.05,-6.33
17.8221800327301,3,3,3,1,-11.13,-3.33,1.16,-13.36,3.06,-6.73
17.83218002319336,3,3,3,2,-9.539999999999999,-7.93,-0.01,-12.82,4.65,-7.7
17.84218001365662,3,3,3,2,-8.539999999999999,-11.51,-2,-10.39,6.36,-8.84
17.85218000411987,3,3,3,2,-8.33,-11.38,-5.11,-5.86,6.93,-10.91
17.86217999458313,3,3,3,2,-8.619999999999999,-5.4,-7.52,-1.47,6.67,-13.39
17.87217998504639,3,3,3,2,-9.970000000000001,-3.54,-5.77,0.41,6.25,-14.76
17.88217997550964,3,3,3,2,-10.95,-1.25,-2.98,2.38,5.74,-15.17
17.8921799659729,3,3,3,2,-10.4,-4.37,-0.27,0.87,5.35,-14.87
17.90217995643616,3,3,3,2,-9.74,-5.92,-1.01,-2.87,5.19,-14.46
17.91217994689941,3,3,3,2,-9.5,-4.79,-0.22,-2.86,5.53,-14.45
17.92217993736267,3,3,3,2,-9.630000000000001,-3.91,1.33,-1.04,5.89,-14.54
17.93217992782593,3,3,3,2,-10.28,-3.55,1.18,-1.01,6.26,-14.54
17.94217991828918,3,3,3,2,-9.76,-2.37,0.87,-1.47,6.34,-14.54
17.95217990875244,3,3,3,2,-9.470000000000001,-1.09,0.37,-1.63,5.89,-14.48
17.97218012809753,3,3,3,2,-9.68,-0.61,-2.15,-2.55,4.99,-14.26
17.98218011856079,3,3,3,2,-9.48,-1.2,-2.58,-2.61,4.86,-14.32
17.99218010902405,3,3,3,2,-9.01,-1.78,-2.87,-2.36,5,-14.37
18.0021800994873,3,3,3,2,-9.130000000000001,-2.15,-3.05,-1.06,5.25,-14.35
18.01218008995056,3,3,3,2,-9.18,-1.83,-2.46,1.32,5.39,-14.52
18.02218008041382,3,3,3,2,-9.220000000000001,-1.66,-1.8,3.93,5.38,-14.77
18.03218007087708,3,3,3,3,-9.380000000000001,-1.66,-1.14,6.15,5.17,-14.99
18.04218006134033,3,3,3,3,-9.640000000000001,-1.34,-0.68,8.26,4.81,-15.08
18.05218005180359,3,3,3,3,-9.85,0,0.14,9.609999999999999,4.5,-14.8
18.06218004226685,3,3,3,3,-9.82,0.85,0.05,9.66,4.13,-13.97
18.07317996025085,3,3,3,3,-9.67,1.77,-0.24,8.710000000000001,4.02,-13
18.08317995071411,3,3,3,3,-9.460000000000001,2.36,-0.61,6.78,4.1,-12.03
18.09317994117737,3,3,3,3,-9.4,1.7,-1.3,4.69,4.19,-11.21
18.10317993164062,3,3,3,3,-9.609999999999999,1.28,-1.49,3.8,4.39,-10.59
18.12317991256714,3,3,3,3,-9.75,-0.26,-1.08,4.56,4.35,-10.15
18.13318014144897,3,3,3,3,-9.76,-1.06,-0.84,5.85,4.22,-10.13
18.14318013191223,3,3,3,3,-9.77,-1.38,-0.75,6.82,4.12,-10.16
18.15318012237549,3,3,3,3,-9.58,-1.42,-0.86,7.36,3.97,-10.15
18.16318011283875,3,3,3,3,-9.48,-1.63,-0.88,7.3,3.84,-10.22
18.173180103302,3,3,3,3,-9.220000000000001,-2,-0.92,7.16,3.61,-10.53
18.18318009376526,3,3,3,3,-9.07,-1.91,-0.8100000000000001,7.12,3.26,-10.93
18.19318008422852,3,3,3,3,-9.109999999999999,-2.03,-0.83,6.78,3.15,-11.36
18.20318007469177,3,3,3,3,-9.09,-2.1,-1.04,6.67,3.1,-11.81
18.21318006515503,3,3,3,3,-9.050000000000001,-2.21,-1.09,6.78,3.1,-12.25
18.22318005561829,3,3,3,3,-9.039999999999999,-2.46,-0.89,7.22,3.29,-12.65
18.23318004608154,3,3,3,3,-9.16,-2.5,-0.72,8.07,3.61,-12.81
18.2431800365448,3,3,3,3,-9.33,-2.32,-0.7,9.01,3.9,-12.69
18.25318002700806,3,3,3,3,-9.66,-1.94,-0.79,9.68,4.17,-12.23
18.26318001747131,3,3,3,3,-9.800000000000001,-1.94,-0.73,10.05,4.45,-11.68
18.27318000793457,3,3,3,3,-9.880000000000001,-2.06,-0.65,10.29,4.58,-11.12
18.29317998886108,3,3,3,3,-9.699999999999999,-2.32,-1.25,10.61,4.67,-10.23
18.30317997932434,3,3,3,3,-9.75,-2.04,-1.02,11.35,4.86,-10.03
18.3131799697876,3,3,3,3,-9.710000000000001,-1.55,-0.76,12.45,4.83,-9.890000000000001
18.32317996025085,3,3,3,3,-9.539999999999999,-1.61,-0.85,12.57,4.72,-9.75
18.33317995071411,3,3,3,2,-9.529999999999999,-1.5,-1.08,12.56,4.49,-9.59
18.34317994117737,3,3,3,2,-9.779999999999999,-1.21,-1.2,12.46,4.2,-9.49
18.35317993164062,3,3,3,2,-10.32,-0.99,-1.17,12.39,3.97,-9.48
18.36317992210388,3,3,3,2,-11.37,-0.9,-0.74,12.52,3.94,-9.34
18.37317991256714,3,3,3,2,-11.77,-1.06,-0.68,12.8,4.05,-8.93
18.38318014144897,3,3,3,2,-12.14,-0.9399999999999999,-0.53,13.62,4.23,-8.529999999999999
18.39318013191223,3,3,3,2,-12.33,-0.8,-0.36,14.51,4.25,-8.109999999999999
18.40318012237549,3,3,3,2,-12.65,0.29,-0.88,15.24,4.06,-7.74
18.41318011283875,3,3,3,2,-13.17,1.12,-0.72,15.25,3.65,-7.54
18.423180103302,3,3,3,2,-14.09,2.12,0.33,15.18,3.11,-7.27
18.43318009376526,3,3,3,2,-14.64,2.89,0.9399999999999999,14.97,2.32,-6.38
18.44318008422852,3,3,3,2,-13.86,4.45,0.91,14.27,1.43,-4.74
18.45318007469177,3,3,3,2,-13.74,5.27,1.22,13.59,0.8,-2.82
18.46318006515503,3,3,3,2,-14.25,5.71,2.07,13.22,0.18,-0.55
18.47318005561829,3,3,3,2,-15.05,5.96,3.04,12.98,-0.82,2.54
18.48318004608154,3,3,3,2,-15.01,4.98,3.53,11.42,-2.7,6.59
18.4931800365448,3,3,3,2,-13.84,4.48,2.82,10.53,-5.25,10.1
18.50318002700806,3,3,3,2,-12.07,4.91,1.47,11.97,-7.23,12.41
18.51318001747131,3,3,3,2,-10.53,4.91,0.25,11.85,-7.51,14.45
18.52318000793457,3,3,3,2,-11.37,0.4,-2.73,7.67,-5.78,16.62
18.53317999839783,3,3,3,1,-13.36,-2.33,-2.59,2.45,-4.34,18.53
