timestamp,magCalib,accCalib,gyrCalib,sysCalib,accX,accY,accZ,gyrX,gyrY,gyrZ
-0.04681992530822754,2,1,3,3,-9.68,0.53,1.48,0.34,-0.08,0.1
-0.0368199348449707,2,1,3,3,-9.65,0.55,1.49,0.34,-0.03,0.08
-0.02681994438171387,2,1,3,3,-9.66,0.54,1.52,0.34,-0.03,0.08
-0.01681995391845703,2,1,3,3,-9.68,0.54,1.56,0.24,-0.05,0.06
-0.006819963455200195,2,1,3,3,-9.68,0.57,1.52,0.04,-0.1,0.02
0.003180027008056641,2,1,3,3,-9.65,0.5600000000000001,1.45,0.07000000000000001,-0.14,-0.01
0.01318001747131348,2,1,3,3,-9.65,0.5600000000000001,1.48,0.05,-0.16,-0.01
0.04317998886108398,2,1,3,3,-9.65,0.52,1.58,0.07000000000000001,-0.09,-0.05
0.05317997932434082,2,1,3,3,-9.67,0.49,1.51,0.15,-0.06,-0.02
0.06317996978759766,2,1,3,3,-9.68,0.52,1.55,0.14,-0.03,-0.03
0.07317996025085449,2,1,3,3,-9.710000000000001,0.53,1.6,0.14,-0.03,-0.03
0.08317995071411133,2,1,3,3,-9.720000000000001,0.53,1.66,-0.04,-0.19,-0.04
0.09317994117736816,2,1,3,3,-9.69,0.55,1.69,-0.04,-0.19,-0.04
0.103179931640625,2,1,3,3,-9.69,0.55,1.47,-0.1,-0.4,-0.1
0.1131799221038818,2,1,3,3,-9.68,0.58,1.48,-0.14,-0.52,-0.16
0.1231799125671387,2,1,3,3,-9.640000000000001,0.58,1.54,-0.14,-0.52,-0.16
0.1331801414489746,2,1,3,3,-9.619999999999999,0.5600000000000001,1.59,-0.13,-0.49,-0.19
0.1431801319122314,2,1,3,3,-9.67,0.5600000000000001,1.5,0.01,-0.41,-0.18
0.1531801223754883,2,1,3,3,-9.67,0.55,1.51,0.05,-0.31,-0.16
0.1631801128387451,2,1,3,3,-9.67,0.51,1.56,-0.13,-0.27,-0.14
0.173180103302002,2,1,3,3,-9.640000000000001,0.49,1.64,-0.18,-0.28,-0.11
0.1831800937652588,2,1,3,3,-9.66,0.49,1.67,-0.14,-0.33,-0.05
0.1931800842285156,2,1,3,3,-9.640000000000001,0.52,1.58,0.07000000000000001,-0.36,-0.03
0.2031800746917725,2,1,3,3,-9.66,0.54,1.52,0.26,-0.29,-0.03
0.2131800651550293,2,1,3,3,-9.68,0.5600000000000001,1.53,0.33,-0.25,-0.01
0.2231800556182861,2,1,3,3,-9.66,0.6,1.57,0.5,-0.18,0.02
0.233180046081543,2,1,3,3,-9.699999999999999,0.59,1.54,0.45,-0.14,0.04
0.2431800365447998,2,1,3,3,-9.66,0.62,1.65,0.34,-0.13,0.01
0.2531800270080566,2,1,3,3,-9.630000000000001,0.57,1.61,0.21,-0.23,0.01
0.2631800174713135,2,1,3,3,-9.66,0.57,1.63,0.21,-0.25,0.05
0.2731800079345703,2,1,3,3,-9.65,0.57,1.65,0.26,-0.25,0.02
0.2831799983978271,2,1,3,3,-9.68,0.55,1.57,0.18,-0.23,0.02
0.293179988861084,2,1,3,3,-9.67,0.5600000000000001,1.53,0.18,-0.2,0.03
0.3031799793243408,2,1,3,3,-9.67,0.5600000000000001,1.48,0.2,-0.12,0.03
0.3131799697875977,2,1,3,3,-9.630000000000001,0.54,1.52,0.21,-0.08,0.03
0.3231799602508545,2,1,3,3,-9.65,0.55,1.59,0.19,-0.01,0.09
0.3331799507141113,2,1,3,3,-9.66,0.54,1.65,0.19,0.07000000000000001,0.14
0.3431799411773682,2,1,3,3,-9.67,0.53,1.64,0.15,0.15,0.16
0.353179931640625,2,1,3,3,-9.640000000000001,0.57,1.53,0.19,0.18,0.22
0.3631799221038818,2,1,3,3,-9.65,0.5600000000000001,1.56,0.27,0.18,0.22
0.3731799125671387,2,1,3,3,-9.65,0.5600000000000001,1.59,0.23,0.19,0.24
0.3831801414489746,2,1,3,3,-9.640000000000001,0.59,1.62,0.27,0.26,0.18
0.3931801319122314,2,1,3,3,-9.65,0.57,1.62,0.25,0.25,0.14
0.4031801223754883,2,1,3,3,-9.630000000000001,0.58,1.51,0.29,0.3,0.17
0.4131801128387451,2,1,3,3,-9.619999999999999,0.59,1.58,0.28,0.34,0.12
0.423180103302002,2,1,3,3,-9.609999999999999,0.59,1.56,0.34,0.39,0.1
0.4331800937652588,2,1,3,3,-9.640000000000001,0.58,1.56,0.35,0.46,0.1
0.4431800842285156,2,1,3,3,-9.67,0.5600000000000001,1.64,0.35,0.49,0.06
0.4531800746917725,2,1,3,3,-9.67,0.5600000000000001,1.51,0.34,0.45,0.05
0.4631800651550293,2,1,3,3,-9.699999999999999,0.6,1.62,0.4,0.41,0.04
0.4731800556182861,2,1,3,3,-9.68,0.57,1.69,0.34,0.31,0.01
0.483180046081543,2,1,3,3,-9.66,0.5600000000000001,1.67,0.22,0.1,0.01
0.4931800365447998,2,1,3,3,-9.65,0.5600000000000001,1.61,0.2,-0.07000000000000001,-0.01
0.5031800270080566,2,1,3,3,-9.66,0.5600000000000001,1.53,0.27,-0.07000000000000001,-0.04
0.5131800174713135,2,1,3,3,-9.68,0.58,1.55,0.27,-0.05,-0.04
0.5231800079345703,2,1,3,3,-9.69,0.58,1.64,0.12,-0.09,-0.08
0.5331799983978271,2,1,3,3,-9.66,0.57,1.69,-0.06,-0.21,-0.1
0.543179988861084,2,1,3,3,-9.66,0.57,1.68,-0.15,-0.3,-0.15
0.5531799793243408,2,1,3,3,-9.66,0.58,1.56,-0.05,-0.37,-0.17
0.5841801166534424,2,1,3,3,-9.640000000000001,0.59,1.55,0.21,-0.22,-0.11
0.5941801071166992,2,1,3,3,-9.67,0.55,1.54,0.24,-0.07000000000000001,-0.05
0.6041800975799561,2,1,3,3,-9.69,0.5600000000000001,1.47,0.1,0,-0.04
0.6141800880432129,2,1,3,3,-9.68,0.57,1.57,-0.02,-0.03,-0.03
0.6241800785064697,2,1,3,3,-9.630000000000001,0.5600000000000001,1.63,-0.1,-0.14,-0.05
0.6341800689697266,2,1,3,3,-9.66,0.57,1.63,0.07000000000000001,-0.19,-0.06
0.6441800594329834,2,1,3,3,-9.6,0.53,1.53,0.18,-0.29,-0.04
0.6541800498962402,2,1,3,3,-9.67,0.51,1.57,0.2,-0.32,-0.04
0.6641800403594971,2,1,3,3,-9.67,0.5,1.56,0.16,-0.24,-0.01
0.6741800308227539,2,1,3,3,-9.630000000000001,0.53,1.63,0.24,-0.16,0
0.6841800212860107,2,1,3,3,-9.66,0.53,1.69,0.3,-0.09,0.01
0.6941800117492676,2,1,3,3,-9.68,0.57,1.7,0.34,0.01,0.02
0.7041800022125244,2,1,3,3,-9.75,0.55,1.61,0.36,-0.03,0.07000000000000001
0.7141799926757812,2,1,3,3,-9.69,0.53,1.6,0.37,-0.15,0.07000000000000001
0.7241799831390381,2,1,3,3,-9.67,0.53,1.63,0.39,-0.24,0.04
0.7341799736022949,2,1,3,3,-9.67,0.53,1.63,0.44,-0.3,-0.01
0.7441799640655518,2,1,3,3,-9.640000000000001,0.52,1.61,0.53,-0.32,-0.05
0.7541799545288086,2,1,3,3,-9.640000000000001,0.53,1.52,0.62,-0.3,-0.07000000000000001
0.7641799449920654,2,1,3,3,-9.640000000000001,0.53,1.58,0.6,-0.23,-0.09
0.7741799354553223,2,1,3,3,-9.630000000000001,0.53,1.6,0.52,-0.13,-0.01
0.7841799259185791,2,1,3,3,-9.630000000000001,0.57,1.58,0.57,0.09,0.06
0.7941799163818359,2,1,3,3,-9.66,0.58,1.56,0.62,0.23,0.14
0.8041801452636719,2,1,3,3,-9.67,0.58,1.52,0.52,0.27,0.16
0.8141801357269287,2,1,3,3,-9.65,0.55,1.56,0.48,0.15,0.15
0.8241801261901855,2,1,3,3,-9.630000000000001,0.58,1.61,0.49,0.05,0.12
0.8341801166534424,2,1,3,3,-9.640000000000001,0.54,1.6,0.35,0.04,0.12
0.8441801071166992,2,1,3,3,-9.609999999999999,0.53,1.58,0.3,0.07000000000000001,0.11
0.8541800975799561,2,1,3,3,-9.640000000000001,0.53,1.49,0.42,0.12,0.08
0.8641800880432129,2,1,3,3,-9.67,0.55,1.58,0.49,0.26,0.06
0.8741800785064697,2,1,3,3,-9.630000000000001,0.54,1.64,0.46,0.25,0.04
0.8841800689697266,2,1,3,3,-9.640000000000001,0.55,1.61,0.36,0.23,-0.02
0.8941800594329834,2,1,3,3,-9.630000000000001,0.5600000000000001,1.6,0.25,0.2,-0.01
0.9041800498962402,2,1,3,3,-9.640000000000001,0.54,1.5,0.22,0.21,-0.03
0.9141800403594971,2,1,3,3,-9.640000000000001,0.47,1.51,0.21,0.27,0.01
0.9241800308227539,2,1,3,3,-9.67,0.48,1.6,0.27,0.36,0.04
0.9341800212860107,2,1,3,3,-9.630000000000001,0.46,1.62,0.2,0.44,0.07000000000000001
0.9441800117492676,2,1,3,3,-9.65,0.52,1.54,0.32,0.52,0.13
0.9541800022125244,2,1,3,3,-9.640000000000001,0.5,1.5,0.36,0.59,0.19
0.9741799831390381,2,1,3,3,-9.69,0.52,1.57,0.43,0.4,0.15
0.9841799736022949,2,1,3,3,-9.65,0.51,1.51,0.46,0.22,0.11
0.9941799640655518,2,1,3,3,-9.640000000000001,0.52,1.51,0.37,0.13,0.06
1.004179954528809,2,1,3,3,-9.640000000000001,0.53,1.46,0.35,0.13,0.01
1.014179944992065,2,1,3,3,-9.630000000000001,0.52,1.47,0.39,0.23,0.01
1.024179935455322,2,1,3,3,-9.66,0.54,1.54,0.46,0.35,-0.01
1.034179925918579,2,1,3,3,-9.640000000000001,0.52,1.55,0.48,0.41,0
1.044179916381836,2,1,3,3,-9.65,0.55,1.51,0.49,0.47,0.01
1.054180145263672,2,1,3,3,-9.66,0.5600000000000001,1.41,0.53,0.48,0.02
1.064180135726929,2,1,3,3,-9.65,0.57,1.48,0.53,0.6,0.04
1.074180126190186,2,1,3,3,-9.66,0.58,1.48,0.4,0.64,0.09
1.084180116653442,2,1,3,3,-9.68,0.61,1.49,0.4,0.74,0.11
1.094180107116699,2,1,3,3,-9.65,0.63,1.49,0.43,0.74,0.11
1.104180097579956,2,1,3,3,-9.640000000000001,0.64,1.42,0.44,0.6899999999999999,0.11
1.114180088043213,2,1,3,3,-9.630000000000001,0.63,1.43,0.47,0.65,0.05
1.12418007850647,2,1,3,3,-9.68,0.64,1.46,0.45,0.59,-0.02
1.134180068969727,2,1,3,3,-9.68,0.61,1.51,0.42,0.55,-0.05
1.144180059432983,2,1,3,3,-9.68,0.58,1.42,0.36,0.45,-0.1
1.15418004989624,2,1,3,3,-9.68,0.61,1.37,0.34,0.41,-0.09
1.164180040359497,2,1,3,3,-9.699999999999999,0.59,1.38,0.33,0.46,-0.04
1.174180030822754,2,1,3,3,-9.710000000000001,0.62,1.41,0.36,0.5,0.01
1.184180021286011,2,1,3,3,-9.710000000000001,0.63,1.42,0.38,0.5,0.05
1.194180011749268,2,1,3,3,-9.73,0.63,1.41,0.41,0.49,0.08
1.204180002212524,2,1,3,3,-9.699999999999999,0.64,1.34,0.43,0.43,0.05
1.214179992675781,2,1,3,3,-9.699999999999999,0.61,1.38,0.4,0.38,0.04
1.224179983139038,2,1,3,3,-9.67,0.64,1.39,0.31,0.32,0.04
1.234179973602295,2,1,3,3,-9.699999999999999,0.64,1.44,0.28,0.35,0.05
1.244179964065552,2,1,3,3,-9.630000000000001,0.63,1.47,0.24,0.32,0.1
1.254179954528809,2,1,3,3,-9.630000000000001,0.62,1.35,0.19,0.32,0.16
1.264179944992065,2,1,3,3,-9.65,0.64,1.43,0.15,0.36,0.17
1.274179935455322,2,1,3,3,-9.68,0.66,1.46,0.11,0.36,0.15
1.284179925918579,2,1,3,3,-9.720000000000001,0.61,1.47,-0.12,0.2,0.07000000000000001
1.294179916381836,2,1,3,3,-9.720000000000001,0.6,1.34,-0.1,0.08,0.03
1.304180145263672,2,1,3,3,-9.68,0.58,1.26,-0.14,0.08,0.02
1.314180135726929,2,1,3,3,-9.66,0.57,1.31,-0.21,0.16,0.03
1.324180126190186,2,1,3,3,-9.67,0.54,1.35,-0.21,0.19,0.02
1.334180116653442,2,1,3,3,-9.640000000000001,0.55,1.41,-0.19,0.21,0.05
1.344180107116699,2,1,3,3,-9.640000000000001,0.52,1.39,-0.1,0.24,0.05
1.354180097579956,2,1,3,3,-9.68,0.52,1.34,-0.05,0.22,0.02
1.364180088043213,2,1,3,3,-9.710000000000001,0.52,1.41,0.02,0.18,0
1.37418007850647,2,1,3,3,-9.720000000000001,0.53,1.43,0.08,0.17,-0.02
1.384180068969727,2,1,3,3,-9.710000000000001,0.53,1.39,0.05,0.09,-0.03
1.394180059432983,2,1,3,3,-9.69,0.53,1.41,0.03,0.08,-0.01
1.40418004989624,2,1,3,3,-9.67,0.5600000000000001,1.33,-0.06,0.09,-0.01
1.414180040359497,2,1,3,3,-9.67,0.55,1.35,-0.01,0.12,0
1.424180030822754,2,1,3,3,-9.67,0.57,1.33,0.07000000000000001,0.09,0.01
1.434180021286011,2,1,3,3,-9.66,0.6,1.35,0.08,0.1,-0.06
1.444180011749268,2,1,3,3,-9.640000000000001,0.59,1.34,0.02,0.1,-0.07000000000000001
1.454180002212524,2,1,3,3,-9.66,0.59,1.3,0,0.08,-0.12
1.464179992675781,2,1,3,3,-9.65,0.6,1.35,0.03,0.08,-0.18
1.474179983139038,2,1,3,3,-9.67,0.58,1.41,0.03,0.05,-0.23
1.484179973602295,2,1,3,3,-9.630000000000001,0.58,1.41,0.07000000000000001,0.1,-0.24
1.514179944992065,2,1,3,3,-9.68,0.49,1.4,-0.06,0.26,-0.08
1.525180101394653,2,1,3,3,-9.699999999999999,0.51,1.44,0.11,0.24,-0.04
1.534179925918579,2,1,3,3,-9.699999999999999,0.51,1.44,0.24,0.24,-0.06
1.544179916381836,2,1,3,3,-9.699999999999999,0.52,1.49,0.37,0.13,-0.07000000000000001
1.554180145263672,2,1,3,3,-9.74,0.55,1.38,0.42,0,-0.13
1.564180135726929,2,1,3,3,-9.699999999999999,0.57,1.33,0.46,-0.07000000000000001,-0.13
1.574180126190186,2,1,3,3,-9.67,0.61,1.39,0.42,-0.11,-0.15
1.585180044174194,2,1,3,3,-9.67,0.61,1.39,0.42,-0.11,-0.15
1.595180034637451,2,1,3,3,-9.68,0.59,1.39,0.39,-0.12,-0.13
1.605180025100708,2,1,3,3,-9.68,0.63,1.31,0.46,0,-0.15
1.615180015563965,2,1,3,3,-9.710000000000001,0.62,1.32,0.5,0.02,-0.2
1.625180006027222,2,1,3,3,-9.699999999999999,0.63,1.38,0.46,0.03,-0.19
1.635179996490479,2,1,3,3,-9.699999999999999,0.63,1.38,0.46,0.03,-0.19
1.645179986953735,2,1,3,3,-9.699999999999999,0.62,1.41,0.38,-0.01,-0.23
1.655179977416992,2,1,3,3,-9.699999999999999,0.65,1.33,0.45,-0.03,-0.17
1.665179967880249,2,1,3,3,-9.69,0.67,1.32,0.45,-0.07000000000000001,-0.17
1.675179958343506,2,1,3,3,-9.74,0.67,1.39,0.47,-0.09,-0.18
1.685179948806763,2,1,3,3,-9.74,0.67,1.39,0.47,-0.09,-0.18
1.69517993927002,2,1,3,3,-9.699999999999999,0.64,1.41,0.41,-0.18,-0.23
1.705179929733276,2,1,3,3,-9.69,0.63,1.38,0.33,-0.29,-0.34
1.715179920196533,2,1,3,3,-9.67,0.6,1.28,0.28,-0.32,-0.43
1.72517991065979,2,1,3,3,-9.640000000000001,0.55,1.41,0.21,-0.33,-0.53
1.735180139541626,2,1,3,3,-9.630000000000001,0.51,1.48,0.21,-0.33,-0.53
1.745180130004883,2,1,3,3,-9.66,0.47,1.55,0.22,-0.36,-0.5600000000000001
1.75518012046814,2,1,3,3,-9.65,0.43,1.53,0.39,-0.38,-0.54
1.765180110931396,2,1,3,3,-9.69,0.42,1.44,0.57,-0.27,-0.47
1.775180101394653,2,1,3,3,-9.74,0.4,1.5,0.71,-0.25,-0.37
1.78518009185791,2,1,3,3,-9.779999999999999,0.41,1.48,0.71,-0.25,-0.37
1.795180082321167,2,1,3,3,-9.789999999999999,0.43,1.42,0.75,-0.24,-0.19
1.805180072784424,2,1,3,3,-9.75,0.5600000000000001,1.3,0.84,-0.12,0.14
1.815180063247681,2,1,3,3,-9.74,0.63,1.26,0.91,-0.13,0.23
1.825180053710938,2,1,3,3,-9.69,0.7,1.27,0.85,-0.13,0.23
1.835180044174194,2,1,3,3,-9.69,0.76,1.28,0.85,-0.13,0.23
1.845180034637451,2,1,3,3,-9.68,0.84,1.29,0.82,-0.15,0.22
1.855180025100708,2,1,3,3,-9.69,0.83,1.24,0.59,-0.03,0.14
1.865180015563965,2,1,3,3,-9.69,0.79,1.16,0.44,0.09,0.14
1.875180006027222,2,1,3,3,-9.67,0.76,1.25,0.29,0.18,0.2
1.885179996490479,2,1,3,3,-9.68,0.72,1.29,0.29,0.18,0.2
1.895179986953735,2,1,3,3,-9.68,0.71,1.35,0.16,0.17,0.26
1.905179977416992,2,1,3,3,-9.66,0.6899999999999999,1.4,0.23,0.09,0.34
1.935179948806763,2,1,3,3,-9.710000000000001,0.64,1.37,0.29,0.14,0.32
1.94517993927002,2,1,3,3,-9.68,0.65,1.4,0.22,0.12,0.3
1.955179929733276,2,1,3,3,-9.67,0.65,1.36,0.2,0.17,0.31
1.965179920196533,2,1,3,3,-9.69,0.66,1.29,0.26,0.2,0.3
1.97517991065979,2,1,3,3,-9.699999999999999,0.63,1.37,0.3,0.18,0.31
1.985180139541626,2,1,3,3,-9.699999999999999,0.63,1.35,0.3,0.18,0.31
1.995180130004883,2,1,3,3,-9.68,0.7,1.42,0.29,0.19,0.29
2.00518012046814,2,1,3,3,-9.699999999999999,0.7,1.38,0.36,0.08,0.33
2.015180110931396,2,1,3,3,-9.73,0.73,1.26,0.29,0.05,0.32
2.025180101394653,2,1,3,3,-9.710000000000001,0.76,1.27,0.26,0.06,0.27
2.03518009185791,2,1,3,3,-9.73,0.8,1.32,0.26,0.06,0.27
2.045180082321167,2,1,3,3,-9.699999999999999,0.76,1.39,0.05,-0.06,0.22
2.055180072784424,2,1,3,3,-9.68,0.76,1.39,0.05,-0.07000000000000001,0.25
2.065180063247681,2,1,3,3,-9.66,0.6899999999999999,1.23,0.06,-0.01,0.28
2.075180053710938,2,1,3,3,-9.69,0.7,1.33,-0.02,-0.01,0.33
2.085180044174194,2,1,3,3,-9.720000000000001,0.71,1.39,-0.02,-0.01,0.33
2.095180034637451,2,1,3,3,-9.73,0.73,1.39,0.09,-0.03,0.32
2.105180025100708,2,1,3,3,-9.630000000000001,0.74,1.29,0.24,-0.01,0.25
2.115180015563965,2,1,3,3,-9.65,0.76,1.25,0.26,-0.04,0.21
2.125180006027222,2,1,3,3,-9.65,0.75,1.29,0.15,-0.03,0.17
2.145179986953735,2,1,3,3,-9.66,0.76,1.32,0.1,-0.02,0.16
2.155179977416992,2,1,3,3,-9.67,0.77,1.31,0.1,0.02,0.14
2.165179967880249,2,1,3,3,-9.69,0.74,1.29,0.05,0.08,0.18
2.175179958343506,2,1,3,3,-9.710000000000001,0.74,1.31,-0.01,0.08,0.19
2.185179948806763,2,1,3,3,-9.66,0.77,1.39,-0.01,-0.03,0.2
2.19517993927002,2,1,3,3,-9.65,0.8,1.41,0.1,-0.13,0.19
2.205179929733276,2,1,3,3,-9.609999999999999,0.82,1.41,0.12,-0.21,0.13
2.215179920196533,2,1,3,3,-9.66,0.8100000000000001,1.3,0.16,-0.19,0.08
2.22517991065979,2,1,3,3,-9.710000000000001,0.84,1.28,0.15,-0.14,0.03
2.235180139541626,2,1,3,3,-9.69,0.85,1.26,0.07000000000000001,-0.06,-0.02
2.245180130004883,2,1,3,3,-9.68,0.83,1.32,-0.19,0.05,-0.02
2.25518012046814,2,1,3,3,-9.640000000000001,0.79,1.4,-0.4,0.08,0.03
2.265180110931396,2,1,3,3,-9.65,0.73,1.35,-0.43,0.03,0.08
2.275180101394653,2,1,3,3,-9.65,0.73,1.41,-0.31,-0.07000000000000001,0.12
2.28518009185791,2,1,3,3,-9.699999999999999,0.74,1.42,-0.19,-0.1,0.16
2.295180082321167,2,1,3,3,-9.69,0.74,1.33,-0.07000000000000001,-0.09,0.18
2.305180072784424,2,1,3,3,-9.710000000000001,0.73,1.29,0.05,-0.01,0.12
2.315180063247681,2,1,3,3,-9.74,0.76,1.25,-0.01,0.12,0.12
2.325180053710938,2,1,3,3,-9.699999999999999,0.72,1.32,-0.19,0.13,0.07000000000000001
2.335180044174194,2,1,3,3,-9.68,0.7,1.46,-0.36,0.01,0.07000000000000001
2.345180034637451,2,1,3,3,-9.66,0.68,1.48,-0.41,-0.13,0.1
2.355180025100708,2,1,3,3,-9.69,0.67,1.45,-0.23,-0.19,0.12
2.365180015563965,2,1,3,3,-9.68,0.65,1.38,-0.04,-0.2,0.14
2.375180006027222,2,1,3,3,-9.699999999999999,0.66,1.37,0.05,-0.19,0.22
2.385179996490479,2,1,3,3,-9.73,0.7,1.37,0.19,-0.07000000000000001,0.26
2.395179986953735,2,1,3,3,-9.73,0.76,1.38,0.21,-0.03,0.33
2.405179977416992,2,1,3,3,-9.720000000000001,0.78,1.37,0.15,0.01,0.35
2.415179967880249,2,1,3,3,-9.630000000000001,0.88,1.28,0.06,-0.03,0.37
2.425179958343506,2,1,3,3,-9.619999999999999,0.89,1.33,-0.01,-0.06,0.35
2.435179948806763,2,1,3,3,-9.630000000000001,0.89,1.36,-0.02,-0.1,0.31
2.44517993927002,2,1,3,3,-9.630000000000001,0.9,1.35,-0.04,-0.08,0.28
2.455179929733276,2,1,3,3,-9.630000000000001,0.86,1.3,-0.08,-0.04,0.27
2.465179920196533,2,1,3,3,-9.640000000000001,0.83,1.27,-0.18,0.06,0.23
2.47517991065979,2,1,3,3,-9.66,0.84,1.28,-0.23,0.19,0.17
2.485180139541626,2,1,3,3,-9.68,0.84,1.31,-0.36,0.17,0.12
2.495180130004883,2,1,3,3,-9.710000000000001,0.8,1.37,-0.38,0.12,0.09
2.50518012046814,2,1,3,3,-9.69,0.8,1.34,-0.38,0.06,0.08
2.515180110931396,2,1,3,3,-9.710000000000001,0.78,1.31,-0.43,0.04,0.03
2.525180101394653,2,1,3,3,-9.68,0.76,1.31,-0.46,-0.06,0.04
2.53518009185791,2,1,3,3,-9.65,0.72,1.4,-0.46,-0.06,0.01
2.545180082321167,2,1,3,3,-9.619999999999999,0.73,1.41,-0.43,-0.05,-0.03
2.555180072784424,2,1,3,3,-9.619999999999999,0.6899999999999999,1.42,-0.36,-0.06,-0.08
2.565180063247681,2,1,3,3,-9.65,0.7,1.34,-0.34,-0.04,-0.16
2.575180053710938,2,1,3,3,-9.65,0.6899999999999999,1.41,-0.32,-0.07000000000000001,-0.21
2.585180044174194,2,1,3,3,-9.67,0.68,1.41,-0.36,-0.1,-0.29
2.595180034637451,2,1,3,3,-9.67,0.65,1.41,-0.26,-0.14,-0.29
2.605180025100708,2,1,3,3,-9.73,0.65,1.3,-0.19,-0.09,-0.27
2.616179943084717,2,1,3,3,-9.73,0.63,1.28,-0.15,0.03,-0.22
2.626179933547974,2,1,3,3,-9.69,0.64,1.33,-0.23,0.04,-0.15
2.63617992401123,2,1,3,3,-9.68,0.64,1.44,-0.26,0.06,-0.1
2.646179914474487,2,1,3,3,-9.640000000000001,0.71,1.43,-0.23,-0.04,-0.08
2.656180143356323,2,1,3,3,-9.609999999999999,0.76,1.39,-0.07000000000000001,-0.07000000000000001,-0.07000000000000001
2.66618013381958,2,1,3,3,-9.67,0.8,1.27,0.11,-0.02,-0.1
2.676180124282837,2,1,3,3,-9.66,0.8100000000000001,1.28,0.1,-0.03,-0.11
2.686180114746094,2,1,3,3,-9.67,0.87,1.29,-0.01,-0.07000000000000001,-0.15
2.696180105209351,2,1,3,3,-9.67,0.84,1.32,-0.1,-0.08,-0.26
2.706180095672607,2,1,3,3,-9.65,0.82,1.33,-0.19,-0.09,-0.3
2.716180086135864,2,1,3,3,-9.65,0.78,1.25,-0.28,-0.13,-0.31
2.726180076599121,2,1,3,3,-9.699999999999999,0.7,1.36,-0.39,-0.12,-0.33
2.736180067062378,2,1,3,3,-9.74,0.66,1.41,-0.35,-0.11,-0.3
2.746180057525635,2,1,3,3,-9.710000000000001,0.63,1.45,-0.34,-0.08,-0.28
2.756180047988892,2,1,3,3,-9.67,0.63,1.43,-0.3,-0.13,-0.21
2.766180038452148,2,1,3,3,-9.630000000000001,0.63,1.37,-0.24,-0.12,-0.17
2.776180028915405,2,1,3,3,-9.66,0.59,1.38,-0.18,-0.07000000000000001,-0.14
2.786180019378662,2,1,3,3,-9.67,0.61,1.41,-0.06,-0.03,-0.1
2.796180009841919,2,1,3,3,-9.68,0.61,1.42,0.03,0.02,-0.13
2.806180000305176,2,1,3,3,-9.710000000000001,0.59,1.41,0.01,0.04,-0.12
2.816179990768433,2,1,3,3,-9.73,0.61,1.32,-0.01,0,-0.14
2.826179981231689,2,1,3,3,-9.73,0.61,1.36,-0.04,-0.05,-0.13
2.836179971694946,2,1,3,3,-9.68,0.6,1.43,-0.03,-0.1,-0.13
2.846179962158203,2,1,3,3,-9.68,0.63,1.45,0,-0.1,-0.11
2.85617995262146,2,1,3,3,-9.65,0.63,1.44,0.08,-0.09,-0.09
2.866179943084717,2,1,3,3,-9.66,0.66,1.32,0.13,-0.1,-0.07000000000000001
2.896179914474487,2,1,3,3,-9.67,0.65,1.4,0.17,-0.14,-0.25
2.906180143356323,2,1,3,3,-9.69,0.65,1.46,0.12,-0.12,-0.32
2.91618013381958,2,1,3,3,-9.67,0.6,1.37,0.1,-0.13,-0.35
2.926180124282837,2,1,3,3,-9.66,0.61,1.41,0.17,-0.13,-0.34
2.936180114746094,2,1,3,3,-9.69,0.64,1.44,0.16,-0.12,-0.28
2.946180105209351,2,1,3,3,-9.69,0.59,1.44,0.15,-0.1,-0.23
2.956180095672607,2,1,3,3,-9.720000000000001,0.64,1.38,0.14,-0.1,-0.18
3.016180038452148,2,1,3,3,-9.67,0.7,1.39,0.01,-0.44,-0.1
3.046180009841919,2,1,3,3,-9.68,0.66,1.42,-0.04,-0.44,-0.16
3.056180000305176,2,1,3,3,-9.67,0.67,1.45,-0.07000000000000001,-0.47,-0.26
3.066179990768433,2,1,3,3,-9.65,0.61,1.43,-0.13,-0.46,-0.32
3.076179981231689,2,1,3,3,-9.630000000000001,0.62,1.51,-0.16,-0.51,-0.39
3.086179971694946,2,1,3,3,-9.630000000000001,0.58,1.52,-0.16,-0.47,-0.4
3.096179962158203,2,1,3,3,-9.65,0.5600000000000001,1.57,-0.11,-0.39,-0.33
3.10617995262146,2,1,3,3,-9.699999999999999,0.5600000000000001,1.51,-0.05,-0.29,-0.3
3.116179943084717,2,1,3,3,-9.710000000000001,0.5600000000000001,1.44,0.04,-0.18,-0.25
3.126179933547974,2,1,3,3,-9.699999999999999,0.58,1.46,-0.02,-0.2,-0.16
3.13617992401123,2,1,3,3,-9.699999999999999,0.59,1.57,0.03,-0.18,-0.09
3.146179914474487,2,1,3,3,-9.720000000000001,0.66,1.59,0.06,-0.14,0
3.156180143356323,2,1,3,3,-9.76,0.65,1.52,0.06,-0.2,0.05
3.16618013381958,2,1,3,3,-9.710000000000001,0.66,1.32,0.01,-0.34,0.02
3.196180105209351,2,1,3,3,-9.550000000000001,0.75,1.45,-0.13,-0.53,-0.15
3.226180076599121,2,1,3,3,-9.640000000000001,0.54,1.51,-0.25,-0.19,-0.17
3.256180047988892,2,1,3,3,-9.69,0.45,1.6,-0.25,-0.02,-0.09
3.266180038452148,2,1,3,3,-9.69,0.48,1.53,-0.05,0.04,-0.05
3.276180028915405,2,1,3,3,-9.67,0.51,1.5,0.2,0.04,-0.03
3.286180019378662,2,1,3,3,-9.69,0.53,1.49,0.37,0.09,0.02
3.296180009841919,2,1,3,3,-9.67,0.58,1.44,0.46,0.1,0.05
3.306180000305176,2,1,3,3,-9.66,0.63,1.44,0.46,0.08,0.06
3.316179990768433,2,1,3,3,-9.65,0.61,1.41,0.38,0.09,0.03
3.326179981231689,2,1,3,3,-9.640000000000001,0.65,1.46,0.19,0.01,0.04
3.336179971694946,2,1,3,3,-9.609999999999999,0.63,1.53,0.11,-0.01,0
3.346179962158203,2,1,3,3,-9.630000000000001,0.61,1.52,0.15,-0.05,-0.1
3.35617995262146,2,1,3,3,-9.69,0.59,1.59,0.12,-0.03,-0.18
3.366179943084717,2,1,3,3,-9.69,0.55,1.52,0.08,-0.06,-0.25
3.376179933547974,2,1,3,3,-9.710000000000001,0.54,1.52,-0.02,-0.14,-0.26
3.38617992401123,2,1,3,3,-9.69,0.53,1.52,-0.22,-0.18,-0.25
3.396179914474487,2,1,3,3,-9.66,0.52,1.52,-0.22,-0.2,-0.18
3.406180143356323,2,1,3,3,-9.630000000000001,0.52,1.56,-0.12,-0.13,-0.09
3.41618013381958,2,1,3,3,-9.66,0.54,1.42,0.04,-0.01,-0.04
3.426180124282837,2,1,3,3,-9.699999999999999,0.53,1.49,0.03,0.1,-0.06
3.436180114746094,2,1,3,3,-9.68,0.54,1.53,0.08,0.13,-0.09
3.446180105209351,2,1,3,3,-9.68,0.53,1.52,0.16,0.1,-0.1
3.456180095672607,2,1,3,3,-9.68,0.53,1.48,0.12,0.06,-0.08
3.466180086135864,2,1,3,3,-9.66,0.53,1.44,-0.02,-0.01,-0.08
3.476180076599121,2,1,3,3,-9.68,0.5,1.52,-0.13,-0.12,-0.1
3.486180067062378,2,1,3,3,-9.66,0.54,1.61,-0.1,-0.24,-0.11
3.496180057525635,2,1,3,3,-9.67,0.53,1.63,-0.21,-0.25,-0.12
3.506180047988892,2,1,3,3,-9.67,0.52,1.55,-0.25,-0.25,-0.12
3.516180038452148,2,1,3,3,-9.710000000000001,0.55,1.41,-0.15,-0.26,-0.09
3.526180028915405,2,1,3,3,-9.699999999999999,0.59,1.39,-0.09,-0.19,-0.06
3.556180000305176,2,1,3,3,-9.68,0.62,1.43,0.03,-0.27,-0.01
3.566179990768433,2,1,3,3,-9.65,0.61,1.37,-0.05,-0.2,-0.02
3.576179981231689,2,1,3,3,-9.66,0.6,1.48,-0.14,-0.12,-0.05
3.586179971694946,2,1,3,3,-9.69,0.57,1.53,-0.27,-0.12,-0.03
3.597180128097534,2,1,3,3,-9.69,0.57,1.53,-0.27,-0.12,-0.03
3.60617995262146,2,1,3,3,-9.66,0.55,1.58,-0.28,-0.16,-0.07000000000000001
3.616179943084717,2,1,3,3,-9.710000000000001,0.5600000000000001,1.57,-0.21,-0.37,0.05
3.626179933547974,2,1,3,3,-9.66,0.55,1.52,-0.03,-0.55,0.18
3.637180089950562,2,1,3,3,-9.640000000000001,0.62,1.52,0.23,-0.49,0.22
3.647180080413818,2,1,3,3,-9.640000000000001,0.62,1.52,0.23,-0.49,0.22
3.657180070877075,2,1,3,3,-9.68,0.63,1.48,0.32,-0.3,0.23
3.667180061340332,2,1,3,3,-9.789999999999999,0.77,1.63,-0.02,-0.2,0.19
3.677180051803589,2,1,3,3,-9.630000000000001,0.77,1.37,0.16,-0.28,0.25
3.687180042266846,2,1,3,3,-9.630000000000001,0.77,1.37,0.3,-0.11,0.29
3.697180032730103,2,1,3,3,-9.6,0.8,1.44,0.3,-0.11,0.29
3.707180023193359,2,1,3,3,-9.59,0.83,1.51,0.03,-0.07000000000000001,0.36
3.717180013656616,2,1,3,3,-9.539999999999999,0.83,1.4,0.04,0.19,0.53
3.727180004119873,2,1,3,3,-9.699999999999999,0.88,1.26,-0.25,0.4,0.47
3.73717999458313,2,1,3,3,-9.699999999999999,0.84,1.38,-0.51,0.48,0.37
3.747179985046387,2,1,3,3,-9.630000000000001,0.73,1.44,-0.51,0.48,0.37
3.757179975509644,2,1,3,3,-9.609999999999999,0.6899999999999999,1.55,-0.7,0.52,0.27
3.7671799659729,2,1,3,3,-9.57,0.48,1.61,-0.7,0.42,0.15
3.777179956436157,2,1,3,3,-9.529999999999999,0.42,1.56,-0.54,0.47,0.17
3.787179946899414,2,1,3,3,-9.52,0.35,1.61,-0.31,0.54,0.21
3.797179937362671,2,1,3,3,-9.57,0.3,1.66,-0.31,0.54,0.21
3.807179927825928,2,1,3,3,-9.73,0.31,1.78,0,0.46,0.25
3.817179918289185,2,1,3,3,-9.76,0.31,1.75,0.45,0.14,0.25
3.827179908752441,2,1,3,3,-9.800000000000001,0.4,1.58,0.68,-0.07000000000000001,0.36
3.837180137634277,2,1,3,3,-9.800000000000001,0.46,1.59,0.83,-0.01,0.52
3.847180128097534,2,1,3,3,-9.66,0.53,1.48,0.83,-0.01,0.52
3.857180118560791,2,1,3,3,-9.69,0.54,1.46,0.97,0.21,0.66
3.867180109024048,2,1,3,3,-9.699999999999999,0.59,1.42,0.6899999999999999,0.32,0.77
3.877180099487305,2,1,3,3,-9.720000000000001,0.66,1.32,0.37,0.23,0.78
3.887180089950562,2,1,3,3,-9.73,0.78,1.43,0.28,0.01,0.71
3.897180080413818,2,1,3,3,-9.630000000000001,0.8100000000000001,1.44,0.28,0.01,0.71
3.907180070877075,2,1,3,3,-9.58,0.8,1.47,0.2,-0.03,0.67
3.917180061340332,2,1,3,3,-9.550000000000001,0.83,1.59,0.12,-0.04,0.64
3.927180051803589,2,1,3,3,-9.529999999999999,0.77,1.48,0.3,0.02,0.71
3.937180042266846,2,1,3,3,-9.6,0.78,1.44,0.49,0.17,0.79
3.947180032730103,2,1,3,3,-9.630000000000001,0.85,1.42,0.49,0.17,0.79
3.957180023193359,2,1,3,3,-9.720000000000001,0.92,1.37,0.48,0.29,0.91
3.967180013656616,2,1,3,3,-9.69,0.95,1.29,0.54,0.55,1.06
3.977180004119873,2,1,3,3,-9.69,0.96,1.24,0.48,0.68,1.14
3.98717999458313,2,1,3,3,-9.699999999999999,0.95,1.3,0.44,0.73,1.08
3.997179985046387,2,1,3,3,-9.609999999999999,1,1.37,0.44,0.73,1.08
4.007179975509644,2,1,3,3,-9.539999999999999,1,1.29,0.65,0.87,0.97
4.0171799659729,2,1,3,3,-9.58,1,1.24,0.87,1.12,0.62
4.027179956436157,2,1,3,3,-9.65,0.99,1.26,0.76,0.97,0.05
4.037179946899414,2,1,3,3,-9.56,0.83,1.43,0.5600000000000001,0.82,0.1
4.047179937362671,2,1,3,3,-9.51,0.79,1.41,0.5600000000000001,0.82,0.1
4.057179927825928,2,1,3,3,-9.48,0.76,1.49,0.3,1.02,0.18
4.067179918289185,2,1,3,3,-9.470000000000001,0.76,1.49,-0.01,1.16,0.35
4.077179908752441,2,1,3,3,-9.609999999999999,0.7,1.34,0,1.2,0.48
4.087180137634277,2,1,3,3,-9.65,0.6899999999999999,1.42,0.12,1.12,0.48
4.097180128097534,2,1,3,3,-9.640000000000001,0.62,1.46,0.21,0.87,0.43
4.107180118560791,2,1,3,3,-9.619999999999999,0.63,1.55,0.45,0.84,0.41
4.117180109024048,2,1,3,3,-9.76,0.6,1.45,0.73,0.88,0.36
4.127180099487305,2,1,3,3,-9.869999999999999,0.64,1.34,1.22,0.95,0.27
4.137180089950562,2,1,3,3,-10.01,0.68,1.29,1.33,1.01,0.28
4.147180080413818,2,1,3,3,-10.04,0.73,1.32,1.25,1.04,0.41
4.157180070877075,2,1,3,3,-9.970000000000001,0.79,1.33,1.07,1.01,0.62
4.167180061340332,2,1,3,3,-9.94,0.83,1.33,1.03,1.02,0.83
4.177180051803589,2,1,3,3,-9.869999999999999,0.88,1.34,0.92,0.9,1.01
4.187180042266846,2,1,3,3,-9.720000000000001,0.91,1.28,0.75,0.8,1.31
4.197180032730103,2,1,3,3,-9.619999999999999,0.9399999999999999,1.26,0.67,0.76,1.46
4.207180023193359,2,1,3,3,-9.619999999999999,0.95,1.29,0.76,0.79,1.55
4.217180013656616,2,1,3,3,-9.69,1.04,1.31,0.62,0.77,1.57
4.227180004119873,2,1,3,3,-9.630000000000001,1.06,1.07,0.31,0.58,1.5
4.247179985046387,2,1,3,3,-9.74,1.03,1.09,0.17,0.4,1.26
4.257179975509644,2,1,3,3,-9.82,1.03,1.19,-0.13,0.35,1.12
4.277179956436157,2,1,3,3,-9.720000000000001,0.97,1.1,-0.23,0.03,0.92
4.287179946899414,2,1,3,3,-9.66,0.9,1.12,-0.21,-0.1,0.91
4.297179937362671,2,1,3,3,-9.59,0.91,1.13,-0.15,-0.23,0.97
4.307179927825928,2,1,3,3,-9.609999999999999,0.89,1.28,-0.12,-0.21,0.9399999999999999
4.317179918289185,2,1,3,3,-9.59,0.96,1.29,-0.11,-0.26,0.91
4.327179908752441,2,1,3,3,-9.57,0.99,1.15,0.03,-0.42,0.88
4.337180137634277,2,1,3,3,-9.58,1,1.09,0.2,-0.42,0.84
4.347180128097534,2,1,3,3,-9.65,1.09,0.99,0.16,-0.23,0.84
4.357180118560791,2,1,3,3,-9.65,1.12,0.96,0.16,-0.18,0.84
4.367180109024048,2,1,3,3,-9.69,1.15,1.02,0.05,-0.18,0.8
4.377180099487305,2,1,3,3,-9.68,1.24,1.04,-0.06,-0.34,0.77
4.387180089950562,2,1,3,3,-9.380000000000001,1.39,1.05,-0.07000000000000001,-0.73,0.66
4.397180080413818,2,1,3,3,-9.32,1.41,1.13,-0.01,-0.91,0.51
4.407180070877075,2,1,3,3,-9.279999999999999,1.36,1.15,-0.05,-0.76,0.31
4.417180061340332,2,1,3,3,-9.289999999999999,1.24,1.18,0,-0.61,0.2
4.427180051803589,2,1,3,3,-9.359999999999999,1.23,1.36,-0.17,-0.3,0.12
4.437180042266846,2,1,3,3,-9.43,1.28,1.54,-0.31,-0.25,0.17
4.447180032730103,2,1,3,3,-9.300000000000001,1.24,1.45,-0.23,-0.55,0.42
4.457180023193359,2,1,3,3,-9.4,1.37,1.29,0.32,-0.42,0.77
4.467180013656616,2,1,3,3,-9.48,1.44,1.22,0.5600000000000001,0.15,1.07
4.477180004119873,2,1,3,3,-9.49,1.5,1.03,0.57,0.46,1.46
4.48717999458313,2,1,3,3,-9.52,1.59,0.96,0.59,0.5600000000000001,1.8
4.497179985046387,2,1,3,3,-9.42,1.68,1.27,0.2,0.57,1.99
4.507179975509644,2,1,3,3,-9.26,1.66,1.31,-0.23,0.33,2.02
4.5171799659729,2,1,3,3,-9.09,1.56,1.31,-0.29,-0.05,1.89
4.527179956436157,2,1,3,3,-9.050000000000001,1.53,1.28,-0.16,-0.02,1.73
4.537179946899414,2,1,3,3,-9.07,1.66,1.51,-0.16,0.22,1.56
4.547179937362671,2,1,3,3,-8.859999999999999,1.63,1.32,-0.18,0.03,1.52
4.557179927825928,2,1,3,3,-8.68,1.61,1.15,-0.07000000000000001,0.07000000000000001,1.56
4.567179918289185,2,1,3,3,-8.66,1.6,1.17,-0.04,0.57,1.62
4.577179908752441,2,1,3,3,-8.48,1.63,1.07,-0.13,0.78,1.86
4.587180137634277,2,1,3,3,-8.26,1.66,0.91,0.19,0.86,2.24
4.597180128097534,2,1,3,3,-7.99,1.76,0.77,0.87,1.08,2.7
4.607180118560791,2,1,3,3,-7.82,1.85,0.5,1.04,1.58,3.14
4.617180109024048,2,1,3,3,-7.5,1.67,0.61,0.62,2.01,3.51
4.627180099487305,2,1,3,3,-7.51,1.61,0.98,-0.47,2.21,3.93
4.637180089950562,2,1,3,3,-7.33,1.66,1.06,-0.79,1.82,4.27
4.647180080413818,2,1,3,3,-7.11,1.3,0.48,-0.1,1.41,4.61
4.658179998397827,2,1,3,3,-7.09,1,0.41,0.35,1.33,4.45
4.668179988861084,2,1,3,3,-7.14,0.76,0.67,0.6,1.53,4.09
4.678179979324341,2,1,3,3,-7.03,0.44,0.8,0.18,1.56,3.66
4.688179969787598,2,1,3,3,-6.71,0.34,0.97,-0.1,1.26,3.41
4.698179960250854,2,1,3,3,-6.96,0.5600000000000001,1.18,0.3,1.16,2.98
4.708179950714111,2,1,3,3,-7.11,0.6899999999999999,0.84,1.22,0.44,2.36
4.718179941177368,2,1,3,3,-7.26,0.75,0.71,2.05,0,1.46
4.728179931640625,2,1,3,3,-8.460000000000001,0.87,1.18,1.91,0.65,0.25
4.758180141448975,2,1,3,3,-10.89,1.78,1.83,0.86,0.75,-2.59
4.768180131912231,2,1,3,3,-12.3,2.06,1.37,0.54,0.21,-3.04
4.778180122375488,2,1,3,3,-13.02,1.94,1.05,0.93,-0.34,-3.26
4.788180112838745,2,1,3,3,-13.45,1.98,0.74,1.33,-0.68,-3.19
4.798180103302002,2,1,3,3,-13.39,1.92,0.5600000000000001,1.5,-0.37,-2.65
4.808180093765259,2,1,3,3,-12.57,2.09,0.31,1.05,0.54,-1.52
4.818180084228516,2,1,3,3,-11.92,2.23,0.16,0.37,0.76,-0.31
4.828180074691772,2,1,3,3,-11.39,2.11,0.05,-0.9,0.19,0.72
4.838180065155029,2,1,3,3,-10.51,1.96,0.59,-2.15,-0.24,1.2
4.848180055618286,2,1,3,3,-9.94,1.85,0.88,-2.4,-1.12,1.33
4.858180046081543,2,1,3,3,-9.5,1.82,1.23,-1.97,-2.1,1.22
4.8681800365448,2,1,3,3,-9.109999999999999,1.57,1.24,-1.24,-2.27,1.09
4.878180027008057,2,1,3,3,-8.869999999999999,1.38,0.98,0.11,-1.67,0.89
4.888180017471313,2,1,3,3,-8.869999999999999,1.37,1.11,0.8100000000000001,-0.67,0.64
4.89818000793457,2,1,3,3,-9,1.5,1.16,0.85,0.03,0.51
4.908179998397827,2,1,3,3,-9.1,1.66,1.15,0.44,0.22,0.73
4.918179988861084,2,1,3,3,-9.630000000000001,1.84,1.14,-0.09,0.2,1.15
4.928179979324341,2,1,3,3,-9.800000000000001,1.83,0.8100000000000001,-0.47,-0.18,1.67
4.938179969787598,2,1,3,3,-9.9,1.88,0.66,0,-0.72,2.24
4.948179960250854,2,1,3,3,-10.04,1.71,0.59,0.39,-0.72,2.56
4.958179950714111,2,1,3,3,-10.15,1.5,1.03,-0.33,-0.26,2.56
4.968179941177368,2,1,3,3,-10.17,1.56,1.13,-1.18,0.16,2.3
4.978179931640625,2,1,3,3,-10.23,1.58,1.04,-1.92,0.31,2.07
4.988179922103882,2,1,3,3,-10.22,1.68,1.16,-2.45,0.33,1.77
4.998179912567139,2,1,3,3,-10.27,1.8,1.54,-2.47,0.21,1.19
5.008180141448975,2,1,3,3,-10.33,1.91,1.57,-2.36,-0.26,0.36
5.018180131912231,2,1,3,3,-10.35,1.89,1.58,-1.96,-0.07000000000000001,-0.35
5.028180122375488,2,1,3,3,-10.59,1.83,1.56,-2.01,0.41,-0.93
5.038180112838745,2,1,3,3,-11.06,1.73,1.47,-2.11,0.63,-1.15
5.048180103302002,2,1,3,3,-11.32,1.76,1.3,-2.09,0.47,-1.13
5.058180093765259,2,1,3,3,-11.55,1.74,1.31,-2.13,0.32,-1
5.068180084228516,2,1,3,3,-11.76,1.78,1.32,-2.27,0.18,-0.92
5.078180074691772,2,1,3,3,-11.65,1.76,1.22,-2.41,-0.07000000000000001,-0.9
5.088180065155029,2,1,3,3,-11.45,1.7,1.25,-2.42,-0.2,-0.79
5.098180055618286,2,1,3,3,-11.21,1.58,1.25,-2.31,-0.23,-0.61
5.108180046081543,2,1,3,3,-10.66,1.55,1.38,-2.09,-0.34,-0.38
5.1181800365448,2,1,3,3,-10.28,1.56,1.36,-1.74,-0.6,-0.08
5.128180027008057,2,1,3,3,-9.85,1.73,1.11,-0.92,-0.91,0.31
5.138180017471313,2,1,3,3,-9.5,1.83,0.98,0.68,-0.74,0.82
5.14818000793457,2,1,3,3,-9.06,1.86,1.23,1.41,-0.16,1.23
5.158179998397827,2,1,3,3,-8.74,1.85,1.23,1.23,0.09,1.46
5.168179988861084,2,1,3,3,-8.539999999999999,1.89,1.21,1.01,-0.1,1.59
5.178179979324341,2,1,3,3,-8.359999999999999,1.82,1.13,1,-0.19,1.62
5.188179969787598,2,1,3,3,-8.140000000000001,1.75,1.19,0.92,-0.27,1.48
5.198179960250854,2,1,3,3,-8.029999999999999,1.61,1.2,0.8,-0.26,1.27
5.208179950714111,2,1,3,3,-8,1.55,1.13,0.66,-0.39,1.07
5.218179941177368,2,1,3,3,-8.09,1.56,1.17,0.82,-0.4,0.83
5.228179931640625,2,1,3,3,-8.130000000000001,1.43,0.91,0.92,-0.5,0.73
5.238179922103882,2,1,3,3,-8.27,1.45,0.97,1.02,-0.49,0.61
5.248179912567139,2,1,3,3,-8.529999999999999,1.45,1.12,0.95,-0.1,0.43
5.258180141448975,2,1,3,3,-8.69,1.5,1.07,0.84,0.17,0.21
5.268180131912231,2,1,3,3,-9.220000000000001,1.71,1.03,1.21,0.15,0.06
5.278180122375488,2,1,3,3,-9.550000000000001,1.74,0.97,1.32,0.3,-0.08
5.288180112838745,2,1,3,3,-9.699999999999999,1.82,0.99,0.9399999999999999,0.71,-0.31
5.298180103302002,2,1,3,3,-9.859999999999999,1.85,1.08,0.6,0.8,-0.58
5.308180093765259,2,1,3,3,-9.949999999999999,1.84,1.16,0.14,0.62,-0.75
5.318180084228516,2,1,3,3,-10.16,1.84,1.24,-0.5600000000000001,0.5,-0.86
5.328180074691772,2,1,3,3,-10.55,1.83,1.48,-1.27,0.32,-1.07
5.338180065155029,2,1,3,3,-11.21,1.89,1.78,-1.7,-0.1,-1.41
5.348180055618286,2,1,3,3,-11.72,1.82,1.94,-1.97,-0.64,-1.73
5.358180046081543,2,1,3,3,-12.34,1.67,2.08,-2.15,-0.7,-2.2
5.3681800365448,2,1,3,3,-12.74,1.62,2.13,-2.16,-0.13,-2.62
5.378180027008057,2,1,3,3,-13.95,1.43,2.07,-1.73,0.73,-2.84
5.388180017471313,2,1,3,3,-14.72,1.32,2.06,-1.75,1.92,-2.84
5.39818000793457,2,1,3,3,-15.36,1.16,2.35,-2.39,2.79,-2.7
5.408179998397827,2,1,3,3,-15.36,1.16,2.35,-3.03,2.05,-2.04
5.418179988861084,2,1,3,3,-16.53,1.25,3.08,-3.03,2.05,-2.04
5.428179979324341,2,1,3,3,-20.78,0.68,4.54,-2.51,1.16,-2.12
5.438179969787598,2,1,3,3,-21.83,0.47,4.08,0.22,0.65,-2.75
5.448179960250854,2,1,3,3,-23.35,0.4,3.91,1.1,2.75,-2.85
5.458179950714111,2,1,3,3,-23.35,0.4,3.91,1.47,3.81,-1.58
5.468179941177368,2,1,3,3,-26,0.61,2.7,1.42,3.71,0.34
5.478179931640625,2,1,3,3,-26.09,0.82,2.22,1.85,2.13,1.46
5.488179922103882,2,1,3,3,-25.25,1.36,1.88,2.55,0.03,1.44
5.498179912567139,2,1,3,3,-21.28,2.89,1.44,2.08,-0.51,0.73
5.508180141448975,2,1,3,3,-21.28,2.89,1.44,1.32,0.38,0.44
5.518180131912231,2,1,3,3,-19.37,3.21,1.52,1.32,0.38,0.44
5.528180122375488,2,1,3,3,-12.48,4.19,1.33,3.46,2.08,2.15
5.538180112838745,2,1,3,3,-10.81,4.67,0.95,5.62,2.24,3.6
5.548180103302002,2,1,3,3,-9.02,5.45,0.25,7.6,2.86,4.82
5.558180093765259,2,1,3,3,-9.02,5.45,0.25,7.58,2.64,5.52
5.568180084228516,2,1,3,3,-7.9,5.43,-0.75,6.19,0.43,5.66
5.578180074691772,2,1,3,3,-4.23,4.97,-1.84,3.04,-2.84,5.9
5.588180065155029,2,1,3,3,-2.05,4.64,-1.25,-0.07000000000000001,-5.35,6.14
5.598180055618286,2,1,3,3,0.84,4.67,-0.54,-1.13,-6.18,6.39
5.608180046081543,2,1,3,3,0.84,4.67,-0.54,-0.42,-4.52,6.53
5.6181800365448,2,1,3,3,4.53,4.31,0.44,2.31,-2.03,5.9
5.628180027008057,2,1,3,3,4.52,3.28,-1.64,5.76,-0.62,5.17
5.638180017471313,2,1,3,3,3.81,2.07,-2.65,7.8,0.49,3.79
5.64818000793457,2,1,3,3,1.78,0.37,-1.74,6.96,1.04,2.11
5.658179998397827,2,1,3,3,1.78,0.37,-1.74,6.96,1.04,2.11
5.668179988861084,2,1,3,3,0.62,-0.64,-1.36,3.62,0.65,0.13
5.678179979324341,2,1,3,3,0.09,-1.38,-1.1,-3.04,0.31,-3.67
5.689180135726929,2,1,3,3,0.08,-1.29,-0.71,-6.19,0.13,-5.23
5.699180126190186,2,1,3,3,-0.2,-0.95,0.76,-7.54,-1.49,-6.21
5.709180116653442,2,1,3,3,-0.42,-0.7,1.09,-7.54,-1.49,-6.21
5.719180107116699,2,1,3,3,-0.2,-0.31,1,-6.14,-3.07,-6.41
5.729180097579956,2,1,3,3,0.04,-0.23,1,-1.47,-2.34,-5.34
5.739180088043213,2,1,3,3,0.23,-0.29,0.68,-0.22,-0.39,-4.73
5.74918007850647,2,1,3,3,0.07000000000000001,-0.49,0.5600000000000001,0.36,1.48,-3.82
5.759180068969727,2,1,3,3,-0.37,-0.64,0.48,0.36,1.48,-3.82
5.769180059432983,2,1,3,3,-1.03,-0.77,0.26,0.7,2.87,-3.02
5.77918004989624,2,1,3,3,-1.04,-0.74,0.11,1.11,3.49,-0.83
5.789180040359497,2,1,3,3,-1.11,-0.71,0.11,1.08,3.04,-0.03
5.799180030822754,2,1,3,3,-1.15,-0.82,0.13,1.47,1.68,0.61
5.809180021286011,2,1,3,3,-0.17,-0.82,-0.38,1.47,1.68,0.61
5.819180011749268,2,1,3,3,0.22,-0.64,-0.11,1.78,0.17,1.3
5.839179992675781,2,1,3,3,0.79,-0.88,-0.16,3.85,-5.95,2.67
5.849179983139038,2,1,3,3,0.63,-0.39,0.34,5.16,-7.11,2.85
5.859179973602295,2,1,3,3,0.91,-0.13,-0.23,5.16,-7.11,2.85
5.869179964065552,2,1,3,3,1.11,0.22,-0.82,7.34,-6.55,2.62
5.879179954528809,2,1,3,3,0.52,0.54,-0.66,8.220000000000001,-3.33,0.38
5.889179944992065,2,1,3,3,-1.15,2.32,-0.39,8.65,-1.24,-0.83
5.899179935455322,2,1,3,3,-1.3,2.92,-0.91,7.94,0.87,-2.19
5.909179925918579,2,1,3,3,-1.86,4.24,-0.27,7.94,0.87,-2.19
5.919179916381836,2,1,3,3,-4.25,6.15,1.63,4.03,0.23,-3.67
5.929180145263672,2,1,3,3,-8.470000000000001,10.5,-1.07,5.22,-4.25,-8.35
5.939180135726929,2,1,3,3,-12.9,13.86,-0.18,-4.76,-3.39,-14.19
5.949180126190186,2,1,3,3,-20.51,16.42,1.85,-19.04,-1.22,-23.97
5.959180116653442,2,1,3,3,-25.6,17.56,0.72,-19.04,-1.22,-23.97
5.969180107116699,2,1,3,3,-28.08,5.55,-2.97,-39.17,12.19,-31.62
5.979180097579956,2,1,3,3,-37.31,-9.18,1.42,-38.8,-16.86,-13.72
5.989180088043213,2,1,3,3,-39.25,-16.34,5.39,-10.39,-3.75,-5.95
5.99918007850647,2,1,3,3,-31.85,-11.52,4.78,10.41,8.73,-0.33
6.009180068969727,2,1,3,3,-19.79,-4.12,7.86,10.41,8.73,-0.33
6.019180059432983,2,1,3,3,-13.04,-2.29,6.28,11.79,2.15,4.55
6.02918004989624,2,1,3,3,-10.42,-1.66,5.55,9.67,0.62,2.12
6.039180040359497,2,1,3,3,-12.64,-1.95,3.13,5.29,2.01,-1.53
6.049180030822754,2,1,3,3,-15.99,-2.84,2.06,2.88,0.82,-3.1
6.059180021286011,2,1,3,3,-18.56,-2.56,1.56,2.88,0.82,-3.1
6.069180011749268,2,1,3,3,-18.6,-1.59,1.64,2.88,-3.06,-1.78
6.079180002212524,2,1,3,3,-16.79,0.59,2.41,1.89,-3.96,0.34
6.089179992675781,2,1,3,3,-16.05,0.64,2.56,0.61,-0.95,2.3
6.099179983139038,2,1,3,3,-15.24,0.23,2.16,0.29,2.6,2.78
6.109179973602295,2,1,3,3,-14.81,0.25,1.75,0.02,3.66,2.74
6.119179964065552,2,1,3,3,-13.55,-0.33,1.61,-0.96,2.25,2.41
6.129179954528809,2,1,3,3,-13.16,-0.04,1.77,-1.01,0.07000000000000001,2.02
6.139179944992065,2,1,3,3,-11.6,-0.27,1.99,0.68,-2.37,1.85
6.149179935455322,2,1,3,3,-10.04,-0.6899999999999999,1.86,3.02,-3.86,1.32
6.159179925918579,2,1,3,3,-8,-0.48,1.74,5.7,-3.69,0.27
6.169179916381836,2,1,3,3,-7.1,-0.04,1.53,7.86,-2.43,-0.63
6.179180145263672,2,1,3,3,-6.91,0.54,1.19,9.130000000000001,-0.15,-1.13
6.189180135726929,2,1,3,3,-6.71,1.39,0.75,9.07,1.81,-0.9
6.199180126190186,2,1,3,3,-7.5,2.45,-0.15,8.02,2.64,0.34
6.209180116653442,2,1,3,3,-7.99,2.57,-0.28,6.35,1.83,1.7
6.219180107116699,2,1,3,3,-8.06,2.56,-0.18,4.58,0.6899999999999999,2.42
6.229180097579956,2,1,3,3,-7,2.67,0.28,2.98,-0.54,2.95
6.239180088043213,2,1,3,3,-6.23,2.3,0.27,1.54,-1.31,3.36
6.24918007850647,2,1,3,3,-5.44,1.9,0.23,0.45,-1.16,3.4
6.259180068969727,2,1,3,3,-5.05,1.61,0.38,-0.47,-0.18,3.27
6.269180059432983,2,1,3,3,-5.38,1.21,0.7,-1.06,1.16,2.78
6.27918004989624,2,1,3,3,-6.03,1.15,0.79,-1.34,2.11,1.86
6.289180040359497,2,1,3,3,-6.53,1.38,0.84,-0.93,2.17,0.5600000000000001
6.299180030822754,2,1,3,3,-7.04,1.49,0.86,-0.44,1.45,-0.8100000000000001
6.309180021286011,2,1,3,3,-8.26,1.51,0.66,0.45,0.6899999999999999,-2.05
6.319180011749268,2,1,3,3,-9.01,1.44,0.78,1.18,0.36,-3
6.329180002212524,2,1,3,3,-9.789999999999999,1.29,0.9399999999999999,1.26,0.45,-3.67
6.339179992675781,2,1,3,3,-10.27,1.21,0.83,1.66,0.34,-4.05
6.349179983139038,2,1,3,3,-10.68,1.16,0.57,2.12,-0.15,-3.98
6.359179973602295,2,1,3,3,-10.56,0.98,0.48,1.91,-0.82,-3.65
6.369179964065552,2,1,3,3,-10.49,0.84,0.58,0.85,-1.62,-3.18
6.379179954528809,2,1,3,3,-10.56,0.67,0.84,-0.5,-2.42,-2.69
6.389179944992065,2,1,3,3,-10.28,0.28,1.19,-1.36,-3.17,-1.98
6.399179935455322,2,1,3,3,-10.05,0.16,1.47,-1.6,-3.68,-1.31
6.409179925918579,2,1,3,3,-9.85,0.09,1.65,-1.2,-3.9,-0.93
6.419179916381836,2,1,3,3,-9.779999999999999,0.09,1.75,-0.12,-3.54,-0.79
6.429180145263672,2,1,3,3,-9.74,0.27,1.56,0.97,-2.6,-0.72
6.439180135726929,2,1,3,3,-9.73,0.33,1.22,1.51,-1.33,-0.51
6.449180126190186,2,1,3,3,-9.65,0.41,1.09,1.42,-0.24,-0.27
6.459180116653442,2,1,3,3,-9.35,0.53,1.14,0.68,0.25,0.12
6.469180107116699,2,1,3,3,-9.199999999999999,0.63,1.22,-0.32,0.37,0.65
6.479180097579956,2,1,3,3,-9.15,0.66,1.31,-1.15,0.49,1.08
6.489180088043213,2,1,3,3,-9.18,0.7,1.33,-1.62,0.65,1.32
6.49918007850647,2,1,3,3,-9.470000000000001,0.63,1.54,-1.66,0.85,1.4
6.509180068969727,2,1,3,3,-9.6,0.5600000000000001,1.53,-1.32,1.02,1.27
6.519180059432983,2,1,3,3,-9.65,0.44,1.49,-0.88,1.29,1.15
6.52918004989624,2,1,3,3,-9.68,0.44,1.43,-0.5600000000000001,1.62,1.18
6.539180040359497,2,1,3,3,-9.57,0.54,1.12,-0.2,1.87,1.46
6.549180030822754,2,1,3,3,-9.550000000000001,0.66,0.98,0.02,1.85,1.85
6.559180021286011,2,1,3,3,-9.550000000000001,0.87,0.96,0.23,1.59,2.05
6.569180011749268,2,1,3,3,-9.619999999999999,1.02,0.74,0.2,1.14,2.05
6.579180002212524,2,1,3,3,-9.4,1.31,0.5600000000000001,0.28,0.57,1.82
6.589179992675781,2,1,3,3,-9.33,1.33,0.58,-0.32,0.2,1.42
6.599179983139038,2,1,3,3,-9.220000000000001,1.38,0.82,-1.14,-0.12,1.03
6.609179973602295,2,1,3,3,-9.119999999999999,1.38,1.03,-1.71,-0.46,0.74
6.619179964065552,2,1,3,3,-9.23,1.24,1.35,-2.22,-0.52,0.42
6.629179954528809,2,1,3,3,-9.220000000000001,1.21,1.41,-2.58,-0.51,0.1
6.639179944992065,2,1,3,3,-9.19,1.11,1.29,-2.43,-0.62,-0.17
6.649179935455322,2,1,3,3,-9.26,1.06,1.34,-2.02,-0.62,-0.41
6.659179925918579,2,1,3,3,-9.550000000000001,0.85,1.5,-1.93,-0.67,-0.71
6.669179916381836,2,1,3,3,-9.57,0.83,1.41,-1.73,-0.79,-0.93
6.679180145263672,2,1,3,3,-9.66,0.78,1.32,-1.58,-0.72,-0.98
6.689180135726929,2,1,3,3,-9.73,0.7,1.14,-1.64,-0.4,-0.86
6.699180126190186,2,1,3,3,-9.720000000000001,0.65,1.2,-1.68,-0.14,-0.62
6.710180044174194,2,1,3,3,-9.789999999999999,0.62,1.34,-1.49,0.1,-0.33
6.720180034637451,2,1,3,3,-9.93,0.57,1.5,-1.44,0.18,-0.08
6.730180025100708,2,1,3,3,-9.94,0.58,1.42,-1.51,0.13,0.08
6.740180015563965,2,1,3,3,-9.890000000000001,0.55,1.38,-1.46,0.13,0.16
6.750180006027222,2,1,3,3,-9.85,0.57,1.5,-1.44,0.26,0.2
6.760179996490479,2,1,3,3,-9.85,0.58,1.61,-1.43,0.19,0.29
6.770179986953735,2,1,3,3,-9.91,0.6,1.61,-1.33,0.02,0.4
6.780179977416992,2,1,3,3,-9.94,0.5600000000000001,1.6,-1.2,-0.14,0.5
6.790179967880249,2,1,3,3,-9.92,0.55,1.61,-1.2,-0.27,0.51
6.800179958343506,2,1,3,3,-9.77,0.51,1.67,-1.24,-0.44,0.53
6.810179948806763,2,1,3,3,-9.51,0.47,1.76,-0.93,-0.5600000000000001,0.53
6.82017993927002,2,1,3,3,-9.619999999999999,0.5,1.82,-0.55,-0.43,0.59
6.830179929733276,2,1,3,3,-9.68,0.52,1.74,-0.22,-0.49,0.58
6.840179920196533,2,1,3,3,-9.68,0.59,1.57,0.15,-0.55,0.65
6.85017991065979,2,1,3,3,-9.74,0.79,1.61,0.3,-0.38,0.8100000000000001
6.860180139541626,2,1,3,3,-9.74,0.9399999999999999,1.73,0.18,-0.23,1.04
6.870180130004883,2,1,3,3,-9.73,1.06,1.86,-0.06,-0.39,1.31
6.88018012046814,2,1,3,3,-9.800000000000001,1.04,1.74,-0.67,-0.76,1.49
6.890180110931396,2,1,3,3,-9.69,1.14,1.15,-0.76,-1.03,1.38
6.900180101394653,2,1,3,3,-9.59,1.1,1.22,-0.58,-1.06,1.16
6.91018009185791,2,1,3,3,-9.41,1.05,1.17,-0.76,-1.22,1.21
6.920180082321167,2,1,3,3,-9.369999999999999,2.5,0.21,-0.46,-1.09,1.55
6.930180072784424,2,1,3,3,-8.640000000000001,2.44,0.36,-0.5600000000000001,-3.25,1.35
6.940180063247681,2,1,3,3,-8.74,1.96,0.67,-4.17,-7.57,0.55
6.950180053710938,2,1,3,3,-8.970000000000001,1.94,1.03,-6.08,-7.33,-0.15
6.960180044174194,2,1,3,3,-8.98,1.93,1.02,-6.24,-5.55,-0.47
6.970180034637451,2,1,3,3,-9.01,1.73,1.24,-7.35,-3.21,-0.54
6.980180025100708,2,1,3,3,-9.220000000000001,1.11,1.45,-8.039999999999999,-0.44,-0.6
6.990180015563965,2,1,3,3,-9.619999999999999,0.64,1.81,-7.68,2.35,-0.48
7.000180006027222,2,1,3,3,-10.22,-0.11,2.51,-6.19,4.39,-0.46
7.010179996490479,2,1,3,3,-10.6,-0.37,2.53,-3.42,5.84,-0.47
7.020179986953735,2,1,3,3,-10.77,0.25,2.41,0.8,6.26,-0.12
7.030179977416992,2,1,3,3,-10.99,0.14,2.03,4.44,5.61,0.5600000000000001
7.040179967880249,2,1,3,3,-10.76,0.82,1.34,6.39,3.7,1.21
7.050179958343506,2,1,3,3,-9.27,1.29,0.62,7.5,1.36,2.25
7.060179948806763,2,1,3,3,-9.02,1.02,0.48,7.72,0.16,2.94
7.07017993927002,2,1,3,3,-8.98,1.38,0.72,7.9,1.94,3.26
7.080179929733276,2,1,3,3,-9.050000000000001,1.93,0.59,6.84,2.95,2.97
7.090179920196533,2,1,3,3,-9.4,1.38,0.6899999999999999,3.21,2.24,1.99
7.10017991065979,2,1,3,3,-9.68,1.2,1.19,0.15,1.06,0.97
7.110180139541626,2,1,3,3,-9.94,1.21,1.32,0.12,0.4,0.27
7.120180130004883,2,1,3,3,-9.73,0.99,1.39,0.26,-0.17,-0.1
7.13018012046814,2,1,3,3,-9.640000000000001,0.93,1.47,0.36,-0.39,-0.21
7.140180110931396,2,1,3,3,-9.56,0.96,1.39,0.54,-0.28,-0.24
7.150180101394653,2,1,3,3,-9.41,1.09,1.38,0.68,-0.19,-0.08
7.16018009185791,2,1,3,3,-9.32,1.2,1.27,0.74,-0.3,0.12
7.170180082321167,2,1,3,3,-9.289999999999999,1.31,1.29,0.85,-0.58,0.28
7.190180063247681,2,1,3,3,-9.460000000000001,1.55,1.14,0.44,-1.06,0.23
7.200180053710938,2,1,3,3,-9.74,1.55,1.36,0.55,-0.8,-0.05
7.210180044174194,2,1,3,3,-9.75,1.52,1.38,0.2,-0.51,-0.43
7.220180034637451,2,1,3,3,-9.640000000000001,1.52,1.28,0.11,-0.54,-0.71
7.230180025100708,2,1,3,3,-9.67,1.47,1.36,0.2,-0.14,-0.8
7.240180015563965,2,1,3,3,-9.73,1.36,1.33,-0.01,0.38,-0.71
7.250180006027222,2,1,3,3,-9.74,1.32,1.29,-0.13,0.6,-0.48
7.260179996490479,2,1,3,3,-9.74,1.3,1.26,-0.08,0.71,-0.11
7.270179986953735,2,1,3,3,-9.84,1.29,1.25,-0.26,0.6899999999999999,0.16
7.280179977416992,2,1,3,3,-9.869999999999999,1.34,1.24,-0.47,0.32,0.36
7.290179967880249,2,1,3,3,-9.859999999999999,1.35,1.2,-0.53,-0.24,0.34
7.300179958343506,2,1,3,3,-9.779999999999999,1.32,1.24,-0.52,-0.61,0.17
7.310179948806763,2,1,3,3,-9.57,1.2,1.33,-0.54,-0.83,-0.11
7.32017993927002,2,1,3,3,-9.470000000000001,1.16,1.48,-0.66,-0.85,-0.37
7.330179929733276,2,1,3,3,-9.369999999999999,1.09,1.6,-0.79,-0.71,-0.47
7.340179920196533,2,1,3,3,-9.26,1.04,1.52,-0.87,-0.59,-0.4
7.35017991065979,2,1,3,3,-9.119999999999999,1.02,1.39,-0.62,-0.35,-0.19
7.360180139541626,2,1,3,3,-9.16,0.98,1.48,-0.3,0.06,0.06
7.370180130004883,2,1,3,3,-9.210000000000001,0.97,1.5,-0.22,0.47,0.31
7.38018012046814,2,1,3,3,-9.210000000000001,0.97,1.5,-0.13,0.58,0.5
7.390180110931396,2,1,3,3,-9.800000000000001,0.93,1.28,0.25,0.67,0.49
7.400180101394653,2,1,3,3,-10.11,0.97,1.4,0.49,0.88,0.31
7.41018009185791,2,1,3,3,-10.27,1.01,1.46,0.35,0.91,0.04
7.420180082321167,2,1,3,3,-10.27,1.01,1.46,0.21,0.53,-0.17
7.430180072784424,2,1,3,3,-9.960000000000001,0.98,1.18,0.22,0.11,-0.12
7.440180063247681,2,1,3,3,-9.65,1.04,1.07,0.45,0.1,0.13
7.450180053710938,2,1,3,3,-9.59,1.05,1.28,0.36,0.25,0.5
7.460180044174194,2,1,3,3,-9.08,1.14,1.24,0.31,0.2,0.9
7.470180034637451,2,1,3,3,-8.9,1.23,1.18,1.53,0.75,1.7
7.490180015563965,2,1,3,3,-8.56,1.36,0.9399999999999999,1.98,1.07,1.89
7.500180006027222,2,1,3,3,-8.550000000000001,1.69,0.82,2.96,1.28,1.91
7.510179996490479,2,1,3,3,-8.66,1.84,0.93,2.83,1.23,1.65
7.520179986953735,2,1,3,3,-8.720000000000001,2.08,0.9,2.7,0.87,1.44
7.530179977416992,2,1,3,3,-8.65,2.25,0.6899999999999999,2.6,0.48,1.42
7.540179967880249,2,1,3,3,-8.16,2.33,0.35,2.06,0.18,1.65
7.550179958343506,2,1,3,3,-7.81,2.4,0.44,1.31,0.22,2.03
7.560179948806763,2,1,3,3,-7.48,2.44,0.57,0.63,0.33,2.59
7.57017993927002,2,1,3,3,-7.48,2.44,0.57,0.2,0.23,3.1
7.580179929733276,2,1,3,3,-6.82,2.29,0.95,0.15,0.05,3.53
7.590179920196533,2,1,3,3,-6.27,2.08,1.14,0.49,-0.15,3.89
7.60017991065979,2,1,3,3,-6.08,1.9,1.15,1.1,-0.13,3.98
7.610180139541626,2,1,3,3,-6,1.63,1.06,1.73,0.28,4.04
7.620180130004883,2,1,3,3,-6,1.63,1.06,1.73,0.28,4.04
7.63018012046814,2,1,3,3,-6.03,1.56,0.97,1.96,0.66,4.2
7.640180110931396,2,1,3,3,-6.24,1.76,0.75,2.49,0.68,4.4
7.650180101394653,2,1,3,3,-6.72,2.14,0.61,3.3,0.27,4.54
7.66018009185791,2,1,3,3,-6.97,2.13,0.45,4.32,-0.48,4.67
7.670180082321167,2,1,3,3,-6.97,2.13,0.45,4.32,-0.48,4.67
7.680180072784424,2,1,3,3,-7.12,1.97,-0.07000000000000001,5.71,-0.88,4.81
7.700180053710938,2,1,3,3,-7.77,1.66,-0.22,1.64,0.59,3.99
7.710180044174194,2,1,3,3,-7.57,1.57,0.35,0.3,0.02,4.01
7.720180034637451,2,1,3,3,-7.02,1.3,0.6899999999999999,0.3,0.02,4.01
7.730180025100708,2,1,3,3,-6.43,1.17,0.84,0.53,0,4.09
7.741179943084717,2,1,3,3,-6.01,1.3,1.29,1.63,0.46,4.14
7.751179933547974,2,1,3,3,-6.31,1.23,1.22,2.34,0.35,3.59
7.76117992401123,2,1,3,3,-6.8,1.1,1.33,2.98,0.21,2.73
7.771179914474487,2,1,3,3,-7.25,1.14,1.45,2.98,0.21,2.73
7.781180143356323,2,1,3,3,-9.18,1.21,1.65,3.07,0.25,1.64
7.79118013381958,2,1,3,3,-9.41,1.12,1.25,2.61,1.7,0.71
7.801180124282837,2,1,3,3,-9.51,1.03,0.85,1.52,3.33,0.9
7.811180114746094,2,1,3,3,-10.18,0.93,0.7,0.2,4.05,1.36
7.821180105209351,2,1,3,2,-10.58,0.8100000000000001,0.5600000000000001,0.2,4.05,1.36
7.831180095672607,2,1,3,2,-10.95,0.71,0.51,-0.95,2.87,1.82
7.841180086135864,2,1,3,2,-11.76,0.78,0.92,-1.21,-2.59,1.61
7.851180076599121,2,1,3,2,-12.51,1.01,2.33,0.59,-3.66,1.01
7.861180067062378,2,1,3,2,-12.65,1.49,2.46,1.93,-2.44,0.25
7.871180057525635,2,1,3,2,-12.92,1.62,2.18,1.93,-2.44,0.25
7.881180047988892,2,1,3,2,-13.62,1.68,2.06,1.46,0.21,-0.84
7.891180038452148,2,1,3,2,-15.23,2.06,2.04,-0.92,2.39,-2.5
7.901180028915405,2,1,3,2,-15.42,1.58,1.97,-0.93,-0.6899999999999999,-1.83
7.911180019378662,2,1,3,2,-16.41,2.12,2.22,-0.6,-1.92,-1.97
7.921180009841919,2,1,3,2,-17.5,2.24,2.63,-0.6,-1.92,-1.97
7.931180000305176,2,1,3,2,-18.68,2.31,3.38,-0.13,-1.35,-2.84
7.941179990768433,2,1,3,2,-19.77,2.48,3.08,0.83,2.86,-3.75
7.951179981231689,2,1,3,2,-20.54,2,2.74,-0.2,2.89,-3.55
7.961179971694946,2,1,3,2,-21.71,1.48,2.37,-1.52,1.8,-2.82
7.971179962158203,2,1,3,2,-23.21,1.18,2.6,-1.52,1.8,-2.82
7.98117995262146,2,1,3,2,-22.71,0.88,2.91,-2.31,-0.49,-1.88
7.991179943084717,2,1,3,2,-22.42,0.91,3.84,-1.43,-0.5,-2.41
8.001179933547974,2,1,3,2,-21.96,0.74,4.27,-0.78,0.41,-3.42
8.01117992401123,2,1,3,2,-20.9,0.84,5.17,-0.65,1.27,-4.37
8.021179914474487,2,1,3,2,-20.9,0.78,5.18,-0.65,1.27,-4.37
8.031180143356323,2,1,3,2,-21.55,0.67,4.84,-0.82,1.71,-5.3
8.04118013381958,2,1,3,2,-23.5,0.22,4.05,1.26,-0.75,-6.09
8.051180124282837,2,1,3,2,-24.31,0.11,4.22,2.54,-2.28,-5.74
8.061180114746094,2,1,3,2,-25.04,0.31,3.99,3.99,-1.71,-5.05
8.071180105209351,2,1,3,2,-25.69,0.93,3.51,3.99,-1.71,-5.05
8.081180095672607,2,1,3,2,-26.6,2.52,2.28,2.95,-1.01,-4.03
8.091180086135864,2,1,3,2,-25.83,3.09,1.52,-0.35,-2.27,-3.31
8.101180076599121,2,1,3,2,-23.03,3.52,1.32,-3.68,-4.74,-2.57
8.111180067062378,2,1,3,2,-19.89,3.61,1.67,-5.49,-5.05,-2.22
8.121180057525635,2,1,3,2,-13.39,4.13,1.28,-5.52,-4.41,-1.47
8.131180047988892,2,1,3,2,-9.31,4.15,-0.46,-1.98,-2.9,0.72
8.141180038452148,2,1,3,2,-6.48,4.61,-1.08,4.09,1.52,2.84
8.151180028915405,2,1,3,2,-4.26,5.37,-1.25,6.28,4.42,3.74
8.161180019378662,2,1,3,2,-1.54,6.81,-1.55,4.13,1.75,5.43
8.171180009841919,2,1,3,2,0.55,7.92,-1.34,2.99,-2.42,7.08
8.181180000305176,2,1,3,2,1.9,9.710000000000001,-0.99,2.69,-4.21,8.26
8.191179990768433,2,1,3,2,4.81,11.04,-2.42,3.16,-5.64,8.43
8.201179981231689,2,1,3,2,8.289999999999999,11.35,-5.69,5.54,-3.85,9.119999999999999
8.211179971694946,2,1,3,2,6.28,9.02,-6.69,6.05,1.87,8.02
8.221179962158203,2,1,3,2,6.13,5.8,-6.69,5.23,2.48,5.68
8.23117995262146,2,1,3,2,5.54,3.01,-5.63,0.25,0.57,1.71
8.241179943084717,2,1,3,2,1.06,0.08,-1.64,-6.94,1.94,-3.81
8.251179933547974,2,1,3,2,0.2,0.09,0.85,-14.15,2.68,-7.41
8.26117992401123,2,1,3,2,-0.24,0.43,2.42,-18.83,-1.51,-8.98
8.271179914474487,2,1,3,2,0.75,1.15,2.17,-19.11,-6.56,-10.49
8.281180143356323,2,1,3,2,1.12,0.71,1.5,-17.38,-8.19,-10.94
8.29118013381958,2,1,3,2,1.16,-0.18,1.27,-15.6,-5.97,-10.17
8.301180124282837,2,1,3,2,0.17,-1.43,0.93,-13.56,-1.19,-8.99
8.311180114746094,2,1,3,2,-2.96,-2.03,0.7,-10.89,3.23,-8.24
8.321180105209351,2,1,3,2,-3.71,-2.73,1.01,-8.890000000000001,4.67,-6.53
8.351180076599121,2,1,3,3,-3,-3.81,-0.4,-3.04,0.19,1.57
8.361180067062378,2,1,3,3,-1.6,-3.41,-0.77,-1.68,0.79,4.38
8.371180057525635,2,1,3,3,-0.57,-2.7,-0.59,-0.52,2.35,6.62
8.381180047988892,2,1,3,3,0.11,-1.99,-0.15,0.28,2.51,8.609999999999999
8.391180038452148,2,1,3,3,1.39,-1.7,0.08,1.66,0.91,9.970000000000001
8.401180028915405,2,1,3,3,1.72,-1.53,0.32,4.41,-0.59,10.2
8.411180019378662,2,1,3,3,1.67,-1.27,0.51,6.85,-1.75,9.609999999999999
8.421180009841919,2,1,3,3,1.75,-1.22,0.59,8.449999999999999,-2.84,8.75
8.431180000305176,2,1,3,3,1.4,-1.02,1,9.5,-3.18,7.57
8.441179990768433,2,1,3,3,1.04,-0.86,0.89,10.12,-3.21,6.17
8.451179981231689,2,1,3,3,1.01,-0.6899999999999999,0.35,10.76,-3.19,4.65
8.461179971694946,2,1,3,3,1,-0.25,-0.22,10.66,-2.64,2.75
8.471179962158203,2,1,3,3,0.48,0.57,-0.66,9.039999999999999,-2.04,1.14
8.48117995262146,2,1,3,3,0.02,0.83,-0.86,6.52,-2.01,-0.06
8.491179943084717,2,1,3,3,-0.48,1.06,-0.96,3.62,-2.36,-0.77
8.501179933547974,2,1,3,3,-0.13,0.65,-1.23,0.9,-2.72,-0.92
8.51117992401123,2,1,3,3,-0.12,0.59,-0.57,-1.14,-1.95,-0.95
8.521179914474487,2,1,3,3,-0.28,0.42,0.13,-3.36,-1.28,-1.33
8.531180143356323,2,1,3,3,0.14,-0.09,0.54,-4.67,-2.46,-1.57
8.54118013381958,2,1,3,3,-0.27,0.22,1.53,-4.34,-2.4,-2.24
8.551180124282837,2,1,3,3,-1.36,1,2.1,-3.01,-2.7,-3.92
8.561180114746094,2,1,3,3,-1.8,1.8,3.48,-0.85,-4.44,-4.4
8.571180105209351,2,1,3,3,-2.72,3.04,3.3,1.01,-5.81,-4.34
8.581180095672607,2,1,3,3,-8.35,9.24,2.9,7.66,-6.36,-4.5
8.591180086135864,2,1,3,3,-14.6,12.18,1.1,15.23,-4.86,-5.95
8.601180076599121,2,1,3,3,-29.6,14.79,3.49,14.8,0.75,-12.51
8.611180067062378,2,1,3,3,-39.25,15.68,2.42,-5.19,1.27,-27.18
8.621180057525635,2,1,3,3,-39.23,4.96,-4.08,-25.27,18.83,-31.83
8.631180047988892,2,1,3,3,-39.25,-5.84,-0.91,-46.92,20.81,-9.5
8.641180038452148,2,1,3,3,-38.61,-9.890000000000001,1.54,-35.42,-28.74,-0.49
8.651180028915405,2,1,3,3,-29.26,-10.88,10.37,-12.12,-11.02,-6.38
8.661180019378662,2,1,3,3,-18.6,-8.93,11.76,-8.380000000000001,10.52,-6.8
8.671180009841919,2,1,3,3,-18.27,-9.06,8.130000000000001,-3.27,7.28,-6.06
8.681180000305176,2,1,3,3,-20.04,-9.08,4.72,5.58,7.66,-7.39
8.691179990768433,2,1,3,3,-20.13,-9.210000000000001,2.13,9.85,2.83,-8.529999999999999
8.701179981231689,2,1,3,3,-18.54,-4.68,3.87,13.46,-3.01,-8.09
8.711179971694946,2,1,3,3,-19.23,-2.13,4.57,12.64,-4.72,-4.89
8.721179962158203,2,1,3,3,-20,-0.5,3.51,12.04,-1.7,0.89
8.73117995262146,2,1,3,3,-17.23,0.45,0.05,12.65,2.27,5.84
8.741179943084717,2,1,3,3,-14.91,1.02,0.54,12.27,2.75,7.95
8.751179933547974,2,1,3,3,-13.16,1.58,1.05,10.22,1.89,8.27
8.762180089950562,2,1,3,3,-11.33,2.14,0.93,9.02,0.44,8.26
8.772180080413818,2,1,3,3,-8.800000000000001,3.25,0.96,8.66,-1.43,7.65
8.782180070877075,2,1,3,3,-8.140000000000001,2.89,0.79,7.39,-2.56,6.19
8.792180061340332,2,1,3,3,-7.51,2.88,0.85,6.81,-2.37,4.17
8.802180051803589,2,1,3,3,-6.85,2.58,0.64,6.91,-1.78,1.8
8.812180042266846,2,1,3,3,-5.67,2.47,0.9,7.34,0.62,-0.06
8.822180032730103,2,1,3,3,-5.47,2.54,0.54,7.2,3.82,-0.54
8.832180023193359,2,1,3,3,-5.34,2.6,0,6.63,5.58,-0.07000000000000001
8.842180013656616,2,1,3,3,-5.47,2.68,-0.15,5.01,5.89,0.78
8.852180004119873,2,1,3,3,-5.58,2.41,-0.33,2.02,4.76,1.52
8.86217999458313,2,1,3,3,-5.15,2.29,-0.16,-0.14,2.7,1.73
8.872179985046387,2,1,3,3,-4.63,2.22,0.35,-1.24,0.48,1.82
8.882179975509644,2,1,3,3,-4.21,2.1,0.5600000000000001,-1.97,-0.75,1.96
8.8921799659729,2,1,3,3,-4.12,1.66,0.61,-1.74,-0.99,1.94
8.902179956436157,2,1,3,3,-4.64,1.41,0.48,-1.16,0.5,1.65
8.912179946899414,2,1,3,3,-5.78,1.31,0.66,-0.74,2.9,0.91
8.922179937362671,2,1,3,3,-6.66,1.36,1.09,-0.84,4.29,-0.09
8.932179927825928,2,1,3,3,-7.47,1.37,1.29,-0.6899999999999999,3.58,-0.97
8.942179918289185,2,1,3,3,-7.94,1.41,1.13,0.19,2.82,-1.93
8.952179908752441,2,1,3,3,-8.65,1.54,1.03,0.91,2.98,-2.75
8.962180137634277,2,1,3,3,-10.05,1.78,0.96,1.08,3.28,-3.37
8.972180128097534,2,1,3,3,-10.62,1.65,0.89,1.14,3.44,-3.85
8.982180118560791,2,1,3,3,-11.14,1.43,0.97,0.75,3.71,-4.09
8.992180109024048,2,1,3,3,-11.65,1.26,1.17,0.03,3.59,-4.06
9.002180099487305,2,1,3,3,-11.72,0.83,1.51,-0.83,2.34,-3.73
9.012180089950562,2,1,3,3,-11.89,0.64,1.43,-1.98,0.03,-3.16
9.022180080413818,2,1,3,3,-12.01,0.61,1.45,-2.86,-2.48,-2.82
9.032180070877075,2,1,3,3,-11.65,0.32,1.35,-3,-4.14,-2.51
9.042180061340332,2,1,3,3,-10.44,0.03,1.31,-2.61,-4.75,-2.16
9.11217999458313,2,1,3,3,-8.31,0.48,1.52,1.83,-2.73,1.14
9.122179985046387,2,1,3,3,-8.42,0.85,1.37,2.09,-1.51,1.15
9.132179975509644,2,1,3,3,-8.57,1,1.04,2.56,-0.6,1.05
9.1421799659729,2,1,3,3,-9,1.07,1.02,2.75,0.47,1.14
9.152179956436157,2,1,3,3,-9.44,1,0.87,2.03,1.23,1.12
9.162179946899414,2,1,3,3,-10.1,0.89,1.18,1.03,1.28,0.96
9.172179937362671,2,1,3,3,-10.14,0.8,1.33,-0.45,0.44,0.77
9.182179927825928,2,1,3,3,-9.970000000000001,0.72,1.25,-1.48,-0.88,0.68
9.192179918289185,2,1,3,3,-9.699999999999999,0.71,1.63,-1.74,-1.77,0.6899999999999999
9.202179908752441,2,1,3,3,-9.470000000000001,0.6899999999999999,1.44,-1.99,-2.09,0.62
9.212180137634277,2,1,3,3,-9.449999999999999,0.71,1.44,-1.28,-2.29,0.44
9.222180128097534,2,1,3,3,-9.460000000000001,0.64,1.57,-0.29,-2.09,0.23
9.232180118560791,2,1,3,3,-9.25,0.41,1.52,0.19,-1.62,-0.07000000000000001
9.242180109024048,2,1,3,3,-9.01,0.28,1.25,0.6899999999999999,-0.83,-0.35
9.252180099487305,2,1,3,3,-8.94,0.23,0.99,0.97,0.38,-0.46
9.262180089950562,2,1,3,3,-9.07,0.38,1.12,1.45,1.74,-0.48
9.272180080413818,2,1,3,3,-9.44,0.63,1.2,1.91,2.18,-0.54
9.282180070877075,2,1,3,3,-9.6,0.82,1.16,2.61,1.52,-0.65
9.322180032730103,2,1,3,3,-9.630000000000001,1.48,1.4,1.89,-1.03,-2.15
9.332180023193359,2,1,3,3,-9.460000000000001,1.49,1.51,1.18,-1.3,-2.24
9.342180013656616,2,1,3,3,-9.380000000000001,1.46,1.65,0.64,-1.31,-2.17
9.352180004119873,2,1,3,3,-9.25,1.52,1.58,0.14,-1.06,-2.02
9.36217999458313,2,1,3,3,-9.25,1.47,1.65,-0.49,-0.8,-1.86
9.372179985046387,2,1,3,3,-9.31,1.39,1.64,-1.17,-0.32,-1.74
9.382179975509644,2,1,3,3,-9.5,1.27,1.58,-1.76,0.04,-1.74
9.3921799659729,2,1,3,3,-9.75,0.92,1.41,-1.99,0.18,-1.74
9.402179956436157,2,1,3,3,-9.92,0.72,1.44,-1.99,0.37,-1.73
9.412179946899414,2,1,3,3,-10.07,0.44,1.46,-2.09,0.68,-1.55
9.422179937362671,2,1,3,3,-10.16,0.19,1.48,-2.02,0.93,-1.07
9.442179918289185,2,1,3,3,-9.99,0.24,1.49,-1.56,1.48,0.5600000000000001
9.452179908752441,2,1,3,3,-9.859999999999999,0.31,1.4,-0.98,1.55,1.37
9.462180137634277,2,1,3,3,-9.619999999999999,0.43,1.28,-0.33,1.44,1.92
9.472180128097534,2,1,3,3,-9.630000000000001,0.54,1.33,0.2,1.23,2.12
9.482180118560791,2,1,3,3,-9.800000000000001,0.64,1.44,0.44,0.88,1.91
9.492180109024048,2,1,3,3,-9.800000000000001,0.64,1.44,0.32,0.46,1.37
9.502180099487305,2,1,3,3,-9.710000000000001,0.63,1.55,0.1,0.1,0.65
9.512180089950562,2,1,3,3,-9.58,0.58,1.57,0.04,-0.25,0.11
9.522180080413818,2,1,3,3,-9.529999999999999,0.51,1.52,0.05,-0.36,-0.24
9.532180070877075,2,1,3,3,-9.529999999999999,0.51,1.52,0.29,-0.31,0.02
9.542180061340332,2,1,3,3,-9.460000000000001,0.48,1.53,0.29,-0.31,0.02
9.552180051803589,2,1,3,3,-9.58,0.64,1.5,0.57,-0.05,0.48
9.562180042266846,2,1,3,3,-9.56,0.72,1.49,0.9399999999999999,0.21,0.82
9.572180032730103,2,1,3,3,-9.5,0.83,1.5,1.61,0.48,1.18
9.582180023193359,2,1,3,3,-9.5,0.83,1.5,1.61,0.48,1.18
9.592180013656616,2,1,3,3,-9.4,0.9,1.48,1.32,0.52,1.18
9.602180004119873,2,1,3,3,-9.44,1.03,1.41,0.85,0.43,0.87
9.61217999458313,2,1,3,3,-9.66,1.19,1.49,0.74,0.27,0.6899999999999999
9.622179985046387,2,1,3,3,-9.73,1.24,1.43,0.6,0.09,0.5
9.632179975509644,2,1,3,3,-9.73,1.24,1.43,0.54,0.1,0.31
9.652179956436157,2,1,3,3,-9.800000000000001,1.12,1.06,0.01,-0.24,0.19
9.662179946899414,2,1,3,3,-9.74,1.16,1.11,0.12,-0.25,0.17
9.672179937362671,2,1,3,3,-9.77,1.12,1.25,-0.28,-0.23,0.22
9.682179927825928,2,1,3,3,-9.77,1.12,1.25,-0.28,-0.23,0.22
9.692179918289185,2,1,3,3,-9.75,1.08,1.41,-0.54,-0.37,0.28
9.702179908752441,2,1,3,3,-9.69,1.06,1.36,-0.28,-0.43,0.5
9.712180137634277,2,1,3,3,-9.630000000000001,1.08,1.28,-0.14,-0.29,0.55
9.722180128097534,2,1,3,3,-9.58,1.09,1.27,-0.17,0.05,0.54
9.742180109024048,2,1,3,3,-9.69,1.24,1.41,-0.38,0.47,0.48
9.752180099487305,2,1,3,3,-9.76,1.25,1.38,-0.13,1.27,0.17
9.762180089950562,2,1,3,3,-9.83,1.25,1.26,-0.19,1.42,0.13
9.772180080413818,2,1,3,3,-9.890000000000001,1.32,1.29,-0.33,1.25,0.24
9.783179998397827,2,1,3,3,-9.800000000000001,1.32,1.19,-0.33,1.25,0.24
9.793179988861084,2,1,3,3,-9.65,1.21,1.01,-0.5600000000000001,1.07,0.44
9.803179979324341,2,1,3,3,-9.529999999999999,1.15,0.93,-1.39,0.5,0.97
9.813179969787598,2,1,3,3,-9.51,1.11,0.93,-1.75,0.14,1.13
9.823179960250854,2,1,3,3,-9.529999999999999,1.08,1.31,-1.53,0.01,1.15
9.833179950714111,2,1,3,3,-9.449999999999999,1.05,1.35,-1.53,0.01,1.15
9.843179941177368,2,1,3,3,-9.42,0.98,1.32,-0.64,0.85,0.79
9.853179931640625,2,1,3,3,-9.4,0.97,1.28,-0.77,1.34,0.61
9.863179922103882,2,1,3,3,-9.699999999999999,1.09,1.39,-0.73,1.32,0.6
9.873179912567139,2,1,3,3,-9.789999999999999,1.16,1.41,-0.38,1.09,0.75
9.883180141448975,2,1,3,3,-9.81,1.22,1.28,-0.38,1.09,0.75
9.893180131912231,2,1,3,3,-9.720000000000001,1.32,0.83,-0.06,1.12,1
9.903180122375488,2,1,3,3,-9.73,1.3,0.82,-0.59,1.05,1.62
9.913180112838745,2,1,3,3,-9.77,1.32,0.84,-0.91,0.8,1.78
9.923180103302002,2,1,3,3,-9.75,1.3,0.93,-0.92,0.6,1.84
9.933180093765259,2,1,3,3,-9.59,1.27,0.95,-0.92,0.6,1.84
9.943180084228516,2,1,3,3,-9.539999999999999,1.3,1.1,-1.12,0.76,1.78
9.953180074691772,2,1,3,3,-9.49,1.32,1.21,-1.25,1.07,1.59
9.963180065155029,2,1,3,3,-9.27,1.33,1.1,-0.82,1.41,1.55
9.973180055618286,2,1,3,3,-8.98,1.36,1.11,-0.61,1.64,1.47
9.983180046081543,2,1,3,3,-9,1.35,1.19,-0.61,1.64,1.47
9.9931800365448,2,1,3,3,-9.140000000000001,1.38,1.12,-0.41,1.53,1.41
10.00318002700806,2,1,3,3,-9.31,1.42,1,-0.21,1.51,1.29
10.01318001747131,2,1,3,3,-9.82,1.49,0.74,-0.48,1.48,1.2
10.02318000793457,2,1,3,3,-9.880000000000001,1.47,0.6899999999999999,-0.87,1.34,1.21
10.03317999839783,2,1,3,3,-9.85,1.52,0.75,-0.87,1.34,1.21
10.04317998886108,2,1,3,3,-9.66,1.62,0.86,-1.21,1.03,1.34
10.05317997932434,2,1,3,3,-9.199999999999999,1.65,1.03,-0.93,0.09,1.85
10.0631799697876,2,1,3,3,-8.949999999999999,1.65,0.9399999999999999,-0.23,-0.09,2.03
10.07317996025085,2,1,3,3,-8.710000000000001,1.65,0.89,0.52,0.09,2.19
10.08317995071411,2,1,3,3,-8.16,1.87,0.71,0.52,0.09,2.19
10.09317994117737,2,1,3,3,-7.8,2,0.58,0.97,0.48,2.48
10.10317993164062,2,1,3,3,-7.42,2.06,0.47,1.24,1,2.94
10.11317992210388,2,1,3,3,-7.24,2.13,0.54,0.83,1.52,3.26
10.12317991256714,2,1,3,3,-7.24,2.29,0.96,0.18,1.19,3.41
10.13318014144897,2,1,3,3,-7.02,2.25,0.78,0.31,0.12,3.45
10.14318013191223,2,1,3,3,-6.86,2.25,0.61,1.19,-0.49,3.55
10.15318012237549,2,1,3,3,-6.73,2.16,0.41,1.57,-0.32,3.69
10.16318011283875,2,1,3,3,-6.5,1.82,0.03,1.3,0.14,3.83
10.173180103302,2,1,3,3,-6.4,1.63,0.34,0.42,0.47,4.04
10.18318009376526,2,1,3,3,-6.54,1.75,0.88,-0.75,0.33,4.35
10.19318008422852,2,1,3,3,-6.67,1.78,1.3,-1.42,-0.49,4.55
10.20318007469177,2,1,3,3,-6.2,1.64,1.27,-0.35,-1.44,4.7
10.21318006515503,2,1,3,3,-5.84,1.42,1.12,1.28,-1.62,5.06
10.22318005561829,2,1,3,3,-5.74,1.23,0.95,2.1,-1.13,5.5
10.23318004608154,2,1,3,3,-5.66,1.05,0.8100000000000001,2.21,-0.51,5.85
10.2431800365448,2,1,3,3,-5.8,1.14,0.54,1.52,0.18,6.19
10.25318002700806,2,1,3,3,-6.34,1.25,0.77,0.75,0.6899999999999999,6.22
10.26318001747131,2,1,3,3,-7.04,1.44,1.52,-0.11,0.5600000000000001,5.8
10.27318000793457,2,1,3,3,-8.050000000000001,1.43,2.07,-0.63,0.13,4.81
10.28317999839783,2,1,3,3,-9.220000000000001,1.53,1.39,0.92,-0.03,3.5
10.29317998886108,2,1,3,3,-9.460000000000001,1.38,0.55,2.32,1.23,2.52
10.30317997932434,2,1,3,3,-9.18,1.13,-0.39,2.72,3.19,2.64
10.3131799697876,2,1,3,3,-8.130000000000001,0.52,-0.55,1.46,4.8,4.01
10.32317996025085,2,1,3,3,-8.19,0.53,0.5600000000000001,-0.32,5.69,5.84
10.33317995071411,2,1,3,3,-8.17,0.58,1.13,-1.06,4.3,7.03
10.34317994117737,2,1,3,3,-8.23,1.13,1.34,-0.36,1.43,7.03
10.35317993164062,2,1,3,3,-8.99,1.78,1.81,-0.14,-0.87,6.32
10.36317992210388,2,1,3,3,-9.619999999999999,1.98,2.08,-0.93,-2.28,4.99
10.37317991256714,2,1,3,3,-10.77,1.92,2.51,-1.48,-2.36,2.78
10.38318014144897,2,1,3,3,-11.41,1.37,2.47,-1.72,-1.71,0.43
10.39318013191223,2,1,3,3,-12.16,0.77,1.91,-1.09,-0.53,-1.48
10.40318012237549,2,1,3,3,-12.39,0.44,1.22,0.36,1.35,-2.35
10.41318011283875,2,1,3,3,-13.21,0.72,0.65,1.75,2.88,-2.59
10.423180103302,2,1,3,3,-13.68,0.62,0.36,2.33,3.43,-2.29
10.43318009376526,2,1,3,3,-14.69,0.88,1.06,2.82,2.45,-1.61
10.44318008422852,2,1,3,3,-15.65,1.69,1.98,3.77,0.17,-1.13
10.45318007469177,2,1,3,3,-16.4,2.51,2.37,4.4,-2.91,-0.67
10.46318006515503,2,1,3,3,-17.54,3.13,2.55,3.97,-3.47,-0.77
10.47318005561829,2,1,3,3,-19.05,3.82,2.97,3.44,-2.56,-1.52
10.48318004608154,2,1,3,3,-19.54,4.08,2.67,3.35,-1.19,-2.15
10.4931800365448,2,1,3,3,-19.67,3.93,2.2,2.71,0.19,-2.2
10.50318002700806,2,1,3,3,-19.93,3.6,1.75,1.25,1.47,-1.84
10.51318001747131,2,1,3,3,-19.69,3.56,2.4,-0.33,2.1,-1.09
10.52318000793457,2,1,3,3,-20.06,3.27,3.22,-1.49,1.67,-0.41
10.53317999839783,2,1,3,3,-20.42,2.91,3.89,-2.16,0.97,-0.58
10.54317998886108,2,1,3,3,-21.11,1.61,3.52,-1.94,0.44,-1.59
10.55317997932434,2,1,3,3,-21.77,0.74,2.75,-1.83,0.34,-3.13
10.5631799697876,2,1,3,3,-22.98,-0.38,2.73,-1.56,0.78,-5.24
10.57317996025085,2,1,3,3,-24.18,-1.23,2.99,-2.38,0.71,-7.37
10.58317995071411,2,1,3,3,-25.59,-2.79,4.63,-3.53,0.57,-9.18
10.59317994117737,2,1,3,3,-25.78,-3.06,4.71,-3.67,0.72,-9.859999999999999
10.60317993164062,2,1,3,3,-26.42,-2.11,5.11,-0.17,1.9,-9.699999999999999
10.61317992210388,2,1,3,3,-26.31,-0.95,4.44,3.27,2.79,-8.91
10.62317991256714,2,1,3,3,-24.19,1.46,3.19,6.14,1.87,-7.85
10.63318014144897,2,1,3,3,-23.07,2.96,2.87,6.68,-0.6899999999999999,-6.37
10.64318013191223,2,1,3,3,-22.33,4.43,2.36,4.96,-3.32,-4.34
10.66318011283875,2,1,3,3,-16.73,5.27,-0.57,2.74,-2.72,0.01
10.673180103302,2,1,3,3,-13.36,5.41,-1.33,3.18,0.57,1.17
10.68318009376526,2,1,3,3,-9.24,6.8,-1.93,7.43,5.37,1.99
10.69318008422852,2,1,3,3,-5.93,7.19,-3,10.33,7.72,3.03
10.70318007469177,2,1,3,3,-1.61,7.97,-2.72,9.33,4.88,3.49
10.71318006515503,2,1,3,3,0.86,9.539999999999999,-1.14,5.11,-1.57,4.88
10.72318005561829,2,1,3,3,2.67,11.23,-1.51,1.93,-8.15,6.82
10.73318004608154,2,1,3,3,6.39,12.95,-2.98,3.68,-12.73,7.17
10.7431800365448,2,1,3,3,7.53,13.11,-7.66,7.8,-12.46,7.72
10.75318002700806,2,1,3,3,7.98,9.699999999999999,-8.119999999999999,9.16,-3.93,6.01
10.76318001747131,2,1,3,3,6.22,6.45,-5.33,3.9,0.38,4.89
10.77318000793457,2,1,3,3,1.2,1.59,-2.29,-7.3,4.05,1.63
10.78317999839783,2,1,3,3,1.27,0.99,-0.95,-14.36,1.65,-2.63
10.79317998886108,2,1,3,3,2.31,0.65,0.36,-17.27,-1.83,-6.02
10.80317997932434,2,1,3,3,2.98,-0.18,0.97,-18.94,-1.77,-7.95
10.81418013572693,2,1,3,3,2.28,-2.39,1.76,-21.08,-2.51,-9.390000000000001
10.82418012619019,2,1,3,3,2.59,-3.66,1.56,-21.68,-4.69,-10.68
10.83418011665344,2,1,3,3,2.45,-4.17,1.5,-18.9,-4.28,-10.37
10.8441801071167,2,1,3,3,1.16,-4.56,0.9399999999999999,-14.67,0.6899999999999999,-9.390000000000001
10.85418009757996,2,1,3,3,-1.53,-4.03,0.59,-8.59,4.36,-8.16
10.86418008804321,2,1,3,3,-3.2,-3.52,0.62,-2.14,4.36,-6.61
10.87418007850647,2,1,3,3,-4.2,-3.03,0.36,2.98,3.38,-4.84
10.88418006896973,2,1,3,3,-4.79,-2.76,-0.21,6.57,2.85,-2.65
10.89418005943298,2,1,3,3,-4.8,-1.26,-0.45,7.78,2.35,0.46
10.90418004989624,2,1,3,3,-3.61,-0.31,-0.82,7.49,0.89,4.02
10.9141800403595,2,1,3,3,-2.25,0.42,-1.2,6.98,0.19,6.58
10.92418003082275,2,1,3,3,-1.29,0.68,-1.22,5.61,1.76,7.69
10.93418002128601,2,1,3,3,-0.57,0.68,-0.37,3.77,3.55,8.34
10.94418001174927,2,1,3,3,-0.08,0.58,-0.13,2.35,3.29,8.859999999999999
10.95418000221252,2,1,3,3,0.71,0.53,-0.06,1.74,1.15,9.6
10.96417999267578,2,1,3,3,1.71,0.36,0.02,1.37,-0.91,9.85
10.97417998313904,2,1,3,3,2.87,-0.59,0.1,1.14,-2.22,9.210000000000001
10.98417997360229,2,1,3,3,2.98,-0.92,0.36,1.88,-2.58,7.69
10.99417996406555,2,1,3,3,2.78,-1.25,0.32,3.35,-2.15,5.5
11.00417995452881,2,1,3,3,1.96,-1.12,0.15,5.03,-1.79,2.83
11.01417994499207,2,1,3,3,1.2,-0.9,0.28,5.58,-0.72,0.6
11.02417993545532,2,1,3,3,0.31,-0.51,0.36,4.46,0.35,-0.83
11.03417992591858,2,1,3,3,-0.1,-0.08,0.27,2.64,0.77,-1.28
11.04417991638184,2,1,3,3,-1.24,-0.05,0.7,0.73,0.73,-1.4
11.05418014526367,2,1,3,3,-1.83,0.05,0.99,-0.75,0.45,-1.46
11.06418013572693,2,1,3,3,-1.46,-0.4,0.21,-1.99,-1.6,-1.36
11.07418012619019,2,1,3,3,-0.45,-0.58,-0.8,-1.18,-3.8,-1.27
11.08418011665344,2,1,3,3,-0.01,-0.54,0.25,-0.42,-3.13,-1.81
11.0941801071167,2,1,3,3,-0.25,0.36,1.56,-2.05,-2.25,-3.06
11.10418009757996,2,1,3,3,-0.55,1.09,1.21,-2.33,-2.22,-4.41
11.11418008804321,2,1,3,3,-1.22,2.41,0.61,0.37,-1.79,-5.33
11.12418007850647,2,1,3,3,-4.54,7.37,2.19,3.55,-2.56,-5.21
11.13418006896973,2,1,3,3,-7.86,11.55,1.36,7.21,-5.03,-4.6
11.14418005943298,2,1,3,3,-16.01,15.58,0.92,11.69,-8.68,-6.34
11.15418004989624,2,1,3,3,-35.93,19.36,3.72,6.57,-9.9,-13.78
11.1641800403595,2,1,3,3,-39.16,23.11,-10.88,-24.52,-16.23,-32.94
11.17418003082275,2,1,3,3,-39.25,-0.59,-6.31,-47.33,20.75,-34.37
11.18418002128601,2,1,3,3,-39.25,-23.94,-3.65,-64.68000000000001,24.05,-3.76
11.19418001174927,2,1,3,3,-37.31,-26.2,9.800000000000001,-37.18,-25,-0.26
11.20418000221252,2,1,3,3,-23.81,-9.109999999999999,13.04,-3.55,-2.33,-13.75
11.21417999267578,2,1,3,3,-16.22,-5.59,9.199999999999999,14,-0.52,-8.619999999999999
11.22417998313904,2,1,3,3,-14.89,-4.47,6.83,18.39,-2.02,-3.81
11.23417997360229,2,1,3,3,-20.42,-4.97,2.68,19.1,4.16,-3.21
11.24417996406555,2,1,3,3,-23.12,-2.47,0.83,18,7.25,-4.86
11.25417995452881,2,1,3,3,-24.19,-0.17,-0.28,16.31,4.82,-3.22
11.26417994499207,2,1,3,3,-23.21,1.77,-0.83,13.24,0.45,2.43
11.27417993545532,2,1,3,3,-17.57,3.04,1.25,7.03,-1.76,8.56
11.28417992591858,2,1,3,3,-15.41,3.09,2.89,0.85,-0.27,10.71
11.29417991638184,2,1,3,3,-13.8,2.65,3.52,0.43,2.51,10.35
11.30418014526367,2,1,3,3,-12,1.65,3.3,1.08,2.16,8.210000000000001
11.31418013572693,2,1,3,3,-10.8,0.75,3.07,1.3,0.49,4.72
11.32418012619019,2,1,3,3,-10.97,0.79,2.83,2.07,-0.21,1.99
11.33418011665344,2,1,3,3,-10.16,1.11,2.21,4.11,-0.11,0.3
11.3441801071167,2,1,3,3,-8.880000000000001,1.04,1.32,6.56,0.46,-0.76
11.35418009757996,2,1,3,3,-6.68,1.18,0.47,7.72,1.28,-1.26
11.36418008804321,2,1,3,3,-5.51,1.66,0.09,7.84,2.83,-1.05
11.37418007850647,2,1,3,3,-5.02,1.72,-0.28,7.61,4.22,0.21
11.38418006896973,2,1,3,3,-4.95,2.08,-0.36,6.2,4.52,2.17
11.39418005943298,2,1,3,3,-4.97,2.09,-0.58,4.69,2.99,3.88
11.40418004989624,2,1,3,3,-4.69,2.46,-0.47,3.54,0.49,5.16
11.4141800403595,2,1,3,3,-4.28,3.01,-0.07000000000000001,2.64,-2.17,5.99
11.42418003082275,2,1,3,3,-3.75,3.29,0.45,0.91,-3.31,5.78
11.43418002128601,2,1,3,3,-2.95,2.74,0.55,-0.44,-3.12,5.57
11.44418001174927,2,1,3,3,-2.84,2.28,0.29,-0.95,-1.6,4.68
11.45418000221252,2,1,3,3,-3.25,2.34,0.15,-1.03,0.47,3.33
11.46417999267578,2,1,3,3,-5.35,2.45,0.48,-1.26,2.49,2.09
11.47417998313904,2,1,3,3,-5.98,2.56,0.46,-1.91,3.88,0.75
11.48417997360229,2,1,3,3,-6.69,2.66,0.27,-2.61,3.47,-0.38
11.49417996406555,2,1,3,3,-7.88,2.48,0.39,-3.18,2.72,-1.51
11.50417995452881,2,1,3,3,-7.88,2.48,0.39,-4.12,2.45,-2.46
11.51417994499207,2,1,3,3,-11.89,0.72,0.73,-4.39,1.49,-3.53
11.52417993545532,2,1,3,3,-11.77,0.03,0.66,-3.59,0.21,-5.11
11.53417992591858,2,1,3,3,-11.41,-0.41,0.7,-2.74,-0.04,-6.52
11.54417991638184,2,1,3,3,-11.41,-0.41,0.7,-1.7,0.92,-7.3
11.55418014526367,2,1,3,3,-11.01,-0.84,1.23,-1.3,0.58,-7.1
11.56418013572693,2,1,3,3,-11.32,-1.5,1.05,-1.44,-1.06,-5.9
11.57418012619019,2,1,3,3,-11.28,-1.28,0.91,-1.03,-2.35,-3.97
11.58418011665344,2,1,3,3,-10.57,-0.76,1.57,-0.39,-3.92,-2.09
11.5941801071167,2,1,3,3,-10.57,-0.76,1.57,-0.39,-3.92,-2.09
11.60418009757996,2,1,3,3,-10.08,-0.74,1.64,-0.29,-5.7,-0.78
11.61418008804321,2,1,3,3,-9.31,-0.59,1.84,1.36,-5.93,0.05
11.62418007850647,2,1,3,3,-8.91,-0.02,1.74,1.97,-4.55,0.35
11.63418006896973,2,1,3,3,-8.68,0.36,1.52,2.68,-3.12,0.78
11.64418005943298,2,1,3,3,-8.68,0.36,1.52,2.68,-3.12,0.78
11.65418004989624,2,1,3,3,-8.49,0.6899999999999999,1.34,2.56,-1.07,1.68
11.6641800403595,2,1,3,3,-7.91,1.44,0.84,1.22,0.95,2.3
11.67418003082275,2,1,3,3,-8.23,1.56,1.07,0.41,2.27,2.32
11.68418002128601,2,1,3,3,-8.23,1.56,1.07,-0.33,2.78,2.09
11.69418001174927,2,1,3,3,-8.82,1.57,1.23,-0.33,2.78,2.09
11.70418000221252,2,1,3,3,-9.470000000000001,1.21,1.28,-0.49,2.26,1.65
11.71417999267578,2,1,3,3,-9.67,1.19,1.3,0.03,0.95,0.6899999999999999
11.72417998313904,2,1,3,3,-9.93,1.18,1.3,0.44,0.28,0.28
11.73417997360229,2,1,3,3,-10.09,1.23,1.19,0.66,-0.17,-0.04
11.74417996406555,2,1,3,3,-10.24,1.47,1,0.66,-0.17,-0.04
11.75417995452881,2,1,3,3,-10.23,1.57,1.01,0.37,-0.61,-0.14
11.76417994499207,2,1,3,3,-10.04,1.65,0.97,-0.99,-1.38,-0.17
11.77417993545532,2,1,3,3,-9.75,1.75,0.88,-1.95,-1.3,-0.42
11.78417992591858,2,1,3,3,-9.380000000000001,1.76,1.01,-2.62,-1,-0.8
11.79417991638184,2,1,3,3,-9.24,1.61,0.97,-2.62,-1,-0.8
11.80418014526367,2,1,3,3,-9.19,1.37,0.9399999999999999,-3.01,-0.65,-1.37
11.81418013572693,2,1,3,3,-9.27,1.07,0.96,-3.29,-0.34,-2.5
11.82418012619019,2,1,3,3,-9.58,0.51,1.34,-3.17,-0.38,-2.85
11.83518004417419,2,1,3,3,-9.6,0.27,1.51,-2.85,-0.23,-2.95
11.84518003463745,2,1,3,3,-9.529999999999999,0.09,1.67,-2.85,-0.23,-2.95
11.85518002510071,2,1,3,3,-9.529999999999999,-0.02,1.93,-2.7,0.06,-2.69
11.86518001556396,2,1,3,3,-9.65,-0.28,2.05,-1.28,0.65,-1.49
11.87518000602722,2,1,3,3,-9.789999999999999,-0.37,1.92,-0.28,0.95,-0.84
11.88517999649048,2,1,3,3,-9.949999999999999,-0.34,1.82,0.57,1,-0.35
11.89517998695374,2,1,3,3,-10.08,-0.33,1.72,0.57,1,-0.35
11.90517997741699,2,1,3,3,-10.04,-0.15,1.67,0.9399999999999999,0.96,0.15
11.91517996788025,2,1,3,3,-9.970000000000001,0.03,1.57,1.34,0.5600000000000001,1.2
11.92517995834351,2,1,3,3,-9.890000000000001,0.19,1.41,1.57,0.21,1.47
11.93517994880676,2,1,3,3,-9.74,0.71,1.5,2.03,-0.19,1.54
11.94517993927002,2,1,3,3,-9.59,0.91,1.3,2.03,-0.19,1.54
11.95517992973328,2,1,3,3,-9.6,1.12,1.21,2.54,-0.36,1.32
11.96517992019653,2,1,3,3,-9.779999999999999,1.22,1.17,2.05,-0.75,0.45
11.97517991065979,2,1,3,3,-9.65,1.4,0.87,1.5,-0.88,-0.1
11.98518013954163,2,1,3,3,-9.49,1.48,0.89,0.74,-0.79,-0.5600000000000001
11.99518013000488,2,1,3,3,-9.380000000000001,1.49,1,0.74,-0.79,-0.5600000000000001
12.00518012046814,2,1,3,3,-9.34,1.43,1.16,0.04,-0.67,-0.84
12.0151801109314,2,1,3,3,-9.369999999999999,1.21,1.23,-0.24,-0.06,-1.02
12.02518010139465,2,1,3,3,-9.59,1.09,1.23,-0.17,0.3,-1.01
12.03518009185791,2,1,3,3,-9.91,0.98,1.35,-0.07000000000000001,0.18,-0.91
12.04518008232117,2,1,3,3,-10.03,0.8100000000000001,1.28,-0.07000000000000001,0.18,-0.91
12.05518007278442,2,1,3,3,-9.9,0.54,1.16,0.23,0.19,-0.7
12.06518006324768,2,1,3,3,-9.890000000000001,0.53,1.25,0.33,0.21,0.03
12.07518005371094,2,1,3,3,-9.83,0.5,1.18,0.33,0.21,0.03
12.08518004417419,2,1,3,3,-9.779999999999999,0.47,1.19,0.63,0.07000000000000001,0.51
12.09518003463745,2,1,3,3,-9.68,0.53,1.15,0.92,0.02,0.86
12.10518002510071,2,1,3,3,-9.609999999999999,0.64,1.19,1.18,-0.06,0.99
12.11518001556396,2,1,3,3,-9.52,0.72,1.2,1.52,-0.08,0.92
12.12518000602722,2,1,3,3,-9.539999999999999,0.83,1.21,1.82,-0.09,0.73
12.13517999649048,2,1,3,3,-9.68,0.99,1.1,1.83,-0.15,0.58
12.14517998695374,2,1,3,3,-9.6,1.08,1.01,1.72,-0.02,0.47
12.15517997741699,2,1,3,3,-9.57,1.14,0.99,1.32,0.36,0.45
12.16517996788025,2,1,3,3,-9.51,1.22,1.11,0.84,0.57,0.5
12.17517995834351,2,1,3,3,-9.5,1.19,1.06,0.64,0.62,0.61
12.18517994880676,2,1,3,3,-9.6,1.18,1.02,0.74,0.71,0.7
12.19517993927002,2,1,3,3,-9.789999999999999,1.17,1.09,0.86,0.71,0.64
12.20517992973328,2,1,3,3,-9.92,1.08,1.03,1.09,0.6,0.52
12.21517992019653,2,1,3,3,-9.880000000000001,1.1,0.9399999999999999,1.25,0.49,0.44
12.22517991065979,2,1,3,3,-9.800000000000001,1.12,0.87,1.17,0.53,0.48
12.23518013954163,2,1,3,3,-9.720000000000001,1.18,0.97,1.02,0.57,0.66
12.24518013000488,2,1,3,3,-9.630000000000001,1.32,1.07,0.91,0.51,0.86
12.25518012046814,2,1,3,3,-9.630000000000001,1.36,1.13,0.84,0.47,0.9399999999999999
12.2651801109314,2,1,3,3,-9.58,1.42,1.11,0.75,0.33,0.86
12.27518010139465,2,1,3,3,-9.539999999999999,1.39,1.04,0.7,0.12,0.63
12.28518009185791,2,1,3,3,-9.529999999999999,1.32,1.21,0.52,-0.02,0.4
12.29518008232117,2,1,3,3,-9.539999999999999,1.28,1.22,0.24,-0.16,0.13
12.30518007278442,2,1,3,3,-9.6,1.25,1.24,0.07000000000000001,-0.11,-0.07000000000000001
12.31518006324768,2,1,3,3,-9.640000000000001,1.24,1.21,-0.01,0.05,-0.1
12.32518005371094,2,1,3,3,-9.710000000000001,1.23,1.04,-0.16,0.17,0
12.33518004417419,2,1,3,3,-9.74,1.22,1.1,-0.27,0.27,0.13
12.34518003463745,2,1,3,3,-9.75,1.18,1.18,-0.3,0.45,0.24
12.35518002510071,2,1,3,3,-9.84,1.12,1.18,-0.25,0.43,0.37
12.36518001556396,2,1,3,3,-9.81,1.06,1.17,-0.23,0.29,0.46
12.37518000602722,2,1,3,3,-9.77,1.1,1.15,-0.34,0.14,0.52
12.38517999649048,2,1,3,3,-9.67,1.14,1.2,-0.47,-0.01,0.61
12.39517998695374,2,1,3,3,-9.550000000000001,1.22,1.26,-0.48,-0.14,0.74
12.40517997741699,2,1,3,3,-9.529999999999999,1.29,1.25,-0.46,-0.09,0.78
12.41517996788025,2,1,3,3,-9.56,1.26,1.22,-0.28,0.11,0.76
12.42517995834351,2,1,3,3,-9.66,1.27,1.15,-0.14,0.29,0.59
12.43517994880676,2,1,3,3,-9.68,1.19,1.1,-0.2,0.32,0.43
12.44517993927002,2,1,3,3,-9.630000000000001,1.18,1.11,-0.23,0.32,0.31
12.45517992973328,2,1,3,3,-9.66,1.13,1.21,-0.38,0.46,0.27
12.46517992019653,2,1,3,3,-9.699999999999999,1.13,1.34,-0.7,0.46,0.32
12.47517991065979,2,1,3,3,-9.789999999999999,1.11,1.21,-0.78,0.3,0.4
12.48518013954163,2,1,3,3,-9.76,1.11,1.21,-0.5600000000000001,0.1,0.39
12.49518013000488,2,1,3,3,-9.69,1.11,1.18,-0.37,-0.14,0.39
12.50518012046814,2,1,3,3,-9.69,1.06,1.27,-0.38,-0.27,0.4
12.5151801109314,2,1,3,3,-9.619999999999999,1.07,1.26,-0.45,-0.3,0.38
12.52518010139465,2,1,3,3,-9.6,1.08,1.16,-0.39,-0.24,0.3
12.53518009185791,2,1,3,3,-9.58,1.11,1.21,-0.24,-0.14,0.28
12.54518008232117,2,1,3,3,-9.57,1.15,1.23,-0.19,-0.03,0.26
12.55518007278442,2,1,3,3,-9.619999999999999,1.19,1.18,-0.25,0.06,0.34
12.56518006324768,2,1,3,3,-9.710000000000001,1.16,1.12,-0.36,0.14,0.38
12.57518005371094,2,1,3,3,-9.82,1.18,1.07,-0.5,0.23,0.4
12.58518004417419,2,1,3,3,-9.85,1.15,1.14,-0.55,0.13,0.35
12.59518003463745,2,1,3,3,-9.68,1.11,1.21,-0.5,-0.06,0.26
12.60518002510071,2,1,3,3,-9.609999999999999,1.06,1.19,-0.4,-0.15,0.22
12.61518001556396,2,1,3,3,-9.57,1.04,1.2,-0.36,-0.07000000000000001,0.24
12.62617993354797,2,1,3,3,-9.630000000000001,1.09,1.17,-0.41,-0.04,0.33
12.63517999649048,2,1,3,3,-9.619999999999999,1.08,1.18,-0.46,-0.12,0.31
12.64517998695374,2,1,3,3,-9.619999999999999,1.1,1.14,-0.35,-0.16,0.31
12.65517997741699,2,1,3,3,-9.609999999999999,1.08,1.18,-0.25,-0.14,0.22
12.66517996788025,2,1,3,3,-9.59,1.1,1.18,-0.33,-0.12,0.11
12.67517995834351,2,1,3,3,-9.59,1.12,1.12,-0.33,-0.09,0.1
12.68517994880676,2,1,3,3,-9.59,1.1,1.16,-0.34,-0.05,0.07000000000000001
12.69517993927002,2,1,3,3,-9.65,1.11,1.18,-0.21,0.11,0.07000000000000001
12.70517992973328,2,1,3,3,-9.73,1.1,1.15,-0.07000000000000001,0.19,0
12.71517992019653,2,1,3,3,-9.720000000000001,1.09,1.06,-0.04,0.15,-0.01
12.72517991065979,2,1,3,3,-9.74,1.05,0.99,-0.15,0.17,0.01
12.73518013954163,2,1,3,3,-9.74,1.02,1.06,-0.38,0.21,-0.01
12.74518013000488,2,1,3,3,-9.67,0.9399999999999999,1.22,-0.51,0.17,0.04
12.75518012046814,2,1,3,3,-9.630000000000001,0.9,1.27,-0.55,0.02,0.07000000000000001
12.7651801109314,2,1,3,3,-9.57,0.89,1.28,-0.45,-0.11,0.15
12.77518010139465,2,1,3,3,-9.59,0.91,1.19,-0.22,-0.11,0.15
12.78518009185791,2,1,3,3,-9.67,0.95,1.23,-0.04,-0.14,0.16
12.79518008232117,2,1,3,3,-9.66,0.95,1.17,0.23,-0.07000000000000001,0.13
12.80518007278442,2,1,3,3,-9.66,0.98,1.11,0.37,0.07000000000000001,0.09
12.81518006324768,2,1,3,3,-9.68,1.01,1.16,0.28,0.13,0.09
12.82518005371094,2,1,3,3,-9.640000000000001,1,1.07,0.15,0.11,0.13
12.83617997169495,2,1,3,3,-9.66,1,1.17,0.07000000000000001,0.05,0.19
12.84518003463745,2,1,3,3,-9.65,1,1.18,0.06,0.01,0.2
12.85518002510071,2,1,3,3,-9.640000000000001,0.98,1.25,0.01,-0.02,0.15
12.86617994308472,2,1,3,3,-9.619999999999999,0.96,1.23,0.08,-0.07000000000000001,0.08
12.87617993354797,2,1,3,3,-9.65,0.96,1.14,0.23,-0.1,-0.03
12.88617992401123,2,1,3,3,-9.720000000000001,0.96,1.17,0.36,-0.17,-0.13
12.89617991447449,2,1,3,3,-9.69,0.99,1.17,0.49,-0.23,-0.21
12.90618014335632,2,1,3,3,-9.65,1.01,1.21,0.46,-0.2,-0.25
12.91618013381958,2,1,3,3,-9.640000000000001,1,1.22,0.31,-0.15,-0.23
12.92618012428284,2,1,3,3,-9.59,1,1.14,0.18,-0.2,-0.21
12.93618011474609,2,1,3,3,-9.609999999999999,1.04,1.16,0.21,-0.24,-0.16
12.94618010520935,2,1,3,3,-9.65,1.02,1.17,0.29,-0.22,-0.2
12.95618009567261,2,1,3,3,-9.69,0.99,1.16,0.36,-0.2,-0.3
12.96618008613586,2,1,3,3,-9.710000000000001,0.98,1.18,0.32,-0.18,-0.45
12.97618007659912,2,1,3,3,-9.68,0.93,1.11,0.29,-0.19,-0.51
12.98618006706238,2,1,3,3,-9.65,0.95,1.18,0.27,-0.13,-0.48
12.99618005752563,2,1,3,3,-9.619999999999999,0.99,1.22,0.19,-0.2,-0.41
13.00618004798889,2,1,3,3,-9.630000000000001,1.01,1.21,0.32,-0.26,-0.31
13.06617999076843,2,1,3,3,-9.65,1.19,1.23,0.3,-0.15,-0.77
13.07617998123169,2,1,3,3,-9.73,1.14,1.13,0.28,-0.03,-0.82
13.08617997169495,2,1,3,3,-9.75,1.07,1.13,0.32,-0.01,-0.8
13.0961799621582,2,1,3,3,-9.77,1.05,1.19,0.31,0.08,-0.6899999999999999
13.10617995262146,2,1,3,3,-9.77,1.06,1.23,0.25,0.08,-0.54
13.11617994308472,2,1,3,3,-9.74,1.07,1.22,0.26,0,-0.36
13.12617993354797,2,1,3,3,-9.69,1.13,1.1,0.33,-0.08,-0.25
13.13617992401123,2,1,3,3,-9.68,1.16,1.13,0.36,-0.09,-0.14
13.14617991447449,2,1,3,3,-9.69,1.13,1.17,0.34,-0.04,-0.08
13.15618014335632,2,1,3,3,-9.65,1.12,1.19,0.23,-0.07000000000000001,-0.04
13.16618013381958,2,1,3,3,-9.56,1.07,1.15,0.19,-0.03,0.01
13.17618012428284,2,1,3,3,-9.619999999999999,1.07,1.15,0.26,0.1,0.01
13.18618011474609,2,1,3,3,-9.68,1.1,1.22,0.25,0.29,0.09
13.19618010520935,2,1,3,3,-9.699999999999999,1.14,1.21,0.28,0.34,0.22
13.20618009567261,2,1,3,3,-9.720000000000001,1.18,1.13,0.37,0.3,0.24
13.21618008613586,2,1,3,3,-9.74,1.17,1.11,0.38,0.33,0.27
13.22618007659912,2,1,3,3,-9.73,1.12,1.07,0.25,0.27,0.28
13.23618006706238,2,1,3,3,-9.74,1.1,1.07,0.07000000000000001,0.25,0.25
13.24618005752563,2,1,3,3,-9.699999999999999,1.1,1.21,-0.06,0.2,0.26
13.25618004798889,2,1,3,3,-9.65,1.08,1.21,-0.13,0.17,0.28
13.26618003845215,2,1,3,3,-9.6,1.06,1.24,-0.15,0.17,0.33
13.27618002891541,2,1,3,3,-9.609999999999999,1.07,1.12,-0.12,0.24,0.33
13.28618001937866,2,1,3,3,-9.630000000000001,1.1,1.16,-0.14,0.33,0.31
13.29618000984192,2,1,3,3,-9.630000000000001,1.09,1.15,-0.22,0.28,0.26
13.30618000030518,2,1,3,3,-9.619999999999999,1.08,1.13,-0.2,0.15,0.22
13.31617999076843,2,1,3,3,-9.74,1.04,1.12,-0.16,0.09,0.11
13.32617998123169,2,1,3,3,-9.710000000000001,0.99,1.07,-0.26,0,-0.01
13.33617997169495,2,1,3,3,-9.67,0.97,1.15,-0.32,-0.17,-0.07000000000000001
13.3461799621582,2,1,3,3,-9.65,0.92,1.21,-0.36,-0.15,-0.08
13.39617991447449,2,1,3,3,-9.66,1.03,1.17,0.03,-0.09,0.03
13.40618014335632,2,1,3,3,-9.65,1.02,1.19,-0.13,-0.14,0.05
13.41618013381958,2,1,3,3,-9.66,1.05,1.22,-0.33,-0.17,0.06
13.42618012428284,2,1,3,3,-9.640000000000001,1.08,1.15,-0.37,-0.16,0.09
13.43618011474609,2,1,3,3,-9.630000000000001,1.05,1.16,-0.33,-0.08,0.08
13.44618010520935,2,1,3,3,-9.640000000000001,1.05,1.17,-0.29,0.03,0.08
13.45618009567261,2,1,3,3,-9.640000000000001,1.04,1.19,-0.26,0.02,0.04
13.46618008613586,2,1,3,3,-9.67,1.02,1.17,-0.28,0,0.02
13.47618007659912,2,1,3,3,-9.710000000000001,1.03,1.08,-0.27,-0.07000000000000001,0
13.48618006706238,2,1,3,3,-9.630000000000001,1.02,1.14,-0.26,-0.17,0.02
13.49618005752563,2,1,3,3,-9.59,1.03,1.18,-0.26,-0.27,0.09
13.50618004798889,2,1,3,3,-9.550000000000001,1.07,1.2,-0.26,-0.31,0.11
13.51618003845215,2,1,3,3,-9.66,1.12,1.17,-0.13,-0.25,0.04
13.52618002891541,2,1,3,3,-9.720000000000001,1.12,1.11,-0.13,-0.14,-0.03
13.53618001937866,2,1,3,3,-9.68,1.12,1.07,-0.15,-0.19,-0.12
13.54618000984192,2,1,3,3,-9.65,1.16,1.18,-0.12,-0.17,-0.17
13.55618000030518,2,1,3,3,-9.65,1.16,1.18,-0.21,-0.1,-0.15
13.56617999076843,2,1,3,3,-9.65,1.17,1.2,-0.31,-0.06,-0.15
13.57617998123169,2,1,3,3,-9.710000000000001,1.21,1.06,-0.31,-0.1,-0.1
13.58617997169495,2,1,3,3,-9.68,1.19,1.1,-0.35,-0.16,-0.07000000000000001
13.5961799621582,2,1,3,3,-9.630000000000001,1.2,1.09,-0.41,-0.25,-0.04
13.60617995262146,2,1,3,3,-9.630000000000001,1.2,1.09,-0.41,-0.25,-0.04
13.61617994308472,2,1,3,3,-9.59,1.16,1.11,-0.41,-0.38,-0.06
13.62617993354797,2,1,3,3,-9.65,1.05,1.13,-0.43,-0.26,-0.35
13.63617992401123,2,1,3,3,-9.56,1.06,1.2,-0.47,-0.29,-0.42
13.64617991447449,2,1,3,3,-9.52,1.01,1.21,-0.48,-0.17,-0.51
13.65618014335632,2,1,3,3,-9.52,1.01,1.21,-0.48,-0.17,-0.51
13.66618013381958,2,1,3,3,-9.539999999999999,0.99,1.31,-0.57,0.01,-0.47
13.67618012428284,2,1,3,3,-9.74,0.97,1.19,-0.61,0.1,-0.36
13.68618011474609,2,1,3,3,-9.74,0.97,1.19,-0.48,0.01,-0.36
13.69618010520935,2,1,3,3,-9.77,0.96,1.18,-0.26,-0.33,-0.4
13.70618009567261,2,1,3,3,-9.77,0.95,1.26,-0.26,-0.33,-0.4
13.71618008613586,2,1,3,3,-9.76,0.91,1.26,-0.22,-0.45,-0.41
13.72618007659912,2,1,3,3,-9.77,0.91,1.28,-0.34,-0.41,-0.31
13.73717999458313,2,1,3,3,-9.75,0.88,1.18,-0.35,-0.42,-0.21
13.74618005752563,2,1,3,3,-9.630000000000001,0.9,1.28,-0.39,-0.4,-0.12
13.75618004798889,2,1,3,3,-9.6,0.91,1.25,-0.39,-0.4,-0.12
13.76618003845215,2,1,3,3,-9.59,0.9,1.29,-0.37,-0.34,-0.07000000000000001
13.77618002891541,2,1,3,3,-9.640000000000001,0.9,1.32,-0.26,-0.31,-0.17
13.78618001937866,2,1,3,3,-9.67,0.96,1.21,-0.22,-0.35,-0.25
13.79618000984192,2,1,3,3,-9.67,0.96,1.29,-0.23,-0.39,-0.28
13.80618000030518,2,1,3,3,-9.65,0.9399999999999999,1.3,-0.23,-0.39,-0.28
13.81617999076843,2,1,3,3,-9.6,0.95,1.3,-0.22,-0.43,-0.31
13.82617998123169,2,1,3,3,-9.65,0.97,1.25,-0.4,-0.36,-0.29
13.83617997169495,2,1,3,3,-9.619999999999999,0.93,1.2,-0.54,-0.4,-0.31
13.8461799621582,2,1,3,3,-9.66,0.93,1.28,-0.62,-0.47,-0.35
13.85617995262146,2,1,3,3,-9.69,0.89,1.31,-0.62,-0.47,-0.35
13.86617994308472,2,1,3,3,-9.67,0.89,1.35,-0.64,-0.5600000000000001,-0.41
13.87617993354797,2,1,3,3,-9.710000000000001,0.9,1.37,-0.57,-0.61,-0.43
13.88718008995056,2,1,3,3,-9.69,0.86,1.24,-0.38,-0.6899999999999999,-0.49
13.89718008041382,2,1,3,3,-9.69,0.86,1.31,-0.38,-0.63,-0.42
13.90718007087708,2,1,3,3,-9.609999999999999,0.8100000000000001,1.4,-0.38,-0.63,-0.42
13.91718006134033,2,1,3,3,-9.630000000000001,0.8,1.44,-0.33,-0.51,-0.41
13.92718005180359,2,1,3,3,-9.66,0.77,1.48,0.02,-0.22,-0.39
13.93718004226685,2,1,3,3,-9.69,0.76,1.38,0.09,-0.11,-0.38
13.9471800327301,2,1,3,3,-9.74,0.8,1.36,0.08,-0.05,-0.41
13.95718002319336,2,1,3,3,-9.67,0.82,1.37,0.08,-0.05,-0.41
13.96718001365662,2,1,3,3,-9.69,0.84,1.34,-0.04,-0.13,-0.35
13.97718000411987,2,1,3,3,-9.66,0.87,1.34,-0.15,-0.34,-0.25
13.98717999458313,2,1,3,3,-9.66,0.89,1.29,-0.13,-0.55,-0.22
13.99717998504639,2,1,3,3,-9.65,0.87,1.3,-0.06,-0.49,-0.3
14.00717997550964,2,1,3,3,-9.630000000000001,0.91,1.32,-0.06,-0.49,-0.3
14.0171799659729,2,1,3,3,-9.66,0.87,1.4,-0.11,-0.44,-0.33
14.02717995643616,2,1,3,3,-9.67,0.84,1.43,-0.14,-0.42,-0.36
14.03717994689941,2,1,3,3,-9.65,0.8,1.33,-0.1,-0.26,-0.37
14.04717993736267,2,1,3,3,-9.609999999999999,0.83,1.34,-0.07000000000000001,-0.25,-0.29
14.05717992782593,2,1,3,3,-9.66,0.83,1.4,-0.07000000000000001,-0.25,-0.29
14.06717991828918,2,1,3,3,-9.67,0.83,1.39,-0.09,-0.22,-0.2
14.07717990875244,2,1,3,3,-9.68,0.88,1.38,-0.01,-0.25,-0.14
14.08718013763428,2,1,3,3,-9.67,0.87,1.31,0.01,-0.22,-0.11
14.09718012809753,2,1,3,3,-9.710000000000001,0.93,1.42,-0.05,-0.16,-0.09
14.10718011856079,2,1,3,3,-9.699999999999999,0.87,1.39,-0.14,-0.11,-0.16
14.11718010902405,2,1,3,3,-9.68,0.88,1.32,-0.12,-0.2,-0.18
14.1271800994873,2,1,3,3,-9.67,0.9,1.35,-0.06,-0.21,-0.18
14.13718008995056,2,1,3,3,-9.66,0.9,1.29,-0.18,-0.23,-0.13
14.14718008041382,2,1,3,3,-9.67,0.89,1.33,-0.21,-0.22,-0.1
14.15718007087708,2,1,3,3,-9.67,0.92,1.36,-0.25,-0.19,-0.04
14.16718006134033,2,1,3,3,-9.65,0.9399999999999999,1.46,-0.33,-0.21,-0.02
14.17718005180359,2,1,3,3,-9.619999999999999,0.91,1.38,-0.19,-0.27,-0.02
14.18718004226685,2,1,3,3,-9.65,0.93,1.3,-0.02,-0.2,-0.04
14.1971800327301,2,1,3,3,-9.68,0.92,1.3,0.02,-0.16,-0.11
14.20718002319336,2,1,3,3,-9.65,0.88,1.39,-0.06,-0.16,-0.16
14.21718001365662,2,1,3,3,-9.619999999999999,0.9,1.43,-0.18,-0.14,-0.16
14.22718000411987,2,1,3,3,-9.609999999999999,0.86,1.44,-0.32,-0.12,-0.16
14.23717999458313,2,1,3,3,-9.609999999999999,0.85,1.38,-0.39,-0.12,-0.11
14.2671799659729,2,1,3,3,-9.710000000000001,0.82,1.46,-0.18,-0.11,-0.08
14.27717995643616,2,1,3,3,-9.720000000000001,0.79,1.45,-0.16,-0.09,-0.06
14.28717994689941,2,1,3,3,-9.67,0.8100000000000001,1.41,-0.19,-0.07000000000000001,-0.05
14.29717993736267,2,1,3,3,-9.65,0.77,1.49,-0.26,-0.08,-0.01
14.30717992782593,2,1,3,3,-9.630000000000001,0.8100000000000001,1.52,-0.27,-0.17,0.03
14.31717991828918,2,1,3,3,-9.630000000000001,0.8,1.49,-0.07000000000000001,-0.16,0.05
14.32717990875244,2,1,3,3,-9.630000000000001,0.82,1.4,0,-0.08,0.01
14.33718013763428,2,1,3,3,-9.640000000000001,0.85,1.33,-0.05,-0.09,0.03
14.34718012809753,2,1,3,3,-9.65,0.83,1.37,-0.04,-0.06,0.02
14.35718011856079,2,1,3,3,-9.68,0.85,1.41,-0.04,-0.11,-0.02
14.36718010902405,2,1,3,3,-9.68,0.86,1.44,-0.09,-0.21,-0.05
14.3771800994873,2,1,3,3,-9.66,0.84,1.43,-0.11,-0.22,-0.07000000000000001
14.38718008995056,2,1,3,3,-9.65,0.83,1.4,-0.17,-0.25,-0.12
14.39718008041382,2,1,3,3,-9.609999999999999,0.82,1.41,-0.2,-0.23,-0.12
14.47718000411987,2,1,3,3,-9.68,0.85,1.38,0.1,-0.07000000000000001,0.05
14.48717999458313,2,1,3,3,-9.69,0.85,1.37,0.05,-0.15,0.06
14.49717998504639,2,1,3,3,-9.68,0.85,1.4,0.06,-0.23,0.01
14.50717997550964,2,1,3,3,-9.65,0.84,1.4,0.1,-0.29,0.01
14.5171799659729,2,1,3,3,-9.640000000000001,0.84,1.47,0.09,-0.23,0.03
14.52717995643616,2,1,3,3,-9.630000000000001,0.83,1.47,0.02,-0.14,0.01
14.53717994689941,2,1,3,3,-9.640000000000001,0.87,1.38,-0.01,-0.07000000000000001,0
14.54717993736267,2,1,3,3,-9.619999999999999,0.84,1.4,0.01,-0.03,0.01
14.55717992782593,2,1,3,3,-9.65,0.82,1.45,0,-0.05,-0.02
14.56717991828918,2,1,3,3,-9.67,0.83,1.45,-0.06,-0.03,-0.05
14.57717990875244,2,1,3,3,-9.699999999999999,0.75,1.54,-0.28,-0.04,-0.07000000000000001
14.58718013763428,2,1,3,3,-9.710000000000001,0.73,1.57,-0.5600000000000001,-0.12,-0.06
14.59718012809753,2,1,3,3,-9.789999999999999,0.72,1.88,-0.91,-0.31,-0.09
14.60718011856079,2,1,3,3,-9.949999999999999,0.74,2.05,-1.67,-0.63,-0.25
14.61718010902405,2,1,3,3,-9.74,0.64,1.82,-2.18,-1.59,-0.37
14.6271800994873,2,1,3,3,-9.51,0.62,1.37,-1.03,-2.26,-0.28
14.63718008995056,2,1,3,3,-9.57,0.76,1.27,-0.4,-2.04,-0.25
14.64718008041382,2,1,3,3,-9.619999999999999,0.77,1.25,-0.4,-1.9,-0.12
14.65718007087708,2,1,3,3,-9.83,1.02,1.52,-0.12,-1.59,-0.11
14.66718006134033,2,1,3,3,-9.619999999999999,0.85,1.45,-0.8100000000000001,-1.85,-0.03
14.67718005180359,2,1,3,3,-9.26,0.88,1.05,-0.84,-2.33,0.21
14.68718004226685,2,1,3,3,-9.17,0.8100000000000001,0.9,-0.48,-1.94,0.45
14.6971800327301,2,1,3,3,-9.44,0.76,1.29,-0.71,-0.96,0.54
14.70718002319336,2,1,3,3,-9.73,0.57,1.58,-1.1,-0.67,0.36
14.71718001365662,2,1,3,3,-9.76,0.6899999999999999,1.26,-0.49,-0.79,0.17
14.72718000411987,2,1,3,3,-9.85,0.72,1.23,0.14,-0.49,-0.02
14.73717999458313,2,1,3,3,-9.92,0.66,1.29,-0.23,-0.23,-0.06
14.74717998504639,2,1,3,3,-9.720000000000001,0.55,1.27,-0.76,-0.48,0.04
14.75717997550964,2,1,3,3,-9.52,0.5600000000000001,1.06,-0.41,-0.92,0.33
14.7671799659729,2,1,3,3,-9.56,0.61,1.08,0.24,-0.73,0.54
14.77717995643616,2,1,3,3,-9.619999999999999,0.6,1.17,0.33,-0.33,0.61
14.78717994689941,2,1,3,3,-9.710000000000001,0.7,1.25,0.23,-0.02,0.66
14.79717993736267,2,1,3,3,-9.859999999999999,0.76,1.5,-0.21,0.22,0.64
14.80717992782593,2,1,3,3,-9.84,0.76,1.43,-0.8,-0.21,0.65
14.81717991828918,2,1,3,3,-9.67,0.77,1.26,-0.82,-0.98,0.67
14.82717990875244,2,1,3,3,-9.460000000000001,0.84,0.88,-0.39,-1.21,0.61
14.83718013763428,2,1,3,3,-9.630000000000001,0.84,0.74,0.23,-0.76,0.43
14.84718012809753,2,1,3,3,-9.890000000000001,0.78,0.8,0.32,-0.07000000000000001,0.22
14.85718011856079,2,1,3,3,-10,0.52,0.89,-0.14,0.19,0.13
14.86718010902405,2,1,3,3,-9.890000000000001,0.41,0.85,-0.58,0.17,0.24
14.8771800994873,2,1,3,3,-9.789999999999999,0.31,0.84,-0.9399999999999999,0.38,0.67
14.88718008995056,2,1,3,3,-9.74,0.23,0.8100000000000001,-1.21,0.71,1.07
14.89718008041382,2,1,3,3,-9.65,0.16,0.9399999999999999,-1.19,0.87,1.52
14.90817999839783,2,1,3,3,-9.619999999999999,0.15,0.93,-0.82,0.85,1.69
14.91817998886108,2,1,3,3,-9.619999999999999,0.22,0.88,-0.31,0.77,1.66
14.92817997932434,2,1,3,3,-9.640000000000001,0.31,0.9,0.08,0.62,1.54
14.9381799697876,2,1,3,3,-9.710000000000001,0.4,0.66,0.28,0.61,1.38
14.94817996025085,2,1,3,3,-9.77,0.45,0.63,0.38,0.65,1.26
14.95817995071411,2,1,3,3,-9.84,0.51,0.72,0.28,0.77,1.13
14.96817994117737,2,1,3,3,-9.869999999999999,0.48,0.83,-0.2,0.71,1.01
14.97817993164062,2,1,3,3,-9.640000000000001,0.35,0.88,-0.64,0.43,0.9
14.98817992210388,2,1,3,3,-9.529999999999999,0.24,0.89,-0.85,0.29,0.8
14.99817991256714,2,1,3,3,-9.57,0.17,1.16,-0.91,0.28,0.8
15.00818014144897,2,1,3,3,-9.609999999999999,0.1,1.29,-0.82,0.3,0.77
15.01818013191223,2,1,3,3,-9.789999999999999,0.17,1.4,-0.31,0.32,0.76
15.02818012237549,2,1,3,3,-9.92,0.27,1.43,0.34,0.43,0.73
15.03818011283875,2,1,3,3,-10.02,0.46,1.29,1.16,0.46,0.57
15.048180103302,2,1,3,3,-10.08,0.6,1.23,1.87,0.31,0.35
15.05818009376526,2,1,3,3,-10.15,0.77,1.24,2.13,0.07000000000000001,0.11
15.06818008422852,2,1,3,3,-10.26,0.91,1.33,2.13,-0.22,-0.07000000000000001
15.07818007469177,2,1,3,3,-10.28,1.09,1.46,1.95,-0.89,-0.19
15.08818006515503,2,1,3,3,-10.12,1.25,1.41,1.92,-1.86,-0.13
15.09818005561829,2,1,3,3,-9.66,1.68,1.69,2.21,-2.51,0.06
15.10818004608154,2,1,3,3,-9.369999999999999,1.83,1.83,2.16,-2.5,0.23
15.1181800365448,2,1,3,3,-9.18,1.92,1.89,2.04,-1.99,0.32
15.12818002700806,2,1,3,3,-9.029999999999999,2.02,2.2,1.77,-1.51,0.27
15.13818001747131,2,1,3,3,-9.07,2.09,2.39,1.15,-1.3,0.06
15.14818000793457,2,1,3,3,-9.289999999999999,2.1,2.5,0.43,-1.2,-0.31
15.15817999839783,2,1,3,3,-9.52,2,2.47,-0.09,-0.89,-0.98
15.16817998886108,2,1,3,3,-9.81,1.38,2.84,-0.8,-0.79,-1.87
15.17817997932434,2,1,3,3,-9.880000000000001,0.86,2.97,-2.26,-0.98,-2.73
15.1881799697876,2,1,3,3,-10.01,0.2,3.12,-3.66,-1.3,-3.29
15.19817996025085,2,1,3,3,-10.15,-0.33,3.45,-4.57,-1.81,-3.78
15.20817995071411,2,1,3,3,-10.42,-1.38,3.91,-4.79,-2.61,-4.13
15.21817994117737,2,1,3,3,-10.71,-1.75,3.91,-3.99,-3.54,-4.32
15.22817993164062,2,1,3,3,-11.03,-2.01,3.71,-2.34,-4.08,-4.36
15.23817992210388,2,1,3,3,-11.1,-2.12,3.41,-0.04,-4.17,-4.04
15.24817991256714,2,1,3,3,-11.16,-1.85,3.13,2.06,-3.78,-3.26
15.25818014144897,2,1,3,3,-10.7,-1.56,2.87,3.69,-3.76,-2.11
15.26818013191223,2,1,3,3,-10.08,-1.4,2.49,5.22,-4.03,-0.63
15.27818012237549,2,1,3,3,-9.5,-1.11,2.33,6.45,-4.26,0.8
15.28818011283875,2,1,3,3,-8.630000000000001,-0.46,2.53,7.01,-4.11,2.07
15.298180103302,2,1,3,3,-8.199999999999999,-0.19,2.57,6.91,-3.91,2.88
15.30818009376526,2,1,3,3,-7.87,0.13,2.68,6.89,-3.87,3.16
15.31818008422852,2,1,3,3,-7.52,0.83,2.92,6.57,-3.61,2.88
15.32818007469177,2,1,3,3,-7.51,1.05,2.95,6.02,-3.25,2.24
15.33818006515503,2,1,3,3,-7.59,1.24,2.97,5.35,-2.94,1.24
15.34818005561829,2,1,3,3,-7.67,1.19,2.99,4.66,-2.85,0.25
15.35818004608154,2,1,3,3,-8.130000000000001,1.02,2.96,4.19,-3,-0.6899999999999999
15.3681800365448,2,1,3,3,-8.449999999999999,0.85,2.97,3.6,-3,-1.48
15.37818002700806,2,1,3,3,-8.630000000000001,0.64,2.82,2.83,-3.01,-2.18
15.38818001747131,2,1,3,3,-8.83,0.42,2.65,2.06,-3.12,-2.56
15.39818000793457,2,1,3,3,-9.1,-0.03,2.98,1.28,-2.93,-2.67
15.40817999839783,2,1,3,3,-9.029999999999999,0.1,3.1,0.63,-2.42,-2.24
15.41817998886108,2,1,3,3,-9,-0.11,3,0.13,-2.86,-2.28
15.42817997932434,2,1,3,3,-8.98,-0.25,2.97,-0.06,-3.47,-2.31
15.4381799697876,2,1,3,3,-9.039999999999999,-0.44,3.19,0.02,-3.29,-2.37
15.44817996025085,2,1,3,3,-9.039999999999999,-0.6899999999999999,3.44,-0.27,-3.16,-2.53
15.45817995071411,2,1,3,3,-9.08,-0.9,3.46,-0.43,-3,-2.74
15.46817994117737,2,1,3,3,-8.98,-1.15,3.37,0.2,-2.94,-2.91
15.47817993164062,2,1,3,3,-8.710000000000001,-1.31,3.8,1,-2.71,-2.83
15.48817992210388,2,1,3,3,-8.869999999999999,-1.32,3.93,1.33,-2.25,-2.48
15.49817991256714,2,1,3,3,-8.85,-1.37,3.64,1.19,-2.76,-2.19
15.50818014144897,2,1,3,3,-8.74,-1.28,3.6,1.52,-3.36,-1.75
15.51818013191223,2,1,3,3,-8.74,-1.28,3.6,1.6,-3.2,-1.29
15.52818012237549,2,1,3,3,-8.470000000000001,-1.26,3.53,1.92,-3.01,-0.9399999999999999
15.53818011283875,2,1,3,3,-8.49,-1.04,3.19,3.04,-2.27,-0.74
15.548180103302,2,1,3,3,-8.59,-0.98,3.25,3.3,-1.5,-0.62
15.55818009376526,2,1,3,3,-8.76,-1.06,3.37,3.19,-1.21,-0.49
15.56818008422852,2,1,3,3,-8.76,-1.06,3.37,3.19,-1.21,-0.49
15.57818007469177,2,1,3,3,-8.880000000000001,-1,3.5,3.14,-1.06,-0.49
15.58818006515503,2,1,3,3,-8.92,-0.78,3.69,3.56,-0.72,-0.79
15.59818005561829,2,1,3,3,-8.880000000000001,-0.71,3.73,3.88,-0.5,-0.92
15.60818004608154,2,1,3,3,-8.84,-0.71,3.79,4.34,-0.21,-0.96
15.6181800365448,2,1,3,3,-8.84,-0.71,3.79,4.34,-0.21,-0.96
15.62818002700806,2,1,3,3,-8.76,-0.6899999999999999,3.85,4.67,-0.23,-1.03
15.63818001747131,2,1,3,3,-8.68,-0.8,4.34,4.89,0.02,-1.07
15.64818000793457,2,1,3,3,-8.949999999999999,-0.82,4.59,4.75,0.43,-1.16
15.65817999839783,2,1,3,3,-9.23,-0.85,4.7,4.63,0.53,-1.2
15.66817998886108,2,1,3,3,-9.23,-0.85,4.7,4.63,0.53,-1.2
15.67817997932434,2,1,3,3,-9.91,-1.33,4.62,4.72,0.39,-1.28
15.6881799697876,2,1,3,3,-10.25,-1.67,4.71,5.24,0.45,-1.65
15.69817996025085,2,1,3,3,-10.47,-1.79,4.85,5.48,0.2,-1.8
15.70817995071411,2,1,3,3,-10.68,-1.8,5.16,5.85,-0.24,-1.84
15.71817994117737,2,1,3,3,-10.5,-0.93,5.19,5.85,-0.24,-1.84
15.72817993164062,2,1,3,3,-10.39,-0.64,5.02,6.34,-0.6899999999999999,-1.57
15.73817992210388,2,1,3,3,-10.71,-0.45,5.08,6.52,-0.25,-0.5600000000000001
15.74817991256714,2,1,3,3,-11.14,-0.18,5.13,6.04,-1.01,-0.59
15.75818014144897,2,1,3,3,-12.01,0.59,5.26,5.72,-1.77,-0.79
15.76818013191223,2,1,3,3,-12.29,1.24,5.21,5.72,-1.77,-0.79
15.77818012237549,2,1,3,3,-12.37,1.86,4.99,6.05,-2.74,-0.54
15.78818011283875,2,1,3,3,-12.27,2.51,4.31,5.54,-2.74,0.32
15.798180103302,2,1,3,3,-11.69,2.38,3.03,-0.72,-1.85,0.46
15.80818009376526,2,1,3,3,-11.13,1.5,4.04,-4.34,-2.91,-0.21
15.81818008422852,2,1,3,3,-10.49,0.75,5.27,-4.34,-2.91,-0.21
15.82818007469177,2,1,3,3,-8.18,0.03,4.91,-5.57,-3.16,-1.48
15.83818006515503,2,1,3,3,-7.88,-0.14,5.38,-5.49,0.4,-3.18
15.84818005561829,2,1,3,3,-7.92,-0.25,4.87,-3.73,2.48,-2.67
15.85818004608154,2,1,3,3,-8.09,0.12,4.54,-2.08,4.13,-1.25
15.8681800365448,2,1,3,3,-8.890000000000001,-0.01,2.35,-2.08,4.13,-1.25
15.87818002700806,2,1,3,2,-9.41,0.21,1.69,-0.75,6.52,0.39
15.88818001747131,2,1,3,2,-9.73,0.74,0.9,0.5,9.81,4.64
15.89818000793457,2,1,3,2,-10.17,1.37,0.1,0.47,9.35,6.23
15.90817999839783,2,1,3,2,-11.05,2.85,0,0.23,7.84,6.66
15.91817998886108,2,1,3,2,-10.98,3.06,0.09,0.23,7.84,6.66
15.92817997932434,2,1,3,2,-10.46,3.22,0.5,0.07000000000000001,6.01,5.92
15.93918013572693,2,1,3,2,-9.779999999999999,3.2,0.73,-0.96,2.55,3.86
15.94918012619019,2,1,3,2,-8.359999999999999,2.92,0.98,-1.52,1.56,3.28
15.95918011665344,2,1,3,2,-7.81,2.92,1.08,-2.08,1.58,2.99
15.9691801071167,2,1,3,2,-7.37,2.97,0.98,-2.08,1.58,2.99
15.97918009757996,2,1,3,2,-7.18,3.03,1.23,-2.81,2.67,2.83
15.98918008804321,2,1,3,2,-7,2.91,0.99,-3.52,4.83,2.58
15.99918007850647,2,1,3,2,-7.06,2.8,0.78,-3.99,5.8,2.41
16.00918006896973,2,1,3,2,-7.42,2.77,0.8,-4.88,6.18,2.48
16.01918005943298,2,1,3,2,-7.91,2.51,0.66,-4.88,6.18,2.48
16.02918004989624,2,1,3,2,-8.029999999999999,2.45,0.63,-5.64,6.34,2.72
16.0391800403595,2,1,3,2,-8.19,2.41,0.63,-7.48,5.9,3.48
16.04918003082275,2,1,3,2,-8.4,2.24,0.59,-8.279999999999999,5.85,3.65
16.05918002128601,2,1,3,2,-8.5,1.98,0.6,-9.039999999999999,5.67,3.61
16.06918001174927,2,1,3,2,-8.529999999999999,1.75,0.5600000000000001,-9.039999999999999,5.67,3.61
16.07918000221252,2,1,3,2,-8.550000000000001,1.43,0.48,-9.65,5.1,3.34
16.08917999267578,2,1,3,2,-8.68,1.1,0.71,-10.08,4.23,2.82
16.09917998313904,2,1,3,2,-9.02,0.77,1.15,-9.75,3.28,2.18
16.10917997360229,2,1,3,2,-9.18,0.76,1.25,-8.630000000000001,2.69,1.37
16.11917996406555,2,1,3,2,-9.289999999999999,0.71,1.12,-7.43,2.19,0.59
16.12917995452881,2,1,3,2,-9.380000000000001,0.76,1.09,-6.38,1.93,-0.01
16.13917994499207,2,1,3,2,-9.390000000000001,0.86,0.95,-5.83,1.58,-0.18
16.14917993545532,2,1,3,2,-9.52,0.83,0.62,-5.67,1.64,-0.09
16.15917992591858,2,1,3,2,-9.67,0.5600000000000001,0.77,-6.31,1.78,0.13
16.16917991638184,2,1,3,2,-9.539999999999999,0.07000000000000001,0.9,-7.2,1.49,0.47
16.17918014526367,2,1,3,2,-9.460000000000001,-0.57,1.55,-7.66,1.18,0.74
16.18918013572693,2,1,3,2,-9.130000000000001,-0.93,1.58,-7.82,0.9399999999999999,0.9399999999999999
16.19918012619019,2,1,3,2,-9.06,-1.2,1.66,-7.25,0.66,1.02
16.20918011665344,2,1,3,2,-9.24,-1.28,1.92,-6.15,0.31,1.05
16.2191801071167,2,1,3,2,-9.44,-1.03,2.24,-4.64,-0.04,1.1
16.22918009757996,2,1,3,2,-9.199999999999999,-0.78,1.97,-2.99,-0.23,1.19
16.23918008804321,2,1,3,2,-8.859999999999999,-0.51,1.86,-1.7,-0.23,1.59
16.24918007850647,2,1,3,2,-8.65,-0.13,1.62,-1.19,-0.19,2.35
16.25918006896973,2,1,3,2,-9.039999999999999,0.03,1.64,-0.85,-0.09,3.03
16.26918005943298,2,1,3,2,-9.35,0.27,1.71,-0.61,-0.13,3.48
16.27918004989624,2,1,3,2,-9.49,0.42,1.61,-0.55,-0.16,3.59
16.2891800403595,2,1,3,2,-9.42,0.41,1.4,-0.96,-0.35,3.41
16.29918003082275,2,1,3,2,-9.57,0.31,1.58,-2.2,-0.62,3.09
16.30918002128601,2,1,3,2,-9.68,0.13,1.94,-3.86,-0.8100000000000001,2.91
16.31918001174927,2,1,3,2,-9.67,0.08,2.02,-4.87,-0.99,3.01
16.32918000221252,2,1,3,1,-9.630000000000001,0.04,1.82,-5.54,-0.82,3.19
16.33917999267578,2,1,3,1,-9.57,0.04,1.57,-5.79,-0.35,3.44
16.34917998313904,2,1,3,1,-9.51,-0.03,1.29,-5.58,0.51,3.82
16.35917997360229,2,1,3,1,-9.470000000000001,-0.05,1.17,-4.89,1.74,4.2
16.36917996406555,2,1,3,1,-9.83,-0.17,1.32,-4.18,3.43,4.36
16.37917995452881,2,1,3,1,-10.17,-0.33,1.34,-3.41,4.8,4.14
16.38917994499207,2,1,3,1,-10.61,-0.41,1.13,-2.96,5.31,3.61
16.39917993545532,2,1,3,1,-11.17,-0.54,1,-3.53,5.21,2.86
16.40917992591858,2,1,3,1,-12.08,-0.5600000000000001,1.33,-4.84,4.2,2.19
16.41917991638184,2,1,3,1,-12.13,-0.53,1.72,-6.17,2.91,1.73
16.42918014526367,2,1,3,1,-11.99,-0.63,2,-7.55,1.93,1.35
16.43918013572693,2,1,3,1,-11.66,-1.09,2.08,-7.69,1.41,1.26
16.44918012619019,2,1,3,1,-11.5,-1.61,2.42,-7.04,2.37,0.91
16.45918011665344,2,1,3,1,-11.44,-1.67,2.51,-5.47,4.18,0.35
16.4691801071167,2,1,3,1,-11.65,-1.79,2.56,-4.28,6.85,-0.26
16.47918009757996,2,1,3,1,-12.13,-1.76,1.57,-2.89,9.619999999999999,-0.68
16.48918008804321,2,1,3,1,-12.04,-1.31,1.27,-1.37,11.17,-0.3
16.49918007850647,2,1,3,1,-12.01,-0.55,1.18,-0.19,11.55,0.79
16.50918006896973,2,1,3,1,-12.19,0.08,1.41,0.58,11.01,1.84
16.51918005943298,2,1,3,1,-12.47,1.17,1.01,1.59,9.779999999999999,2.73
16.52918004989624,2,1,3,1,-12.44,1.42,0.31,3.4,8.32,3.5
16.5391800403595,2,1,3,1,-11.97,1.71,-0.35,5.82,6.49,3.67
16.54918003082275,2,1,3,1,-11.19,2.28,-0.57,7.73,4.29,3.24
16.55918002128601,2,1,3,1,-9.960000000000001,3.08,-0.02,8.41,2.37,2.55
16.56918001174927,2,1,3,1,-9.18,4.29,0.5,9.449999999999999,1.17,1.7
16.57918000221252,2,1,3,1,-8.85,5.69,0.6,9.02,0.95,0.45
16.58917999267578,2,1,3,1,-8.640000000000001,6.39,0,7.62,0.51,-0.98
16.59917998313904,2,1,3,1,-8.67,6.49,-0.63,4.98,0.31,-3.62
16.60917997360229,2,1,3,1,-9.16,6.33,0.03,0.85,0.5600000000000001,-6.96
16.61917996406555,2,1,3,1,-9.789999999999999,5.93,1.03,-3.83,-0.4,-9.76
16.63917994499207,2,1,3,1,-10.56,2.96,2.32,-8.289999999999999,-1.9,-13.13
16.64917993545532,2,1,3,1,-10.61,1.65,2.3,-7.38,-0.92,-13.24
16.65917992591858,2,1,3,1,-10.91,0.52,2.42,-5.72,0.64,-12.42
16.66917991638184,2,1,3,1,-11.24,-0.66,2.42,-3.59,1.35,-11.24
16.67918014526367,2,1,3,0,-11.74,-1.16,2.37,-1.14,0.52,-9.470000000000001
16.68918013572693,2,1,3,0,-11.79,-0.73,1.94,1.19,-1.26,-7.39
16.69918012619019,2,1,3,0,-11.63,-0.29,1.28,3.19,-3.92,-5.35
16.70918011665344,2,1,3,0,-10.53,0.84,0.05,4.83,-6.69,-3.31
16.7191801071167,2,1,3,0,-10.05,1.37,-0.13,6.13,-8.24,-1.75
16.72918009757996,2,1,3,0,-9.720000000000001,1.59,0.05,6.42,-8.5,-0.9399999999999999
16.73918008804321,2,1,3,0,-9.050000000000001,1.76,0.28,6.28,-9,-0.54
16.74918007850647,2,1,3,0,-7.79,2.03,1.05,6.26,-9.59,-0.15
16.75918006896973,2,1,3,0,-7.37,1.99,1.73,5.38,-9.74,-0.06
16.76918005943298,2,1,3,0,-6.75,1.95,1.99,4.09,-10.37,-0.41
16.77918004989624,2,1,3,0,-6.14,1.85,1.94,4,-10.87,-1.06
16.7891800403595,2,1,3,0,-5.77,1.76,1.79,4.87,-10.27,-1.86
16.79918003082275,2,1,3,0,-5.91,1.53,1.78,5.14,-8.81,-2.76
16.80918002128601,2,1,3,0,-5.96,1.51,1.82,4.94,-7.48,-3.64
16.81918001174927,2,1,3,0,-6.17,1.23,1.83,4.68,-5.81,-4.14
16.82918000221252,2,1,3,0,-6.86,0.78,1.84,4.21,-3.79,-4.35
16.83917999267578,2,1,3,0,-7.31,0.59,1.79,3.55,-2.56,-4.16
16.84917998313904,2,1,3,0,-7.32,0.53,1.67,3.14,-2.16,-3.5
16.85917997360229,2,1,3,0,-7.55,0.15,1.66,2.89,-1.97,-2.88
16.86917996406555,2,1,3,0,-7.81,-0.15,1.94,2.85,-1.85,-2.18
16.87917995452881,2,1,3,0,-7.77,-0.25,2.08,2.69,-1.95,-1.28
16.88917994499207,2,1,3,0,-7.98,-0.31,2.23,2.85,-1.8,-0.51
16.89917993545532,2,1,3,0,-7.98,-0.32,2.24,3.33,-1.82,0.06
16.90917992591858,2,1,3,0,-8.01,-0.72,2.34,3.65,-1.78,0.46
16.91917991638184,2,1,3,0,-8.06,-0.98,2.39,3.88,-1.55,0.71
16.92918014526367,2,1,3,0,-8.109999999999999,-1.32,2.51,3.99,-1.26,0.76
16.93918013572693,2,1,3,0,-8.31,-1.84,2.44,3.91,-0.78,0.55
16.94918012619019,2,1,3,0,-8.4,-1.97,2.32,4.35,-0.23,0.06
16.96018004417419,2,1,3,0,-8.529999999999999,-2.12,2.36,4.82,0.5600000000000001,-0.37
16.97018003463745,2,1,3,0,-8.83,-2.17,2.49,5.36,1.34,-0.58
16.98018002510071,2,1,3,0,-9.460000000000001,-1.87,3.27,6.24,1.88,-0.6
16.99018001556396,2,1,3,0,-9.74,-1.78,3.31,7.1,1.84,-0.41
17.00018000602722,2,1,3,0,-9.949999999999999,-1.48,3.21,7.5,1.37,-0.21
17.01017999649048,2,1,3,0,-10.18,-1.36,3.39,8.24,0.7,-0.19
17.02017998695374,2,1,3,0,-9.880000000000001,-0.7,2.71,9.66,-0.92,-0.37
17.03017997741699,2,1,3,0,-9.77,-0.18,2.34,12.11,-1.79,-0.34
17.04017996788025,2,1,3,0,-9.9,0.32,2.16,14.36,-1.3,-0.05
17.05017995834351,2,1,3,0,-10.17,0.71,1.79,14.99,-0.31,0.34
17.06017994880676,2,1,3,0,-10.73,0.83,1.28,14.32,1.05,0.62
17.07017993927002,2,1,3,0,-11.23,0.49,1.89,11.79,2.29,0.44
17.08017992973328,2,1,3,0,-11.54,-0.16,2.47,7.14,1.87,0.02
17.09017992019653,2,1,3,0,-11.48,-1.04,2.85,2.94,0.5600000000000001,-0.57
17.10017991065979,2,1,3,0,-10.42,-2.08,4.28,0.49,-0.5600000000000001,-1.46
17.11018013954163,2,1,3,0,-9.699999999999999,-2.71,4.92,-0.65,-2.22,-2.84
17.12018013000488,2,1,3,0,-9.529999999999999,-2.64,5.51,0.73,-3.78,-4.9
17.13018012046814,2,1,3,0,-10.11,-1.82,6.2,5.82,-5.87,-6.98
17.1401801109314,2,1,3,0,-13.32,0.38,4.57,12.3,-8.029999999999999,-7.94
17.15018010139465,2,1,3,0,-16.53,1.78,4.28,16.35,-8.99,-8.619999999999999
17.16018009185791,2,1,3,0,-19.26,3.93,3.11,16.18,-9.779999999999999,-9.06
17.17018008232117,2,1,3,0,-22.75,7.13,-2.42,14.12,-8.199999999999999,-7.35
17.18018007278442,2,1,3,0,-21.06,7.33,-3.78,8.880000000000001,-2.51,-1.97
17.19018006324768,2,1,3,0,-15.63,4.91,-2.62,-3.07,-2.85,4.21
17.20018005371094,2,1,3,0,-9.289999999999999,4.3,1.78,-11.95,-11.34,8.94
17.21018004417419,2,1,3,0,-2.64,3.31,7.72,-13.49,-16.42,9.58
17.22018003463745,2,1,3,0,-2.46,3.14,7.42,-11.53,-11.06,6.95
17.23018002510071,2,1,3,0,-2.75,2.04,5.82,-7.41,-4.99,2.68
17.24018001556396,2,1,3,0,-4.16,0.76,4.09,-2.56,0.13,-1.21
17.25018000602722,2,1,3,0,-8.99,-0.48,1.14,1.43,6.25,-3.4
17.26017999649048,2,1,3,0,-10.79,-0.13,-0.46,2.62,11.22,-3.37
17.27017998695374,2,1,3,0,-12,0.74,-1.71,1.89,13.29,-1.01
17.28017997741699,2,1,3,0,-12.73,1.34,-2.27,0.4,12.61,2.81
17.29017996788025,2,1,3,0,-12.17,3.19,-0.46,-0.6,8.09,5.77
17.30017995834351,2,1,3,0,-10.69,3.45,0.49,-0.98,2.03,6.8
17.31017994880676,2,1,3,0,-9.32,3.39,1.18,-0.91,-1.34,6.13
17.32017993927002,2,1,3,0,-8.56,2.89,1.7,-0.53,-0.67,4.37
17.33017992973328,2,1,3,0,-7.77,2.67,2.04,-0.39,1.21,2.98
17.34017992019653,2,1,3,0,-7.3,2.48,1.61,-0.5,1.87,2.61
17.35017991065979,2,1,3,0,-6.96,2.45,1.31,0.25,1.62,3
17.36018013954163,2,1,3,0,-6.06,2.76,0.74,1.13,1.55,3.61
17.37018013000488,2,1,3,0,-5.56,3.06,0.62,1.63,1.96,4.35
17.38018012046814,2,1,3,0,-5.56,3.52,0.65,1.18,2.88,5.03
17.3901801109314,2,1,3,0,-5.58,3.84,0.59,-0.26,4.31,5.5
17.40018010139465,2,1,3,0,-6.33,3.89,0.38,-2.1,5.7,5.81
17.41018009185791,2,1,3,0,-7.22,3.74,0.51,-3.89,6.74,5.8
17.42018008232117,2,1,3,0,-7.95,3.52,0.65,-5.72,7.13,5.38
17.43018007278442,2,1,3,0,-8.48,3.47,0.75,-7,6.75,4.65
17.44018006324768,2,1,3,0,-8.130000000000001,2.94,0.35,-7.89,6.07,3.74
17.45018005371094,2,1,3,0,-7.99,2.78,0.23,-8.49,5.73,3.15
17.46018004417419,2,1,3,0,-8.25,2.49,0.45,-9.279999999999999,6.29,2.71
17.47018003463745,2,1,3,0,-8.51,2.19,0.53,-10.1,6.49,2.25
17.48018002510071,2,1,3,0,-9.220000000000001,1.93,0.27,-10.04,5.9,1.93
17.49018001556396,2,1,3,0,-9.52,1.65,0.34,-9.94,5.39,1.47
17.50018000602722,2,1,3,0,-9.859999999999999,1.42,0.42,-10.09,4.95,0.99
17.51017999649048,2,1,3,0,-10.14,0.91,0.25,-10.19,4.23,0.46
17.52017998695374,2,1,3,0,-10.57,0.24,0.73,-10,3.32,-0.1
17.53017997741699,2,1,3,0,-10.57,0.24,0.73,-10.55,2.2,-0.47
17.54017996788025,2,1,3,0,-10.74,-0.34,0.95,-10.22,0.99,-0.73
17.55017995834351,2,1,3,0,-10.48,-0.74,0.9,-9.84,-0.08,-0.68
17.56017994880676,2,1,3,0,-10.09,-1.26,1.8,-9.33,-0.59,-0.53
17.57017993927002,2,1,3,0,-9.82,-1.17,2,-8.41,-0.99,-0.3
17.58017992973328,2,1,3,1,-9.82,-1.17,2,-8.41,-0.99,-0.3
17.59017992019653,2,1,3,1,-9.6,-0.93,2.04,-6.86,-0.96,0.32
17.60017991065979,2,1,3,1,-9.289999999999999,0.44,1.83,-3.39,0.09,2.32
17.61018013954163,2,1,3,1,-9.140000000000001,0.91,1.82,-2.33,0.67,3.44
17.62018013000488,2,1,3,1,-9.01,1.21,1.52,-1.85,1.1,4.34
17.63018012046814,2,1,3,1,-9.01,1.21,1.52,-1.63,1.36,4.97
17.6401801109314,2,1,3,1,-8.539999999999999,1.39,0.95,-1.63,1.36,4.97
17.65018010139465,2,1,3,1,-8.880000000000001,0.9399999999999999,0.79,-3.47,1.17,5.64
17.66018009185791,2,1,3,1,-9.130000000000001,0.71,1.02,-4.67,0.66,5.36
17.67018008232117,2,1,3,1,-9.380000000000001,0.28,1.24,-5.75,-0.07000000000000001,4.71
17.68018007278442,2,1,3,1,-9.380000000000001,0.28,1.24,-5.75,-0.07000000000000001,4.71
17.69018006324768,2,1,3,1,-9.449999999999999,0.2,1.23,-6.43,-0.77,3.93
17.70018005371094,2,1,3,1,-9.5,0.14,1.15,-7.03,-1.78,2.43
17.71018004417419,2,1,3,1,-9.640000000000001,0.19,1.19,-7.43,-1.95,1.93
17.72018003463745,2,1,3,1,-9.619999999999999,0.16,1.35,-7.7,-1.98,1.63
17.73018002510071,2,1,3,1,-9.41,0.05,1.41,-7.7,-1.98,1.63
17.74018001556396,2,1,3,1,-9.25,-0.02,1.35,-7.92,-1.44,1.61
17.75018000602722,2,1,3,1,-9.26,-0.16,1.54,-7.36,1.1,1.17
17.76017999649048,2,1,3,1,-9.73,-0.73,1.66,-6.74,2.02,0.66
17.77017998695374,2,1,3,1,-10.08,-0.92,1.45,-5.92,2.42,0.2
17.78017997741699,2,1,3,1,-10.53,-1.05,1.26,-5.92,2.42,0.2
17.79017996788025,2,1,3,1,-10.92,-1.23,1.34,-6.03,2.39,0.03
17.80017995834351,2,1,3,1,-11.26,-1.66,2.02,-8.67,0.89,0.59
17.81017994880676,2,1,3,1,-11.12,-2.07,2.1,-9.210000000000001,0.14,0.74
17.82017993927002,2,1,3,1,-10.77,-2.54,2.46,-9.24,0.51,0.57
17.83017992973328,2,1,3,2,-9.960000000000001,-3.08,3.88,-9.24,0.51,0.57
17.84017992019653,2,1,3,2,-10.55,-3.29,4.15,-8.779999999999999,2.03,0.3
17.85017991065979,2,1,3,2,-11.23,-3.33,3.53,-3.47,4.94,-0.58
17.86018013954163,2,1,3,2,-11.58,-3.02,2.82,1.07,7.24,-0.76
17.87018013000488,2,1,3,2,-12.36,-1.22,1.4,4.94,10.29,-0.25
17.88018012046814,2,1,3,2,-12.61,0.1,1.2,4.94,10.29,-0.25
17.8901801109314,2,1,3,2,-12.88,1.09,0.88,7.09,12.44,1.27
17.90018010139465,2,1,3,2,-13.21,2.09,0.36,9.94,9.109999999999999,1.68
17.91018009185791,2,1,3,2,-12.73,2.9,-1.62,12.37,6.54,1.52
17.93018007278442,2,1,3,2,-11.12,3.59,-3.47,13.92,2.94,1.12
17.94018006324768,2,1,3,2,-10.32,3.9,-2.96,12.43,0.89,0.61
17.95018005371094,2,1,3,2,-8.619999999999999,5.71,-0.99,7.56,0.16,-1.46
17.96117997169495,2,1,3,2,-7.82,6.85,-0.79,4.27,0.98,-4.38
17.97018003463745,2,1,3,2,-7.31,7.76,-0.5,-1.48,1.76,-8.48
17.98018002510071,2,1,3,2,-7.29,7.75,-0.05,-1.48,1.76,-8.48
17.99117994308472,2,1,3,3,-9.550000000000001,7.6,2.27,-7.59,1.21,-12.01
18.00117993354797,2,1,3,3,-10.11,6.96,2.89,-12.59,-1.65,-15.7
18.01117992401123,2,1,3,3,-10.73,6.02,2.95,-11.13,-1.08,-15.79
18.02117991447449,2,1,3,3,-11.11,4.74,2.56,-9.16,0.66,-15.06
18.03118014335632,2,1,3,3,-11.29,0.8,1.9,-9.16,0.66,-15.06
18.05118012428284,2,1,3,3,-11.59,-2.36,1.87,-1.95,1.64,-7.28
18.06118011474609,2,1,3,3,-12.34,-2.92,1.37,0.48,-0.37,-4.13
18.07118010520935,2,1,3,3,-12.22,-2.51,0.82,2.55,-3.19,-1.7
18.08118009567261,2,1,3,3,-11.71,-1.65,0.39,2.55,-3.19,-1.7
18.09118008613586,2,1,3,3,-11.08,-0.79,0.21,4.12,-6.05,0.07000000000000001
18.10118007659912,2,1,3,3,-9.48,0.44,0.51,5.46,-8.119999999999999,0.84
18.11118006706238,2,1,3,3,-8.779999999999999,0.76,0.78,6.33,-9.4,0.91
18.12118005752563,2,1,3,3,-8.039999999999999,0.84,1.26,6.2,-9.9,0.64
18.13118004798889,2,1,3,3,-7.55,0.93,1.7,5.46,-9.880000000000001,0.17
18.14118003845215,2,1,3,3,-6.78,0.89,2.15,4.83,-9.93,-0.61
18.15118002891541,2,1,3,3,-6.5,0.74,2.2,5.01,-10.12,-1.58
18.16118001937866,2,1,3,3,-6.3,0.39,2.03,5.8,-9.83,-2.75
18.17118000984192,2,1,3,3,-6.25,-0.03,1.99,7.07,-9,-3.77
18.18118000030518,2,1,3,3,-6.36,-0.51,2.08,8.24,-7.4,-4.25
18.19117999076843,2,1,3,3,-6.73,-0.41,2.08,9.08,-5.37,-4.49
18.20117998123169,2,1,3,3,-7.13,-0.6,1.94,9.15,-3.49,-3.95
18.21117997169495,2,1,3,3,-7.38,-0.4,1.77,9.07,-2.3,-2.95
18.2211799621582,2,1,3,3,-8.07,-0.27,1.74,8.68,-1.66,-1.77
18.23117995262146,2,1,3,3,-8.210000000000001,0.03,1.76,8.33,-1.29,-0.34
18.24117994308472,2,1,3,3,-8.369999999999999,0.35,1.97,7.63,-1.01,0.74
18.25117993354797,2,1,3,3,-8.470000000000001,0.44,2.34,6.42,-1.29,1.41
18.26117992401123,2,1,3,3,-8.19,0.16,2.55,5.44,-2.64,1.82
18.27117991447449,2,1,3,3,-7.48,-0.08,1.99,5.71,-4.15,2.4
18.28118014335632,2,1,3,3,-6.89,-0.35,1.63,6.19,-2.98,2.73
18.29118013381958,2,1,3,3,-7.08,-0.66,2.23,5.48,-0.33,2.51
18.30118012428284,2,1,3,3,-7.3,-0.84,2.76,3.7,0.97,1.85
18.31118011474609,2,1,3,3,-7.24,-1.12,2.74,2.02,0.68,1.09
18.32118010520935,2,1,3,3,-7.18,-1.44,2.7,1.72,0.22,0.32
18.33118009567261,2,1,3,3,-7.9,-1.47,3.22,2.41,0.27,-0.57
18.34118008613586,2,1,3,2,-8.49,-1.37,3.52,3.68,-0.08,-1.3
18.35118007659912,2,1,3,2,-8.949999999999999,-1.37,3.2,5.56,-1.04,-1.94
18.36118006706238,2,1,3,2,-9.33,-1.3,2.42,8.01,-1.64,-2.32
18.37118005752563,2,1,3,2,-10.42,-1.01,1.94,9.58,-1.26,-2.33
18.38118004798889,2,1,3,2,-10.99,-0.67,2.21,10.72,-1.28,-1.8
18.39118003845215,2,1,3,2,-11.21,-0.23,1.82,12.15,-1.78,-0.97
18.40118002891541,2,1,3,2,-11.22,0.02,0.97,13.77,-1.38,-0.25
18.41118001937866,2,1,3,2,-12.41,-0.16,1.42,13.18,-0.37,-0.18
18.42118000984192,2,1,3,2,-13.04,-0.8,2.35,8.41,-0.77,-0.76
18.43118000030518,2,1,3,2,-13.14,-1.51,2.83,3.4,-2.74,-1.75
18.44117999076843,2,1,3,2,-12.54,-2.11,3.18,0.49,-4.95,-2.75
18.45117998123169,2,1,3,2,-10.64,-3.61,4.42,-0.2,-5.39,-3.63
18.46117997169495,2,1,3,2,-10.19,-4.11,5.48,1.49,-4.9,-4.7
18.4711799621582,2,1,3,2,-10.61,-4.34,6.61,4.35,-4.97,-6.2
18.48117995262146,2,1,3,2,-11.26,-3.89,7.23,9.460000000000001,-7.55,-7.79
18.49117994308472,2,1,3,2,-11.95,-0.83,5.14,17.31,-11.35,-7.89
18.50117993354797,2,1,3,2,-13.41,0.63,4.64,21.91,-10.55,-7.27
18.51117992401123,2,1,3,2,-15.63,2.45,4.48,20.49,-7.21,-6.61
18.52117991447449,2,1,3,2,-18.29,6.77,-0.35,16.83,-3.45,-4.13
18.53118014335632,2,1,3,2,-19.22,7.78,-1.47,10.63,1.3,-0.64
18.54118013381958,2,1,3,1,-17.93,7.73,-1.21,0.82,2.43,4.31
18.55118012428284,2,1,3,1,-13.58,6.31,0.28,-8.029999999999999,-2.65,8.539999999999999
18.56118011474609,2,1,3,1,-6.89,5.13,3.9,-14.32,-7.55,10.06
18.57118010520935,2,1,3,1,-5.07,4.81,4.67,-17.08,-8.01,8.380000000000001
18.58118009567261,2,1,3,1,-4.1,3.99,4.79,-15.74,-5.46,4.45
18.59118008613586,2,1,3,1,-4.22,2.5,4.26,-11.54,-2.16,0.67
18.60118007659912,2,1,3,1,-6.76,-0.37,2.61,-6.48,2.38,-2.09
18.61118006706238,2,1,3,1,-8.130000000000001,-0.79,1.49,-3.29,7.31,-3.12
18.62118005752563,2,1,3,1,-9,-0.84,0.16,-2.28,11.15,-1.66
18.63118004798889,2,1,3,1,-9.76,-0.4,-0.92,-2.64,12.21,1.4
18.64118003845215,2,1,3,1,-11.88,1.12,-0.7,-2.88,8.93,4.33
18.65118002891541,2,1,3,1,-11.6,2,0.31,-1.89,2.56,5.98
18.66118001937866,2,1,3,1,-10.59,2.4,0.93,-0.41,-2.86,5.77
18.67118000984192,2,1,3,1,-9.25,2.58,1.36,0.9,-4.65,4.54
18.68118000030518,2,1,3,1,-7.21,2.46,1.59,1.67,-2.98,3.61
18.69117999076843,2,1,3,1,-6.85,2.36,1.58,2,-0.37,3.23
18.70117998123169,2,1,3,1,-6.61,2.37,1.58,2.11,1.43,3.53
18.71117997169495,2,1,3,1,-6.46,2.55,1.36,2.1,2.73,4.38
18.7211799621582,2,1,3,1,-6.16,3.06,0.88,1.58,3.94,5.29
18.73117995262146,2,1,3,1,-6.02,3.27,0.78,0.09,4.93,5.97
18.74117994308472,2,1,3,1,-5.87,3.37,0.74,-1.78,5.77,6.41
18.75117993354797,2,1,3,1,-6.57,3.96,0.74,-3.57,6.67,6.86
18.76117992401123,2,1,3,1,-7.2,3.64,0.84,-5.8,7.39,6.88
18.77117991447449,2,1,3,1,-7.75,3.42,0.77,-7.52,7.49,6.34
18.78118014335632,2,1,3,1,-8.26,3.08,0.68,-8.43,7.57,5.36
18.79118013381958,2,1,3,1,-8.65,2.66,0.55,-9.220000000000001,7.18,4.53
18.80118012428284,2,1,3,1,-8.890000000000001,2.45,0.34,-9.92,6.75,3.78
18.81118011474609,2,1,3,1,-9.369999999999999,2.1,0.14,-10.29,6.61,3.08
18.82118010520935,2,1,3,1,-9.710000000000001,1.83,0.11,-10.69,6.27,2.41
18.83118009567261,2,1,3,1,-9.91,0.65,0.26,-11.61,5.71,1.71
18.84118008613586,2,1,3,1,-10.02,0.11,0.55,-12.76,4.81,1.12
18.85118007659912,2,1,3,1,-9.960000000000001,-0.47,0.77,-13.52,3.34,0.52
18.86118006706238,2,1,3,1,-10.1,-1,1.24,-13.62,1.85,0.02
18.87118005752563,2,1,3,1,-10.12,-1.74,1.63,-12.64,0.16,-0.38
18.88118004798889,2,1,3,1,-10.08,-2.03,1.73,-10.62,-0.66,-0.7
18.89118003845215,2,1,3,1,-9.83,-2.31,1.76,-8.73,-0.77,-0.77
18.90118002891541,2,1,3,1,-9.52,-2.25,1.86,-6.69,-0.63,-0.33
18.91118001937866,2,1,3,1,-8.960000000000001,-1.97,1.99,-4.97,-0.17,0.6
18.92118000984192,2,1,3,1,-9.06,-1.51,2.12,-3.2,0.11,2.09
18.93118000030518,2,1,3,1,-9.220000000000001,-1.04,1.96,-1.47,0.54,3.61
18.94117999076843,2,1,3,1,-9.31,-0.44,1.81,0.18,0.65,4.89
18.95117998123169,2,1,3,1,-9.109999999999999,0.25,1.26,1.01,0.51,5.91
18.96117997169495,2,1,3,1,-9.06,0.49,1,1.38,0.34,6.49
18.9711799621582,2,1,3,1,-9.140000000000001,0.62,0.95,0.86,0.08,6.66
18.98117995262146,2,1,3,1,-9.42,0.64,1.19,-0.15,-0.59,6.38
18.99117994308472,2,1,3,2,-9.6,0.76,1.4,-1.17,-1.48,5.75
19.01218008995056,2,1,3,2,-9.68,0.92,1.47,-3.42,-2.99,3.77
19.02218008041382,2,1,3,2,-9.49,1.07,1.46,-4.69,-3.25,2.93
19.03218007087708,2,1,3,2,-9.4,0.91,1.31,-6.22,-3.1,2.46
19.04218006134033,2,1,3,2,-9.210000000000001,0.77,1.41,-7.22,-2.46,2.22
19.05218005180359,2,1,3,2,-9.15,0.49,1.84,-7.65,-1.12,2.18
19.06218004226685,2,1,3,2,-9.119999999999999,-0.43,1.73,-6.97,0.73,1.95
19.0721800327301,2,1,3,2,-9.289999999999999,-0.98,1.3,-5.57,2.58,1.18
19.08218002319336,2,1,3,2,-9.77,-1.3,1.25,-4.9,3.8,0.12
19.09218001365662,2,1,3,2,-10.5,-1.62,1.34,-5.77,4.16,-0.42
19.10218000411987,2,1,3,2,-11.96,-1.5,2.46,-7.28,3.4,-0.34
19.11217999458313,2,1,3,2,-12,-1.38,2.87,-8.65,1.73,0.14
19.12217998504639,2,1,3,2,-11.58,-1.23,3.41,-8.58,0.4,0.7
19.13217997550964,2,1,3,2,-10.92,-1.18,3.81,-7.57,0.8,1.04
19.1421799659729,2,1,3,2,-10.94,-1.04,3.67,-6.07,2.29,0.6
19.15217995643616,2,1,3,2,-10.79,-1.01,3.22,-3.8,5.19,-0.47
19.16217994689941,2,1,3,2,-10.71,-1.19,2.05,-1.53,9.82,-1.54
19.17217993736267,2,1,3,2,-11.01,-0.75,1.1,1.16,15.07,-1.62
19.18217992782593,2,1,3,2,-12.98,0.53,0.51,2.15,18.17,-1.38
19.19217991828918,2,1,3,3,-13.92,1,-0.47,2.03,18.41,-0.43
19.20217990875244,2,1,3,3,-14.16,1.92,-1.32,3.56,16,1.24
19.21218013763428,2,1,3,3,-13.25,2.94,-1.53,5.62,11.15,2.62
19.22218012809753,2,1,3,3,-11.92,3.52,-1.18,7.39,5.11,3.27
19.23218011856079,2,1,3,3,-10.36,4.42,-0.96,9.449999999999999,0.54,2.97
19.24218010902405,2,1,3,3,-8.869999999999999,5.86,-0.65,10.21,-1.57,1.73
19.2521800994873,2,1,3,3,-8.59,7.87,0.01,7.78,-1.36,-0.31
19.26218008995056,2,1,3,3,-8.81,7.65,0.53,3.29,-0.62,-4.05
19.27218008041382,2,1,3,3,-9.49,7.34,1.52,-2.28,-0.77,-9.09
19.28218007087708,2,1,3,3,-10.24,6.99,2.54,-7.21,-2.89,-13.35
19.29218006134033,2,1,3,3,-11.18,5.06,2.8,-10.08,-4.74,-16.51
19.30218005180359,2,1,3,3,-10.89,3.56,2.46,-10.02,-4.32,-18.1
19.31218004226685,2,1,3,3,-10.57,1.89,2.16,-9.199999999999999,-1.94,-17.79
19.3221800327301,2,1,3,3,-10.6,-0.02,1.97,-9.06,1.63,-15.97
19.33218002319336,2,1,3,3,-11.3,-2.42,1.94,-7.98,3.96,-13.16
19.34218001365662,2,1,3,3,-11.44,-2.85,1.77,-5.53,3.76,-9.83
19.35218000411987,2,1,3,3,-11.77,-2.8,1.52,-2.28,1.54,-6.6
19.36217999458313,2,1,3,3,-11.64,-2.15,1.12,1.17,-1.71,-4.26
19.37217998504639,2,1,3,3,-10.06,-0.5,0.78,4.27,-4.99,-2.5
19.38217997550964,2,1,3,3,-9.4,-0.06,0.96,6.64,-7.37,-1.58
19.3921799659729,2,1,3,3,-8.9,0.42,1.28,8.17,-8.48,-1.14
19.40217995643616,2,1,3,3,-8.41,0.96,1.54,8.9,-9.289999999999999,-0.82
19.41217994689941,2,1,3,3,-7.48,1.47,1.37,9,-9.34,-0.68
19.42217993736267,2,1,3,3,-6.99,1.4,1.39,8.630000000000001,-8.880000000000001,-0.73
19.43217992782593,2,1,3,3,-6.65,1.39,1.5,8.27,-8.35,-0.95
19.44217991828918,2,1,3,3,-5.79,1.2,1.54,8.109999999999999,-8.140000000000001,-1.22
19.45217990875244,2,1,3,3,-5.79,1.2,1.54,7.66,-7.93,-1.54
19.46218013763428,2,1,3,3,-5.79,0.63,1.71,7.24,-7.21,-2.11
19.47218012809753,2,1,3,3,-5.88,0.46,1.83,7.07,-6.11,-2.62
19.48218011856079,2,1,3,3,-6.61,0.48,2,7.14,-4.72,-2.9
19.49218010902405,2,1,3,3,-6.61,0.48,2,7.09,-3.02,-2.99
19.5021800994873,2,1,3,3,-7.03,0.64,2.06,6.66,-1.75,-2.87
19.51218008995056,2,1,3,3,-7.99,0.64,2.06,6.03,-1.19,-2.56
19.52218008041382,2,1,3,3,-8.140000000000001,0.42,1.93,5.79,-1.35,-2
