timestamp,magCalib,accCalib,gyrCalib,sysCalib,accX,accY,accZ,gyrX,gyrY,gyrZ
-0.07681989669799805,2,3,3,3,-9.539999999999999,-0.73,2.31,0.1,0.04,-0.08
-0.06681990623474121,2,3,3,3,-9.529999999999999,-0.73,2.22,0.14,0.09,-0.1
-0.05581998825073242,2,3,3,3,-9.539999999999999,-0.73,2.28,0.27,0.02,-0.13
-0.04581999778747559,2,3,3,3,-9.5,-0.75,2.37,0.27,0.02,-0.13
-0.03582000732421875,2,3,3,3,-9.449999999999999,-0.77,2.39,0.3,-0.05,-0.11
-0.02582001686096191,2,3,3,3,-9.449999999999999,-0.78,2.38,0.09,0.01,-0.05
-0.01582002639770508,2,3,3,3,-9.460000000000001,-0.8,2.29,0.22,-0.01,0.02
-0.005820035934448242,2,3,3,3,-9.51,-0.8,2.32,0.26,-0.05,0.06
0.004179954528808594,2,3,3,3,-9.51,-0.78,2.32,0.26,-0.05,0.06
0.01417994499206543,2,3,3,3,-9.539999999999999,-0.8,2.37,0.32,-0.07000000000000001,0.06
0.02417993545532227,2,3,3,3,-9.539999999999999,-0.8100000000000001,2.43,0.32,-0.13,0.05
0.0341799259185791,2,3,3,3,-9.52,-0.8100000000000001,2.29,0.25,-0.08,0.04
0.04417991638183594,2,3,3,3,-9.51,-0.83,2.31,0.22,-0.05,0.06
0.05418014526367188,2,3,3,3,-9.52,-0.8,2.37,0.13,-0.05,0.06
0.06418013572692871,2,3,3,3,-9.51,-0.77,2.4,0.01,0.01,-0.01
0.07418012619018555,2,3,3,3,-9.52,-0.8,2.36,-0.01,0.03,-0.02
0.08418011665344238,2,3,3,3,-9.56,-0.79,2.26,-0.01,0,-0.03
0.09418010711669922,2,3,3,3,-9.56,-0.8,2.29,0,-0.01,-0.08
0.1041800975799561,2,3,3,3,-9.539999999999999,-0.83,2.29,0.05,0.08,-0.13
0.1141800880432129,2,3,3,3,-9.539999999999999,-0.84,2.34,0.14,0.1,-0.13
0.1241800785064697,2,3,3,3,-9.52,-0.86,2.31,0.23,0.02,-0.1
0.1341800689697266,2,3,3,3,-9.51,-0.85,2.23,0.37,-0.06,-0.12
0.1441800594329834,2,3,3,3,-9.5,-0.84,2.33,0.35,-0.03,-0.07000000000000001
0.1541800498962402,2,3,3,3,-9.49,-0.82,2.42,0.35,-0.03,-0.07000000000000001
0.1641800403594971,2,3,3,3,-9.49,-0.83,2.37,0.24,-0.01,-0.07000000000000001
0.1741800308227539,2,3,3,3,-9.49,-0.8100000000000001,2.41,0.1,0.11,-0.06
0.1841800212860107,2,3,3,3,-9.5,-0.78,2.21,-0.01,0.14,-0.06
0.1941800117492676,2,3,3,3,-9.52,-0.77,2.25,0,0.2,-0.05
0.2041800022125244,2,3,3,3,-9.539999999999999,-0.75,2.31,0,0.2,-0.05
0.2141799926757812,2,3,3,3,-9.550000000000001,-0.73,2.39,0.09,0.28,-0.1
0.2241799831390381,2,3,3,3,-9.539999999999999,-0.75,2.4,0.07000000000000001,0.27,-0.1
0.2341799736022949,2,3,3,3,-9.460000000000001,-0.75,2.25,-0.14,0.4,-0.08
0.2441799640655518,2,3,3,3,-9.48,-0.74,2.22,-0.1,0.43,-0.07000000000000001
0.2541799545288086,2,3,3,3,-9.51,-0.73,2.32,-0.1,0.43,-0.07000000000000001
0.2641799449920654,2,3,3,3,-9.5,-0.73,2.45,-0.05,0.35,-0.07000000000000001
0.2741799354553223,2,3,3,3,-9.56,-0.72,2.49,0.06,0.09,-0.08
0.2841799259185791,2,3,3,3,-9.51,-0.72,2.32,0,0.1,-0.1
0.2941799163818359,2,3,3,3,-9.539999999999999,-0.74,2.29,0.01,0.03,-0.14
0.3041801452636719,2,3,3,3,-9.5,-0.77,2.34,0.01,0.03,-0.14
0.3141801357269287,2,3,3,3,-9.470000000000001,-0.8,2.33,0.12,0.17,-0.07000000000000001
0.3241801261901855,2,3,3,3,-9.529999999999999,-0.79,2.42,0.12,0.1,-0.04
0.3341801166534424,2,3,3,3,-9.49,-0.82,2.24,0.08,0.06,-0.04
0.3441801071166992,2,3,3,3,-9.51,-0.82,2.31,0.09,-0.03,-0.02
0.3541800975799561,2,3,3,3,-9.5,-0.8100000000000001,2.4,0.09,-0.03,-0.02
0.3641800880432129,2,3,3,3,-9.51,-0.8,2.42,0.07000000000000001,-0.11,-0.01
0.3741800785064697,2,3,3,3,-9.539999999999999,-0.83,2.29,0.16,-0.12,0
0.3841800689697266,2,3,3,3,-9.56,-0.85,2.21,0.35,-0.25,0.03
0.3941800594329834,2,3,3,3,-9.57,-0.78,2.22,0.37,-0.39,0.03
0.4041800498962402,2,3,3,3,-9.5,-0.79,2.27,0.37,-0.39,0.03
0.4141800403594971,2,3,3,3,-9.460000000000001,-0.8,2.23,0.27,-0.37,0.03
0.4241800308227539,2,3,3,3,-9.51,-0.8100000000000001,2.32,0.28,-0.18,0.08
0.4341800212860107,2,3,3,3,-9.51,-0.78,2.24,0.19,-0.18,0.1
0.4441800117492676,2,3,3,3,-9.5,-0.79,2.25,0.28,-0.14,0.09
0.4541800022125244,2,3,3,3,-9.5,-0.78,2.41,0.28,-0.14,0.09
0.4641799926757812,2,3,3,3,-9.5,-0.8100000000000001,2.37,0.11,-0.01,0.05
0.4741799831390381,2,3,3,3,-9.550000000000001,-0.79,2.38,0.1,-0.01,0.05
0.4841799736022949,2,3,3,3,-9.59,-0.76,2.31,0.03,-0.08,0.01
0.4941799640655518,2,3,3,3,-9.529999999999999,-0.76,2.28,0.07000000000000001,-0.12,-0.02
0.5041799545288086,2,3,3,3,-9.550000000000001,-0.76,2.36,0.07000000000000001,-0.12,-0.02
0.5141799449920654,2,3,3,3,-9.56,-0.76,2.41,0.23,-0.17,-0.04
0.5241799354553223,2,3,3,3,-9.52,-0.8,2.4,0.16,-0.34,-0.05
0.5341799259185791,2,3,3,3,-9.48,-0.82,2.24,0.2,-0.25,0
0.5441799163818359,2,3,3,3,-9.5,-0.8,2.3,0.28,-0.32,-0.01
0.5541801452636719,2,3,3,3,-9.48,-0.79,2.37,0.28,-0.32,-0.01
0.5641801357269287,2,3,3,3,-9.44,-0.86,2.49,0.18,-0.31,0
0.5741801261901855,2,3,3,3,-9.52,-0.8100000000000001,2.51,0.15,-0.23,-0.01
0.5841801166534424,2,3,3,3,-9.5,-0.83,2.32,0.05,-0.1,0.03
0.5941801071166992,2,3,3,3,-9.51,-0.8100000000000001,2.34,0.05,-0.1,0.03
0.6041800975799561,2,3,3,3,-9.56,-0.77,2.45,0.21,-0.21,-0.01
0.6141800880432129,2,3,3,3,-9.49,-0.79,2.36,0.12,-0.32,-0.03
0.6241800785064697,2,3,3,3,-9.460000000000001,-0.78,2.33,0.05,-0.2,-0.09
0.6341800689697266,2,3,3,3,-9.52,-0.8,2.3,0.09,-0.09,-0.13
0.6441800594329834,2,3,3,3,-9.52,-0.82,2.36,0.18,-0.04,-0.19
0.6541800498962402,2,3,3,3,-9.57,-0.83,2.43,0.22,-0.03,-0.15
0.6641800403594971,2,3,3,3,-9.59,-0.84,2.51,0.29,-0.17,-0.15
0.6741800308227539,2,3,3,3,-9.51,-0.79,2.45,0.2,-0.31,-0.17
0.6841800212860107,2,3,3,3,-9.44,-0.73,2.38,0.13,-0.21,-0.16
0.6941800117492676,2,3,3,3,-9.470000000000001,-0.73,2.42,0.22,-0.11,-0.13
0.7041800022125244,2,3,3,3,-9.449999999999999,-0.75,2.43,0.18,-0.22,-0.15
0.7141799926757812,2,3,3,3,-9.449999999999999,-0.75,2.42,0.07000000000000001,-0.22,-0.13
0.7241799831390381,2,3,3,3,-9.470000000000001,-0.8100000000000001,2.39,0.13,-0.15,-0.17
0.7341799736022949,2,3,3,3,-9.48,-0.84,2.28,0.08,-0.08,-0.16
0.7441799640655518,2,3,3,3,-9.460000000000001,-0.87,2.28,0,0.01,-0.16
0.7541799545288086,2,3,3,3,-9.48,-0.84,2.34,0.05,0.13,-0.14
0.7641799449920654,2,3,3,3,-9.51,-0.83,2.4,0.16,0.12,-0.13
0.7741799354553223,2,3,3,3,-9.52,-0.82,2.48,0.24,0.08,-0.12
0.7841799259185791,2,3,3,3,-9.529999999999999,-0.8,2.4,0.33,0.02,-0.11
0.7941799163818359,2,3,3,3,-9.5,-0.73,2.51,0.35,-0.03,-0.09
0.8041801452636719,2,3,3,3,-9.48,-0.74,2.46,0.2,-0.04,-0.08
0.8141801357269287,2,3,3,3,-9.48,-0.73,2.43,0.04,0.03,-0.08
0.8241801261901855,2,3,3,3,-9.470000000000001,-0.71,2.46,0.02,0.09,-0.08
0.8341801166534424,2,3,3,3,-9.460000000000001,-0.6899999999999999,2.34,0.03,0.21,-0.04
0.8441801071166992,2,3,3,3,-9.470000000000001,-0.6899999999999999,2.4,0.03,0.24,-0.03
0.8541800975799561,2,3,3,3,-9.449999999999999,-0.6899999999999999,2.4,-0.01,0.24,0.02
0.8641800880432129,2,3,3,3,-9.449999999999999,-0.7,2.47,0.01,0.28,-0.01
0.8741800785064697,2,3,3,3,-9.470000000000001,-0.75,2.46,-0.03,0.3,-0.07000000000000001
0.8841800689697266,2,3,3,3,-9.49,-0.77,2.34,-0.1,0.27,-0.08
0.8941800594329834,2,3,3,3,-9.52,-0.8,2.34,-0.13,0.33,-0.1
0.9041800498962402,2,3,3,3,-9.5,-0.84,2.4,-0.07000000000000001,0.32,-0.1
0.9141800403594971,2,3,3,3,-9.5,-0.84,2.39,-0.03,0.31,-0.13
0.9241800308227539,2,3,3,3,-9.49,-0.82,2.42,-0.04,0.35,-0.1
0.9341800212860107,2,3,3,3,-9.51,-0.8100000000000001,2.31,0.04,0.44,-0.08
0.9451799392700195,2,3,3,3,-9.49,-0.74,2.5,0.28,0.41,-0.04
0.9541800022125244,2,3,3,3,-9.43,-0.74,2.45,0.38,0.29,-0.01
0.9651799201965332,2,3,3,3,-9.4,-0.73,2.41,0.23,0.23,-0.02
0.97517991065979,2,3,3,3,-9.42,-0.73,2.46,0.26,0.3,-0.04
0.985180139541626,2,3,3,3,-9.460000000000001,-0.71,2.32,0.35,0.35,-0.06
0.9951801300048828,2,3,3,3,-9.470000000000001,-0.72,2.35,0.32,0.32,-0.05
1.00518012046814,2,3,3,3,-9.51,-0.73,2.39,0.22,0.32,-0.06
1.015180110931396,2,3,3,3,-9.529999999999999,-0.71,2.42,0.22,0.3,-0.05
1.025180101394653,2,3,3,3,-9.52,-0.74,2.38,0.2,0.36,-0.07000000000000001
1.03518009185791,2,3,3,3,-9.529999999999999,-0.73,2.34,0.26,0.36,-0.03
1.045180082321167,2,3,3,3,-9.5,-0.73,2.37,0.19,0.23,-0.05
1.055180072784424,2,3,3,3,-9.51,-0.75,2.44,0.2,0.15,-0.06
1.065180063247681,2,3,3,3,-9.51,-0.77,2.46,0.13,0.07000000000000001,-0.04
1.075180053710938,2,3,3,3,-9.49,-0.78,2.42,0.06,0.1,-0.01
1.085180044174194,2,3,3,3,-9.460000000000001,-0.8,2.27,0,0.15,0.01
1.095180034637451,2,3,3,3,-9.48,-0.77,2.37,0.11,0.13,0.03
1.105180025100708,2,3,3,3,-9.470000000000001,-0.76,2.39,0.11,0.06,0.05
1.115180015563965,2,3,3,3,-9.49,-0.77,2.39,0.05,0.1,0.07000000000000001
1.125180006027222,2,3,3,3,-9.470000000000001,-0.76,2.39,0.02,0.18,0.05
1.135179996490479,2,3,3,3,-9.52,-0.75,2.26,0.02,0.2,0.04
1.145179986953735,2,3,3,3,-9.550000000000001,-0.73,2.38,0.1,0.29,0.01
1.155179977416992,2,3,3,3,-9.539999999999999,-0.73,2.43,0.19,0.19,0.01
1.165179967880249,2,3,3,3,-9.52,-0.71,2.46,0.15,0.07000000000000001,0.02
1.175179958343506,2,3,3,3,-9.48,-0.74,2.34,0,0.06,0.04
1.185179948806763,2,3,3,3,-9.529999999999999,-0.73,2.22,-0.09,0.14,0.03
1.19517993927002,2,3,3,3,-9.539999999999999,-0.73,2.35,-0.09,0.08,0.01
1.205179929733276,2,3,3,3,-9.5,-0.74,2.36,-0.14,0.07000000000000001,-0.02
1.215179920196533,2,3,3,3,-9.51,-0.77,2.4,-0.23,0.1,-0.08
1.22517991065979,2,3,3,3,-9.51,-0.77,2.4,-0.23,0.16,-0.11
1.235180139541626,2,3,3,3,-9.48,-0.77,2.3,-0.24,0.21,-0.13
1.245180130004883,2,3,3,3,-9.49,-0.79,2.3,-0.2,0.27,-0.14
1.25518012046814,2,3,3,3,-9.51,-0.83,2.4,-0.23,0.28,-0.1
1.265180110931396,2,3,3,3,-9.51,-0.8100000000000001,2.38,-0.32,0.2,-0.1
1.275180101394653,2,3,3,3,-9.529999999999999,-0.8100000000000001,2.35,-0.37,0.17,-0.08
1.28518009185791,2,3,3,3,-9.550000000000001,-0.82,2.34,-0.23,0.09,-0.07000000000000001
1.295180082321167,2,3,3,3,-9.49,-0.79,2.4,-0.09,0.03,-0.04
1.305180072784424,2,3,3,3,-9.48,-0.8,2.35,-0.06,0.06,-0.07000000000000001
1.315180063247681,2,3,3,3,-9.460000000000001,-0.8,2.38,-0.12,0.13,-0.06
1.325180053710938,2,3,3,3,-9.470000000000001,-0.83,2.32,-0.07000000000000001,0.13,-0.09
1.335180044174194,2,3,3,3,-9.51,-0.8,2.26,-0.11,0.13,-0.11
1.345180034637451,2,3,3,3,-9.56,-0.78,2.29,-0.05,0.13,-0.09
1.355180025100708,2,3,3,3,-9.529999999999999,-0.8,2.37,-0.01,0.09,-0.09
1.365180015563965,2,3,3,3,-9.58,-0.8,2.44,0.04,0.07000000000000001,-0.1
1.375180006027222,2,3,3,3,-9.539999999999999,-0.8100000000000001,2.38,0.02,-0.01,-0.07000000000000001
1.385179996490479,2,3,3,3,-9.52,-0.85,2.27,-0.01,0.01,-0.11
1.395179986953735,2,3,3,3,-9.51,-0.82,2.28,0.02,-0.03,-0.1
1.405179977416992,2,3,3,3,-9.470000000000001,-0.84,2.3,-0.04,0,-0.09
1.415179967880249,2,3,3,3,-9.470000000000001,-0.82,2.36,-0.05,0.03,-0.03
1.425179958343506,2,3,3,3,-9.49,-0.86,2.32,-0.05,0,-0.03
1.435179948806763,2,3,3,3,-9.52,-0.84,2.24,-0.01,0.04,-0.01
1.44517993927002,2,3,3,3,-9.52,-0.84,2.31,0.05,0.08,0.02
1.455179929733276,2,3,3,3,-9.539999999999999,-0.82,2.35,0.11,-0.06,0
1.465179920196533,2,3,3,3,-9.550000000000001,-0.78,2.4,0.27,-0.22,0
1.47517991065979,2,3,3,3,-9.52,-0.8100000000000001,2.3,0.27,-0.36,-0.03
1.485180139541626,2,3,3,3,-9.52,-0.84,2.27,0.23,-0.32,-0.01
1.495180130004883,2,3,3,3,-9.539999999999999,-0.84,2.34,0.26,-0.23,-0.06
1.50518012046814,2,3,3,3,-9.460000000000001,-0.86,2.29,0.23,-0.16,-0.07000000000000001
1.515180110931396,2,3,3,3,-9.49,-0.9,2.32,0.11,0.02,-0.07000000000000001
1.525180101394653,2,3,3,3,-9.5,-0.93,2.28,0.12,0.02,-0.05
1.53518009185791,2,3,3,3,-9.49,-0.91,2.17,0.03,-0.08,-0.02
1.545180082321167,2,3,3,3,-9.5,-0.89,2.15,0.02,-0.01,-0.01
1.555180072784424,2,3,3,3,-9.52,-0.87,2.24,0.16,0,0.02
1.565180063247681,2,3,3,3,-9.52,-0.87,2.3,0.31,-0.01,0.06
1.575180053710938,2,3,3,3,-9.49,-0.87,2.31,0.33,-0.08,0.05
1.585180044174194,2,3,3,3,-9.48,-0.9,2.19,0.3,-0.01,0.07000000000000001
1.595180034637451,2,3,3,3,-9.49,-0.88,2.2,0.33,0.06,0.08
1.605180025100708,2,3,3,3,-9.48,-0.9,2.3,0.37,0.08,0.1
1.615180015563965,2,3,3,3,-9.49,-0.92,2.28,0.34,0.01,0.14
1.625180006027222,2,3,3,3,-9.49,-0.9,2.3,0.4,0.03,0.18
1.635179996490479,2,3,3,3,-9.529999999999999,-0.87,2.17,0.55,0.05,0.23
1.645179986953735,2,3,3,3,-9.550000000000001,-0.75,2.22,0.7,0.05,0.28
1.655179977416992,2,3,3,3,-9.550000000000001,-0.76,2.37,0.87,-0.08,0.38
1.665179967880249,2,3,3,3,-9.470000000000001,-0.6899999999999999,2.39,0.87,-0.25,0.41
1.675179958343506,2,3,3,3,-9.48,-0.66,2.42,0.88,-0.3,0.42
1.685179948806763,2,3,3,3,-9.44,-0.63,2.3,0.9399999999999999,-0.32,0.43
1.69517993927002,2,3,3,3,-9.44,-0.62,2.36,0.79,-0.36,0.42
1.705179929733276,2,3,3,3,-9.49,-0.64,2.43,0.66,-0.28,0.39
1.715179920196533,2,3,3,3,-9.539999999999999,-0.65,2.43,0.5600000000000001,-0.24,0.35
1.72517991065979,2,3,3,3,-9.529999999999999,-0.64,2.43,0.49,-0.17,0.28
1.735180139541626,2,3,3,3,-9.539999999999999,-0.66,2.32,0.43,-0.11,0.17
1.745180130004883,2,3,3,3,-9.539999999999999,-0.6899999999999999,2.37,0.38,-0.06,0.07000000000000001
1.75518012046814,2,3,3,3,-9.539999999999999,-0.74,2.39,0.4,0.01,-0.05
1.765180110931396,2,3,3,3,-9.529999999999999,-0.79,2.47,0.39,0.03,-0.13
1.775180101394653,2,3,3,3,-9.51,-0.84,2.48,0.4,0.1,-0.15
1.78518009185791,2,3,3,3,-9.56,-0.89,2.3,0.33,0.19,-0.14
1.795180082321167,2,3,3,3,-9.59,-0.93,2.35,0.18,0.16,-0.1
1.805180072784424,2,3,3,3,-9.550000000000001,-0.91,2.31,0.13,0.08,-0.12
1.815180063247681,2,3,3,3,-9.529999999999999,-0.85,2.3,0.07000000000000001,0.15,-0.13
1.825180053710938,2,3,3,3,-9.56,-0.84,2.31,0.24,0.25,-0.16
1.835180044174194,2,3,3,3,-9.550000000000001,-0.8100000000000001,2.24,0.37,0.27,-0.21
1.845180034637451,2,3,3,3,-9.51,-0.78,2.3,0.29,0.21,-0.24
1.855180025100708,2,3,3,3,-9.49,-0.82,2.5,0.28,0.28,-0.29
1.865180015563965,2,3,3,3,-9.49,-0.82,2.59,0.32,0.25,-0.3
1.875180006027222,2,3,3,3,-9.460000000000001,-0.78,2.5,0.16,0.06,-0.26
1.885179996490479,2,3,3,3,-9.449999999999999,-0.8100000000000001,2.25,-0.09,0.06,-0.24
1.895179986953735,2,3,3,3,-9.49,-0.74,2.28,-0.13,0.2,-0.15
1.906180143356323,2,3,3,3,-9.56,-0.71,2.34,-0.01,0.37,-0.09
1.915179967880249,2,3,3,3,-9.56,-0.66,2.45,0.21,0.37,-0.09
1.925179958343506,2,3,3,3,-9.52,-0.6899999999999999,2.42,0.21,0.32,-0.09
1.936180114746094,2,3,3,3,-9.52,-0.73,2.36,0.22,0.32,-0.17
1.94517993927002,2,3,3,3,-9.460000000000001,-0.78,2.4,0.18,0.24,-0.23
1.955179929733276,2,3,3,3,-9.470000000000001,-0.8100000000000001,2.46,0.04,0.24,-0.22
1.966180086135864,2,3,3,3,-9.49,-0.85,2.38,-0.2,0.23,-0.24
1.97517991065979,2,3,3,3,-9.539999999999999,-0.92,2.19,-0.42,0.26,-0.2
1.985180139541626,2,3,3,3,-9.550000000000001,-0.9,2.1,-0.39,0.32,-0.17
1.996180057525635,2,3,3,3,-9.57,-0.93,2.15,-0.28,0.4,-0.16
2.006180047988892,2,3,3,3,-9.57,-0.93,2.21,-0.21,0.37,-0.19
2.016180038452148,2,3,3,3,-9.57,-0.9399999999999999,2.26,-0.12,0.37,-0.22
2.026180028915405,2,3,3,3,-9.550000000000001,-0.93,2.3,0.12,0.29,-0.23
2.036180019378662,2,3,3,3,-9.550000000000001,-0.91,2.3,0.4,0.22,-0.23
2.046180009841919,2,3,3,3,-9.49,-0.91,2.33,0.41,0.03,-0.18
2.056180000305176,2,3,3,3,-9.49,-0.91,2.31,0.19,-0.04,-0.16
2.066179990768433,2,3,3,3,-9.48,-0.91,2.3,-0.01,0.02,-0.13
2.076179981231689,2,3,3,3,-9.52,-0.9,2.32,0,0.11,-0.14
2.086179971694946,2,3,3,3,-9.51,-0.87,2.08,0.01,0.08,-0.14
2.096179962158203,2,3,3,3,-9.51,-0.85,2.18,-0.03,0.16,-0.14
2.10617995262146,2,3,3,3,-9.52,-0.86,2.3,0.05,0.16,-0.14
2.116179943084717,2,3,3,3,-9.52,-0.84,2.32,0.16,0.1,-0.12
2.126179933547974,2,3,3,3,-9.470000000000001,-0.85,2.36,0.23,0,-0.03
2.13617992401123,2,3,3,3,-9.470000000000001,-0.87,2.21,0.09,-0.14,-0.01
2.146179914474487,2,3,3,3,-9.460000000000001,-0.89,2.27,0.02,-0.08,-0.02
2.156180143356323,2,3,3,3,-9.52,-0.88,2.33,-0.09,0.06,0.04
2.16618013381958,2,3,3,3,-9.529999999999999,-0.87,2.26,-0.13,0.11,0.06
2.176180124282837,2,3,3,3,-9.539999999999999,-0.89,2.26,-0.27,0.24,0.07000000000000001
2.186180114746094,2,3,3,3,-9.59,-0.84,2.2,-0.14,0.2,0.06
2.196180105209351,2,3,3,3,-9.57,-0.8,2.24,-0.05,0.11,0.05
2.206180095672607,2,3,3,3,-9.58,-0.84,2.35,-0.05,0.06,0.04
2.216180086135864,2,3,3,3,-9.56,-0.84,2.41,0.02,-0.12,0.07000000000000001
2.226180076599121,2,3,3,3,-9.52,-0.84,2.38,-0.09,-0.29,0.04
2.236180067062378,2,3,3,3,-9.49,-0.89,2.19,-0.24,-0.32,0.02
2.246180057525635,2,3,3,3,-9.52,-0.9,2.26,-0.28,-0.17,0.01
2.256180047988892,2,3,3,3,-9.51,-0.92,2.26,-0.34,-0.05,-0.04
2.266180038452148,2,3,3,3,-9.48,-0.87,2.23,-0.41,0.13,-0.09
2.276180028915405,2,3,3,3,-9.539999999999999,-0.9,2.25,-0.37,0.21,-0.08
2.286180019378662,2,3,3,3,-9.57,-0.88,2.19,-0.27,0.15,-0.11
2.296180009841919,2,3,3,3,-9.56,-0.86,2.24,-0.17,0.01,-0.1
2.306180000305176,2,3,3,3,-9.5,-0.85,2.26,-0.2,-0.09,-0.07000000000000001
2.316179990768433,2,3,3,3,-9.550000000000001,-0.85,2.43,-0.15,-0.05,-0.06
2.326179981231689,2,3,3,3,-9.49,-0.84,2.42,-0.05,-0.13,-0.1
2.336179971694946,2,3,3,3,-9.48,-0.91,2.23,-0.15,-0.05,-0.16
2.346179962158203,2,3,3,3,-9.529999999999999,-0.91,2.17,-0.31,0.14,-0.19
2.35617995262146,2,3,3,3,-9.59,-0.87,2.27,-0.35,0.25,-0.21
2.366179943084717,2,3,3,3,-9.57,-0.86,2.24,-0.3,0.25,-0.2
2.376179933547974,2,3,3,3,-9.52,-0.89,2.29,-0.32,0.2,-0.19
2.38617992401123,2,3,3,3,-9.470000000000001,-0.87,2.25,-0.22,0.23,-0.18
2.396179914474487,2,3,3,3,-9.460000000000001,-0.87,2.35,-0.19,0.12,-0.11
2.406180143356323,2,3,3,3,-9.44,-0.9,2.3,-0.31,0.04,-0.1
2.41618013381958,2,3,3,3,-9.48,-0.91,2.25,-0.47,0,-0.03
2.426180124282837,2,3,3,3,-9.56,-0.87,2.2,-0.42,0.01,-0.04
2.436180114746094,2,3,3,3,-9.56,-0.88,2.15,-0.42,0,0.01
2.446180105209351,2,3,3,3,-9.6,-0.89,2.21,-0.37,0.02,0.06
2.456180095672607,2,3,3,3,-9.57,-0.88,2.28,-0.37,-0.03,0.06
2.466180086135864,2,3,3,3,-9.460000000000001,-0.89,2.35,-0.36,-0.09,0.08
2.476180076599121,2,3,3,3,-9.44,-0.92,2.37,-0.35,-0.01,0.11
2.486180067062378,2,3,3,3,-9.470000000000001,-0.92,2.28,-0.31,0.01,0.12
2.496180057525635,2,3,3,3,-9.449999999999999,-0.93,2.24,-0.35,-0.02,0.16
2.506180047988892,2,3,3,3,-9.51,-0.9399999999999999,2.28,-0.37,-0.05,0.2
2.516180038452148,2,3,3,3,-9.539999999999999,-0.95,2.3,-0.33,-0.01,0.2
2.526180028915405,2,3,3,3,-9.56,-0.9399999999999999,2.34,-0.27,-0.06,0.2
2.536180019378662,2,3,3,3,-9.539999999999999,-0.93,2.21,-0.19,-0.17,0.2
2.546180009841919,2,3,3,3,-9.529999999999999,-0.89,2.29,-0.1,-0.17,0.19
2.556180000305176,2,3,3,3,-9.51,-0.88,2.3,-0.02,-0.21,0.21
2.566179990768433,2,3,3,3,-9.48,-0.86,2.33,-0.06,-0.29,0.21
2.576179981231689,2,3,3,3,-9.529999999999999,-0.83,2.34,0,-0.21,0.21
2.586179971694946,2,3,3,3,-9.550000000000001,-0.83,2.3,0.03,-0.23,0.21
2.596179962158203,2,3,3,3,-9.539999999999999,-0.84,2.33,0.01,-0.3,0.17
2.60617995262146,2,3,3,3,-9.52,-0.87,2.35,-0.12,-0.37,0.14
2.616179943084717,2,3,3,3,-9.550000000000001,-0.95,2.43,-0.2,-0.36,0.12
2.626179933547974,2,3,3,3,-9.529999999999999,-0.97,2.35,-0.26,-0.33,0.13
2.63617992401123,2,3,3,3,-9.51,-0.97,2.18,-0.32,-0.36,0.16
2.646179914474487,2,3,3,3,-9.51,-0.97,2.22,-0.32,-0.29,0.19
2.656180143356323,2,3,3,3,-9.539999999999999,-0.95,2.26,-0.27,-0.27,0.21
2.66618013381958,2,3,3,3,-9.56,-0.91,2.29,-0.17,-0.24,0.2
2.676180124282837,2,3,3,3,-9.52,-0.89,2.38,0.03,-0.25,0.28
2.686180114746094,2,3,3,3,-9.51,-0.87,2.29,0.07000000000000001,-0.29,0.23
2.696180105209351,2,3,3,3,-9.51,-0.85,2.42,0.11,-0.29,0.17
2.706180095672607,2,3,3,3,-9.49,-0.83,2.4,0.06,-0.34,0.14
2.716180086135864,2,3,3,3,-9.48,-0.82,2.4,-0.02,-0.26,0.11
2.726180076599121,2,3,3,3,-9.51,-0.84,2.43,-0.05,-0.16,0.09
2.736180067062378,2,3,3,3,-9.529999999999999,-0.84,2.25,-0.16,-0.11,0.04
2.746180057525635,2,3,3,3,-9.56,-0.84,2.35,-0.13,-0.04,0.04
2.756180047988892,2,3,3,3,-9.539999999999999,-0.84,2.37,-0.13,0,0.05
2.766180038452148,2,3,3,3,-9.52,-0.86,2.41,-0.12,0.01,0.03
2.776180028915405,2,3,3,3,-9.5,-0.87,2.42,-0.01,0,0.01
2.786180019378662,2,3,3,3,-9.49,-0.87,2.33,-0.02,-0.08,0.01
2.796180009841919,2,3,3,3,-9.5,-0.89,2.32,0.06,-0.09,-0.01
2.806180000305176,2,3,3,3,-9.48,-0.87,2.38,0.21,-0.1,0.02
2.816179990768433,2,3,3,3,-9.49,-0.91,2.41,0.15,-0.16,0.03
2.826179981231689,2,3,3,3,-9.49,-0.9,2.4,0.18,-0.12,0.04
2.836179971694946,2,3,3,3,-9.470000000000001,-0.91,2.24,0.1,-0.11,0.05
2.846179962158203,2,3,3,3,-9.52,-0.89,2.3,0.07000000000000001,-0.09,0.06
2.85617995262146,2,3,3,3,-9.529999999999999,-0.84,2.37,0.21,-0.05,0.12
2.866179943084717,2,3,3,3,-9.51,-0.86,2.35,0.27,-0.07000000000000001,0.13
2.876179933547974,2,3,3,3,-9.51,-0.85,2.37,0.29,-0.08,0.14
2.88617992401123,2,3,3,3,-9.51,-0.79,2.28,0.33,-0.1,0.11
2.896179914474487,2,3,3,3,-9.51,-0.79,2.34,0.32,-0.08,0.12
2.906180143356323,2,3,3,3,-9.5,-0.78,2.38,0.33,0,0.11
2.91618013381958,2,3,3,3,-9.51,-0.75,2.46,0.31,0.03,0.08
2.926180124282837,2,3,3,3,-9.51,-0.76,2.49,0.38,0.07000000000000001,0.1
2.936180114746094,2,3,3,3,-9.49,-0.76,2.37,0.43,-0.09,0.09
2.946180105209351,2,3,3,3,-9.48,-0.76,2.35,0.24,-0.1,0.05
2.956180095672607,2,3,3,3,-9.470000000000001,-0.82,2.37,0.1,-0.04,0.05
2.966180086135864,2,3,3,3,-9.460000000000001,-0.84,2.37,0.02,0.02,0.1
2.976180076599121,2,3,3,3,-9.48,-0.84,2.38,0.02,0.07000000000000001,0.11
2.986180067062378,2,3,3,3,-9.5,-0.84,2.27,0.01,0.08,0.16
2.996180057525635,2,3,3,3,-9.52,-0.84,2.31,0.12,0.05,0.19
3.006180047988892,2,3,3,3,-9.539999999999999,-0.8100000000000001,2.39,0.28,-0.02,0.22
3.0171799659729,2,3,3,3,-9.56,-0.8,2.43,0.49,-0.12,0.29
3.027179956436157,2,3,3,3,-9.550000000000001,-0.8,2.54,0.57,-0.37,0.3
3.037179946899414,2,3,3,3,-9.43,-0.83,2.33,0.44,-0.44,0.28
3.047179937362671,2,3,3,3,-9.460000000000001,-0.8,2.41,0.39,-0.37,0.26
3.057179927825928,2,3,3,3,-9.460000000000001,-0.77,2.41,0.23,-0.36,0.22
3.067179918289185,2,3,3,3,-9.49,-0.79,2.34,0.04,-0.21,0.19
3.077179908752441,2,3,3,3,-9.58,-0.76,2.34,0.11,-0.06,0.13
3.087180137634277,2,3,3,3,-9.57,-0.76,2.25,0.17,-0.02,0.05
3.097180128097534,2,3,3,3,-9.539999999999999,-0.79,2.34,0.2,0.05,-0.04
3.107180118560791,2,3,3,3,-9.52,-0.82,2.44,0.2,0.16,-0.14
3.117180109024048,2,3,3,3,-9.529999999999999,-0.8,2.53,0.26,0.2,-0.19
3.127180099487305,2,3,3,3,-9.51,-0.8,2.43,0.27,0.12,-0.17
3.137180089950562,2,3,3,3,-9.48,-0.82,2.31,0.1,0.12,-0.14
3.147180080413818,2,3,3,3,-9.52,-0.79,2.35,0.09,0.05,-0.13
3.157180070877075,2,3,3,3,-9.51,-0.75,2.41,0.13,-0.02,-0.02
3.167180061340332,2,3,3,3,-9.470000000000001,-0.75,2.37,0.09,-0.04,-0.01
3.177180051803589,2,3,3,3,-9.470000000000001,-0.73,2.35,0.03,0.01,-0.03
3.187180042266846,2,3,3,3,-9.48,-0.71,2.38,0,0.07000000000000001,-0.08
3.197180032730103,2,3,3,3,-9.48,-0.68,2.42,0.08,0.07000000000000001,-0.09
3.207180023193359,2,3,3,3,-9.5,-0.72,2.46,0.03,0.09,-0.13
3.217180013656616,2,3,3,3,-9.52,-0.7,2.44,-0.01,0.15,-0.14
3.227180004119873,2,3,3,3,-9.56,-0.72,2.38,0.06,0.14,-0.16
3.23717999458313,2,3,3,3,-9.539999999999999,-0.75,2.32,0.05,0.11,-0.18
3.247179985046387,2,3,3,3,-9.52,-0.75,2.35,0.05,0.07000000000000001,-0.18
3.257179975509644,2,3,3,3,-9.5,-0.75,2.37,0.02,0.11,-0.17
3.2671799659729,2,3,3,3,-9.42,-0.72,2.44,0.04,0.14,-0.16
3.277179956436157,2,3,3,3,-9.44,-0.72,2.4,0.01,0.2,-0.13
3.287179946899414,2,3,3,3,-9.460000000000001,-0.75,2.32,0.01,0.25,-0.13
3.297179937362671,2,3,3,3,-9.460000000000001,-0.75,2.35,0.08,0.25,-0.09
3.307179927825928,2,3,3,3,-9.51,-0.78,2.5,0.19,0.22,-0.03
3.317179918289185,2,3,3,3,-9.49,-0.73,2.54,0.39,0.14,0.06
3.327179908752441,2,3,3,3,-9.48,-0.7,2.54,0.32,0,0.13
3.337180137634277,2,3,3,3,-9.48,-0.66,2.36,0.26,-0.11,0.2
3.347180128097534,2,3,3,3,-9.460000000000001,-0.67,2.36,0.08,-0.21,0.18
3.357180118560791,2,3,3,3,-9.52,-0.68,2.43,0.03,-0.12,0.18
3.367180109024048,2,3,3,3,-9.529999999999999,-0.67,2.44,0.01,-0.07000000000000001,0.13
3.377180099487305,2,3,3,3,-9.539999999999999,-0.72,2.37,-0.07000000000000001,-0.04,0.06
3.387180089950562,2,3,3,3,-9.539999999999999,-0.7,2.28,-0.12,-0.01,0.03
3.397180080413818,2,3,3,3,-9.51,-0.73,2.34,-0.08,0.1,-0.02
3.407180070877075,2,3,3,3,-9.48,-0.73,2.43,0.01,0.11,-0.01
3.417180061340332,2,3,3,3,-9.44,-0.6899999999999999,2.47,0.05,0.09,-0.01
3.427180051803589,2,3,3,3,-9.43,-0.74,2.47,0.06,0.08,-0.03
3.437180042266846,2,3,3,3,-9.42,-0.74,2.42,0.05,0.04,0
3.447180032730103,2,3,3,3,-9.470000000000001,-0.76,2.47,0,0.04,0.04
3.457180023193359,2,3,3,3,-9.48,-0.82,2.42,-0.16,0.04,0.06
3.467180013656616,2,3,3,3,-9.51,-0.82,2.43,-0.19,0.13,0.02
3.477180004119873,2,3,3,3,-9.51,-0.84,2.4,-0.2,0.16,0.03
3.48717999458313,2,3,3,3,-9.539999999999999,-0.86,2.29,-0.17,0.2,0.05
3.497179985046387,2,3,3,3,-9.539999999999999,-0.83,2.42,-0.02,0.14,0.05
3.507179975509644,2,3,3,3,-9.5,-0.77,2.41,0.2,0.09,0.03
3.5171799659729,2,3,3,3,-9.44,-0.79,2.43,0.28,0.04,0
3.527179956436157,2,3,3,3,-9.49,-0.73,2.48,0.35,0.01,0.05
3.537179946899414,2,3,3,3,-9.48,-0.73,2.32,0.23,-0.09,0.06
3.547179937362671,2,3,3,3,-9.470000000000001,-0.75,2.38,0.08,-0.03,0.06
3.557179927825928,2,3,3,3,-9.470000000000001,-0.73,2.44,0.08,-0.02,0.06
3.567179918289185,2,3,3,3,-9.470000000000001,-0.79,2.45,-0.05,0.06,0.02
3.577179908752441,2,3,3,3,-9.52,-0.77,2.4,-0.05,0.13,0.01
3.587180137634277,2,3,3,3,-9.5,-0.79,2.29,-0.11,0.13,-0.01
3.597180128097534,2,3,3,3,-9.51,-0.8,2.38,-0.03,0.22,-0.08
3.607180118560791,2,3,3,3,-9.529999999999999,-0.84,2.5,0.11,0.19,-0.1
3.617180109024048,2,3,3,3,-9.470000000000001,-0.84,2.44,0.01,0.06,-0.09
3.627180099487305,2,3,3,3,-9.44,-0.88,2.39,-0.22,0.1,-0.12
3.637180089950562,2,3,3,3,-9.5,-0.92,2.22,-0.34,0.25,-0.16
3.647180080413818,2,3,3,3,-9.539999999999999,-0.93,2.25,-0.44,0.42,-0.21
3.657180070877075,2,3,3,3,-9.58,-0.95,2.25,-0.45,0.5,-0.2
3.667180061340332,2,3,3,3,-9.59,-1.01,2.3,-0.46,0.52,-0.24
3.677180051803589,2,3,3,3,-9.58,-1.02,2.27,-0.31,0.44,-0.31
3.687180042266846,2,3,3,3,-9.52,-1.01,2.13,-0.3,0.27,-0.33
3.697180032730103,2,3,3,3,-9.5,-1,2.19,-0.37,0.26,-0.36
3.707180023193359,2,3,3,3,-9.48,-0.97,2.24,-0.24,0.33,-0.37
3.717180013656616,2,3,3,3,-9.44,-0.93,2.29,-0.18,0.4,-0.35
3.727180004119873,2,3,3,3,-9.470000000000001,-0.87,2.34,-0.04,0.42,-0.31
3.73717999458313,2,3,3,3,-9.48,-0.86,2.33,0.26,0.4,-0.3
3.747179985046387,2,3,3,3,-9.470000000000001,-0.87,2.39,0.38,0.25,-0.22
3.757179975509644,2,3,3,3,-9.41,-0.82,2.39,0.4,0.08,-0.21
3.7671799659729,2,3,3,3,-9.42,-0.79,2.38,0.36,0.17,-0.2
3.777179956436157,2,3,3,3,-9.460000000000001,-0.77,2.41,0.35,0.32,-0.23
3.787179946899414,2,3,3,3,-9.539999999999999,-0.75,2.34,0.43,0.43,-0.24
3.797179937362671,2,3,3,3,-9.56,-0.66,2.3,0.41,0.55,-0.33
3.807179927825928,2,3,3,3,-9.609999999999999,-0.64,2.39,0.45,0.73,-0.34
3.817179918289185,2,3,3,3,-9.57,-0.61,2.42,0.38,0.8100000000000001,-0.43
3.827179908752441,2,3,3,3,-9.52,-0.67,2.38,0.17,0.79,-0.52
3.837180137634277,2,3,3,3,-9.51,-0.73,2.22,-0.13,0.8100000000000001,-0.57
3.847180128097534,2,3,3,3,-9.51,-0.8100000000000001,2.27,-0.45,0.98,-0.64
3.857180118560791,2,3,3,3,-9.56,-0.86,2.28,-0.65,1.03,-0.71
3.867180109024048,2,3,3,3,-9.68,-0.96,2.51,-0.59,0.91,-0.79
3.877180099487305,2,3,3,3,-9.66,-1,2.27,-0.51,0.58,-0.9
3.887180089950562,2,3,3,3,-9.59,-1.06,2.07,-0.62,0.39,-0.97
3.897180080413818,2,3,3,3,-9.56,-1.14,2.07,-0.57,0.32,-1.06
3.907180070877075,2,3,3,3,-9.539999999999999,-1.25,2.18,-0.24,0.31,-1.08
3.917180061340332,2,3,3,3,-9.49,-1.24,2.23,-0.05,0.22,-1.07
3.927180051803589,2,3,3,3,-9.470000000000001,-1.23,2.25,-0.04,0.21,-1.07
3.937180042266846,2,3,3,3,-9.52,-1.25,2.24,-0.02,0.25,-0.98
3.947180032730103,2,3,3,3,-9.5,-1.26,2.14,-0.16,0.27,-0.84
3.957180023193359,2,3,3,3,-9.52,-1.28,2.11,-0.38,0.28,-0.71
3.967180013656616,2,3,3,3,-9.51,-1.24,2.06,-0.35,0.26,-0.59
3.977180004119873,2,3,3,3,-9.49,-1.26,2.07,-0.29,0.22,-0.57
3.98717999458313,2,3,3,3,-9.470000000000001,-1.1,1.97,-0.13,0.17,-0.53
3.997179985046387,2,3,3,3,-9.51,-1.07,2.11,-0.02,0.14,-0.51
4.007179975509644,2,3,3,3,-9.52,-1.01,2.24,0.14,0.17,-0.57
4.0171799659729,2,3,3,3,-9.529999999999999,-0.97,2.3,0.18,0.16,-0.57
4.027179956436157,2,3,3,3,-9.49,-0.95,2.29,0.33,0.11,-0.57
4.037179946899414,2,3,3,3,-9.44,-0.9399999999999999,2.22,0.51,0.11,-0.5600000000000001
4.048180103302002,2,3,3,3,-9.390000000000001,-0.95,2.35,0.57,0.11,-0.5600000000000001
4.058180093765259,2,3,3,3,-9.460000000000001,-0.92,2.29,0.38,0.13,-0.65
4.068180084228516,2,3,3,3,-9.56,-0.89,2.33,0.06,0.24,-0.72
4.078180074691772,2,3,3,3,-9.59,-0.88,2.39,0.05,0.35,-0.8
4.088180065155029,2,3,3,3,-9.59,-0.87,2.16,-0.13,0.35,-0.89
4.098180055618286,2,3,3,3,-9.710000000000001,-0.83,2.1,-0.24,0.48,-0.92
4.108180046081543,2,3,3,3,-9.710000000000001,-0.77,2.2,0.03,0.5,-0.95
4.1181800365448,2,3,3,3,-9.68,-0.67,2.3,0.37,0.47,-0.97
4.128180027008057,2,3,3,3,-9.68,-0.67,2.3,0.37,0.47,-0.97
4.138180017471313,2,3,3,3,-9.460000000000001,-0.67,2.33,0.28,0.38,-1.04
4.14818000793457,2,3,3,3,-9.44,-0.74,2.31,-0.13,0.4,-1.08
4.158179998397827,2,3,3,3,-9.44,-0.87,2.32,-0.49,0.5,-1.1
4.168179988861084,2,3,3,3,-9.5,-0.93,2.3,-0.67,0.58,-1.08
4.178179979324341,2,3,3,3,-9.5,-0.93,2.3,-0.92,0.66,-1.08
4.188179969787598,2,3,3,3,-9.630000000000001,-1.12,2.05,-0.93,0.84,-0.96
4.198179960250854,2,3,3,3,-9.720000000000001,-1.15,2.2,-0.55,0.68,-0.9
4.208179950714111,2,3,3,3,-9.550000000000001,-1.13,2.08,-0.48,0.24,-0.79
4.218179941177368,2,3,3,3,-9.550000000000001,-1.13,2.08,-0.28,0.05,-0.58
4.228179931640625,2,3,3,3,-9.58,-1.14,2.37,0.2,-0.34,-0.33
4.238179922103882,2,3,3,3,-9.4,-1.2,2.24,-0.01,-0.64,-0.12
4.248179912567139,2,3,3,3,-9.26,-1.15,2.29,-0.23,-0.41,0.02
4.258180141448975,2,3,3,3,-9.199999999999999,-1.14,2.34,-0.38,-0.22,0.1
4.268180131912231,2,3,3,3,-9.199999999999999,-1.14,2.34,-0.46,-0.02,0.09
4.278180122375488,2,3,3,3,-9.18,-1.2,2.38,-0.46,0.04,-0.02
4.288180112838745,2,3,3,3,-9.390000000000001,-1.53,2,-0.5,0,-0.01
4.298180103302002,2,3,3,3,-9.52,-1.61,1.95,-0.59,0.07000000000000001,0.05
4.308180093765259,2,3,3,3,-9.609999999999999,-1.68,1.97,-0.48,0.2,0.13
4.318180084228516,2,3,3,3,-9.609999999999999,-1.68,1.97,-0.31,0.15,0.19
4.328180074691772,2,3,3,3,-9.68,-1.7,1.98,-0.08,0.14,0.15
4.338180065155029,2,3,3,3,-9.57,-1.78,1.81,0.09,0.31,0.03
4.348180055618286,2,3,3,3,-9.56,-1.7,1.93,0.33,0.55,-0.05
4.358180046081543,2,3,3,3,-9.539999999999999,-1.75,2.01,0.62,0.6,-0.17
4.3681800365448,2,3,3,3,-9.539999999999999,-1.75,2.01,0.62,0.6,-0.17
4.378180027008057,2,3,3,3,-9.5,-1.5,1.96,0.88,0.45,-0.32
4.388180017471313,2,3,3,3,-9.51,-1.27,2.18,1.28,0.59,-0.54
4.39818000793457,2,3,3,3,-9.6,-0.99,2.55,1.3,0.44,-0.66
4.408179998397827,2,3,3,3,-9.529999999999999,-0.93,2.28,0.73,0.19,-0.82
4.418179988861084,2,3,3,3,-9.529999999999999,-0.93,2.28,0.73,0.19,-0.82
4.428179979324341,2,3,3,3,-9.51,-0.91,2.04,-0.45,0.14,-1.04
4.438179969787598,2,3,3,3,-9.51,-0.91,1.62,-1.53,0.39,-1.48
4.448179960250854,2,3,3,3,-9.42,-0.9399999999999999,1.61,-1.65,0.44,-1.84
4.458179950714111,2,3,3,3,-9.26,-1,1.6,-1.75,0.6,-2.29
4.468179941177368,2,3,3,3,-9.26,-1,1.6,-1.75,0.6,-2.29
4.478179931640625,2,3,3,3,-9.109999999999999,-1.1,1.58,-1.76,0.86,-2.55
4.488179922103882,2,3,3,3,-8.94,-1.47,1.73,-1.62,1.36,-2.48
4.498179912567139,2,3,3,3,-8.92,-1.57,1.96,-1.61,1.18,-2.19
4.508180141448975,2,3,3,3,-8.869999999999999,-1.59,1.92,-1.78,0.82,-1.88
4.518180131912231,2,3,3,3,-8.869999999999999,-1.59,1.92,-1.78,0.82,-1.88
4.528180122375488,2,3,3,3,-8.880000000000001,-1.61,1.61,-2.31,0.68,-1.56
4.538180112838745,2,3,3,3,-9.01,-1.52,1.58,-2.48,0.95,-1.57
4.548180103302002,2,3,3,3,-9.109999999999999,-1.51,1.5,-2.27,0.8100000000000001,-1.96
4.558180093765259,2,3,3,3,-9.039999999999999,-1.55,1.47,-2.3,0.47,-2.6
4.568180084228516,2,3,3,3,-8.75,-1.74,1.38,-2.3,0.47,-2.6
4.578180074691772,2,3,3,3,-8.390000000000001,-1.86,1.25,-2.5,0.46,-3.34
4.588180065155029,2,3,3,3,-7.91,-1.97,1.1,-2.8,0.46,-4.82
4.598180055618286,2,3,3,3,-7.22,-2.1,0.96,-2.31,-0.39,-5.38
4.608180046081543,2,3,3,3,-6.72,-1.94,0.6,-1.67,-1.29,-5.64
4.6181800365448,2,3,3,3,-6.14,-1.75,0.45,-1.67,-1.29,-5.64
4.628180027008057,2,3,3,3,-5.66,-1.52,1.03,-0.3,-1.75,-5.38
4.638180017471313,2,3,3,3,-5.18,-1.41,2.41,0.6,-2.65,-3.61
4.64818000793457,2,3,3,3,-5.45,-1.71,2.6,0.03,-2.67,-2.08
4.658179998397827,2,3,3,3,-5.96,-2.01,2.56,0.03,-2.39,-0.52
4.668179988861084,2,3,3,3,-6.6,-2.03,2.38,0.03,-2.39,-0.52
4.678179979324341,2,3,3,3,-7.93,-1.85,2.54,0.46,-2.26,0.97
4.688179969787598,2,3,3,3,-8.69,-1.77,2.89,2.31,-2.34,3.18
4.698179960250854,2,3,3,3,-9.4,-1.62,3.03,2.4,-2.91,3.57
4.708179950714111,2,3,3,3,-9.85,-1.37,2.85,1.84,-2.89,3.48
4.718179941177368,2,3,3,3,-10.56,-0.97,2.71,1.84,-2.89,3.48
4.728179931640625,2,3,3,3,-11.07,-0.9399999999999999,2.76,1.74,-2.13,2.98
4.738179922103882,2,3,3,3,-11.5,-1.01,2.68,1.52,-0.3,1.63
4.748179912567139,2,3,3,3,-12.09,-1.23,2.55,0.97,-0.34,0.82
4.758180141448975,2,3,3,3,-11.97,-1.1,2.63,0.3,-0.5600000000000001,0.15
4.768180131912231,2,3,3,3,-11.7,-1.26,2.7,0.3,-0.5600000000000001,0.15
4.778180122375488,2,3,3,3,-11.37,-1.49,2.81,-0.47,-0.41,-0.07000000000000001
4.788180112838745,2,3,3,3,-10.6,-1.97,2.89,-0.92,-0.44,-0.11
4.798180103302002,2,3,3,3,-10.28,-2.08,2.7,-0.9,-0.49,-0.04
4.808180093765259,2,3,3,3,-9.92,-2.15,2.63,-0.9399999999999999,-0.26,-0.11
4.818180084228516,2,3,3,3,-9.59,-2.15,2.65,-0.9399999999999999,-0.26,-0.11
4.828180074691772,2,3,3,3,-9.16,-1.69,2.83,-1.02,-0.09,-0.4
4.838180065155029,2,3,3,3,-9.1,-1.54,3.1,-1.22,-0.24,-0.73
4.848180055618286,2,3,3,3,-9.07,-1.44,3.21,-1.68,-0.37,-0.79
4.858180046081543,2,3,3,3,-9.130000000000001,-1.5,3.09,-2.36,-0.27,-0.97
4.8681800365448,2,3,3,3,-9.23,-1.5,2.48,-2.36,-0.27,-0.97
4.878180027008057,2,3,3,3,-9.43,-1.58,2.39,-2.63,0.26,-1.17
4.888180017471313,2,3,3,3,-9.619999999999999,-1.7,2.39,-2.15,0.08,-1.51
4.89818000793457,2,3,3,3,-9.720000000000001,-1.76,2.21,-2.16,-0.52,-1.73
4.908179998397827,2,3,3,3,-9.630000000000001,-1.93,2.47,-1.96,-1.09,-1.83
4.918179988861084,2,3,3,3,-9.630000000000001,-1.95,2.53,-1.96,-1.09,-1.83
4.928179979324341,2,3,3,3,-9.75,-1.86,2.55,-1.84,-1.31,-1.59
4.938179969787598,2,3,3,3,-10.21,-1.6,3.01,-1.7,-1.29,-0.51
4.948179960250854,2,3,3,3,-10.48,-1.57,3.07,-1.78,-1.3,0.02
4.958179950714111,2,3,3,3,-10.72,-1.51,3.11,-2.15,-1.1,0.35
4.968179941177368,2,3,3,3,-10.93,-1.52,3.06,-2.15,-1.1,0.35
4.978179931640625,2,3,3,3,-11.12,-1.61,2.91,-2.51,-0.9399999999999999,0.46
4.988179922103882,2,3,3,3,-11.04,-1.65,2.78,-2.47,-0.61,0.45
4.998179912567139,2,3,3,3,-10.86,-1.72,2.64,-2.35,-0.29,0.42
5.008180141448975,2,3,3,3,-10.73,-1.86,2.61,-2.19,0.02,0.39
5.018180131912231,2,3,3,3,-10.59,-2.22,2.56,-2.19,0.02,0.39
5.028180122375488,2,3,3,3,-10.58,-2.35,2.61,-1.95,0.14,0.34
5.038180112838745,2,3,3,3,-10.54,-2.47,2.68,-1.42,-0.12,0.37
5.048180103302002,2,3,3,3,-10.5,-2.56,2.54,-1.29,-0.02,0.47
5.058180093765259,2,3,3,3,-10.44,-2.65,2.44,-1.04,0.27,0.47
5.069180011749268,2,3,3,3,-10.36,-2.65,2.43,-1.04,0.27,0.47
5.079180002212524,2,3,3,3,-10.26,-2.59,2.32,-0.9,0.55,0.38
5.089179992675781,2,3,3,3,-10.09,-2.56,2.2,-0.59,0.8100000000000001,-0.14
5.099179983139038,2,3,3,3,-9.57,-2.48,1.75,-0.41,0.91,-0.51
5.109179973602295,2,3,3,3,-9.279999999999999,-2.39,1.68,-0.2,1.01,-0.87
5.119179964065552,2,3,3,3,-9.01,-2.31,1.62,-0.2,1.01,-0.87
5.129179954528809,2,3,3,3,-8.58,-2.13,1.71,0.21,1.22,-1.17
5.139179944992065,2,3,3,3,-8.390000000000001,-2.05,1.65,0.36,1.24,-1.34
5.149179935455322,2,3,3,3,-8.25,-1.99,1.76,0.65,0.79,-1.22
5.159179925918579,2,3,3,3,-8.19,-1.96,2.06,0.44,-0.05,-0.99
5.169179916381836,2,3,3,3,-7.95,-2.01,2.2,0.44,-0.05,-0.99
5.179180145263672,2,3,3,3,-7.9,-2,1.97,-0.34,-0.62,-0.9399999999999999
5.189180135726929,2,3,3,3,-8.02,-1.98,2.01,-0.26,0.49,-0.42
5.199180126190186,2,3,3,3,-8.32,-1.98,2.19,0.06,0.05,-0.28
5.209180116653442,2,3,3,3,-8.56,-1.9,2.34,0.06,-0.53,-0.25
5.219180107116699,2,3,3,3,-8.65,-1.93,2.3,0.06,-0.53,-0.25
5.229180097579956,2,3,3,3,-8.869999999999999,-1.91,2.28,0.23,-0.53,-0.16
5.239180088043213,2,3,3,3,-9.130000000000001,-1.87,2.24,0.95,-0.26,0.12
5.24918007850647,2,3,3,3,-9.699999999999999,-1.62,2.39,1.53,-0.31,0.45
5.259180068969727,2,3,3,3,-10.01,-1.42,2.88,1.5,-0.83,0.74
5.269180059432983,2,3,3,3,-10.22,-1.28,3.26,1.5,-0.83,0.74
5.27918004989624,2,3,3,3,-10.44,-1.06,3.56,0.68,-1.61,0.91
5.289180040359497,2,3,3,3,-10.78,-1.02,3.52,-1.28,-1.28,1.62
5.299180030822754,2,3,3,3,-11.26,-1.07,3.39,-1.79,-0.67,1.94
5.309180021286011,2,3,3,3,-11.74,-1.24,3.33,-1.76,-0.25,1.93
5.319180011749268,2,3,3,3,-12.78,-1.61,3.37,-1.76,-0.25,1.93
5.329180002212524,2,3,3,3,-13.3,-1.8,3.6,-1.48,-0.19,1.55
5.339179992675781,2,3,3,3,-13.93,-2.02,4.21,-1.46,-1.79,0.5
5.349179983139038,2,3,3,3,-14.52,-2.15,4.29,-1.7,-2.51,0.19
5.359179973602295,2,3,3,3,-15.55,-2.19,4.79,-1.47,-1.73,0.26
5.369179964065552,2,3,3,3,-16.23,-2.29,4.52,-1.47,-1.73,0.26
5.379179954528809,2,3,3,3,-17.25,-2.27,4.62,-1.24,0.03,0.39
5.389179944992065,2,3,3,3,-18.57,-2.2,4.75,0.11,1.72,0.47
5.399179935455322,2,3,3,3,-20.65,-2.25,4.15,1.99,3.51,-0.15
5.409179925918579,2,3,3,3,-21.52,-2.27,4.15,1.99,3.51,-0.15
5.419179916381836,2,3,3,3,-22.14,-2.15,4.44,3.74,4.92,-0.13
5.429180145263672,2,3,3,3,-22.3,-2.09,4.79,4.82,6.6,0.32
5.439180135726929,2,3,3,3,-22.48,-1.01,5.81,5.17,8.58,1.09
5.449180126190186,2,3,3,3,-22.14,-0.44,6.09,4.83,9.800000000000001,1.84
5.459180116653442,2,3,3,3,-21.09,-0.3,6.15,3.52,9.800000000000001,2.05
5.469180107116699,2,3,3,3,-18.87,-1.31,5.03,1.55,10.19,2.03
5.479180097579956,2,3,3,3,-17.83,-2.55,3.91,-1.01,10.92,1.74
5.489180088043213,2,3,3,3,-16.45,-4.01,2.52,-3.43,10.72,0.25
5.49918007850647,2,3,3,3,-14.78,-5.54,1.04,-4.74,9.56,-2.41
5.509180068969727,2,3,3,3,-10.8,-6.79,-1.04,-5.02,8.140000000000001,-5.14
5.519180059432983,2,3,3,3,-8.859999999999999,-6.27,-1.92,-4.9,6.59,-6.61
5.52918004989624,2,3,3,3,-6.46,-5.25,-2.3,-4.23,5.25,-8.18
5.539180040359497,2,3,3,3,-3.99,-4.19,-2.06,-3.2,4.42,-9.49
5.549180030822754,2,3,3,3,-0.7,-3.18,-0.6,-2.07,3.41,-10.04
5.559180021286011,2,3,3,3,0.73,-3.61,-0.67,-2.68,1.55,-10.71
5.569180011749268,2,3,3,3,1.9,-4.52,-1.8,-6.47,-1.96,-11.64
5.579180002212524,2,3,3,3,2.27,-5.85,-3.63,-11.45,-4.76,-11.48
5.589179992675781,2,3,3,3,2.96,-7.18,-4.88,-11.8,-4.71,-9.75
5.599179983139038,2,3,3,3,3.37,-6.8,-2.9,-4.96,-2.1,-7.54
5.609179973602295,2,3,3,3,3.32,-5.82,-0.42,6.15,1.26,-5.39
5.619179964065552,2,3,3,3,2.76,-4.01,0.82,14.35,-0.11,-3.07
5.629179954528809,2,3,3,3,3.04,-0.17,1.73,17.42,-5.15,0.77
5.639179944992065,2,3,3,3,3.24,2.08,2.09,19.47,-7.45,4.69
5.649179935455322,2,3,3,3,2.86,3.52,2.22,18.67,-5.36,7.31
5.659179925918579,2,3,3,3,1.66,4.76,1.54,15.58,-2.69,8.970000000000001
5.669179916381836,2,3,3,3,1.06,4.36,1.22,11.65,-0.79,9.779999999999999
5.679180145263672,2,3,3,3,0.5,3.51,0.7,7.7,0.28,10.5
5.689180135726929,2,3,3,3,-0.77,2.76,0.26,4.15,1.86,11.06
5.699180126190186,2,3,3,3,-3.8,1.33,0.29,2.81,2.52,10.69
5.709180116653442,2,3,3,3,-3.72,0.65,-0.42,0.65,1.02,9.460000000000001
5.719180107116699,2,3,3,3,-3.6,0.45,-1,-2.89,-0.15,7.38
5.729180097579956,2,3,3,3,-3.65,0.35,-1.05,-5.02,0.34,4.68
5.739180088043213,2,3,3,3,-3.28,0.24,-0.73,-5.62,0.39,1.77
5.74918007850647,2,3,3,3,-2.88,-0.2,-0.5,-5.45,-0.37,-0.99
5.759180068969727,2,3,3,3,-2.18,-0.55,-0.4,-5.08,-0.83,-3.11
5.769180059432983,2,3,3,3,-1.07,-0.79,-0.54,-4.64,-0.93,-4.33
5.77918004989624,2,3,3,3,0.36,-1.24,-0.57,-3.02,-0.78,-4.96
5.789180040359497,2,3,3,3,0.51,-1.24,-0.02,-0.02,-0.6,-5.36
5.799180030822754,2,3,3,3,0.79,-1.1,0.44,2.84,-1.3,-5.44
5.809180021286011,2,3,3,3,1.41,-0.99,0.13,3.1,-2.73,-5.07
5.819180011749268,2,3,3,3,1.95,-0.67,0.5,3.06,-3.78,-4.32
5.829180002212524,2,3,3,3,2.27,-0.5,2.03,4.94,-4.74,-3.49
5.839179992675781,2,3,3,3,2.61,-0.31,1.83,6.55,-5.31,-2.08
5.849179983139038,2,3,3,3,0.5,-1.91,1.42,4.23,-5.32,0.36
5.859179973602295,2,3,3,3,0.03,-2.5,2.04,2.24,-4.72,3.41
5.869179964065552,2,3,3,3,-0.06,-3.05,3.23,1.31,-4.01,6.04
5.879179954528809,2,3,3,3,-1,-4.8,3.91,0.24,-3.26,8.93
5.889179944992065,2,3,3,3,-7.13,-10.54,2.07,-2.1,-1.79,12.67
5.899179935455322,2,3,3,3,-13.06,-11.29,1.91,-1.03,3.03,18.11
5.909179925918579,2,3,3,3,-26.02,-10.63,3.71,3.14,12.65,25.3
5.919179916381836,2,3,3,3,-39.12,-7.42,5.76,10.4,8.08,33.09
5.929180145263672,2,3,3,3,-39.09,-4.71,-4.83,18.51,-1.36,33.47
5.939180135726929,2,3,3,3,-39.12,9.81,-0.92,14.34,23.96,4.95
5.949180126190186,2,3,3,3,-29.89,20.95,0.35,22.34,-16.55,-22.01
5.959180116653442,2,3,3,3,-10.21,10.17,7.7,2.37,-36.74,-16.62
5.969180107116699,2,3,3,3,-5.06,2.18,11.24,-2.67,-21.83,-1.13
5.979180097579956,2,3,3,3,-7.76,-0.89,10.13,-6.07,-10.09,9.279999999999999
5.989180088043213,2,3,3,3,-10.87,-1.54,8.74,-7.48,-4.13,12.86
5.99918007850647,2,3,3,3,-12.42,0.08,6.18,-7.08,0.37,11.27
6.009180068969727,2,3,3,3,-17.48,2.86,5.63,-7.68,2.58,9.35
6.019180059432983,2,3,3,3,-19.63,2.42,4.16,-8.779999999999999,6.1,5.75
6.02918004989624,2,3,3,3,-19.86,1.17,0.86,-7.39,10.71,1.89
6.039180040359497,2,3,3,3,-17.51,-0.41,0.28,-2.8,11.79,-2.26
6.049180030822754,2,3,3,3,-15.67,-0.77,2.9,0.93,6.48,-6.35
6.059180021286011,2,3,3,3,-13.92,-1.27,4.32,1.78,-0.78,-8.359999999999999
6.069180011749268,2,3,3,3,-12.5,-1.64,4.22,1.41,-4.09,-7.81
6.079180002212524,2,3,3,3,-10.98,-1.64,3.98,0.49,-3.48,-5.78
6.090179920196533,2,3,3,3,-10.71,-1.18,3.88,-0.36,-1.36,-3.42
6.10017991065979,2,3,3,3,-10.37,-1.37,3.15,-1.71,0.97,-1.51
6.110180139541626,2,3,3,3,-9.699999999999999,-1.72,2.34,-2.1,2.71,-0.14
6.120180130004883,2,3,3,3,-7.61,-1.47,1.28,-1.51,4.17,0.89
6.13018012046814,2,3,3,3,-6.93,-1.23,1.24,-1.13,5.69,1.57
6.140180110931396,2,3,3,3,-6.85,-1.48,1.31,-0.78,6.4,1.64
6.150180101394653,2,3,3,3,-6.97,-1.78,1.37,-0.11,5.31,1.6
6.16018009185791,2,3,3,3,-7.29,-1.9,1.4,0.79,2.46,0.99
6.170180082321167,2,3,3,3,-7.16,-1.74,1.34,1.18,-0.46,0.22
6.180180072784424,2,3,3,3,-6.8,-1.52,1.3,1.06,-2.42,-0.59
6.190180063247681,2,3,3,3,-6.39,-1.46,1.39,0.8,-3.27,-1.47
6.200180053710938,2,3,3,3,-5.74,-1.69,1.68,0.64,-2.93,-2.24
6.210180044174194,2,3,3,3,-5.57,-1.83,1.5,0.5,-1.97,-2.65
6.220180034637451,2,3,3,3,-5.54,-1.95,1.11,-0.14,-0.4,-2.5
6.250180006027222,2,3,3,3,-7.59,-2.03,1.87,1.71,2.95,0.42
6.260179996490479,2,3,3,3,-7.92,-2,1.94,2.19,2.14,1.04
6.270179986953735,2,3,3,3,-8.140000000000001,-1.63,1.73,2.82,1.6,1.55
6.280179977416992,2,3,3,3,-8.470000000000001,-1.53,1.91,3.52,1.69,1.98
6.290179967880249,2,3,3,3,-8.960000000000001,-1.35,2.3,4.14,1.47,2.35
6.300179958343506,2,3,3,3,-9.57,-1.3,2.51,4.03,0.09,2.7
6.310179948806763,2,3,3,3,-10.45,-0.95,2.07,3.19,-1.75,2.94
6.32017993927002,2,3,3,3,-10.54,-0.5600000000000001,1.62,2.11,-2.47,3.18
6.330179929733276,2,3,3,3,-10.38,-0.09,1.54,1.66,-1.75,3.34
6.340179920196533,2,3,3,3,-10.23,0.28,1.73,1.77,-0.89,3.07
6.35017991065979,2,3,3,3,-9.82,0.32,2.33,2.04,-0.6899999999999999,2.19
6.360180139541626,2,3,3,3,-9.619999999999999,0.08,2.57,1.89,-1.07,1.45
6.370180130004883,2,3,3,3,-9.5,-0.17,2.71,1.61,-1.24,1.05
6.38018012046814,2,3,3,3,-9.720000000000001,-0.38,2.81,1.2,-0.96,0.99
6.390180110931396,2,3,3,3,-9.890000000000001,-0.29,2.87,0.8,-0.78,1.08
6.400180101394653,2,3,3,3,-9.970000000000001,-0.12,2.69,0.49,-0.84,1.23
6.41018009185791,2,3,3,3,-9.99,0.14,2.58,0.09,-0.86,1.41
6.420180082321167,2,3,3,3,-10.04,0.76,2.68,-0.02,-0.72,1.45
6.430180072784424,2,3,3,3,-10.04,0.92,2.79,0.32,-0.53,1.44
6.440180063247681,2,3,3,3,-10.06,0.82,2.94,0.3,-0.45,1.3
6.450180053710938,2,3,3,3,-10.1,0.59,2.83,-0.14,-0.62,0.91
6.460180044174194,2,3,3,3,-10.16,0,2.61,-0.88,-0.78,0.33
6.470180034637451,2,3,3,3,-10.24,-0.21,2.53,-1.31,-0.9,-0.51
6.480180025100708,2,3,3,3,-10.01,-0.44,2.37,-1.84,-1.34,-1.51
6.490180015563965,2,3,3,3,-9.77,-0.66,2.23,-2.7,-1.6,-2.46
6.500180006027222,2,3,3,3,-9.289999999999999,-0.95,1.95,-3.24,-1.8,-3.13
6.510179996490479,2,3,3,3,-8.93,-1.13,1.82,-3.83,-1.97,-3.44
6.520179986953735,2,3,3,3,-8.65,-1.25,1.76,-4.08,-1.88,-3.47
6.530179977416992,2,3,3,3,-8.56,-1.43,2.03,-3.55,-1.41,-3.11
6.540179967880249,2,3,3,3,-8.34,-1.63,2.15,-2.6,-1.39,-2.57
6.550179958343506,2,3,3,3,-8.279999999999999,-1.65,1.96,-2.25,-1.57,-1.75
6.560179948806763,2,3,3,3,-8.359999999999999,-1.6,2.15,-1.79,-1.48,-0.8
6.57017993927002,2,3,3,3,-8.43,-1.28,2.04,-1.2,-1.82,0.24
6.580179929733276,2,3,3,3,-8.529999999999999,-1.15,2.01,-1.34,-2.08,1.06
6.590179920196533,2,3,3,3,-8.77,-1.08,2.09,-1.54,-1.66,1.62
6.60017991065979,2,3,3,3,-9.039999999999999,-1,2,-1.51,-1.01,1.9
6.610180139541626,2,3,3,3,-9.779999999999999,-0.92,2.37,-1.33,-0.58,1.91
6.620180130004883,2,3,3,3,-10.01,-0.85,2.55,-0.64,-0.53,1.79
6.63018012046814,2,3,3,3,-10.03,-0.84,2.55,-0.11,-0.79,1.41
6.640180110931396,2,3,3,3,-9.970000000000001,-0.79,2.44,-0.19,-0.85,0.86
6.650180101394653,2,3,3,3,-9.880000000000001,-0.78,2.13,-1.03,-0.73,0.24
6.66018009185791,2,3,3,3,-9.859999999999999,-0.73,2.19,-1.54,-0.53,-0.14
6.670180082321167,2,3,3,3,-9.83,-0.71,2.15,-1.84,-0.52,-0.36
6.680180072784424,2,3,3,3,-9.710000000000001,-0.7,2.1,-1.94,-0.27,-0.51
6.690180063247681,2,3,3,3,-9.49,-0.7,2.19,-1.83,0.13,-0.53
6.700180053710938,2,3,3,3,-9.33,-0.74,2.24,-1.47,0.29,-0.53
6.710180044174194,2,3,3,3,-9.24,-0.79,2.39,-1.34,0.27,-0.52
6.720180034637451,2,3,3,3,-9.140000000000001,-0.8100000000000001,2.63,-1.2,0.11,-0.48
6.730180025100708,2,3,3,3,-9.01,-0.86,2.49,-1.49,0.1,-0.46
6.740180015563965,2,3,3,3,-9.18,-0.86,2.38,-2.06,0.5,-0.4
6.750180006027222,2,3,3,3,-9.49,-0.85,2.28,-2.28,0.93,-0.28
6.760179996490479,2,3,3,3,-9.779999999999999,-0.93,1.94,-2.53,0.82,-0.22
6.770179986953735,2,3,3,3,-9.83,-1.01,1.99,-2.63,0.83,-0.18
6.780179977416992,2,3,3,3,-9.81,-1.02,2,-2.04,0.86,-0.25
6.790179967880249,2,3,3,3,-9.720000000000001,-1.1,1.99,-1.46,0.68,-0.47
6.800179958343506,2,3,3,3,-9.56,-1.18,2.12,-0.87,0.64,-0.74
6.810179948806763,2,3,3,3,-9.58,-1.18,2.16,-0.42,0.58,-0.92
6.82017993927002,2,3,3,3,-9.56,-1.19,2.18,-0.34,0.58,-0.97
6.830179929733276,2,3,3,3,-9.609999999999999,-1.14,2.28,-0.25,0.6,-0.9399999999999999
6.840179920196533,2,3,3,3,-9.51,-1.15,2.13,-0.33,0.29,-0.92
6.85017991065979,2,3,3,3,-9.449999999999999,-1.17,1.99,-0.84,-0.06,-1.02
6.860180139541626,2,3,3,3,-9.44,-1.22,2.07,-1.24,0.16,-1.16
6.870180130004883,2,3,3,3,-9.42,-1.35,2.23,-1.32,0.64,-1.28
6.88018012046814,2,3,3,3,-9.31,-1.6,2.17,-1.37,0.97,-1.38
6.890180110931396,2,3,3,3,-9.35,-1.65,2.1,-1.66,1.33,-1.4
6.900180101394653,2,3,3,3,-9.4,-1.77,1.92,-1.68,1.66,-1.42
6.91018009185791,2,3,3,3,-9.41,-1.85,1.91,-1.59,1.61,-1.38
6.920180082321167,2,3,3,3,-9.51,-1.91,2.06,-1.2,1.31,-1.26
6.930180072784424,2,3,3,3,-9.57,-1.83,2.15,-0.71,0.96,-0.98
6.940180063247681,2,3,3,3,-9.49,-1.87,2.1,-0.61,0.47,-0.73
6.950180053710938,2,3,3,3,-9.57,-1.89,2.42,-0.44,0.3,-0.48
6.960180044174194,2,3,3,3,-9.470000000000001,-1.83,2.32,0.06,0.02,-0.19
6.970180034637451,2,3,3,3,-9.369999999999999,-1.83,2.06,0.02,-0.3,0.02
6.980180025100708,2,3,3,3,-9.41,-1.83,2.1,-0.29,-0.19,0.16
6.990180015563965,2,3,3,3,-9.59,-1.52,2.2,0.01,0.01,0.19
7.000180006027222,2,3,3,3,-9.68,-1.46,2.18,0.02,0.2,0.1
7.010179996490479,2,3,3,3,-9.779999999999999,-1.36,2.32,0.05,0.35,0.01
7.020179986953735,2,3,3,3,-9.83,-1.3,2.36,0.14,0.4,-0.13
7.030179977416992,2,3,3,3,-9.77,-1.32,2.47,0.1,0.46,-0.25
7.040179967880249,2,3,3,3,-9.640000000000001,-1.37,2.3,0.17,0.44,-0.39
7.050179958343506,2,3,3,3,-9.48,-1.42,2.02,-0.02,0.36,-0.54
7.060179948806763,2,3,3,3,-9.4,-1.48,1.99,-0.18,0.38,-0.63
7.07017993927002,2,3,3,3,-9.289999999999999,-1.56,2.09,-0.17,0.47,-0.66
7.080179929733276,2,3,3,3,-9.26,-1.56,2.07,-0.09,0.57,-0.64
7.090179920196533,2,3,3,3,-9.25,-1.53,2.02,-0.01,0.79,-0.55
7.10017991065979,2,3,3,3,-9.279999999999999,-1.51,1.95,0.12,1,-0.42
7.110180139541626,2,3,3,3,-9.449999999999999,-1.44,1.95,0.37,1.2,-0.27
7.121180057525635,2,3,3,3,-9.56,-1.37,1.94,0.57,1.09,-0.14
7.131180047988892,2,3,3,3,-9.619999999999999,-1.34,2.04,0.73,0.89,0.02
7.141180038452148,2,3,3,3,-9.68,-1.27,1.97,0.9,0.51,0.11
7.151180028915405,2,3,3,3,-9.640000000000001,-1.31,1.78,0.5,0.07000000000000001,0.12
7.161180019378662,2,3,3,3,-9.67,-1.37,1.92,0.15,-0.03,0.04
7.171180009841919,2,3,3,3,-9.66,-1.39,2.02,0.35,0.12,-0.07000000000000001
7.181180000305176,2,3,3,3,-9.550000000000001,-1.47,1.99,0.33,0.09,-0.21
7.191179990768433,2,3,3,3,-9.57,-1.48,2,0.35,0.11,-0.34
7.201179981231689,2,3,3,3,-9.59,-1.51,2.02,0.37,0,-0.28
7.211179971694946,2,3,3,3,-9.51,-1.46,2.09,0.41,-0.35,-0.11
7.221179962158203,2,3,3,3,-9.48,-1.37,2.11,0.09,-0.61,0.1
7.23117995262146,2,3,3,3,-9.539999999999999,-1.33,2.2,-0.01,-0.43,0.43
7.241179943084717,2,3,3,3,-9.6,-1.31,2.27,0.18,-0.18,0.74
7.251179933547974,2,3,3,3,-9.539999999999999,-1.3,2.07,0.3,-0.06,0.87
7.26117992401123,2,3,3,3,-9.470000000000001,-1.29,2.03,0.38,0.16,0.87
7.271179914474487,2,3,3,3,-9.44,-1.28,2.07,0.45,0.22,0.75
7.281180143356323,2,3,3,3,-9.44,-1.2,2.07,0.39,0.21,0.61
7.29118013381958,2,3,3,3,-9.49,-1.18,1.86,0.22,0.18,0.47
7.301180124282837,2,3,3,3,-9.539999999999999,-1.19,1.83,-0.1,0.28,0.35
7.311180114746094,2,3,3,3,-9.57,-1.25,1.91,-0.32,0.33,0.21
7.321180105209351,2,3,3,3,-9.640000000000001,-1.29,1.98,-0.25,0.4,0.12
7.331180095672607,2,3,3,3,-9.52,-1.43,2.12,0.05,0.41,0.06
7.341180086135864,2,3,3,3,-9.43,-1.52,2.08,0.2,0.22,-0.17
7.351180076599121,2,3,3,3,-9.390000000000001,-1.57,1.92,0.14,0.29,-0.27
7.361180067062378,2,3,3,3,-9.42,-1.61,1.84,0.1,0.43,-0.27
7.371180057525635,2,3,3,3,-9.529999999999999,-1.58,1.98,0.34,0.49,-0.21
7.381180047988892,2,3,3,3,-9.460000000000001,-1.55,1.98,0.58,0.39,-0.09
7.391180038452148,2,3,3,3,-9.35,-1.55,1.99,0.7,0.5,-0.06
7.401180028915405,2,3,3,3,-9.220000000000001,-1.52,1.88,0.6899999999999999,0.7,-0.12
7.411180019378662,2,3,3,3,-8.960000000000001,-1.54,1.79,0.52,1.1,-0.31
7.421180009841919,2,3,3,3,-8.890000000000001,-1.59,1.74,0.29,1.59,-0.6
7.431180000305176,2,3,3,3,-8.880000000000001,-1.63,1.79,0.05,2.1,-0.9399999999999999
7.441179990768433,2,3,3,3,-8.890000000000001,-1.71,1.75,-0.11,2.52,-1.23
7.451179981231689,2,3,3,3,-8.970000000000001,-2.03,1.47,-0.22,2.74,-1.4
7.461179971694946,2,3,3,3,-8.949999999999999,-2.15,1.43,-0.12,2.83,-1.54
7.471179962158203,2,3,3,3,-8.91,-2.19,1.45,0.39,2.87,-1.6
7.48117995262146,2,3,3,3,-8.81,-2.07,1.49,1.29,2.57,-1.56
7.491179943084717,2,3,3,3,-8.58,-1.91,1.39,1.94,1.67,-1.53
7.501179933547974,2,3,3,3,-8.279999999999999,-1.76,1.22,2.2,0.5600000000000001,-1.72
7.51117992401123,2,3,3,3,-8.039999999999999,-1.66,1.27,2.03,0.27,-2
7.521179914474487,2,3,3,3,-7.65,-1.58,1.35,1.7,0.48,-2.36
7.531180143356323,2,3,3,3,-7.46,-1.61,1.22,0.79,0.63,-2.92
7.54118013381958,2,3,3,3,-7.24,-1.68,0.96,-0.48,0.79,-3.63
7.551180124282837,2,3,3,3,-6.97,-1.63,0.6899999999999999,-1.53,1,-4.6
7.561180114746094,2,3,3,3,-6.79,-1.65,0.89,-2.07,1.17,-5.47
7.571180105209351,2,3,3,3,-6.93,-1.78,1.33,-2.03,0.61,-6.03
7.581180095672607,2,3,3,3,-6.97,-1.97,1.51,-1.75,-1.2,-6.28
7.591180086135864,2,3,3,3,-6.67,-2.21,1.26,-2.42,-3.7,-6.43
7.601180076599121,2,3,3,3,-5.82,-3.1,-0.68,-4.44,-4.49,-6.35
7.611180067062378,2,3,3,3,-5.98,-3.28,-0.53,-5.41,-2.85,-6.25
7.621180057525635,2,3,3,3,-6.19,-2.99,0.01,-2.96,-1.02,-6.03
7.631180047988892,2,3,3,3,-6.12,-2.59,0.53,0.41,-0.8100000000000001,-5.56
7.641180038452148,2,3,3,3,-5.86,-2.15,1.58,2.77,-1.59,-4.63
7.651180028915405,2,3,3,3,-5.75,-2.14,1.57,4.34,-2.73,-3.4
7.661180019378662,2,3,3,3,-5.45,-1.84,1.43,5.07,-3.97,-2.27
7.671180009841919,2,3,3,3,-5.73,-1.4,1.95,5.13,-4.15,-1.42
7.681180000305176,2,3,3,3,-6.37,-0.99,2.63,5.46,-3.02,-0.82
7.691179990768433,2,3,3,3,-7.12,-0.44,3.1,5.45,-1.65,-0.78
7.701179981231689,2,3,3,3,-8.07,-0.07000000000000001,3.41,3.52,-0.04,-0.99
7.711179971694946,2,3,3,3,-9.279999999999999,0.2,3.03,1.17,1.22,-1.48
7.721179962158203,2,3,3,3,-9.4,0.1,2.78,-0.68,1.45,-2.16
7.73117995262146,2,3,3,3,-9.33,-0.19,2.35,-1.71,0.98,-2.81
7.741179943084717,2,3,3,3,-8.99,-0.63,2.11,-2.49,-0.83,-3.3
7.751179933547974,2,3,3,3,-9.23,-1.56,2.73,-2.34,-2.55,-3.36
7.76117992401123,2,3,3,3,-9.890000000000001,-1.99,3.32,-1.2,-3.23,-3.2
7.771179914474487,2,3,3,3,-10.65,-2.29,3.62,-0.11,-3.47,-2.98
7.781180143356323,2,3,3,3,-11.29,-2.3,3.78,0.17,-3.42,-3.01
7.79118013381958,2,3,3,3,-12.2,-1.9,4.12,-0.61,-2.78,-3.22
7.801180124282837,2,3,3,3,-12.16,-1.3,3.89,-0.96,-2.8,-3.33
7.811180114746094,2,3,3,3,-12.04,-0.92,3.88,-1.22,-3.6,-2.94
7.821180105209351,2,3,3,3,-12.59,-0.74,4.59,-0.57,-4.11,-2.01
7.831180095672607,2,3,3,3,-13.18,-0.98,5.3,1.03,-4.45,-0.58
7.841180086135864,2,3,3,3,-13.68,-1.06,5.87,1.94,-4.95,0.82
7.851180076599121,2,3,3,3,-14.32,-1.03,6.11,0.75,-5.11,1.64
7.861180067062378,2,3,3,3,-16.31,-1.36,6.31,-1.64,-4.56,1.98
7.871180057525635,2,3,3,3,-17.51,-1.96,6.08,-3.59,-2.9,2.28
7.881180047988892,2,3,3,3,-18.73,-2.51,5.8,-4.75,-1.22,2.51
7.891180038452148,2,3,3,3,-19.85,-3.07,5.27,-4.18,-1.25,2.21
7.901180028915405,2,3,3,3,-21.41,-3.33,5.01,-3.03,-2.17,1.31
7.911180019378662,2,3,3,3,-21.67,-2.82,5.34,-1.04,-2.34,0.1
7.921180009841919,2,3,3,3,-21.18,-2.27,5.47,1.5,-0.92,-0.61
7.931180000305176,2,3,3,3,-20.49,-1.74,6.15,2.91,0.8100000000000001,-0.7
7.941179990768433,2,3,3,3,-19.45,-1.03,7.23,3.48,2.4,-0.28
7.951179981231689,2,3,3,3,-19,-0.61,6.48,4.45,2.93,0.57
7.961179971694946,2,3,3,3,-18.64,-0.58,5.56,4.98,2.91,1.62
7.971179962158203,2,3,3,3,-18.67,-0.88,5.55,4.83,3.64,2.56
7.98117995262146,2,3,3,3,-19.48,-1.13,6.76,5.32,3.44,3.38
7.991179943084717,2,3,3,3,-20.3,-0.98,6.82,5.85,3,4.25
8.001179933547974,2,3,3,3,-21.27,-0.88,6.57,5.3,4.45,5.16
8.01117992401123,2,3,3,3,-22.96,0.23,5.62,4.85,7.24,5.66
8.021179914474487,2,3,3,3,-22.81,0.48,5.62,4.48,9.380000000000001,5.58
8.031180143356323,2,3,3,3,-22.27,0.57,5.72,4.03,10.13,5.16
8.04118013381958,2,3,3,3,-21.35,1.19,5.74,2.96,9.949999999999999,5.18
8.051180124282837,2,3,3,3,-19.12,-0.68,6.17,1.1,9.83,5.86
8.061180114746094,2,3,3,3,-17.82,-1.08,5.48,0.05,10.73,6.4
8.071180105209351,2,3,3,3,-15.65,-1.63,4.66,-1.06,9.84,5.39
8.081180095672607,2,3,3,3,-13.23,-3.28,3.47,-3.78,9.15,3.2
8.091180086135864,2,3,3,3,-9.42,-5.05,0.5,-5.61,10.37,0.11
8.101180076599121,2,3,3,3,-7.03,-4.48,-1.74,-6.21,11.76,-2.34
8.111180067062378,2,3,3,3,-4.22,-3.78,-2.94,-8.34,10.36,-4.34
8.121180057525635,2,3,3,3,-1.35,-4.49,-3.19,-10.78,9.08,-7.4
8.131180047988892,2,3,3,3,0.67,-8.52,-3.57,-15.67,7.24,-10.78
8.1421799659729,2,3,3,3,-1.05,-12.92,-6.31,-24.77,3.3,-14.27
8.152179956436157,2,3,3,3,-3.1,-14.67,-10.02,-31.74,-1.82,-15.09
8.162179946899414,2,3,3,3,-3.31,-14.12,-12.59,-29.39,-7.49,-13.82
8.172179937362671,2,3,3,3,3.29,-16.44,-4.24,-17.22,-12.61,-13.59
8.182179927825928,2,3,3,3,7.04,-13.26,0.35,5.85,-15.73,-11.54
8.192179918289185,2,3,3,3,8.710000000000001,-7.73,2.45,21.69,-16.11,-4.6
8.202179908752441,2,3,3,3,8.19,3.69,2.29,27.81,-14.63,4.31
8.212180137634277,2,3,3,3,7.35,7.36,1.55,26.82,-8.49,10.31
8.222180128097534,2,3,3,3,6.4,8.19,0.8100000000000001,22.25,0.11,14.68
8.232180118560791,2,3,3,3,4.91,8.039999999999999,0.92,16.82,6.54,17.14
8.242180109024048,2,3,3,3,2.58,5.85,1.19,10.34,6.59,17.86
8.252180099487305,2,3,3,3,0.87,4.69,0.64,2.76,3.23,17.22
8.262180089950562,2,3,3,3,-1.31,3.56,0.37,-3.21,2.59,15.74
8.272180080413818,2,3,3,3,-3.06,2.39,0.08,-7.87,2.31,13.99
8.282180070877075,2,3,3,3,-6.3,1.12,0.28,-11.32,2.47,11.74
8.292180061340332,2,3,3,3,-7.76,0.42,0.25,-13.18,3.74,8.640000000000001
8.302180051803589,2,3,3,3,-8.35,-0.18,-0.42,-14.68,3.53,4.42
8.312180042266846,2,3,3,3,-7.51,-0.67,-1.05,-15,0.9399999999999999,-0.19
8.322180032730103,2,3,3,3,-3.11,-1.04,-2.52,-13.43,-0.38,-3.34
8.332180023193359,2,3,3,3,-1.31,-1,-2.03,-9.76,2.6,-5.72
8.342180013656616,2,3,3,3,-0.09,-1.49,-1.13,-6.46,5.89,-8.59
8.352180004119873,2,3,3,3,0.46,-2.03,-0.63,-4.31,7,-11.94
8.36217999458313,2,3,3,3,0.9,-3.02,-0.57,-2.66,6,-15
8.372179985046387,2,3,3,3,1.39,-2.8,-0.65,-1.24,4.5,-16.38
8.382179975509644,2,3,3,3,1.81,-2.41,-0.5,0.75,2.95,-15.74
8.3921799659729,2,3,3,3,2.23,-1.11,0.38,3.64,1.13,-13.65
8.402179956436157,2,3,3,3,3.03,-0.13,0.31,6.62,-1.1,-10.69
8.412179946899414,2,3,3,3,3.92,0.95,0.04,8.07,-3.39,-7.24
8.422179937362671,2,3,3,3,3.83,1.7,0.1,8.380000000000001,-3.03,-3.55
8.432179927825928,2,3,3,3,2.06,1.98,0.41,8.06,-1.24,-0.08
8.442179918289185,2,3,3,3,1.42,1.66,0.07000000000000001,6.63,-1.4,2.63
8.452179908752441,2,3,3,3,0.92,1.4,-0.03,5.65,-2.44,4.42
8.462180137634277,2,3,3,3,0.45,1.14,0.09,6.08,-2.3,5.46
8.472180128097534,2,3,3,3,0.08,0.5600000000000001,0.33,6.35,-0.88,6.27
8.482180118560791,2,3,3,3,0.21,0.32,1.01,5.83,0.58,6.72
8.492180109024048,2,3,3,3,0.16,-0.42,1.07,4.73,1.23,6.81
8.502180099487305,2,3,3,3,-0.74,-1.35,0.57,2.35,0.77,7.76
8.512180089950562,2,3,3,3,-2.66,-3.28,2.43,-0.11,-0.49,9.09
8.522180080413818,2,3,3,3,-3.78,-5.21,5.46,-0.57,-1.32,9.33
8.532180070877075,2,3,3,3,-6.82,-8.49,6.5,-1.85,-1.53,10.27
8.542180061340332,2,3,3,3,-12.79,-10.69,6.59,-2.06,-1.12,12.5
8.552180051803589,2,3,3,3,-37.68,-13.05,9.109999999999999,0.73,1.06,15.34
8.562180042266846,2,3,3,3,-39.12,-7.24,2.13,10.2,-4.3,23.32
8.572180032730103,2,3,3,3,-39.06,-4.05,-7.98,25.11,2.6,31.17
8.582180023193359,2,3,3,3,-38.27,21.44,-2.05,21.84,62.62,3.7
8.592180013656616,2,3,3,3,-22.99,17.19,-2.36,27.88,-5.23,-26.31
8.602180004119873,2,3,3,3,-10.01,1.27,7.18,-2.91,-66.29000000000001,-20.01
8.61217999458313,2,3,3,3,-6.5,0.71,14.18,-11.62,-35.98,6.15
8.622179985046387,2,3,3,3,-7.1,-2.54,10.03,-4.36,-17.07,18.18
8.632179975509644,2,3,3,3,-12.72,-1.9,8.550000000000001,-2.25,-9.49,20.19
8.6421799659729,2,3,3,3,-17.65,0.38,8.68,-0.07000000000000001,3.69,19.92
8.652179956436157,2,3,3,3,-21.67,2.23,8.42,-3.24,13.96,17.48
8.662179946899414,2,3,3,3,-27.04,3.17,-3.72,-6.89,18.79,9.539999999999999
8.672179937362671,2,3,3,3,-27.5,2.1,-5.59,-1.26,20.86,0.26
8.682179927825928,2,3,3,3,-24.75,0.34,-1.03,9,10.93,-9.31
8.692179918289185,2,3,3,3,-19.14,-1.41,3.7,10.8,-4.37,-15.3
8.702179908752441,2,3,3,3,-8.76,-1.92,5.45,8.91,-13.08,-13.86
8.712180137634277,2,3,3,3,-7.66,-1.01,6.52,7.49,-11.52,-9.640000000000001
8.722180128097534,2,3,3,3,-8.529999999999999,-0.05,6.85,5.75,-4.27,-7.37
8.732180118560791,2,3,3,3,-9.57,-0.29,5.64,2.4,0.96,-5.55
8.742180109024048,2,3,3,3,-10.4,-0.74,2.31,-1.2,3,-4.12
8.752180099487305,2,3,3,3,-9.130000000000001,-0.6,0.88,-3.21,2.79,-2.76
8.762180089950562,2,3,3,3,-7.18,-0.26,0.06,-3.79,1,-1.81
8.772180080413818,2,3,3,3,-4.26,-0.78,0.64,-3.46,0.21,-1.43
8.782180070877075,2,3,3,3,-4.01,-1.23,1.33,-3.5,0.04,-1.73
8.792180061340332,2,3,3,3,-4.04,-1.35,1.48,-3.12,-0.8,-2.02
8.802180051803589,2,3,3,3,-4.24,-1.38,1.37,-2.95,-1.66,-2.08
8.812180042266846,2,3,3,3,-4.77,-1.68,1.47,-2.86,-2.61,-2.17
8.822180032730103,2,3,3,3,-4.84,-2.06,1.45,-2.59,-4.04,-2.58
8.832180023193359,2,3,3,3,-4.88,-2.55,1.19,-1.98,-4.99,-3.3
8.842180013656616,2,3,3,3,-5.13,-2.97,0.87,-1.43,-5.2,-3.71
8.852180004119873,2,3,3,3,-5.57,-3.63,1.17,-0.43,-4.55,-3.58
8.86217999458313,2,3,3,3,-5.48,-3.59,1.04,0.96,-4.03,-3.01
8.872179985046387,2,3,3,3,-5.2,-3.41,0.63,2.19,-3.29,-1.85
8.882179975509644,2,3,3,3,-5.2,-3.41,0.63,3.38,-1.61,0.02
8.8921799659729,2,3,3,3,-7.64,-2.71,2.18,5.45,-0.64,1.89
8.902179956436157,2,3,3,3,-8.779999999999999,-2.17,2.14,6.7,-1.68,3.26
8.912179946899414,2,3,3,3,-9.68,-1.45,2.12,7.05,-2.88,3.97
8.922179937362671,2,3,3,3,-10.98,-0.21,2.3,6.9,-2.74,3.86
8.932179927825928,2,3,3,3,-10.98,-0.21,2.3,6.1,-2.67,3.13
8.942179918289185,2,3,3,3,-11.27,0.14,2.57,4.68,-3.85,2.2
8.952179908752441,2,3,3,3,-10.96,0.85,2.59,3.05,-4.95,1.43
8.962180137634277,2,3,3,3,-10.29,1.29,2.42,1.47,-4.48,0.91
8.972180128097534,2,3,3,3,-10.1,1.25,2.7,0.14,-2.76,0.43
8.982180118560791,2,3,3,3,-10.1,1.25,2.7,-0.54,-1.35,-0.06
8.992180109024048,2,3,3,3,-9.91,1.02,2.76,-1.26,-0.67,-0.55
9.002180099487305,2,3,3,3,-9.24,-0.41,2.32,-1.74,-0.7,-1.27
9.012180089950562,2,3,3,3,-8.99,-0.72,2.16,-1.69,-0.3,-1.53
9.022180080413818,2,3,3,3,-8.84,-0.79,2.46,-1.02,0.64,-1.48
9.032180070877075,2,3,3,3,-8.84,-0.79,2.46,-1.02,0.64,-1.48
9.042180061340332,2,3,3,3,-8.85,-0.71,2.69,0.28,0.64,-0.54
9.052180051803589,2,3,3,3,-8.550000000000001,-0.49,2.74,0.32,0.16,-0.12
9.062180042266846,2,3,3,3,-8.27,-0.55,2.75,0.26,-0.42,0.1
9.072180032730103,2,3,3,3,-8.07,-0.63,2.85,-0.08,-0.71,0.16
9.082180023193359,2,3,3,3,-8.07,-0.63,2.85,-0.08,-0.71,0.16
9.092180013656616,2,3,3,3,-8.26,-0.8,2.97,-0.31,-0.64,0.19
9.102180004119873,2,3,3,3,-8.720000000000001,-0.79,2.58,-0.9,-0.09,-0.04
9.11217999458313,2,3,3,3,-9.44,-0.64,2.64,-1,0.44,-0.37
9.122179985046387,2,3,3,3,-9.619999999999999,-0.71,2.55,-1.27,0.7,-0.93
9.132179975509644,2,3,3,3,-9.619999999999999,-0.71,2.55,-1.27,0.7,-0.93
9.1421799659729,2,3,3,3,-9.73,-0.88,2.64,-1.89,0.97,-1.53
9.152179956436157,2,3,3,3,-9.720000000000001,-1.69,2.26,-3.11,1.43,-2.19
9.163180112838745,2,3,3,3,-9.67,-2.08,2.14,-3.75,1.42,-2.12
9.173180103302002,2,3,3,3,-9.529999999999999,-2.45,2.07,-4,1.45,-1.81
9.183180093765259,2,3,3,3,-9.529999999999999,-2.45,2.07,-4,1.45,-1.81
9.193180084228516,2,3,3,3,-9.449999999999999,-2.7,1.89,-3.59,1.64,-1.28
9.203180074691772,2,3,3,3,-9.67,-2.83,2.03,-0.92,1.21,-0.03
9.213180065155029,2,3,3,3,-9.59,-2.77,1.89,0.72,0.53,0.38
9.223180055618286,2,3,3,3,-9.390000000000001,-2.71,1.94,2.65,0.01,0.71
9.233180046081543,2,3,3,3,-9.15,-2.52,2.18,2.65,0.01,0.71
9.2431800365448,2,3,3,3,-9.01,-1.93,2.7,4.58,-0.32,1.03
9.253180027008057,2,3,3,3,-9.02,-1.53,2.83,6.38,-1.07,1.77
9.263180017471313,2,3,3,3,-9.01,-1.13,2.84,6.29,-1.35,2.14
9.27318000793457,2,3,3,3,-9,-0.72,2.93,5.82,-1.48,2.37
9.283179998397827,2,3,3,3,-9.02,0,3.09,5.82,-1.48,2.37
9.293179988861084,2,3,3,3,-9.1,0.26,3.06,4.87,-1.38,2.45
9.303179979324341,2,3,3,3,-9.279999999999999,0.38,3.05,2.22,-1.02,2.29
9.313179969787598,2,3,3,3,-9.68,0.5,2.85,0.74,-1.08,2.16
9.323179960250854,2,3,3,3,-9.779999999999999,0.34,2.74,-0.79,-0.9399999999999999,1.98
9.333179950714111,2,3,3,3,-9.85,0.17,2.7,-0.79,-0.9399999999999999,1.98
9.343179941177368,2,3,3,3,-9.869999999999999,-0.1,2.67,-1.73,-0.6899999999999999,1.71
9.353179931640625,2,3,3,3,-9.93,-0.5600000000000001,2.62,-2.57,-0.25,0.68
9.363179922103882,2,3,3,3,-9.9,-0.75,2.62,-2.57,-0.16,0.08
9.373179912567139,2,3,3,3,-9.73,-1,2.55,-2.55,0.29,-0.33
9.383180141448975,2,3,3,3,-9.619999999999999,-1.14,2.52,-2.55,0.29,-0.33
9.393180131912231,2,3,3,3,-9.640000000000001,-1.22,2.64,-2.33,0.66,-0.61
9.403180122375488,2,3,3,3,-9.460000000000001,-1.27,2.62,-1.92,0.8100000000000001,-0.85
9.413180112838745,2,3,3,3,-9.23,-1.33,2.56,-1.64,1,-0.8
9.423180103302002,2,3,3,3,-9,-1.41,2.56,-1.38,1.06,-0.61
9.433180093765259,2,3,3,3,-8.84,-1.69,2.42,-1.38,1.06,-0.61
9.443180084228516,2,3,3,3,-9.039999999999999,-1.81,2.52,-1.06,1.21,-0.36
9.453180074691772,2,3,3,3,-9.23,-1.74,2.53,0.25,0.52,0.15
9.463180065155029,2,3,3,3,-9.4,-1.75,2.37,0.91,-1.05,0.33
9.473180055618286,2,3,3,3,-9.460000000000001,-1.34,2.39,1.39,-1.54,0.46
9.483180046081543,2,3,3,3,-9.51,-1.13,2.48,1.39,-1.54,0.46
9.4931800365448,2,3,3,3,-9.529999999999999,-0.99,2.6,1.47,-1.12,0.48
9.503180027008057,2,3,3,3,-9.630000000000001,-0.6899999999999999,2.8,1.53,-0.44,0.2
9.513180017471313,2,3,3,3,-9.56,-0.6899999999999999,2.77,1.26,-0.08,0.02
9.52318000793457,2,3,3,3,-9.470000000000001,-0.7,2.61,0.47,0.49,-0.23
9.533179998397827,2,3,3,3,-9.48,-0.76,2.55,0.47,0.49,-0.23
9.543179988861084,2,3,3,3,-9.51,-0.86,2.56,0.06,0.89,-0.47
9.553179979324341,2,3,3,3,-9.42,-0.92,2.48,-0.37,1.27,-0.71
9.563179969787598,2,3,3,3,-9.390000000000001,-0.96,2.43,-0.31,1.35,-0.6899999999999999
9.573179960250854,2,3,3,3,-9.44,-1.07,2.56,0.02,1.29,-0.59
9.583179950714111,2,3,3,3,-9.52,-1.02,2.6,0.02,1.29,-0.59
9.593179941177368,2,3,3,3,-9.460000000000001,-1.04,2.61,0.24,0.8100000000000001,-0.52
9.603179931640625,2,3,3,3,-9.43,-1.06,2.58,0.06,-0.17,-0.36
9.613179922103882,2,3,3,3,-9.369999999999999,-1.01,2.54,-0.08,-0.11,-0.26
9.623179912567139,2,3,3,3,-9.390000000000001,-1.05,2.64,-0.35,0.02,-0.23
9.633180141448975,2,3,3,3,-9.44,-1.06,2.62,-0.35,0.02,-0.23
9.643180131912231,2,3,3,3,-9.5,-1.1,2.64,-0.59,0.18,-0.26
9.653180122375488,2,3,3,3,-9.539999999999999,-1.13,2.7,-0.6899999999999999,0.11,-0.28
9.663180112838745,2,3,3,3,-9.460000000000001,-1.17,2.37,-0.6899999999999999,0.13,-0.29
9.673180103302002,2,3,3,3,-9.48,-1.16,2.41,-0.62,0.07000000000000001,-0.26
9.683180093765259,2,3,3,3,-9.49,-1.15,2.41,-0.62,0.07000000000000001,-0.26
9.693180084228516,2,3,3,3,-9.380000000000001,-1.18,2.46,-0.67,0.01,-0.24
9.703180074691772,2,3,3,3,-9.380000000000001,-1.17,2.5,-0.6,0.4,-0.14
9.713180065155029,2,3,3,3,-9.4,-1.2,2.53,-0.55,0.48,-0.11
9.723180055618286,2,3,3,3,-9.4,-1.2,2.55,-0.79,0.51,-0.03
9.733180046081543,2,3,3,3,-9.43,-1.28,2.54,-0.79,0.51,-0.03
9.7431800365448,2,3,3,3,-9.5,-1.27,2.59,-0.96,0.73,0.04
9.753180027008057,2,3,3,3,-9.52,-1.22,2.52,-1.39,0.85,0.1
9.763180017471313,2,3,3,3,-9.51,-1.28,2.4,-1.56,1.13,0.01
9.77318000793457,2,3,3,3,-9.390000000000001,-1.23,2.41,-1.59,1.4,-0.22
9.783179998397827,2,3,3,3,-9.33,-1.3,2.4,-1.59,1.4,-0.22
9.793179988861084,2,3,3,3,-9.35,-1.34,2.43,-1.52,1.73,-0.59
9.803179979324341,2,3,3,3,-9.390000000000001,-1.41,2.55,-1.57,1.91,-0.88
9.813179969787598,2,3,3,3,-9.49,-1.51,2.38,-1.51,1.63,-1.15
9.823179960250854,2,3,3,3,-9.529999999999999,-1.56,2.34,-1.49,1.55,-1.01
9.833179950714111,2,3,3,3,-9.609999999999999,-1.56,2.41,-1.49,1.55,-1.01
9.843179941177368,2,3,3,3,-9.539999999999999,-1.49,2.47,-0.96,1.38,-0.78
9.853179931640625,2,3,3,3,-9.42,-1.46,2.24,-0.65,0.96,-0.57
9.863179922103882,2,3,3,3,-9.41,-1.49,2.19,-0.88,1.07,-0.4
9.873179912567139,2,3,3,3,-9.42,-1.47,2.31,-0.74,1.2,-0.45
9.883180141448975,2,3,3,3,-9.359999999999999,-1.49,2.26,-0.74,1.2,-0.45
9.893180131912231,2,3,3,3,-9.34,-1.51,2.24,-1.03,1.21,-0.61
9.903180122375488,2,3,3,3,-9.289999999999999,-1.52,2.23,-1.24,1.35,-0.79
9.913180112838745,2,3,3,3,-9.25,-1.52,2.08,-1.68,1.93,-1.17
9.923180103302002,2,3,3,3,-9.140000000000001,-1.65,2.08,-1.82,2.37,-1.27
9.933180093765259,2,3,3,3,-9.15,-1.68,2.17,-1.82,2.37,-1.27
9.943180084228516,2,3,3,3,-9.23,-1.76,2.14,-1.74,2.58,-1.31
9.953180074691772,2,3,3,3,-9.35,-1.88,2.02,-1.88,2.34,-1.08
9.963180065155029,2,3,3,3,-9.539999999999999,-1.87,1.85,-1.35,2.15,-1.01
9.973180055618286,2,3,3,3,-9.48,-1.8,1.91,-0.9,1.71,-0.93
9.983180046081543,2,3,3,3,-9.31,-1.75,1.88,-0.9,1.71,-0.93
9.9931800365448,2,3,3,3,-9,-1.66,1.86,-0.77,1.24,-1.06
10.00318002700806,2,3,3,3,-8.73,-1.76,1.66,-1.31,1.31,-1.31
10.01318001747131,2,3,3,3,-8.710000000000001,-1.81,1.59,-1.2,1.32,-1.43
10.02318000793457,2,3,3,3,-8.75,-1.84,1.71,-0.93,0.9,-1.48
10.03317999839783,2,3,3,3,-8.529999999999999,-1.94,1.55,-0.93,0.9,-1.48
10.04317998886108,2,3,3,3,-8.15,-2.07,1.48,-0.99,0.15,-1.63
10.05317997932434,2,3,3,3,-7.73,-2.25,1.48,-2.06,-0.5600000000000001,-2.2
10.0631799697876,2,3,3,3,-7.42,-2.42,1.39,-2.94,-0.39,-2.49
10.07317996025085,2,3,3,3,-7.14,-2.72,1.08,-3.53,-0.16,-2.86
10.08317995071411,2,3,3,3,-7.18,-2.65,0.8100000000000001,-3.53,-0.16,-2.86
10.09317994117737,2,3,3,3,-7.32,-2.56,0.74,-3.82,0.22,-3.21
10.10317993164062,2,3,3,3,-7.46,-2.45,0.71,-3.25,0.31,-3.45
10.11317992210388,2,3,3,3,-7.3,-2.1,0.62,-2.2,-0.3,-3.72
10.12317991256714,2,3,3,3,-7.14,-1.98,0.79,-0.86,-1.49,-4.42
10.13318014144897,2,3,3,3,-6.91,-1.89,0.88,-0.86,-1.49,-4.42
10.14318013191223,2,3,3,3,-6.55,-1.7,0.62,-0.71,-1.73,-5.01
10.15318012237549,2,3,3,3,-5.69,-1.35,0.25,-0.98,-1.42,-5.68
10.16318011283875,2,3,3,3,-5.61,-1.11,0.91,-0.24,-0.73,-6.04
10.173180103302,2,3,3,3,-5.65,-0.9399999999999999,1.58,0.9399999999999999,-0.31,-6.03
10.18318009376526,2,3,3,3,-5.72,-1.05,2.26,0.73,-0.89,-5.52
10.19418001174927,2,3,3,3,-5.75,-1.14,1.32,-0.5600000000000001,-2,-4.99
10.20418000221252,2,3,3,3,-5.98,-1.22,1.4,-2.38,-2.08,-4.35
10.21417999267578,2,3,3,3,-6.59,-1.23,1.78,-2.6,-0.3,-3.44
10.22417998313904,2,3,3,3,-7.64,-1.55,2.6,-1.75,0.65,-2.78
10.23417997360229,2,3,3,3,-7.9,-1.71,2.45,-1.21,-0.16,-2.46
10.24417996406555,2,3,3,3,-8.31,-1.82,2.43,-1.23,-1.25,-2.37
10.25417995452881,2,3,3,3,-8.82,-1.97,2.41,-1.64,-1.58,-2.37
10.26417994499207,2,3,3,3,-9.49,-1.68,2.28,-1.78,-1.65,-2.54
10.27417993545532,2,3,3,3,-9.619999999999999,-1.47,2.18,-1.9,-1.54,-3.15
10.28417992591858,2,3,3,3,-9.66,-1.12,2.4,-1.85,-0.4,-4.22
10.29417991638184,2,3,3,3,-9.77,-0.85,2.66,-1.49,0.82,-5.41
10.30418014526367,2,3,3,3,-10.05,-1.1,3.17,-1.76,1.27,-6.09
10.31418013572693,2,3,3,3,-10.15,-0.99,2.98,-2.57,0.54,-6.29
10.32418012619019,2,3,3,3,-9.94,-1.02,2.89,-2.86,-1.33,-5.93
10.33418011665344,2,3,3,3,-9.56,-1.39,2.98,-3.22,-3.69,-4.72
10.3441801071167,2,3,3,3,-9.07,-2.21,3.23,-2.51,-5.17,-2.84
10.35418009757996,2,3,3,3,-9.25,-2.99,3.46,-1.65,-5.71,-0.98
10.36418008804321,2,3,3,3,-9.869999999999999,-3.67,3.97,-1.09,-5.03,0.37
10.37418007850647,2,3,3,3,-11.01,-4.12,4.8,-0.18,-3.52,1.31
10.38418006896973,2,3,3,3,-13.75,-4.13,5.78,0.35,-2.68,1.99
10.39418005943298,2,3,3,3,-15.15,-3.75,5.71,0.27,-2.58,2.6
10.40418004989624,2,3,3,3,-16.34,-3.47,5.16,0.26,-2.39,3.11
10.4141800403595,2,3,3,3,-18.16,-2.74,3.62,0.79,-2.43,3.21
10.42418003082275,2,3,3,3,-18.8,-2.11,4.02,2.36,-2.19,2.39
10.43418002128601,2,3,3,3,-19.3,-1.5,4.45,4.82,-1.48,1.04
10.44418001174927,2,3,3,3,-19.18,-1.12,5.45,5.05,-1.37,0.44
10.45418000221252,2,3,3,3,-18.71,-1.01,6.8,3.32,-2.42,0.11
10.46417999267578,2,3,3,3,-18.5,-1.22,7.26,1.19,-2.96,-0.06
10.47417998313904,2,3,3,3,-18.72,-1.77,7.07,-0.6,-1.76,0.32
10.48417997360229,2,3,3,3,-19.3,-2.04,6.56,-1.94,0.12,0.45
10.49417996406555,2,3,3,3,-20.94,-2.44,6.11,-2.32,2.03,0.62
10.50417995452881,2,3,3,3,-21.74,-2.63,6.28,-1.9,3.42,0.95
10.51417994499207,2,3,3,3,-22.22,-2.71,6.22,-0.96,3.55,1.25
10.52417993545532,2,3,3,3,-22.39,-2.8,6.23,0.26,3.62,1.72
10.53417992591858,2,3,3,3,-21.61,-2.54,6.48,1.9,3.99,2.51
10.54417991638184,2,3,3,3,-20.65,-2.07,6.35,3.73,3.28,3.34
10.55418014526367,2,3,3,3,-20.15,-1.88,6.45,5.26,2.2,4.09
10.56418013572693,2,3,3,3,-20.14,-1.9,6.75,6.75,2.95,5.28
10.57418012619019,2,3,3,3,-20.43,-1,7.52,8.17,5.32,7
10.58418011665344,2,3,3,3,-21.34,-0.28,7.24,9.460000000000001,8.84,8.710000000000001
10.5941801071167,2,3,3,3,-22.25,0.49,6.85,9.609999999999999,13.13,10.63
10.60418009757996,2,3,3,3,-22.73,0.3,5.59,8.41,16.24,11.83
10.61418008804321,2,3,3,3,-21.1,-1.19,4.72,5.94,15.95,11.59
10.62418007850647,2,3,3,3,-18.42,-3,3.02,3.59,11.93,9.02
10.63418006896973,2,3,3,3,-15.28,-5.05,1.14,1.04,7.09,3.79
10.64418005943298,2,3,3,3,-8.92,-4.89,-1.88,-1.32,6.42,-1.18
10.65418004989624,2,3,3,3,-5.45,-3.87,-2.85,-3.08,7.19,-4.27
10.6641800403595,2,3,3,3,-1.44,-4.17,-3.1,-5.75,6.56,-6.54
10.67418003082275,2,3,3,3,2.25,-5.09,-2.82,-8.57,4.52,-9.68
10.68418002128601,2,3,3,3,5.04,-11.56,-4.37,-14.1,1.21,-13.24
10.69418001174927,2,3,3,3,3.27,-13.9,-8.220000000000001,-24.58,-4.8,-16.75
10.70418000221252,2,3,3,3,2.06,-14.28,-9.51,-28.82,-7.63,-16.03
10.71417999267578,2,3,3,3,2.4,-13.95,-9.75,-22.69,-4.66,-12.29
10.72417998313904,2,3,3,3,6.6,-10.44,-2.92,-8.4,-4.54,-9.31
10.73417997360229,2,3,3,3,6.78,-6.68,1.5,8.140000000000001,-7.88,-5.88
10.74417996406555,2,3,3,3,5.65,-3.27,3.17,17.41,-10.76,1.5
10.75417995452881,2,3,3,3,4.77,-0.16,2.88,18.06,-10.44,8.82
10.76417994499207,2,3,3,3,4.78,4.78,0.42,17.42,-6.74,13.24
10.77417993545532,2,3,3,3,4.85,6.34,-0.02,17.27,-2.94,15.63
10.78417992591858,2,3,3,3,4,6.96,1,17.6,1.49,16.52
10.79417991638184,2,3,3,3,0.06,4.64,2.89,16.41,4.58,16.21
10.80418014526367,2,3,3,3,-1.62,3.35,3.08,11.65,3.81,14.08
10.81418013572693,2,3,3,3,-2.89,2.23,2.74,5.51,0.47,11.87
10.82418012619019,2,3,3,3,-3.87,1.25,2.06,-0.57,-2.41,10.61
10.83418011665344,2,3,3,3,-4.92,0.68,0.27,-5.63,-2.04,9.050000000000001
10.8441801071167,2,3,3,3,-5.62,0.66,-0.16,-8.789999999999999,2.06,6.87
10.85418009757996,2,3,3,3,-5.97,0.3,-0.48,-10.67,5.5,3.49
10.86418008804321,2,3,3,3,-5.56,-0.16,-1.05,-12.02,5.12,-0.78
10.87418007850647,2,3,3,3,-3.03,-0.73,-2.11,-12.92,3.82,-4.92
10.88418006896973,2,3,3,3,-1.88,-0.82,-1.95,-12.87,3.68,-7.96
10.89418005943298,2,3,3,3,-0.93,-1.29,-1.53,-11.18,4.16,-9.93
10.90418004989624,2,3,3,3,-0.11,-1.97,-1.02,-8.81,4.7,-11.66
10.9141800403595,2,3,3,3,0.6,-2.42,-0.63,-5.74,4.92,-13.48
10.92418003082275,2,3,3,3,0.57,-2.15,-0.32,-2.76,4.35,-14.51
10.93418002128601,2,3,3,3,0.67,-1.87,0.04,-0.36,2.35,-14.02
10.94418001174927,2,3,3,3,1.44,-0.9,0.95,2.15,-1.07,-12.46
10.95418000221252,2,3,3,3,2.65,-0.63,0.6,5.13,-5.49,-10.84
10.96417999267578,2,3,3,3,3.71,-0.05,-0.18,5.93,-8.119999999999999,-9.09
10.97417998313904,2,3,3,3,3.78,0.62,-0.13,6.5,-6.02,-6.36
10.98417997360229,2,3,3,3,2.2,1.83,0.5600000000000001,7.49,-2.39,-2.97
10.99417996406555,2,3,3,3,1.7,2.54,0.44,8.24,-1.49,0.05
11.00417995452881,2,3,3,3,1.28,2.54,0.29,7.62,-2.44,2.46
11.01417994499207,2,3,3,3,1.04,2.28,-0.23,5.76,-2.94,4.53
11.02417993545532,2,3,3,3,0.43,2.33,-0.37,4.86,-3.13,6.02
11.03417992591858,2,3,3,3,0.13,2.57,-0.2,4.97,-3.2,7.11
11.04417991638184,2,3,3,3,-0.06,2.45,1.8,5.33,-2.21,8.01
11.05418014526367,2,3,3,3,-1.42,1.63,2.64,5.8,0.53,9.1
11.06418013572693,2,3,3,3,-3.07,-2.27,5,2.35,0.1,10.54
11.07418012619019,2,3,3,3,-3.41,-4.43,7.75,-2.71,-3.78,11.64
11.08418011665344,2,3,3,3,-3.23,-7.23,6.97,-5.19,-7.63,11.86
11.0941801071167,2,3,3,3,-4.43,-10.77,4.49,-10.99,-8.9,11.57
11.10418009757996,2,3,3,3,-22.41,-14.87,3.5,-13.28,1.5,12.99
11.11418008804321,2,3,3,3,-39.12,-18.21,5.99,-7.24,21.68,16.69
11.12418007850647,2,3,3,3,-39.12,-11.67,4.19,11.96,11.83,24.87
11.13418006896973,2,3,3,3,-39.12,5.1,-3.71,26.29,-1.94,29.26
11.14418005943298,2,3,3,3,-32.64,21.87,-1.28,19.53,25.45,1.37
11.15418004989624,2,3,3,3,-9.34,15.91,7.39,19.6,-22.57,-28.1
11.1641800403595,2,3,3,3,-4.05,2.55,17.32,3.61,-33.93,-21.02
11.17418003082275,2,3,3,3,-10.36,-2.47,11.02,-2.43,-20.05,3.53
11.18418002128601,2,3,3,3,-15.86,-2.95,9.74,-3.68,-4.05,18.25
11.19418001174927,2,3,3,3,-20.81,-1.63,8.02,1.36,6.17,21.88
11.20418000221252,2,3,3,3,-23.65,1.02,6.76,1.23,8.300000000000001,19.43
11.21517992019653,2,3,3,3,-28.76,9.99,0.75,-2.33,10.65,14.52
11.22517991065979,2,3,3,3,-30.79,6.27,-3.56,-4.24,18.56,4.8
11.23518013954163,2,3,3,3,-28.77,2.85,-1.23,2.59,19.64,-8.32
11.24518013000488,2,3,3,3,-22.02,-0.05,3.65,6.86,1.95,-17.33
11.25518012046814,2,3,3,3,-7.36,-2.37,5.17,-0.99,-16.16,-16.88
11.2651801109314,2,3,3,3,-6.27,-2.4,4.19,-5.64,-16.39,-11.99
11.27518010139465,2,3,3,3,-7.9,-1.86,4.29,-4.01,-5.12,-7.96
11.28518009185791,2,3,3,3,-9.41,-2.39,4.08,-2.75,2.33,-5.72
11.29518008232117,2,3,3,3,-9.220000000000001,-3.07,1.76,-3.54,1.95,-4.06
11.30518007278442,2,3,3,3,-8.26,-2.66,0.85,-4.02,0.21,-2.36
11.31518006324768,2,3,3,3,-7.49,-1.88,0.16,-3.4,1.18,-0.19
11.32518005371094,2,3,3,3,-5.42,-0.95,-0.49,-2.47,3.23,1.09
11.33518004417419,2,3,3,3,-4.9,-1.07,-0.18,-2.01,4.42,1.57
11.34518003463745,2,3,3,3,-4.73,-0.97,0.49,-0.6899999999999999,4.63,1.03
11.35518002510071,2,3,3,3,-4.67,-1.05,0.75,1.34,2.92,-0.55
11.36518001556396,2,3,3,3,-4.47,-1.49,0.98,1.54,-0.67,-2.44
11.37518000602722,2,3,3,3,-4.23,-1.25,1.39,1.1,-4.66,-3.95
11.38517999649048,2,3,3,3,-3.88,-1.29,1.69,1.01,-8.34,-4.18
11.39517998695374,2,3,3,3,-3.22,-1.21,1.77,0.51,-10.31,-3.89
11.40517997741699,2,3,3,3,-3.27,-2,2.11,-0.5600000000000001,-9.81,-3.72
11.41517996788025,2,3,3,3,-3.62,-2.27,1.85,-1.16,-7.46,-3.42
11.42517995834351,2,3,3,3,-3.6,-2.48,0.9399999999999999,-1.3,-5.55,-2.7
11.43517994880676,2,3,3,3,-4.07,-2.68,1.03,-1.97,-2.98,-1.21
11.44517993927002,2,3,3,3,-5.65,-2.98,1.98,-0.19,-0.21,0.77
11.45517992973328,2,3,3,3,-6.5,-3.07,1.89,1.28,0.38,2.84
11.46517992019653,2,3,3,3,-7.45,-2.79,1.74,2.21,0.4,4.28
11.47517991065979,2,3,3,3,-8.539999999999999,-2.34,1.96,3.2,1.35,5.35
11.48518013954163,2,3,3,3,-10.43,-1.12,2.08,4.11,2.5,6.04
11.49518013000488,2,3,3,3,-11.41,-0.9,2.65,3.83,2.95,6.29
11.50518012046814,2,3,3,3,-12.32,-0.91,2.97,2.76,2.22,5.77
11.5151801109314,2,3,3,3,-13.08,-0.5,2.49,1.61,0.11,4.7
11.52518010139465,2,3,3,3,-13.04,0.17,2.17,1.87,-1.66,3.72
11.53518009185791,2,3,3,3,-12.65,0.8,2.03,2.98,-1.52,3.09
11.54518008232117,2,3,3,3,-11.82,1.16,2.23,4.17,-0.74,2.55
11.55518007278442,2,3,3,3,-9.69,1.24,3.45,5.01,-0.96,1.57
11.56518006324768,2,3,3,3,-8.85,1.13,3.72,5.28,-1.96,0.28
11.57518005371094,2,3,3,3,-8.48,0.85,3.9,4.39,-1.8,-0.7
11.58518004417419,2,3,3,3,-8.380000000000001,0.5600000000000001,4.05,2.6,-0.66,-1.18
11.59518003463745,2,3,3,3,-8.56,0.48,3.23,1.12,0.4,-1.23
11.60518002510071,2,3,3,3,-8.699999999999999,0.48,2.89,-0.49,0.62,-1.01
11.61518001556396,2,3,3,3,-8.890000000000001,0.53,2.87,-2.57,0.59,-1.15
11.62518000602722,2,3,3,3,-8.83,0.48,2.65,-3.44,0.25,-1.44
11.63517999649048,2,3,3,3,-8.279999999999999,0,2.16,-3.98,-0.25,-1.7
11.64517998695374,2,3,3,3,-8.130000000000001,-0.33,2.16,-3.86,-0.08,-1.8
11.65517997741699,2,3,3,3,-8.17,-0.8100000000000001,2.25,-3.3,0.48,-1.7
11.66517996788025,2,3,3,3,-8.609999999999999,-1.46,2.19,-2.67,0.8100000000000001,-1.51
11.67517995834351,2,3,3,3,-9.08,-1.55,2.36,-2.05,0.72,-1.25
11.68517994880676,2,3,3,3,-9.44,-1.54,2.39,-1.6,0.28,-0.99
11.69517993927002,2,3,3,3,-9.65,-1.55,2.19,-1.58,-0.67,-0.66
11.70517992973328,2,3,3,3,-9.93,-1.4,1.98,-1.9,-1.32,-0.25
11.71517992019653,2,3,3,3,-9.99,-1.36,1.96,-1.95,-1.21,0.31
11.72517991065979,2,3,3,3,-9.9,-1.41,2.13,-2.08,-0.78,0.9
11.73518013954163,2,3,3,3,-9.720000000000001,-1.51,2.09,-2.32,-0.14,1.47
11.74518013000488,2,3,3,3,-10,-1.51,2.37,-2.55,0.65,1.88
11.75518012046814,2,3,3,3,-9.98,-1.31,2.42,-1.79,0.87,2.19
11.7651801109314,2,3,3,3,-9.77,-1.14,2.28,-0.65,-0.11,2.31
11.77518010139465,2,3,3,3,-9.4,-0.98,2.38,0.16,-1.25,2.25
11.78518009185791,2,3,3,3,-8.960000000000001,-0.59,2.79,0.66,-1.78,2.13
11.79518008232117,2,3,3,3,-8.880000000000001,-0.4,2.74,1.15,-1.87,1.93
11.80518007278442,2,3,3,3,-8.93,-0.32,2.73,0.91,-1.77,1.71
11.81518006324768,2,3,3,3,-9.15,-0.27,2.66,0.35,-1.07,1.48
11.82518005371094,2,3,3,3,-9.58,-0.44,2.55,-0.19,-0.26,1.33
11.83518004417419,2,3,3,3,-9.67,-0.6,2.47,-0.93,0.46,1.02
11.84518003463745,2,3,3,3,-9.77,-0.79,2.34,-1.46,0.99,0.55
11.85518002510071,2,3,3,3,-9.720000000000001,-0.95,2.07,-1.61,1.22,0.12
11.86518001556396,2,3,3,3,-9.609999999999999,-1.06,2.1,-1.47,1.18,-0.32
11.87518000602722,2,3,3,3,-9.56,-1.2,2.33,-1.08,1.38,-0.63
11.88517999649048,2,3,3,3,-9.67,-1.29,2.51,-0.6,1.84,-0.79
11.89517998695374,2,3,3,3,-9.85,-1.25,2.54,-0.3,1.85,-0.86
11.90517997741699,2,3,3,3,-9.77,-1.18,2.29,0.03,1.27,-0.85
11.91517996788025,2,3,3,3,-9.609999999999999,-1.16,2.17,0.32,0.75,-0.75
11.92517995834351,2,3,3,3,-9.4,-1.08,2.19,0.67,0.6,-0.65
11.93517994880676,2,3,3,3,-9.18,-1.03,2.61,0.95,0.47,-0.55
11.94517993927002,2,3,3,3,-9.050000000000001,-1.05,2.54,1.04,0.4,-0.36
11.95517992973328,2,3,3,3,-9.08,-0.99,2.43,0.75,0.4,-0.2
11.96517992019653,2,3,3,3,-9.17,-1.05,2.33,0.2,0.5600000000000001,0.01
11.97517991065979,2,3,3,3,-9.390000000000001,-1.02,2.36,0.09,0.67,0.27
11.98518013954163,2,3,3,3,-9.44,-1.07,2.41,0.15,0.63,0.59
11.99518013000488,2,3,3,3,-9.48,-1.11,2.45,0.2,0.38,0.82
12.00518012046814,2,3,3,3,-9.630000000000001,-1.18,2.43,0.14,0.27,0.79
12.0151801109314,2,3,3,3,-9.68,-1.19,2.36,0.16,0.23,0.63
12.02518010139465,2,3,3,3,-9.699999999999999,-1.19,2.33,0.24,0.29,0.42
12.03518009185791,2,3,3,3,-9.75,-1.17,2.4,0.23,0.5600000000000001,0.2
12.04518008232117,2,3,3,3,-9.640000000000001,-0.99,2.62,0.58,0.62,-0.02
12.05518007278442,2,3,3,3,-9.529999999999999,-1.04,2.68,1.1,0.53,-0.27
12.06518006324768,2,3,3,3,-9.42,-1.04,2.55,1.39,0.43,-0.5
12.07518005371094,2,3,3,3,-9.449999999999999,-1.12,2.52,1.32,0.55,-0.68
12.08518004417419,2,3,3,3,-9.48,-1.07,2.6,1.2,0.71,-0.78
12.09518003463745,2,3,3,3,-9.44,-1.06,2.55,1.23,0.67,-0.8100000000000001
12.10518002510071,2,3,3,3,-9.380000000000001,-1.09,2.42,1.03,0.45,-0.85
12.11518001556396,2,3,3,3,-9.390000000000001,-1.12,2.3,0.53,0.3,-0.89
12.12518000602722,2,3,3,3,-9.43,-1.28,2.37,0.28,0.28,-0.9
12.13517999649048,2,3,3,3,-9.49,-1.36,2.43,0.14,0.24,-0.85
12.14517998695374,2,3,3,3,-9.619999999999999,-1.38,2.42,0.1,0.32,-0.78
12.15517997741699,2,3,3,3,-9.68,-1.33,2.39,0.32,0.3,-0.6899999999999999
12.16517996788025,2,3,3,3,-9.529999999999999,-1.29,2.23,0.75,0.16,-0.66
12.17517995834351,2,3,3,3,-9.51,-1.21,2.33,1.02,0.11,-0.75
12.18517994880676,2,3,3,3,-9.470000000000001,-1.12,2.45,1.35,0.09,-0.79
12.19517993927002,2,3,3,3,-9.279999999999999,-0.99,2.42,1.61,-0.06,-0.73
12.20517992973328,2,3,3,3,-9.300000000000001,-0.95,2.35,1.38,-0.19,-0.74
12.21517992019653,2,3,3,3,-9.35,-0.9399999999999999,2.33,1.02,-0.1,-0.62
12.22517991065979,2,3,3,3,-9.43,-0.93,2.4,0.92,-0.02,-0.44
12.23518013954163,2,3,3,3,-9.460000000000001,-0.9,2.6,0.9,-0.08,-0.28
12.24618005752563,2,3,3,3,-9.460000000000001,-0.88,2.54,0.9399999999999999,-0.29,-0.13
12.25618004798889,2,3,3,3,-9.449999999999999,-0.9,2.46,0.65,-0.55,-0.08
12.26618003845215,2,3,3,3,-9.470000000000001,-0.92,2.33,0.15,-0.65,-0.09
12.27618002891541,2,3,3,3,-9.59,-0.95,2.33,-0.15,-0.47,-0.16
12.28618001937866,2,3,3,3,-9.630000000000001,-0.97,2.3,-0.34,-0.3,-0.24
12.29618000984192,2,3,3,3,-9.68,-1.02,2.31,-0.53,-0.05,-0.3
12.30618000030518,2,3,3,3,-9.710000000000001,-1.02,2.39,-0.48,0.18,-0.35
12.31617999076843,2,3,3,3,-9.609999999999999,-1.03,2.38,-0.24,0.14,-0.37
12.32617998123169,2,3,3,3,-9.460000000000001,-1.03,2.36,-0.08,-0.01,-0.43
12.33617997169495,2,3,3,3,-9.34,-1.04,2.33,-0.18,-0.13,-0.52
12.3461799621582,2,3,3,3,-9.359999999999999,-1.07,2.38,-0.53,0.01,-0.5600000000000001
12.35617995262146,2,3,3,3,-9.48,-1.09,2.34,-0.54,0.16,-0.55
12.36617994308472,2,3,3,3,-9.460000000000001,-1.12,2.09,-0.54,0.03,-0.45
12.37617993354797,2,3,3,3,-9.48,-1.19,2.1,-0.9,0.03,-0.4
12.38617992401123,2,3,3,3,-9.52,-1.2,2.18,-0.86,0.21,-0.32
12.39617991447449,2,3,3,3,-9.51,-1.19,2.33,-0.66,0.24,-0.29
12.40618014335632,2,3,3,3,-9.5,-1.18,2.44,-0.44,0.2,-0.3
12.41618013381958,2,3,3,3,-9.48,-1.1,2.19,-0.12,0.09,-0.28
12.42618012428284,2,3,3,3,-9.539999999999999,-0.99,2.38,-0.06,-0.09,-0.24
12.43618011474609,2,3,3,3,-9.449999999999999,-0.98,2.36,0.03,-0.27,-0.19
12.44618010520935,2,3,3,3,-9.42,-1.02,2.32,-0.25,-0.4,-0.15
12.45618009567261,2,3,3,3,-9.41,-1.03,2.38,-0.5600000000000001,-0.22,-0.13
12.46618008613586,2,3,3,3,-9.449999999999999,-1.09,2.25,-0.62,0.04,-0.09
12.47618007659912,2,3,3,3,-9.48,-1.12,2.29,-0.68,0.23,-0.08
12.48618006706238,2,3,3,3,-9.550000000000001,-1.16,2.34,-0.68,0.41,-0.1
12.49618005752563,2,3,3,3,-9.529999999999999,-1.16,2.37,-0.6899999999999999,0.39,-0.14
12.50618004798889,2,3,3,3,-9.56,-1.19,2.45,-0.72,0.3,-0.14
12.51618003845215,2,3,3,3,-9.529999999999999,-1.15,2.3,-0.64,0.13,-0.11
12.52618002891541,2,3,3,3,-9.51,-1.19,2.23,-0.75,0.03,-0.09
12.53618001937866,2,3,3,3,-9.56,-1.19,2.33,-0.92,0.08,-0.06
12.54618000984192,2,3,3,3,-9.5,-1.12,2.41,-0.67,0.15,0
12.55618000030518,2,3,3,3,-9.44,-1.12,2.36,-0.46,0.08,0.01
12.56617999076843,2,3,3,3,-9.449999999999999,-1.12,2.27,-0.57,0.1,-0.01
12.57617998123169,2,3,3,3,-9.460000000000001,-1.13,2.39,-0.64,0.31,-0.03
12.58617997169495,2,3,3,3,-9.460000000000001,-1.13,2.49,-0.57,0.39,-0.05
12.5961799621582,2,3,3,3,-9.460000000000001,-1.13,2.48,-0.52,0.47,-0.02
12.60617995262146,2,3,3,3,-9.43,-1.16,2.44,-0.58,0.42,0
12.61617994308472,2,3,3,3,-9.48,-1.17,2.22,-0.75,0.34,-0.01
12.62617993354797,2,3,3,3,-9.51,-1.18,2.25,-0.87,0.44,-0.03
12.63617992401123,2,3,3,3,-9.550000000000001,-1.2,2.28,-0.82,0.53,-0.07000000000000001
12.64617991447449,2,3,3,3,-9.56,-1.26,2.36,-0.8100000000000001,0.49,-0.05
12.65618014335632,2,3,3,3,-9.48,-1.3,2.27,-0.72,0.35,-0.03
12.66618013381958,2,3,3,3,-9.52,-1.28,2.14,-0.7,0.32,0.02
12.67618012428284,2,3,3,3,-9.550000000000001,-1.24,2.24,-0.55,0.32,0.06
12.68618011474609,2,3,3,3,-9.539999999999999,-1.19,2.3,-0.28,0.27,0.1
12.69618010520935,2,3,3,3,-9.41,-1.07,2.42,-0.09,0.2,0.06
12.70618009567261,2,3,3,3,-9.4,-1.06,2.47,-0.09,0.2,0.06
12.71618008613586,2,3,3,3,-9.449999999999999,-1.08,2.52,-0.04,0.23,0.02
12.72618007659912,2,3,3,3,-9.449999999999999,-1.07,2.55,-0.04,0.23,0.01
12.73618006706238,2,3,3,3,-9.5,-1.18,2.33,-0.24,0.19,-0.03
12.74618005752563,2,3,3,3,-9.56,-1.24,2.34,-0.76,0.54,-0.02
12.75618004798889,2,3,3,3,-9.57,-1.22,2.3,-0.76,0.54,-0.02
12.76618003845215,2,3,3,3,-9.56,-1.14,2.06,-0.72,0.52,-0.02
12.77618002891541,2,3,3,3,-9.539999999999999,-1.09,2.19,-0.59,0.53,-0.05
12.78618001937866,2,3,3,3,-9.5,-1.08,2.33,-0.14,0.53,-0.1
12.79618000984192,2,3,3,3,-9.470000000000001,-1.09,2.35,0.16,0.27,-0.22
12.80618000030518,2,3,3,3,-9.43,-1.17,2.22,0.16,0.27,-0.22
12.81617999076843,2,3,3,3,-9.449999999999999,-1.18,2.18,0.05,0.37,-0.21
12.82617998123169,2,3,3,3,-9.49,-1.17,2.27,-0.03,0.48,-0.15
12.83617997169495,2,3,3,3,-9.5,-1.17,2.32,0,0.55,-0.11
12.8461799621582,2,3,3,3,-9.49,-1.08,2.45,0.08,0.37,0.03
12.85617995262146,2,3,3,3,-9.449999999999999,-1.06,2.49,0.08,0.37,0.03
12.86617994308472,2,3,3,3,-9.460000000000001,-1.08,2.4,0.04,0.27,0.06
12.87617993354797,2,3,3,3,-9.5,-1.08,2.36,0.14,0.18,0.12
12.88617992401123,2,3,3,3,-9.49,-1.1,2.26,0.18,-0.05,0.21
12.89617991447449,2,3,3,3,-9.5,-1.14,2.29,0.19,-0.21,0.3
12.90618014335632,2,3,3,3,-9.49,-1.11,2.29,0.19,-0.21,0.3
12.91618013381958,2,3,3,3,-9.48,-1.07,2.22,0.32,-0.11,0.27
12.92618012428284,2,3,3,3,-9.48,-1.1,2.34,0.41,0.11,0.28
12.93618011474609,2,3,3,3,-9.460000000000001,-1.08,2.34,0.39,0.29,0.24
12.94618010520935,2,3,3,3,-9.470000000000001,-1.15,2.43,0.2,0.44,0.16
12.95618009567261,2,3,3,3,-9.550000000000001,-1.19,2.3,0.2,0.44,0.16
12.96618008613586,2,3,3,3,-9.56,-1.19,2.14,0.13,0.29,0.22
12.97718000411987,2,3,3,3,-9.56,-1.2,2.11,-0.01,0.14,0.3
12.98618006706238,2,3,3,3,-9.52,-1.18,2.23,0.07000000000000001,0.1,0.37
12.99618005752563,2,3,3,3,-9.52,-1.16,2.38,0.5600000000000001,-0.08,0.32
13.00717997550964,2,3,3,3,-9.449999999999999,-1.19,2.24,0.5600000000000001,-0.08,0.32
13.01618003845215,2,3,3,3,-9.43,-1.17,2.07,0.45,-0.08,0.3
13.02618002891541,2,3,3,3,-9.49,-1.15,2.17,0.51,0.07000000000000001,0.3
13.03717994689941,2,3,3,3,-9.48,-1.11,2.29,0.57,-0.01,0.31
13.04618000984192,2,3,3,3,-9.49,-1.07,2.31,0.51,0,0.31
13.05618000030518,2,3,3,3,-9.529999999999999,-1.03,2.36,0.51,0,0.31
13.06617999076843,2,3,3,3,-9.57,-1.02,2.3,0.42,0.14,0.33
13.07617998123169,2,3,3,3,-9.539999999999999,-1.04,2.27,0.13,0.15,0.23
13.08617997169495,2,3,3,3,-9.550000000000001,-1.07,2.3,0.02,0.17,0.12
13.0961799621582,2,3,3,3,-9.5,-1.07,2.3,-0.02,0.16,-0.01
13.10617995262146,2,3,3,3,-9.51,-1.09,2.23,0.02,0.18,-0.16
13.11617994308472,2,3,3,3,-9.51,-1.09,2.19,0.13,0.16,-0.17
13.12617993354797,2,3,3,3,-9.51,-1.08,2.2,0.11,0.06,-0.2
13.13617992401123,2,3,3,3,-9.470000000000001,-1.1,2.15,0.08,0.11,-0.22
13.14617991447449,2,3,3,3,-9.539999999999999,-1.06,2.26,0.17,0.18,-0.18
13.15618014335632,2,3,3,3,-9.56,-1.03,2.29,0.13,0.24,-0.2
13.16618013381958,2,3,3,3,-9.57,-1.02,2.19,0.04,0.33,-0.19
13.17618012428284,2,3,3,3,-9.56,-0.98,2.26,-0.12,0.38,-0.18
13.18718004226685,2,3,3,3,-9.51,-0.98,2.3,-0.24,0.46,-0.23
13.19618010520935,2,3,3,3,-9.49,-1.01,2.32,-0.38,0.51,-0.31
13.20618009567261,2,3,3,3,-9.48,-1.04,2.33,-0.41,0.43,-0.35
13.21718001365662,2,3,3,3,-9.49,-1.06,2.19,-0.46,0.41,-0.37
13.22618007659912,2,3,3,3,-9.5,-1.12,2.3,-0.54,0.35,-0.33
13.23618006706238,2,3,3,3,-9.460000000000001,-1.15,2.31,-0.63,0.26,-0.27
13.24618005752563,2,3,3,3,-9.449999999999999,-1.15,2.28,-0.65,0.25,-0.21
13.25618004798889,2,3,3,3,-9.49,-1.18,2.24,-0.55,0.27,-0.09
13.2671799659729,2,3,3,3,-9.51,-1.13,2.09,-0.45,0.16,-0.02
13.27717995643616,2,3,3,3,-9.52,-1.14,2.15,-0.31,0.11,0
13.29717993736267,2,3,3,3,-9.48,-1.08,2.3,-0.05,0.02,0.06
13.32717990875244,2,3,3,3,-9.49,-1.11,2.19,-0.11,-0.08,0.07000000000000001
13.33718013763428,2,3,3,3,-9.52,-1.08,2.27,-0.15,0.01,0.02
13.34718012809753,2,3,3,3,-9.550000000000001,-1.08,2.27,-0.19,0.09,0.01
13.35718011856079,2,3,3,3,-9.57,-1.08,2.3,-0.18,0.12,0
13.36718010902405,2,3,3,3,-9.57,-1.08,2.19,-0.24,0.14,-0.05
13.3771800994873,2,3,3,3,-9.539999999999999,-1.12,2.17,-0.34,0.06,-0.07000000000000001
13.38718008995056,2,3,3,3,-9.550000000000001,-1.14,2.25,-0.34,-0.03,-0.09
13.39718008041382,2,3,3,3,-9.550000000000001,-1.19,2.3,-0.21,-0.27,-0.1
13.40718007087708,2,3,3,3,-9.5,-1.18,2.27,-0.15,-0.54,-0.08
13.41718006134033,2,3,3,3,-9.5,-1.25,2.12,-0.06,-0.61,-0.05
13.42718005180359,2,3,3,3,-9.48,-1.23,2.14,0.03,-0.67,0
13.43718004226685,2,3,3,3,-9.470000000000001,-1.21,2.2,0.13,-0.54,0.04
13.4471800327301,2,3,3,3,-9.449999999999999,-1.18,2.29,0.19,-0.41,0.04
13.45718002319336,2,3,3,3,-9.42,-1.14,2.31,0.22,-0.28,0.08
13.46718001365662,2,3,3,3,-9.43,-1.16,2.26,0.17,-0.09,0.12
13.47718000411987,2,3,3,3,-9.44,-1.19,2.24,0.07000000000000001,-0.01,0.15
13.48717999458313,2,3,3,3,-9.56,-1.18,2.28,0.04,0.06,0.15
13.49717998504639,2,3,3,3,-9.58,-1.15,2.27,0.05,0.05,0.12
13.50717997550964,2,3,3,3,-9.57,-1.15,2.25,0,0.08,0.08
13.5171799659729,2,3,3,3,-9.59,-1.18,2.16,-0.04,0.09,0.03
13.52717995643616,2,3,3,3,-9.6,-1.17,2.24,-0.06,0.12,0.02
13.53717994689941,2,3,3,3,-9.56,-1.23,2.33,-0.09,0.1,0.03
13.54717993736267,2,3,3,3,-9.529999999999999,-1.22,2.32,-0.1,0.12,0.06
13.55717992782593,2,3,3,3,-9.5,-1.28,2.35,-0.14,0.1,0.17
13.56717991828918,2,3,3,3,-9.5,-1.24,2.19,-0.12,-0.07000000000000001,0.27
13.57717990875244,2,3,3,3,-9.460000000000001,-1.21,2.24,0,-0.26,0.35
13.58718013763428,2,3,3,3,-9.49,-1.15,2.28,0.1,-0.42,0.44
13.59718012809753,2,3,3,3,-9.48,-1.13,2.28,0.15,-0.47,0.48
13.60718011856079,2,3,3,3,-9.460000000000001,-1.08,2.29,0.18,-0.5,0.44
13.61718010902405,2,3,3,3,-9.449999999999999,-1.1,2.22,0.1,-0.41,0.46
13.6271800994873,2,3,3,3,-9.449999999999999,-1.1,2.26,-0.02,-0.3,0.43
13.63718008995056,2,3,3,3,-9.48,-1.09,2.3,-0.12,-0.15,0.44
13.64718008041382,2,3,3,3,-9.48,-1.09,2.3,-0.13,0.01,0.4
13.65718007087708,2,3,3,3,-9.56,-1.11,2.31,-0.13,0.05,0.41
13.66718006134033,2,3,3,3,-9.59,-1.07,2.12,-0.12,0.04,0.35
13.67718005180359,2,3,3,3,-9.619999999999999,-1.07,2.23,-0.01,0.02,0.32
13.68718004226685,2,3,3,3,-9.550000000000001,-1.01,2.24,0.11,-0.05,0.25
13.6971800327301,2,3,3,3,-9.550000000000001,-1.01,2.24,0.11,0,0.22
13.70718002319336,2,3,3,3,-9.51,-1.06,2.29,0.22,-0.04,0.16
13.71718001365662,2,3,3,3,-9.4,-1.01,2.27,0.12,-0.13,0.18
13.72718000411987,2,3,3,3,-9.41,-1.03,2.32,0.02,-0.06,0.22
13.73717999458313,2,3,3,3,-9.460000000000001,-1.05,2.36,-0.03,0.06,0.23
13.74717998504639,2,3,3,3,-9.460000000000001,-1.05,2.36,-0.03,0.06,0.23
13.75717997550964,2,3,3,3,-9.449999999999999,-1.05,2.32,-0.13,0.19,0.29
13.7671799659729,2,3,3,3,-9.51,-0.99,2.14,-0.08,0.18,0.3
13.77717995643616,2,3,3,3,-9.52,-0.99,2.16,-0.06,0.13,0.28
13.78717994689941,2,3,3,3,-9.56,-1.01,2.2,0.09,0.11,0.27
13.79717993736267,2,3,3,3,-9.56,-1.01,2.2,0.09,0.11,0.27
13.80717992782593,2,3,3,3,-9.539999999999999,-0.96,2.33,0.17,0,0.26
13.81717991828918,2,3,3,3,-9.52,-0.97,2.27,0.18,-0.14,0.3
13.82717990875244,2,3,3,3,-9.51,-0.97,2.28,0.09,-0.09,0.32
13.83718013763428,2,3,3,3,-9.48,-0.95,2.27,-0.01,-0.1,0.3
13.84718012809753,2,3,3,3,-9.48,-0.95,2.27,-0.01,-0.1,0.3
13.85718011856079,2,3,3,3,-9.49,-0.92,2.26,0.02,0.06,0.28
13.86718010902405,2,3,3,3,-9.550000000000001,-0.92,2.32,0.25,0,0.37
13.8771800994873,2,3,3,3,-9.52,-0.92,2.34,0.31,-0.18,0.35
13.88718008995056,2,3,3,3,-9.449999999999999,-0.96,2.31,0.21,-0.22,0.36
13.89718008041382,2,3,3,3,-9.449999999999999,-0.96,2.31,0.21,-0.22,0.36
13.90718007087708,2,3,3,3,-9.449999999999999,-0.95,2.34,0.23,-0.1,0.38
13.91718006134033,2,3,3,3,-9.51,-0.9,2.26,0.18,-0.12,0.39
13.92718005180359,2,3,3,3,-9.49,-0.91,2.26,0.07000000000000001,-0.11,0.36
13.93718004226685,2,3,3,3,-9.51,-0.92,2.26,0.01,-0.03,0.35
13.9471800327301,2,3,3,3,-9.51,-0.92,2.26,0.01,-0.03,0.35
13.95718002319336,2,3,3,3,-9.58,-0.91,2.37,0.06,-0.08,0.31
13.96718001365662,2,3,3,3,-9.56,-0.91,2.37,-0.02,-0.09,0.22
13.97718000411987,2,3,3,3,-9.56,-0.93,2.21,-0.05,0.02,0.21
13.98717999458313,2,3,3,3,-9.5,-0.93,2.25,-0.03,0.04,0.2
13.99717998504639,2,3,3,3,-9.529999999999999,-0.9,2.35,-0.03,0.04,0.2
14.00717997550964,2,3,3,3,-9.48,-0.93,2.37,-0.09,-0.09,0.17
14.0171799659729,2,3,3,3,-9.48,-0.96,2.35,-0.05,-0.07000000000000001,0.16
14.02717995643616,2,3,3,3,-9.49,-0.99,2.23,-0.01,-0.09,0.16
14.03717994689941,2,3,3,3,-9.48,-0.99,2.3,0.05,-0.05,0.19
14.04717993736267,2,3,3,3,-9.49,-1,2.31,0.05,-0.05,0.19
14.05717992782593,2,3,3,3,-9.5,-0.98,2.31,0.1,-0.01,0.21
14.06717991828918,2,3,3,3,-9.49,-0.9399999999999999,2.34,0.16,-0.14,0.31
14.07717990875244,2,3,3,3,-9.48,-0.92,2.24,0.12,-0.11,0.28
14.08718013763428,2,3,3,3,-9.470000000000001,-0.93,2.27,0.06,-0.08,0.28
14.09718012809753,2,3,3,3,-9.48,-0.9,2.29,0.06,-0.08,0.28
14.10718011856079,2,3,3,3,-9.550000000000001,-0.89,2.36,0,-0.05,0.27
14.11718010902405,2,3,3,3,-9.56,-0.86,2.36,-0.02,-0.1,0.28
14.1271800994873,2,3,3,3,-9.56,-0.88,2.3,-0.01,-0.19,0.29
14.13718008995056,2,3,3,3,-9.539999999999999,-0.9,2.31,-0.04,-0.16,0.29
14.14718008041382,2,3,3,3,-9.49,-0.92,2.31,-0.04,-0.16,0.29
14.15718007087708,2,3,3,3,-9.49,-0.95,2.35,-0.05,-0.13,0.28
14.16718006134033,2,3,3,3,-9.51,-0.95,2.35,-0.22,-0.13,0.24
14.17718005180359,2,3,3,3,-9.49,-0.97,2.22,-0.25,-0.07000000000000001,0.25
14.18718004226685,2,3,3,3,-9.48,-0.93,2.26,-0.18,-0.04,0.27
14.1971800327301,2,3,3,3,-9.51,-0.9,2.31,-0.18,-0.04,0.27
14.20718002319336,2,3,3,3,-9.52,-0.92,2.35,-0.15,-0.06,0.26
14.21718001365662,2,3,3,3,-9.5,-0.91,2.36,-0.14,-0.07000000000000001,0.27
14.22718000411987,2,3,3,3,-9.52,-0.89,2.28,-0.23,-0.08,0.23
14.23717999458313,2,3,3,3,-9.550000000000001,-0.91,2.32,-0.23,-0.03,0.2
14.24717998504639,2,3,3,3,-9.56,-0.92,2.37,-0.23,-0.03,0.2
14.25717997550964,2,3,3,3,-9.5,-0.9,2.28,-0.29,-0.01,0.15
14.2671799659729,2,3,3,3,-9.550000000000001,-0.9399999999999999,2.25,-0.16,-0.05,0.06
14.27717995643616,2,3,3,3,-9.539999999999999,-0.98,2.2,-0.01,-0.08,0.04
14.28717994689941,2,3,3,3,-9.529999999999999,-0.97,2.23,0.01,-0.13,0.04
14.298180103302,2,3,3,3,-9.49,-0.99,2.35,0.01,-0.13,0.04
14.30818009376526,2,3,3,3,-9.48,-1.01,2.33,-0.15,-0.02,0.09
14.31818008422852,2,3,3,3,-9.449999999999999,-0.97,2.3,-0.2,0.01,0.11
14.32818007469177,2,3,3,3,-9.48,-0.97,2.24,-0.22,0.08,0.13
14.34818005561829,2,3,3,3,-9.52,-0.92,2.31,-0.17,0.11,0.13
14.35818004608154,2,3,3,3,-9.539999999999999,-0.93,2.35,-0.09,0.07000000000000001,0.12
14.3681800365448,2,3,3,3,-9.539999999999999,-0.92,2.36,-0.02,0.04,0.13
14.37818002700806,2,3,3,3,-9.539999999999999,-0.9,2.26,-0.02,0,0.08
14.38818001747131,2,3,3,3,-9.5,-0.89,2.33,-0.08,0.05,0.05
14.39818000793457,2,3,3,3,-9.49,-0.9,2.35,-0.08,0.05,0.05
14.40817999839783,2,3,3,3,-9.49,-0.89,2.38,-0.15,0.13,0.03
14.41817998886108,2,3,3,3,-9.470000000000001,-0.9,2.36,-0.26,0.13,0
14.42817997932434,2,3,3,3,-9.5,-0.91,2.27,-0.29,0.21,0.01
14.4381799697876,2,3,3,3,-9.5,-0.92,2.27,-0.27,0.25,0
14.44817996025085,2,3,3,3,-9.529999999999999,-0.91,2.3,-0.27,0.25,0
14.45817995071411,2,3,3,3,-9.529999999999999,-0.92,2.34,-0.2,0.27,0.01
14.46817994117737,2,3,3,3,-9.51,-0.89,2.36,-0.12,0.23,-0.02
14.47817993164062,2,3,3,3,-9.48,-0.86,2.28,-0.1,0.19,0
14.48817992210388,2,3,3,3,-9.49,-0.86,2.35,-0.13,0.22,0.05
14.49817991256714,2,3,3,3,-9.49,-0.88,2.41,-0.13,0.22,0.05
14.50818014144897,2,3,3,3,-9.52,-0.9,2.45,-0.22,0.17,0.07000000000000001
14.51818013191223,2,3,3,3,-9.48,-0.89,2.42,-0.36,0.16,0.06
14.52818012237549,2,3,3,3,-9.5,-0.84,2.24,-0.49,0.34,-0.03
14.53818011283875,2,3,3,3,-9.550000000000001,-0.84,2.3,-0.51,0.31,-0.09
14.548180103302,2,3,3,3,-9.550000000000001,-0.85,2.37,-0.51,0.31,-0.09
14.55818009376526,2,3,3,3,-9.6,-0.88,2.42,-0.49,0.28,-0.14
14.56818008422852,2,3,3,3,-9.59,-0.92,2.39,-0.59,0.07000000000000001,-0.15
14.57818007469177,2,3,3,3,-9.59,-0.9399999999999999,2.27,-0.57,0.14,-0.2
14.58818006515503,2,3,3,3,-9.57,-0.96,2.26,-0.42,0.2,-0.28
14.59818005561829,2,3,3,3,-9.5,-0.97,2.37,-0.42,0.2,-0.28
14.60818004608154,2,3,3,3,-9.44,-0.95,2.39,-0.33,0.26,-0.4
14.6181800365448,2,3,3,3,-9.4,-0.95,2.46,-0.35,0.42,-0.55
14.62818002700806,2,3,3,3,-9.41,-0.96,2.45,-0.65,0.66,-0.46
14.63818001747131,2,3,3,3,-9.460000000000001,-1.05,2.46,-0.86,1.02,-0.4
14.64818000793457,2,3,3,3,-9.449999999999999,-1.13,2.45,-0.86,1.02,-0.4
14.65817999839783,2,3,3,3,-9.380000000000001,-1.16,2.41,-0.92,1.22,-0.35
14.66817998886108,2,3,3,3,-9.33,-1.21,2.43,-0.96,1.23,-0.24
14.67817997932434,2,3,3,3,-9.34,-1.33,2.12,-0.67,0.79,0
14.6881799697876,2,3,3,3,-9.42,-1.28,2.1,-0.12,0.63,0.11
14.69817996025085,2,3,3,3,-9.5,-1.13,2.25,-0.12,0.63,0.11
14.70817995071411,2,3,3,3,-9.539999999999999,-1.04,2.46,0.5600000000000001,0.4,0.17
14.71817994117737,2,3,3,3,-9.380000000000001,-0.83,2.77,1.09,0.26,0.15
14.72817993164062,2,3,3,3,-9.24,-0.77,2.82,1,0.72,-0.04
14.73817992210388,2,3,3,3,-9.08,-0.7,2.94,0.38,1.04,-0.07000000000000001
14.74817991256714,2,3,3,3,-8.94,-0.62,3.01,0.38,1.04,-0.07000000000000001
14.75818014144897,2,3,3,3,-8.99,-0.66,3.08,-0.24,1.3,0.02
14.76818013191223,2,3,3,3,-9.19,-0.73,3.07,-1.19,1.58,0.24
14.77818012237549,2,3,3,3,-9.449999999999999,-0.77,2.95,-1.33,1.55,0.25
14.78818011283875,2,3,3,3,-9.720000000000001,-0.91,2.73,-1.21,1.38,0.14
14.798180103302,2,3,3,3,-9.73,-0.92,2.62,-1.21,1.38,0.14
14.80818009376526,2,3,3,3,-9.65,-0.95,2.62,-1.04,1.04,-0.03
14.81818008422852,2,3,3,3,-9.539999999999999,-1,2.66,-0.67,0.27,-0.32
14.82818007469177,2,3,3,3,-9.140000000000001,-1.02,2.63,-0.51,0.19,-0.32
14.83818006515503,2,3,3,3,-9.01,-1.06,2.84,-0.09,0.18,-0.15
14.84818005561829,2,3,3,3,-8.98,-1.05,3.12,-0.09,0.18,-0.15
14.85818004608154,2,3,3,3,-9.08,-1.05,3.41,0.6,-0.1,0.13
14.8681800365448,2,3,3,3,-9.279999999999999,-0.84,3.63,1.49,-1.04,0.49
14.87818002700806,2,3,3,3,-9.01,-0.8,3.32,0.99,-1.75,0.65
14.88818001747131,2,3,3,3,-9.01,-0.86,3.33,0.13,-1.59,0.61
14.89818000793457,2,3,3,3,-9.1,-0.87,3.41,-0.4,-1.19,0.47
14.90817999839783,2,3,3,3,-9.539999999999999,-0.95,3.57,-0.44,-1.1,0.39
14.91817998886108,2,3,3,3,-9.69,-0.9,3.58,-0.46,-1.87,0.3
14.92817997932434,2,3,3,3,-9.529999999999999,-0.92,2.85,-1.29,-2.48,0.12
14.9381799697876,2,3,3,3,-9.67,-1.03,2.87,-1.41,-2.3,0
14.94817996025085,2,3,3,3,-9.779999999999999,-1.08,3.13,-0.44,-2.5,-0.15
14.95817995071411,2,3,3,3,-9.710000000000001,-1.18,3.05,-0.08,-3.16,-0.29
14.96817994117737,2,3,3,3,-9.56,-1.25,3.19,0.04,-3.47,-0.45
14.97817993164062,2,3,3,3,-9.26,-1.46,2.99,0.28,-3.85,-0.5
14.98817992210388,2,3,3,3,-8.869999999999999,-1.57,2.79,0.14,-4.03,-0.39
14.99817991256714,2,3,3,3,-8.76,-1.69,2.44,0.5,-3.6,-0.26
15.00818014144897,2,3,3,3,-8.83,-1.55,2.27,1.27,-2.87,0.03
15.01818013191223,2,3,3,3,-9.08,-1.44,2.31,2.28,-2.4,0.3
15.02818012237549,2,3,3,3,-8.99,-1.35,2.35,3.19,-1.97,0.3
15.03818011283875,2,3,3,3,-8.84,-1.34,2.48,4.1,-1.63,0.23
15.048180103302,2,3,3,3,-8.630000000000001,-1.29,2.41,4.88,-1.29,-0.01
15.05818009376526,2,3,3,3,-8.58,-1,2.19,4.91,-0.58,-0.16
15.06818008422852,2,3,3,3,-8.82,-0.78,2.11,4.85,-0.07000000000000001,-0.29
15.07818007469177,2,3,3,3,-9.16,-0.5,2.07,4.34,0.39,-0.24
15.08818006515503,2,3,3,3,-9.609999999999999,-0.16,1.95,3.26,1.21,-0.1
15.09818005561829,2,3,3,3,-10.55,0.5600000000000001,1.53,2.18,2.05,-0.08
15.10818004608154,2,3,3,3,-10.89,0.65,1.57,1.38,2.41,-0.22
15.1181800365448,2,3,3,3,-11,0.55,1.73,0.9,1.88,-0.55
15.12818002700806,2,3,3,3,-10.57,-0.02,1.69,0.58,0.71,-0.8
15.13818001747131,2,3,3,3,-10.17,-0.14,1.83,0.49,-0.33,-0.8100000000000001
15.14818000793457,2,3,3,3,-9.779999999999999,-0.15,2.05,0.28,-0.74,-0.6899999999999999
15.15817999839783,2,3,3,3,-9.460000000000001,-0.1,2.24,-0.17,-0.36,-0.55
15.16817998886108,2,3,3,3,-9.140000000000001,-0.09,2.18,-0.83,0.79,-0.54
15.17817997932434,2,3,3,3,-9.109999999999999,-0.08,1.96,-1.33,2.43,-0.63
15.1881799697876,2,3,3,3,-9.15,-0.14,2.01,-1.36,4.15,-0.91
15.19817996025085,2,3,3,3,-9.26,-0.26,1.84,-1.09,5.22,-1.36
15.20817995071411,2,3,3,3,-9.52,-0.59,1.58,0.02,5.68,-1.77
15.21817994117737,2,3,3,3,-9.57,-0.6,1.56,1.4,5.54,-2.12
15.22817993164062,2,3,3,3,-9.56,-0.57,1.41,2.73,5.09,-2.43
15.23817992210388,2,3,3,3,-9.44,-0.55,1.43,3.65,4.9,-2.65
15.24817991256714,2,3,3,3,-9.289999999999999,-0.4,1.4,4.22,5.03,-2.84
15.25818014144897,2,3,3,3,-9.27,-0.25,1.46,4.61,5.15,-2.93
15.26818013191223,2,3,3,3,-9.35,-0.13,1.47,4.63,4.95,-2.83
15.27818012237549,2,3,3,3,-9.390000000000001,-0.05,1.41,4.34,4.4,-2.59
15.28818011283875,2,3,3,3,-9.51,0.06,1.4,3.99,3.98,-2.27
15.298180103302,2,3,3,3,-9.48,0.17,1.48,3.73,3.53,-1.9
15.30818009376526,2,3,3,3,-9.4,0.31,1.64,3.7,3,-1.57
15.31918001174927,2,3,3,3,-9.34,0.51,1.78,3.56,2.58,-1.26
15.32918000221252,2,3,3,3,-9.35,0.63,1.8,3.18,2.32,-0.9399999999999999
15.33917999267578,2,3,3,3,-9.26,0.7,1.86,2.61,2.17,-0.73
15.34917998313904,2,3,3,3,-9.23,0.68,1.99,1.91,2.09,-0.59
15.35917997360229,2,3,3,3,-9.15,0.66,1.99,1.04,2.04,-0.63
15.36917996406555,2,3,3,3,-9.380000000000001,0.58,1.99,0.22,2,-0.64
15.37917995452881,2,3,3,3,-9.81,0.51,1.86,-0.41,1.69,-0.43
15.38917994499207,2,3,3,3,-10.23,0.38,1.65,-0.84,1.23,-0.03
15.39917993545532,2,3,3,3,-10.36,0.15,1.48,-0.8100000000000001,0.91,0.09
15.40917992591858,2,3,3,3,-10.01,0.08,1.41,-0.44,0.68,-0.21
15.41917991638184,2,3,3,3,-9.720000000000001,0,1.48,0.09,0.55,-0.77
15.42918014526367,2,3,3,3,-9.52,-0.09,1.5,0.57,0.59,-1.4
15.43918013572693,2,3,3,3,-9.35,-0.27,1.58,0.88,0.78,-1.92
15.44918012619019,2,3,3,3,-9.24,-0.29,1.51,1.2,1.05,-2.3
15.45918011665344,2,3,3,3,-9.119999999999999,-0.34,1.37,1.32,1.45,-2.49
15.4691801071167,2,3,3,3,-9.15,-0.33,1.36,1.55,1.63,-2.52
15.47918009757996,2,3,3,3,-9.07,-0.28,1.25,1.77,1.39,-2.55
15.48918008804321,2,3,3,3,-9.09,-0.23,1.28,2.06,1.07,-2.51
15.49918007850647,2,3,3,3,-9.210000000000001,-0.19,1.41,2.59,0.84,-2.35
15.50918006896973,2,3,3,3,-9.5,-0.11,1.54,3.13,0.6,-2.2
15.51918005943298,2,3,3,3,-9.49,-0.05,1.57,3.58,0.42,-2.16
15.52918004989624,2,3,3,3,-9.43,0.01,1.39,3.88,0.54,-2.3
15.5391800403595,2,3,3,3,-9.35,0.13,1.41,4.29,0.77,-2.54
15.54918003082275,2,3,3,3,-9.380000000000001,0.35,1.59,4.48,1.07,-2.89
15.55918002128601,2,3,3,3,-9.539999999999999,0.32,1.64,4.13,1.48,-3.16
15.56918001174927,2,3,3,3,-9.75,0.28,1.57,3.64,1.84,-3.3
15.57918000221252,2,3,3,3,-9.960000000000001,0.2,1.38,3.17,2.11,-3.29
15.58917999267578,2,3,3,3,-10.26,0.25,0.98,2.97,2.45,-3.16
15.59917998313904,2,3,3,3,-10.35,0.2,0.87,3.07,2.62,-3.02
15.60917997360229,2,3,3,3,-10.31,0.28,0.83,3.7,2.42,-3.16
15.61917996406555,2,3,3,3,-10.3,0.4,0.84,4.3,2.13,-3.36
15.62917995452881,2,3,3,3,-10.5,0.44,0.85,4.74,1.84,-3.42
15.63917994499207,2,3,3,3,-10.65,0.44,0.91,5.01,1.69,-3.29
15.64917993545532,2,3,3,3,-10.83,0.52,0.96,5.35,1.44,-3.11
15.65917992591858,2,3,3,3,-10.98,0.75,1.33,5.71,1.02,-2.91
15.66917991638184,2,3,3,3,-11,0.87,1.37,5.84,0.91,-2.65
15.67918014526367,2,3,3,3,-11.07,1,1.37,5.48,1.28,-2.25
15.68918013572693,2,3,3,3,-11.1,1.08,1.38,4.83,1.9,-1.79
15.69918012619019,2,3,3,3,-11.45,1.1,1.44,4.05,2.59,-1.4
15.70918011665344,2,3,3,3,-11.72,1.03,1.45,3.26,3.04,-0.97
15.7191801071167,2,3,3,3,-12.1,0.97,1.65,3.07,3.37,-0.61
15.72918009757996,2,3,3,3,-12.39,1.04,1.42,2.3,3.27,-0.36
15.73918008804321,2,3,3,3,-12.9,1.08,1.24,1.03,3.08,-0.12
15.74918007850647,2,3,3,3,-13.02,1.2,1.07,-0.2,2.58,0.23
15.75918006896973,2,3,3,3,-12.97,1.18,0.85,-1.75,1.81,0.57
15.76918005943298,2,3,3,3,-12.82,1.08,0.74,-3.12,1.27,0.79
15.77918004989624,2,3,3,3,-12.7,0.13,1.28,-3.95,0.44,0.71
15.7891800403595,2,3,3,3,-12.56,-0.7,1.33,-4.98,-0.63,0.5
15.79918003082275,2,3,3,3,-12.23,-1.67,1.32,-5.96,-1.25,0.31
15.80918002128601,2,3,3,3,-11.8,-2.65,1.23,-6.51,-1.37,0.5600000000000001
15.81918001174927,2,3,3,3,-10.8,-4.13,0.86,-6.54,-1.57,1.22
15.82918000221252,2,3,3,3,-10.24,-4.66,0.74,-6.09,-1.98,2.14
15.83917999267578,2,3,3,3,-9.880000000000001,-5.04,0.97,-5.07,-2.16,3.14
15.84917998313904,2,3,3,3,-9.710000000000001,-5.81,1.11,-3.79,-2.03,3.98
15.85917997360229,2,3,3,3,-9.529999999999999,-5.72,-0.02,-3.4,-1.65,4.51
15.86917996406555,2,3,3,3,-9.619999999999999,-5.47,-0.6,-2.53,0.16,5.05
15.87917995452881,2,3,3,3,-9.69,-4.99,-0.17,0.62,1.52,5.27
15.88917994499207,2,3,3,3,-8.710000000000001,-3.41,1.49,3.42,0.76,5.19
15.89917993545532,2,3,3,3,-8.119999999999999,-2.36,2.16,4.76,0.37,5
15.90917992591858,2,3,3,3,-7.79,-1.35,2.65,4.58,1.58,4.96
15.91917991638184,2,3,3,3,-7.82,-0.65,3.2,3.44,3.04,5.43
15.92918014526367,2,3,3,3,-8.94,-0.04,3.93,2.28,3.25,5.98
15.93918013572693,2,3,3,3,-9.31,0.27,4.18,0.8100000000000001,1.64,6.05
15.94918012619019,2,3,3,3,-9.6,0.42,4.17,-1,-0.97,5.66
15.95918011665344,2,3,3,3,-9.609999999999999,0.28,3.75,-3.49,-3.61,5.08
15.9691801071167,2,3,3,3,-9.220000000000001,-0.07000000000000001,2.06,-6.29,-5.4,4.34
15.97918009757996,2,3,3,3,-9.119999999999999,-0.5,1.4,-8.390000000000001,-6.57,3.45
15.98918008804321,2,3,3,3,-8.960000000000001,-0.85,1.01,-9.609999999999999,-8.01,2.55
15.99918007850647,2,3,3,3,-8.789999999999999,-1.19,0.77,-9.49,-9.029999999999999,1.95
16.00918006896973,2,3,3,3,-8.619999999999999,-1.27,1.25,-8.4,-10.53,1.6
16.01918005943298,2,3,3,3,-7.86,-1.42,1.07,-8.369999999999999,-12.39,1.17
16.02918004989624,2,3,3,3,-7.07,-1.62,0.66,-9.130000000000001,-11.85,0.87
16.0391800403595,2,3,3,3,-6.66,-1.42,1.64,-8.859999999999999,-9.539999999999999,1.46
16.04918003082275,2,3,3,3,-7.02,-1.58,2.5,-7.5,-8.18,2.56
16.05918002128601,2,3,3,2,-6.95,-1.71,2.82,-6.66,-8.359999999999999,3.27
16.06918001174927,2,3,3,2,-6.76,-1.94,2.73,-6.88,-8.539999999999999,3.96
16.07918000221252,2,3,3,2,-7.05,-2.12,2.55,-6.76,-7.34,4.53
16.08917999267578,2,3,3,2,-7.41,-1.96,2.71,-6.17,-5.85,5.06
16.09917998313904,2,3,3,2,-7.84,-1.75,2.79,-5.85,-4.87,5.21
16.10917997360229,2,3,3,2,-8.199999999999999,-1.4,2.64,-5.85,-4.28,4.84
16.11917996406555,2,3,3,2,-8.539999999999999,-0.77,2.12,-6,-3.66,4.29
16.12917995452881,2,3,3,2,-8.77,-0.5,2.11,-5.76,-2.94,3.58
16.13917994499207,2,3,3,2,-9.25,-0.22,2.69,-5.01,-3.04,2.62
16.14917993545532,2,3,3,2,-9.49,-0.27,3.17,-4.49,-5.14,1.73
16.15917992591858,2,3,3,1,-8.33,-0.09,2.08,-4.79,-7.02,0.42
16.16917991638184,2,3,3,1,-8.050000000000001,-0.11,1.89,-5.06,-5.57,-0.53
16.17918014526367,2,3,3,1,-8.130000000000001,0.08,2.37,-3.7,-3.14,-0.9
16.18918013572693,2,3,3,1,-8.09,0.38,2.87,-2.05,-2.28,-0.8100000000000001
16.19918012619019,2,3,3,1,-7.31,0.8,3.35,-1.25,-2.34,-0.63
16.20918011665344,2,3,3,0,-6.91,0.93,3.24,-1.32,-1.49,-0.52
16.2191801071167,2,3,3,0,-6.84,1,3.12,-1.38,0.34,-0.27
16.22918009757996,2,3,3,0,-7.2,1.19,3.28,-1.16,2.15,0.07000000000000001
16.23918008804321,2,3,3,0,-7.67,1.29,3.54,-0.83,3.4,0.45
16.24918007850647,2,3,3,0,-8.109999999999999,1.4,3.6,-1.07,3.6,0.88
16.25918006896973,2,3,3,0,-8.52,1.43,3.64,-1.95,3.25,1.33
16.26918005943298,2,3,3,0,-9.42,1.57,3.83,-2.7,2.26,1.54
16.27918004989624,2,3,3,0,-9.6,1.42,3.71,-3.88,0.96,1.64
16.2891800403595,2,3,3,0,-9.58,1,3.49,-6.02,0.29,1.57
16.29918003082275,2,3,3,0,-9.640000000000001,0.25,3.43,-8.49,0.92,1.2
16.30918002128601,2,3,3,0,-10.31,-1.71,3.13,-10.67,1.63,0.19
16.31918001174927,2,3,3,0,-10.93,-2.42,2.59,-12.34,1.67,-1.22
16.32918000221252,2,3,3,0,-11.86,-2.78,2.08,-12.8,1.3,-2.03
16.34017992019653,2,3,3,0,-12.84,-2.79,2.41,-10.51,-0.1,-1.96
16.35017991065979,2,3,3,0,-13.34,-1.65,3.97,-5.87,-2.74,-1.16
16.36018013954163,2,3,3,0,-12.68,-0.79,4.69,-0.82,-5.44,0.24
16.37018013000488,2,3,3,0,-11.61,0.4,5.07,3.33,-7.52,2.05
16.38018012046814,2,3,3,0,-10.38,1.63,5.43,5.83,-8.4,3.77
16.3901801109314,2,3,3,0,-8.69,4.06,7.27,6.36,-7.88,5.2
16.40018010139465,2,3,3,0,-8.800000000000001,4.63,7.9,4.29,-6.75,6.8
16.41018009185791,2,3,3,0,-9.550000000000001,4.72,8.15,-0.43,-5.75,7.75
16.42018008232117,2,3,3,0,-12,2.62,6.38,-6.96,-4.58,7.55
16.43018007278442,2,3,3,0,-13.29,1.78,5.3,-12.19,-2.49,6.14
16.44018006324768,2,3,3,0,-14.82,1.08,5.48,-13.39,1.43,3.87
16.45018005371094,2,3,3,0,-15.86,-0.12,4.17,-13.69,3.63,1.02
16.46018004417419,2,3,3,0,-15.79,-2.94,1.17,-12.53,4.14,-1.86
16.47018003463745,2,3,3,0,-15.6,-4,0.04,-9.73,1.94,-4.6
16.48018002510071,2,3,3,0,-14.12,-4.25,-0.18,-5.71,-2.86,-7.03
16.49018001556396,2,3,3,0,-11.79,-4.5,1.34,0.13,-7.94,-7.98
16.50018000602722,2,3,3,0,-6.54,-4.69,3.31,5.29,-12.38,-7.09
16.51017999649048,2,3,3,0,-4.39,-4.39,3.86,8.359999999999999,-12.61,-4.88
16.52017998695374,2,3,3,0,-3.03,-3.72,3.57,9.17,-9.279999999999999,-2.21
16.53017997741699,2,3,3,0,-2.54,-3.04,2.79,6.56,-4.01,0.53
16.54017996788025,2,3,3,0,-4.53,-2.19,2.59,4.03,1.95,2.32
16.55017995834351,2,3,3,0,-6.3,-1.81,2.11,3.06,6.62,2.91
16.56017994880676,2,3,3,0,-7.74,-1.35,1.62,2.99,9.25,2.63
16.57017993927002,2,3,3,0,-9.24,-1.02,1.08,2.96,10.66,1.79
16.60017991065979,2,3,3,0,-13.16,-2.8,0.84,2.53,2.2,-2.02
16.61018013954163,2,3,3,0,-9.69,-3.2,1.75,1.7,-2.06,-2.52
16.62018013000488,2,3,3,0,-8.220000000000001,-3.04,2.16,1.64,-3.24,-2.51
16.63018012046814,2,3,3,0,-7.08,-2.63,2.13,1.98,-1.7,-2.35
16.6401801109314,2,3,3,0,-6.49,-2.37,2.19,1.8,0.93,-1.92
16.65018010139465,2,3,3,0,-6.65,-2.12,2.12,1.55,3.53,-1.44
16.66018009185791,2,3,3,0,-6.84,-2.08,1.88,1.36,5.35,-1.09
16.67018008232117,2,3,3,0,-7.05,-2.08,1.75,1.72,6.44,-1.12
16.68018007278442,2,3,3,0,-7.41,-1.99,1.34,2.46,7.01,-1.47
16.69018006324768,2,3,3,0,-8.15,-2.36,1.2,3.45,7.17,-1.91
16.70018005371094,2,3,3,0,-8.460000000000001,-2.33,1.15,4.57,6.59,-2.19
16.71018004417419,2,3,3,0,-8.56,-2.16,1.15,5.31,5.64,-2.62
16.72018003463745,2,3,3,0,-8.73,-2.01,1.27,5.85,4.97,-3.02
16.73018002510071,2,3,3,0,-8.380000000000001,-1.8,1.23,5.92,4.34,-2.78
16.74018001556396,2,3,3,0,-8.449999999999999,-1.53,1.17,5.76,4.41,-2.7
16.75018000602722,2,3,3,0,-8.42,-1.44,1.28,5.38,4.63,-2.52
16.76017999649048,2,3,3,0,-8.41,-0.73,1.33,5.28,4.39,-2.3
16.77017998695374,2,3,3,0,-8.470000000000001,-0.61,1.21,5.08,3.96,-2.09
16.78017997741699,2,3,3,0,-8.630000000000001,-0.49,1.31,4.94,3.38,-1.95
16.79017996788025,2,3,3,0,-8.880000000000001,-0.53,1.39,4.56,2.59,-1.93
16.80017995834351,2,3,3,0,-9.390000000000001,-0.51,1.5,4.01,1.69,-1.92
16.81017994880676,2,3,3,0,-9.449999999999999,-0.67,1.72,3.41,1.02,-2.12
16.82017993927002,2,3,3,0,-9.119999999999999,-0.66,1.74,3.2,0.6899999999999999,-2.61
16.83017992973328,2,3,3,0,-8.84,-0.91,1.58,2.9,0.88,-3.09
16.84017992019653,2,3,3,0,-8.94,-1.1,1.86,2.94,0.96,-3.24
16.85017991065979,2,3,3,0,-9.06,-1.08,2,3.03,0.75,-3.2
16.86018013954163,2,3,3,0,-9.289999999999999,-1.01,1.96,3.18,0.49,-3.13
16.87018013000488,2,3,3,0,-9.56,-0.9,2.17,3.4,0.15,-3.19
16.88018012046814,2,3,3,0,-9.85,-0.84,2.08,3.72,-0.3,-3.57
16.8901801109314,2,3,3,0,-9.94,-0.77,2.24,4.13,-0.62,-4.08
16.90018010139465,2,3,3,0,-9.98,-0.75,2.27,4.62,-0.86,-4.61
16.91018009185791,2,3,3,0,-9.880000000000001,-0.77,2.32,5.04,-0.97,-5.04
16.92018008232117,2,3,3,0,-9.56,-0.75,1.97,5.35,-1.08,-5.47
16.93018007278442,2,3,3,0,-9.449999999999999,-0.71,2.14,5.88,-1.3,-5.85
16.94018006324768,2,3,3,0,-9.43,-0.58,1.96,6.38,-1.42,-6
16.95018005371094,2,3,3,0,-9.539999999999999,-0.01,2.17,6.86,-1.21,-5.83
16.96018004417419,2,3,3,0,-9.58,0.28,2.16,7.19,-0.88,-5.65
16.97018003463745,2,3,3,0,-9.539999999999999,0.42,2.35,7.44,-0.49,-5.52
16.98018002510071,2,3,3,0,-9.460000000000001,0.48,2.25,7.85,-0.24,-5.5
16.99018001556396,2,3,3,0,-9.390000000000001,0.17,2.33,7.93,-0.09,-5.56
17.00018000602722,2,3,3,0,-9.449999999999999,0,2.4,7.78,-0.12,-5.53
17.01017999649048,2,3,3,0,-9.44,-0.12,2.38,7.21,-0.12,-5.37
17.02017998695374,2,3,3,0,-9.31,0,2.43,6.48,0.06,-5.07
17.03017997741699,2,3,3,0,-9.130000000000001,0.38,2.21,6,0.43,-4.66
17.04017996788025,2,3,3,0,-9.199999999999999,0.78,2.17,5.84,0.68,-4.18
17.05017995834351,2,3,3,0,-9.27,1.21,2.41,6.05,0.54,-3.76
17.06017994880676,2,3,3,0,-9.449999999999999,1.37,2.81,6.24,-0.2,-3.26
17.07017993927002,2,3,3,0,-9.23,0.86,3.39,6.07,-0.55,-2.75
17.08017992973328,2,3,3,0,-9.109999999999999,0.52,3.73,6.28,0.41,-2.29
17.09017992019653,2,3,3,0,-9.289999999999999,0.12,4.43,6.7,2.22,-1.63
17.10017991065979,2,3,3,0,-9.699999999999999,-0.31,4.7,5.3,4.53,-0.57
17.11018013954163,2,3,3,0,-10.62,-1.18,3.53,3.21,8.08,0.87
17.12018013000488,2,3,3,0,-10.88,-1.14,2.58,1.55,12.08,2.09
17.13018012046814,2,3,3,0,-11.47,-0.8100000000000001,2.5,0.5600000000000001,15.75,2.85
17.1401801109314,2,3,3,0,-13.73,-0.1,0.83,-1.93,18.41,3.4
17.15018010139465,2,3,3,0,-15.08,-0.5,-0.5600000000000001,-6.25,20.09,3.96
17.16018009185791,2,3,3,0,-16.01,-1.08,-1.5,-9.800000000000001,19.47,3.94
17.17018008232117,2,3,3,0,-16.64,-1.82,-1.1,-11.43,15.66,3.44
17.18018007278442,2,3,3,0,-16.73,-4.56,0.37,-11.37,10.02,2.74
17.19018006324768,2,3,3,0,-15.78,-6.4,0.49,-10.17,5.05,1.34
17.20018005371094,2,3,3,0,-14.45,-7.92,-0.25,-8.07,2.7,0.28
17.21018004417419,2,3,3,0,-12.91,-8.619999999999999,-0.42,-4.36,2.02,0.58
17.22018003463745,2,3,3,0,-10.2,-7.84,0.52,0.46,0.6899999999999999,1.71
17.23018002510071,2,3,3,0,-8.74,-7.06,0.85,3.47,-1.81,2.81
17.24018001556396,2,3,3,0,-7.68,-6.19,1.37,5.1,-2.02,4.48
17.25018000602722,2,3,3,0,-7.54,-5.25,1.7,6.34,0.5,6.51
17.26017999649048,2,3,3,0,-8.539999999999999,-3.1,2.43,7.99,2.97,8.16
17.27017998695374,2,3,3,0,-8.81,-1.83,2.53,9.109999999999999,3.03,9.039999999999999
17.28017997741699,2,3,3,0,-8.9,-0.66,2.39,8.550000000000001,1.88,9.06
17.29017996788025,2,3,3,0,-9.029999999999999,0.3,2.61,6.56,0.78,8.43
17.30017995834351,2,3,3,0,-9.619999999999999,0.7,2.75,3.4,-0.78,7.55
17.31017994880676,2,3,3,0,-9.869999999999999,0.45,2.44,0.02,-2.51,6.33
17.32017993927002,2,3,3,0,-10.08,0.25,2.15,-2.42,-3.9,5
17.33017992973328,2,3,3,0,-9.9,-0.16,1.23,-3.94,-5.07,3.71
17.34017992019653,2,3,3,0,-9.44,-0.32,0.88,-4.83,-6.14,2.81
17.35017991065979,2,3,3,0,-8.880000000000001,-0.42,0.84,-5.16,-7.39,2.37
17.36018013954163,2,3,3,0,-8.390000000000001,-0.51,0.9,-5.25,-8.77,2.15
17.37118005752563,2,3,3,0,-7.33,-0.95,0.9399999999999999,-5.42,-10.13,2.18
17.38118004798889,2,3,3,0,-6.7,-1,0.86,-5.71,-10.94,2.46
17.39118003845215,2,3,3,0,-6.18,-1.05,1.16,-6.19,-10.59,2.83
17.40118002891541,2,3,3,0,-6.03,-1.1,1.51,-6.93,-10.06,3.24
17.41118001937866,2,3,3,0,-6.13,-1.14,2.26,-7.88,-9.630000000000001,3.76
17.42118000984192,2,3,3,0,-6.4,-1.12,2.47,-8.859999999999999,-8.630000000000001,4.37
17.43118000030518,2,3,3,0,-6.9,-1.25,2.53,-9.529999999999999,-7.48,4.93
17.44117999076843,2,3,3,0,-7.42,-1.48,2.63,-9.779999999999999,-6.64,5.25
17.45117998123169,2,3,3,0,-8.23,-1.78,2.69,-9.539999999999999,-5.99,5.22
17.46117997169495,2,3,3,0,-8.56,-1.94,2.58,-9.289999999999999,-5.52,5
17.4711799621582,2,3,3,0,-8.960000000000001,-1.94,2.5,-8.859999999999999,-5.25,4.57
17.48117995262146,2,3,3,0,-9.19,-1.62,2.41,-8.220000000000001,-5.71,4.05
17.49117994308472,2,3,3,0,-8.869999999999999,-1.57,2.1,-8.289999999999999,-6.26,3.27
17.50117993354797,2,3,3,0,-8.460000000000001,-1.41,2.06,-8.35,-6.18,2.53
17.51117992401123,2,3,3,0,-8.34,-1.27,2.27,-7.59,-5.26,2.28
17.52117991447449,2,3,3,0,-9.01,-1.01,3.03,-6.35,-4.6,2.22
17.53118014335632,2,3,3,0,-8.539999999999999,-0.55,2.58,-5.18,-5.46,2.06
17.54118013381958,2,3,3,0,-8.029999999999999,-0.22,2.22,-4.54,-5.3,1.9
17.55118012428284,2,3,3,0,-7.86,0.23,2.31,-3.51,-3.43,1.66
17.56118011474609,2,3,3,0,-7.97,0.79,2.82,-2.85,-1.64,1.42
17.57118010520935,2,3,3,0,-8.119999999999999,1.06,3.04,-2.65,-0.52,1.12
17.58118009567261,2,3,3,0,-8.15,1.25,3.09,-2.83,-0.05,0.8100000000000001
17.59118008613586,2,3,3,0,-7.96,1.38,2.91,-3.36,0.23,0.55
17.60118007659912,2,3,3,0,-7.79,1.52,2.81,-3.95,1.13,0.39
17.61118006706238,2,3,3,0,-8.119999999999999,1.51,3.35,-4.44,2.14,0.17
17.62118005752563,2,3,3,0,-8.449999999999999,1.41,3.92,-4.84,2.03,0
17.63118004798889,2,3,3,0,-8.529999999999999,1.33,3.64,-6.01,1.34,0
17.64118003845215,2,3,3,0,-8.390000000000001,0.83,3.4,-7.36,1.19,0.37
17.65118002891541,2,3,3,0,-8.369999999999999,0.48,3.71,-8.09,1.21,1.01
17.66118001937866,2,3,3,0,-8.279999999999999,0.03,3.6,-9.289999999999999,1.07,1.56
17.67118000984192,2,3,3,0,-8.17,-0.5,3.18,-10.89,1.22,1.76
17.68118000030518,2,3,3,0,-8.59,-1.44,2.6,-12.06,1.66,1.52
17.69117999076843,2,3,3,0,-9.18,-1.87,2.36,-12.71,1.92,1.06
17.70117998123169,2,3,3,0,-9.94,-2.01,1.97,-12.73,2.16,0.75
17.71117997169495,2,3,3,0,-12.21,-1.33,2.86,-11,1.77,0.92
17.7211799621582,2,3,3,0,-12.67,-0.52,3.1,-5.94,-0.4,1.59
17.73117995262146,2,3,3,0,-12.27,0.38,3.36,-0.61,-3.17,2.33
17.74117994308472,2,3,3,0,-11.45,1.45,3.93,3.49,-4.57,3.16
17.75117993354797,2,3,3,0,-10.14,3.32,5.17,5.1,-4.61,3.86
17.76117992401123,2,3,3,0,-9.75,4.07,6.3,4.46,-3.86,4.6
17.77117991447449,2,3,3,0,-9.5,4.59,7.42,1.85,-3.22,5.61
17.78118014335632,2,3,3,0,-9.99,4.68,7.98,-2.07,-3.66,6.81
17.79118013381958,2,3,3,0,-12.08,2.34,6.7,-8.76,-6.02,7.32
17.80118012428284,2,3,3,0,-13.23,0.85,5.19,-14.8,-6.15,5.89
17.81118011474609,2,3,3,0,-14.85,-0.05,4.79,-14.44,-1.43,3.77
17.82118010520935,2,3,3,0,-16.87,-1.16,5.24,-11.53,2.63,1.4
17.83118009567261,2,3,3,0,-18.04,-5.08,1.07,-9.57,2.7,-1.65
17.84118008613586,2,3,3,0,-17.34,-5.96,-0.04,-5.42,2,-4.6
17.85118007659912,2,3,3,0,-15.5,-5.75,0.02,-0.16,-1.58,-6.69
17.86118006706238,2,3,3,0,-12.43,-5.47,0.49,3.25,-8.390000000000001,-7.97
17.87118005752563,2,3,3,0,-5.89,-5.35,3.68,7.64,-13.85,-7.35
17.88118004798889,2,3,3,0,-4.25,-5.59,4.56,11.22,-14.75,-5.46
17.89118003845215,2,3,3,0,-3.57,-5.1,3.77,12.49,-11.41,-3.06
17.90118002891541,2,3,3,0,-4.43,-2.52,3.12,11.49,-5.62,-0.47
17.91118001937866,2,3,3,0,-5.34,-1.22,2.68,9.380000000000001,-1.25,1.47
17.92118000984192,2,3,3,0,-6.28,-0.36,1.95,6.61,2.42,2.16
17.93118000030518,2,3,3,0,-7.3,0.26,1.34,4.76,5.86,1.8
17.94117999076843,2,3,3,0,-9.99,0.43,0.97,3.38,8.039999999999999,0.98
17.95117998123169,2,3,3,0,-11.25,-0.24,0.87,1.41,7.57,0.17
17.96117997169495,2,3,3,0,-12.09,-1.3,0.98,-0.41,4.86,-0.48
17.9711799621582,2,3,3,0,-12.13,-2.22,0.86,-1.46,1.09,-1.28
17.98117995262146,2,3,3,0,-9.869999999999999,-3.04,1.36,-1.54,-1.73,-2.04
17.99117994308472,2,3,3,0,-8.57,-2.9,1.96,-0.77,-3.21,-2.52
18.00117993354797,2,3,3,0,-7.56,-2.76,2.46,-0.33,-2.7,-2.86
18.01117992401123,2,3,3,0,-6.89,-2.42,2.78,-0.05,-0.83,-2.76
18.02117991447449,2,3,3,0,-6,-1.73,2.69,0.1,1.15,-2.43
18.03118014335632,2,3,3,0,-5.58,-1.72,2.41,0.5600000000000001,3.14,-2.27
18.04118013381958,2,3,3,0,-5.42,-1.63,2.23,1.41,5.27,-2.51
18.05118012428284,2,3,3,0,-6.8,-1.92,1.67,1.98,7.44,-2.91
18.06118011474609,2,3,3,0,-7.64,-2.23,1.47,2.02,8.67,-3.13
18.07118010520935,2,3,3,0,-8.42,-2.45,1.33,2.41,8.279999999999999,-3.08
18.08118009567261,2,3,3,0,-9.17,-2.6,0.86,2.94,7.18,-3.04
18.09118008613586,2,3,3,0,-9.449999999999999,-2.43,0.49,3.99,5.71,-2.91
18.10118007659912,2,3,3,0,-9.17,-2.4,0.55,5.32,4.51,-3.07
18.11118006706238,2,3,3,0,-8.82,-2.33,0.79,7.15,3.86,-3.56
18.12118005752563,2,3,3,0,-8.449999999999999,-2.15,1.05,8.720000000000001,3.5,-4.09
18.13118004798889,2,3,3,0,-8.800000000000001,-1.28,1.62,9.93,3.47,-4.26
18.14118003845215,2,3,3,0,-9.109999999999999,-0.8100000000000001,1.75,10.22,3.14,-4.22
18.15118002891541,2,3,3,0,-9.390000000000001,-0.24,1.72,9.82,2.95,-4.05
18.16118001937866,2,3,3,0,-9.59,0.18,1.88,9.220000000000001,2.83,-3.79
18.17118000984192,2,3,3,0,-9.82,0.79,1.96,8.57,2.36,-3.62
18.18118000030518,2,3,3,0,-9.779999999999999,1,1.88,7.86,1.88,-3.52
18.19117999076843,2,3,3,0,-9.59,1.06,1.93,7.04,1.48,-3.71
18.20117998123169,2,3,3,0,-9.289999999999999,1.08,2.1,6.39,1.1,-4.09
18.21117997169495,2,3,3,0,-8.74,0.85,2.19,5.54,0.76,-4.49
18.2211799621582,2,3,3,0,-8.57,0.75,2.12,4.59,0.68,-4.74
18.23117995262146,2,3,3,0,-8.630000000000001,0.8100000000000001,2.17,3.88,0.66,-4.75
18.24117994308472,2,3,3,0,-8.76,0.57,2.31,3.5,0.37,-4.67
18.25117993354797,2,3,3,0,-8.800000000000001,0.44,2.3,2.93,0.02,-4.61
18.26117992401123,2,3,3,0,-9,0.17,2.37,2.47,0,-4.53
18.27117991447449,2,3,3,0,-9.19,-0.12,2.26,1.98,-0.13,-4.48
18.28118014335632,2,3,3,0,-9.380000000000001,-0.55,1.92,1.57,-0.35,-4.58
18.29118013381958,2,3,3,0,-9.48,-0.77,1.97,1.57,-0.58,-4.84
18.30118012428284,2,3,3,0,-9.48,-0.95,1.99,2.13,-0.89,-5.12
18.31118011474609,2,3,3,1,-9.48,-0.95,1.99,3.19,-1.1,-5.35
18.32118010520935,2,3,3,1,-9.41,-1.08,2.06,4.54,-1.22,-5.51
18.33118009567261,2,3,3,1,-8.93,-1.27,2.06,5.83,-1.19,-5.51
18.34118008613586,2,3,3,1,-8.76,-1.13,2.09,6.99,-0.92,-5.42
18.35118007659912,2,3,3,1,-8.619999999999999,-0.87,2.27,8.33,-0.2,-5.18
18.36118006706238,2,3,3,1,-8.619999999999999,-0.87,2.27,9.69,0.71,-4.74
18.37118005752563,2,3,3,1,-8.6,0.59,3.31,10.26,1.35,-4.11
18.38118004798889,2,3,3,1,-8.99,1.01,3.26,9.85,1.5,-3.1
18.3921799659729,2,3,3,1,-9.51,1.3,3.24,8.970000000000001,1.23,-1.81
18.40217995643616,2,3,3,1,-10.7,1.61,3.47,8.23,0.89,-0.59
18.41217994689941,2,3,3,2,-10.7,1.61,3.47,7.72,0.85,0.05
18.42217993736267,2,3,3,2,-11.1,1.75,3.41,7.82,1.86,0.2
18.43217992782593,2,3,3,2,-11.72,2.16,4.57,8.609999999999999,4.09,-0.03
18.44217991828918,2,3,3,2,-12.18,2.19,4.72,8.619999999999999,6.18,-0.24
18.45217990875244,2,3,3,2,-12.47,1.96,3.93,6.05,7.54,-0.03
18.46218013763428,2,3,3,2,-12.47,1.96,3.93,3.44,10.14,0.33
18.47218012809753,2,3,3,2,-12.8,1.57,2.89,2.32,13.12,0.47
18.48218011856079,2,3,3,2,-13.32,1.2,2.66,0.66,14.6,0.66
18.49218010902405,2,3,3,2,-14.04,0.8,1.84,-2.68,15.43,1.18
18.5021800994873,2,3,3,2,-14.53,0.14,0.71,-7.47,16.05,1.82
18.51218008995056,2,3,3,2,-14.53,0.14,0.71,-11.82,15.41,2.28
18.52218008041382,2,3,3,2,-14.16,-1.09,-0.12,-15.04,12.45,2.26
18.53218007087708,2,3,3,2,-12.18,-3.67,0.5,-17.37,7.62,1.71
18.54218006134033,2,3,3,2,-11.1,-5.3,0.09,-18.7,4.44,1.33
18.55218005180359,2,3,3,2,-10.41,-8.24,-1.65,-18,4.77,1.62
18.56218004226685,2,3,3,2,-10.41,-8.24,-1.65,-18,4.77,1.62
18.5721800327301,2,3,3,2,-11.22,-9.609999999999999,-0.6899999999999999,-5.25,5.36,5.19
18.58218002319336,2,3,3,2,-10.94,-9.029999999999999,-0.03,2.76,1.05,6.93
18.59218001365662,2,3,3,2,-9.5,-6.25,1.54,8.67,-2.07,8.640000000000001
18.60218000411987,2,3,3,2,-9.4,-4.76,2.37,11.8,-2.57,10.43
18.61217999458313,2,3,3,3,-9.4,-4.76,2.37,11.8,-2.57,10.43
18.6421799659729,2,3,3,3,-10.02,1.41,2.66,9.51,1.33,7.53
18.65217995643616,2,3,3,3,-10.37,1.69,2.74,5.87,0.27,5.4
18.66217994689941,2,3,3,3,-10.37,1.69,2.74,1.61,-1.98,3.32
18.67217993736267,2,3,3,3,-10.36,1.27,2.21,-2.29,-4.7,1.46
18.68217992782593,2,3,3,3,-9.859999999999999,0.68,1.28,-5.45,-6.89,0.21
18.69217991828918,2,3,3,3,-9.67,0.43,1.09,-7.91,-8.67,-0.41
18.70217990875244,2,3,3,3,-8.85,0.21,0.87,-9.220000000000001,-9.859999999999999,-0.57
18.71218013763428,2,3,3,3,-8.85,0.21,0.87,-9.5,-10.6,-0.41
