timestamp,magCalib,accCalib,gyrCalib,sysCalib,accX,accY,accZ,gyrX,gyrY,gyrZ
timestamp,magCalib,accCalib,gyrCalib,sysCalib,accX,accY,accZ,gyrX,gyrY,gyrZ
-0.01182007789611816,3,3,3,2,-9.57,1.26,-1.66,0.02,-0.06,0.08
-0.01182007789611816,3,3,3,2,-9.57,1.26,-1.66,0.02,-0.06,0.08
0.008180141448974609,3,3,3,2,-9.539999999999999,1.32,-1.59,0.16,0.06,0.08
0.008180141448974609,3,3,3,2,-9.539999999999999,1.32,-1.59,0.16,0.06,0.08
0.02818012237548828,3,3,3,2,-9.550000000000001,1.34,-1.62,0.16,0.02,0.11
0.02818012237548828,3,3,3,2,-9.550000000000001,1.34,-1.62,0.16,0.02,0.11
0.04818010330200195,3,3,3,2,-9.59,1.27,-1.63,0.08,0.07000000000000001,0.07000000000000001
0.04818010330200195,3,3,3,2,-9.59,1.27,-1.63,0.08,0.07000000000000001,0.07000000000000001
0.06818008422851562,3,3,3,2,-9.539999999999999,1.24,-1.68,0.13,0.04,0.09
0.06818008422851562,3,3,3,2,-9.539999999999999,1.24,-1.68,0.13,0.04,0.09
0.0881800651550293,3,3,3,2,-9.57,1.17,-1.6,0.2,0.02,0.13
0.0881800651550293,3,3,3,2,-9.57,1.17,-1.6,0.2,0.02,0.13
0.108180046081543,3,3,3,2,-9.56,1.28,-1.6,0.24,0.05,0.08
0.108180046081543,3,3,3,2,-9.56,1.28,-1.6,0.24,0.05,0.08
0.1281800270080566,3,3,3,2,-9.58,1.23,-1.7,0.15,-0.01,0.11
0.1281800270080566,3,3,3,2,-9.58,1.23,-1.7,0.15,-0.01,0.11
0.1481800079345703,3,3,3,2,-9.56,1.31,-1.63,0.24,-0.03,0.08
0.1481800079345703,3,3,3,2,-9.56,1.31,-1.63,0.24,-0.03,0.08
0.168179988861084,3,3,3,2,-9.550000000000001,1.32,-1.73,0.28,0,0.08
0.168179988861084,3,3,3,2,-9.550000000000001,1.32,-1.73,0.28,0,0.08
0.1881799697875977,3,3,3,2,-9.550000000000001,1.38,-1.65,0.29,-0.09,0.12
0.1881799697875977,3,3,3,2,-9.550000000000001,1.38,-1.65,0.29,-0.09,0.12
0.2081799507141113,3,3,3,2,-9.550000000000001,1.35,-1.65,0.18,-0.04,0.13
0.2081799507141113,3,3,3,2,-9.550000000000001,1.35,-1.65,0.18,-0.04,0.13
0.228179931640625,3,3,3,2,-9.539999999999999,1.34,-1.71,0.16,-0.08,0.09
0.228179931640625,3,3,3,2,-9.539999999999999,1.34,-1.71,0.16,-0.08,0.09
0.2481799125671387,3,3,3,2,-9.539999999999999,1.33,-1.62,0.22,-0.09,0.1
0.2481799125671387,3,3,3,2,-9.539999999999999,1.33,-1.62,0.22,-0.09,0.1
0.2681801319122314,3,3,3,2,-9.56,1.32,-1.73,0.23,-0.07000000000000001,0.1
0.2681801319122314,3,3,3,2,-9.56,1.32,-1.73,0.23,-0.07000000000000001,0.1
0.2881801128387451,3,3,3,2,-9.58,1.33,-1.65,0.25,0.02,0.09
0.2881801128387451,3,3,3,2,-9.58,1.33,-1.65,0.25,0.02,0.09
0.3081800937652588,3,3,3,2,-9.57,1.35,-1.65,0.19,0.09,0.07000000000000001
0.3081800937652588,3,3,3,2,-9.57,1.35,-1.65,0.19,0.09,0.07000000000000001
0.3281800746917725,3,3,3,2,-9.539999999999999,1.37,-1.71,0.12,0.02,0.07000000000000001
0.3281800746917725,3,3,3,2,-9.539999999999999,1.37,-1.71,0.12,0.02,0.07000000000000001
0.3481800556182861,3,3,3,2,-9.550000000000001,1.27,-1.63,-0.03,0.01,0.03
0.3481800556182861,3,3,3,2,-9.550000000000001,1.27,-1.63,-0.03,0.01,0.03
0.3681800365447998,3,3,3,2,-9.51,1.23,-1.71,-0.03,0.11,0.04
0.3681800365447998,3,3,3,2,-9.51,1.23,-1.71,-0.03,0.11,0.04
0.3881800174713135,3,3,3,2,-9.57,1.31,-1.66,-0.02,0.1,-0.01
0.3881800174713135,3,3,3,2,-9.57,1.31,-1.66,-0.02,0.1,-0.01
0.4081799983978271,3,3,3,3,-9.58,1.28,-1.57,-0.02,0.06,-0.01
0.4081799983978271,3,3,3,3,-9.58,1.28,-1.57,-0.02,0.06,-0.01
0.4281799793243408,3,3,3,3,-9.58,1.23,-1.67,-0.06,0.04,-0.05
0.4281799793243408,3,3,3,3,-9.58,1.23,-1.67,-0.06,0.04,-0.05
0.4481799602508545,3,3,3,3,-9.550000000000001,1.25,-1.64,0.01,0.03,0
0.4481799602508545,3,3,3,3,-9.550000000000001,1.25,-1.64,0.01,0.03,0
0.4681799411773682,3,3,3,3,-9.539999999999999,1.35,-1.7,0.12,0.07000000000000001,-0.03
0.4681799411773682,3,3,3,3,-9.539999999999999,1.35,-1.7,0.12,0.07000000000000001,-0.03
0.4881799221038818,3,3,3,3,-9.56,1.32,-1.62,0.01,0.03,0
0.4881799221038818,3,3,3,3,-9.56,1.32,-1.62,0.01,0.03,0
0.5081801414489746,3,3,3,3,-9.539999999999999,1.23,-1.62,-0.07000000000000001,0.02,-0.03
0.5081801414489746,3,3,3,3,-9.539999999999999,1.23,-1.62,-0.07000000000000001,0.02,-0.03
0.5281801223754883,3,3,3,3,-9.57,1.21,-1.71,0,0.03,0
0.5281801223754883,3,3,3,3,-9.57,1.21,-1.71,0,0.03,0
0.548180103302002,3,3,3,3,-9.58,1.28,-1.63,0.1,-0.01,-0.02
0.548180103302002,3,3,3,3,-9.58,1.28,-1.63,0.1,-0.01,-0.02
0.5681800842285156,3,3,3,3,-9.57,1.3,-1.71,0.19,-0.01,0.02
0.5681800842285156,3,3,3,3,-9.57,1.3,-1.71,0.19,-0.01,0.02
0.5881800651550293,3,3,3,3,-9.550000000000001,1.32,-1.63,0.12,0.11,0.02
0.5881800651550293,3,3,3,3,-9.550000000000001,1.32,-1.63,0.12,0.11,0.02
0.608180046081543,3,3,3,3,-9.56,1.26,-1.68,0.14,0.04,-0.02
0.608180046081543,3,3,3,3,-9.56,1.26,-1.68,0.14,0.04,-0.02
0.6281800270080566,3,3,3,3,-9.52,1.28,-1.68,0.1,0.03,0
0.6281800270080566,3,3,3,3,-9.52,1.28,-1.68,0.1,0.03,0
0.6481800079345703,3,3,3,3,-9.56,1.34,-1.63,0.16,0.09,-0.06
0.6481800079345703,3,3,3,3,-9.56,1.34,-1.63,0.16,0.09,-0.06
0.668179988861084,3,3,3,3,-9.56,1.29,-1.73,0.1,0.06,0
0.668179988861084,3,3,3,3,-9.56,1.29,-1.73,0.1,0.06,0
0.6881799697875977,3,3,3,3,-9.58,1.23,-1.66,0.19,-0.04,0.06
0.6881799697875977,3,3,3,3,-9.58,1.23,-1.66,0.19,-0.04,0.06
0.7081799507141113,3,3,3,3,-9.6,1.27,-1.66,0.28,-0.04,0.07000000000000001
0.7081799507141113,3,3,3,3,-9.6,1.27,-1.66,0.28,-0.04,0.07000000000000001
0.728179931640625,3,3,3,3,-9.550000000000001,1.41,-1.68,0.27,0.05,0.07000000000000001
0.728179931640625,3,3,3,3,-9.550000000000001,1.41,-1.68,0.27,0.05,0.07000000000000001
0.7481799125671387,3,3,3,3,-9.550000000000001,1.39,-1.69,0.21,0.06,0.11
0.7481799125671387,3,3,3,3,-9.550000000000001,1.39,-1.69,0.21,0.06,0.11
0.7681801319122314,3,3,3,3,-9.57,1.2,-1.74,0.15,0.05,0.14
0.7681801319122314,3,3,3,3,-9.57,1.2,-1.74,0.15,0.05,0.14
0.7881801128387451,3,3,3,3,-9.56,1.23,-1.7,0.17,0.06,0.09
0.7881801128387451,3,3,3,3,-9.56,1.23,-1.7,0.17,0.06,0.09
0.8081800937652588,3,3,3,3,-9.59,1.27,-1.7,0.17,0.12,0.05
0.8081800937652588,3,3,3,3,-9.59,1.27,-1.7,0.17,0.12,0.05
0.8281800746917725,3,3,3,3,-9.56,1.26,-1.71,0.07000000000000001,0.08,0.03
0.8281800746917725,3,3,3,3,-9.56,1.26,-1.71,0.07000000000000001,0.08,0.03
0.8481800556182861,3,3,3,3,-9.56,1.21,-1.63,0.12,0.05,0.08
0.8481800556182861,3,3,3,3,-9.56,1.21,-1.63,0.12,0.05,0.08
0.8681800365447998,3,3,3,3,-9.58,1.24,-1.76,0.18,0.07000000000000001,0.04
0.8681800365447998,3,3,3,3,-9.58,1.24,-1.76,0.18,0.07000000000000001,0.04
0.8881800174713135,3,3,3,3,-9.57,1.34,-1.65,0.1,0.03,0.08
0.8881800174713135,3,3,3,3,-9.57,1.34,-1.65,0.1,0.03,0.08
0.9081799983978271,3,3,3,3,-9.56,1.31,-1.69,-0.04,0,0.04
0.9081799983978271,3,3,3,3,-9.56,1.31,-1.69,-0.04,0,0.04
0.9281799793243408,3,3,3,3,-9.539999999999999,1.22,-1.72,-0.04,-0.09,0.08
0.9281799793243408,3,3,3,3,-9.539999999999999,1.22,-1.72,-0.04,-0.09,0.08
0.9481799602508545,3,3,3,3,-9.539999999999999,1.19,-1.67,-0.04,-0.03,0.13
0.9481799602508545,3,3,3,3,-9.539999999999999,1.19,-1.67,-0.04,-0.03,0.13
0.9681799411773682,3,3,3,3,-9.550000000000001,1.2,-1.76,0.05,0.08,0.12
0.9681799411773682,3,3,3,3,-9.550000000000001,1.2,-1.76,0.05,0.08,0.12
0.9881799221038818,3,3,3,3,-9.550000000000001,1.28,-1.69,0.06,0.03,0.16
0.9881799221038818,3,3,3,3,-9.550000000000001,1.28,-1.69,0.06,0.03,0.16
1.009180068969727,3,3,3,3,-9.57,1.22,-1.69,0.08,-0.08,0.19
1.009180068969727,3,3,3,3,-9.57,1.22,-1.69,0.08,-0.08,0.19
1.02918004989624,3,3,3,3,-9.57,1.25,-1.75,0.1,-0.14,0.21
1.02918004989624,3,3,3,3,-9.57,1.25,-1.75,0.1,-0.14,0.21
1.049180030822754,3,3,3,3,-9.56,1.25,-1.67,0.08,-0.02,0.19
1.049180030822754,3,3,3,3,-9.56,1.25,-1.67,0.08,-0.02,0.19
1.069180011749268,3,3,3,3,-9.550000000000001,1.22,-1.72,0,-0.02,0.16
1.069180011749268,3,3,3,3,-9.550000000000001,1.22,-1.72,0,-0.02,0.16
1.089179992675781,3,3,3,3,-9.539999999999999,1.32,-1.68,-0.13,-0.07000000000000001,0.16
1.089179992675781,3,3,3,3,-9.539999999999999,1.32,-1.68,-0.13,-0.07000000000000001,0.16
1.109179973602295,3,3,3,3,-9.58,1.28,-1.64,-0.12,0.03,0.16
1.109179973602295,3,3,3,3,-9.58,1.28,-1.64,-0.12,0.03,0.16
1.129179954528809,3,3,3,3,-9.57,1.34,-1.69,-0.13,0.06,0.17
1.129179954528809,3,3,3,3,-9.57,1.34,-1.69,-0.13,0.06,0.17
1.149179935455322,3,3,3,2,-9.550000000000001,1.29,-1.65,-0.11,0.01,0.2
1.149179935455322,3,3,3,2,-9.550000000000001,1.29,-1.65,-0.11,0.01,0.2
1.169179916381836,3,3,3,2,-9.550000000000001,1.29,-1.77,-0.04,0,0.19
1.169179916381836,3,3,3,2,-9.550000000000001,1.29,-1.77,-0.04,0,0.19
1.189180135726929,3,3,3,2,-9.58,1.32,-1.71,0.04,-0.06,0.17
1.189180135726929,3,3,3,2,-9.58,1.32,-1.71,0.04,-0.06,0.17
1.209180116653442,3,3,3,2,-9.539999999999999,1.39,-1.67,-0.03,-0.02,0.19
1.209180116653442,3,3,3,2,-9.539999999999999,1.39,-1.67,-0.03,-0.02,0.19
1.229180097579956,3,3,3,2,-9.550000000000001,1.37,-1.72,-0.12,-0.02,0.16
1.229180097579956,3,3,3,2,-9.550000000000001,1.37,-1.72,-0.12,-0.02,0.16
1.24918007850647,3,3,3,2,-9.52,1.33,-1.64,-0.2,-0.05,0.17
1.24918007850647,3,3,3,2,-9.52,1.33,-1.64,-0.2,-0.05,0.17
1.269180059432983,3,3,3,2,-9.49,1.32,-1.73,-0.15,-0.08,0.21
1.269180059432983,3,3,3,2,-9.49,1.32,-1.73,-0.15,-0.08,0.21
1.289180040359497,3,3,3,2,-9.58,1.28,-1.67,-0.04,-0.01,0.2
1.289180040359497,3,3,3,2,-9.58,1.28,-1.67,-0.04,-0.01,0.2
1.309180021286011,3,3,3,2,-9.58,1.31,-1.73,-0.15,-0.04,0.19
1.309180021286011,3,3,3,2,-9.58,1.31,-1.73,-0.15,-0.04,0.19
1.329180002212524,3,3,3,2,-9.52,1.29,-1.73,-0.16,-0.11,0.2
1.329180002212524,3,3,3,2,-9.52,1.29,-1.73,-0.16,-0.11,0.2
1.349179983139038,3,3,3,2,-9.529999999999999,1.34,-1.68,0.01,-0.07000000000000001,0.22
1.349179983139038,3,3,3,2,-9.529999999999999,1.34,-1.68,0.01,-0.07000000000000001,0.22
1.369179964065552,3,3,3,2,-9.529999999999999,1.33,-1.73,-0.01,-0.1,0.26
1.369179964065552,3,3,3,2,-9.529999999999999,1.33,-1.73,-0.01,-0.1,0.26
1.389179944992065,3,3,3,2,-9.6,1.3,-1.64,-0.03,-0.08,0.28
1.389179944992065,3,3,3,2,-9.6,1.3,-1.64,-0.03,-0.08,0.28
1.409179925918579,3,3,3,2,-9.539999999999999,1.21,-1.66,-0.13,-0.17,0.29
1.409179925918579,3,3,3,2,-9.539999999999999,1.21,-1.66,-0.13,-0.17,0.29
1.429180145263672,3,3,3,2,-9.59,1.28,-1.72,-0.12,-0.14,0.24
1.429180145263672,3,3,3,2,-9.59,1.28,-1.72,-0.12,-0.14,0.24
1.449180126190186,3,3,3,2,-9.56,1.29,-1.63,-0.05,-0.18,0.27
1.449180126190186,3,3,3,2,-9.56,1.29,-1.63,-0.05,-0.18,0.27
1.469180107116699,3,3,3,2,-9.56,1.3,-1.68,-0.04,-0.15,0.32
1.469180107116699,3,3,3,2,-9.56,1.3,-1.68,-0.04,-0.15,0.32
1.489180088043213,3,3,3,2,-9.58,1.3,-1.63,0.03,-0.2,0.35
1.489180088043213,3,3,3,2,-9.58,1.3,-1.63,0.03,-0.2,0.35
1.509180068969727,3,3,3,2,-9.51,1.39,-1.64,0,-0.21,0.27
1.509180068969727,3,3,3,2,-9.51,1.39,-1.64,0,-0.21,0.27
1.52918004989624,3,3,3,2,-9.539999999999999,1.42,-1.71,-0.02,-0.07000000000000001,0.33
1.52918004989624,3,3,3,2,-9.539999999999999,1.42,-1.71,-0.02,-0.07000000000000001,0.33
1.549180030822754,3,3,3,2,-9.51,1.39,-1.65,-0.12,-0.12,0.35
1.549180030822754,3,3,3,2,-9.51,1.39,-1.65,-0.12,-0.12,0.35
1.569180011749268,3,3,3,2,-9.539999999999999,1.34,-1.66,-0.01,-0.17,0.42
1.569180011749268,3,3,3,2,-9.539999999999999,1.34,-1.66,-0.01,-0.17,0.42
1.589179992675781,3,3,3,2,-9.550000000000001,1.31,-1.59,0.15,-0.19,0.5
1.589179992675781,3,3,3,2,-9.550000000000001,1.31,-1.59,0.15,-0.19,0.5
1.609179973602295,3,3,3,2,-9.539999999999999,1.31,-1.47,0.07000000000000001,-0.21,0.47
1.609179973602295,3,3,3,2,-9.539999999999999,1.31,-1.47,0.07000000000000001,-0.21,0.47
1.629179954528809,3,3,3,2,-9.550000000000001,1.33,-1.55,0.17,-0.23,0.44
1.629179954528809,3,3,3,2,-9.550000000000001,1.33,-1.55,0.17,-0.23,0.44
1.649179935455322,3,3,3,2,-9.56,1.32,-1.54,0.19,-0.27,0.43
1.649179935455322,3,3,3,2,-9.56,1.32,-1.54,0.19,-0.27,0.43
1.669179916381836,3,3,3,2,-9.56,1.27,-1.65,0.12,-0.39,0.39
1.669179916381836,3,3,3,2,-9.56,1.27,-1.65,0.12,-0.39,0.39
1.689180135726929,3,3,3,2,-9.59,1.33,-1.46,0.07000000000000001,-0.48,0.26
1.689180135726929,3,3,3,2,-9.59,1.33,-1.46,0.07000000000000001,-0.48,0.26
1.709180116653442,3,3,3,2,-9.550000000000001,1.3,-1.63,-0.03,-0.46,0.2
1.709180116653442,3,3,3,2,-9.550000000000001,1.3,-1.63,-0.03,-0.46,0.2
1.729180097579956,3,3,3,2,-9.56,1.59,-1.63,0.2,-0.07000000000000001,0.14
1.729180097579956,3,3,3,2,-9.56,1.59,-1.63,0.2,-0.07000000000000001,0.14
1.74918007850647,3,3,3,2,-9.51,1.93,-1.65,-0.03,-0.06,0.27
1.74918007850647,3,3,3,2,-9.51,1.93,-1.65,-0.03,-0.06,0.27
1.769180059432983,3,3,3,2,-9.449999999999999,1.88,-1.8,-0.17,-0.29,0.5600000000000001
1.769180059432983,3,3,3,2,-9.449999999999999,1.88,-1.8,-0.17,-0.29,0.5600000000000001
1.789180040359497,3,3,3,2,-9.52,1.62,-1.71,0.01,-0.26,0.75
1.789180040359497,3,3,3,2,-9.52,1.62,-1.71,0.01,-0.26,0.75
1.809180021286011,3,3,3,2,-9.5,1.58,-1.63,0.25,-0.3,0.84
1.809180021286011,3,3,3,2,-9.5,1.58,-1.63,0.25,-0.3,0.84
1.829180002212524,3,3,3,2,-9.52,1.49,-1.62,0.31,-0.41,0.91
1.829180002212524,3,3,3,2,-9.52,1.49,-1.62,0.31,-0.41,0.91
1.849179983139038,3,3,3,2,-9.529999999999999,1.4,-1.55,0.47,-0.44,0.79
1.849179983139038,3,3,3,2,-9.529999999999999,1.4,-1.55,0.47,-0.44,0.79
1.869179964065552,3,3,3,2,-9.58,1.42,-1.58,0.39,-0.32,0.62
1.869179964065552,3,3,3,2,-9.58,1.42,-1.58,0.39,-0.32,0.62
1.889179944992065,3,3,3,2,-9.529999999999999,1.74,-1.52,0.36,-0.13,0.49
1.889179944992065,3,3,3,2,-9.529999999999999,1.74,-1.52,0.36,-0.13,0.49
1.909179925918579,3,3,3,2,-9.460000000000001,1.64,-1.65,-0.02,-0.25,0.45
1.909179925918579,3,3,3,2,-9.460000000000001,1.64,-1.65,-0.02,-0.25,0.45
1.929180145263672,3,3,3,2,-9.49,1.7,-1.61,-0.03,0.08,0.34
1.929180145263672,3,3,3,2,-9.49,1.7,-1.61,-0.03,0.08,0.34
1.949180126190186,3,3,3,2,-9.49,1.79,-1.63,-0.18,0.11,0.38
1.949180126190186,3,3,3,2,-9.49,1.79,-1.63,-0.18,0.11,0.38
1.969180107116699,3,3,3,2,-9.52,1.74,-1.65,-0.23,0.01,0.52
1.969180107116699,3,3,3,2,-9.52,1.74,-1.65,-0.23,0.01,0.52
1.989180088043213,3,3,3,2,-9.52,1.52,-1.55,-0.17,-0.17,0.61
1.989180088043213,3,3,3,2,-9.52,1.52,-1.55,-0.17,-0.17,0.61
2.009180068969727,3,3,3,2,-9.59,1.42,-1.56,0.01,-0.26,0.61
2.009180068969727,3,3,3,2,-9.59,1.42,-1.56,0.01,-0.26,0.61
2.02918004989624,3,3,3,2,-9.58,1.49,-1.52,0.06,-0.16,0.5
2.02918004989624,3,3,3,2,-9.58,1.49,-1.52,0.06,-0.16,0.5
2.050179958343506,3,3,3,2,-9.52,1.57,-1.43,0.07000000000000001,-0.08,0.47
2.050179958343506,3,3,3,2,-9.52,1.57,-1.43,0.07000000000000001,-0.08,0.47
2.07017993927002,3,3,3,2,-9.51,1.59,-1.6,-0.1,-0.13,0.44
2.07017993927002,3,3,3,2,-9.51,1.59,-1.6,-0.1,-0.13,0.44
2.090179920196533,3,3,3,2,-9.58,1.7,-1.47,0,-0.13,0.42
2.090179920196533,3,3,3,2,-9.58,1.7,-1.47,0,-0.13,0.42
2.110180139541626,3,3,3,2,-9.52,1.71,-1.54,-0.15,0.01,0.31
2.110180139541626,3,3,3,2,-9.52,1.71,-1.54,-0.15,0.01,0.31
2.13018012046814,3,3,3,2,-9.48,1.69,-1.58,-0.23,-0.04,0.38
2.13018012046814,3,3,3,2,-9.48,1.69,-1.58,-0.23,-0.04,0.38
2.150180101394653,3,3,3,2,-9.5,1.58,-1.55,-0.17,-0.11,0.35
2.150180101394653,3,3,3,2,-9.5,1.58,-1.55,-0.17,-0.11,0.35
2.170180082321167,3,3,3,2,-9.52,1.68,-1.61,0.15,0.08,0.21
2.170180082321167,3,3,3,2,-9.52,1.68,-1.61,0.15,0.08,0.21
2.190180063247681,3,3,3,2,-9.449999999999999,1.7,-1.51,0.03,0.02,0.2
2.190180063247681,3,3,3,2,-9.449999999999999,1.7,-1.51,0.03,0.02,0.2
2.210180044174194,3,3,3,2,-9.52,1.59,-1.55,0.12,-0.1,0.25
2.210180044174194,3,3,3,2,-9.52,1.59,-1.55,0.12,-0.1,0.25
2.230180025100708,3,3,3,2,-9.56,1.59,-1.63,0.25,-0.02,0.22
2.230180025100708,3,3,3,2,-9.56,1.59,-1.63,0.25,-0.02,0.22
2.250180006027222,3,3,3,2,-9.49,1.77,-1.45,0.19,0.22,0.06
2.250180006027222,3,3,3,2,-9.49,1.77,-1.45,0.19,0.22,0.06
2.270179986953735,3,3,3,2,-9.5,1.78,-1.59,-0.18,0.2,0.02
2.270179986953735,3,3,3,2,-9.5,1.78,-1.59,-0.18,0.2,0.02
2.290179967880249,3,3,3,2,-9.51,1.61,-1.56,-0.32,-0.03,0.06
2.290179967880249,3,3,3,2,-9.51,1.61,-1.56,-0.32,-0.03,0.06
2.310179948806763,3,3,3,2,-9.550000000000001,1.56,-1.52,-0.27,0.03,0.01
2.310179948806763,3,3,3,2,-9.550000000000001,1.56,-1.52,-0.27,0.03,0.01
2.330179929733276,3,3,3,2,-9.460000000000001,1.65,-1.55,0.01,0.2,-0.04
2.330179929733276,3,3,3,2,-9.460000000000001,1.65,-1.55,0.01,0.2,-0.04
2.35017991065979,3,3,3,2,-9.470000000000001,1.78,-1.55,0.15,0.29,0.02
2.35017991065979,3,3,3,2,-9.470000000000001,1.78,-1.55,0.15,0.29,0.02
2.370180130004883,3,3,3,2,-9.52,1.8,-1.7,0.05,0.19,0.02
2.370180130004883,3,3,3,2,-9.52,1.8,-1.7,0.05,0.19,0.02
2.390180110931396,3,3,3,2,-9.539999999999999,1.75,-1.62,0.2,0.16,0.1
2.390180110931396,3,3,3,2,-9.539999999999999,1.75,-1.62,0.2,0.16,0.1
2.41018009185791,3,3,3,2,-9.49,1.76,-1.59,0.28,0.26,0.15
2.41018009185791,3,3,3,2,-9.49,1.76,-1.59,0.28,0.26,0.15
2.430180072784424,3,3,3,2,-9.49,1.66,-1.6,0.15,0.3,0.13
2.430180072784424,3,3,3,2,-9.49,1.66,-1.6,0.15,0.3,0.13
2.450180053710938,3,3,3,2,-9.52,1.62,-1.51,-0.15,0.23,0.02
2.450180053710938,3,3,3,2,-9.52,1.62,-1.51,-0.15,0.23,0.02
2.470180034637451,3,3,3,2,-9.529999999999999,1.46,-1.61,-0.15,0.27,-0.03
2.470180034637451,3,3,3,2,-9.529999999999999,1.46,-1.61,-0.15,0.27,-0.03
2.490180015563965,3,3,3,2,-9.6,1.47,-1.51,0.08,0.41,-0.07000000000000001
2.490180015563965,3,3,3,2,-9.6,1.47,-1.51,0.08,0.41,-0.07000000000000001
2.510179996490479,3,3,3,2,-9.57,1.59,-1.44,-0.02,0.27,-0.06
2.510179996490479,3,3,3,2,-9.57,1.59,-1.44,-0.02,0.27,-0.06
2.530179977416992,3,3,3,2,-9.52,1.51,-1.64,-0.08,0.16,-0.15
2.530179977416992,3,3,3,2,-9.52,1.51,-1.64,-0.08,0.16,-0.15
2.550179958343506,3,3,3,2,-9.49,1.48,-1.54,-0.11,0.07000000000000001,-0.17
2.550179958343506,3,3,3,2,-9.49,1.48,-1.54,-0.11,0.07000000000000001,-0.17
2.57017993927002,3,3,3,2,-9.470000000000001,1.54,-1.66,-0.06,0.29,-0.25
2.57017993927002,3,3,3,2,-9.470000000000001,1.54,-1.66,-0.06,0.29,-0.25
2.590179920196533,3,3,3,2,-9.51,1.66,-1.61,0.05,0.25,-0.14
2.590179920196533,3,3,3,2,-9.51,1.66,-1.61,0.05,0.25,-0.14
2.610180139541626,3,3,3,2,-9.550000000000001,1.67,-1.66,0.02,0.16,-0.18
2.610180139541626,3,3,3,2,-9.550000000000001,1.67,-1.66,0.02,0.16,-0.18
2.63018012046814,3,3,3,2,-9.460000000000001,1.66,-1.63,0.02,0.31,-0.25
2.63018012046814,3,3,3,2,-9.460000000000001,1.66,-1.63,0.02,0.31,-0.25
2.650180101394653,3,3,3,2,-9.5,1.63,-1.62,0.09,0.3,-0.18
2.650180101394653,3,3,3,2,-9.5,1.63,-1.62,0.09,0.3,-0.18
2.670180082321167,3,3,3,2,-9.5,1.5,-1.67,0.05,0.1,-0.16
2.670180082321167,3,3,3,2,-9.5,1.5,-1.67,0.05,0.1,-0.16
2.690180063247681,3,3,3,2,-9.58,1.52,-1.61,0.27,0.1,-0.17
2.690180063247681,3,3,3,2,-9.58,1.52,-1.61,0.27,0.1,-0.17
2.710180044174194,3,3,3,2,-9.51,1.61,-1.67,0.27,0.09,-0.16
2.710180044174194,3,3,3,2,-9.51,1.61,-1.67,0.27,0.09,-0.16
2.730180025100708,3,3,3,2,-9.49,1.62,-1.68,0.19,0.06,-0.19
2.730180025100708,3,3,3,2,-9.49,1.62,-1.68,0.19,0.06,-0.19
2.750180006027222,3,3,3,2,-9.52,1.63,-1.63,0.09,0.04,-0.25
2.750180006027222,3,3,3,2,-9.52,1.63,-1.63,0.09,0.04,-0.25
2.770179986953735,3,3,3,2,-9.449999999999999,1.57,-1.76,-0.08,-0.08,-0.22
2.770179986953735,3,3,3,2,-9.449999999999999,1.57,-1.76,-0.08,-0.08,-0.22
2.790179967880249,3,3,3,2,-9.49,1.54,-1.65,-0.08,-0.03,-0.22
2.790179967880249,3,3,3,2,-9.49,1.54,-1.65,-0.08,-0.03,-0.22
2.810179948806763,3,3,3,2,-9.52,1.53,-1.62,0.07000000000000001,0.17,-0.16
2.810179948806763,3,3,3,2,-9.52,1.53,-1.62,0.07000000000000001,0.17,-0.16
2.830179929733276,3,3,3,2,-9.529999999999999,1.51,-1.64,0.12,0.09,-0.1
2.830179929733276,3,3,3,2,-9.529999999999999,1.51,-1.64,0.12,0.09,-0.1
2.85017991065979,3,3,3,2,-9.529999999999999,1.45,-1.62,0.15,-0.01,-0.1
2.85017991065979,3,3,3,2,-9.529999999999999,1.45,-1.62,0.15,-0.01,-0.1
2.870180130004883,3,3,3,2,-9.529999999999999,1.48,-1.67,0.22,-0.23,-0.1
2.870180130004883,3,3,3,2,-9.529999999999999,1.48,-1.67,0.22,-0.23,-0.1
2.890180110931396,3,3,3,2,-9.550000000000001,1.47,-1.61,0.3,-0.24,-0.08
2.890180110931396,3,3,3,2,-9.550000000000001,1.47,-1.61,0.3,-0.24,-0.08
2.91018009185791,3,3,3,2,-9.52,1.6,-1.63,0.28,-0.13,-0.09
2.91018009185791,3,3,3,2,-9.52,1.6,-1.63,0.28,-0.13,-0.09
2.930180072784424,3,3,3,2,-9.48,1.53,-1.69,0.09,-0.15,-0.1
2.930180072784424,3,3,3,2,-9.48,1.53,-1.69,0.09,-0.15,-0.1
2.950180053710938,3,3,3,2,-9.51,1.49,-1.63,-0.02,-0.21,-0.07000000000000001
2.950180053710938,3,3,3,2,-9.51,1.49,-1.63,-0.02,-0.21,-0.07000000000000001
2.970180034637451,3,3,3,2,-9.52,1.53,-1.69,0.16,-0.11,-0.12
2.970180034637451,3,3,3,2,-9.52,1.53,-1.69,0.16,-0.11,-0.12
2.990180015563965,3,3,3,2,-9.43,1.55,-1.63,0.25,-0.09,-0.1
2.990180015563965,3,3,3,2,-9.43,1.55,-1.63,0.25,-0.09,-0.1
3.010179996490479,3,3,3,2,-9.529999999999999,1.51,-1.58,0.21,-0.06,-0.1
3.010179996490479,3,3,3,2,-9.529999999999999,1.51,-1.58,0.21,-0.06,-0.1
3.030179977416992,3,3,3,2,-9.529999999999999,1.43,-1.57,0.27,-0.05,-0.18
3.030179977416992,3,3,3,2,-9.529999999999999,1.43,-1.57,0.27,-0.05,-0.18
3.050179958343506,3,3,3,3,-9.57,1.46,-1.63,0.3,0.13,-0.25
3.050179958343506,3,3,3,3,-9.57,1.46,-1.63,0.3,0.13,-0.25
3.071180105209351,3,3,3,3,-9.52,1.7,-1.72,0.33,0.12,-0.3
3.071180105209351,3,3,3,3,-9.52,1.7,-1.72,0.33,0.12,-0.3
3.091180086135864,3,3,3,3,-9.51,1.71,-1.68,0.11,0.12,-0.18
3.091180086135864,3,3,3,3,-9.51,1.71,-1.68,0.11,0.12,-0.18
3.111180067062378,3,3,3,3,-9.48,1.66,-1.62,0.08,0.16,-0.13
3.111180067062378,3,3,3,3,-9.48,1.66,-1.62,0.08,0.16,-0.13
3.131180047988892,3,3,3,3,-9.52,1.58,-1.74,0.13,0.19,-0.13
3.131180047988892,3,3,3,3,-9.52,1.58,-1.74,0.13,0.19,-0.13
3.151180028915405,3,3,3,3,-9.52,1.44,-1.56,0.1,0.04,-0.13
3.151180028915405,3,3,3,3,-9.52,1.44,-1.56,0.1,0.04,-0.13
3.171180009841919,3,3,3,3,-9.56,1.37,-1.63,0.21,0.1,-0.18
3.171180009841919,3,3,3,3,-9.56,1.37,-1.63,0.21,0.1,-0.18
3.191179990768433,3,3,3,3,-9.539999999999999,1.46,-1.52,0.24,0.37,-0.32
3.191179990768433,3,3,3,3,-9.539999999999999,1.46,-1.52,0.24,0.37,-0.32
3.211179971694946,3,3,3,3,-9.5,1.53,-1.66,0.29,0.17,-0.29
3.211179971694946,3,3,3,3,-9.5,1.53,-1.66,0.29,0.17,-0.29
3.23117995262146,3,3,3,3,-9.48,1.62,-1.8,0.23,0.1,-0.2
3.23117995262146,3,3,3,3,-9.48,1.62,-1.8,0.23,0.1,-0.2
3.251179933547974,3,3,3,3,-9.470000000000001,1.61,-1.74,0.1,0.32,-0.21
3.251179933547974,3,3,3,3,-9.470000000000001,1.61,-1.74,0.1,0.32,-0.21
3.271179914474487,3,3,3,3,-9.539999999999999,1.52,-1.78,0.05,0.19,-0.11
3.271179914474487,3,3,3,3,-9.539999999999999,1.52,-1.78,0.05,0.19,-0.11
3.29118013381958,3,3,3,3,-9.51,1.44,-1.65,-0.02,0.18,-0.08
3.29118013381958,3,3,3,3,-9.51,1.44,-1.65,-0.02,0.18,-0.08
3.311180114746094,3,3,3,3,-9.52,1.41,-1.65,0.07000000000000001,0.1,-0.08
3.311180114746094,3,3,3,3,-9.52,1.41,-1.65,0.07000000000000001,0.1,-0.08
3.331180095672607,3,3,3,3,-9.539999999999999,1.39,-1.68,0.32,0.15,0
3.331180095672607,3,3,3,3,-9.539999999999999,1.39,-1.68,0.32,0.15,0
3.351180076599121,3,3,3,3,-9.58,1.4,-1.6,0.32,0.01,0.09
3.351180076599121,3,3,3,3,-9.58,1.4,-1.6,0.32,0.01,0.09
3.371180057525635,3,3,3,3,-9.57,1.42,-1.67,0.3,-0.02,0.04
3.371180057525635,3,3,3,3,-9.57,1.42,-1.67,0.3,-0.02,0.04
3.391180038452148,3,3,3,3,-9.529999999999999,1.43,-1.62,0.13,-0.03,-0.02
3.391180038452148,3,3,3,3,-9.529999999999999,1.43,-1.62,0.13,-0.03,-0.02
3.411180019378662,3,3,3,3,-9.52,1.42,-1.72,-0.1,-0.12,0
3.411180019378662,3,3,3,3,-9.52,1.42,-1.72,-0.1,-0.12,0
3.431180000305176,3,3,3,3,-9.52,1.4,-1.72,-0.15,-0.09,-0.05
3.431180000305176,3,3,3,3,-9.52,1.4,-1.72,-0.15,-0.09,-0.05
3.451179981231689,3,3,3,3,-9.539999999999999,1.46,-1.72,0.01,0.06,-0.01
3.451179981231689,3,3,3,3,-9.539999999999999,1.46,-1.72,0.01,0.06,-0.01
3.471179962158203,3,3,3,3,-9.51,1.47,-1.75,0.08,0.04,0.01
3.471179962158203,3,3,3,3,-9.51,1.47,-1.75,0.08,0.04,0.01
3.491179943084717,3,3,3,3,-9.529999999999999,1.48,-1.71,0.12,-0.01,0.04
3.491179943084717,3,3,3,3,-9.529999999999999,1.48,-1.71,0.12,-0.01,0.04
3.51117992401123,3,3,3,3,-9.52,1.44,-1.63,0.07000000000000001,-0.09,0.11
3.51117992401123,3,3,3,3,-9.52,1.44,-1.63,0.07000000000000001,-0.09,0.11
3.531180143356323,3,3,3,3,-9.529999999999999,1.4,-1.73,0.02,-0.03,0.07000000000000001
3.531180143356323,3,3,3,3,-9.529999999999999,1.4,-1.73,0.02,-0.03,0.07000000000000001
3.551180124282837,3,3,3,3,-9.49,1.41,-1.63,0.08,-0.02,0.02
3.551180124282837,3,3,3,3,-9.49,1.41,-1.63,0.08,-0.02,0.02
3.571180105209351,3,3,3,3,-9.57,1.44,-1.75,0.14,-0.16,0.04
3.571180105209351,3,3,3,3,-9.57,1.44,-1.75,0.14,-0.16,0.04
3.591180086135864,3,3,3,3,-9.57,1.45,-1.74,0.08,0.08,-0.05
3.591180086135864,3,3,3,3,-9.57,1.45,-1.74,0.08,0.08,-0.05
3.611180067062378,3,3,3,3,-9.470000000000001,1.51,-1.68,0.09,0.18,-0.05
3.611180067062378,3,3,3,3,-9.470000000000001,1.51,-1.68,0.09,0.18,-0.05
3.631180047988892,3,3,3,3,-9.51,1.54,-1.75,0,0.15,-0.04
3.631180047988892,3,3,3,3,-9.51,1.54,-1.75,0,0.15,-0.04
3.651180028915405,3,3,3,3,-9.52,1.19,-1.69,0.02,0.01,-0.06
3.651180028915405,3,3,3,3,-9.52,1.19,-1.69,0.02,0.01,-0.06
3.671180009841919,3,3,3,3,-9.57,1.22,-1.66,0.33,0.19,-0.23
3.671180009841919,3,3,3,3,-9.57,1.22,-1.66,0.33,0.19,-0.23
3.691179990768433,3,3,3,3,-9.49,0.93,-1.44,0.31,0.27,-0.6
3.691179990768433,3,3,3,3,-9.49,0.93,-1.44,0.31,0.27,-0.6
3.711179971694946,3,3,3,3,-9.49,0.71,-1.25,0.3,0.12,-0.83
3.711179971694946,3,3,3,3,-9.49,0.71,-1.25,0.3,0.12,-0.83
3.73117995262146,3,3,3,3,-9.81,0.93,-1.4,0.16,0.18,-1.34
3.73117995262146,3,3,3,3,-9.81,0.93,-1.4,0.16,0.18,-1.34
3.751179933547974,3,3,3,3,-9.630000000000001,1.24,-1.64,-0.05,0.33,-1.63
3.751179933547974,3,3,3,3,-9.630000000000001,1.24,-1.64,-0.05,0.33,-1.63
3.771179914474487,3,3,3,3,-9.4,1.71,-1.85,-0.34,0.23,-1.51
3.771179914474487,3,3,3,3,-9.4,1.71,-1.85,-0.34,0.23,-1.51
3.79118013381958,3,3,3,3,-9.44,2.04,-1.95,-0.62,0.09,-1.27
3.79118013381958,3,3,3,3,-9.44,2.04,-1.95,-0.62,0.09,-1.27
3.811180114746094,3,3,3,3,-9.48,1.94,-1.9,-0.8100000000000001,0.02,-0.84
3.811180114746094,3,3,3,3,-9.48,1.94,-1.9,-0.8100000000000001,0.02,-0.84
3.831180095672607,3,3,3,3,-9.630000000000001,1.46,-1.92,-0.22,-0.38,-0.3
3.831180095672607,3,3,3,3,-9.630000000000001,1.46,-1.92,-0.22,-0.38,-0.3
3.851180076599121,3,3,3,3,-9.43,1.33,-1.79,0.1,-0.43,-0.24
3.851180076599121,3,3,3,3,-9.43,1.33,-1.79,0.1,-0.43,-0.24
3.871180057525635,3,3,3,3,-9.52,1.12,-1.84,1,-0.15,-0.08
3.871180057525635,3,3,3,3,-9.52,1.12,-1.84,1,-0.15,-0.08
3.891180038452148,3,3,3,3,-9.56,1.4,-1.7,1.11,-0.08,-0.12
3.891180038452148,3,3,3,3,-9.56,1.4,-1.7,1.11,-0.08,-0.12
3.911180019378662,3,3,3,3,-9.449999999999999,1.38,-1.74,0.97,-0.06,-0.13
3.911180019378662,3,3,3,3,-9.449999999999999,1.38,-1.74,0.97,-0.06,-0.13
3.931180000305176,3,3,3,3,-9.470000000000001,1.41,-1.73,0.86,-0.15,-0.14
3.931180000305176,3,3,3,3,-9.470000000000001,1.41,-1.73,0.86,-0.15,-0.14
3.951179981231689,3,3,3,3,-9.57,1.27,-1.57,0.74,-0.21,-0.15
3.951179981231689,3,3,3,3,-9.57,1.27,-1.57,0.74,-0.21,-0.15
3.971179962158203,3,3,3,3,-9.6,0.95,-1.56,0.25,-0.33,-0.46
3.971179962158203,3,3,3,3,-9.6,0.95,-1.56,0.25,-0.33,-0.46
3.991179943084717,3,3,3,3,-9.66,0.82,-1.36,-0.14,-0.33,-0.57
3.991179943084717,3,3,3,3,-9.66,0.82,-1.36,-0.14,-0.33,-0.57
4.01117992401123,3,3,3,3,-9.609999999999999,0.91,-1.37,-0.78,-0.04,-1.03
4.01117992401123,3,3,3,3,-9.609999999999999,0.91,-1.37,-0.78,-0.04,-1.03
4.031180143356323,3,3,3,3,-9.609999999999999,0.95,-1.73,-0.84,0.04,-1.08
4.031180143356323,3,3,3,3,-9.609999999999999,0.95,-1.73,-0.84,0.04,-1.08
4.051180124282837,3,3,3,3,-9.550000000000001,1.08,-1.74,-0.43,-0.18,-1.06
4.051180124282837,3,3,3,3,-9.550000000000001,1.08,-1.74,-0.43,-0.18,-1.06
4.071180105209351,3,3,3,3,-9.52,0.99,-1.75,0.24,-0.42,-1.18
4.071180105209351,3,3,3,3,-9.52,0.99,-1.75,0.24,-0.42,-1.18
4.092180013656616,3,3,3,3,-9.48,1.18,-1.6,0.07000000000000001,-0.39,-1.16
4.092180013656616,3,3,3,3,-9.48,1.18,-1.6,0.07000000000000001,-0.39,-1.16
4.11217999458313,3,3,3,3,-9.67,1.56,-1.74,-0.21,-0.32,-1.14
4.11217999458313,3,3,3,3,-9.67,1.56,-1.74,-0.21,-0.32,-1.14
4.132179975509644,3,3,3,3,-9.710000000000001,1.81,-1.75,-0.29,-0.46,-0.78
4.132179975509644,3,3,3,3,-9.710000000000001,1.81,-1.75,-0.29,-0.46,-0.78
4.152179956436157,3,3,3,3,-9.619999999999999,1.65,-1.83,-0.29,-0.24,-0.61
4.152179956436157,3,3,3,3,-9.619999999999999,1.65,-1.83,-0.29,-0.24,-0.61
4.172179937362671,3,3,3,3,-9.550000000000001,1.56,-1.91,0.02,-0.31,-0.28
4.172179937362671,3,3,3,3,-9.550000000000001,1.56,-1.91,0.02,-0.31,-0.28
4.192179918289185,3,3,3,3,-9.57,1.23,-1.7,0.06,-0.34,-0.19
4.192179918289185,3,3,3,3,-9.57,1.23,-1.7,0.06,-0.34,-0.19
4.212180137634277,3,3,3,3,-9.58,1.22,-1.68,-0.08,0,-0.17
4.212180137634277,3,3,3,3,-9.58,1.22,-1.68,-0.08,0,-0.17
4.232180118560791,3,3,3,3,-9.539999999999999,1.3,-1.74,-0.01,-0.13,-0.05
4.232180118560791,3,3,3,3,-9.539999999999999,1.3,-1.74,-0.01,-0.13,-0.05
4.252180099487305,3,3,3,3,-9.66,1.2,-1.76,0.03,-0.15,0.06
4.252180099487305,3,3,3,3,-9.66,1.2,-1.76,0.03,-0.15,0.06
4.272180080413818,3,3,3,3,-9.57,1.23,-1.74,-0.04,0.04,0.1
4.272180080413818,3,3,3,3,-9.57,1.23,-1.74,-0.04,0.04,0.1
4.292180061340332,3,3,3,3,-9.51,1.28,-1.73,-0.15,0.12,0.05
4.292180061340332,3,3,3,3,-9.51,1.28,-1.73,-0.15,0.12,0.05
4.312180042266846,3,3,3,3,-9.56,1.27,-1.71,-0.54,0.05,0.19
4.312180042266846,3,3,3,3,-9.56,1.27,-1.71,-0.54,0.05,0.19
4.332180023193359,3,3,3,3,-9.529999999999999,1.08,-1.87,-0.68,0.13,0.11
4.332180023193359,3,3,3,3,-9.529999999999999,1.08,-1.87,-0.68,0.13,0.11
4.352180004119873,3,3,3,3,-9.52,0.8100000000000001,-1.77,-0.68,0.1,0.13
4.352180004119873,3,3,3,3,-9.52,0.8100000000000001,-1.77,-0.68,0.1,0.13
4.372179985046387,3,3,3,3,-9.52,0.78,-1.79,-0.39,0.2,-0.02
4.372179985046387,3,3,3,3,-9.52,0.78,-1.79,-0.39,0.2,-0.02
4.3921799659729,3,3,3,3,-9.52,0.63,-1.66,-0.09,0.17,0.01
4.3921799659729,3,3,3,3,-9.52,0.63,-1.66,-0.09,0.17,0.01
4.412179946899414,3,3,3,3,-9.56,0.54,-1.61,0.64,-0.09,-0.19
4.412179946899414,3,3,3,3,-9.56,0.54,-1.61,0.64,-0.09,-0.19
4.432179927825928,3,3,3,3,-9.42,0.59,-1.38,0.65,0.02,-0.41
4.432179927825928,3,3,3,3,-9.42,0.59,-1.38,0.65,0.02,-0.41
4.452179908752441,3,3,3,3,-9.460000000000001,0.2,-1.06,0.66,0,-0.5600000000000001
4.452179908752441,3,3,3,3,-9.460000000000001,0.2,-1.06,0.66,0,-0.5600000000000001
4.472180128097534,3,3,3,3,-9.720000000000001,-0.6,-0.74,-0.03,-0.34,-1.93
4.472180128097534,3,3,3,3,-9.720000000000001,-0.6,-0.74,-0.03,-0.34,-1.93
4.492180109024048,3,3,3,2,-9.77,-0.58,-0.43,-0.14,-0.12,-2.61
4.492180109024048,3,3,3,2,-9.77,-0.58,-0.43,-0.14,-0.12,-2.61
4.512180089950562,3,3,3,2,-9.710000000000001,-0.29,-0.84,-0.12,0.14,-3.38
4.512180089950562,3,3,3,2,-9.710000000000001,-0.29,-0.84,-0.12,0.14,-3.38
4.532180070877075,3,3,3,2,-9.57,0.25,-1.1,-0.15,-0.43,-3.39
4.532180070877075,3,3,3,2,-9.57,0.25,-1.1,-0.15,-0.43,-3.39
4.552180051803589,3,3,3,2,-9.380000000000001,-0.4,-0.78,-0.12,-0.5600000000000001,-3.52
4.552180051803589,3,3,3,2,-9.380000000000001,-0.4,-0.78,-0.12,-0.5600000000000001,-3.52
4.572180032730103,3,3,3,2,-9.32,-1.87,-0.45,-0.21,-1.44,-4.92
4.572180032730103,3,3,3,2,-9.32,-1.87,-0.45,-0.21,-1.44,-4.92
4.592180013656616,3,3,3,2,-9.359999999999999,-2.79,0.18,0.07000000000000001,-1.98,-5.37
4.592180013656616,3,3,3,2,-9.359999999999999,-2.79,0.18,0.07000000000000001,-1.98,-5.37
4.61217999458313,3,3,3,2,-9.130000000000001,-2.96,-0.3,-0.84,-2.21,-7.82
4.61217999458313,3,3,3,2,-9.130000000000001,-2.96,-0.3,-0.84,-2.21,-7.82
4.632179975509644,3,3,3,2,-8.93,-1.19,-0.19,-0.7,-3.54,-7.93
4.632179975509644,3,3,3,2,-8.93,-1.19,-0.19,-0.7,-3.54,-7.93
4.652179956436157,3,3,3,2,-8.539999999999999,-0.89,-1.03,-0.68,-4.11,-8.619999999999999
4.652179956436157,3,3,3,2,-8.539999999999999,-0.89,-1.03,-0.68,-4.11,-8.619999999999999
4.672179937362671,3,3,3,2,-8.19,-0.73,-0.41,-1.94,-0.98,-9.08
4.672179937362671,3,3,3,2,-8.19,-0.73,-0.41,-1.94,-0.98,-9.08
4.692179918289185,3,3,3,2,-8.76,-0.84,-1.22,-2.51,-1.31,-9.039999999999999
4.692179918289185,3,3,3,2,-8.76,-0.84,-1.22,-2.51,-1.31,-9.039999999999999
4.712180137634277,3,3,3,2,-9.74,-0.58,-1.39,-2.58,-5.83,-9.890000000000001
4.712180137634277,3,3,3,2,-9.74,-0.58,-1.39,-2.58,-5.83,-9.890000000000001
4.732180118560791,3,3,3,2,-8.99,1.28,-2.42,-1.66,-2.86,-9.42
4.732180118560791,3,3,3,2,-8.99,1.28,-2.42,-1.66,-2.86,-9.42
4.752180099487305,3,3,3,2,-8.949999999999999,1.85,-3.1,-1.02,-2.64,-8.710000000000001
4.752180099487305,3,3,3,2,-8.949999999999999,1.85,-3.1,-1.02,-2.64,-8.710000000000001
4.772180080413818,3,3,3,2,-11.04,-0.07000000000000001,-2.7,-2.03,-1.87,-5.9
4.772180080413818,3,3,3,2,-11.04,-0.07000000000000001,-2.7,-2.03,-1.87,-5.9
4.792180061340332,3,3,3,2,-11.81,-1.01,-2.14,-0.8,-1.67,-5.25
4.792180061340332,3,3,3,2,-11.81,-1.01,-2.14,-0.8,-1.67,-5.25
4.812180042266846,3,3,3,2,-10.98,0.31,-2.31,3.6,-0.85,-5.41
4.812180042266846,3,3,3,2,-10.98,0.31,-2.31,3.6,-0.85,-5.41
4.832180023193359,3,3,3,2,-10.54,1.09,-1.85,3.44,-0.35,-5.27
4.832180023193359,3,3,3,2,-10.54,1.09,-1.85,3.44,-0.35,-5.27
4.852180004119873,3,3,3,2,-10.13,1.52,-1.22,2.37,-0.53,-5.23
4.852180004119873,3,3,3,2,-10.13,1.52,-1.22,2.37,-0.53,-5.23
4.872179985046387,3,3,3,2,-9.91,0.64,-0.84,-0.68,-0.62,-4.72
4.872179985046387,3,3,3,2,-9.91,0.64,-0.84,-0.68,-0.62,-4.72
4.8921799659729,3,3,3,2,-9.75,0.32,-0.6,-1.05,-0.58,-4.5
4.8921799659729,3,3,3,2,-9.75,0.32,-0.6,-1.05,-0.58,-4.5
4.912179946899414,3,3,3,2,-9.449999999999999,-0.06,-0.07000000000000001,-2.01,-0.79,-3.81
4.912179946899414,3,3,3,2,-9.449999999999999,-0.06,-0.07000000000000001,-2.01,-0.79,-3.81
4.932179927825928,3,3,3,2,-10.46,-2.8,0.05,-2.24,-1.31,-3.61
4.932179927825928,3,3,3,2,-10.46,-2.8,0.05,-2.24,-1.31,-3.61
4.952179908752441,3,3,3,2,-11.16,-3.18,-0.29,-1.18,-1.44,-3.44
4.952179908752441,3,3,3,2,-11.16,-3.18,-0.29,-1.18,-1.44,-3.44
4.972180128097534,3,3,3,2,-10.14,-1.55,-1.06,0.78,-1.23,-3.71
4.972180128097534,3,3,3,2,-10.14,-1.55,-1.06,0.78,-1.23,-3.71
4.992180109024048,3,3,3,2,-9.44,-0.95,-1.39,0.21,-1.04,-3.8
4.992180109024048,3,3,3,2,-9.44,-0.95,-1.39,0.21,-1.04,-3.8
5.012180089950562,3,3,3,2,-9.24,-1.18,-1.53,-2.66,-0.92,-3.06
5.012180089950562,3,3,3,2,-9.24,-1.18,-1.53,-2.66,-0.92,-3.06
5.032180070877075,3,3,3,2,-9.66,-1.42,-1.89,-3.21,-1,-2.4
5.032180070877075,3,3,3,2,-9.66,-1.42,-1.89,-3.21,-1,-2.4
5.052180051803589,3,3,3,2,-10.27,-1.65,-1.95,-3.49,-0.73,-2.14
5.052180051803589,3,3,3,2,-10.27,-1.65,-1.95,-3.49,-0.73,-2.14
5.072180032730103,3,3,3,2,-10.7,-1.92,-1.92,-2.81,-0.3,-1.28
5.072180032730103,3,3,3,2,-10.7,-1.92,-1.92,-2.81,-0.3,-1.28
5.092180013656616,3,3,3,2,-10.74,-2.18,-1.53,-2,-0.18,-0.99
5.092180013656616,3,3,3,2,-10.74,-2.18,-1.53,-2,-0.18,-0.99
5.113179922103882,3,3,3,2,-10.46,-2.1,-1.18,0.16,-0.32,-0.16
5.113179922103882,3,3,3,2,-10.46,-2.1,-1.18,0.16,-0.32,-0.16
5.133180141448975,3,3,3,2,-10.05,-2.28,-0.67,0.92,-0.48,0
5.133180141448975,3,3,3,2,-10.05,-2.28,-0.67,0.92,-0.48,0
5.153180122375488,3,3,3,2,-9.77,-2.35,-0.27,1.23,-0.52,-0.06
5.153180122375488,3,3,3,2,-9.77,-2.35,-0.27,1.23,-0.52,-0.06
5.173180103302002,3,3,3,2,-8.74,-1.28,-0.71,2.2,-0.49,-0.65
5.173180103302002,3,3,3,2,-8.74,-1.28,-0.71,2.2,-0.49,-0.65
5.193180084228516,3,3,3,2,-8.16,-1.06,-0.53,2.05,-0.4,-0.7
5.193180084228516,3,3,3,2,-8.16,-1.06,-0.53,2.05,-0.4,-0.7
5.213180065155029,3,3,3,2,-8.32,-1.86,-0.23,-0.14,-0.29,-0.37
5.213180065155029,3,3,3,2,-8.32,-1.86,-0.23,-0.14,-0.29,-0.37
5.233180046081543,3,3,3,2,-9.199999999999999,-3.48,0,-0.41,-0.51,-0.52
5.233180046081543,3,3,3,2,-9.199999999999999,-3.48,0,-0.41,-0.51,-0.52
5.253180027008057,3,3,3,2,-9.32,-3.6,-0.01,0.03,-0.34,-0.72
5.253180027008057,3,3,3,2,-9.32,-3.6,-0.01,0.03,-0.34,-0.72
5.27318000793457,3,3,3,2,-9.470000000000001,-2.63,-0.59,0.45,-0.5600000000000001,-1.13
5.27318000793457,3,3,3,2,-9.470000000000001,-2.63,-0.59,0.45,-0.5600000000000001,-1.13
5.293179988861084,3,3,3,2,-9.42,-2.54,-0.67,0.14,-0.7,-1.21
5.293179988861084,3,3,3,2,-9.42,-2.54,-0.67,0.14,-0.7,-1.21
5.313179969787598,3,3,3,2,-9.31,-2.41,-0.79,-0.37,-0.76,-1.37
5.313179969787598,3,3,3,2,-9.31,-2.41,-0.79,-0.37,-0.76,-1.37
5.333179950714111,3,3,3,2,-9.789999999999999,-2.26,-0.44,-1.26,-0.02,-1.14
5.333179950714111,3,3,3,2,-9.789999999999999,-2.26,-0.44,-1.26,-0.02,-1.14
5.353179931640625,3,3,3,2,-11.19,-1.51,-0.66,-1.59,0.05,-0.82
5.353179931640625,3,3,3,2,-11.19,-1.51,-0.66,-1.59,0.05,-0.82
5.373179912567139,3,3,3,2,-11.51,-0.95,-0.71,-4.19,1.24,0.76
5.373179912567139,3,3,3,2,-11.51,-0.95,-0.71,-4.19,1.24,0.76
5.393180131912231,3,3,3,2,-12.24,0.29,-1.02,-4.11,1.72,1.19
5.393180131912231,3,3,3,2,-12.24,0.29,-1.02,-4.11,1.72,1.19
5.413180112838745,3,3,3,2,-14.07,4.46,-1.48,-5.27,1.6,5.16
5.413180112838745,3,3,3,2,-14.07,4.46,-1.48,-5.27,1.6,5.16
5.433180093765259,3,3,3,2,-16.54,5.76,-2.81,-8.869999999999999,0.05,8.800000000000001
5.433180093765259,3,3,3,2,-16.54,5.76,-2.81,-8.869999999999999,0.05,8.800000000000001
5.453180074691772,3,3,3,2,-17.61,4.53,-3.61,-10.36,-0.96,10.78
5.453180074691772,3,3,3,2,-17.61,4.53,-3.61,-10.36,-0.96,10.78
5.473180055618286,3,3,3,2,-22.36,3.32,-5.63,-5.8,-2.25,15.23
5.473180055618286,3,3,3,2,-22.36,3.32,-5.63,-5.8,-2.25,15.23
5.4931800365448,3,3,3,2,-22.51,4.72,-5.87,-2.34,-0.88,16.69
5.4931800365448,3,3,3,2,-22.51,4.72,-5.87,-2.34,-0.88,16.69
5.513180017471313,3,3,3,2,-21.47,3.69,-4.96,-1.24,3.5,22.28
5.513180017471313,3,3,3,2,-21.47,3.69,-4.96,-1.24,3.5,22.28
5.533179998397827,3,3,3,2,-20.41,-8.59,-1.61,-0.59,5.05,21.95
5.533179998397827,3,3,3,2,-20.41,-8.59,-1.61,-0.59,5.05,21.95
5.553179979324341,3,3,3,2,-18.55,-12.26,-0.03,2.03,6.57,19.7
5.553179979324341,3,3,3,2,-18.55,-12.26,-0.03,2.03,6.57,19.7
5.573179960250854,3,3,3,2,-6.88,-6.44,1,12.33,6.99,10.04
5.573179960250854,3,3,3,2,-6.88,-6.44,1,12.33,6.99,10.04
5.593179941177368,3,3,3,2,-5.38,-7.37,1.33,7.03,4.8,9.35
5.593179941177368,3,3,3,2,-5.38,-7.37,1.33,7.03,4.8,9.35
5.613179922103882,3,3,3,2,-2.37,-11.19,8.81,5.2,-0.49,6.19
5.613179922103882,3,3,3,2,-2.37,-11.19,8.81,5.2,-0.49,6.19
5.633180141448975,3,3,3,2,-1.74,-13.73,6.46,1.92,1.72,-1.94
5.633180141448975,3,3,3,2,-1.74,-13.73,6.46,1.92,1.72,-1.94
5.653180122375488,3,3,3,2,-2.5,-9.710000000000001,3.75,-0.38,0.57,-5.17
5.653180122375488,3,3,3,2,-2.5,-9.710000000000001,3.75,-0.38,0.57,-5.17
5.673180103302002,3,3,3,2,-1.27,7.06,-2.84,-4.22,-3.31,-3.96
5.673180103302002,3,3,3,2,-1.27,7.06,-2.84,-4.22,-3.31,-3.96
5.693180084228516,3,3,3,2,-0.66,6.29,-1.92,-3.05,-4.37,-2.95
5.693180084228516,3,3,3,2,-0.66,6.29,-1.92,-3.05,-4.37,-2.95
5.713180065155029,3,3,3,2,1.08,1.21,-0.95,1.84,-3.42,-0.55
5.713180065155029,3,3,3,2,1.08,1.21,-0.95,1.84,-3.42,-0.55
5.733180046081543,3,3,3,2,1.29,1.19,-1.11,1.67,-3.2,0.65
5.733180046081543,3,3,3,2,1.29,1.19,-1.11,1.67,-3.2,0.65
5.753180027008057,3,3,3,2,1.04,0.6899999999999999,-0.66,0.88,-3.94,1.47
5.753180027008057,3,3,3,2,1.04,0.6899999999999999,-0.66,0.88,-3.94,1.47
5.77318000793457,3,3,3,2,0.41,-3.62,-0.39,1.38,-3.59,1.4
5.77318000793457,3,3,3,2,0.41,-3.62,-0.39,1.38,-3.59,1.4
5.793179988861084,3,3,3,2,0.24,-3.75,-0.95,2.92,-1.45,0.18
5.793179988861084,3,3,3,2,0.24,-3.75,-0.95,2.92,-1.45,0.18
5.813179969787598,3,3,3,2,1.16,0.77,-0.8,7.91,0.05,1.37
5.813179969787598,3,3,3,2,1.16,0.77,-0.8,7.91,0.05,1.37
5.833179950714111,3,3,3,2,0.9,1.93,-0.78,7.49,0.22,2.71
5.833179950714111,3,3,3,2,0.9,1.93,-0.78,7.49,0.22,2.71
5.853179931640625,3,3,3,2,0.05,1.51,-0.05,7.8,-0.48,2.78
5.853179931640625,3,3,3,2,0.05,1.51,-0.05,7.8,-0.48,2.78
5.873179912567139,3,3,3,2,-2.24,-3.67,3.87,5.24,-2.8,1.77
5.873179912567139,3,3,3,2,-2.24,-3.67,3.87,5.24,-2.8,1.77
5.893180131912231,3,3,3,2,-4.23,-14.86,7.32,1.39,-3.63,-0.5
5.893180131912231,3,3,3,2,-4.23,-14.86,7.32,1.39,-3.63,-0.5
5.913180112838745,3,3,3,2,-13.47,5.21,-1.7,-1.62,-6.06,-1.74
5.913180112838745,3,3,3,2,-13.47,5.21,-1.7,-1.62,-6.06,-1.74
5.933180093765259,3,3,3,2,-29.08,-17.93,-1.51,-16.67,-2.31,-10.73
5.933180093765259,3,3,3,2,-29.08,-17.93,-1.51,-16.67,-2.31,-10.73
5.953180074691772,3,3,3,2,-17.87,-7.47,-5.75,-10.53,-0.6899999999999999,-16.29
5.953180074691772,3,3,3,2,-17.87,-7.47,-5.75,-10.53,-0.6899999999999999,-16.29
5.973180055618286,3,3,3,2,-35.91,-19.46,1.64,-6.05,-3.83,-17.31
5.973180055618286,3,3,3,2,-35.91,-19.46,1.64,-6.05,-3.83,-17.31
5.9931800365448,3,3,3,2,-38.14,-6.32,-0.21,10.32,-8.529999999999999,-11.51
5.9931800365448,3,3,3,2,-38.14,-6.32,-0.21,10.32,-8.529999999999999,-11.51
6.013180017471313,3,3,3,2,-11.98,32.41,-4.06,5.54,3.46,-12.63
6.013180017471313,3,3,3,2,-11.98,32.41,-4.06,5.54,3.46,-12.63
6.033179998397827,3,3,3,2,-10.41,15.69,-5.31,-22.1,-0.32,-5.4
6.033179998397827,3,3,3,2,-10.41,15.69,-5.31,-22.1,-0.32,-5.4
6.053179979324341,3,3,3,2,-15.82,-9.25,-2.9,-21.19,-1.99,1.25
6.053179979324341,3,3,3,2,-15.82,-9.25,-2.9,-21.19,-1.99,1.25
6.073179960250854,3,3,3,2,-21.56,-7.23,-3.53,0.33,-1.92,3.87
6.073179960250854,3,3,3,2,-21.56,-7.23,-3.53,0.33,-1.92,3.87
6.093179941177368,3,3,3,2,-11.22,1.44,-3.66,11.88,1.12,3.06
6.093179941177368,3,3,3,2,-11.22,1.44,-3.66,11.88,1.12,3.06
6.113179922103882,3,3,3,2,-10.11,3.77,-2.89,11.88,1.89,4.76
6.113179922103882,3,3,3,2,-10.11,3.77,-2.89,11.88,1.89,4.76
6.134180068969727,3,3,3,2,-10.5,1.83,-1.21,8.25,2.35,7.97
6.134180068969727,3,3,3,2,-10.5,1.83,-1.21,8.25,2.35,7.97
6.15418004989624,3,3,3,2,-9.5,1.9,-1.02,7.72,2.72,9.92
6.15418004989624,3,3,3,2,-9.5,1.9,-1.02,7.72,2.72,9.92
6.174180030822754,3,3,3,2,-8.94,2.69,-1.11,5.81,2.86,9.039999999999999
6.174180030822754,3,3,3,2,-8.94,2.69,-1.11,5.81,2.86,9.039999999999999
6.194180011749268,3,3,3,2,-9.09,1.87,-1.09,1.54,3.26,7.56
6.194180011749268,3,3,3,2,-9.09,1.87,-1.09,1.54,3.26,7.56
6.214179992675781,3,3,3,2,-8.84,1.35,-1.15,-1.82,4.46,6.66
6.214179992675781,3,3,3,2,-8.84,1.35,-1.15,-1.82,4.46,6.66
6.234179973602295,3,3,3,2,-8.050000000000001,-1.08,0,-4.27,3.55,6.27
6.234179973602295,3,3,3,2,-8.050000000000001,-1.08,0,-4.27,3.55,6.27
6.254179954528809,3,3,3,2,-8.51,-1.7,0.46,-4.98,2.92,5.73
6.254179954528809,3,3,3,2,-8.51,-1.7,0.46,-4.98,2.92,5.73
6.274179935455322,3,3,3,2,-8.199999999999999,-2.14,0.18,-4.48,2.14,5.09
6.274179935455322,3,3,3,2,-8.199999999999999,-2.14,0.18,-4.48,2.14,5.09
6.294179916381836,3,3,3,2,-8.69,-2.68,0.35,-3.23,1.39,4.15
6.294179916381836,3,3,3,2,-8.69,-2.68,0.35,-3.23,1.39,4.15
6.314180135726929,3,3,3,2,-9.4,-3.14,-0.34,-0.96,1.26,3.23
6.314180135726929,3,3,3,2,-9.4,-3.14,-0.34,-0.96,1.26,3.23
6.334180116653442,3,3,3,2,-9.69,-2.17,-0.95,2.33,1.22,2.55
6.334180116653442,3,3,3,2,-9.69,-2.17,-0.95,2.33,1.22,2.55
6.354180097579956,3,3,3,2,-9.27,-0.6899999999999999,-1.78,4.54,1.1,2.32
6.354180097579956,3,3,3,2,-9.27,-0.6899999999999999,-1.78,4.54,1.1,2.32
6.37418007850647,3,3,3,2,-9.279999999999999,0.6899999999999999,-1.78,5.94,1.44,2.48
6.37418007850647,3,3,3,2,-9.279999999999999,0.6899999999999999,-1.78,5.94,1.44,2.48
6.394180059432983,3,3,3,2,-9.960000000000001,2.22,-1.6,5.47,0.83,2.87
6.394180059432983,3,3,3,2,-9.960000000000001,2.22,-1.6,5.47,0.83,2.87
6.414180040359497,3,3,3,2,-10.24,1.97,-1.39,3.39,0.29,3.16
6.414180040359497,3,3,3,2,-10.24,1.97,-1.39,3.39,0.29,3.16
6.434180021286011,3,3,3,2,-10.17,1.78,-1,1.45,-0.08,3.06
6.434180021286011,3,3,3,2,-10.17,1.78,-1,1.45,-0.08,3.06
6.454180002212524,3,3,3,2,-9.75,1.73,-1.11,0.04,0.26,2.95
6.454180002212524,3,3,3,2,-9.75,1.73,-1.11,0.04,0.26,2.95
6.474179983139038,3,3,3,2,-9.19,1.42,-1.4,-1.37,0.55,2.99
6.474179983139038,3,3,3,2,-9.19,1.42,-1.4,-1.37,0.55,2.99
6.494179964065552,3,3,3,2,-9.289999999999999,1.11,-1.35,-2,0.49,3.15
6.494179964065552,3,3,3,2,-9.289999999999999,1.11,-1.35,-2,0.49,3.15
6.514179944992065,3,3,3,2,-9.460000000000001,0.6,-1.36,-2.64,0.01,3.19
6.514179944992065,3,3,3,2,-9.460000000000001,0.6,-1.36,-2.64,0.01,3.19
6.534179925918579,3,3,3,2,-9.23,0.26,-1.31,-2.59,0,2.96
6.534179925918579,3,3,3,2,-9.23,0.26,-1.31,-2.59,0,2.96
6.554180145263672,3,3,3,2,-9.65,-0.3,-1.12,-1.4,-0.07000000000000001,2.76
6.554180145263672,3,3,3,2,-9.65,-0.3,-1.12,-1.4,-0.07000000000000001,2.76
6.574180126190186,3,3,3,2,-9.619999999999999,-0.16,-0.9,1.14,-0.45,2.77
6.574180126190186,3,3,3,2,-9.619999999999999,-0.16,-0.9,1.14,-0.45,2.77
6.594180107116699,3,3,3,2,-9.529999999999999,0.29,-0.8100000000000001,2.76,-1.1,2.72
6.594180107116699,3,3,3,2,-9.529999999999999,0.29,-0.8100000000000001,2.76,-1.1,2.72
6.614180088043213,3,3,3,2,-9.57,0.7,-0.97,3.17,-0.48,2.05
6.614180088043213,3,3,3,2,-9.57,0.7,-0.97,3.17,-0.48,2.05
6.634180068969727,3,3,3,2,-9.449999999999999,1.49,-0.96,3.38,-0.07000000000000001,1.85
6.634180068969727,3,3,3,2,-9.449999999999999,1.49,-0.96,3.38,-0.07000000000000001,1.85
6.65418004989624,3,3,3,2,-9.56,1.88,-0.88,1.37,-0.02,1.54
6.65418004989624,3,3,3,2,-9.56,1.88,-0.88,1.37,-0.02,1.54
6.674180030822754,3,3,3,2,-9.640000000000001,1.67,-0.86,-0.76,-0.35,1.28
6.674180030822754,3,3,3,2,-9.640000000000001,1.67,-0.86,-0.76,-0.35,1.28
6.694180011749268,3,3,3,2,-9.359999999999999,1.37,-1.01,-2.49,0.24,0.43
6.694180011749268,3,3,3,2,-9.359999999999999,1.37,-1.01,-2.49,0.24,0.43
6.714179992675781,3,3,3,2,-9.800000000000001,1.7,-1.29,-2.66,0.85,0.5600000000000001
6.714179992675781,3,3,3,2,-9.800000000000001,1.7,-1.29,-2.66,0.85,0.5600000000000001
6.734179973602295,3,3,3,2,-9.890000000000001,1.39,-1.31,-2.83,0.21,1.11
6.734179973602295,3,3,3,2,-9.890000000000001,1.39,-1.31,-2.83,0.21,1.11
6.754179954528809,3,3,3,2,-9.550000000000001,0.96,-1.11,-2.15,-0.74,1.23
6.754179954528809,3,3,3,2,-9.550000000000001,0.96,-1.11,-2.15,-0.74,1.23
6.774179935455322,3,3,3,2,-9.49,0.84,-1.49,0.02,-0.49,0.92
6.774179935455322,3,3,3,2,-9.49,0.84,-1.49,0.02,-0.49,0.92
6.794179916381836,3,3,3,2,-9.52,2.11,-0.93,1.69,0.5600000000000001,1.09
6.794179916381836,3,3,3,2,-9.52,2.11,-0.93,1.69,0.5600000000000001,1.09
6.814180135726929,3,3,3,2,-9.630000000000001,3.2,-1.47,1.32,0.31,1.99
6.814180135726929,3,3,3,2,-9.630000000000001,3.2,-1.47,1.32,0.31,1.99
6.834180116653442,3,3,3,2,-9.51,2.94,-1.52,0.08,-0.41,2.63
6.834180116653442,3,3,3,2,-9.51,2.94,-1.52,0.08,-0.41,2.63
6.854180097579956,3,3,3,2,-9.4,2.16,-1.6,0.07000000000000001,-0.62,2.98
6.854180097579956,3,3,3,2,-9.4,2.16,-1.6,0.07000000000000001,-0.62,2.98
6.87418007850647,3,3,3,2,-9.35,1.94,-1.85,0.72,-0.01,3.15
6.87418007850647,3,3,3,2,-9.35,1.94,-1.85,0.72,-0.01,3.15
6.894180059432983,3,3,3,2,-9.43,2.29,-0.98,1.07,0.31,3.31
6.894180059432983,3,3,3,2,-9.43,2.29,-0.98,1.07,0.31,3.31
6.914180040359497,3,3,3,2,-9.279999999999999,2.04,-0.84,0.43,0.4,3.44
6.914180040359497,3,3,3,2,-9.279999999999999,2.04,-0.84,0.43,0.4,3.44
6.934180021286011,3,3,3,2,-9.449999999999999,1.34,-0.72,-0.05,-0.18,3.24
6.934180021286011,3,3,3,2,-9.449999999999999,1.34,-0.72,-0.05,-0.18,3.24
6.954180002212524,3,3,3,2,-9.41,0.59,-1.04,0.3,-0.32,2.74
6.954180002212524,3,3,3,2,-9.41,0.59,-1.04,0.3,-0.32,2.74
6.974179983139038,3,3,3,2,-9.640000000000001,0.87,-0.88,1.38,0.41,1.31
6.974179983139038,3,3,3,2,-9.640000000000001,0.87,-0.88,1.38,0.41,1.31
6.994179964065552,3,3,3,2,-9.67,1.66,-0.79,1.72,0.76,0.52
6.994179964065552,3,3,3,2,-9.67,1.66,-0.79,1.72,0.76,0.52
7.014179944992065,3,3,3,2,-9.789999999999999,2.43,-1.31,0.11,0.1,0.62
7.014179944992065,3,3,3,2,-9.789999999999999,2.43,-1.31,0.11,0.1,0.62
7.034179925918579,3,3,3,2,-9.529999999999999,2.02,-1.39,-1.22,-0.54,0.3
7.034179925918579,3,3,3,2,-9.529999999999999,2.02,-1.39,-1.22,-0.54,0.3
7.054180145263672,3,3,3,2,-9.289999999999999,1.54,-1.08,-0.67,0.45,-0.79
7.054180145263672,3,3,3,2,-9.289999999999999,1.54,-1.08,-0.67,0.45,-0.79
7.074180126190186,3,3,3,2,-9.23,2.02,-1.24,-0.1,0.76,-0.91
7.074180126190186,3,3,3,2,-9.23,2.02,-1.24,-0.1,0.76,-0.91
7.094180107116699,3,3,3,2,-9.75,2.49,-1.47,-0.64,-0.08,-0.16
7.094180107116699,3,3,3,2,-9.75,2.49,-1.47,-0.64,-0.08,-0.16
7.114180088043213,3,3,3,2,-9.630000000000001,1.98,-1.55,-0.25,-0.6899999999999999,0.1
7.114180088043213,3,3,3,2,-9.630000000000001,1.98,-1.55,-0.25,-0.6899999999999999,0.1
7.134180068969727,3,3,3,2,-9.4,1.57,-1.31,1.25,-0.1,-0.5600000000000001
7.134180068969727,3,3,3,2,-9.4,1.57,-1.31,1.25,-0.1,-0.5600000000000001
7.15418004989624,3,3,3,2,-9.130000000000001,1.68,-0.8100000000000001,2.27,0.42,-0.84
7.15418004989624,3,3,3,2,-9.130000000000001,1.68,-0.8100000000000001,2.27,0.42,-0.84
7.175179958343506,3,3,3,2,-9.25,2,-1.34,1.82,0.24,-0.62
7.175179958343506,3,3,3,2,-9.25,2,-1.34,1.82,0.24,-0.62
7.19517993927002,3,3,3,2,-9.52,2.33,-1.04,1.83,-0.11,-0.42
7.19517993927002,3,3,3,2,-9.52,2.33,-1.04,1.83,-0.11,-0.42
7.215179920196533,3,3,3,2,-9.779999999999999,2.07,-1.34,1.4,-0.09,-0.61
7.215179920196533,3,3,3,2,-9.779999999999999,2.07,-1.34,1.4,-0.09,-0.61
7.235180139541626,3,3,3,2,-9.58,1.94,-1.03,0.52,0.16,-1.23
7.235180139541626,3,3,3,2,-9.58,1.94,-1.03,0.52,0.16,-1.23
7.25518012046814,3,3,3,2,-9.42,1.78,-1.18,0.18,0.33,-1.49
7.25518012046814,3,3,3,2,-9.42,1.78,-1.18,0.18,0.33,-1.49
7.275180101394653,3,3,3,2,-9.58,2.15,-1.34,-0.1,0.23,-1.49
7.275180101394653,3,3,3,2,-9.58,2.15,-1.34,-0.1,0.23,-1.49
7.295180082321167,3,3,3,3,-9.609999999999999,2.24,-1.37,-0.5,0.28,-1.56
7.295180082321167,3,3,3,3,-9.609999999999999,2.24,-1.37,-0.5,0.28,-1.56
7.315180063247681,3,3,3,3,-9.449999999999999,1.98,-1.53,-0.68,0.83,-1.87
7.315180063247681,3,3,3,3,-9.449999999999999,1.98,-1.53,-0.68,0.83,-1.87
7.335180044174194,3,3,3,3,-9.140000000000001,1.55,-1.12,-0.49,0.79,-1.9
7.335180044174194,3,3,3,3,-9.140000000000001,1.55,-1.12,-0.49,0.79,-1.9
7.355180025100708,3,3,3,3,-9.1,1.18,-1.02,-0.17,0.61,-2.06
7.355180025100708,3,3,3,3,-9.1,1.18,-1.02,-0.17,0.61,-2.06
7.375180006027222,3,3,3,3,-9.460000000000001,1.36,-1.3,0.73,0.05,-1.99
7.375180006027222,3,3,3,3,-9.460000000000001,1.36,-1.3,0.73,0.05,-1.99
7.395179986953735,3,3,3,3,-10.13,1.98,-1.37,0.55,0.17,-1.94
7.395179986953735,3,3,3,3,-10.13,1.98,-1.37,0.55,0.17,-1.94
7.415179967880249,3,3,3,3,-9.869999999999999,1.87,-1.63,0.03,0.23,-1.72
7.415179967880249,3,3,3,3,-9.869999999999999,1.87,-1.63,0.03,0.23,-1.72
7.435179948806763,3,3,3,3,-9.42,0.8,-1.25,-0.08,0.08,-1.86
7.435179948806763,3,3,3,3,-9.42,0.8,-1.25,-0.08,0.08,-1.86
7.455179929733276,3,3,3,3,-9.18,-0.28,-0.9,0.78,-0.15,-2.48
7.455179929733276,3,3,3,3,-9.18,-0.28,-0.9,0.78,-0.15,-2.48
7.47517991065979,3,3,3,3,-9.039999999999999,-1.36,0.13,0.8,0.09,-3.48
7.47517991065979,3,3,3,3,-9.039999999999999,-1.36,0.13,0.8,0.09,-3.48
7.495180130004883,3,3,3,3,-9.609999999999999,-1.83,0.25,0.98,-0.52,-4.52
7.495180130004883,3,3,3,3,-9.609999999999999,-1.83,0.25,0.98,-0.52,-4.52
7.515180110931396,3,3,3,3,-9.91,-1.77,0.3,1.16,-1.59,-5.67
7.515180110931396,3,3,3,3,-9.91,-1.77,0.3,1.16,-1.59,-5.67
7.53518009185791,3,3,3,3,-9.76,-2.33,0.37,1.07,-2.62,-6.72
7.53518009185791,3,3,3,3,-9.76,-2.33,0.37,1.07,-2.62,-6.72
7.555180072784424,3,3,3,3,-8.890000000000001,-2.29,0.17,0.76,-3.57,-7.86
7.555180072784424,3,3,3,3,-8.890000000000001,-2.29,0.17,0.76,-3.57,-7.86
7.575180053710938,3,3,3,3,-8.34,-1.46,0.06,1.36,-3.85,-8.99
7.575180053710938,3,3,3,3,-8.34,-1.46,0.06,1.36,-3.85,-8.99
7.595180034637451,3,3,3,3,-8.27,-0.13,-0.61,1.88,-4.67,-9.609999999999999
7.595180034637451,3,3,3,3,-8.27,-0.13,-0.61,1.88,-4.67,-9.609999999999999
7.615180015563965,3,3,3,3,-8.19,0.93,-0.49,0.9399999999999999,-3.87,-10.66
7.615180015563965,3,3,3,3,-8.19,0.93,-0.49,0.9399999999999999,-3.87,-10.66
7.635179996490479,3,3,3,3,-8.699999999999999,1.35,-1.03,0.15,-3.19,-11.35
7.635179996490479,3,3,3,3,-8.699999999999999,1.35,-1.03,0.15,-3.19,-11.35
7.655179977416992,3,3,3,3,-8.73,1.14,-1.05,-2.98,-4.06,-11.48
7.655179977416992,3,3,3,3,-8.73,1.14,-1.05,-2.98,-4.06,-11.48
7.675179958343506,3,3,3,3,-9.43,0.99,-1.77,-4.04,-2.77,-12.43
7.675179958343506,3,3,3,3,-9.43,0.99,-1.77,-4.04,-2.77,-12.43
7.69517993927002,3,3,3,3,-9.09,-0.7,-1.49,-3.6,-3.87,-13.31
7.69517993927002,3,3,3,3,-9.09,-0.7,-1.49,-3.6,-3.87,-13.31
7.715179920196533,3,3,3,3,-8.949999999999999,-2.08,-0.17,-1.81,-2.12,-14.45
7.715179920196533,3,3,3,3,-8.949999999999999,-2.08,-0.17,-1.81,-2.12,-14.45
7.735180139541626,3,3,3,3,-9.23,-1.82,-1.4,1.57,-1.27,-14.84
7.735180139541626,3,3,3,3,-9.23,-1.82,-1.4,1.57,-1.27,-14.84
7.75518012046814,3,3,3,3,-9.68,-0.38,-1.33,4.25,-1.89,-14.21
7.75518012046814,3,3,3,3,-9.68,-0.38,-1.33,4.25,-1.89,-14.21
7.775180101394653,3,3,3,3,-10.14,0.74,-1.29,5.28,-1.85,-13.09
7.775180101394653,3,3,3,3,-10.14,0.74,-1.29,5.28,-1.85,-13.09
7.795180082321167,3,3,3,3,-10.54,-1.3,-0.42,2.26,-1.18,-13.39
7.795180082321167,3,3,3,3,-10.54,-1.3,-0.42,2.26,-1.18,-13.39
7.815180063247681,3,3,3,3,-9.800000000000001,-1.78,-0.68,1.13,-1.09,-13.68
7.815180063247681,3,3,3,3,-9.800000000000001,-1.78,-0.68,1.13,-1.09,-13.68
7.835180044174194,3,3,3,3,-10.06,-0.61,-1.45,1.48,-0.44,-13.43
7.835180044174194,3,3,3,3,-10.06,-0.61,-1.45,1.48,-0.44,-13.43
7.855180025100708,3,3,3,3,-10.29,-0.88,-1.96,-0.43,-0.47,-12.09
7.855180025100708,3,3,3,3,-10.29,-0.88,-1.96,-0.43,-0.47,-12.09
7.875180006027222,3,3,3,3,-10.91,-3.11,-2.63,-1.37,0.07000000000000001,-10.16
7.875180006027222,3,3,3,3,-10.91,-3.11,-2.63,-1.37,0.07000000000000001,-10.16
7.895179986953735,3,3,3,3,-11.14,-2.13,-2.65,-0.6899999999999999,1.47,-8.24
7.895179986953735,3,3,3,3,-11.14,-2.13,-2.65,-0.6899999999999999,1.47,-8.24
7.915179967880249,3,3,3,3,-12.32,-0.91,-2.4,-0.59,2.74,-5.33
7.915179967880249,3,3,3,3,-12.32,-0.91,-2.4,-0.59,2.74,-5.33
7.935179948806763,3,3,3,3,-13.72,-2.23,-2.7,-2.45,2.71,-1.55
7.935179948806763,3,3,3,3,-13.72,-2.23,-2.7,-2.45,2.71,-1.55
7.955179929733276,3,3,3,3,-16.42,-2.52,-2.2,-1.18,1.81,1.4
7.955179929733276,3,3,3,3,-16.42,-2.52,-2.2,-1.18,1.81,1.4
7.97517991065979,3,3,3,3,-16.34,0.32,-1.15,-0.36,1.89,4.58
7.97517991065979,3,3,3,3,-16.34,0.32,-1.15,-0.36,1.89,4.58
7.995180130004883,3,3,3,3,-15.8,1.74,1.66,-2.84,1.51,7.62
7.995180130004883,3,3,3,3,-15.8,1.74,1.66,-2.84,1.51,7.62
8.015180110931396,3,3,3,3,-16.6,0.96,1.29,-6.73,-0.1,11.9
8.015180110931396,3,3,3,3,-16.6,0.96,1.29,-6.73,-0.1,11.9
8.03518009185791,3,3,3,3,-20.05,1.39,-1.26,-8.359999999999999,-3.05,17.3
8.03518009185791,3,3,3,3,-20.05,1.39,-1.26,-8.359999999999999,-3.05,17.3
8.055180072784424,3,3,3,3,-22.49,2.64,-3.22,-8.1,-5.54,21.64
8.055180072784424,3,3,3,3,-22.49,2.64,-3.22,-8.1,-5.54,21.64
8.075180053710938,3,3,3,3,-25.67,6.49,-5.59,-4.44,-4.54,24.03
8.075180053710938,3,3,3,3,-25.67,6.49,-5.59,-4.44,-4.54,24.03
8.095180034637451,3,3,3,3,-24.66,9.31,-4.86,-3.76,0.37,26.16
8.095180034637451,3,3,3,3,-24.66,9.31,-4.86,-3.76,0.37,26.16
8.115180015563965,3,3,3,3,-25.34,5.51,-4.75,-6.16,3.97,29.26
8.115180015563965,3,3,3,3,-25.34,5.51,-4.75,-6.16,3.97,29.26
8.135179996490479,3,3,3,3,-19.59,-4.73,-3.34,-5.06,7.72,26.12
8.135179996490479,3,3,3,3,-19.59,-4.73,-3.34,-5.06,7.72,26.12
8.155179977416992,3,3,3,3,-7.82,-9.84,-6.33,-16.83,7.58,20.63
8.155179977416992,3,3,3,3,-7.82,-9.84,-6.33,-16.83,7.58,20.63
8.175179958343506,3,3,3,3,-1.42,-26.1,6.71,-11.57,3.11,17.06
8.175179958343506,3,3,3,3,-1.42,-26.1,6.71,-11.57,3.11,17.06
8.196180105209351,3,3,3,3,-1.89,-39.14,20.58,6.75,1.94,2.17
8.196180105209351,3,3,3,3,-1.89,-39.14,20.58,6.75,1.94,2.17
8.216180086135864,3,3,3,3,-7.4,6.57,5.41,18.92,4.75,-1.3
8.216180086135864,3,3,3,3,-7.4,6.57,5.41,18.92,4.75,-1.3
8.236180067062378,3,3,3,3,-3.53,9.859999999999999,1.64,-10.89,-3.13,-6.77
8.236180067062378,3,3,3,3,-3.53,9.859999999999999,1.64,-10.89,-3.13,-6.77
8.256180047988892,3,3,3,3,-0.2,4.21,-4.62,-16.52,-5.91,-13.76
8.256180047988892,3,3,3,3,-0.2,4.21,-4.62,-16.52,-5.91,-13.76
8.276180028915405,3,3,3,3,0.57,2.97,-4,-5.14,-7.86,-9.73
8.276180028915405,3,3,3,3,0.57,2.97,-4,-5.14,-7.86,-9.73
8.296180009841919,3,3,3,3,1.29,5.92,-2.58,-1.59,-4.42,-4.98
8.296180009841919,3,3,3,3,1.29,5.92,-2.58,-1.59,-4.42,-4.98
8.316179990768433,3,3,3,3,1.69,2.3,-2.18,-4.76,-4.29,-2.74
8.316179990768433,3,3,3,3,1.69,2.3,-2.18,-4.76,-4.29,-2.74
8.336179971694946,3,3,3,3,1.09,-1.58,-0.35,-2.35,-4.27,-3.23
8.336179971694946,3,3,3,3,1.09,-1.58,-0.35,-2.35,-4.27,-3.23
8.35617995262146,3,3,3,3,0.63,-1.36,0.31,2.76,-3.59,-4.08
8.35617995262146,3,3,3,3,0.63,-1.36,0.31,2.76,-3.59,-4.08
8.376179933547974,3,3,3,3,0.6899999999999999,-0.95,-0.22,6.11,-3.12,-3.31
8.376179933547974,3,3,3,3,0.6899999999999999,-0.95,-0.22,6.11,-3.12,-3.31
8.396179914474487,3,3,3,3,0.8,-0.72,-0.9399999999999999,8.93,-1.95,-2.24
8.396179914474487,3,3,3,3,0.8,-0.72,-0.9399999999999999,8.93,-1.95,-2.24
8.41618013381958,3,3,3,3,0.35,0.71,-1.71,9.109999999999999,-1,-0.65
8.41618013381958,3,3,3,3,0.35,0.71,-1.71,9.109999999999999,-1,-0.65
8.436180114746094,3,3,3,3,0.32,1.16,-1.67,8.640000000000001,-0.51,0.79
8.436180114746094,3,3,3,3,0.32,1.16,-1.67,8.640000000000001,-0.51,0.79
8.456180095672607,3,3,3,3,0.2,0.74,-1.2,7.68,0.62,1.81
8.456180095672607,3,3,3,3,0.2,0.74,-1.2,7.68,0.62,1.81
8.476180076599121,3,3,3,3,0.46,0.34,-0.27,9.5,0.05,2.29
8.476180076599121,3,3,3,3,0.46,0.34,-0.27,9.5,0.05,2.29
8.496180057525635,3,3,3,3,-0.28,-0.55,1.36,9.94,0.14,2.07
8.496180057525635,3,3,3,3,-0.28,-0.55,1.36,9.94,0.14,2.07
8.516180038452148,3,3,3,3,-0.54,-1.06,1.64,7.15,0.96,1.43
8.516180038452148,3,3,3,3,-0.54,-1.06,1.64,7.15,0.96,1.43
8.536180019378662,3,3,3,3,-1.94,0.54,2.55,-2.27,7.4,1.14
8.536180019378662,3,3,3,3,-1.94,0.54,2.55,-2.27,7.4,1.14
8.556180000305176,3,3,3,3,-2.11,-12.99,4.1,-8.58,2.61,0.22
8.556180000305176,3,3,3,3,-2.11,-12.99,4.1,-8.58,2.61,0.22
8.576179981231689,3,3,3,3,-21.25,-7.63,0.67,-8.31,-7.08,-3.41
8.576179981231689,3,3,3,3,-21.25,-7.63,0.67,-8.31,-7.08,-3.41
8.596179962158203,3,3,3,3,-39.26,-11.96,-5.61,-15.97,2.28,-6.69
8.596179962158203,3,3,3,3,-39.26,-11.96,-5.61,-15.97,2.28,-6.69
8.616179943084717,3,3,3,3,-22.07,-11.92,-6.91,-4.26,1.85,-19.52
8.616179943084717,3,3,3,3,-22.07,-11.92,-6.91,-4.26,1.85,-19.52
8.63617992401123,3,3,3,3,-39.26,-27.39,3.3,9.289999999999999,-5.09,-16.37
8.63617992401123,3,3,3,3,-39.26,-27.39,3.3,9.289999999999999,-5.09,-16.37
8.656180143356323,3,3,3,3,-7.54,38.02,-9.779999999999999,33.53,1.25,-13.49
8.656180143356323,3,3,3,3,-7.54,38.02,-9.779999999999999,33.53,1.25,-13.49
8.676180124282837,3,3,3,3,-14.91,31.71,-2.44,-9.84,4.44,-5.91
8.676180124282837,3,3,3,3,-14.91,31.71,-2.44,-9.84,4.44,-5.91
8.696180105209351,3,3,3,3,-16.02,-4.89,-3.42,-21.86,-3.3,1.14
8.696180105209351,3,3,3,3,-16.02,-4.89,-3.42,-21.86,-3.3,1.14
8.716180086135864,3,3,3,3,-23.19,-4.77,-3.33,1.72,-2.41,7.29
8.716180086135864,3,3,3,3,-23.19,-4.77,-3.33,1.72,-2.41,7.29
8.736180067062378,3,3,3,3,-14.14,3.8,-3.15,13.26,0.54,5.63
8.736180067062378,3,3,3,3,-14.14,3.8,-3.15,13.26,0.54,5.63
8.756180047988892,3,3,3,3,-11.72,1.87,-2.38,12.06,2.42,6.14
8.756180047988892,3,3,3,3,-11.72,1.87,-2.38,12.06,2.42,6.14
8.776180028915405,3,3,3,3,-10.57,1.15,-1.34,10.8,2.16,10.21
8.776180028915405,3,3,3,3,-10.57,1.15,-1.34,10.8,2.16,10.21
8.796180009841919,3,3,3,3,-9.449999999999999,1.8,-1.84,10.77,2.87,11.23
8.796180009841919,3,3,3,3,-9.449999999999999,1.8,-1.84,10.77,2.87,11.23
8.816179990768433,3,3,3,3,-8.18,2.52,-1.86,8.26,3.4,10
8.816179990768433,3,3,3,3,-8.18,2.52,-1.86,8.26,3.4,10
8.836179971694946,3,3,3,3,-6.89,2.78,-1.8,4.62,4.11,7.78
8.836179971694946,3,3,3,3,-6.89,2.78,-1.8,4.62,4.11,7.78
8.85617995262146,3,3,3,3,-6.13,1.97,-1.34,1.16,5.64,7.27
8.85617995262146,3,3,3,3,-6.13,1.97,-1.34,1.16,5.64,7.27
8.876179933547974,3,3,3,3,-6.3,-0.72,0.6,-1.96,3.65,8.140000000000001
8.876179933547974,3,3,3,3,-6.3,-0.72,0.6,-1.96,3.65,8.140000000000001
8.896179914474487,3,3,3,3,-7.55,-2.34,1.31,-2.9,2.64,7.8
8.896179914474487,3,3,3,3,-7.55,-2.34,1.31,-2.9,2.64,7.8
8.91618013381958,3,3,3,3,-9.77,-2.79,1.9,-1.34,2.61,5.77
8.91618013381958,3,3,3,3,-9.77,-2.79,1.9,-1.34,2.61,5.77
8.936180114746094,3,3,3,3,-10.83,-3.16,1.75,-0.2,1.88,4.27
8.936180114746094,3,3,3,3,-10.83,-3.16,1.75,-0.2,1.88,4.27
8.956180095672607,3,3,3,3,-9.85,-3.38,1.08,-1.35,0.84,2.94
8.956180095672607,3,3,3,3,-9.85,-3.38,1.08,-1.35,0.84,2.94
8.976180076599121,3,3,3,3,-9.130000000000001,-2.09,-0.13,-1.33,1.49,1.13
8.976180076599121,3,3,3,3,-9.130000000000001,-2.09,-0.13,-1.33,1.49,1.13
8.996180057525635,3,3,3,3,-9.529999999999999,0.13,-1.6,2.19,1.72,0.74
8.996180057525635,3,3,3,3,-9.529999999999999,0.13,-1.6,2.19,1.72,0.74
9.016180038452148,3,3,3,3,-9.869999999999999,0.77,-1.95,4.04,0.68,1.83
9.016180038452148,3,3,3,3,-9.869999999999999,0.77,-1.95,4.04,0.68,1.83
9.036180019378662,3,3,3,3,-10.13,1.4,-1.97,5.17,0.61,3.25
9.036180019378662,3,3,3,3,-10.13,1.4,-1.97,5.17,0.61,3.25
9.056180000305176,3,3,3,3,-9.970000000000001,2.4,-1.73,5.03,1.14,3.83
9.056180000305176,3,3,3,3,-9.970000000000001,2.4,-1.73,5.03,1.14,3.83
9.076179981231689,3,3,3,3,-10.1,2.89,-1.16,4.11,1.58,3.85
9.076179981231689,3,3,3,3,-10.1,2.89,-1.16,4.11,1.58,3.85
9.096179962158203,3,3,3,3,-9.59,2.84,-0.49,1.31,1,3.98
9.096179962158203,3,3,3,3,-9.59,2.84,-0.49,1.31,1,3.98
9.116179943084717,3,3,3,3,-9.25,1.42,-0.41,-1.49,0.8100000000000001,4.02
9.116179943084717,3,3,3,3,-9.25,1.42,-0.41,-1.49,0.8100000000000001,4.02
9.13617992401123,3,3,3,3,-9.289999999999999,0.2,-0.3,-2.42,0.17,3.61
9.13617992401123,3,3,3,3,-9.289999999999999,0.2,-0.3,-2.42,0.17,3.61
9.156180143356323,3,3,3,3,-9.49,-0.37,-0.91,-2.31,0.6,3.08
9.156180143356323,3,3,3,3,-9.49,-0.37,-0.91,-2.31,0.6,3.08
9.176180124282837,3,3,3,3,-9.48,-0.13,-1.51,-0.8,1.24,3.01
9.176180124282837,3,3,3,3,-9.48,-0.13,-1.51,-0.8,1.24,3.01
9.196180105209351,3,3,3,3,-9.66,0.4,-1.68,1.23,1.26,3.29
9.196180105209351,3,3,3,3,-9.66,0.4,-1.68,1.23,1.26,3.29
9.217180013656616,3,3,3,3,-9.69,1.16,-1.82,2.7,0.93,3.89
9.217180013656616,3,3,3,3,-9.69,1.16,-1.82,2.7,0.93,3.89
9.23717999458313,3,3,3,3,-9.6,1.8,-1.53,3.13,0.26,4.42
9.23717999458313,3,3,3,3,-9.6,1.8,-1.53,3.13,0.26,4.42
9.257179975509644,3,3,3,2,-9.5,1.49,-1.13,2.17,-0.98,4.1
9.257179975509644,3,3,3,2,-9.5,1.49,-1.13,2.17,-0.98,4.1
9.277179956436157,3,3,3,2,-9.44,0.61,-1.49,1.4,-2.21,3.71
9.277179956436157,3,3,3,2,-9.44,0.61,-1.49,1.4,-2.21,3.71
9.297179937362671,3,3,3,2,-9.800000000000001,0.33,-1.26,0.08,-0.83,2.48
9.297179937362671,3,3,3,2,-9.800000000000001,0.33,-1.26,0.08,-0.83,2.48
9.317179918289185,3,3,3,2,-9.85,0.95,-0.84,-0.17,-0.03,1.79
9.317179918289185,3,3,3,2,-9.85,0.95,-0.84,-0.17,-0.03,1.79
9.337180137634277,3,3,3,2,-9.609999999999999,1.27,-0.61,-0.86,0.3,1.46
9.337180137634277,3,3,3,2,-9.609999999999999,1.27,-0.61,-0.86,0.3,1.46
9.357180118560791,3,3,3,2,-9.460000000000001,1.09,-0.66,-1.43,0.34,1.17
9.357180118560791,3,3,3,2,-9.460000000000001,1.09,-0.66,-1.43,0.34,1.17
9.377180099487305,3,3,3,2,-9.67,1,-0.96,-0.34,-0.28,1.2
9.377180099487305,3,3,3,2,-9.67,1,-0.96,-0.34,-0.28,1.2
9.397180080413818,3,3,3,2,-9.73,1.39,-1.12,0.29,-1.14,1.27
9.397180080413818,3,3,3,2,-9.73,1.39,-1.12,0.29,-1.14,1.27
9.417180061340332,3,3,3,2,-9.52,1.88,-1.15,0.42,-1.67,1.21
9.417180061340332,3,3,3,2,-9.52,1.88,-1.15,0.42,-1.67,1.21
9.437180042266846,3,3,3,2,-9.449999999999999,2.03,-1.17,0.3,-2.31,1.04
9.437180042266846,3,3,3,2,-9.449999999999999,2.03,-1.17,0.3,-2.31,1.04
9.457180023193359,3,3,3,2,-9.220000000000001,1.66,-1.2,0.11,-2.34,0.9399999999999999
9.457180023193359,3,3,3,2,-9.220000000000001,1.66,-1.2,0.11,-2.34,0.9399999999999999
9.477180004119873,3,3,3,2,-9.380000000000001,1.57,-1.9,0.28,-1.61,0.77
9.477180004119873,3,3,3,2,-9.380000000000001,1.57,-1.9,0.28,-1.61,0.77
9.497179985046387,3,3,3,2,-10.05,2.96,-1.03,-0.4,-0.18,0.2
9.497179985046387,3,3,3,2,-10.05,2.96,-1.03,-0.4,-0.18,0.2
9.5171799659729,3,3,3,2,-9.59,3.19,-1.21,-0.96,-0.07000000000000001,0.43
9.5171799659729,3,3,3,2,-9.59,3.19,-1.21,-0.96,-0.07000000000000001,0.43
9.537179946899414,3,3,3,2,-9.17,2.29,-1.37,-2.56,-0.57,0.67
9.537179946899414,3,3,3,2,-9.17,2.29,-1.37,-2.56,-0.57,0.67
9.557179927825928,3,3,3,2,-9.17,1.61,-1.1,-1.95,-1.16,0.93
9.557179927825928,3,3,3,2,-9.17,1.61,-1.1,-1.95,-1.16,0.93
9.577179908752441,3,3,3,2,-9.08,1.37,-1.26,-0.3,-0.71,1.35
9.577179908752441,3,3,3,2,-9.08,1.37,-1.26,-0.3,-0.71,1.35
9.597180128097534,3,3,3,2,-9.289999999999999,1.65,-1.07,1.02,0.04,1.47
9.597180128097534,3,3,3,2,-9.289999999999999,1.65,-1.07,1.02,0.04,1.47
9.617180109024048,3,3,3,2,-9.640000000000001,2.16,-1.2,1.58,-0.05,1.47
9.617180109024048,3,3,3,2,-9.640000000000001,2.16,-1.2,1.58,-0.05,1.47
9.637180089950562,3,3,3,2,-9.789999999999999,2.55,-1.04,1.38,0.1,1.16
9.637180089950562,3,3,3,2,-9.789999999999999,2.55,-1.04,1.38,0.1,1.16
9.657180070877075,3,3,3,2,-9.57,2.52,-1.17,0.79,0.01,0.96
9.657180070877075,3,3,3,2,-9.57,2.52,-1.17,0.79,0.01,0.96
9.677180051803589,3,3,3,2,-9.41,2.52,-1.25,0.36,-0.08,1.02
9.677180051803589,3,3,3,2,-9.41,2.52,-1.25,0.36,-0.08,1.02
9.697180032730103,3,3,3,2,-9.24,2.55,-1.16,-0.17,0.06,1.07
9.697180032730103,3,3,3,2,-9.24,2.55,-1.16,-0.17,0.06,1.07
9.717180013656616,3,3,3,2,-9.27,2.36,-1.28,-0.47,0.28,1
9.717180013656616,3,3,3,2,-9.27,2.36,-1.28,-0.47,0.28,1
9.73717999458313,3,3,3,2,-9.99,2.37,-1.16,-0.4,0.46,-0.09
9.73717999458313,3,3,3,2,-9.99,2.37,-1.16,-0.4,0.46,-0.09
9.757179975509644,3,3,3,3,-10.05,1.92,-1.05,-0.03,-0.17,-1.34
9.757179975509644,3,3,3,3,-10.05,1.92,-1.05,-0.03,-0.17,-1.34
9.777179956436157,3,3,3,3,-9.33,1.39,-1.44,0.32,0.54,-1.85
9.777179956436157,3,3,3,3,-9.33,1.39,-1.44,0.32,0.54,-1.85
9.797179937362671,3,3,3,3,-8.92,2,-0.54,0.58,0.95,-1.05
9.797179937362671,3,3,3,3,-8.92,2,-0.54,0.58,0.95,-1.05
9.817179918289185,3,3,3,3,-9.24,2.34,-1.02,0.19,1.38,-0.7
9.817179918289185,3,3,3,3,-9.24,2.34,-1.02,0.19,1.38,-0.7
9.837180137634277,3,3,3,3,-9.27,2.27,-1.36,0.08,1.19,-0.5
9.837180137634277,3,3,3,3,-9.27,2.27,-1.36,0.08,1.19,-0.5
9.857180118560791,3,3,3,3,-9.76,2.21,-1.19,0.03,1,-1.36
9.857180118560791,3,3,3,3,-9.76,2.21,-1.19,0.03,1,-1.36
9.877180099487305,3,3,3,3,-9.720000000000001,2.06,-0.99,0.11,0.92,-1.79
9.877180099487305,3,3,3,3,-9.720000000000001,2.06,-0.99,0.11,0.92,-1.79
9.897180080413818,3,3,3,3,-9.42,1.81,-1.29,-0.66,0.58,-1.55
9.897180080413818,3,3,3,3,-9.42,1.81,-1.29,-0.66,0.58,-1.55
9.917180061340332,3,3,3,3,-9.41,1.13,-1.21,-0.95,-0.25,-1.33
9.917180061340332,3,3,3,3,-9.41,1.13,-1.21,-0.95,-0.25,-1.33
9.937180042266846,3,3,3,3,-9.890000000000001,0.39,-0.91,0.42,0.74,-2.86
9.937180042266846,3,3,3,3,-9.890000000000001,0.39,-0.91,0.42,0.74,-2.86
9.957180023193359,3,3,3,3,-9.44,0.25,0.06,0.35,1.01,-4.17
9.957180023193359,3,3,3,3,-9.44,0.25,0.06,0.35,1.01,-4.17
9.977180004119873,3,3,3,3,-9.51,0.7,-0.38,-0.23,1.39,-4.32
9.977180004119873,3,3,3,3,-9.51,0.7,-0.38,-0.23,1.39,-4.32
9.997179985046387,3,3,3,3,-10.06,0.75,-0.73,-1.73,0.13,-4.27
9.997179985046387,3,3,3,3,-10.06,0.75,-0.73,-1.73,0.13,-4.27
10.0171799659729,3,3,3,3,-9.76,1.35,-0.9399999999999999,-2.81,0.31,-4.65
10.0171799659729,3,3,3,3,-9.76,1.35,-0.9399999999999999,-2.81,0.31,-4.65
10.03717994689941,3,3,3,3,-9.300000000000001,0.95,-1.13,-2.37,-0.37,-4.84
10.03717994689941,3,3,3,3,-9.300000000000001,0.95,-1.13,-2.37,-0.37,-4.84
10.05717992782593,3,3,3,3,-9.07,0.26,-0.63,-2.5,-1.46,-5.19
10.05717992782593,3,3,3,3,-9.07,0.26,-0.63,-2.5,-1.46,-5.19
10.07717990875244,3,3,3,3,-8.960000000000001,-1.83,0.49,-2.92,-1.71,-6.18
10.07717990875244,3,3,3,3,-8.960000000000001,-1.83,0.49,-2.92,-1.71,-6.18
10.09718012809753,3,3,3,3,-9.09,-2.98,0.68,-2.58,-2.43,-8.25
10.09718012809753,3,3,3,3,-9.09,-2.98,0.68,-2.58,-2.43,-8.25
10.11718010902405,3,3,3,3,-8.98,-2.37,0.06,-1.28,-2.52,-9.130000000000001
10.11718010902405,3,3,3,3,-8.98,-2.37,0.06,-1.28,-2.52,-9.130000000000001
10.13718008995056,3,3,3,3,-9.210000000000001,-1.02,-0.18,0.73,-2.88,-9.130000000000001
10.13718008995056,3,3,3,3,-9.210000000000001,-1.02,-0.18,0.73,-2.88,-9.130000000000001
10.15718007087708,3,3,3,3,-8.42,0.17,-0.13,0.64,-3.04,-9.19
10.15718007087708,3,3,3,3,-8.42,0.17,-0.13,0.64,-3.04,-9.19
10.17718005180359,3,3,3,3,-8.49,0.33,-0.62,0.14,-3.51,-10.7
10.17718005180359,3,3,3,3,-8.49,0.33,-0.62,0.14,-3.51,-10.7
10.1971800327301,3,3,3,3,-9.07,-0.83,0.21,-1.76,-4.53,-12.47
10.1971800327301,3,3,3,3,-9.07,-0.83,0.21,-1.76,-4.53,-12.47
10.21718001365662,3,3,3,3,-8.91,-0.82,-0.5600000000000001,-2.59,-4.46,-13.19
10.21718001365662,3,3,3,3,-8.91,-0.82,-0.5600000000000001,-2.59,-4.46,-13.19
10.23817992210388,3,3,3,3,-7.94,2.16,-0.61,0.93,-3.03,-13.79
10.23817992210388,3,3,3,3,-7.94,2.16,-0.61,0.93,-3.03,-13.79
10.25818014144897,3,3,3,3,-9.82,1.25,-1.49,-1.42,-2.9,-13.48
10.25818014144897,3,3,3,3,-9.82,1.25,-1.49,-1.42,-2.9,-13.48
10.27818012237549,3,3,3,3,-10.44,-1.16,-1.29,-4.18,-2.12,-12.56
10.27818012237549,3,3,3,3,-10.44,-1.16,-1.29,-4.18,-2.12,-12.56
10.298180103302,3,3,3,3,-10.33,-2.3,-0.88,-2.03,-2.46,-13.91
10.298180103302,3,3,3,3,-10.33,-2.3,-0.88,-2.03,-2.46,-13.91
10.31818008422852,3,3,3,3,-10.44,-3.94,-0.59,1.62,-2.87,-15.92
10.31818008422852,3,3,3,3,-10.44,-3.94,-0.59,1.62,-2.87,-15.92
10.33818006515503,3,3,3,3,-10.36,-1.61,-0.72,6.26,-2.48,-16.08
10.33818006515503,3,3,3,3,-10.36,-1.61,-0.72,6.26,-2.48,-16.08
10.35818004608154,3,3,3,3,-9.44,3.25,-0.24,4.38,-3.25,-14.22
10.35818004608154,3,3,3,3,-9.44,3.25,-0.24,4.38,-3.25,-14.22
10.37818002700806,3,3,3,3,-8.73,2.34,-1.5,-1.2,-1.9,-13.58
10.37818002700806,3,3,3,3,-8.73,2.34,-1.5,-1.2,-1.9,-13.58
10.39818000793457,3,3,3,3,-9.09,-4.76,-1.26,-4.17,-1.75,-12.25
10.39818000793457,3,3,3,3,-9.09,-4.76,-1.26,-4.17,-1.75,-12.25
10.41817998886108,3,3,3,3,-10.93,-7.09,-1.38,-2.07,-1.33,-10.38
10.41817998886108,3,3,3,3,-10.93,-7.09,-1.38,-2.07,-1.33,-10.38
10.4381799697876,3,3,3,3,-13.53,-2.84,-1.43,1.18,-0.58,-8.52
10.4381799697876,3,3,3,3,-13.53,-2.84,-1.43,1.18,-0.58,-8.52
10.45817995071411,3,3,3,3,-12.92,1.08,-2.47,0.76,1.1,-6.4
10.45817995071411,3,3,3,3,-12.92,1.08,-2.47,0.76,1.1,-6.4
10.47817993164062,3,3,3,3,-11.45,2.59,-3.77,-0.85,2.08,-3.24
10.47817993164062,3,3,3,3,-11.45,2.59,-3.77,-0.85,2.08,-3.24
10.49817991256714,3,3,3,3,-12.54,-0.04,-3.36,-3.1,2.75,0.64
10.49817991256714,3,3,3,3,-12.54,-0.04,-3.36,-3.1,2.75,0.64
10.51818013191223,3,3,3,3,-14.87,-2.69,-1.6,-2.16,3,4.16
10.51818013191223,3,3,3,3,-14.87,-2.69,-1.6,-2.16,3,4.16
10.53818011283875,3,3,3,3,-16.84,-1.9,-0.92,-1.48,2.31,7.24
10.53818011283875,3,3,3,3,-16.84,-1.9,-0.92,-1.48,2.31,7.24
10.55818009376526,3,3,3,2,-18.48,0.63,0.45,-3.5,1.4,10.41
10.55818009376526,3,3,3,2,-18.48,0.63,0.45,-3.5,1.4,10.41
10.57818007469177,3,3,3,2,-18.44,3.16,1.5,-5.66,-0.64,14.91
10.57818007469177,3,3,3,2,-18.44,3.16,1.5,-5.66,-0.64,14.91
10.59818005561829,3,3,3,2,-19.11,5.26,-1.35,-9.69,-3.23,21.25
10.59818005561829,3,3,3,2,-19.11,5.26,-1.35,-9.69,-3.23,21.25
10.6181800365448,3,3,3,2,-22.84,5.81,-5.99,-13.15,-7.23,27.68
10.6181800365448,3,3,3,2,-22.84,5.81,-5.99,-13.15,-7.23,27.68
10.63818001747131,3,3,3,2,-28.33,5.53,-9.539999999999999,-8.449999999999999,-3.54,28.14
10.63818001747131,3,3,3,2,-28.33,5.53,-9.539999999999999,-8.449999999999999,-3.54,28.14
10.65817999839783,3,3,3,2,-27.56,4.66,-8.52,-0.3,4.19,29.27
10.65817999839783,3,3,3,2,-27.56,4.66,-8.52,-0.3,4.19,29.27
10.67817997932434,3,3,3,2,-24.97,1.01,-3.5,4.25,7.73,30.98
10.67817997932434,3,3,3,2,-24.97,1.01,-3.5,4.25,7.73,30.98
10.69817996025085,3,3,3,2,-14.69,-1.36,0.93,-6.05,10.93,29.13
10.69817996025085,3,3,3,2,-14.69,-1.36,0.93,-6.05,10.93,29.13
10.71817994117737,3,3,3,2,-1.03,-21.08,1.9,-15.91,3.76,23.6
10.71817994117737,3,3,3,2,-1.03,-21.08,1.9,-15.91,3.76,23.6
10.73817992210388,3,3,3,2,-5.52,-39.08,21.04,8.06,2.82,2.28
10.73817992210388,3,3,3,2,-5.52,-39.08,21.04,8.06,2.82,2.28
10.75818014144897,3,3,3,2,-9.02,-3.85,6.35,29.65,11.57,-2.97
10.75818014144897,3,3,3,2,-9.02,-3.85,6.35,29.65,11.57,-2.97
10.77818012237549,3,3,3,2,-4.55,8.81,2.22,-9.199999999999999,1.25,-9.119999999999999
10.77818012237549,3,3,3,2,-4.55,8.81,2.22,-9.199999999999999,1.25,-9.119999999999999
10.798180103302,3,3,3,2,2.67,1.47,-7.37,-22.57,-7.2,-16.33
10.798180103302,3,3,3,2,2.67,1.47,-7.37,-22.57,-7.2,-16.33
10.81818008422852,3,3,3,2,3.07,9.85,-5.37,-10.61,-2.87,-12.57
10.81818008422852,3,3,3,2,3.07,9.85,-5.37,-10.61,-2.87,-12.57
10.83818006515503,3,3,3,2,1.7,9.65,-3.11,-3.5,-1.97,-5.75
10.83818006515503,3,3,3,2,1.7,9.65,-3.11,-3.5,-1.97,-5.75
10.85818004608154,3,3,3,2,2.66,2,-2.66,-9.699999999999999,-3.08,-0.63
10.85818004608154,3,3,3,2,2.66,2,-2.66,-9.699999999999999,-3.08,-0.63
10.87818002700806,3,3,3,2,1.15,-1.38,-1.14,-5.82,-4.6,-0.29
10.87818002700806,3,3,3,2,1.15,-1.38,-1.14,-5.82,-4.6,-0.29
10.89818000793457,3,3,3,2,-0.97,-3.84,1.24,0.44,-4.91,-2.91
10.89818000793457,3,3,3,2,-0.97,-3.84,1.24,0.44,-4.91,-2.91
10.91817998886108,3,3,3,2,-1.9,-4.19,1.33,7.37,-3.47,-4.04
10.91817998886108,3,3,3,2,-1.9,-4.19,1.33,7.37,-3.47,-4.04
10.9381799697876,3,3,3,2,-0.29,-3.39,-1.02,15.13,-0.23,-3.82
10.9381799697876,3,3,3,2,-0.29,-3.39,-1.02,15.13,-0.23,-3.82
10.95817995071411,3,3,3,2,0.02,-0.64,-0.95,17.15,1.83,-1.38
10.95817995071411,3,3,3,2,0.02,-0.64,-0.95,17.15,1.83,-1.38
10.97817993164062,3,3,3,2,0.41,2.42,-1.55,16.95,-0.17,1.38
10.97817993164062,3,3,3,2,0.41,2.42,-1.55,16.95,-0.17,1.38
10.99817991256714,3,3,3,2,0.67,2.86,-1.91,12.61,-1.69,1.61
10.99817991256714,3,3,3,2,0.67,2.86,-1.91,12.61,-1.69,1.61
11.01818013191223,3,3,3,2,0.44,1.53,-0.6,9.720000000000001,-2.38,0.78
11.01818013191223,3,3,3,2,0.44,1.53,-0.6,9.720000000000001,-2.38,0.78
11.03818011283875,3,3,3,2,0.06,1.4,0.6,5.47,-2.46,-1.03
11.03818011283875,3,3,3,2,0.06,1.4,0.6,5.47,-2.46,-1.03
11.05818009376526,3,3,3,2,-0.54,0.46,3.21,2.34,-2.2,-1.44
11.05818009376526,3,3,3,2,-0.54,0.46,3.21,2.34,-2.2,-1.44
11.07818007469177,3,3,3,2,-0.11,-2.25,2.62,-0.86,0.75,-0.87
11.07818007469177,3,3,3,2,-0.11,-2.25,2.62,-0.86,0.75,-0.87
11.09818005561829,3,3,3,2,-1.72,-18.66,3.42,-9.94,5.8,-3.03
11.09818005561829,3,3,3,2,-1.72,-18.66,3.42,-9.94,5.8,-3.03
11.1181800365448,3,3,3,2,-12.97,-15.45,8.85,-18.5,3.11,-3
11.1181800365448,3,3,3,2,-12.97,-15.45,8.85,-18.5,3.11,-3
11.13818001747131,3,3,3,2,-38.27,2.16,-1.22,-4.11,-14.32,-5.87
11.13818001747131,3,3,3,2,-38.27,2.16,-1.22,-4.11,-14.32,-5.87
11.15817999839783,3,3,3,2,-31.75,-11.67,-8.07,-11.95,7.19,-17.59
11.15817999839783,3,3,3,2,-31.75,-11.67,-8.07,-11.95,7.19,-17.59
11.17817997932434,3,3,3,2,-39.26,-32.14,1.08,-9.869999999999999,-4.64,-24.95
11.17817997932434,3,3,3,2,-39.26,-32.14,1.08,-9.869999999999999,-4.64,-24.95
11.19817996025085,3,3,3,2,-25.77,16.42,-2.35,22.1,-3.24,-14.76
11.19817996025085,3,3,3,2,-25.77,16.42,-2.35,22.1,-3.24,-14.76
11.21817994117737,3,3,3,2,-12.7,36.53,-5.12,4.05,7.46,-10.65
11.21817994117737,3,3,3,2,-12.7,36.53,-5.12,4.05,7.46,-10.65
11.23817992210388,3,3,3,2,-13.65,3.43,-6.81,-25.62,-3.69,-1.68
11.23817992210388,3,3,3,2,-13.65,3.43,-6.81,-25.62,-3.69,-1.68
11.25918006896973,3,3,3,2,-23.79,-7.01,-3.84,-2.81,-2.76,5.37
11.25918006896973,3,3,3,2,-23.79,-7.01,-3.84,-2.81,-2.76,5.37
11.27918004989624,3,3,3,2,-21.41,2.66,-3.06,17.34,-0.08,5.27
11.27918004989624,3,3,3,2,-21.41,2.66,-3.06,17.34,-0.08,5.27
11.29918003082275,3,3,3,2,-10.88,4.6,-2.26,15.7,2.39,5.75
11.29918003082275,3,3,3,2,-10.88,4.6,-2.26,15.7,2.39,5.75
11.31918001174927,3,3,3,2,-12.21,4.23,-2.01,11.77,2.54,10.21
11.31918001174927,3,3,3,2,-12.21,4.23,-2.01,11.77,2.54,10.21
11.33917999267578,3,3,3,2,-10.74,2.44,-0.84,11.11,3.08,12.85
11.33917999267578,3,3,3,2,-10.74,2.44,-0.84,11.11,3.08,12.85
11.35917997360229,3,3,3,2,-8.52,4.39,-0.72,8.42,4.03,12.23
11.35917997360229,3,3,3,2,-8.52,4.39,-0.72,8.42,4.03,12.23
11.37917995452881,3,3,3,2,-7.98,3.94,-1.1,3.27,5.83,9.869999999999999
11.37917995452881,3,3,3,2,-7.98,3.94,-1.1,3.27,5.83,9.869999999999999
11.39917993545532,3,3,3,2,-7.08,0.89,-0.64,-1.8,7.08,8.56
11.39917993545532,3,3,3,2,-7.08,0.89,-0.64,-1.8,7.08,8.56
11.41917991638184,3,3,3,2,-6.76,-1.24,-0.02,-5.19,5.87,8.199999999999999
11.41917991638184,3,3,3,2,-6.76,-1.24,-0.02,-5.19,5.87,8.199999999999999
11.43918013572693,3,3,3,2,-7.51,-3.03,1.16,-6.17,4.64,7.44
11.43918013572693,3,3,3,2,-7.51,-3.03,1.16,-6.17,4.64,7.44
11.45918011665344,3,3,3,2,-8.390000000000001,-3.56,1.72,-3.45,3.5,5.84
11.45918011665344,3,3,3,2,-8.390000000000001,-3.56,1.72,-3.45,3.5,5.84
11.47918009757996,3,3,3,2,-9.380000000000001,-3.09,1.52,-1.35,2.98,4.69
11.47918009757996,3,3,3,2,-9.380000000000001,-3.09,1.52,-1.35,2.98,4.69
11.49918007850647,3,3,3,2,-9.699999999999999,-3.3,0.77,-0.59,2.67,3.8
11.49918007850647,3,3,3,2,-9.699999999999999,-3.3,0.77,-0.59,2.67,3.8
11.51918005943298,3,3,3,2,-9.949999999999999,-2.84,-1.04,0.5600000000000001,1.98,2.7
11.51918005943298,3,3,3,2,-9.949999999999999,-2.84,-1.04,0.5600000000000001,1.98,2.7
11.5391800403595,3,3,3,2,-9.390000000000001,-1.69,-2.05,1.74,2.04,2.33
11.5391800403595,3,3,3,2,-9.390000000000001,-1.69,-2.05,1.74,2.04,2.33
11.55918002128601,3,3,3,2,-8.93,-0.77,-3.25,3.63,1.77,2.96
11.55918002128601,3,3,3,2,-8.93,-0.77,-3.25,3.63,1.77,2.96
11.57918000221252,3,3,3,2,-9.279999999999999,0.5600000000000001,-2.68,5.24,1.34,3.63
11.57918000221252,3,3,3,2,-9.279999999999999,0.5600000000000001,-2.68,5.24,1.34,3.63
11.59917998313904,3,3,3,2,-9.85,1.41,-1.15,4.84,0.71,4.77
11.59917998313904,3,3,3,2,-9.85,1.41,-1.15,4.84,0.71,4.77
11.61917996406555,3,3,3,2,-10.15,2.07,-0.66,3.04,0.8100000000000001,5.35
11.61917996406555,3,3,3,2,-10.15,2.07,-0.66,3.04,0.8100000000000001,5.35
11.63917994499207,3,3,3,2,-9.77,1.24,-0.25,1.75,1.05,5.44
11.63917994499207,3,3,3,2,-9.77,1.24,-0.25,1.75,1.05,5.44
11.65917992591858,3,3,3,2,-9.35,0.29,-0.21,0.45,0.88,4.85
11.65917992591858,3,3,3,2,-9.35,0.29,-0.21,0.45,0.88,4.85
11.67918014526367,3,3,3,2,-9.09,-0.11,-0.95,-0.06,0.98,4.15
11.67918014526367,3,3,3,2,-9.09,-0.11,-0.95,-0.06,0.98,4.15
11.69918012619019,3,3,3,2,-9.42,-0.47,-1.46,0.09,0.7,3.39
11.69918012619019,3,3,3,2,-9.42,-0.47,-1.46,0.09,0.7,3.39
11.7191801071167,3,3,3,2,-9.6,-0.85,-1.44,1.55,0.74,2.99
11.7191801071167,3,3,3,2,-9.6,-0.85,-1.44,1.55,0.74,2.99
11.73918008804321,3,3,3,2,-9.710000000000001,-0.37,-1.17,2.96,0.31,2.75
11.73918008804321,3,3,3,2,-9.710000000000001,-0.37,-1.17,2.96,0.31,2.75
11.75918006896973,3,3,3,2,-9.890000000000001,0.6,-1.04,3,-0.06,2.25
11.75918006896973,3,3,3,2,-9.890000000000001,0.6,-1.04,3,-0.06,2.25
11.77918004989624,3,3,3,2,-9.859999999999999,0.42,-0.95,1.96,0.21,1.71
11.77918004989624,3,3,3,2,-9.859999999999999,0.42,-0.95,1.96,0.21,1.71
11.79918003082275,3,3,3,2,-9.94,0.5600000000000001,-1.05,0.5600000000000001,0.12,1
11.79918003082275,3,3,3,2,-9.94,0.5600000000000001,-1.05,0.5600000000000001,0.12,1
11.81918001174927,3,3,3,2,-9.960000000000001,0.93,-1.3,-0.98,-0.15,0.27
11.81918001174927,3,3,3,2,-9.960000000000001,0.93,-1.3,-0.98,-0.15,0.27
11.83917999267578,3,3,3,2,-9.49,1.07,-1.53,-1.73,-0.08,-0.24
11.83917999267578,3,3,3,2,-9.49,1.07,-1.53,-1.73,-0.08,-0.24
11.85917997360229,3,3,3,2,-9.279999999999999,1.94,-1.71,-1.41,0.07000000000000001,0.02
11.85917997360229,3,3,3,2,-9.279999999999999,1.94,-1.71,-1.41,0.07000000000000001,0.02
11.87917995452881,3,3,3,2,-9.359999999999999,1.66,-1.86,-1.22,-0.07000000000000001,0.65
11.87917995452881,3,3,3,2,-9.359999999999999,1.66,-1.86,-1.22,-0.07000000000000001,0.65
11.89917993545532,3,3,3,2,-9.460000000000001,1.46,-1.79,-0.44,-0.26,1.15
11.89917993545532,3,3,3,2,-9.460000000000001,1.46,-1.79,-0.44,-0.26,1.15
11.91917991638184,3,3,3,2,-9.57,1.25,-1.71,0.6899999999999999,-0.32,1.46
11.91917991638184,3,3,3,2,-9.57,1.25,-1.71,0.6899999999999999,-0.32,1.46
11.93918013572693,3,3,3,2,-9.56,1.35,-1.54,1.64,-0.29,1.59
11.93918013572693,3,3,3,2,-9.56,1.35,-1.54,1.64,-0.29,1.59
11.95918011665344,3,3,3,2,-9.699999999999999,1.42,-1.31,2.06,-0.53,1.88
11.95918011665344,3,3,3,2,-9.699999999999999,1.42,-1.31,2.06,-0.53,1.88
11.97918009757996,3,3,3,2,-9.75,1.48,-1.47,2.15,-0.63,2.02
11.97918009757996,3,3,3,2,-9.75,1.48,-1.47,2.15,-0.63,2.02
11.99918007850647,3,3,3,3,-9.539999999999999,1.45,-1.63,1.64,-0.68,1.78
11.99918007850647,3,3,3,3,-9.539999999999999,1.45,-1.63,1.64,-0.68,1.78
12.01918005943298,3,3,3,3,-9.5,1.84,-1.64,0.87,-0.52,1.47
12.01918005943298,3,3,3,3,-9.5,1.84,-1.64,0.87,-0.52,1.47
12.0391800403595,3,3,3,3,-9.720000000000001,2.06,-1.57,-0.47,-0.83,1.3
12.0391800403595,3,3,3,3,-9.720000000000001,2.06,-1.57,-0.47,-0.83,1.3
12.05918002128601,3,3,3,3,-9.48,1.92,-1.63,-1.39,-1.05,0.97
12.05918002128601,3,3,3,3,-9.48,1.92,-1.63,-1.39,-1.05,0.97
12.07918000221252,3,3,3,3,-9.31,1.67,-1.74,-1.24,-1.19,0.79
12.07918000221252,3,3,3,3,-9.31,1.67,-1.74,-1.24,-1.19,0.79
12.09917998313904,3,3,3,3,-9.23,1.69,-1.54,-0.39,-1.07,0.85
12.09917998313904,3,3,3,3,-9.23,1.69,-1.54,-0.39,-1.07,0.85
12.11917996406555,3,3,3,3,-9.369999999999999,1.86,-1.68,0.9399999999999999,-0.99,1.32
12.11917996406555,3,3,3,3,-9.369999999999999,1.86,-1.68,0.9399999999999999,-0.99,1.32
12.13917994499207,3,3,3,3,-9.51,1.77,-1.62,1.19,-1,1.36
12.13917994499207,3,3,3,3,-9.51,1.77,-1.62,1.19,-1,1.36
12.15917992591858,3,3,3,3,-9.41,1.83,-1.63,1.27,-0.37,1.07
12.15917992591858,3,3,3,3,-9.41,1.83,-1.63,1.27,-0.37,1.07
12.17918014526367,3,3,3,3,-9.449999999999999,2.05,-1.62,1.09,-0.37,0.98
12.17918014526367,3,3,3,3,-9.449999999999999,2.05,-1.62,1.09,-0.37,0.98
12.19918012619019,3,3,3,3,-9.59,2.19,-1.54,0.8,-0.5,1.01
12.19918012619019,3,3,3,3,-9.59,2.19,-1.54,0.8,-0.5,1.01
12.2191801071167,3,3,3,3,-9.56,2.04,-1.54,0.15,-0.6899999999999999,0.8100000000000001
12.2191801071167,3,3,3,3,-9.56,2.04,-1.54,0.15,-0.6899999999999999,0.8100000000000001
12.23918008804321,3,3,3,3,-9.369999999999999,1.79,-1.58,-0.17,-0.61,0.54
12.23918008804321,3,3,3,3,-9.369999999999999,1.79,-1.58,-0.17,-0.61,0.54
12.25918006896973,3,3,3,3,-9.41,1.91,-1.3,-0.05,-0.01,0.18
12.25918006896973,3,3,3,3,-9.41,1.91,-1.3,-0.05,-0.01,0.18
12.27918004989624,3,3,3,3,-9.470000000000001,2.02,-1.51,-0.01,-0.16,0.21
12.27918004989624,3,3,3,3,-9.470000000000001,2.02,-1.51,-0.01,-0.16,0.21
12.30017995834351,3,3,3,3,-9.48,2.08,-1.46,0.07000000000000001,-0.24,0.27
12.30017995834351,3,3,3,3,-9.48,2.08,-1.46,0.07000000000000001,-0.24,0.27
12.32017993927002,3,3,3,3,-9.43,1.95,-1.56,0.54,-0.37,0.33
12.32017993927002,3,3,3,3,-9.43,1.95,-1.56,0.54,-0.37,0.33
12.34017992019653,3,3,3,3,-9.48,2.04,-1.54,0.5,-0.29,0.21
12.34017992019653,3,3,3,3,-9.48,2.04,-1.54,0.5,-0.29,0.21
12.36018013954163,3,3,3,3,-9.41,2.07,-1.42,0.48,0.03,0.05
12.36018013954163,3,3,3,3,-9.41,2.07,-1.42,0.48,0.03,0.05
12.38018012046814,3,3,3,3,-9.41,2.31,-1.28,-0.35,0.43,-0.12
12.38018012046814,3,3,3,3,-9.41,2.31,-1.28,-0.35,0.43,-0.12
12.40018010139465,3,3,3,3,-9.460000000000001,2.23,-1.37,-0.49,0.3,-0.06
12.40018010139465,3,3,3,3,-9.460000000000001,2.23,-1.37,-0.49,0.3,-0.06
12.42018008232117,3,3,3,3,-9.539999999999999,1.84,-1.47,-0.23,-0.03,-0.02
12.42018008232117,3,3,3,3,-9.539999999999999,1.84,-1.47,-0.23,-0.03,-0.02
12.44018006324768,3,3,3,3,-9.619999999999999,1.67,-1.33,-0.05,-0.09,0.03
12.44018006324768,3,3,3,3,-9.619999999999999,1.67,-1.33,-0.05,-0.09,0.03
12.46018004417419,3,3,3,3,-9.52,1.83,-1.35,0.14,0,-0.14
12.46018004417419,3,3,3,3,-9.52,1.83,-1.35,0.14,0,-0.14
12.48018002510071,3,3,3,3,-9.58,1.99,-1.34,-0.05,-0.03,-0.09
12.48018002510071,3,3,3,3,-9.58,1.99,-1.34,-0.05,-0.03,-0.09
12.50018000602722,3,3,3,3,-9.41,2.02,-1.52,-0.37,0.23,-0.17
12.50018000602722,3,3,3,3,-9.41,2.02,-1.52,-0.37,0.23,-0.17
12.52017998695374,3,3,3,3,-9.51,2.09,-1.46,-0.35,0.26,-0.11
12.52017998695374,3,3,3,3,-9.51,2.09,-1.46,-0.35,0.26,-0.11
12.54017996788025,3,3,3,3,-9.49,1.95,-1.42,-0.37,0.15,-0.05
12.54017996788025,3,3,3,3,-9.49,1.95,-1.42,-0.37,0.15,-0.05
12.56017994880676,3,3,3,3,-9.390000000000001,1.75,-1.37,-0.11,-0.05,-0.03
12.56017994880676,3,3,3,3,-9.390000000000001,1.75,-1.37,-0.11,-0.05,-0.03
12.58017992973328,3,3,3,3,-9.539999999999999,1.8,-1.45,0.13,0.12,-0.07000000000000001
12.58017992973328,3,3,3,3,-9.539999999999999,1.8,-1.45,0.13,0.12,-0.07000000000000001
12.60017991065979,3,3,3,3,-9.6,2.01,-1.37,-0.06,0.01,-0.01
12.60017991065979,3,3,3,3,-9.6,2.01,-1.37,-0.06,0.01,-0.01
12.62018013000488,3,3,3,3,-9.390000000000001,1.91,-1.57,-0.24,0.11,-0.05
12.62018013000488,3,3,3,3,-9.390000000000001,1.91,-1.57,-0.24,0.11,-0.05
12.6401801109314,3,3,3,3,-9.44,1.89,-1.54,-0.21,0.18,-0.16
12.6401801109314,3,3,3,3,-9.44,1.89,-1.54,-0.21,0.18,-0.16
12.66018009185791,3,3,3,3,-9.49,1.93,-1.38,-0.31,0.17,-0.18
12.66018009185791,3,3,3,3,-9.49,1.93,-1.38,-0.31,0.17,-0.18
12.68018007278442,3,3,3,3,-9.48,1.73,-1.43,-0.34,0.1,-0.15
12.68018007278442,3,3,3,3,-9.48,1.73,-1.43,-0.34,0.1,-0.15
12.70018005371094,3,3,3,3,-9.51,1.69,-1.37,-0.22,0.06,-0.07000000000000001
12.70018005371094,3,3,3,3,-9.51,1.69,-1.37,-0.22,0.06,-0.07000000000000001
12.72018003463745,3,3,3,3,-9.52,1.68,-1.62,-0.04,-0.11,0.02
12.72018003463745,3,3,3,3,-9.52,1.68,-1.62,-0.04,-0.11,0.02
12.74018001556396,3,3,3,3,-9.52,1.82,-1.52,0.01,-0.01,-0.1
12.74018001556396,3,3,3,3,-9.52,1.82,-1.52,0.01,-0.01,-0.1
12.76017999649048,3,3,3,3,-9.359999999999999,1.94,-1.55,0.07000000000000001,0.16,-0.15
12.76017999649048,3,3,3,3,-9.359999999999999,1.94,-1.55,0.07000000000000001,0.16,-0.15
12.78017997741699,3,3,3,3,-9.41,2,-1.52,-0.14,0.04,0.02
12.78017997741699,3,3,3,3,-9.41,2,-1.52,-0.14,0.04,0.02
12.80017995834351,3,3,3,3,-9.52,1.79,-1.51,-0.03,0.07000000000000001,0.03
12.80017995834351,3,3,3,3,-9.52,1.79,-1.51,-0.03,0.07000000000000001,0.03
12.82017993927002,3,3,3,3,-9.52,1.68,-1.53,0.1,0.09,0.01
12.82017993927002,3,3,3,3,-9.52,1.68,-1.53,0.1,0.09,0.01
12.84017992019653,3,3,3,3,-9.470000000000001,1.54,-1.48,0.3,0.11,0.02
12.84017992019653,3,3,3,3,-9.470000000000001,1.54,-1.48,0.3,0.11,0.02
12.86018013954163,3,3,3,3,-9.52,1.71,-1.37,0.53,0.08,0.08
12.86018013954163,3,3,3,3,-9.52,1.71,-1.37,0.53,0.08,0.08
12.88018012046814,3,3,3,3,-9.57,1.85,-1.43,0.47,-0.16,0.27
12.88018012046814,3,3,3,3,-9.57,1.85,-1.43,0.47,-0.16,0.27
12.90018010139465,3,3,3,3,-9.58,1.78,-1.58,0.33,-0.09,0.14
12.90018010139465,3,3,3,3,-9.58,1.78,-1.58,0.33,-0.09,0.14
12.92018008232117,3,3,3,3,-9.43,1.75,-1.54,0.15,0.04,0.04
12.92018008232117,3,3,3,3,-9.43,1.75,-1.54,0.15,0.04,0.04
12.94018006324768,3,3,3,3,-9.48,1.77,-1.45,0.03,0.01,0.1
12.94018006324768,3,3,3,3,-9.48,1.77,-1.45,0.03,0.01,0.1
12.96018004417419,3,3,3,3,-9.529999999999999,1.75,-1.51,0.1,-0.01,0.2
12.96018004417419,3,3,3,3,-9.529999999999999,1.75,-1.51,0.1,-0.01,0.2
12.98018002510071,3,3,3,3,-9.52,1.74,-1.58,0.43,0.21,0.05
12.98018002510071,3,3,3,3,-9.52,1.74,-1.58,0.43,0.21,0.05
13.00018000602722,3,3,3,3,-9.449999999999999,1.75,-1.5,0.41,0.2,0.08
13.00018000602722,3,3,3,3,-9.449999999999999,1.75,-1.5,0.41,0.2,0.08
13.02017998695374,3,3,3,3,-9.460000000000001,1.82,-1.65,0.46,-0.15,0.25
13.02017998695374,3,3,3,3,-9.460000000000001,1.82,-1.65,0.46,-0.15,0.25
13.04017996788025,3,3,3,3,-9.470000000000001,1.87,-1.49,0.48,-0.2,0.25
13.04017996788025,3,3,3,3,-9.470000000000001,1.87,-1.49,0.48,-0.2,0.25
13.06017994880676,3,3,3,3,-9.51,1.86,-1.4,0.33,-0.11,0.19
13.06017994880676,3,3,3,3,-9.51,1.86,-1.4,0.33,-0.11,0.19
13.08017992973328,3,3,3,3,-9.52,1.93,-1.49,0.24,-0.09,0.23
13.08017992973328,3,3,3,3,-9.52,1.93,-1.49,0.24,-0.09,0.23
13.10017991065979,3,3,3,3,-9.449999999999999,1.88,-1.44,0.15,-0.01,0.06
13.10017991065979,3,3,3,3,-9.449999999999999,1.88,-1.44,0.15,-0.01,0.06
13.12018013000488,3,3,3,3,-9.470000000000001,1.98,-1.5,0.08,-0.02,-0.04
13.12018013000488,3,3,3,3,-9.470000000000001,1.98,-1.5,0.08,-0.02,-0.04
13.1401801109314,3,3,3,3,-9.42,2.04,-1.55,0.06,0.02,-0.02
13.1401801109314,3,3,3,3,-9.42,2.04,-1.55,0.06,0.02,-0.02
13.16018009185791,3,3,3,3,-9.42,2.09,-1.49,0.12,0.08,0.02
13.16018009185791,3,3,3,3,-9.42,2.09,-1.49,0.12,0.08,0.02
13.18018007278442,3,3,3,3,-9.390000000000001,2.07,-1.63,0.1,0.09,0.01
13.18018007278442,3,3,3,3,-9.390000000000001,2.07,-1.63,0.1,0.09,0.01
13.20018005371094,3,3,3,3,-9.48,1.94,-1.5,0.03,-0.04,0
13.20018005371094,3,3,3,3,-9.48,1.94,-1.5,0.03,-0.04,0
13.22018003463745,3,3,3,3,-9.49,1.91,-1.61,0.05,0.11,-0.03
13.22018003463745,3,3,3,3,-9.49,1.91,-1.61,0.05,0.11,-0.03
13.24018001556396,3,3,3,3,-9.5,1.97,-1.51,0.11,0.14,-0.01
13.24018001556396,3,3,3,3,-9.5,1.97,-1.51,0.11,0.14,-0.01
13.26017999649048,3,3,3,3,-9.48,1.97,-1.42,-0.23,0.09,0.01
13.26017999649048,3,3,3,3,-9.48,1.97,-1.42,-0.23,0.09,0.01
13.28017997741699,3,3,3,3,-9.5,1.78,-1.57,-0.28,0.05,-0.15
13.28017997741699,3,3,3,3,-9.5,1.78,-1.57,-0.28,0.05,-0.15
13.30017995834351,3,3,3,3,-9.44,1.78,-1.45,-0.24,0.19,-0.22
13.30017995834351,3,3,3,3,-9.44,1.78,-1.45,-0.24,0.19,-0.22
13.32118010520935,3,3,3,3,-9.5,1.8,-1.62,-0.09,0.4,-0.16
13.32118010520935,3,3,3,3,-9.5,1.8,-1.62,-0.09,0.4,-0.16
13.34118008613586,3,3,3,3,-9.51,1.85,-1.45,-0.01,0.32,-0.16
13.34118008613586,3,3,3,3,-9.51,1.85,-1.45,-0.01,0.32,-0.16
13.36118006706238,3,3,3,3,-9.48,1.68,-1.57,0.02,0.05,-0.15
13.36118006706238,3,3,3,3,-9.48,1.68,-1.57,0.02,0.05,-0.15
13.38118004798889,3,3,3,3,-9.5,1.8,-1.58,0.24,0.26,-0.13
13.38118004798889,3,3,3,3,-9.5,1.8,-1.58,0.24,0.26,-0.13
13.40118002891541,3,3,3,3,-9.470000000000001,1.81,-1.51,0.33,0.37,-0.14
13.40118002891541,3,3,3,3,-9.470000000000001,1.81,-1.51,0.33,0.37,-0.14
13.42118000984192,3,3,3,3,-9.460000000000001,1.89,-1.59,-0.14,0.62,-0.32
13.42118000984192,3,3,3,3,-9.460000000000001,1.89,-1.59,-0.14,0.62,-0.32
13.44117999076843,3,3,3,3,-9.470000000000001,1.82,-1.57,-0.2,0.65,-0.34
13.44117999076843,3,3,3,3,-9.470000000000001,1.82,-1.57,-0.2,0.65,-0.34
13.46117997169495,3,3,3,3,-9.43,1.72,-1.64,0.03,0.91,-0.48
13.46117997169495,3,3,3,3,-9.43,1.72,-1.64,0.03,0.91,-0.48
13.48117995262146,3,3,3,3,-9.460000000000001,1.87,-1.56,0.03,1.14,-0.46
13.48117995262146,3,3,3,3,-9.460000000000001,1.87,-1.56,0.03,1.14,-0.46
13.50117993354797,3,3,3,3,-9.470000000000001,1.86,-1.71,0,0.9399999999999999,-0.46
13.50117993354797,3,3,3,3,-9.470000000000001,1.86,-1.71,0,0.9399999999999999,-0.46
13.52117991447449,3,3,3,3,-9.42,1.94,-1.71,0.38,0.47,-0.2
13.52117991447449,3,3,3,3,-9.42,1.94,-1.71,0.38,0.47,-0.2
13.54118013381958,3,3,3,3,-9.470000000000001,1.83,-1.72,0.43,0.4,-0.14
13.54118013381958,3,3,3,3,-9.470000000000001,1.83,-1.72,0.43,0.4,-0.14
13.56118011474609,3,3,3,3,-9.380000000000001,1.74,-1.61,0.41,0.53,-0.16
13.56118011474609,3,3,3,3,-9.380000000000001,1.74,-1.61,0.41,0.53,-0.16
13.58118009567261,3,3,3,3,-9.49,1.69,-1.63,0.37,0.57,-0.27
13.58118009567261,3,3,3,3,-9.49,1.69,-1.63,0.37,0.57,-0.27
13.60118007659912,3,3,3,3,-9.56,1.68,-1.51,0.37,0.57,-0.31
13.60118007659912,3,3,3,3,-9.56,1.68,-1.51,0.37,0.57,-0.31
13.62118005752563,3,3,3,3,-9.52,1.66,-1.67,0.04,0.43,-0.37
13.62118005752563,3,3,3,3,-9.52,1.66,-1.67,0.04,0.43,-0.37
13.64118003845215,3,3,3,3,-9.539999999999999,1.78,-1.57,-0.07000000000000001,0.42,-0.4
13.64118003845215,3,3,3,3,-9.539999999999999,1.78,-1.57,-0.07000000000000001,0.42,-0.4
13.66118001937866,3,3,3,3,-9.43,1.73,-1.79,-0.1,0.22,-0.37
13.66118001937866,3,3,3,3,-9.43,1.73,-1.79,-0.1,0.22,-0.37
13.68118000030518,3,3,3,3,-9.41,1.61,-1.71,0.01,0.2,-0.37
13.68118000030518,3,3,3,3,-9.41,1.61,-1.71,0.01,0.2,-0.37
13.70117998123169,3,3,3,3,-9.52,1.69,-1.68,-0.11,0.17,-0.31
13.70117998123169,3,3,3,3,-9.52,1.69,-1.68,-0.11,0.17,-0.31
13.7211799621582,3,3,3,3,-9.529999999999999,1.74,-1.84,-0.01,0.03,-0.27
13.7211799621582,3,3,3,3,-9.529999999999999,1.74,-1.84,-0.01,0.03,-0.27
13.74117994308472,3,3,3,3,-9.449999999999999,1.69,-1.65,0.14,0.13,-0.23
13.74117994308472,3,3,3,3,-9.449999999999999,1.69,-1.65,0.14,0.13,-0.23
13.76117992401123,3,3,3,3,-9.44,1.7,-1.7,0.21,0.08,-0.21
13.76117992401123,3,3,3,3,-9.44,1.7,-1.7,0.21,0.08,-0.21
13.78118014335632,3,3,3,3,-9.5,1.64,-1.72,0.2,0.03,-0.18
13.78118014335632,3,3,3,3,-9.5,1.64,-1.72,0.2,0.03,-0.18
13.80118012428284,3,3,3,3,-9.48,1.59,-1.6,0.16,0.11,-0.23
13.80118012428284,3,3,3,3,-9.48,1.59,-1.6,0.16,0.11,-0.23
13.82118010520935,3,3,3,3,-9.470000000000001,1.54,-1.73,0.24,0.11,-0.33
13.82118010520935,3,3,3,3,-9.470000000000001,1.54,-1.73,0.24,0.11,-0.33
13.84118008613586,3,3,3,3,-9.529999999999999,1.62,-1.64,0.34,0.12,-0.34
13.84118008613586,3,3,3,3,-9.529999999999999,1.62,-1.64,0.34,0.12,-0.34
13.86118006706238,3,3,3,3,-9.460000000000001,1.68,-1.75,0.01,0.03,-0.27
13.86118006706238,3,3,3,3,-9.460000000000001,1.68,-1.75,0.01,0.03,-0.27
13.88118004798889,3,3,3,3,-9.470000000000001,1.51,-1.63,-0.11,0,-0.29
13.88118004798889,3,3,3,3,-9.470000000000001,1.51,-1.63,-0.11,0,-0.29
13.90118002891541,3,3,3,3,-9.5,1.51,-1.62,-0.04,0.01,-0.27
13.90118002891541,3,3,3,3,-9.5,1.51,-1.62,-0.04,0.01,-0.27
13.92118000984192,3,3,3,3,-9.58,1.64,-1.79,-0.09,-0.01,-0.2
13.92118000984192,3,3,3,3,-9.58,1.64,-1.79,-0.09,-0.01,-0.2
13.94117999076843,3,3,3,3,-9.56,1.65,-1.7,-0.06,0.1,-0.13
13.94117999076843,3,3,3,3,-9.56,1.65,-1.7,-0.06,0.1,-0.13
13.96117997169495,3,3,3,3,-9.41,1.65,-1.8,-0.03,-0.06,-0.03
13.96117997169495,3,3,3,3,-9.41,1.65,-1.8,-0.03,-0.06,-0.03
13.98117995262146,3,3,3,3,-9.48,1.63,-1.7,0.02,-0.05,0
13.98117995262146,3,3,3,3,-9.48,1.63,-1.7,0.02,-0.05,0
14.00117993354797,3,3,3,3,-9.5,1.56,-1.68,-0.01,0.02,-0.05
14.00117993354797,3,3,3,3,-9.5,1.56,-1.68,-0.01,0.02,-0.05
14.02117991447449,3,3,3,3,-9.51,1.68,-1.76,0.05,0.13,-0.05
14.02117991447449,3,3,3,3,-9.51,1.68,-1.76,0.05,0.13,-0.05
14.04118013381958,3,3,3,3,-9.460000000000001,1.63,-1.7,0.15,0.13,-0.02
14.04118013381958,3,3,3,3,-9.460000000000001,1.63,-1.7,0.15,0.13,-0.02
14.06118011474609,3,3,3,3,-9.449999999999999,1.59,-1.84,0.09,0.01,0.06
14.06118011474609,3,3,3,3,-9.449999999999999,1.59,-1.84,0.09,0.01,0.06
14.08118009567261,3,3,3,3,-9.539999999999999,1.59,-1.69,-0.02,-0.1,0.02
14.08118009567261,3,3,3,3,-9.539999999999999,1.59,-1.69,-0.02,-0.1,0.02
14.10118007659912,3,3,3,3,-9.48,1.59,-1.67,0.02,0.09,-0.05
14.10118007659912,3,3,3,3,-9.48,1.59,-1.67,0.02,0.09,-0.05
14.12118005752563,3,3,3,3,-9.460000000000001,1.75,-1.74,-0.05,0.04,-0.02
14.12118005752563,3,3,3,3,-9.460000000000001,1.75,-1.74,-0.05,0.04,-0.02
14.14118003845215,3,3,3,3,-9.460000000000001,1.67,-1.69,-0.02,0.02,-0.02
14.14118003845215,3,3,3,3,-9.460000000000001,1.67,-1.69,-0.02,0.02,-0.02
14.16118001937866,3,3,3,3,-9.449999999999999,1.64,-1.73,-0.1,-0.03,-0.01
14.16118001937866,3,3,3,3,-9.449999999999999,1.64,-1.73,-0.1,-0.03,-0.01
14.18118000030518,3,3,3,3,-9.52,1.6,-1.67,-0.17,-0.03,-0.04
14.18118000030518,3,3,3,3,-9.52,1.6,-1.67,-0.17,-0.03,-0.04
14.20117998123169,3,3,3,3,-9.51,1.58,-1.65,-0.22,-0.01,-0.11
14.20117998123169,3,3,3,3,-9.51,1.58,-1.65,-0.22,-0.01,-0.11
14.2211799621582,3,3,3,3,-9.460000000000001,1.68,-1.79,-0.11,0.01,-0.08
14.2211799621582,3,3,3,3,-9.460000000000001,1.68,-1.79,-0.11,0.01,-0.08
14.24117994308472,3,3,3,3,-9.44,1.7,-1.68,-0.18,-0.18,-0.05
14.24117994308472,3,3,3,3,-9.44,1.7,-1.68,-0.18,-0.18,-0.05
14.26117992401123,3,3,3,3,-9.49,1.66,-1.79,-0.16,-0.03,-0.05
14.26117992401123,3,3,3,3,-9.49,1.66,-1.79,-0.16,-0.03,-0.05
14.28118014335632,3,3,3,3,-9.48,1.64,-1.72,-0.12,0.15,-0.08
14.28118014335632,3,3,3,3,-9.48,1.64,-1.72,-0.12,0.15,-0.08
14.30118012428284,3,3,3,3,-9.5,1.62,-1.7,-0.08,0.15,-0.07000000000000001
14.30118012428284,3,3,3,3,-9.5,1.62,-1.7,-0.08,0.15,-0.07000000000000001
14.32118010520935,3,3,3,3,-9.51,1.59,-1.71,-0.1,0.03,-0.07000000000000001
14.32118010520935,3,3,3,3,-9.51,1.59,-1.71,-0.1,0.03,-0.07000000000000001
14.34218001365662,3,3,3,3,-9.52,1.51,-1.71,-0.08,0.07000000000000001,-0.05
14.34218001365662,3,3,3,3,-9.52,1.51,-1.71,-0.08,0.07000000000000001,-0.05
14.36217999458313,3,3,3,3,-9.48,1.51,-1.79,-0.02,-0.05,0.01
14.36217999458313,3,3,3,3,-9.48,1.51,-1.79,-0.02,-0.05,0.01
14.38217997550964,3,3,3,3,-9.449999999999999,1.61,-1.68,0.16,0.13,0
14.38217997550964,3,3,3,3,-9.449999999999999,1.61,-1.68,0.16,0.13,0
14.40217995643616,3,3,3,3,-9.460000000000001,1.69,-1.67,-0.01,0.12,-0.03
14.40217995643616,3,3,3,3,-9.460000000000001,1.69,-1.67,-0.01,0.12,-0.03
14.42217993736267,3,3,3,3,-9.470000000000001,1.62,-1.73,-0.05,0.1,0
14.42217993736267,3,3,3,3,-9.470000000000001,1.62,-1.73,-0.05,0.1,0
14.44217991828918,3,3,3,3,-9.470000000000001,1.53,-1.7,-0.08,0,0.05
14.44217991828918,3,3,3,3,-9.470000000000001,1.53,-1.7,-0.08,0,0.05
14.46218013763428,3,3,3,3,-9.52,1.58,-1.8,0.1,0.06,0.07000000000000001
14.46218013763428,3,3,3,3,-9.52,1.58,-1.8,0.1,0.06,0.07000000000000001
14.48218011856079,3,3,3,3,-9.51,1.62,-1.72,0.07000000000000001,0.07000000000000001,0.07000000000000001
14.48218011856079,3,3,3,3,-9.51,1.62,-1.72,0.07000000000000001,0.07000000000000001,0.07000000000000001
14.5021800994873,3,3,3,3,-9.449999999999999,1.6,-1.72,0.04,-0.02,0.06
14.5021800994873,3,3,3,3,-9.449999999999999,1.6,-1.72,0.04,-0.02,0.06
14.52218008041382,3,3,3,3,-9.51,1.6,-1.75,0.08,-0.01,0.05
14.52218008041382,3,3,3,3,-9.51,1.6,-1.75,0.08,-0.01,0.05
14.54218006134033,3,3,3,3,-9.48,1.62,-1.72,0.01,-0.01,0.06
14.54218006134033,3,3,3,3,-9.48,1.62,-1.72,0.01,-0.01,0.06
14.56218004226685,3,3,3,3,-9.49,1.69,-1.85,-0.04,-0.04,0.04
14.56218004226685,3,3,3,3,-9.49,1.69,-1.85,-0.04,-0.04,0.04
14.58218002319336,3,3,3,3,-9.44,1.65,-1.76,-0.03,0.11,0.03
14.58218002319336,3,3,3,3,-9.44,1.65,-1.76,-0.03,0.11,0.03
14.60218000411987,3,3,3,3,-9.4,1.6,-1.65,-0.1,0.1,0.09
14.60218000411987,3,3,3,3,-9.4,1.6,-1.65,-0.1,0.1,0.09
14.62217998504639,3,3,3,3,-9.57,1.54,-1.5,0.11,-0.04,0.17
14.62217998504639,3,3,3,3,-9.57,1.54,-1.5,0.11,-0.04,0.17
14.6421799659729,3,3,3,3,-9.609999999999999,1.75,-1.7,0.12,-0.24,0.2
14.6421799659729,3,3,3,3,-9.609999999999999,1.75,-1.7,0.12,-0.24,0.2
14.66217994689941,3,3,3,3,-9.390000000000001,1.14,-1.92,0.44,0.02,0.07000000000000001
14.66217994689941,3,3,3,3,-9.390000000000001,1.14,-1.92,0.44,0.02,0.07000000000000001
14.68217992782593,3,3,3,3,-9.359999999999999,1.34,-1.69,1.28,-0.21,0.25
14.68217992782593,3,3,3,3,-9.359999999999999,1.34,-1.69,1.28,-0.21,0.25
14.70217990875244,3,3,3,3,-9.52,2.35,-2.01,1.19,-0.37,0.43
14.70217990875244,3,3,3,3,-9.52,2.35,-2.01,1.19,-0.37,0.43
14.72218012809753,3,3,3,3,-9.550000000000001,1.94,-2.24,0.28,-0.62,0.44
14.72218012809753,3,3,3,3,-9.550000000000001,1.94,-2.24,0.28,-0.62,0.44
14.74218010902405,3,3,3,3,-9.31,1.7,-2.07,0.12,-0.43,0.39
14.74218010902405,3,3,3,3,-9.31,1.7,-2.07,0.12,-0.43,0.39
14.76218008995056,3,3,3,3,-9.43,1.57,-2.06,0.1,-0.41,0.4
14.76218008995056,3,3,3,3,-9.43,1.57,-2.06,0.1,-0.41,0.4
14.78218007087708,3,3,3,3,-9.5,1.5,-1.93,-0.1,-0.46,0.39
14.78218007087708,3,3,3,3,-9.5,1.5,-1.93,-0.1,-0.46,0.39
14.80218005180359,3,3,3,3,-9.449999999999999,1.44,-1.64,-0.28,-0.38,0.24
14.80218005180359,3,3,3,3,-9.449999999999999,1.44,-1.64,-0.28,-0.38,0.24
14.8221800327301,3,3,3,3,-9.52,1.44,-1.74,-0.67,-0.51,0.11
14.8221800327301,3,3,3,3,-9.52,1.44,-1.74,-0.67,-0.51,0.11
14.84218001365662,3,3,3,3,-9.67,1.41,-2.04,-1.12,-0.78,0.05
14.84218001365662,3,3,3,3,-9.67,1.41,-2.04,-1.12,-0.78,0.05
14.86217999458313,3,3,3,3,-9.470000000000001,1.7,-2.38,-1.07,-0.61,0.06
14.86217999458313,3,3,3,3,-9.470000000000001,1.7,-2.38,-1.07,-0.61,0.06
14.88217997550964,3,3,3,3,-9.26,1.86,-2.56,-1.04,-0.64,0.17
14.88217997550964,3,3,3,3,-9.26,1.86,-2.56,-1.04,-0.64,0.17
14.90217995643616,3,3,3,3,-9.32,1.62,-2.13,-1.28,-1.05,0.36
14.90217995643616,3,3,3,3,-9.32,1.62,-2.13,-1.28,-1.05,0.36
14.92217993736267,3,3,3,3,-9.48,1.45,-1.99,-1.69,-1.37,0.44
14.92217993736267,3,3,3,3,-9.48,1.45,-1.99,-1.69,-1.37,0.44
14.94217991828918,3,3,3,3,-9.58,1.08,-1.81,-2.06,-1.64,0.46
14.94217991828918,3,3,3,3,-9.58,1.08,-1.81,-2.06,-1.64,0.46
14.96218013763428,3,3,3,3,-9.59,0.97,-1.98,-2.34,-1.85,0.57
14.96218013763428,3,3,3,3,-9.59,0.97,-1.98,-2.34,-1.85,0.57
14.98218011856079,3,3,3,3,-9.539999999999999,0.77,-1.74,-2.47,-2.19,0.75
14.98218011856079,3,3,3,3,-9.539999999999999,0.77,-1.74,-2.47,-2.19,0.75
15.0021800994873,3,3,3,3,-9.82,0.11,-1.31,-2.41,-3.06,0.98
15.0021800994873,3,3,3,3,-9.82,0.11,-1.31,-2.41,-3.06,0.98
15.02218008041382,3,3,3,3,-10.09,-0.6899999999999999,-0.8100000000000001,-1.66,-4.01,1.05
15.02218008041382,3,3,3,3,-10.09,-0.6899999999999999,-0.8100000000000001,-1.66,-4.01,1.05
15.04218006134033,3,3,3,3,-10.3,-1.33,-0.27,-0.11,-4.59,0.83
15.04218006134033,3,3,3,3,-10.3,-1.33,-0.27,-0.11,-4.59,0.83
15.06218004226685,3,3,3,3,-10.4,-1.45,-0.22,0.61,-4.74,0.5600000000000001
15.06218004226685,3,3,3,3,-10.4,-1.45,-0.22,0.61,-4.74,0.5600000000000001
15.08218002319336,3,3,3,3,-10.41,-3.54,0.58,1.64,-4.74,-1.51
15.08218002319336,3,3,3,3,-10.41,-3.54,0.58,1.64,-4.74,-1.51
15.10218000411987,3,3,3,3,-10.2,-5.92,1.16,2.3,-4.65,-2.93
15.10218000411987,3,3,3,3,-10.2,-5.92,1.16,2.3,-4.65,-2.93
15.12217998504639,3,3,3,3,-11.09,-7.2,1.07,6.3,-4.68,-8.51
15.12217998504639,3,3,3,3,-11.09,-7.2,1.07,6.3,-4.68,-8.51
15.1421799659729,3,3,3,3,-12.48,-5.27,0.33,7.99,-5.78,-11.33
15.1421799659729,3,3,3,3,-12.48,-5.27,0.33,7.99,-5.78,-11.33
15.16217994689941,3,3,3,3,-13.11,-1.78,-0.96,5.36,-5.06,-12.31
15.16217994689941,3,3,3,3,-13.11,-1.78,-0.96,5.36,-5.06,-12.31
15.18217992782593,3,3,3,3,-13.29,0.95,-0.43,0.92,-5.81,-11.79
15.18217992782593,3,3,3,3,-13.29,0.95,-0.43,0.92,-5.81,-11.79
15.20217990875244,3,3,3,3,-11.74,4.86,0.06,0.38,-6.14,-10.99
15.20217990875244,3,3,3,3,-11.74,4.86,0.06,0.38,-6.14,-10.99
15.22218012809753,3,3,3,3,-10.62,4.69,-1.46,-4.25,-4.04,-9.880000000000001
15.22218012809753,3,3,3,3,-10.62,4.69,-1.46,-4.25,-4.04,-9.880000000000001
15.24218010902405,3,3,3,3,-9.380000000000001,3.19,-1.83,-5.4,-3.05,-10.97
15.24218010902405,3,3,3,3,-9.380000000000001,3.19,-1.83,-5.4,-3.05,-10.97
15.26218008995056,3,3,3,3,-8.720000000000001,1.87,-2.46,-6.51,-1.5,-11.49
15.26218008995056,3,3,3,3,-8.720000000000001,1.87,-2.46,-6.51,-1.5,-11.49
15.28218007087708,3,3,3,3,-8.52,0.51,-2.83,-4.45,1.07,-12.72
15.28218007087708,3,3,3,3,-8.52,0.51,-2.83,-4.45,1.07,-12.72
15.30218005180359,3,3,3,3,-8.84,0.39,-2.47,-2.81,1.03,-12.68
15.30218005180359,3,3,3,3,-8.84,0.39,-2.47,-2.81,1.03,-12.68
15.3221800327301,3,3,3,3,-8.529999999999999,-0.62,-2.08,1.66,1.67,-11.02
15.3221800327301,3,3,3,3,-8.529999999999999,-0.62,-2.08,1.66,1.67,-11.02
15.34218001365662,3,3,3,3,-8.779999999999999,-1.33,-1.78,6.01,2.21,-10.41
15.34218001365662,3,3,3,3,-8.779999999999999,-1.33,-1.78,6.01,2.21,-10.41
15.36317992210388,3,3,3,3,-9.44,-1.87,-0.89,8.140000000000001,2.19,-10.11
15.36317992210388,3,3,3,3,-9.44,-1.87,-0.89,8.140000000000001,2.19,-10.11
15.38318014144897,3,3,3,3,-9.43,-1.92,-0.25,15.6,2.15,-9.050000000000001
15.38318014144897,3,3,3,3,-9.43,-1.92,-0.25,15.6,2.15,-9.050000000000001
15.40318012237549,3,3,3,3,-9.24,-1.85,-0.14,17.7,2.09,-8.77
15.40318012237549,3,3,3,3,-9.24,-1.85,-0.14,17.7,2.09,-8.77
15.423180103302,3,3,3,3,-9.09,-0.88,0.07000000000000001,19.37,2.31,-8.09
15.423180103302,3,3,3,3,-9.09,-0.88,0.07000000000000001,19.37,2.31,-8.09
15.44318008422852,3,3,3,3,-8.710000000000001,-0.41,-0.38,18.21,2.64,-7.45
15.44318008422852,3,3,3,3,-8.710000000000001,-0.41,-0.38,18.21,2.64,-7.45
15.46318006515503,3,3,3,3,-8.99,-0.51,0.11,15.62,3.1,-7.36
15.46318006515503,3,3,3,3,-8.99,-0.51,0.11,15.62,3.1,-7.36
15.48318004608154,3,3,3,3,-8.51,-0.86,0.16,11.17,1.93,-6.45
15.48318004608154,3,3,3,3,-8.51,-0.86,0.16,11.17,1.93,-6.45
15.50318002700806,3,3,3,3,-8.44,-0.98,0.74,8.07,1.22,-5.73
15.50318002700806,3,3,3,3,-8.44,-0.98,0.74,8.07,1.22,-5.73
15.52318000793457,3,3,3,3,-8.59,-2.49,0.6899999999999999,7.47,0.13,-4.27
15.52318000793457,3,3,3,3,-8.59,-2.49,0.6899999999999999,7.47,0.13,-4.27
15.54317998886108,3,3,3,3,-8.91,-3.28,1.63,4.75,0.77,-3.54
15.54317998886108,3,3,3,3,-8.91,-3.28,1.63,4.75,0.77,-3.54
15.5631799697876,3,3,3,3,-9.25,-4.35,2.93,5.25,0.11,-2.89
15.5631799697876,3,3,3,3,-9.25,-4.35,2.93,5.25,0.11,-2.89
15.58317995071411,3,3,3,3,-9.4,-4.75,3.05,6.17,-0.8,-2.09
15.58317995071411,3,3,3,3,-9.4,-4.75,3.05,6.17,-0.8,-2.09
15.60317993164062,3,3,3,3,-9.18,-5.25,2.46,6.66,-0.89,-1.37
15.60317993164062,3,3,3,3,-9.18,-5.25,2.46,6.66,-0.89,-1.37
15.62317991256714,3,3,3,3,-8.84,-5.61,2.06,7.18,-1.13,-0.6899999999999999
15.62317991256714,3,3,3,3,-8.84,-5.61,2.06,7.18,-1.13,-0.6899999999999999
15.64318013191223,3,3,3,3,-8.779999999999999,-4.63,1.37,10.1,-0.65,1.17
15.64318013191223,3,3,3,3,-8.779999999999999,-4.63,1.37,10.1,-0.65,1.17
15.66318011283875,3,3,3,3,-8.92,-2.87,-0.29,10.22,-0.54,1.84
15.66318011283875,3,3,3,3,-8.92,-2.87,-0.29,10.22,-0.54,1.84
15.68318009376526,3,3,3,3,-9.880000000000001,-1.7,-1.39,9.390000000000001,1.62,1.59
15.68318009376526,3,3,3,3,-9.880000000000001,-1.7,-1.39,9.390000000000001,1.62,1.59
15.70318007469177,3,3,3,3,-8.23,0.48,0.48,5.48,4.03,-1.98
15.70318007469177,3,3,3,3,-8.23,0.48,0.48,5.48,4.03,-1.98
15.72318005561829,3,3,3,3,-8.07,0.75,0.19,-4.62,4.16,0.49
15.72318005561829,3,3,3,3,-8.07,0.75,0.19,-4.62,4.16,0.49
15.7431800365448,3,3,3,3,-11.79,-4.47,-0.35,-5.68,7.73,2.92
15.7431800365448,3,3,3,3,-11.79,-4.47,-0.35,-5.68,7.73,2.92
15.76318001747131,3,3,3,3,-13.84,-9.15,2.69,-9.800000000000001,9.48,0.98
15.76318001747131,3,3,3,3,-13.84,-9.15,2.69,-9.800000000000001,9.48,0.98
15.78317999839783,3,3,3,3,-12.33,-3.79,0.34,-2.49,7.01,3.09
15.78317999839783,3,3,3,3,-12.33,-3.79,0.34,-2.49,7.01,3.09
15.80317997932434,3,3,3,3,-10.72,3.74,-1.06,4.82,6.77,5.5
15.80317997932434,3,3,3,3,-10.72,3.74,-1.06,4.82,6.77,5.5
15.82317996025085,3,3,3,3,-7.39,4.33,-4.43,0.7,7.27,6.95
15.82317996025085,3,3,3,3,-7.39,4.33,-4.43,0.7,7.27,6.95
15.84317994117737,3,3,3,3,-7.35,1.09,-3.61,-0.07000000000000001,6.77,8.890000000000001
15.84317994117737,3,3,3,3,-7.35,1.09,-3.61,-0.07000000000000001,6.77,8.890000000000001
15.86317992210388,3,3,3,3,-10.58,3.46,-3.41,1.53,7.89,10.39
15.86317992210388,3,3,3,3,-10.58,3.46,-3.41,1.53,7.89,10.39
15.88318014144897,3,3,3,3,-10.26,5.07,-1.86,2.21,6.37,11.34
15.88318014144897,3,3,3,3,-10.26,5.07,-1.86,2.21,6.37,11.34
15.90318012237549,3,3,3,3,-11.26,3.76,-2.1,-2.15,6.86,10.99
15.90318012237549,3,3,3,3,-11.26,3.76,-2.1,-2.15,6.86,10.99
15.923180103302,3,3,3,3,-10.43,2.39,-3.07,-6.29,6.72,11.53
15.923180103302,3,3,3,3,-10.43,2.39,-3.07,-6.29,6.72,11.53
15.94318008422852,3,3,3,3,-9.640000000000001,1.35,-4.05,-8.369999999999999,6.61,11.44
15.94318008422852,3,3,3,3,-9.640000000000001,1.35,-4.05,-8.369999999999999,6.61,11.44
15.96318006515503,3,3,3,3,-9.4,0.6,-4.25,-7.64,6.53,11.56
15.96318006515503,3,3,3,3,-9.4,0.6,-4.25,-7.64,6.53,11.56
15.98318004608154,3,3,3,3,-8.94,0.02,-3.72,-6.04,6.14,12.01
15.98318004608154,3,3,3,3,-8.94,0.02,-3.72,-6.04,6.14,12.01
16.00318002700806,3,3,3,3,-8.99,0.11,-3.14,-3.74,5.53,12.09
16.00318002700806,3,3,3,3,-8.99,0.11,-3.14,-3.74,5.53,12.09
16.02318000793457,3,3,3,3,-9.24,0.06,-2.64,-2.89,5.06,12.05
16.02318000793457,3,3,3,3,-9.24,0.06,-2.64,-2.89,5.06,12.05
16.04317998886108,3,3,3,2,-9.300000000000001,-0.17,-2.56,-5.01,4.65,11.58
16.04317998886108,3,3,3,2,-9.300000000000001,-0.17,-2.56,-5.01,4.65,11.58
16.0631799697876,3,3,3,2,-8.869999999999999,-0.32,-2.91,-5.81,4.26,11.36
16.0631799697876,3,3,3,2,-8.869999999999999,-0.32,-2.91,-5.81,4.26,11.36
16.08317995071411,3,3,3,2,-9.32,-1.03,-3.09,-8.42,3.99,10.85
16.08317995071411,3,3,3,2,-9.32,-1.03,-3.09,-8.42,3.99,10.85
16.10317993164062,3,3,3,2,-9.93,-2.78,-2.14,-8.74,3.72,9.83
16.10317993164062,3,3,3,2,-9.93,-2.78,-2.14,-8.74,3.72,9.83
16.12317991256714,3,3,3,2,-10.08,-3.88,-1.46,-6.72,3.25,8.65
16.12317991256714,3,3,3,2,-10.08,-3.88,-1.46,-6.72,3.25,8.65
16.14318013191223,3,3,3,2,-9.789999999999999,-2.4,-1.51,-4.36,2.52,7.22
16.14318013191223,3,3,3,2,-9.789999999999999,-2.4,-1.51,-4.36,2.52,7.22
16.16318011283875,3,3,3,2,-9.220000000000001,-1.09,-2.44,-3,2.66,5.9
16.16318011283875,3,3,3,2,-9.220000000000001,-1.09,-2.44,-3,2.66,5.9
16.18318009376526,3,3,3,2,-8.470000000000001,0.88,-2.72,-2.34,3.24,5.03
16.18318009376526,3,3,3,2,-8.470000000000001,0.88,-2.72,-2.34,3.24,5.03
16.20318007469177,3,3,3,2,-9.029999999999999,2.09,-2.5,-3.24,2.91,5.57
16.20318007469177,3,3,3,2,-9.029999999999999,2.09,-2.5,-3.24,2.91,5.57
16.22318005561829,3,3,3,2,-9,2.69,-2.16,-4.63,1.62,6.66
16.22318005561829,3,3,3,2,-9,2.69,-2.16,-4.63,1.62,6.66
16.2431800365448,3,3,3,2,-8.08,0.54,-2.41,-8.039999999999999,1.34,7.06
16.2431800365448,3,3,3,2,-8.08,0.54,-2.41,-8.039999999999999,1.34,7.06
16.26318001747131,3,3,3,2,-9.210000000000001,1.87,-2.93,-6.86,1.47,7.67
16.26318001747131,3,3,3,2,-9.210000000000001,1.87,-2.93,-6.86,1.47,7.67
16.28317999839783,3,3,3,2,-9.300000000000001,2.59,-2.55,-6.4,1.85,8.630000000000001
16.28317999839783,3,3,3,2,-9.300000000000001,2.59,-2.55,-6.4,1.85,8.630000000000001
16.30317997932434,3,3,3,2,-9.27,3.35,-2.74,-6.5,3.05,7.88
16.30317997932434,3,3,3,2,-9.27,3.35,-2.74,-6.5,3.05,7.88
16.32317996025085,3,3,3,2,-9.43,2.98,-2.42,-7.42,3.97,7.72
16.32317996025085,3,3,3,2,-9.43,2.98,-2.42,-7.42,3.97,7.72
16.34317994117737,3,3,3,2,-9.67,1.96,-2.14,-9.08,4.09,7.86
16.34317994117737,3,3,3,2,-9.67,1.96,-2.14,-9.08,4.09,7.86
16.36418008804321,3,3,3,2,-10.03,0.75,-2.62,-9.77,3.77,8.300000000000001
16.36418008804321,3,3,3,2,-10.03,0.75,-2.62,-9.77,3.77,8.300000000000001
16.38418006896973,3,3,3,2,-10.78,0.41,-3.34,-9.19,3.05,8.630000000000001
16.38418006896973,3,3,3,2,-10.78,0.41,-3.34,-9.19,3.05,8.630000000000001
16.40418004989624,3,3,3,2,-12.22,0.38,-3.12,-7.23,1.76,8.01
16.40418004989624,3,3,3,2,-12.22,0.38,-3.12,-7.23,1.76,8.01
16.42418003082275,3,3,3,2,-12.01,0.65,-2.55,-5.44,0.68,6.41
16.42418003082275,3,3,3,2,-12.01,0.65,-2.55,-5.44,0.68,6.41
16.44418001174927,3,3,3,2,-12.24,-0.09,-1.5,-6.33,0.55,4.91
16.44418001174927,3,3,3,2,-12.24,-0.09,-1.5,-6.33,0.55,4.91
16.46417999267578,3,3,3,2,-12.63,-1.58,-1.24,-9.710000000000001,1.37,4.16
16.46417999267578,3,3,3,2,-12.63,-1.58,-1.24,-9.710000000000001,1.37,4.16
16.48417997360229,3,3,3,2,-12.75,-4.08,-0.57,-11.01,0.92,3.2
16.48417997360229,3,3,3,2,-12.75,-4.08,-0.57,-11.01,0.92,3.2
16.50417995452881,3,3,3,2,-12.54,-4.44,-0.18,-7.96,-2.07,1.32
16.50417995452881,3,3,3,2,-12.54,-4.44,-0.18,-7.96,-2.07,1.32
16.52417993545532,3,3,3,2,-13.53,-5.71,1.09,-4.16,-5.68,-1.42
16.52417993545532,3,3,3,2,-13.53,-5.71,1.09,-4.16,-5.68,-1.42
16.54417991638184,3,3,3,2,-12.57,-6.08,1.78,-0.13,-8.77,-6.1
16.54417991638184,3,3,3,2,-12.57,-6.08,1.78,-0.13,-8.77,-6.1
16.56418013572693,3,3,3,2,-11.12,-4.75,1.3,-2.95,-9.699999999999999,-10.04
16.56418013572693,3,3,3,2,-11.12,-4.75,1.3,-2.95,-9.699999999999999,-10.04
16.58418011665344,3,3,3,2,-11.13,-4.03,-2.48,-10.39,-9.06,-12.42
16.58418011665344,3,3,3,2,-11.13,-4.03,-2.48,-10.39,-9.06,-12.42
16.60418009757996,3,3,3,2,-13.26,2.33,-2.51,-4.95,-8.4,-16.52
16.60418009757996,3,3,3,2,-13.26,2.33,-2.51,-4.95,-8.4,-16.52
16.62418007850647,3,3,3,2,-14.08,4.85,-1.98,0.32,-8.06,-17.44
16.62418007850647,3,3,3,2,-14.08,4.85,-1.98,0.32,-8.06,-17.44
16.64418005943298,3,3,3,2,-13.81,7.69,-1.35,-1.04,-7.37,-18.4
16.64418005943298,3,3,3,2,-13.81,7.69,-1.35,-1.04,-7.37,-18.4
16.6641800403595,3,3,3,2,-12.35,6.04,-1.45,-4.52,-7.54,-20.92
16.6641800403595,3,3,3,2,-12.35,6.04,-1.45,-4.52,-7.54,-20.92
16.68418002128601,3,3,3,2,-12.44,6.41,-1.93,-5.42,-5.39,-22.12
16.68418002128601,3,3,3,2,-12.44,6.41,-1.93,-5.42,-5.39,-22.12
16.70418000221252,3,3,3,2,-11.75,4.88,-2.23,-3.57,-4.3,-21.52
16.70418000221252,3,3,3,2,-11.75,4.88,-2.23,-3.57,-4.3,-21.52
16.72417998313904,3,3,3,2,-10.2,5.11,-2.55,-1.18,-3.24,-21.46
16.72417998313904,3,3,3,2,-10.2,5.11,-2.55,-1.18,-3.24,-21.46
16.74417996406555,3,3,3,2,-9.380000000000001,4.06,-2.75,2.32,-2.94,-21.71
16.74417996406555,3,3,3,2,-9.380000000000001,4.06,-2.75,2.32,-2.94,-21.71
16.76417994499207,3,3,3,2,-8.789999999999999,3.74,-3.32,6.09,-1.62,-21.41
16.76417994499207,3,3,3,2,-8.789999999999999,3.74,-3.32,6.09,-1.62,-21.41
16.78417992591858,3,3,3,2,-8.449999999999999,3.42,-3.52,8.42,-0.91,-20.98
16.78417992591858,3,3,3,2,-8.449999999999999,3.42,-3.52,8.42,-0.91,-20.98
16.80418014526367,3,3,3,2,-7.77,3.97,-2.89,10.21,-1.75,-21.35
16.80418014526367,3,3,3,2,-7.77,3.97,-2.89,10.21,-1.75,-21.35
16.82418012619019,3,3,3,2,-7.31,4.35,-3.09,12.3,-1.53,-20.74
16.82418012619019,3,3,3,2,-7.31,4.35,-3.09,12.3,-1.53,-20.74
16.8441801071167,3,3,3,2,-6.63,4.68,-2.83,11.95,-0.05,-18.76
16.8441801071167,3,3,3,2,-6.63,4.68,-2.83,11.95,-0.05,-18.76
16.86418008804321,3,3,3,2,-6.41,4.59,-2.8,12.51,0.31,-16.92
16.86418008804321,3,3,3,2,-6.41,4.59,-2.8,12.51,0.31,-16.92
16.88418006896973,3,3,3,2,-6.02,3.77,-2.27,11.14,0.23,-14.64
16.88418006896973,3,3,3,2,-6.02,3.77,-2.27,11.14,0.23,-14.64
16.90418004989624,3,3,3,2,-5.81,2.87,-2.25,9.800000000000001,1.08,-12.27
16.90418004989624,3,3,3,2,-5.81,2.87,-2.25,9.800000000000001,1.08,-12.27
16.92418003082275,3,3,3,2,-5.74,2.81,-2.32,9.94,2.28,-9.779999999999999
16.92418003082275,3,3,3,2,-5.74,2.81,-2.32,9.94,2.28,-9.779999999999999
16.94418001174927,3,3,3,2,-6.01,2.14,-1.91,8.789999999999999,2.95,-7.01
16.94418001174927,3,3,3,2,-6.01,2.14,-1.91,8.789999999999999,2.95,-7.01
16.96417999267578,3,3,3,2,-6.52,0.73,-0.9,7.41,3.62,-4.2
16.96417999267578,3,3,3,2,-6.52,0.73,-0.9,7.41,3.62,-4.2
16.98417997360229,3,3,3,2,-7.77,-2.87,-0.75,9.5,4.92,-0.47
16.98417997360229,3,3,3,2,-7.77,-2.87,-0.75,9.5,4.92,-0.47
17.00417995452881,3,3,3,2,-10.76,-4.48,-0.72,11.9,8.25,-0.31
17.00417995452881,3,3,3,2,-10.76,-4.48,-0.72,11.9,8.25,-0.31
17.02417993545532,3,3,3,2,-12.14,-8.710000000000001,4.22,9.42,5.9,-3.77
17.02417993545532,3,3,3,2,-12.14,-8.710000000000001,4.22,9.42,5.9,-3.77
17.04417991638184,3,3,3,1,-13.76,-14.88,5.82,9.26,-1.19,-3.93
17.04417991638184,3,3,3,1,-13.76,-14.88,5.82,9.26,-1.19,-3.93
17.06418013572693,3,3,3,1,-11.49,-9.23,2.66,9.789999999999999,-2.78,-6.09
17.06418013572693,3,3,3,1,-11.49,-9.23,2.66,9.789999999999999,-2.78,-6.09
17.08418011665344,3,3,3,1,-9.49,-1.31,1.05,7.99,-2.36,-4.4
17.08418011665344,3,3,3,1,-9.49,-1.31,1.05,7.99,-2.36,-4.4
17.10418009757996,3,3,3,1,-5.29,1.91,-2.09,9.18,-0.02,-3.04
17.10418009757996,3,3,3,1,-5.29,1.91,-2.09,9.18,-0.02,-3.04
17.12418007850647,3,3,3,1,-2.65,2.38,-2.78,-7.87,9.18,-1.12
17.12418007850647,3,3,3,1,-2.65,2.38,-2.78,-7.87,9.18,-1.12
17.14418005943298,3,3,3,1,-17.44,-9.34,1.91,-2.02,8.710000000000001,8.300000000000001
17.14418005943298,3,3,3,1,-17.44,-9.34,1.91,-2.02,8.710000000000001,8.300000000000001
17.1641800403595,3,3,3,1,-26.1,-17.38,10.02,-3.57,3.48,-0.31
17.1641800403595,3,3,3,1,-26.1,-17.38,10.02,-3.57,3.48,-0.31
17.18418002128601,3,3,3,1,-10.45,7.99,1.65,14.11,4.07,9.619999999999999
17.18418002128601,3,3,3,1,-10.45,7.99,1.65,14.11,4.07,9.619999999999999
17.20418000221252,3,3,3,1,-7.72,14.11,-5.86,5.08,6.86,8.76
17.20418000221252,3,3,3,1,-7.72,14.11,-5.86,5.08,6.86,8.76
17.22417998313904,3,3,3,1,-5.39,0.72,-10.27,-7.96,11.71,9.470000000000001
17.22417998313904,3,3,3,1,-5.39,0.72,-10.27,-7.96,11.71,9.470000000000001
17.24417996406555,3,3,3,1,-7.78,-1.1,-5.7,-11.24,7.41,9.31
17.24417996406555,3,3,3,1,-7.78,-1.1,-5.7,-11.24,7.41,9.31
17.26417994499207,3,3,3,1,-10.88,6.45,-5.3,2.97,4.33,12.51
17.26417994499207,3,3,3,1,-10.88,6.45,-5.3,2.97,4.33,12.51
17.28417992591858,3,3,3,1,-10.34,4.01,-2.81,0.35,6,12.85
17.28417992591858,3,3,3,1,-10.34,4.01,-2.81,0.35,6,12.85
17.30418014526367,3,3,3,0,-11.93,3.76,-0.55,-0.71,7.37,13.66
17.30418014526367,3,3,3,0,-11.93,3.76,-0.55,-0.71,7.37,13.66
17.32418012619019,3,3,3,0,-9.699999999999999,4.45,-3.08,-2.48,6.88,15.06
17.32418012619019,3,3,3,0,-9.699999999999999,4.45,-3.08,-2.48,6.88,15.06
17.3441801071167,3,3,3,0,-8.83,1.2,-4.47,-4.02,6.51,15.7
17.3441801071167,3,3,3,0,-8.83,1.2,-4.47,-4.02,6.51,15.7
17.36418008804321,3,3,3,0,-8.41,0.38,-4.87,-3.31,6.45,15.91
17.36418008804321,3,3,3,0,-8.41,0.38,-4.87,-3.31,6.45,15.91
17.38418006896973,3,3,3,0,-8.119999999999999,0.96,-3.38,-0.93,5.48,15.63
17.38418006896973,3,3,3,0,-8.119999999999999,0.96,-3.38,-0.93,5.48,15.63
17.40418004989624,3,3,3,0,-9.1,1.37,-1.87,-1.62,4.74,14.72
17.40418004989624,3,3,3,0,-9.1,1.37,-1.87,-1.62,4.74,14.72
17.42517995834351,3,3,3,0,-9.710000000000001,1.09,-1.98,-6.1,3.48,14.29
17.42517995834351,3,3,3,0,-9.710000000000001,1.09,-1.98,-6.1,3.48,14.29
17.44517993927002,3,3,3,0,-9.49,-0.19,-2.67,-11.99,3.54,13.93
17.44517993927002,3,3,3,0,-9.49,-0.19,-2.67,-11.99,3.54,13.93
17.46517992019653,3,3,3,0,-9.4,-4.22,-2.58,-16.05,2.82,12.45
17.46517992019653,3,3,3,0,-9.4,-4.22,-2.58,-16.05,2.82,12.45
17.48518013954163,3,3,3,0,-10.15,-5.16,-1.63,-13.97,2.61,10.98
17.48518013954163,3,3,3,0,-10.15,-5.16,-1.63,-13.97,2.61,10.98
17.50518012046814,3,3,3,0,-10.63,-2.82,-1.84,-11.79,3.61,9.35
17.50518012046814,3,3,3,0,-10.63,-2.82,-1.84,-11.79,3.61,9.35
17.52518010139465,3,3,3,0,-10.31,-0.42,-2.83,-9.32,2.81,6.93
17.52518010139465,3,3,3,0,-10.31,-0.42,-2.83,-9.32,2.81,6.93
17.54518008232117,3,3,3,0,-9.49,3.08,-2.7,-6.31,1.9,5.64
17.54518008232117,3,3,3,0,-9.49,3.08,-2.7,-6.31,1.9,5.64
17.56518006324768,3,3,3,0,-8.91,3.17,-2.73,-6.58,1.46,6.1
17.56518006324768,3,3,3,0,-8.91,3.17,-2.73,-6.58,1.46,6.1
17.58518004417419,3,3,3,0,-8.82,2.31,-2.39,-7.57,2.03,7.15
17.58518004417419,3,3,3,0,-8.82,2.31,-2.39,-7.57,2.03,7.15
17.60518002510071,3,3,3,0,-8.92,2.1,-2.32,-8.84,2.85,7.38
17.60518002510071,3,3,3,0,-8.92,2.1,-2.32,-8.84,2.85,7.38
17.62518000602722,3,3,3,0,-8.91,1.79,-2.73,-10.02,3.07,6.91
17.62518000602722,3,3,3,0,-8.91,1.79,-2.73,-10.02,3.07,6.91
17.64517998695374,3,3,3,0,-8.890000000000001,1.06,-3.01,-10.34,3.1,6.35
17.64517998695374,3,3,3,0,-8.890000000000001,1.06,-3.01,-10.34,3.1,6.35
17.66517996788025,3,3,3,0,-9.31,2.08,-2.68,-7.38,2.71,6.28
17.66517996788025,3,3,3,0,-9.31,2.08,-2.68,-7.38,2.71,6.28
17.68517994880676,3,3,3,0,-9.5,1.35,-2.05,-6.61,2.69,6.52
17.68517994880676,3,3,3,0,-9.5,1.35,-2.05,-6.61,2.69,6.52
17.70517992973328,3,3,3,1,-9.92,1.51,-1.78,-7.2,3.18,6.45
17.70517992973328,3,3,3,1,-9.92,1.51,-1.78,-7.2,3.18,6.45
17.72517991065979,3,3,3,1,-9.67,1.66,-1.69,-7.63,2.85,6.51
17.72517991065979,3,3,3,1,-9.67,1.66,-1.69,-7.63,2.85,6.51
17.74518013000488,3,3,3,1,-9.57,1.02,-1.93,-8.77,2.41,6.7
17.74518013000488,3,3,3,1,-9.57,1.02,-1.93,-8.77,2.41,6.7
17.7651801109314,3,3,3,1,-10.56,0.26,-2.44,-8.039999999999999,2.02,6.86
17.7651801109314,3,3,3,1,-10.56,0.26,-2.44,-8.039999999999999,2.02,6.86
17.78518009185791,3,3,3,1,-10.77,0.25,-2.53,-6.18,1.19,6.17
17.78518009185791,3,3,3,1,-10.77,0.25,-2.53,-6.18,1.19,6.17
17.80518007278442,3,3,3,1,-11.18,1.13,-2.33,-5.19,0.96,5.21
17.80518007278442,3,3,3,1,-11.18,1.13,-2.33,-5.19,0.96,5.21
17.82518005371094,3,3,3,1,-11.07,0.99,-2.05,-6.29,0.89,4.8
17.82518005371094,3,3,3,1,-11.07,0.99,-2.05,-6.29,0.89,4.8
17.84518003463745,3,3,3,1,-12.44,-2.47,-2.09,-8.699999999999999,1.2,5.09
17.84518003463745,3,3,3,1,-12.44,-2.47,-2.09,-8.699999999999999,1.2,5.09
17.86518001556396,3,3,3,1,-14.09,-4.61,-1.2,-7.81,0.46,5.32
17.86518001556396,3,3,3,1,-14.09,-4.61,-1.2,-7.81,0.46,5.32
17.88517999649048,3,3,3,1,-13.08,-7.12,0.07000000000000001,-3.82,-2.89,2.64
17.88517999649048,3,3,3,1,-13.08,-7.12,0.07000000000000001,-3.82,-2.89,2.64
17.90517997741699,3,3,3,1,-14.05,-8.65,0.67,-1.21,-5.52,-1.89
17.90517997741699,3,3,3,1,-14.05,-8.65,0.67,-1.21,-5.52,-1.89
17.92517995834351,3,3,3,1,-12.56,-7.88,3.7,3.07,-9.17,-9.109999999999999
17.92517995834351,3,3,3,1,-12.56,-7.88,3.7,3.07,-9.17,-9.109999999999999
17.94517993927002,3,3,3,1,-12.04,-5.25,2.14,-0.75,-11.15,-13.61
17.94517993927002,3,3,3,1,-12.04,-5.25,2.14,-0.75,-11.15,-13.61
17.96517992019653,3,3,3,1,-12.49,1,-4.42,-6.3,-10.69,-17.03
17.96517992019653,3,3,3,1,-12.49,1,-4.42,-6.3,-10.69,-17.03
17.98518013954163,3,3,3,1,-13.11,3.7,-5.18,-3.23,-8.82,-20.19
17.98518013954163,3,3,3,1,-13.11,3.7,-5.18,-3.23,-8.82,-20.19
18.00518012046814,3,3,3,2,-16.17,5.67,-3.59,1.23,-6.47,-20.87
18.00518012046814,3,3,3,2,-16.17,5.67,-3.59,1.23,-6.47,-20.87
18.02518010139465,3,3,3,2,-15.35,7.44,-2.82,1.06,-6.82,-22.76
18.02518010139465,3,3,3,2,-15.35,7.44,-2.82,1.06,-6.82,-22.76
18.04518008232117,3,3,3,2,-12.86,7.41,-2.42,-1.66,-5.57,-25.05
18.04518008232117,3,3,3,2,-12.86,7.41,-2.42,-1.66,-5.57,-25.05
18.06518006324768,3,3,3,2,-12,7.27,-2.6,-0.26,-4.27,-24.05
18.06518006324768,3,3,3,2,-12,7.27,-2.6,-0.26,-4.27,-24.05
18.08518004417419,3,3,3,2,-11.25,5.02,-3.1,1.27,-3.04,-23.93
18.08518004417419,3,3,3,2,-11.25,5.02,-3.1,1.27,-3.04,-23.93
18.10518002510071,3,3,3,2,-10.62,3.86,-3.2,4.09,-2.66,-23.76
18.10518002510071,3,3,3,2,-10.62,3.86,-3.2,4.09,-2.66,-23.76
18.12518000602722,3,3,3,2,-9.49,4.68,-2.96,8.52,-2.28,-23
18.12518000602722,3,3,3,2,-9.49,4.68,-2.96,8.52,-2.28,-23
18.14517998695374,3,3,3,2,-8.18,5.3,-3.25,11.85,-2.15,-21.98
18.14517998695374,3,3,3,2,-8.18,5.3,-3.25,11.85,-2.15,-21.98
18.16517996788025,3,3,3,2,-7.28,4.84,-2.81,12.11,-2.14,-21.27
18.16517996788025,3,3,3,2,-7.28,4.84,-2.81,12.11,-2.14,-21.27
18.18517994880676,3,3,3,2,-6.81,4.11,-2.81,13.89,-1.64,-20.15
18.18517994880676,3,3,3,2,-6.81,4.11,-2.81,13.89,-1.64,-20.15
18.20517992973328,3,3,3,2,-6.69,4.87,-2.62,14.82,-0.48,-17.66
18.20517992973328,3,3,3,2,-6.69,4.87,-2.62,14.82,-0.48,-17.66
18.22517991065979,3,3,3,2,-6.33,4.96,-2.83,15.79,0.19,-14.81
18.22517991065979,3,3,3,2,-6.33,4.96,-2.83,15.79,0.19,-14.81
18.24518013000488,3,3,3,2,-5.64,4.99,-2.3,13.99,0.6,-12.02
18.24518013000488,3,3,3,2,-5.64,4.99,-2.3,13.99,0.6,-12.02
18.2651801109314,3,3,3,2,-5.09,3.93,-2.07,11.27,0.48,-10.2
18.2651801109314,3,3,3,2,-5.09,3.93,-2.07,11.27,0.48,-10.2
18.28518009185791,3,3,3,2,-4.16,3.67,-2.25,9.1,2.05,-7.76
18.28518009185791,3,3,3,2,-4.16,3.67,-2.25,9.1,2.05,-7.76
18.30518007278442,3,3,3,1,-4.35,2.3,-2.11,3.94,4.03,-4.45
18.30518007278442,3,3,3,1,-4.35,2.3,-2.11,3.94,4.03,-4.45
18.32518005371094,3,3,3,1,-6.6,-1.25,-1.45,0.9,5.38,-1.83
18.32518005371094,3,3,3,1,-6.6,-1.25,-1.45,0.9,5.38,-1.83
18.34518003463745,3,3,3,1,-10.79,-6.98,1.59,2.48,6.63,-1.59
18.34518003463745,3,3,3,1,-10.79,-6.98,1.59,2.48,6.63,-1.59
18.36518001556396,3,3,3,1,-12.56,-9.619999999999999,3.38,8.33,8.869999999999999,-3.41
18.36518001556396,3,3,3,1,-12.56,-9.619999999999999,3.38,8.33,8.869999999999999,-3.41
18.38517999649048,3,3,3,1,-14.61,-15.73,4.37,13.13,6.4,-5.14
18.38517999649048,3,3,3,1,-14.61,-15.73,4.37,13.13,6.4,-5.14
18.40517997741699,3,3,3,1,-14.36,-13.27,3.08,14.66,-1.37,-6.39
18.40517997741699,3,3,3,1,-14.36,-13.27,3.08,14.66,-1.37,-6.39
18.42517995834351,3,3,3,1,-9.949999999999999,-1.72,1.4,8.539999999999999,-5.09,-5.18
18.42517995834351,3,3,3,1,-9.949999999999999,-1.72,1.4,8.539999999999999,-5.09,-5.18
18.44618010520935,3,3,3,1,-7.6,-0.02,-0.98,9.470000000000001,-2.47,-3.84
18.44618010520935,3,3,3,1,-7.6,-0.02,-0.98,9.470000000000001,-2.47,-3.84
18.46618008613586,3,3,3,1,-0.85,5.73,-5.01,2.9,5.99,-6.49
18.46618008613586,3,3,3,1,-0.85,5.73,-5.01,2.9,5.99,-6.49
