timestamp,magCalib,accCalib,gyrCalib,sysCalib,accX,accY,accZ,gyrX,gyrY,gyrZ
-0.01497101783752441,2,3,3,1,-9.58,1.51,-1.38,0.1,-0.07000000000000001,0.09
0.005028963088989258,2,3,3,1,-9.58,1.48,-1.37,0.01,-0.07000000000000001,0.07000000000000001
0.02602910995483398,2,3,3,1,-9.58,1.47,-1.45,-0.07000000000000001,-0.01,0.02
0.04602909088134766,2,3,3,1,-9.57,1.5,-1.41,0.11,0.06,-0.07000000000000001
0.06602907180786133,2,3,3,1,-9.57,1.53,-1.51,0.07000000000000001,0.01,-0.1
0.086029052734375,2,3,3,1,-9.56,1.54,-1.43,-0.09,-0.03,-0.03
0.1060290336608887,2,3,3,1,-9.56,1.51,-1.44,-0.18,-0.01,-0.05
0.1260290145874023,2,3,3,1,-9.59,1.52,-1.52,-0.01,0.03,-0.08
0.146028995513916,2,3,3,1,-9.58,1.54,-1.37,0.16,0.01,-0.1
0.1660289764404297,2,3,3,1,-9.56,1.51,-1.44,-0.04,-0.02,-0.04
0.1860289573669434,2,3,3,1,-9.56,1.46,-1.39,-0.16,-0.01,0.01
0.206028938293457,2,3,3,1,-9.58,1.49,-1.45,-0.1,0.01,0.02
0.2260291576385498,2,3,3,1,-9.59,1.5,-1.47,0.09,0.1,-0.02
0.2460291385650635,2,3,3,1,-9.59,1.52,-1.38,0.12,0.03,-0.03
0.2660291194915771,2,3,3,1,-9.529999999999999,1.47,-1.46,-0.14,-0.04,0.03
0.2860291004180908,2,3,3,1,-9.6,1.41,-1.39,-0.21,0.01,0.07000000000000001
0.3060290813446045,2,3,3,1,-9.65,1.36,-1.47,0.02,0.08,0.01
0.3260290622711182,2,3,3,1,-9.59,1.41,-1.41,0.02,0.04,-0.03
0.3460290431976318,2,3,3,1,-9.539999999999999,1.38,-1.42,0.04,0.07000000000000001,-0.04
0.3660290241241455,2,3,3,1,-9.56,1.44,-1.48,-0.01,-0.03,-0.02
0.3860290050506592,2,3,3,1,-9.59,1.46,-1.39,-0.08,-0.02,-0.02
0.4060289859771729,2,3,3,1,-9.619999999999999,1.43,-1.41,-0.04,0.02,-0.03
0.4260289669036865,2,3,3,1,-9.609999999999999,1.47,-1.45,-0.13,0.04,-0.05
0.4460289478302002,2,3,3,1,-9.56,1.51,-1.45,-0.07000000000000001,0.04,-0.02
0.466029167175293,2,3,3,1,-9.56,1.51,-1.45,-0.14,-0.02,0.03
0.4860291481018066,2,3,3,1,-9.57,1.47,-1.44,-0.09,0.01,0.04
0.5060291290283203,2,3,3,1,-9.6,1.43,-1.42,0.04,0.05,0.06
0.526029109954834,2,3,3,1,-9.59,1.42,-1.49,0.1,0.01,0.05
0.5460290908813477,2,3,3,1,-9.609999999999999,1.5,-1.33,0.18,0.06,0.03
0.5660290718078613,2,3,3,1,-9.539999999999999,1.45,-1.48,0.03,-0.05,0.05
0.586029052734375,2,3,3,1,-9.539999999999999,1.43,-1.44,-0.13,0.03,0.06
0.6060290336608887,2,3,3,1,-9.59,1.46,-1.46,-0.08,0.08,0
0.6260290145874023,2,3,3,1,-9.58,1.49,-1.5,0.04,0.11,-0.06
0.646028995513916,2,3,3,1,-9.57,1.48,-1.4,-0.03,0.05,-0.08
0.6660289764404297,2,3,3,1,-9.550000000000001,1.48,-1.44,-0.27,0.04,0
0.6860289573669434,2,3,3,1,-9.59,1.41,-1.42,-0.31,0.05,0.03
0.706028938293457,2,3,3,1,-9.58,1.4,-1.46,-0.17,0.1,-0.02
0.7260291576385498,2,3,3,1,-9.6,1.44,-1.44,-0.2,0.1,-0.03
0.7460291385650635,2,3,3,1,-9.58,1.46,-1.44,-0.06,0.09,-0.08
0.7660291194915771,2,3,3,1,-9.619999999999999,1.46,-1.46,0.07000000000000001,0.06,-0.14
0.7860291004180908,2,3,3,1,-9.57,1.43,-1.44,0.09,0.06,-0.12
0.8060290813446045,2,3,3,1,-9.56,1.49,-1.42,-0.01,0.02,-0.15
0.8260290622711182,2,3,3,1,-9.57,1.52,-1.45,-0.08,0.06,-0.14
0.8460290431976318,2,3,3,1,-9.58,1.52,-1.51,0.03,0.11,-0.15
0.8660290241241455,2,3,3,1,-9.550000000000001,1.55,-1.51,0.08,0.06,-0.15
0.8860290050506592,2,3,3,1,-9.539999999999999,1.52,-1.45,-0.06,0.06,-0.1
0.9060289859771729,2,3,3,1,-9.529999999999999,1.51,-1.47,-0.13,0.03,-0.04
0.9260289669036865,2,3,3,1,-9.59,1.49,-1.46,-0.19,0.01,0
0.9460289478302002,2,3,3,1,-9.609999999999999,1.47,-1.43,0.09,0.05,-0.02
0.966029167175293,2,3,3,1,-9.59,1.48,-1.5,0.2,0,-0.07000000000000001
0.9860291481018066,2,3,3,1,-9.550000000000001,1.44,-1.44,0.18,0.06,-0.03
1.00602912902832,2,3,3,1,-9.57,1.39,-1.41,0.03,-0.03,0.05
1.026029109954834,2,3,3,1,-9.6,1.36,-1.45,0.01,0.05,0.1
1.046029090881348,2,3,3,1,-9.6,1.39,-1.51,0.27,0.04,0.04
1.067028999328613,2,3,3,1,-9.57,1.41,-1.53,0.37,0,0.01
1.087028980255127,2,3,3,1,-9.529999999999999,1.42,-1.43,0.22,-0.06,0.07000000000000001
1.107028961181641,2,3,3,1,-9.58,1.38,-1.46,0.08,-0.03,0.16
1.127028942108154,2,3,3,1,-9.6,1.36,-1.57,0.19,0.01,0.17
1.147029161453247,2,3,3,1,-9.619999999999999,1.45,-1.44,0.42,0.09,0.03
1.167029142379761,2,3,3,1,-9.57,1.49,-1.52,0.35,0.04,0.02
1.187029123306274,2,3,3,1,-9.52,1.49,-1.45,0.09,-0.01,0.06
1.207029104232788,2,3,3,1,-9.57,1.48,-1.42,0.02,0,0.04
1.227029085159302,2,3,3,1,-9.619999999999999,1.55,-1.46,0.06,0.06,-0.05
1.247029066085815,2,3,3,2,-9.58,1.54,-1.4,-0.01,0.01,-0.13
1.267029047012329,2,3,3,2,-9.539999999999999,1.48,-1.52,-0.19,0.01,-0.08
1.287029027938843,2,3,3,2,-9.56,1.48,-1.49,-0.17,0.06,-0.06
1.307029008865356,2,3,3,2,-9.59,1.5,-1.5,-0.14,0.06,-0.03
1.32702898979187,2,3,3,2,-9.59,1.46,-1.59,0.01,0.06,-0.06
1.347028970718384,2,3,3,1,-9.57,1.47,-1.45,0.03,0.02,0.01
1.367028951644897,2,3,3,1,-9.58,1.44,-1.51,-0.01,-0.01,0.06
1.387028932571411,2,3,3,1,-9.59,1.41,-1.45,0,-0.02,0.12
1.407029151916504,2,3,3,1,-9.59,1.44,-1.45,0.04,0.04,0.07000000000000001
1.427029132843018,2,3,3,1,-9.6,1.45,-1.49,-0.02,0.05,0.08
1.447029113769531,2,3,3,1,-9.550000000000001,1.43,-1.43,-0.05,0.02,0.06
1.467029094696045,2,3,3,1,-9.56,1.41,-1.58,-0.02,-0.02,0.05
1.487029075622559,2,3,3,1,-9.619999999999999,1.43,-1.46,0.09,0.02,0.02
1.507029056549072,2,3,3,1,-9.6,1.43,-1.42,0.06,0.05,-0.01
1.527029037475586,2,3,3,1,-9.56,1.46,-1.41,-0.14,0.02,-0.01
1.5470290184021,2,3,3,1,-9.550000000000001,1.46,-1.39,-0.29,-0.04,-0.04
1.567028999328613,2,3,3,1,-9.6,1.44,-1.52,-0.18,0,-0.07000000000000001
1.587028980255127,2,3,3,1,-9.58,1.43,-1.5,-0.21,0.06,-0.11
1.607028961181641,2,3,3,1,-9.56,1.42,-1.49,-0.08,0.1,-0.1
1.627028942108154,2,3,3,1,-9.57,1.42,-1.52,-0.1,0.02,0
1.647029161453247,2,3,3,1,-9.539999999999999,1.43,-1.46,-0.08,-0.03,0.05
1.667029142379761,2,3,3,1,-9.59,1.42,-1.56,0.08,0.02,0.1
1.687029123306274,2,3,3,1,-9.56,1.45,-1.45,0.16,-0.04,0.16
1.707029104232788,2,3,3,0,-9.59,1.44,-1.46,0.32,-0.04,0.13
1.727029085159302,2,3,3,0,-9.609999999999999,1.43,-1.5,0.34,-0.02,0.11
1.747029066085815,2,3,3,0,-9.59,1.47,-1.43,0.23,0.06,0.1
1.767029047012329,2,3,3,0,-9.56,1.44,-1.51,0.21,0.01,0.09
1.787029027938843,2,3,3,0,-9.58,1.47,-1.47,0,0.01,0.03
1.807029008865356,2,3,3,0,-9.58,1.52,-1.49,-0.01,0.04,0.01
1.82702898979187,2,3,3,0,-9.550000000000001,1.55,-1.49,0.03,-0.01,-0.05
1.847028970718384,2,3,3,1,-9.56,1.54,-1.42,-0.12,0.08,-0.04
1.867028951644897,2,3,3,1,-9.550000000000001,1.53,-1.54,-0.24,0.03,-0.03
1.887028932571411,2,3,3,1,-9.550000000000001,1.52,-1.47,-0.24,0,0.02
1.907029151916504,2,3,3,2,-9.550000000000001,1.43,-1.47,-0.27,0.02,0
1.927029132843018,2,3,3,2,-9.57,1.46,-1.53,-0.2,0.16,-0.03
1.947029113769531,2,3,3,2,-9.57,1.45,-1.44,-0.27,-0.01,0.02
1.967029094696045,2,3,3,2,-9.539999999999999,1.38,-1.54,-0.38,0.04,0.04
1.987029075622559,2,3,3,2,-9.6,1.45,-1.52,-0.19,0.14,-0.01
2.007029056549072,2,3,3,2,-9.59,1.46,-1.41,-0.05,0.03,-0.09
2.027029037475586,2,3,3,2,-9.58,1.42,-1.48,-0.19,-0.02,-0.06
2.0470290184021,2,3,3,2,-9.57,1.4,-1.47,-0.26,0.01,-0.05
2.067028999328613,2,3,3,2,-9.58,1.39,-1.59,-0.25,0.12,-0.09
2.088029146194458,2,3,3,2,-9.56,1.41,-1.5,-0.09,0.05,-0.11
2.108029127120972,2,3,3,2,-9.58,1.41,-1.41,0.06,0.02,-0.11
2.128029108047485,2,3,3,2,-9.550000000000001,1.4,-1.52,0.06,-0.09,-0.05
2.148029088973999,2,3,3,2,-9.59,1.43,-1.49,0.13,-0.02,0
2.168029069900513,2,3,3,2,-9.6,1.51,-1.56,0.34,0,-0.02
2.188029050827026,2,3,3,2,-9.56,1.51,-1.38,0.26,-0.04,-0.01
2.20802903175354,2,3,3,2,-9.57,1.49,-1.42,0.07000000000000001,-0.05,0.06
2.228029012680054,2,3,3,2,-9.57,1.5,-1.55,0.03,-0.07000000000000001,0.07000000000000001
2.248028993606567,2,3,3,2,-9.58,1.54,-1.45,0.16,0.04,0.03
2.268028974533081,2,3,3,2,-9.529999999999999,1.49,-1.54,0.15,0,0.05
2.288028955459595,2,3,3,2,-9.52,1.45,-1.42,0.11,-0.06,0.05
2.308028936386108,2,3,3,2,-9.57,1.43,-1.48,-0.09,-0.09,0.13
2.328029155731201,2,3,3,2,-9.609999999999999,1.44,-1.49,0.02,0.03,0.12
2.348029136657715,2,3,3,2,-9.65,1.49,-1.41,0.08,0.09,0.03
2.368029117584229,2,3,3,2,-9.58,1.47,-1.57,0.15,0.04,-0.04
2.388029098510742,2,3,3,2,-9.56,1.44,-1.44,-0.04,-0.07000000000000001,-0.01
2.408029079437256,2,3,3,2,-9.58,1.46,-1.38,-0.17,-0.07000000000000001,0.01
2.42802906036377,2,3,3,2,-9.57,1.46,-1.49,-0.18,0.05,0.01
2.448029041290283,2,3,3,2,-9.57,1.43,-1.44,-0.06,0.04,0
2.468029022216797,2,3,3,2,-9.550000000000001,1.49,-1.53,-0.11,-0.01,-0.03
2.488029003143311,2,3,3,2,-9.6,1.46,-1.47,-0.08,-0.06,0.01
2.508028984069824,2,3,3,2,-9.58,1.43,-1.46,-0.01,0,0.01
2.528028964996338,2,3,3,2,-9.57,1.44,-1.51,0,-0.01,0.05
2.548028945922852,2,3,3,2,-9.6,1.45,-1.48,0.02,0.02,0.05
2.568029165267944,2,3,3,2,-9.58,1.44,-1.52,0.12,-0.02,0.08
2.588029146194458,2,3,3,2,-9.59,1.46,-1.5,0.08,-0.11,0.1
2.608029127120972,2,3,3,1,-9.58,1.5,-1.42,0.15,-0.07000000000000001,0.1
2.628029108047485,2,3,3,1,-9.59,1.42,-1.46,0.19,-0.02,0.07000000000000001
2.648029088973999,2,3,3,1,-9.58,1.46,-1.36,0.19,-0.01,0.05
2.668029069900513,2,3,3,1,-9.57,1.46,-1.53,0.04,-0.03,0.07000000000000001
2.688029050827026,2,3,3,1,-9.59,1.46,-1.48,0.02,-0.03,0.05
2.70802903175354,2,3,3,1,-9.609999999999999,1.49,-1.48,0.08,-0.02,0
2.728029012680054,2,3,3,1,-9.57,1.55,-1.5,0.12,-0.01,-0.06
2.748028993606567,2,3,3,1,-9.529999999999999,1.56,-1.36,-0.09,-0.02,-0.04
2.768028974533081,2,3,3,1,-9.57,1.55,-1.46,-0.22,-0.01,0.01
2.788028955459595,2,3,3,1,-9.57,1.49,-1.46,-0.28,0,0.03
2.808028936386108,2,3,3,1,-9.59,1.52,-1.48,-0.12,0,-0.01
2.828029155731201,2,3,3,1,-9.56,1.49,-1.49,-0.02,0.03,-0.03
2.848029136657715,2,3,3,1,-9.58,1.47,-1.45,-0.12,0.03,0.01
2.868029117584229,2,3,3,1,-9.59,1.43,-1.51,-0.08,0.07000000000000001,0.04
2.888029098510742,2,3,3,1,-9.59,1.44,-1.45,-0.09,0.04,0.09
2.908029079437256,2,3,3,1,-9.6,1.4,-1.43,-0.04,-0.05,0.09
2.92802906036377,2,3,3,1,-9.6,1.38,-1.44,-0.01,-0.03,0.08
2.948029041290283,2,3,3,1,-9.609999999999999,1.36,-1.43,0.05,0.05,0.05
2.968029022216797,2,3,3,1,-9.56,1.42,-1.52,0.08,0.04,0.02
2.988029003143311,2,3,3,1,-9.56,1.47,-1.42,-0.01,-0.01,0
3.008028984069824,2,3,3,1,-9.57,1.44,-1.46,-0.02,-0.05,0.01
3.028028964996338,2,3,3,1,-9.56,1.46,-1.45,-0.12,0,0.01
3.048028945922852,2,3,3,1,-9.58,1.52,-1.38,-0.11,0.02,0.02
3.068029165267944,2,3,3,1,-9.550000000000001,1.49,-1.52,-0.12,-0.02,-0.01
3.088029146194458,2,3,3,1,-9.58,1.52,-1.46,0.05,0.02,0.04
3.109029054641724,2,3,3,2,-9.550000000000001,1.49,-1.51,0.21,0.05,0.03
3.129029035568237,2,3,3,2,-9.550000000000001,1.57,-1.47,0.29,0.05,0.04
3.149029016494751,2,3,3,2,-9.56,1.55,-1.46,0.15,-0.02,0.06
3.169028997421265,2,3,3,2,-9.57,1.54,-1.5,0.01,0.04,0.06
3.189028978347778,2,3,3,2,-9.550000000000001,1.52,-1.45,-0.02,0.03,0.05
3.209028959274292,2,3,3,2,-9.59,1.46,-1.48,-0.05,0.02,0.03
3.229028940200806,2,3,3,2,-9.57,1.52,-1.55,0.11,0.09,0
3.249029159545898,2,3,3,2,-9.56,1.5,-1.43,0.1,0.11,0.02
3.269029140472412,2,3,3,2,-9.57,1.46,-1.55,-0.09,0.02,0.08
3.289029121398926,2,3,3,2,-9.550000000000001,1.44,-1.43,-0.07000000000000001,-0.04,0.08
3.309029102325439,2,3,3,2,-9.609999999999999,1.4,-1.45,0.22,0.05,0.07000000000000001
3.329029083251953,2,3,3,2,-9.6,1.48,-1.48,0.35,0.04,0.01
3.349029064178467,2,3,3,2,-9.56,1.51,-1.41,0.3,0.02,-0.01
3.36902904510498,2,3,3,2,-9.56,1.51,-1.55,-0.06,-0.02,0.08
3.389029026031494,2,3,3,2,-9.59,1.51,-1.47,-0.15,-0.05,0.12
3.409029006958008,2,3,3,2,-9.58,1.49,-1.47,0.1,0.1,0.09
3.429028987884521,2,3,3,2,-9.59,1.5,-1.53,0.21,0.05,0.08
3.449028968811035,2,3,3,2,-9.57,1.5,-1.43,0.14,0,0.15
3.469028949737549,2,3,3,2,-9.56,1.5,-1.52,0.1,0,0.17
3.489028930664062,2,3,3,2,-9.57,1.52,-1.46,0.05,0.02,0.17
3.509029150009155,2,3,3,2,-9.59,1.47,-1.52,0.22,0.08,0.07000000000000001
3.529029130935669,2,3,3,2,-9.57,1.47,-1.52,0.26,0.09,-0.02
3.549029111862183,2,3,3,2,-9.52,1.52,-1.39,0.21,0.1,-0.06
3.569029092788696,2,3,3,2,-9.539999999999999,1.51,-1.53,-0.21,0.04,-0.02
3.58902907371521,2,3,3,2,-9.58,1.49,-1.53,-0.06,0.06,-0.06
3.609029054641724,2,3,3,2,-9.58,1.4,-1.5,0.26,0.1,-0.25
3.629029035568237,2,3,3,2,-9.619999999999999,1.39,-1.66,0.7,0.09,-0.43
3.649029016494751,2,3,3,2,-9.630000000000001,1.42,-1.6,0.96,0.04,-0.51
3.669028997421265,2,3,3,2,-9.550000000000001,1.33,-1.62,1.55,-0.27,-0.68
3.689028978347778,2,3,3,2,-9.52,1.07,-1.49,1.54,-0.36,-0.77
3.709028959274292,2,3,3,2,-9.58,0.91,-1.27,1.7,-0.46,-1.31
3.729028940200806,2,3,3,2,-9.65,0.6899999999999999,-1.32,1.69,-0.26,-1.92
3.749029159545898,2,3,3,2,-9.93,0.32,-1.38,1.79,-0.41,-2.33
3.769029140472412,2,3,3,2,-9.74,0.18,-1.24,2.41,-0.49,-3.03
3.789029121398926,2,3,3,2,-9.44,0.61,-0.91,2.18,-0.61,-3.11
3.809029102325439,2,3,3,2,-9.470000000000001,0.79,-0.91,1.01,-0.8,-3.26
3.829029083251953,2,3,3,2,-9.59,0.68,-1.1,0.82,-1.09,-3.6
3.849029064178467,2,3,3,2,-9.550000000000001,0.37,-1.2,0.8100000000000001,-1.35,-3.72
3.86902904510498,2,3,3,2,-9.56,0.03,-1.03,0.6,-2,-4.11
3.889029026031494,2,3,3,2,-9.59,-0.6,-0.74,0.62,-1.97,-4.35
3.909029006958008,2,3,3,2,-9.609999999999999,-1.2,-0.33,1.38,-2.03,-5.62
3.929028987884521,2,3,3,2,-9.51,-1.12,-0.31,2.43,-2.09,-6.8
3.949028968811035,2,3,3,1,-9.390000000000001,-0.06,-0.12,2.62,-2.05,-7.19
3.969028949737549,2,3,3,1,-9.42,-0.57,-0.16,-0.18,-1.91,-8.039999999999999
3.989028930664062,2,3,3,2,-9.4,-2.15,0.15,-0.73,-2.35,-8.76
4.009029150009155,2,3,3,2,-9.279999999999999,-2.23,0.03,-0.18,-3.68,-11.48
4.029029130935669,2,3,3,2,-8.390000000000001,-0.99,0.24,1.07,-0.86,-11.77
4.049029111862183,2,3,3,2,-8.949999999999999,-0.6,-0.68,0.91,-0.54,-11.56
4.069029092788696,2,3,3,2,-9.279999999999999,-0.93,-0.78,-1.26,-2.28,-11.63
4.08902907371521,2,3,3,2,-8.949999999999999,-0.61,-0.78,-0.22,-3.39,-11.95
4.109029054641724,2,3,3,2,-8.67,-0.33,-1,1.33,-0.73,-13.02
4.130028963088989,2,3,3,2,-9.210000000000001,-1.31,-2.23,-1.32,-2.04,-11.96
4.150028944015503,2,3,3,1,-9,-1.6,-1.22,-3.44,-1.59,-11.42
4.170029163360596,2,3,3,1,-9.69,-1.46,-3.21,0.71,2.75,-11.68
4.190029144287109,2,3,3,1,-9.35,-1.77,-2.57,1.17,1.65,-11.61
4.210029125213623,2,3,3,1,-9.59,-3.06,-1.96,0.88,1.94,-11.42
4.230029106140137,2,3,3,1,-10.21,-3.68,-1.01,-2.98,3.08,-9.84
4.25002908706665,2,3,3,1,-9.359999999999999,-2.45,-1.19,-3.53,3.31,-9.130000000000001
4.270029067993164,2,3,3,1,-8.35,-3.46,-2.22,-0.09,3.95,-9.960000000000001
4.290029048919678,2,3,3,1,-7.96,-3.41,-0.76,1.32,3.66,-9.949999999999999
4.310029029846191,2,3,3,1,-7.99,-4.53,-0.36,1.81,2.49,-7.71
4.330029010772705,2,3,3,1,-9.17,-5.04,-1.72,1.29,1.22,-5.22
4.350028991699219,2,3,3,1,-9.470000000000001,-4.18,-1.88,1.51,0.74,-4.33
4.370028972625732,2,3,3,1,-9.779999999999999,-2.1,-2.86,1.63,0.49,-3.21
4.390028953552246,2,3,3,1,-9.84,-2.39,-2.97,1.33,0.39,-2.64
4.41002893447876,2,3,3,1,-11.56,-3.11,-2.09,-0.19,0.46,0.71
4.430029153823853,2,3,3,1,-12.34,-1.21,-1.6,-1.01,0.8,3.19
4.450029134750366,2,3,3,1,-12.44,-0.99,-1.25,-1.83,0.61,4.35
4.47002911567688,2,3,3,1,-14.34,-1.64,-1.8,-5.44,-0.51,8.59
4.490029096603394,2,3,3,1,-15.07,-1.45,-1.8,-5.76,-1.36,10.74
4.510029077529907,2,3,3,1,-19.69,1.47,-3.43,-2.42,-6.68,18.79
4.530029058456421,2,3,3,1,-23.19,1.96,-3.44,0.99,-11.57,24.07
4.550029039382935,2,3,3,1,-24.79,3.09,-3.22,3.28,-12.25,25.98
4.570029020309448,2,3,3,1,-28.19,-0.88,-1.86,3.14,-7.5,23.03
4.592029094696045,2,3,3,1,-23.64,-8.57,-0.84,-1.17,-5.51,20.09
4.610028982162476,2,3,3,1,-16.17,-7.57,-0.63,2.02,-0.75,15.69
4.630028963088989,2,3,3,1,-7.9,-0.3,1.86,3.19,4.91,10.29
4.650028944015503,2,3,3,1,-5.22,-3.4,2.48,-5.94,9.25,9.18
4.670029163360596,2,3,3,1,2.66,-14.57,-1.99,-3.68,7.54,9.48
4.690029144287109,2,3,3,1,3.36,-10.58,-1.89,1.22,1.18,5.47
4.710029125213623,2,3,3,1,1.75,0.75,1.28,0.52,1.24,5.08
4.730029106140137,2,3,3,1,-0.07000000000000001,1.57,0.79,-5.53,0.35,1.55
4.75002908706665,2,3,3,1,-2.27,1.83,-0.45,-9.34,0.33,0.52
4.770029067993164,2,3,3,1,-2.01,-0.09,-0.1,-9.359999999999999,-0.32,0.78
4.790029048919678,2,3,3,1,-1.48,-2.21,0.35,-3.03,0.72,0.8
4.810029029846191,2,3,3,1,-0.92,-1.09,-0.48,2.7,0.93,0.88
4.830029010772705,2,3,3,1,-1.04,-0.6,-0.13,3.56,0.5,1.6
4.850028991699219,2,3,3,1,-1.13,-1.7,-0.15,2.96,0.74,1.77
4.870028972625732,2,3,3,1,-1.24,-2.48,0.38,4.2,0.41,0.95
4.890028953552246,2,3,3,1,-1.25,-2.52,0.9399999999999999,4.78,-0.52,-0.25
4.91002893447876,2,3,3,1,-0.75,-3.85,2.16,5.06,-1.13,-2.15
4.930029153823853,2,3,3,1,-0.55,-3.88,1.8,3.89,-1.1,-4.8
4.950029134750366,2,3,3,1,-0.51,-3.6,0.47,1.43,-0.9,-7.18
4.97002911567688,2,3,3,1,-0.39,-3.56,-1.46,1.84,-1.06,-9.32
4.990029096603394,2,3,3,0,-3.05,-24.55,7.97,-0.2,-2.18,-11.48
5.010029077529907,2,3,3,0,-18.09,17.15,-3.77,5.53,-2.99,-10.33
5.030029058456421,2,3,3,0,-39.25,-4.06,8.33,-0.58,-16.31,-2.15
5.050029039382935,2,3,3,0,-10.39,7.65,-3.44,-1.62,1.08,-13.87
5.070029020309448,2,3,3,0,-26.6,2.35,-6.56,-13.37,2.17,-8.75
5.090029001235962,2,3,3,0,-20.42,12.13,-3.77,1.04,0.53,-4.05
5.110028982162476,2,3,3,0,-15.74,11.24,-4.83,8.01,4.13,0.18
5.130028963088989,2,3,3,0,-18.57,2.19,-0.1,-0.2,3.5,5.83
5.151029109954834,2,3,3,0,-17.55,-0.04,0.72,-2.31,0.84,5.45
5.171029090881348,2,3,3,0,-12.75,1.62,-0.44,0.85,0.76,3.49
5.191029071807861,2,3,3,0,-10.13,2.67,-1.13,1.73,1.43,2.89
5.211029052734375,2,3,3,0,-7.68,1.77,-1.97,-0.62,1.06,5.12
5.231029033660889,2,3,3,0,-7.32,0.84,-2.07,-3.57,0.64,7.87
5.251029014587402,2,3,3,0,-7.72,-1.35,-2.17,-5.74,0.78,8.710000000000001
5.271028995513916,2,3,3,0,-7.7,-2.53,-2.09,-6.59,1.33,8.02
5.29102897644043,2,3,3,0,-6.78,-3.83,-1.99,-6.03,1.23,6.91
5.311028957366943,2,3,3,0,-6.37,-4.25,-1.48,-2.93,1.27,6.05
5.331028938293457,2,3,3,0,-7.31,-3.62,-1.03,0.7,1.98,5.88
5.35102915763855,2,3,3,0,-8.18,-2.09,-0.39,5.13,1.56,5.08
5.371029138565063,2,3,3,0,-9.869999999999999,-0.59,0.15,7.69,1.55,3.95
5.391029119491577,2,3,3,0,-10.42,0.45,1.08,7.99,0.82,2.61
5.411029100418091,2,3,3,0,-10.86,0.82,1.26,6.84,0.62,1.48
5.431029081344604,2,3,3,0,-11.05,1.29,1.05,4.59,0.3,0.99
5.451029062271118,2,3,3,0,-11.04,2.25,-0.2,3.28,0.15,0.63
5.471029043197632,2,3,3,0,-10.53,1.64,-1.35,0.43,0.68,0.5600000000000001
5.491029024124146,2,3,3,0,-9.869999999999999,-0.06,-1.82,-1.91,0.86,0.62
5.511029005050659,2,3,3,0,-9.48,-0.39,-1.78,-1.52,0.74,0.8
5.531028985977173,2,3,3,0,-9.529999999999999,-0.11,-1.48,-0.9,0.85,1.32
5.551028966903687,2,3,3,0,-9.77,-0.17,-1.61,-0.48,0.92,2.07
5.5710289478302,2,3,3,0,-9.57,0.33,-1.46,-0.03,0.72,2.36
5.591029167175293,2,3,3,1,-9.390000000000001,0.84,-1.14,0.18,0.89,2.6
5.611029148101807,2,3,3,1,-9.33,1.39,-1.25,-0.8,0.66,2.87
5.63102912902832,2,3,3,1,-9.31,0.77,-1.38,-3.45,0.09,3.02
5.651029109954834,2,3,3,1,-9.4,-1.84,-1.1,-5.54,-0.44,2.58
5.671029090881348,2,3,3,1,-9.289999999999999,-3.03,-0.43,-5.23,-0.6,1.07
5.691029071807861,2,3,3,1,-9.06,-3.76,0.57,-3.18,-0.7,-0.75
5.711029052734375,2,3,3,1,-8.94,-3.76,0.11,-1,-0.77,-2.5
5.731029033660889,2,3,3,1,-9.34,-3.45,0.31,0.17,-1.2,-3.4
5.751029014587402,2,3,3,1,-9.77,-3.81,0.76,0.96,-2.42,-4.78
5.771028995513916,2,3,3,1,-9.890000000000001,-5.08,0.65,0,-3.54,-7.02
5.79102897644043,2,3,3,1,-9.35,-3.62,-0.16,1.1,-3.61,-10.17
5.811028957366943,2,3,3,1,-8.359999999999999,0.45,-0.02,7.01,-2.26,-12.01
5.831028938293457,2,3,3,1,-7.93,2.23,-1.06,6.29,-1.03,-12.44
5.85102915763855,2,3,3,1,-6.5,1.58,-1.5,-1.61,-3.01,-12.77
5.871029138565063,2,3,3,1,-6.43,-0.85,-1.75,-3.37,-2.35,-13.02
5.891029119491577,2,3,3,1,-8.31,-3.17,-3.09,1.39,0.85,-12.01
5.911029100418091,2,3,3,1,-10.92,-5.39,0.55,-0.78,-1.17,-10.31
5.931029081344604,2,3,3,1,-11.77,-1.58,-1.46,4.77,-0.26,-10.17
5.951029062271118,2,3,3,1,-10.56,2.19,-1.87,3.06,-0.63,-13.4
5.971029043197632,2,3,3,1,-9.18,3.6,-3.09,1.48,2.37,-15.55
5.991029024124146,2,3,3,0,-5.14,4.14,-1.7,-1,4.7,-15.46
6.011029005050659,2,3,3,0,-4.27,2.48,-2.47,-0.57,5.6,-14.23
6.031028985977173,2,3,3,0,-7.9,-4.71,-1.79,-2.53,3.8,-10.23
6.051028966903687,2,3,3,0,-13.12,-9.890000000000001,-2.38,-1.41,2.14,-5.18
6.0710289478302,2,3,3,0,-16.43,-6.62,-2.8,5.08,-0.52,-5.42
6.091029167175293,2,3,3,0,-14,-0.26,-2.59,10.74,0.26,-9.140000000000001
6.111029148101807,2,3,3,0,-9.52,2.94,-2.47,8,2.34,-10.11
6.13102912902832,2,3,3,0,-9.27,0.71,-3.09,2.07,1.94,-6.75
6.151029109954834,2,3,3,0,-14.84,-3.38,-3.06,-2.26,1.82,-1.59
6.171029090881348,2,3,3,0,-16.99,-1.27,-1.62,-1.2,0.63,2.07
6.192028999328613,2,3,3,0,-15.76,1.39,-1.51,-2.42,1.98,4.23
6.212028980255127,2,3,3,0,-15.58,-0.09,-1.57,-7.48,3.14,5.42
6.232028961181641,2,3,3,0,-16.6,-3.22,-0.57,-9.119999999999999,1.99,9.789999999999999
6.252028942108154,2,3,3,0,-17.71,-3.22,0.02,-2.55,-1.94,16.58
6.272029161453247,2,3,3,0,-21.04,1.88,0.82,11.12,-10.27,22.08
6.292029142379761,2,3,3,0,-25.05,8.01,0.79,17.43,-13.84,27.65
6.312029123306274,2,3,3,0,-34.21,7.4,-3.22,10.76,-9.359999999999999,28.81
6.332029104232788,2,3,3,0,-29.58,-5.17,-4.67,-2.96,-3.41,25.13
6.352029085159302,2,3,3,0,-20.09,-5.05,-6.48,-12.82,1.31,23.61
6.372029066085815,2,3,3,0,-11.41,-10.2,-4.01,-18.57,11.23,25.36
6.392029047012329,2,3,3,0,-5.9,-39.01,3.89,-20.5,7.64,24.16
6.412029027938843,2,3,3,0,1.74,-15.35,5.1,4.5,0.44,5.57
6.432029008865356,2,3,3,0,1.37,-10.05,9.93,6.81,1.53,0.27
6.45202898979187,2,3,3,0,0.6,9.16,0.51,-15.95,-3.81,-8.359999999999999
6.472028970718384,2,3,3,0,0.24,10.74,-4.33,-23.36,-0.8,-10.99
6.492028951644897,2,3,3,0,0.18,5,-5.79,-20.04,2.02,-4.84
6.512028932571411,2,3,3,0,1.1,-2.53,-4.09,-6.21,0.06,0.65
6.532029151916504,2,3,3,0,-1.52,-3.52,-0.66,9.18,-1.16,3.17
6.552029132843018,2,3,3,0,-2.72,-2.15,1.65,18.43,-0.57,5.84
6.572029113769531,2,3,3,0,-2.41,0.8100000000000001,2.58,19.16,0.45,4.97
6.592029094696045,2,3,3,0,-1.72,1.75,1.32,12.04,2.94,2.87
6.612029075622559,2,3,3,0,0.15,2.8,-0.75,7.6,4.54,1.41
6.632029056549072,2,3,3,0,1.48,2.23,-0.05,3.92,2.78,0.65
6.652029037475586,2,3,3,1,2.44,0.66,1.21,1.89,-0.06,0.14
6.6720290184021,2,3,3,1,1.13,-0.66,0.55,-0.89,-0.79,-0.32
6.692028999328613,2,3,3,1,-1.18,-1.19,0.67,0.21,-0.6,-0.46
6.712028980255127,2,3,3,1,-1.85,-0.7,0.58,3.22,-0.71,-0.52
6.732028961181641,2,3,3,1,-1.26,-0.67,0.19,3.75,-0.9399999999999999,-0.13
6.752028942108154,2,3,3,1,-1.31,-1.54,0.85,2.2,-1.48,-0.74
6.772029161453247,2,3,3,1,-1.76,-4.54,1.47,0.6899999999999999,-2.76,-2.81
6.792029142379761,2,3,3,0,-1.78,-6.64,1.36,1.73,-3.06,-6.32
6.812029123306274,2,3,3,0,-1.86,-7.59,0.51,4.5,-2.64,-9.94
6.832029104232788,2,3,3,0,-0.87,-3.07,0.44,10.64,-2.11,-12.19
6.852029085159302,2,3,3,0,-8.98,-26.95,14,-1.05,0.39,-12.96
6.872029066085815,2,3,3,0,-20.12,35.2,-12.63,30.88,-10.84,-4
6.892029047012329,2,3,3,0,-38.96,-4.17,-16.21,-18.86,-2.65,-3.56
6.912029027938843,2,3,3,0,-26.27,-32.59,1.44,-35.34,-3.54,-13.99
6.932029008865356,2,3,3,0,-39.2,1.81,0.51,17.77,-3.64,-24.64
6.95202898979187,2,3,3,0,-19.14,31.21,1.16,29.12,7.66,-17
6.972028970718384,2,3,3,0,-11.72,26.46,2.89,-4.77,6.08,-8.67
6.992028951644897,2,3,3,0,-9.380000000000001,9.75,-3.66,-22.66,-0.88,-1.4
7.012028932571411,2,3,3,0,-10.64,2.27,-8.52,-21.62,-4.55,2.71
7.032029151916504,2,3,3,0,-13.43,-3.29,-8.949999999999999,-6.45,-6.15,6.49
7.052029132843018,2,3,3,0,-16.41,-4.98,-8.24,5.13,-4.31,7.62
7.072029113769531,2,3,3,0,-17.86,-6.67,-4.03,8.84,-1.15,7.47
7.092029094696045,2,3,3,0,-14.55,-3.52,-1.56,16.76,2.84,6.54
7.112029075622559,2,3,3,0,-9.1,2.65,0.54,15.32,6.27,5.55
7.132029056549072,2,3,3,0,-6.55,4.4,1.71,6.28,5.94,6.1
7.152029037475586,2,3,3,0,-4.49,3.66,1.7,-1.46,3.98,7.21
7.1720290184021,2,3,3,0,-4.99,1.23,0.96,-7.44,3.24,7.18
7.192028999328613,2,3,3,0,-6.13,-3.23,1.08,-8.029999999999999,0.73,7.44
7.213029146194458,2,3,3,0,-8.18,-5.44,0.99,-2.69,-1.35,6.55
7.233029127120972,2,3,3,0,-9.9,-5.49,1.51,4.74,-1.16,4.23
7.253029108047485,2,3,3,0,-10.19,-4.43,1.86,8.26,-0.01,2.33
7.273029088973999,2,3,3,0,-9.93,-3.82,1.51,5.81,0.6,0.82
7.293029069900513,2,3,3,0,-9.65,-2.75,0.99,5.45,0.32,0.15
7.313029050827026,2,3,3,0,-8.970000000000001,1.15,-0.26,5.35,0.75,0.62
7.33302903175354,2,3,3,0,-9.06,1.51,-0.98,-1.05,0.38,1.16
7.353029012680054,2,3,3,0,-9.07,0,-1.06,-6.7,-0.77,0.8
7.373028993606567,2,3,3,0,-9.44,-0.64,-1.35,-8.23,-1.35,-0.19
7.393028974533081,2,3,3,0,-9.859999999999999,-2.45,-0.82,-8.210000000000001,-1.15,-0.62
7.413028955459595,2,3,3,0,-9.83,-2.53,-0.52,-4.98,-0.38,-0.26
7.433028936386108,2,3,3,0,-9.76,-2.02,-0.62,-2.39,0.64,0.37
7.453029155731201,2,3,3,0,-9.800000000000001,-1.56,-0.78,0.11,0.68,0.77
7.473029136657715,2,3,3,0,-9.720000000000001,-0.33,-1.07,1.65,0.36,1.2
7.493029117584229,2,3,3,0,-9.51,0.22,-1.09,0.92,0.16,1.52
7.513029098510742,2,3,3,0,-9.4,-0.01,-1.08,-0.78,0.08,1.8
7.533029079437256,2,3,3,0,-9.619999999999999,-0.3,-0.73,-1.26,0.2,1.8
7.55302906036377,2,3,3,0,-9.949999999999999,-0.91,-0.65,-0.88,0.26,1.54
7.573029041290283,2,3,3,0,-9.85,-0.7,-0.47,-0.76,0.19,1.55
7.593029022216797,2,3,3,0,-10.02,-0.7,-0.2,-0.64,0.24,1.33
7.613029003143311,2,3,3,0,-9.74,0.16,-0.19,0.32,0.04,1.05
7.633028984069824,2,3,3,0,-9.699999999999999,0.37,-0.4,-0.24,0.14,1.02
7.653028964996338,2,3,3,0,-9.550000000000001,0.28,-0.46,-1.07,-0.29,1.25
7.673028945922852,2,3,3,0,-9.59,0.11,-0.74,-1.33,-0.02,1.23
7.693029165267944,2,3,3,0,-9.77,0.35,-0.73,-0.74,0.12,0.9399999999999999
7.713029146194458,2,3,3,0,-9.91,0.36,-0.88,-0.59,0.26,1.06
7.733029127120972,2,3,3,0,-9.970000000000001,0,-1.02,-0.61,0.49,1.09
7.753029108047485,2,3,3,0,-9.9,0.19,-0.62,0.01,0.52,1.22
7.773029088973999,2,3,3,0,-9.84,0.39,-0.62,-0.05,0.5,1.47
7.793029069900513,2,3,3,0,-9.640000000000001,0.36,-0.77,-0.49,0.37,1.47
7.813029050827026,2,3,3,0,-9.91,-0.38,-1.05,-0.71,0.42,1.25
7.83302903175354,2,3,3,0,-10.08,-0.57,-0.73,-0.38,0.5,0.89
7.853029012680054,2,3,3,0,-9.91,-0.05,-0.44,0.06,0.45,0.6
7.873028993606567,2,3,3,0,-9.73,0.31,-0.47,0.34,0.13,0.39
7.893028974533081,2,3,3,0,-9.49,0.52,-0.85,0.49,-0.22,0.39
7.913028955459595,2,3,3,0,-9.630000000000001,0.64,-1.23,0.87,-0.08,0.36
7.933028936386108,2,3,3,0,-9.949999999999999,0.89,-1.13,0.96,0.03,0.49
7.953029155731201,2,3,3,0,-9.859999999999999,0.75,-0.9399999999999999,0.62,0.21,0.49
7.973029136657715,2,3,3,0,-9.73,0.52,-0.61,0.59,0.24,0.18
7.993029117584229,2,3,3,0,-9.31,0.84,-0.62,1.08,0.01,0.07000000000000001
8.013029098510742,2,3,3,0,-9.529999999999999,0.64,-1.32,0.89,0.04,0.05
8.033029079437256,2,3,3,0,-9.66,0.57,-1.06,1.38,-0.19,0.04
8.05302906036377,2,3,3,0,-10.1,0.66,-0.66,1.45,0.03,-0.03
8.073029041290283,2,3,3,0,-10.04,1,-0.42,1.13,-0.15,-0.07000000000000001
8.093029022216797,2,3,3,0,-9.94,0.57,-0.74,0.54,0.26,-0.33
8.113029003143311,2,3,3,0,-9.81,0.16,-0.96,-0.1,0.17,-0.52
8.133028984069824,2,3,3,0,-9.779999999999999,0.09,-0.64,0.61,-0.12,-0.47
8.153028964996338,2,3,3,0,-9.630000000000001,0.48,-0.51,1.23,0.05,-0.28
8.173028945922852,2,3,3,0,-9.210000000000001,0.59,-0.75,0.29,0.06,-0.19
8.193029165267944,2,3,3,0,-9.220000000000001,0.44,-0.91,0,-0.05,-0.03
8.213029146194458,2,3,3,0,-9.81,0.13,-1.32,0.23,-0.06,0.01
8.234029054641724,2,3,3,0,-10.11,0.25,-1.1,0.71,-0.14,-0.22
8.254029035568237,2,3,3,0,-10.08,0.45,-0.72,0.78,-0.13,-0.26
8.274029016494751,2,3,3,0,-9.92,0.37,-0.82,0.5,-0.02,-0.47
8.294028997421265,2,3,3,0,-9.52,0.26,-0.68,0.22,-0.12,-0.45
8.314028978347778,2,3,3,0,-9.73,0.05,-0.74,0.36,-0.07000000000000001,-0.36
8.334028959274292,2,3,3,0,-9.779999999999999,0.35,-0.18,0.84,-0.24,-0.37
8.354028940200806,2,3,3,0,-9.51,0.26,-0.71,0.33,-0.1,-0.48
8.374029159545898,2,3,3,0,-9.67,-0.3,-0.95,-0.31,-0.13,-0.66
8.394029140472412,2,3,3,0,-9.880000000000001,-0.99,-0.62,-0.08,-0.33,-1.04
8.414029121398926,2,3,3,0,-9.92,-1.5,-0.49,-0.28,-0.4,-1.83
8.434029102325439,2,3,3,0,-9.81,-3.03,0.05,-1.24,-0.53,-3.17
8.454029083251953,2,3,3,0,-9.609999999999999,-4.33,0.65,-1.6,-1.03,-5.28
8.474029064178467,2,3,3,0,-8.640000000000001,-6,1.69,-1.48,-1.76,-7.9
8.49402904510498,2,3,3,0,-7.95,-6.34,1.64,-1.07,-1.9,-10.44
8.514029026031494,2,3,3,0,-7.34,-3.52,-0.35,1.6,-1.87,-11.54
8.534029006958008,2,3,3,0,-5.07,-1.3,0.62,0.49,-2.45,-10.5
8.554028987884521,2,3,3,0,-6,-2.23,-0.05,-1.15,-0.96,-10.81
8.574028968811035,2,3,3,0,-6.57,-3.54,0.11,-2.24,1.08,-12.35
8.594028949737549,2,3,3,0,-6.64,-3.38,-1.04,-1.65,1.26,-13.17
8.614028930664062,2,3,3,0,-4.41,-0.07000000000000001,-2.31,5.34,5.42,-13.26
8.634029150009155,2,3,3,0,-5.38,2.84,-4.22,4.88,6.01,-12
8.654029130935669,2,3,3,0,-7,0.4,-2.88,-3.52,2.44,-5.97
8.674029111862183,2,3,3,0,-11.59,-5.08,-1.05,0.7,2.1,-4.13
8.694029092788696,2,3,3,0,-15.2,-5.09,-1.99,1.8,1.42,-4.07
8.71402907371521,2,3,3,0,-16.48,2.42,-2.51,8.66,1.81,-5.07
8.734029054641724,2,3,3,0,-14.05,6.58,-3.74,8.41,2.47,-3.84
8.754029035568237,2,3,3,0,-13.32,8.31,-2.26,-2.51,1.87,1.82
8.774029016494751,2,3,3,0,-16.09,5.14,-2.76,-9.44,-1.4,7.77
8.794028997421265,2,3,3,0,-24.38,-0.72,-3.03,-11.43,-2.66,11.17
8.814028978347778,2,3,3,0,-26.49,-1.42,-2.47,-0.11,-4.92,13.1
8.834028959274292,2,3,3,0,-24.7,3.77,-0.9,4.76,-5.22,13.28
8.854028940200806,2,3,3,0,-25.18,7.5,0.25,8.800000000000001,-6.51,20.06
8.874029159545898,2,3,3,0,-30.84,9.24,-0.32,2.27,-5.49,24.8
8.894029140472412,2,3,3,0,-32.63,5.31,-3.43,-2.16,-3.03,25.31
8.914029121398926,2,3,3,0,-23.16,-5.26,-5.76,-14.32,6.26,24.07
8.934029102325439,2,3,3,0,-11.66,-2.19,-4.37,-17.56,13.32,23.22
8.954029083251953,2,3,3,0,-7.58,-32.92,-4.24,-14.93,8.289999999999999,11.41
8.974029064178467,2,3,3,0,-1.55,-23.3,5.21,7.56,-1.43,4.07
8.99402904510498,2,3,3,0,3.41,-8.19,6.88,9.720000000000001,-1.42,3.12
9.014029026031494,2,3,3,0,-0.1,5.15,4.39,-16.79,-0.87,-7.12
9.034029006958008,2,3,3,0,-0.24,11.65,-2.34,-23.19,0.52,-8.09
9.054028987884521,2,3,3,0,0.16,6.26,-6.51,-22.44,1.09,-2.42
9.074028968811035,2,3,3,0,-0.53,-0.28,-5.06,-12.66,-1.41,-0.77
9.094028949737549,2,3,3,0,-1.3,-7.72,-0.39,-5.53,-0.97,0.16
9.114028930664062,2,3,3,0,-2.01,-5.9,1.55,14.16,0.98,1.3
9.134029150009155,2,3,3,0,-1.34,-1.75,1.43,15.58,1.84,0.4
9.154029130935669,2,3,3,0,-0.8,0.92,0.08,11.25,3.27,-2.19
9.174029111862183,2,3,3,0,0.8100000000000001,3.12,-0.78,8.33,4.23,-2.17
9.194029092788696,2,3,3,0,1.9,4.3,-0.74,7.37,3.65,-1.97
9.21402907371521,2,3,3,0,2.79,3.93,0.15,-2.2,1.49,-1.41
9.234029054641724,2,3,3,1,2.14,0.79,0.18,-5.06,1.01,-1.6
9.255028963088989,2,3,3,1,-0.21,-2.48,0.98,-3.14,-0.17,-2.15
9.275028944015503,2,3,3,1,-1.41,-3.19,0.92,1.44,-0.64,-2.68
9.295029163360596,2,3,3,1,-2.27,-4.09,1.21,2.69,-0.99,-3.15
9.315029144287109,2,3,3,1,-3.08,-6.26,1.98,8.52,-1.74,-6.46
9.335029125213623,2,3,3,1,-4.31,-8.9,3.09,9.789999999999999,-1.84,-8.109999999999999
9.355029106140137,2,3,3,1,-4.92,-8.66,2.29,9.9,-2.08,-13
9.37502908706665,2,3,3,1,-4.1,-0.84,-1.32,13.74,0.44,-14.03
9.395029067993164,2,3,3,1,-3.78,9.5,-2.72,13.5,0.96,-13.58
9.415029048919678,2,3,3,1,-13.83,-1.9,5.99,17.21,-6.48,-9.31
9.435029029846191,2,3,3,0,-22.99,21.91,-4.54,4.86,-9.460000000000001,-2.76
9.455029010772705,2,3,3,0,-28.51,-3.31,-8.08,-31.18,2.19,-15.1
9.475028991699219,2,3,3,0,-32.99,-32.25,-4.45,1.64,0.64,-20.68
9.495028972625732,2,3,3,0,-33.01,7.51,-0.24,20.78,5.12,-16.29
9.515028953552246,2,3,3,0,-12.42,28.82,-2.24,10.13,6.74,-14.88
9.53502893447876,2,3,3,0,-9.81,15.37,-4.33,-2.82,4.69,-7.99
9.555029153823853,2,3,3,0,-13.24,-4.32,-3.78,-10.83,-0.52,4.81
9.575029134750366,2,3,3,0,-17.54,-11.42,-3.35,-6.89,-4.42,6.49
9.59502911567688,2,3,3,0,-19.3,-5.11,-2.51,8.49,-3.37,2.58
9.615029096603394,2,3,3,0,-14.06,2.57,-3.55,6.09,-0.84,2.02
9.635029077529907,2,3,3,0,-12.2,2.19,-2.3,0.96,-0.28,2.3
9.655029058456421,2,3,3,0,-7.78,1.48,-1.75,-3.52,-0.11,0.6
9.675029039382935,2,3,3,0,-4.83,-0.75,-0.87,-3.06,-1.13,1.95
9.695029020309448,2,3,3,0,-4.44,-1.6,-0.51,-0.6,-2.42,5.19
9.715029001235962,2,3,3,0,-6.44,-4.16,-0.8100000000000001,2.46,-2.53,8.279999999999999
9.735028982162476,2,3,3,0,-7,-4.31,-0.95,4.03,-2.07,9.23
9.755028963088989,2,3,3,0,-7.88,-3.07,-1.09,2.02,-1.46,7.38
9.775028944015503,2,3,3,0,-7.46,-3.13,-1.02,-1.13,0.04,4.46
9.795029163360596,2,3,3,0,-7.12,-3.35,-0.44,-2.56,0.85,2.71
9.815029144287109,2,3,3,0,-7.81,-3.95,0.73,-3.59,-0.07000000000000001,2.53
9.835029125213623,2,3,3,0,-8.470000000000001,-4.2,1.98,-2.15,-0.6,2.09
9.855029106140137,2,3,3,0,-9.119999999999999,-3.46,1.7,-0.82,-0.8,0.91
9.87502908706665,2,3,3,0,-9.15,-2.48,0.32,-0.59,-1.41,-0.04
9.895029067993164,2,3,3,0,-9.369999999999999,-2.35,0.01,-1.01,-1.72,-0.64
9.915029048919678,2,3,3,0,-9.970000000000001,-1.7,-1.79,-0.5600000000000001,-1.16,-0.42
9.935029029846191,2,3,3,0,-9.960000000000001,-1.46,-1.92,-0.41,-0.45,-0.37
9.955029010772705,2,3,3,0,-9.75,-1.91,-0.84,-0.09,-0.23,-0.46
9.975028991699219,2,3,3,0,-10.13,-2,0.06,0.71,-0.5,-0.41
9.995028972625732,2,3,3,0,-10.23,-1.57,0.18,1.64,-0.53,-0.19
10.01502895355225,2,3,3,0,-10.54,-0.25,-0.02,0.6899999999999999,-0.51,0.01
10.03502893447876,2,3,3,0,-10.25,-0.74,0.01,-0.68,-0.5,0.13
10.05502915382385,2,3,3,0,-10.03,-1.57,-0.18,-1.33,-0.45,0.11
10.07502913475037,2,3,3,0,-9.720000000000001,-1.53,-0.72,-1.1,-0.37,-0.12
10.09502911567688,2,3,3,0,-9.4,-1.34,-0.99,-1.18,-0.35,-0.43
10.11502909660339,2,3,3,0,-9.199999999999999,-1.11,-1.08,-0.33,-0.24,-0.2
10.13502907752991,2,3,3,0,-9.210000000000001,-0.77,-0.82,0.35,0.14,0.44
10.15502905845642,2,3,3,0,-9.529999999999999,-1.18,-0.61,0.37,0.07000000000000001,0.74
10.17502903938293,2,3,3,0,-9.65,-1.73,-0.16,0.26,-0.04,0.35
10.19502902030945,2,3,3,0,-9.539999999999999,-1.57,-0.19,1,0.25,-0.16
10.21502900123596,2,3,3,0,-9.58,-1.2,-0.45,1.07,0.22,-0.24
10.23502898216248,2,3,3,0,-9.619999999999999,-1,-0.42,0.58,0.13,-0.18
10.25502896308899,2,3,3,0,-9.82,-0.5,-1.08,0.74,0.53,-0.08
10.27602910995483,2,3,3,0,-9.82,-0.65,-0.95,0.37,0.64,0.01
10.29602909088135,2,3,3,0,-9.81,-1.06,-0.6,-0.12,0.22,-0.04
10.31602907180786,2,3,3,0,-9.99,-1.49,-0.5600000000000001,-0.12,0.13,-0.4
10.33602905273438,2,3,3,0,-9.970000000000001,-1.12,-0.7,0.67,0.53,-0.55
10.35602903366089,2,3,3,0,-9.67,-0.67,-0.96,0.77,0.66,-0.17
10.3760290145874,2,3,3,0,-9.66,-1.27,-0.75,0.6,0.74,0.04
10.39602899551392,2,3,3,0,-9.710000000000001,-1.48,-0.66,0.61,0.47,0.03
10.41602897644043,2,3,3,0,-9.74,-1.25,-0.65,0.6,0.41,-0.06
10.43602895736694,2,3,3,0,-9.800000000000001,-1.28,-0.4,0.21,0.27,-0.02
10.45602893829346,2,3,3,0,-9.720000000000001,-1.39,-0.58,0.04,0.23,0.05
10.47602915763855,2,3,3,0,-9.65,-1.25,-0.53,0.23,0.33,-0.13
10.49602913856506,2,3,3,0,-9.51,-1.15,-0.73,0.26,0.36,-0.23
10.51602911949158,2,3,3,0,-9.69,-1.22,-0.75,0.16,0.23,-0.2
10.53602910041809,2,3,3,0,-9.77,-1.18,-0.79,0.05,0.24,-0.2
10.5560290813446,2,3,3,0,-9.69,-1.51,-0.91,-0.02,0.27,-0.19
10.57602906227112,2,3,3,0,-9.76,-1.76,-0.71,0.03,0.14,-0.16
10.59602904319763,2,3,3,0,-9.76,-1.33,-0.6899999999999999,0.33,0.07000000000000001,-0.28
10.61602902412415,2,3,3,0,-9.640000000000001,-0.85,-0.9399999999999999,0.5,0.28,-0.27
10.63602900505066,2,3,3,0,-9.69,-0.86,-0.99,0.29,0.24,-0.05
10.65602898597717,2,3,3,0,-9.869999999999999,-1.18,-1.02,0.11,0.13,0.13
10.67602896690369,2,3,3,0,-9.869999999999999,-1.4,-0.54,0.16,0.12,-0.06
10.6960289478302,2,3,3,0,-9.69,-1.32,-0.5,0.39,0.16,-0.21
10.71602916717529,2,3,3,0,-9.550000000000001,-1.19,-0.78,0.47,0.1,-0.2
10.73602914810181,2,3,3,0,-9.58,-1.22,-0.96,0.45,0.03,-0.12
10.75602912902832,2,3,3,0,-9.67,-1.29,-0.93,0.39,0.11,-0.09
10.77602910995483,2,3,3,0,-9.65,-1.45,-0.8,0.27,0.13,-0.11
10.79602909088135,2,3,3,0,-9.789999999999999,-1.54,-0.64,0.26,0,-0.17
10.81602907180786,2,3,3,0,-9.73,-1.12,-0.79,0.7,0.21,-0.18
10.83602905273438,2,3,3,0,-9.710000000000001,-0.88,-0.74,0.45,0.26,0
10.85602903366089,2,3,3,0,-9.720000000000001,-1.1,-0.76,0.02,0.09,0.01
10.8760290145874,2,3,3,0,-9.82,-1.28,-0.86,0.01,0.15,-0.05
10.89602899551392,2,3,3,0,-9.74,-1.25,-0.78,0.2,0.09,-0.03
10.91602897644043,2,3,3,0,-9.699999999999999,-1.29,-0.62,0.23,0.05,0
10.93602895736694,2,3,3,0,-9.77,-1.23,-0.57,-0.02,0.08,-0.04
10.95602893829346,2,3,3,0,-9.699999999999999,-1.17,-0.84,-0.08,0.15,0.04
10.97602915763855,2,3,3,0,-9.699999999999999,-1.12,-0.77,-0.08,0.1,0.15
10.99602913856506,2,3,3,0,-9.710000000000001,-1.48,-0.53,-0.44,-0.06,0.18
11.01602911949158,2,3,3,0,-9.699999999999999,-1.56,-0.63,-0.22,-0.04,-0.03
11.03602910041809,2,3,3,0,-9.56,-1.35,-0.76,-0.1,0.01,-0.12
11.0560290813446,2,3,3,0,-9.550000000000001,-1.41,-0.78,-0.35,-0.1,-0.05
11.07602906227112,2,3,3,0,-9.59,-1.56,-0.82,-0.54,-0.08,-0.03
11.09602904319763,2,3,3,0,-9.65,-1.62,-0.86,-0.5,-0.17,-0.1
11.11602902412415,2,3,3,0,-9.6,-1.34,-0.89,-0.08,-0.02,-0.08
11.13602900505066,2,3,3,0,-9.65,-1.07,-0.87,-0.02,0.02,0
11.15602898597717,2,3,3,0,-9.699999999999999,-1.21,-0.97,-0.35,-0.1,0.01
11.17602896690369,2,3,3,0,-9.77,-1.38,-0.78,0.05,0.05,-0.02
11.1960289478302,2,3,3,0,-9.67,-1.3,-0.74,0.4,0.07000000000000001,0
11.21602916717529,2,3,3,0,-9.68,-1.12,-0.82,0.55,0.04,0
11.23602914810181,2,3,3,0,-9.720000000000001,-1.04,-0.82,0.59,0.05,0.06
11.25602912902832,2,3,3,0,-9.81,-1.12,-0.78,0.33,-0.02,0.17
11.27602910995483,2,3,3,0,-9.789999999999999,-1.18,-0.6,0.23,0.11,0.13
11.29602909088135,2,3,3,0,-9.720000000000001,-1.21,-0.52,0.09,0.03,0.11
11.31702899932861,2,3,3,0,-9.710000000000001,-1.18,-0.62,-0.05,0.07000000000000001,0.06
11.33702898025513,2,3,3,0,-9.699999999999999,-1.32,-0.68,-0.2,-0.01,0.04
11.35702896118164,2,3,3,0,-9.640000000000001,-1.35,-0.85,-0.09,-0.03,0.02
11.37702894210815,2,3,3,0,-9.65,-1.44,-0.78,-0.02,0.01,0.03
11.39702916145325,2,3,3,0,-9.699999999999999,-1.4,-0.74,0.04,0.02,0.06
11.41702914237976,2,3,3,0,-9.65,-1.33,-0.77,0.04,0.16,0.09
11.43702912330627,2,3,3,0,-9.65,-1.4,-0.73,-0.07000000000000001,0.07000000000000001,0.11
11.45702910423279,2,3,3,0,-9.66,-1.28,-0.87,0.11,0.08,0.07000000000000001
11.4770290851593,2,3,3,0,-9.65,-1,-0.87,0.37,0.16,0.07000000000000001
11.49702906608582,2,3,3,0,-9.789999999999999,-0.97,-0.72,0.09,0.07000000000000001,0.3
11.51702904701233,2,3,3,0,-9.9,-1.21,-0.64,-0.23,0.08,0.34
11.53702902793884,2,3,3,0,-9.789999999999999,-1.26,-0.71,-0.11,0.14,0.28
11.55702900886536,2,3,3,0,-9.66,-1.16,-0.95,0.05,0.26,0.22
11.57702898979187,2,3,3,0,-9.609999999999999,-1.04,-0.9,0.06,0.18,0.35
11.59702897071838,2,3,3,0,-9.73,-1.14,-0.8100000000000001,-0.01,0.2,0.49
11.6170289516449,2,3,3,0,-9.73,-1.21,-0.65,-0.09,0.17,0.5
11.63702893257141,2,3,3,0,-9.76,-1.23,-0.6,-0.35,0.2,0.58
11.6570291519165,2,3,3,0,-9.74,-1.39,-0.6899999999999999,-0.49,0.19,0.5600000000000001
11.67702913284302,2,3,3,0,-9.73,-1.31,-0.65,-0.26,0.12,0.49
11.69702911376953,2,3,3,0,-9.52,-0.97,-0.9399999999999999,-0.18,0.13,0.47
11.71702909469604,2,3,3,0,-9.57,-0.92,-1.19,-0.16,0.21,0.65
11.73702907562256,2,3,3,0,-9.83,-1.26,-0.93,-0.27,0.1,0.87
11.75702905654907,2,3,3,0,-9.890000000000001,-1.25,-0.86,-0.15,0.09,0.91
11.77702903747559,2,3,3,0,-9.83,-1.01,-0.84,0.04,0.24,0.84
11.7970290184021,2,3,3,0,-9.640000000000001,-0.63,-0.96,0.19,0.25,0.83
11.81702899932861,2,3,3,0,-9.630000000000001,-0.63,-0.9399999999999999,0.3,0.27,0.96
11.83702898025513,2,3,3,0,-9.81,-0.88,-1.03,-0.22,0.19,1.15
11.85702896118164,2,3,3,0,-9.92,-0.98,-0.99,-0.05,0.11,1.19
11.87702894210815,2,3,3,0,-9.890000000000001,-0.77,-0.8100000000000001,0.12,0.11,1.26
11.89702916145325,2,3,3,0,-9.789999999999999,-0.67,-0.86,0.16,0.3,1.33
11.91702914237976,2,3,3,0,-9.82,-0.97,-0.92,-0.2,0.41,1.39
11.93702912330627,2,3,3,0,-9.789999999999999,-0.93,-0.97,0,0.26,1.47
11.95702910423279,2,3,3,0,-9.73,-0.89,-1.09,-0.01,0.35,1.46
11.9770290851593,2,3,3,0,-9.710000000000001,-0.99,-0.98,-0.12,0.28,1.46
11.99702906608582,2,3,3,0,-9.68,-0.88,-1.06,-0.12,0.29,1.51
12.01702904701233,2,3,3,0,-9.74,-0.73,-1.16,0,0.42,1.52
12.03702902793884,2,3,3,0,-9.76,-0.49,-1.02,-0.14,0.41,1.57
12.05702900886536,2,3,3,0,-9.779999999999999,-0.45,-1.08,-0.2,0.47,1.72
12.07702898979187,2,3,3,0,-9.779999999999999,-0.44,-1.02,-0.43,0.43,1.85
12.09702897071838,2,3,3,0,-9.720000000000001,-0.38,-0.9,-0.25,0.38,1.83
12.1170289516449,2,3,3,0,-9.710000000000001,-0.46,-0.95,-0.32,0.59,1.77
12.13702893257141,2,3,3,0,-9.720000000000001,-0.7,-0.85,-0.73,0.36,1.84
12.1570291519165,2,3,3,0,-9.789999999999999,-0.7,-0.92,-0.78,0.29,1.77
12.17702913284302,2,3,3,0,-9.68,-0.33,-1.04,-0.23,0.39,1.72
12.19702911376953,2,3,3,0,-9.67,0.2,-1.2,0.28,0.47,1.71
12.21702909469604,2,3,3,0,-9.68,0.06,-1.26,-0.57,0.44,1.96
12.23702907562256,2,3,3,0,-9.869999999999999,-0.42,-1.1,-1.13,0.55,2.2
12.25702905654907,2,3,3,0,-9.82,-0.5600000000000001,-1.13,-1.15,0.55,2.26
12.27702903747559,2,3,3,0,-9.789999999999999,-0.4,-1.01,-0.42,0.6,2.19
12.2970290184021,2,3,3,1,-9.699999999999999,-0.13,-0.89,-0.13,0.63,2.09
12.31702899932861,2,3,3,1,-9.640000000000001,-0.06,-1.1,-0.26,0.8,2.2
12.33802914619446,2,3,3,1,-9.73,-0.1,-0.95,-0.47,0.57,2.27
12.35802912712097,2,3,3,1,-9.779999999999999,-0.1,-1.18,-0.53,0.5600000000000001,2.33
12.37802910804749,2,3,3,1,-9.789999999999999,-0.1,-1.15,-0.65,0.8,2.37
12.398029088974,2,3,3,1,-9.74,-0.24,-1.03,-0.37,0.63,2.42
12.41802906990051,2,3,3,1,-9.710000000000001,-0.27,-1.07,-0.41,0.64,2.42
12.43802905082703,2,3,3,1,-9.56,-0.04,-1.08,-0.22,0.66,2.35
12.45802903175354,2,3,3,1,-9.57,0.08,-1.09,0.23,0.9,2.33
12.47802901268005,2,3,3,1,-9.6,0.17,-0.98,0.58,0.78,2.39
12.49802899360657,2,3,3,1,-9.48,0.02,-1.13,0.13,0.6,2.33
12.51802897453308,2,3,3,1,-9.52,0.25,-1.07,0.11,0.55,2.17
12.53802895545959,2,3,3,1,-9.75,0.36,-0.97,0.78,0.57,2.07
12.55802893638611,2,3,3,1,-9.800000000000001,0.52,-1.04,0.62,0.16,1.95
12.5780291557312,2,3,3,1,-9.869999999999999,0.5,-1.24,0.39,0.13,2.01
12.59802913665771,2,3,3,1,-9.81,0.3,-1.49,0.58,0.17,1.88
12.61802911758423,2,3,3,1,-9.779999999999999,-0.1,-1.06,0.75,0.02,1.81
12.63802909851074,2,3,3,1,-9.710000000000001,-0.14,-1.03,0.68,-0.27,1.69
12.65802907943726,2,3,3,1,-9.74,0.11,-1.54,0.6,-0.23,1.43
12.67802906036377,2,3,3,1,-9.699999999999999,-0.06,-1.53,0.31,-0.29,1.2
12.69802904129028,2,3,3,1,-9.699999999999999,-0.02,-1.49,-0.28,-0.42,1.16
12.7180290222168,2,3,3,1,-9.65,0.06,-1.45,-1.04,-0.61,1.14
12.73802900314331,2,3,3,1,-9.74,0.23,-1.59,-1.47,-0.67,1.01
12.75802898406982,2,3,3,1,-9.699999999999999,0.43,-1.56,-1.89,-0.82,1.17
12.77802896499634,2,3,3,1,-9.77,0.07000000000000001,-1.53,-2.25,-1.02,1.63
12.79802894592285,2,3,3,1,-9.779999999999999,-0.53,-1.32,-2.89,-1.32,1.78
12.81802916526794,2,3,3,1,-9.9,-2.07,-0.84,-3.25,-1.63,1.63
12.83802914619446,2,3,3,1,-10.05,-2.99,-0.36,-3.28,-2.01,0.85
12.85802912712097,2,3,3,1,-10.19,-3.63,0.12,-2.74,-2.32,-0.3
12.87802910804749,2,3,3,1,-10.3,-3.82,0.27,-2.09,-2.16,-1.43
12.898029088974,2,3,3,1,-10.32,-3.28,0.46,-1.45,-2.12,-2.55
12.91802906990051,2,3,3,1,-10.34,-2.62,0,-1.33,-2.15,-3.4
12.93802905082703,2,3,3,1,-10.41,-2.04,-0.9399999999999999,-0.62,-2.05,-3.81
12.95802903175354,2,3,3,1,-10.48,-2.18,-1.71,0.13,-1.84,-4.06
12.97802901268005,2,3,3,1,-11.06,-2.26,-1.8,0.75,-1.56,-4.71
12.99802899360657,2,3,3,0,-11.22,-1.55,-0.9,3.21,-1.81,-5.63
13.01802897453308,2,3,3,0,-10.34,0.43,-0.15,3.69,-2.16,-5.68
13.03802895545959,2,3,3,0,-9.960000000000001,1.54,-0.8,3,-1.09,-5.27
13.05802893638611,2,3,3,0,-9.710000000000001,2.3,-1.43,4.05,-0.36,-4.83
13.0780291557312,2,3,3,0,-9.74,1.5,-1.84,5.06,-0.24,-4.29
13.09802913665771,2,3,3,0,-9.73,0.89,-1.81,6.63,-0.66,-4.78
13.11802911758423,2,3,3,0,-9.56,0.6899999999999999,-1.49,8.529999999999999,-0.48,-5.75
13.13802909851074,2,3,3,0,-9.51,0.63,-1.34,9.27,-0.35,-6.49
13.15802907943726,2,3,3,0,-9.42,0.35,-1.25,9.67,-0.17,-6.84
13.17802906036377,2,3,3,0,-9.26,-0.07000000000000001,-1.07,9.140000000000001,0.28,-6.72
13.19802904129028,2,3,3,0,-9.01,-0.4,-0.77,8.81,0.8,-6.13
13.2180290222168,2,3,3,0,-8.789999999999999,-0.21,-0.39,9.140000000000001,1.51,-5.39
13.23802900314331,2,3,3,0,-8.630000000000001,0.08,0.04,8.220000000000001,1.97,-4.44
13.25802898406982,2,3,3,0,-8.449999999999999,-0.06,0.44,7.23,1.71,-3.89
13.27802896499634,2,3,3,0,-8.4,-0.67,0.76,6.22,1.32,-3.79
13.29802894592285,2,3,3,0,-8.609999999999999,-1.21,0.35,5.39,1.03,-3.2
13.31802916526794,2,3,3,0,-8.6,-2.12,0.78,5.16,1.26,-3.23
13.33802914619446,2,3,3,0,-8.720000000000001,-2.41,1.15,3.19,1.34,-2.96
13.35902905464172,2,3,3,0,-8.82,-3.9,0.95,0.31,1.84,-2.86
13.37902903556824,2,3,3,0,-8.970000000000001,-5.24,0.96,-0.98,2.13,-2.71
13.39902901649475,2,3,3,0,-9.07,-5.25,1.18,-1.09,1.32,-2.38
13.41902899742126,2,3,3,0,-9.24,-5.54,1.11,-1.37,0.49,-1.58
13.43902897834778,2,3,3,0,-10.28,-5.44,-0.18,0.57,0.91,-0.96
13.45902895927429,2,3,3,0,-10.57,-4.11,-0.66,4.14,0.42,-1.82
13.47902894020081,2,3,3,0,-9.18,2.35,-0.96,5.85,-3.56,0.8
13.4990291595459,2,3,3,0,-10.95,1.33,-0.17,3.45,-2.13,5.16
13.51902914047241,2,3,3,0,-11.33,-2.33,0.04,3.06,-0.15,4.25
13.53902912139893,2,3,3,1,-10.77,-1.04,0.06,7.07,0.66,3.46
13.55902910232544,2,3,3,1,-10.36,1.63,-0.62,7.05,2.81,4.81
13.57902908325195,2,3,3,1,-10.24,3.46,-1.65,2.96,3.43,5.86
13.59902906417847,2,3,3,1,-9.220000000000001,2.74,-2.74,-1.53,4.3,5.69
13.61902904510498,2,3,3,1,-8.710000000000001,0.58,-2.84,-6.56,4.81,5.8
13.63902902603149,2,3,3,1,-9.16,-0.03,-2.1,-6.27,4.78,6.11
13.65902900695801,2,3,3,1,-9.56,-0.86,-1.6,-4.38,4.77,6.46
13.67902898788452,2,3,3,1,-9.859999999999999,-1.7,-0.62,-2.07,4.44,6.51
13.69902896881104,2,3,3,1,-9.99,0.12,-0.51,0.55,3.6,6.12
13.71902894973755,2,3,3,1,-9.9,1.06,-1.18,0.84,3.51,6.04
13.73902893066406,2,3,3,1,-9.57,1.71,-2.05,-2.05,3.5,5.88
13.75902915000916,2,3,3,1,-9.6,1.47,-2.36,-5.32,3.21,5.75
13.77902913093567,2,3,3,1,-9.76,1.35,-2.05,-7.44,3.11,5.75
13.79902911186218,2,3,3,1,-9.81,1.44,-2.1,-7.96,3.07,6.08
13.8190290927887,2,3,3,1,-9.960000000000001,1.21,-2.22,-8.17,2.92,6.59
13.83902907371521,2,3,3,1,-10.05,1.01,-2.27,-8.77,2.66,6.98
13.85902905464172,2,3,3,1,-9.779999999999999,0.91,-2.7,-8.77,2.64,7.21
13.87902903556824,2,3,3,1,-9.65,0.66,-2.42,-9.119999999999999,2.58,7.24
13.89902901649475,2,3,3,1,-9.75,0.5600000000000001,-1.95,-9.15,2.5,7.19
13.91902899742126,2,3,3,1,-9.76,0.7,-1.84,-8.630000000000001,2.32,7.18
13.93902897834778,2,3,3,2,-9.859999999999999,0.84,-1.56,-8.52,2.18,7.06
13.95902895927429,2,3,3,2,-9.59,1.26,-1.66,-8.34,2.11,6.98
13.97902894020081,2,3,3,2,-9.34,1.65,-1.63,-8.67,2.37,7.14
13.9990291595459,2,3,3,2,-9.390000000000001,1.64,-1.66,-10.13,2.56,7.51
14.01902914047241,2,3,3,2,-9.699999999999999,1.35,-1.59,-11.41,2.52,7.95
14.03902912139893,2,3,3,2,-9.619999999999999,0.84,-1.9,-11.34,2.45,8.119999999999999
14.05902910232544,2,3,3,2,-9.460000000000001,0.37,-2.53,-10.67,2.49,8.08
14.07902908325195,2,3,3,2,-9.449999999999999,-0.37,-2.51,-9.24,2.01,8.25
14.09902906417847,2,3,3,2,-9.5,-1.82,-2.31,-7.61,1.73,8.01
14.11902904510498,2,3,3,2,-9.779999999999999,-2.16,-1.91,-6.32,1.07,7.28
14.13902902603149,2,3,3,2,-10.24,-2.15,-1.62,-5.19,0.26,6.33
14.15902900695801,2,3,3,2,-10.45,-1.8,-1.59,-4.04,0,4.91
14.17902898788452,2,3,3,2,-10.71,-2.34,-2.31,-4.58,-0.38,3.62
14.19902896881104,2,3,3,2,-11.04,-3.68,-3.24,-5.07,-1.23,1.45
14.21902894973755,2,3,3,2,-12.22,-7.16,-1.99,-3.82,-2.19,-0.75
14.23902893066406,2,3,3,2,-12.63,-8.359999999999999,-0.13,-2.44,-3.01,-2.18
14.25902915000916,2,3,3,2,-12.85,-3.79,2.33,-1.94,-6.13,-7.07
14.27902913093567,2,3,3,2,-11.69,-0.68,1.08,-3.47,-6.81,-7.86
14.29902911186218,2,3,3,2,-9.949999999999999,-0.85,-4.62,1.98,-3.05,-11.28
14.3190290927887,2,3,3,2,-12.11,1.58,-2.89,1.29,-3.81,-14.17
14.33902907371521,2,3,3,2,-12.77,4.12,-0.65,-0.82,-3.76,-13.91
14.35902905464172,2,3,3,2,-13.26,4.38,-1.48,-2.26,-0.91,-11.05
14.38002896308899,2,3,3,2,-13.71,5,-2.11,-0.92,-0.78,-11.59
14.4000289440155,2,3,3,2,-12.77,5.08,-2.25,2.49,-1.51,-14.35
14.4200291633606,2,3,3,2,-12.23,4.87,-2.24,5.12,-1.65,-16.27
14.44002914428711,2,3,3,2,-10.38,5.25,-2.53,6.17,-1.57,-16.87
14.46002912521362,2,3,3,2,-9.24,4.67,-2.81,8.32,-1.08,-17.6
14.48002910614014,2,3,3,2,-8.119999999999999,4.25,-2.31,9.279999999999999,-1.15,-17.67
14.50002908706665,2,3,3,2,-7.73,4.23,-1.64,15.05,-1.68,-16.01
14.52002906799316,2,3,3,2,-6.87,4.87,-0.7,16.97,-2.58,-14.02
14.54002904891968,2,3,3,2,-6.26,4.85,-0.5600000000000001,16.21,-2.28,-12.99
14.56002902984619,2,3,3,2,-5.24,4.6,-0.86,9.84,-0.59,-9.359999999999999
14.58002901077271,2,3,3,2,-5.05,4.25,-1.61,6.4,-0.27,-8.35
14.60002899169922,2,3,3,2,-5.67,1.93,-0.45,2.24,-1,-7.06
14.62002897262573,2,3,3,2,-6.2,0.25,1.24,5.19,0.11,-8.15
14.64002895355225,2,3,3,2,-7.77,-1.03,0.39,8.02,1.65,-8.58
14.66002893447876,2,3,3,2,-8.460000000000001,-2.49,0.04,4.28,4.64,-6.2
14.68002915382385,2,3,3,2,-10.01,-7.29,-0.46,2.87,4.98,-5.33
14.70002913475037,2,3,3,2,-11.49,-9.74,-0.12,-0.84,-0.05,-4.75
14.72002911567688,2,3,3,2,-11.59,-11.19,1.79,2.26,-1.52,-5.93
14.74002909660339,2,3,3,2,-11.08,-8.85,1.08,4.05,-0.49,-6.94
14.76002907752991,2,3,3,2,-9.869999999999999,-3.24,-1.03,4.71,-0.64,-5.94
14.78002905845642,2,3,3,2,-9.15,-2.49,-2.42,5.88,-0.06,-4.14
14.80002903938293,2,3,3,2,-10.85,5.41,-1.22,12.6,-7.63,6.81
14.82002902030945,2,3,3,2,-14.5,-1.45,4.75,15.31,-6.25,6.57
14.84002900123596,2,3,3,1,-14.07,-2.18,1.66,19.11,-3.02,5.03
14.86002898216248,2,3,3,1,-10.11,5.98,-1,8,4.51,6.43
14.88002896308899,2,3,3,1,-8.75,5.65,-4.34,1.2,5.52,6.27
14.9000289440155,2,3,3,1,-6.35,4.06,-5.63,-9.02,6.62,4.16
14.9200291633606,2,3,3,1,-7.26,3,-3.91,-12.66,4.21,5.63
14.94002914428711,2,3,3,0,-8.960000000000001,2.95,-2.64,-13.21,3.52,6.72
14.96002912521362,2,3,3,0,-11.57,1.47,-2.55,-8.69,3.11,8.91
14.98002910614014,2,3,3,0,-11.89,0.86,-2.15,-5.26,3.08,9.33
15.00002908706665,2,3,3,0,-11.1,2.48,-2.47,3.54,3.98,10.52
15.02002906799316,2,3,3,0,-10.16,4.9,-3.39,1.16,5.14,11.57
15.04002904891968,2,3,3,0,-9.449999999999999,3.94,-2.78,-1.42,5.3,12.4
15.06002902984619,2,3,3,0,-9.369999999999999,1.35,-2.08,-6.7,4.48,13.28
15.08002901077271,2,3,3,0,-9.48,0.36,-1.73,-6.72,4.1,13.17
15.10002899169922,2,3,3,0,-9.75,0.53,-1.44,-5.7,3.55,13.22
15.12002897262573,2,3,3,0,-9.74,0.9,-1.52,-6.82,3.95,13.1
15.14002895355225,2,3,3,0,-9.630000000000001,0.8,-1.1,-8.27,4.09,12.92
15.16002893447876,2,3,3,0,-9.32,0.5600000000000001,-1.35,-9.720000000000001,3.91,12.29
15.18002915382385,2,3,3,0,-9.050000000000001,0.58,-1.53,-9.609999999999999,3.91,12.15
15.20002913475037,2,3,3,0,-8.99,0.43,-1.55,-8.65,3.33,12.03
15.22002911567688,2,3,3,0,-9.01,0.5,-1.81,-7.9,3.01,11.93
15.24002909660339,2,3,3,0,-9.220000000000001,0.68,-1.84,-7.64,2.81,11.99
15.26002907752991,2,3,3,0,-9.880000000000001,1.52,-1.81,-5.71,2.3,12.7
15.28002905845642,2,3,3,0,-9.83,1.17,-1.67,-5.56,1.95,12.81
15.30002903938293,2,3,3,0,-9.83,-1.52,-1.6,-4.72,1.21,11.83
15.32002902030945,2,3,3,0,-10.54,-2.7,-1.92,-4.49,1.25,9.960000000000001
15.34002900123596,2,3,3,0,-10.82,-2.48,-2.18,-4.27,1.72,7.33
15.36002898216248,2,3,3,0,-11.13,-1.1,-3.11,-4.1,1.68,5.5
15.38002896308899,2,3,3,0,-11.03,-0.77,-3.02,-5.49,0.67,4.91
15.40102910995483,2,3,3,0,-11.51,-1.12,-2.6,-7.29,-0.7,4.13
15.42102909088135,2,3,3,0,-11.95,-2.66,-2.5,-9.75,-1.43,2.48
15.44102907180786,2,3,3,0,-12.21,-3.92,-2.46,-11.14,-1.67,-0.29
15.46102905273438,2,3,3,0,-12.51,-9.57,-0.99,-10.15,-2.69,-3.47
15.48102903366089,2,3,3,0,-12.59,-9.91,-0.36,-6.84,-4.88,-6.56
15.5010290145874,2,3,3,0,-11.89,-3.05,1.45,-1.99,-7.29,-9.59
15.52102899551392,2,3,3,0,-9.43,0.8100000000000001,-4.47,3.87,-4.35,-11.57
15.54102897644043,2,3,3,0,-9.710000000000001,1.65,-5.06,5.69,-1.5,-15.07
15.56102895736694,2,3,3,0,-14.31,4.28,-1.88,0.58,-2,-15.49
15.58102893829346,2,3,3,0,-15.26,5.14,-1,-0.39,-1.29,-11.58
15.60102915763855,2,3,3,0,-14.41,7.23,-1.92,0.11,-1.19,-12.45
15.62102913856506,2,3,3,0,-12.69,6.99,-1.6,1.08,-1.6,-15.9
15.64102911949158,2,3,3,0,-11.78,5.91,-1.61,2.82,-1.19,-18.77
15.66102910041809,2,3,3,0,-10.84,5.96,-1.5,3.71,-0.67,-20.49
15.6810290813446,2,3,3,0,-9.26,5.58,-1.61,5.25,-0.35,-20.37
15.70102906227112,2,3,3,0,-8.68,4.84,-1.9,6.97,-0.29,-19.92
15.72102904319763,2,3,3,0,-7.94,4.43,-1.43,9.84,-0.37,-19.41
15.74102902412415,2,3,3,0,-7.19,4.35,-1.15,16.51,-1.47,-17.77
15.76102900505066,2,3,3,0,-5.85,4.88,-1.56,20.37,-1.92,-15.39
15.78102898597717,2,3,3,0,-5.67,5.15,-1.31,18.33,-1.58,-13.21
15.80102896690369,2,3,3,0,-4.23,6.61,-2.03,8.73,-0.35,-10.25
15.8210289478302,2,3,3,0,-4.17,5.53,-2.03,-0.07000000000000001,0.35,-6.58
15.84102916717529,2,3,3,0,-4.46,2.1,-0.35,-3.49,-0.5600000000000001,-5.64
15.86102914810181,2,3,3,0,-5.56,1.26,0.91,4.43,0.6,-6.58
15.88102912902832,2,3,3,0,-7.16,-1.54,1.89,7.73,4.35,-7.11
15.90102910995483,2,3,3,0,-10.38,-10,-1.53,4.45,11.5,-6.42
15.92102909088135,2,3,3,0,-13.22,-12.82,-3.05,5.8,11.73,-6.29
15.94102907180786,2,3,3,0,-12.54,-12.98,2.2,0.21,-1.43,-5.6
15.96102905273438,2,3,3,0,-10.98,-11.28,1.36,3.85,-3.49,-5.54
15.98102903366089,2,3,3,0,-10.06,-5.45,-1.33,9.029999999999999,2.36,-8.51
16.0010290145874,2,3,3,0,-8.69,0.6899999999999999,-3.21,10.02,1.38,-7.26
16.02102899551392,2,3,3,0,-11.26,6.86,-2.93,12.14,0.95,-1.2
16.04102897644043,2,3,3,0,-13.24,2.04,4.69,14.46,-11.67,8.4
16.06102895736694,2,3,3,0,-18.16,-8.84,5.74,20.33,-7.81,5.82
16.08102893829346,2,3,3,0,-13.42,3.42,1.6,24.99,0.31,5.62
16.10102915763855,2,3,3,0,-7.53,10.1,-4.83,9.43,4.24,6.18
16.12102913856506,2,3,3,0,-7.96,7.31,-5.45,-6.17,6.94,5.05
16.14102911949158,2,3,3,0,-5.28,3.51,-5.57,-15.62,7.18,4.85
16.16102910041809,3,3,3,0,-6.63,3.17,-4.94,-15.87,3.95,7.32
16.1810290813446,3,3,3,0,-11.12,1.26,-3.22,-17.12,3.96,8.779999999999999
16.20102906227112,3,3,3,0,-12.95,0.65,-2.59,-11.87,3.58,10.49
16.22102904319763,3,3,3,0,-12.22,0.75,-2.26,-4.91,3.62,11.69
16.24102902412415,3,3,3,0,-11.12,2.63,-2.64,0.37,3.89,12.45
16.26102900505066,3,3,3,0,-9.619999999999999,3.27,-3.15,-1.93,4.4,13.17
16.28102898597717,3,3,3,0,-9.18,3.11,-3.03,-6.16,4.8,14.33
16.30102896690369,3,3,3,0,-8.960000000000001,1.38,-2.42,-9.539999999999999,4.52,14.86
16.3210289478302,3,3,3,0,-9.32,0.39,-2,-12.05,3.88,14.53
16.34102916717529,3,3,3,0,-9.76,0.5,-1.16,-10.88,3.41,14.15
16.36102914810181,3,3,3,0,-9.56,0.91,-1.27,-10.18,3.43,13.6
16.38102912902832,3,3,3,0,-9.26,0.58,-1.69,-11,3.83,13.25
16.40102910995483,3,3,3,0,-9.18,0.53,-1.76,-10.3,3.73,12.91
16.42102909088135,3,3,3,0,-9.01,0.44,-1.77,-8.93,3.49,13.13
16.44202899932861,3,3,3,0,-9,0.47,-1.45,-7.65,2.89,13.38
16.46202898025513,3,3,3,0,-9.380000000000001,0.53,-1.42,-6.35,2.16,13.58
16.48202896118164,3,3,3,0,-9.27,-0.01,-2.05,-4.38,1.51,13.35
16.50202894210815,3,3,3,0,-9.58,-0.76,-1.6,-2.02,0.8,12.63
16.52202916145325,3,3,3,0,-9.789999999999999,-1.11,-1.93,-1.44,0.46,11.74
16.54202914237976,3,3,3,0,-10.53,-2.09,-2.44,-2.92,0.89,10.23
16.56202912330627,3,3,3,0,-11.33,-2.22,-2.99,-3.57,1.05,8.039999999999999
16.58202910423279,3,3,3,0,-11.32,-1.72,-2.88,-4.22,0.82,6.07
16.6020290851593,3,3,3,0,-11.31,-1.16,-2.39,-6.41,-0.04,4.99
16.62202906608582,3,3,3,0,-11.53,-2.25,-2.26,-9.4,-1.16,3.75
16.64202904701233,3,3,3,0,-12.42,-5.89,-1.94,-10.95,-2.14,1.41
16.66202902793884,3,3,3,0,-12.62,-7.9,-0.32,-10.59,-3.19,-1.61
16.68202900886536,3,3,3,0,-11.67,-8.369999999999999,1.03,-9.539999999999999,-3.49,-4.45
16.70202898979187,3,3,3,0,-11.89,-3.29,2.76,-8.07,-5.18,-8.359999999999999
16.72202897071838,3,3,3,0,-10,-0.97,-3.34,-6.23,-6.63,-10.95
16.7420289516449,3,3,3,0,-10.78,0.23,-5.49,3.98,-2.67,-13.73
16.76202893257141,3,3,3,0,-14.38,3.85,-2.77,1.46,-2.11,-16.7
16.7820291519165,3,3,3,0,-14.72,4.51,-2.19,-1.49,-1.05,-13.06
16.80202913284302,3,3,3,0,-15.77,6.57,-2.54,-0.36,0.38,-12.46
16.82202911376953,3,3,3,0,-14,7.72,-2.72,2.51,-1.03,-14.82
16.84202909469604,3,3,3,0,-12.26,6.39,-2.09,4.11,-0.55,-17.48
16.86202907562256,3,3,3,0,-11.52,6.16,-1.58,5.54,0.22,-20.18
16.88202905654907,3,3,3,0,-9.34,6.36,-1.22,6.88,0.88,-20.63
16.90202903747559,3,3,3,0,-8.380000000000001,6.05,-1.48,8.09,1.15,-20.27
16.9220290184021,3,3,3,0,-7.6,5.02,-1.58,10,1.02,-19.75
16.94202899932861,3,3,3,0,-7.16,4.78,-1.05,15.27,0.35,-18.4
16.96202898025513,3,3,3,0,-6,5.09,-1.04,20.74,-1,-15.73
16.98202896118164,3,3,3,0,-5.34,5.78,-0.6,20.2,-1.47,-13.29
17.00202894210815,3,3,3,0,-3.87,7,-1.1,13.83,-2,-11.49
17.02202916145325,3,3,3,0,-3.72,6.63,-1.79,3.7,-0.09,-8.4
17.04202914237976,3,3,3,0,-4.2,3.6,-0.67,-1.37,-0.62,-6.39
17.06202912330627,3,3,3,0,-4.96,1.53,1.04,-1.19,-0.63,-7.12
17.08202910423279,3,3,3,0,-7.13,-1.74,0.32,4.71,3.92,-7.78
17.1020290851593,3,3,3,0,-8.880000000000001,-6.41,-0.36,3,11.65,-7.02
17.12202906608582,3,3,3,0,-13.42,-13.23,-1.83,5.62,13.18,-5.73
17.14202904701233,3,3,3,1,-15.02,-14.13,0.11,5.94,-2.02,-5.32
17.16202902793884,3,3,3,1,-11.75,-12.56,1.26,4,-6.62,-5.65
17.18202900886536,3,3,3,1,-10.95,-8.91,-0.33,8.859999999999999,-0.38,-8.460000000000001
17.20202898979187,3,3,3,1,-8.83,0.08,-3.62,10.88,0.38,-8.220000000000001
17.22202897071838,3,3,3,1,-10.97,10.47,-3.05,12.7,-0.53,-2.25
17.2420289516449,3,3,3,2,-10.35,5.23,5.34,14.44,-15.28,9.539999999999999
17.26202893257141,3,3,3,2,-18.67,-7.96,4.57,13.62,-4.41,6.12
17.2820291519165,3,3,3,2,-15.44,1.52,1.94,18.57,1.64,5.51
17.30202913284302,3,3,3,2,-8.609999999999999,8.5,-3.83,7.49,4.45,7.28
17.32202911376953,3,3,3,2,-8.17,7.6,-4.55,-4.56,6.11,6.69
17.34202909469604,3,3,3,2,-5.66,2.53,-5.88,-13.56,7.31,6.1
17.36202907562256,3,3,3,2,-5.32,2.2,-5.37,-13.34,4.62,7.78
17.38202905654907,3,3,3,2,-9.699999999999999,1.17,-3.35,-14,4.72,9.27
17.40202903747559,3,3,3,2,-11.95,1.18,-2.73,-10.73,4.13,10.9
17.4220290184021,3,3,3,2,-12.72,0.44,-1.61,-7.18,3.79,11.87
17.44202899932861,3,3,3,2,-11.54,1.84,-1.8,-2.46,3.66,12.54
17.46302914619446,3,3,3,2,-9.92,2.81,-2.34,-1.75,3.9,13.08
17.48302912712097,3,3,3,2,-9.16,2.78,-2.75,-4.91,4.59,13.61
17.50302910804749,3,3,3,2,-8.57,1.6,-2.68,-8.710000000000001,4.74,14.02
17.523029088974,3,3,3,2,-8.789999999999999,0.9,-2.19,-11.78,4.27,13.89
17.54302906990051,3,3,3,2,-9.470000000000001,0.38,-1.23,-12.35,3.55,13.46
17.56302905082703,3,3,3,2,-9.66,0.58,-1.34,-11.49,3.34,12.8
17.58302903175354,3,3,3,1,-9.66,0.67,-1.67,-10.74,3.38,12.29
17.60302901268005,3,3,3,1,-9.4,1.12,-1.63,-9.369999999999999,3.3,12.33
17.62302899360657,3,3,3,1,-8.880000000000001,1.7,-1.84,-8.529999999999999,3.4,12.82
17.64302897453308,3,3,3,1,-8.83,1.59,-1.99,-8.380000000000001,2.97,13.36
17.66302895545959,3,3,3,1,-9.24,0.84,-1.89,-7.4,2.37,13.74
17.68302893638611,3,3,3,1,-9.31,0.2,-1.82,-5.27,1.42,13.62
17.7030291557312,3,3,3,1,-9.74,-0.5600000000000001,-2.09,-3.07,1.03,12.97
17.72302913665771,3,3,3,1,-10.37,-0.79,-1.96,-2.06,0.7,12.03
17.74302911758423,3,3,3,1,-10.83,-1.42,-2.31,-3.19,0.74,10.69
17.76302909851074,3,3,3,1,-10.95,-2.37,-2.78,-5.33,0.71,9.109999999999999
17.78302907943726,3,3,3,1,-11.22,-2.97,-2.76,-5.44,0.58,7.15
17.80302906036377,3,3,3,1,-11.31,-2.67,-2.67,-5.47,0.03,4.99
17.82302904129028,3,3,3,1,-11.3,-2.69,-2.28,-7.4,-1.38,3.28
17.8430290222168,3,3,3,1,-11.69,-4.03,-1.99,-10.76,-2.37,1.44
17.86302900314331,3,3,3,1,-12.43,-7.82,-0.86,-12.66,-3.41,-1.29
17.88302898406982,3,3,3,1,-11.94,-8.33,0.96,-10.54,-4.28,-4.72
17.90302896499634,3,3,3,1,-11.68,-3.82,1.96,-8.039999999999999,-4.98,-8.24
17.92302894592285,3,3,3,1,-10.12,-1.11,-3.71,-3.75,-6.43,-10.81
17.94302916526794,3,3,3,1,-11.13,-1.11,-5.25,3.94,-3.92,-14.06
17.96302914619446,3,3,3,1,-14.33,3.32,-2.16,-0.08,-3.44,-15.75
17.98302912712097,3,3,3,1,-14.42,4.81,-2.33,1.45,-1.12,-11.65
18.00302910804749,3,3,3,1,-15.31,6.53,-3.09,3.78,-0.6,-12.71
18.023029088974,3,3,3,1,-13.58,7.82,-2.43,5.08,-2.56,-14.9
18.04302906990051,3,3,3,0,-12.06,7.15,-2.26,5.22,-1.25,-16.67
18.06302905082703,3,3,3,0,-11.43,6.61,-2.35,6.12,0.35,-19.06
18.08302903175354,3,3,3,0,-9.73,6.25,-2.36,8.119999999999999,0.99,-19.53
18.10302901268005,3,3,3,0,-8.74,6.22,-2.33,10.34,0.53,-19.37
18.12302899360657,3,3,3,0,-7.63,5.48,-2.14,10.68,0.8100000000000001,-19.04
18.14302897453308,3,3,3,0,-7.23,5.1,-1.84,15.72,0.87,-17.55
18.16302895545959,3,3,3,0,-6.27,5.66,-1.55,20.08,-0.74,-14.75
18.18302893638611,3,3,3,0,-5.71,5.85,-0.26,20.07,-2.18,-11.51
18.2030291557312,3,3,3,0,-4.21,6.36,-0.84,15.44,-2.1,-10.01
18.22302913665771,3,3,3,0,-4.32,5.45,-1.29,6.67,-0.59,-9.01
18.24302911758423,3,3,3,0,-4.79,3.42,-0.9399999999999999,2.66,-0.86,-8.34
18.26302909851074,3,3,3,0,-5.78,1.68,0.34,0.95,1.37,-8.26
18.28402900695801,3,3,3,0,-7.48,0.05,1.64,5.67,2.8,-7.91
18.30302906036377,3,3,3,0,-7.49,-2.54,-0.77,4.08,7.24,-6.64
18.32302904129028,3,3,3,0,-11.07,-12.95,-3.65,-2.43,15.02,-7.27
18.34402894973755,3,3,3,0,-14.77,-14.43,-1.28,0.16,7.53,-6.68
18.36302900314331,3,3,3,0,-11.8,-12.24,2,7.28,-4.72,-5.91
18.38302898406982,3,3,3,0,-11.65,-8.960000000000001,0.38,10.57,0.23,-8.529999999999999
18.40402913093567,3,3,3,0,-9.210000000000001,-1.4,-2.3,9.58,-0.46,-9.01
18.42302894592285,3,3,3,0,-8.43,2.61,-5.71,10.87,0.51,-4.5
18.44302916526794,3,3,3,0,-8.93,6.87,1.36,14.41,-12.38,8.33
18.46402907371521,3,3,3,0,-14.77,-3.18,5.84,16.79,-7.4,8.630000000000001
18.48402905464172,3,3,3,0,-16.3,-2.48,2.46,24.33,-0.89,6.12
18.50402903556824,3,3,3,0,-9.73,7.55,-2.82,17.88,3.76,7.63
18.52402901649475,3,3,3,0,-8.960000000000001,7.2,-4.39,1.84,5.31,6.6
18.54402899742126,3,3,3,0,-6.19,5.46,-4.9,-10.06,6.87,3.92
18.56402897834778,3,3,3,0,-5.38,3.97,-6.03,-16.66,5.33,5.31
18.58402895927429,3,3,3,0,-8.68,2.94,-4.3,-19.47,4.85,7.49
18.60402894020081,3,3,3,0,-11.67,0.96,-3.44,-16.33,3.79,9.970000000000001
18.6240291595459,3,3,3,0,-13.41,0.55,-1.87,-8.550000000000001,3,11.07
18.64402914047241,3,3,3,0,-11.87,2.28,-2.23,-0.82,3.23,11.6
18.66402912139893,3,3,3,0,-10.17,3.13,-2.9,-0.57,3.59,12.19
18.68402910232544,3,3,3,0,-9.08,2.84,-3.33,-4.98,4.43,13.11
18.70402908325195,3,3,3,0,-8.470000000000001,1,-2.81,-8.76,4.38,13.98
18.72402906417847,3,3,3,0,-8.69,0.43,-2.12,-9.58,3.76,13.92
18.74402904510498,3,3,3,0,-9.65,0.76,-1.5,-8.9,3.43,13.55
18.76402902603149,3,3,3,0,-10.12,1.17,-0.95,-9.640000000000001,3.28,13.2
18.78402900695801,3,3,3,0,-9.779999999999999,0.72,-0.88,-11.7,3.49,12.95
18.80402898788452,3,3,3,0,-9.449999999999999,0.32,-1.24,-12.24,3.83,12.48
18.82402896881104,3,3,3,0,-9.220000000000001,-0.33,-1.07,-10.47,3.69,12.46
18.84402894973755,3,3,3,0,-9.119999999999999,-0.24,-1.04,-8.359999999999999,3.07,12.69
18.86402893066406,3,3,3,0,-9.26,0.21,-1.7,-7.31,2.82,12.87
18.88402915000916,3,3,3,0,-9.5,0.07000000000000001,-1.77,-6.02,2.14,13.16
18.90402913093567,3,3,3,0,-9.65,-0.96,-1.97,-3.45,1.67,13.12
18.92402911186218,3,3,3,0,-9.57,-2.01,-2.17,-2.37,1.49,12.04
18.9440290927887,3,3,3,0,-10.35,-3.18,-2.4,-3.25,1.32,10.3
18.96402907371521,3,3,3,0,-11.31,-3.2,-2.74,-3.42,1.12,8.140000000000001
18.98402905464172,3,3,3,0,-11.7,-2.32,-2.7,-4.39,0.03,6.3
19.00402903556824,3,3,3,0,-11.57,-1.95,-2.23,-6.63,-1.19,5.03
19.02402901649475,3,3,3,0,-12.06,-3.18,-2.28,-8.56,-1.83,3.17
19.04402899742126,3,3,3,0,-12.77,-4.6,-1.16,-8.93,-2.79,0.58
19.06402897834778,3,3,3,0,-12.11,-7.69,-0.49,-9.02,-2.99,-2.12
19.08402895927429,3,3,3,0,-12.07,-6.5,1.91,-11.28,-4.65,-5.82
19.10402894020081,3,3,3,0,-11.48,-2.95,0.4,-10.5,-6.77,-9.48
19.1240291595459,3,3,3,0,-11.08,-0.91,-2.94,0.07000000000000001,-6.17,-12.58
19.14402914047241,3,3,3,0,-12.33,0.57,-4.54,0.98,-4.3,-15.64
19.16402912139893,3,3,3,0,-13.83,4.3,-2.14,-3.48,-2.25,-13.94
19.18402910232544,3,3,3,0,-14.45,4.24,-3.24,0.75,-0.37,-12.45
19.20402908325195,3,3,3,0,-14.14,7.14,-2.07,2.18,-1.42,-14.38
19.22402906417847,3,3,3,0,-12.56,7.21,-1.86,2.53,-0.76,-15.55
19.24402904510498,3,3,3,0,-11.89,6.33,-1.68,3.45,0.7,-18.45
19.26402902603149,3,3,3,0,-10.76,6.2,-1.8,5.11,1.37,-19.61
19.28402900695801,3,3,3,0,-9.27,5.95,-1.36,6.7,1.09,-19.57
19.30402898788452,3,3,3,0,-8.49,5.57,-1.25,9.859999999999999,0.48,-19.03
19.32402896881104,3,3,3,0,-7.46,5.41,-1.33,14.27,0.22,-17.89
19.34402894973755,3,3,3,0,-6.66,5.3,-1.09,18.2,-0.4,-15.99
19.36402893066406,3,3,3,0,-5.57,5.66,-0.6,18.21,-1.27,-13.23
19.38402915000916,3,3,3,0,-4.79,6.64,-0.15,15.82,-2.07,-11.04
19.40402913093567,3,3,3,0,-4.01,6.8,-1.27,3.92,-1.8,-8.470000000000001
19.42402911186218,3,3,3,0,-4.1,4.94,-0.6899999999999999,2.26,-1.73,-7.67
19.4440290927887,3,3,3,0,-5.12,1.73,0.53,4.23,0.66,-8.640000000000001
19.46402907371521,3,3,3,0,-6.12,0.59,0.57,7.47,5.35,-9.17
19.48402905464172,3,3,3,1,-8.25,-2.1,0.52,5.68,8.02,-8.33
19.50502896308899,3,3,3,1,-9.67,-6.47,-0.49,3.54,9.09,-5.34
19.5250289440155,3,3,3,1,-13.58,-14.19,-0.89,6.32,5.26,-5.29
19.5450291633606,3,3,3,1,-14.41,-13.8,1.57,8.300000000000001,-7.57,-4.26
19.56502914428711,3,3,3,1,-11.01,-9.279999999999999,1.19,9.949999999999999,-1.61,-6.69
19.58502912521362,3,3,3,1,-10.2,-6.05,-0.71,9.58,0.39,-7.46
19.60502910614014,3,3,3,1,-9.039999999999999,1.19,-4.65,8.83,0.18,-1.46
19.62502908706665,3,3,3,1,-10.92,8.06,-2.7,8.91,-6.08,4.25
19.64502906799316,3,3,3,1,-14.31,-1.33,5.28,9.470000000000001,-4.04,5.39
19.66502904891968,3,3,3,1,-15.76,-6.68,3.33,12.82,2.51,4.46
19.68502902984619,3,3,3,1,-11.35,4.34,-1.51,12.29,5.04,6.03
19.70502901077271,3,3,3,1,-8.09,7.48,-2.41,-1.37,6.08,7.21
19.72502899169922,3,3,3,1,-7.38,6.05,-4.34,-5.6,6.98,6.41
19.74502897262573,3,3,3,1,-6.52,4.56,-5.38,-12.62,4.85,7.72
19.76502895355225,3,3,3,1,-7.84,3.19,-3.83,-14.9,5.54,9.529999999999999
19.78502893447876,3,3,3,1,-9.960000000000001,2.27,-3.53,-14.92,5.22,10.28
19.80502915382385,3,3,3,1,-12.4,1,-2.52,-11.74,4.2,11.36
19.82502913475037,3,3,3,0,-11.77,1.14,-2.16,-8.119999999999999,3.95,11.63
19.84502911567688,3,3,3,0,-10.82,2.22,-2.54,-2.6,3.87,12.7
19.86502909660339,3,3,3,0,-9.460000000000001,3.15,-3.51,-5.94,4.56,13.11
19.88502907752991,3,3,3,0,-8.970000000000001,2.81,-3.56,-8.1,4.7,13.57
19.90502905845642,3,3,3,0,-9.02,0.89,-2.53,-13.23,4.52,14
19.92502903938293,3,3,3,0,-9.32,0.47,-1.62,-13.5,4.14,14.09
19.94502902030945,3,3,3,0,-9.65,0.68,-1.51,-12.19,3.48,13.67
19.96502900123596,3,3,3,0,-9.83,0.71,-1.35,-11.26,3.09,13.24
19.98502898216248,3,3,3,0,-9.4,0.35,-1.55,-10.63,3.23,13.13
20.00502896308899,3,3,3,0,-9.17,0.36,-1.86,-8.19,3.1,12.64
20.0250289440155,3,3,3,0,-9.1,0.54,-1.79,-7.24,2.84,12.61
20.0450291633606,3,3,3,0,-9.289999999999999,0.89,-1.46,-6.74,2.15,12.64
20.06502914428711,3,3,3,0,-9.33,0.61,-1.74,-6.08,1.57,12.2
20.08502912521362,3,3,3,0,-9.359999999999999,-0.37,-1.92,-5.49,1.13,11.89
20.10502910614014,3,3,3,0,-9.74,-1.15,-1.94,-3.75,0.76,10.68
20.12502908706665,3,3,3,0,-9.99,-1.56,-2.39,-3.82,0.97,10.08
20.14502906799316,3,3,3,0,-10.84,-2.36,-2.43,-5.68,1.24,7.92
20.16502904891968,3,3,3,0,-11.29,-2.82,-2.76,-6.08,0.71,6.35
20.18502902984619,3,3,3,0,-11.33,-3.27,-2.7,-6.48,0.42,5.36
20.20502901077271,3,3,3,0,-11.41,-3.61,-2.37,-8.140000000000001,-1.36,2.09
20.22502899169922,3,3,3,0,-12.64,-5.3,-2.05,-9.25,-2.06,0.96
20.24502897262573,3,3,3,0,-13.13,-7.62,-0.8,-10.97,-4,-3.93
20.26502895355225,3,3,3,0,-12.17,-8.779999999999999,0.55,-8.039999999999999,-4.05,-7.47
20.28502893447876,3,3,3,0,-12.12,-4.43,2.82,-7.93,-5.44,-9.199999999999999
20.30502915382385,3,3,3,0,-10.64,-0.7,-2.95,3.64,-5.27,-12.66
20.32502913475037,3,3,3,0,-11.05,0.54,-4.77,4.56,-4.3,-14.46
20.34502911567688,3,3,3,0,-14.38,3.75,-2.81,-0.62,-2.35,-13.13
20.36502909660339,3,3,3,0,-14.41,4.52,-2.4,1.91,-0.75,-12.13
20.38502907752991,3,3,3,0,-15.05,5.92,-3.05,3.48,-1.37,-13.33
20.40502905845642,3,3,3,0,-12.21,7.8,-2.44,5.28,-1.44,-16.39
20.42502903938293,3,3,3,0,-11.94,7.34,-2.4,5.19,-0.71,-17.59
20.44502902030945,3,3,3,0,-10.13,6.55,-2.24,7.1,0.61,-19.33
20.46502900123596,3,3,3,0,-9.140000000000001,6.28,-2.16,8.51,0.58,-19.28
20.48502898216248,3,3,3,0,-8.43,6.9,-1.81,9.470000000000001,0.41,-19.08
20.50502896308899,3,3,3,0,-7.69,5.81,-1.52,16.21,-0.07000000000000001,-17.65
20.52602910995483,3,3,3,0,-7.1,5.48,-1.11,18.56,-0.49,-17.11
20.54602909088135,3,3,3,0,-5.9,5.81,-0.57,17.32,-1.58,-12.32
20.56602907180786,3,3,3,0,-4.15,7.33,-0.17,14.07,-2.34,-10.14
20.58602905273438,3,3,3,0,-3.76,7.41,-0.68,5.95,-1.45,-9.220000000000001
20.60602903366089,3,3,3,0,-4.2,4.42,-0.86,3.28,-1.43,-7.73
20.6260290145874,3,3,3,0,-4.31,3.41,-0.5600000000000001,0.77,-1.44,-8.039999999999999
20.64602899551392,3,3,3,0,-6.63,-0.43,1.07,4.08,2.96,-9.59
20.66602897644043,3,3,3,0,-8.15,-2.74,0.61,3.5,8.91,-8.35
20.68602895736694,3,3,3,0,-10.55,-10.16,-0.76,1.47,11.26,-6.9
20.70602893829346,3,3,3,0,-14.04,-13.5,-1.82,8.01,5.35,-6.61
20.72602915763855,3,3,3,0,-14.9,-14.31,0.95,8.119999999999999,-1.89,-6.21
20.74602913856506,3,3,3,0,-11.21,-10.05,1.25,9.48,-3.64,-7.68
20.76602911949158,3,3,3,0,-9.960000000000001,-4.43,-1.68,9.15,-0.49,-9.029999999999999
20.78602910041809,3,3,3,0,-8.470000000000001,1.44,-4.29,9.109999999999999,-0.58,-5.33
20.8060290813446,3,3,3,0,-9.869999999999999,9.960000000000001,-1.7,12.11,-10.26,5.76
20.82602906227112,3,3,3,0,-9.42,8.65,2.4,7.67,-5.54,8.550000000000001
20.84602904319763,3,3,3,0,-17.03,-5.83,2.9,8.539999999999999,0.18,4.63
20.86602902412415,3,3,3,0,-11.11,4.95,-1.29,8.23,5.11,5.85
20.88602900505066,3,3,3,0,-8.460000000000001,6.59,-2.51,-2.2,4.76,7.01
20.90602898597717,3,3,3,0,-7.81,5.08,-4.52,-9.42,5.9,6.25
20.92602896690369,3,3,3,0,-6.54,4.61,-5,-12.85,5.3,6.66
20.9460289478302,3,3,3,0,-7.34,2.26,-4.95,-13.48,4.33,8.65
20.96602916717529,3,3,3,0,-9.41,1.47,-4.51,-12.4,4.57,10.08
20.98602914810181,3,3,3,0,-10.45,1.18,-3.96,-9.69,4.53,11.11
21.00602912902832,3,3,3,0,-12.44,0.85,-1.71,-4.72,4.31,12.13
21.02602910995483,3,3,3,0,-11.17,2.47,-2.02,-1.01,4.12,13.08
21.04602909088135,3,3,3,0,-10.24,3.06,-2.53,-1.77,4.29,13.47
21.06602907180786,3,3,3,0,-9.19,2.87,-2.6,-5.25,4.65,13.59
21.08602905273438,3,3,3,0,-9.050000000000001,2.18,-2.27,-8.91,4.54,13.65
21.10602903366089,3,3,3,0,-9.289999999999999,1.08,-1.74,-11.56,4.2,13.4
21.1260290145874,3,3,3,0,-9.550000000000001,1.09,-1.66,-12.49,3.86,13.12
21.14602899551392,3,3,3,0,-9.949999999999999,1.08,-1.55,-12.83,3.75,12.77
21.16602897644043,3,3,3,0,-9.73,0.91,-1.56,-12.57,3.32,12.76
21.18602895736694,3,3,3,0,-9.210000000000001,0.97,-1.95,-11.6,3.02,13.09
21.20602893829346,3,3,3,0,-9.09,0.98,-1.88,-10.16,2.87,13.25
21.22602915763855,3,3,3,0,-8.52,-0.09,-1.88,-9.15,2.24,13.17
21.24602913856506,3,3,3,0,-8.08,-1.11,-2.04,-8.02,2.14,12.6
21.26602911949158,3,3,3,0,-9.01,-1.65,-2.1,-4.91,1.7,11.73
21.28602910041809,3,3,3,0,-10.08,-1.24,-1.83,-2.7,1.29,11.1
21.3060290813446,3,3,3,0,-10.7,-2.34,-2.4,-3.17,1.27,9.949999999999999
21.32602906227112,3,3,3,0,-10.98,-3.13,-2.32,-2.62,1.06,8.140000000000001
21.34602904319763,3,3,3,0,-11.69,-1.96,-1.99,-2.52,0.85,6.34
21.36602902412415,3,3,3,0,-11.69,-1.42,-1.92,-5.68,0.01,4.94
21.38602900505066,3,3,3,0,-11.06,-2.74,-2,-9.49,-0.9399999999999999,3.38
21.40602898597717,3,3,3,0,-12.02,-6.08,-1.6,-10.42,-1.96,0.66
21.42602896690369,3,3,3,0,-12.57,-7.02,0.07000000000000001,-9.77,-2.76,-2.15
21.4460289478302,3,3,3,0,-12.44,-5.65,2.08,-9.31,-3.44,-5.39
21.46602916717529,3,3,3,0,-12.04,-3.74,1.44,-10.88,-6.75,-9.02
21.48602914810181,3,3,3,0,-11.13,-2.24,-3.39,-1.82,-7.59,-11.57
21.50602912902832,3,3,3,0,-11.93,-1.13,-4.55,4.46,-5.2,-15.24
21.52602910995483,3,3,3,0,-14.01,4.18,-2.05,0.18,-3.55,-14.76
21.54602909088135,3,3,3,0,-14.1,5.17,-3.22,1.31,-2.25,-12.82
21.56702899932861,3,3,3,0,-15.17,5.59,-2.99,4.23,-2.21,-13.5
21.58702898025513,3,3,3,0,-13.15,7.49,-2.64,4.92,-3.21,-14.57
21.60702896118164,3,3,3,0,-11.89,7.13,-2.8,5.05,-0.97,-16.74
21.62702894210815,3,3,3,0,-11.35,6.46,-2.89,6.08,-0.13,-18.74
21.64702916145325,3,3,3,0,-9.76,5.96,-2.75,6.73,-0.13,-19.1
21.66702914237976,3,3,3,0,-8.890000000000001,5.89,-2.07,9.390000000000001,-0.55,-19.2
21.68702912330627,3,3,3,0,-7.71,5.74,-1.67,11.59,-0.66,-18.56
21.70702910423279,3,3,3,0,-7.09,5.57,-1.9,13.45,-0.41,-17.35
21.7270290851593,3,3,3,0,-5.79,5.3,-0.43,16.18,-1.77,-13.31
21.74702906608582,3,3,3,0,-4.65,5.76,0.03,16.65,-2.24,-12.16
21.76702904701233,3,3,3,0,-4.06,4.6,-1.09,13.72,-2.33,-11.79
21.78702902793884,3,3,3,0,-4.45,3.86,-1.12,9.07,-1.15,-10.65
21.80702900886536,3,3,3,0,-5.04,3.17,-0.95,5.55,-0.67,-8.98
21.82702898979187,3,3,3,1,-6.3,2.23,0.72,1.6,0.26,-8.9
21.84702897071838,3,3,3,1,-6.85,0.61,0.16,3.3,0.78,-8.640000000000001
21.8670289516449,3,3,3,1,-7.8,-2.76,-0.5,4.48,5.79,-6.83
21.88702893257141,3,3,3,1,-11.18,-11.59,-2.25,-1.17,11.55,-6.46
21.9070291519165,3,3,3,1,-14.56,-13.45,0.21,2.39,8.31,-4.67
21.92702913284302,3,3,3,2,-12.96,-11.53,1.66,8.44,-5.15,-3.72
21.94702911376953,3,3,3,2,-11.47,-8.33,0.74,10.84,-2.35,-5.8
21.96702909469604,3,3,3,2,-10.41,-2.13,-2.11,9.699999999999999,-0.75,-7.19
21.98702907562256,3,3,3,2,-9.640000000000001,0.35,-5.09,10.81,-0.23,-4.33
22.00702905654907,3,3,3,2,-11.71,6.01,2.37,13.87,-5.38,4.53
22.02702903747559,3,3,3,2,-14.87,-4.16,6.05,14.11,-8.140000000000001,8.31
22.0470290184021,3,3,3,2,-13.02,3.22,0.63,15.49,-1.43,4.87
22.06702899932861,3,3,3,2,-7.86,7.52,-3.52,9.08,5.46,6.5
22.08702898025513,3,3,3,2,-8.57,5.76,-3.88,-2.27,6.18,7.4
22.10702896118164,3,3,3,2,-6.82,4.07,-5.47,-8.539999999999999,6.57,6.77
22.12702894210815,3,3,3,2,-7.18,4.02,-4.42,-11.04,5.25,7.66
22.14702916145325,3,3,3,2,-9.81,3.21,-3.77,-12.66,4.41,9.390000000000001
22.16702914237976,3,3,3,2,-11.48,1.69,-3.01,-13.56,4.5,10.97
22.18702912330627,3,3,3,2,-12.19,0.43,-1.83,-11.4,3.63,11.66
22.20702910423279,3,3,3,2,-11.33,1.5,-2.28,-4.77,3.54,12.23
22.2270290851593,3,3,3,2,-9.85,2.51,-2.84,-2.92,3.85,12.76
22.24702906608582,3,3,3,2,-9.17,2.62,-2.89,-5.78,4.24,13.24
22.26702904701233,3,3,3,2,-8.85,1.73,-1.97,-9.220000000000001,4.42,13.78
22.28702902793884,3,3,3,2,-8.890000000000001,0.96,-1.68,-13.12,4.13,14.11
22.30702900886536,3,3,3,2,-9.24,0.43,-1.66,-13.71,3.57,14.03
22.32702898979187,3,3,3,1,-9.390000000000001,0.62,-1.44,-11.87,3.24,13.65
22.34702897071838,3,3,3,1,-9.57,0.51,-1.57,-10.33,3.17,13.35
22.3670289516449,3,3,3,1,-9.5,0.39,-1.84,-9.24,3.16,13.28
22.38702893257141,3,3,3,1,-9.210000000000001,0.54,-1.34,-7.53,2.84,13.2
22.4070291519165,3,3,3,1,-9.140000000000001,0.8100000000000001,-1.5,-6.04,2.16,13.25
22.42702913284302,3,3,3,1,-9.5,0.71,-1.49,-4.92,2.11,13.01
22.44702911376953,3,3,3,1,-9.58,0.29,-1.66,-4.09,1.45,12.89
22.46702909469604,3,3,3,1,-9.890000000000001,-1.02,-1.83,-3.4,0.82,12.53
22.48702907562256,3,3,3,0,-10.22,-1.75,-1.65,-2.53,0.49,11.34
22.50702905654907,3,3,3,0,-10.79,-2.18,-2.31,-1.95,0.51,9.58
22.52702903747559,3,3,3,0,-10.95,-2.36,-2.43,-2.88,0.59,8.15
22.5470290184021,3,3,3,0,-10.94,-2.43,-3,-3.97,0.61,6.76
22.56702899932861,3,3,3,0,-11.24,-2.41,-2.96,-4.4,-0.02,4.74
22.58802914619446,3,3,3,0,-12.15,-2.63,-2.2,-5.22,-1.53,3.13
22.60802912712097,3,3,3,0,-12.63,-4.47,-2.18,-7.84,-2.75,1.52
22.62802910804749,3,3,3,0,-12.65,-8.52,-0.74,-9.539999999999999,-3.49,-1.39
22.648029088974,3,3,3,0,-12.5,-9.1,0.29,-8.19,-4.46,-5.49
22.66802906990051,3,3,3,0,-12.03,-2.01,2.6,-2.33,-5.96,-9.130000000000001
22.68802905082703,3,3,3,0,-10.08,-0.1,-3.58,0.75,-6.54,-11.42
22.70802903175354,3,3,3,0,-11.65,1.5,-3.76,5.28,-3.8,-14.98
22.72802901268005,3,3,3,0,-13.43,4.55,-1.66,-2.38,-3.17,-15.47
22.74802899360657,3,3,3,0,-14.21,4.27,-2.76,-0.3,-1.2,-11.93
22.76802897453308,3,3,3,0,-14.49,7.06,-2.8,2.09,-0.72,-12.94
22.78802895545959,3,3,3,0,-12.77,7.16,-2.76,3.15,-1.98,-14.85
22.80802893638611,3,3,3,0,-11.95,6.6,-2.79,5.05,-0.8,-17.06
22.8280291557312,3,3,3,0,-10.93,6.9,-2.71,7.38,0.54,-19.33
22.84802913665771,3,3,3,0,-9.359999999999999,6.17,-2.73,8.59,0.76,-19.79
22.86802911758423,3,3,3,0,-8.550000000000001,5.9,-2.19,11.05,0.15,-19.81
22.88802909851074,3,3,3,0,-7.56,5.88,-1.87,15.02,0.04,-19.01
22.90802907943726,3,3,3,0,-6.97,6.06,-1.71,17.98,0,-17.31
22.92802906036377,3,3,3,1,-5.63,6.02,0.08,18.36,-1.51,-14.31
22.94802904129028,3,3,3,1,-4.64,7.01,0.17,18.3,-2.48,-12.61
22.9680290222168,3,3,3,1,-4.31,5.41,-0.58,10.28,-1.07,-11.9
22.98802900314331,3,3,3,1,-4.27,4.58,-0.64,5.48,-0.97,-9.91
23.00802898406982,3,3,3,1,-5.04,2.62,0.44,0.96,-0.38,-9.24
23.02802896499634,3,3,3,1,-6.38,1.71,1.73,3.09,1.15,-8.76
23.04802894592285,3,3,3,1,-7.48,-0.72,-0.71,5.95,3.44,-7.9
23.06802916526794,3,3,3,1,-9.06,-6.88,-0.31,1.42,9.16,-6.31
23.08802914619446,3,3,3,2,-13.95,-14.36,-1.71,1.28,11.43,-5.68
23.10802912712097,3,3,3,2,-14.64,-13.69,1.52,10.53,0.25,-4.87
23.12802910804749,3,3,3,2,-11.74,-10.21,0.91,13.18,-6.27,-5.03
23.148029088974,3,3,3,2,-11.14,-6.41,-0.96,10.58,-1.46,-6.84
23.16802906990051,3,3,3,2,-8.869999999999999,0.66,-2.76,7.4,-1.49,-6.36
23.18802905082703,3,3,3,2,-9.73,6.23,-5.47,7.85,-0.55,-2.25
23.20802903175354,3,3,3,2,-9.130000000000001,5.61,3.62,10.1,-9.609999999999999,7.84
23.22802901268005,3,3,3,2,-12.5,-4.75,4.41,8.43,-4.01,8.449999999999999
23.24802899360657,3,3,3,2,-15.17,-3.05,1.77,14.19,-0.14,5.98
23.26802897453308,3,3,3,2,-11.82,4.82,-0.95,16.85,5.28,7.99
23.28802895545959,3,3,3,2,-8.76,5.99,-2.88,5.97,5.32,8.619999999999999
23.30802893638611,3,3,3,2,-8.619999999999999,4.76,-3.72,-4.14,6.03,7.54
23.3280291557312,3,3,3,2,-6.14,3.54,-4.94,-9.699999999999999,6.48,6.35
23.34802913665771,3,3,3,2,-7.29,3.12,-4.32,-12.57,5.63,8.27
23.36802911758423,3,3,3,2,-10.34,1.86,-3.3,-13.97,5.67,9.99
23.38802909851074,3,3,3,2,-12.63,1.16,-2.1,-12.73,4.67,11.05
23.40802907943726,3,3,3,2,-12.34,1.63,-1.85,-7.97,3.78,11.77
23.42802906036377,3,3,3,1,-10.71,3.21,-2.74,-2.73,3.53,12.81
23.44802904129028,3,3,3,1,-9.859999999999999,3.21,-3.3,-4.09,3.9,13.42
23.4680290222168,3,3,3,1,-8.94,1.82,-2.81,-7.97,4.59,14.04
23.48802900314331,3,3,3,1,-8.699999999999999,1.12,-2.15,-11.2,4.79,14.23
23.50802898406982,3,3,3,1,-9.039999999999999,0.24,-1.56,-13.41,4.27,14.3
23.52802896499634,3,3,3,1,-9.34,0.23,-1.16,-12.27,3.49,13.76
23.54802894592285,3,3,3,1,-9.529999999999999,0,-1.12,-10.69,3.27,13.12
23.56802916526794,3,3,3,1,-9.539999999999999,0.06,-1.54,-9.130000000000001,3.27,12.79
23.58802914619446,3,3,3,1,-9.33,0.54,-1.8,-7.55,3.19,12.41
23.60902905464172,3,3,3,1,-9.289999999999999,0.98,-1.49,-5.77,2.6,12.67
23.62902903556824,3,3,3,0,-8.960000000000001,1.08,-1.07,-5.35,2.12,13.14
23.64902901649475,3,3,3,0,-8.9,0.36,-1.61,-5.91,1.97,12.95
23.66902899742126,3,3,3,0,-9.82,-1.37,-1.69,-5.98,1.08,12.28
23.68902897834778,3,3,3,0,-10.37,-1.72,-1.63,-3.36,0.68,10.95
23.70902895927429,3,3,3,0,-10.59,-1.9,-2.25,-1.95,0.9,9.16
23.72902894020081,3,3,3,0,-10.53,-2.13,-2.36,-3.31,1.02,7.9
23.7490291595459,3,3,3,0,-10.55,-2.26,-2.87,-4.33,1.13,6.68
23.76902914047241,3,3,3,0,-11.11,-1.92,-2.64,-4.64,0.66,5.11
23.78902912139893,3,3,3,0,-12.2,-2.18,-2.51,-5.97,-0.85,3.84
23.80902910232544,3,3,3,0,-12.97,-4.12,-2.42,-8.890000000000001,-2.08,2.51
23.82902908325195,3,3,3,0,-12.96,-8.630000000000001,-1.29,-10.95,-2.96,-0.3
23.84902906417847,3,3,3,0,-12.74,-8.91,0.12,-8.470000000000001,-3.86,-4.27
23.86902904510498,3,3,3,0,-12.46,-2.74,2.93,-2.78,-4.8,-7.32
23.88902902603149,3,3,3,0,-11.02,0.8,-1.51,-1.55,-6.13,-9.890000000000001
23.90902900695801,3,3,3,0,-11.03,1.7,-4.44,3.88,-5.32,-12.46
23.92902898788452,3,3,3,0,-12.43,2.55,-3.3,0.88,-3.12,-14.88
23.94902896881104,3,3,3,0,-13.79,4.48,-2.68,-1.7,-1.08,-13.22
23.96902894973755,3,3,3,0,-14.59,5.5,-3.17,1.15,-0.42,-13.33
23.98902893066406,3,3,3,0,-12.63,7.27,-2.84,1.48,-1.55,-14.35
24.00902915000916,3,3,3,0,-11.62,5.85,-3.02,3.94,-0.52,-16.02
24.02902913093567,3,3,3,0,-11.18,5.99,-2.75,7.22,0.77,-18.34
24.04902911186218,3,3,3,0,-9.48,6.35,-2.67,9.59,1.04,-19.04
24.0690290927887,3,3,3,0,-8.609999999999999,6.16,-2.15,11.24,0.6899999999999999,-19.27
24.08902907371521,3,3,3,0,-7.58,5.83,-1.68,14.61,0.2,-18.86
24.10902905464172,3,3,3,0,-7,6.18,-1.78,18.13,0.21,-17.52
24.12902903556824,3,3,3,0,-6.23,6.26,-1.04,19.91,-1.13,-15.07
24.14902901649475,3,3,3,0,-5.66,5.91,0.45,18.95,-2.59,-11.9
24.16902899742126,3,3,3,0,-4.75,6.26,-0.71,14.81,-2.63,-10.53
24.18902897834778,3,3,3,0,-4.7,4.73,-0.17,9.19,-2.34,-10.04
24.20902895927429,3,3,3,0,-5.15,3.46,-0.46,6.48,-1.88,-9.41
24.22902894020081,3,3,3,0,-5.76,2.15,0.41,1.42,-0.07000000000000001,-9.529999999999999
24.2490291595459,3,3,3,0,-6.89,0.54,0.3,4.56,2.72,-9.210000000000001
24.26902914047241,3,3,3,0,-7.82,-2.07,-0.24,5.4,6.96,-7.15
24.28902912139893,3,3,3,0,-10.94,-11.23,-1.67,-1.99,11.38,-6.53
24.30902910232544,3,3,3,0,-14.5,-13.67,-0.62,3.44,8.800000000000001,-5.92
24.32902908325195,3,3,3,0,-12.59,-12.07,1.96,5.74,-4.73,-5.33
24.34902906417847,3,3,3,0,-11.2,-9.289999999999999,0.64,6.09,-2.06,-6.54
24.36902904510498,3,3,3,0,-9.75,-2.73,-1.56,4.99,-0.03,-8
24.38902902603149,3,3,3,0,-8.42,1.84,-4.52,4.99,-1.65,-4.74
24.40902900695801,3,3,3,0,-10.79,7.29,1.44,7.42,-6.74,3.71
24.42902898788452,3,3,3,0,-14.61,-2.71,6.34,7.74,-8.880000000000001,8.08
24.44902896881104,3,3,3,0,-16.34,-3.55,1.24,11.05,-1.22,3.86
24.46902894973755,3,3,3,0,-10.59,5.19,-1.59,10.57,4.8,5.73
24.48902893066406,3,3,3,0,-7.55,7.65,-3.22,0.37,5.17,6.37
24.50902915000916,3,3,3,0,-7.79,5.06,-4.91,-8.65,6.13,6.24
24.52902913093567,3,3,3,0,-5.79,3.68,-5.17,-12.81,5.69,6.26
24.54902911186218,3,3,3,0,-7.56,3.91,-3.78,-13.95,4.49,8.32
24.5690290927887,3,3,3,1,-11.39,2.7,-3.22,-14.31,4.68,10.27
24.58902907371521,3,3,3,1,-12.75,0.92,-2.28,-14.19,4.2,11.23
24.60902905464172,3,3,3,1,-11.99,0.76,-2.39,-8.77,3.34,11.87
24.63002896308899,3,3,3,1,-10.33,1.64,-2.88,-3.25,2.95,12.12
24.6500289440155,3,3,3,1,-9.43,2.44,-3.7,-5.18,4.02,12.15
24.6700291633606,3,3,3,2,-8.81,2.17,-3.07,-6.54,4.18,12.54
24.69002914428711,3,3,3,2,-9.08,1.62,-2.29,-11.92,4.07,13.14
24.71002912521362,3,3,3,2,-9.5,1.56,-1.91,-13.54,3.58,13.36
24.73002910614014,3,3,3,2,-9.779999999999999,1.21,-1.39,-14.24,3.17,13.29
24.75002908706665,3,3,3,2,-9.59,0.33,-1.81,-13.32,2.58,12.35
24.77002906799316,3,3,3,2,-9.380000000000001,-0.13,-1.95,-12.14,2.64,11.98
24.79002904891968,3,3,3,2,-9.289999999999999,0.83,-1.6,-8.199999999999999,2.36,11.76
24.81002902984619,3,3,3,2,-9.09,1.19,-1.64,-7.91,2.48,12.18
24.83002901077271,3,3,3,2,-9.1,0.83,-1.68,-8.199999999999999,2.58,12.36
24.85002899169922,3,3,3,2,-8.84,-0.13,-1.88,-6.52,1.62,12.63
24.87002897262573,3,3,3,2,-9.25,-1.04,-1.58,-4.86,1.28,12.36
24.89002895355225,3,3,3,2,-9.81,-1.17,-1.52,-1.04,0.64,11.45
24.91002893447876,3,3,3,2,-10.45,-1.41,-2,-2.02,0.8,10.26
24.93002915382385,3,3,3,3,-10.65,-2.28,-2.24,-3.13,0.87,9.390000000000001
24.95002913475037,3,3,3,3,-10.69,-2.68,-2.75,-4.5,0.8100000000000001,6.4
24.97002911567688,3,3,3,3,-10.92,-1.97,-2.33,-5.11,0.43,5.64
24.99002909660339,3,3,3,3,-11.07,-1.84,-1.82,-8.550000000000001,-1.15,3.91
25.01002907752991,3,3,3,3,-11.26,-3.29,-2.21,-11.04,-1.75,1.56
25.03002905845642,3,3,3,3,-12.18,-7.46,-1.52,-11.95,-2.24,0.09
25.05002903938293,3,3,3,3,-12.11,-8.699999999999999,-0.21,-8.33,-2.94,-4.59
25.07002902030945,3,3,3,3,-12.13,-4.67,1.86,-7.02,-3.14,-6.02
25.09002900123596,3,3,3,3,-11.9,-1.99,0.21,-4.23,-7,-10.12
25.11002898216248,3,3,3,3,-11.83,-1,-4.56,3.59,-4.75,-13.01
25.13002896308899,3,3,3,3,-13.41,0.97,-3.72,3.26,-3.91,-14.86
25.1500289440155,3,3,3,3,-14.73,5.33,-2.01,0.73,-1.39,-13.16
25.1700291633606,3,3,3,3,-14.15,5.84,-3.04,1.8,-0.9399999999999999,-12.72
25.19002914428711,3,3,3,3,-13.99,7.2,-2,2.84,-3.09,-15.55
25.21002912521362,3,3,3,3,-12.24,7.19,-2.15,3.74,-1.61,-16.83
25.23002910614014,3,3,3,2,-11.55,6.31,-2.45,4.57,-0.48,-17.82
25.25002908706665,3,3,3,2,-10.85,6.29,-2.47,8.390000000000001,0.76,-18.93
25.27002906799316,3,3,3,2,-9.26,6.34,-2.29,9.18,0.47,-18.93
25.29002904891968,3,3,3,2,-8.15,5.82,-1.73,12.25,-0.23,-18.36
25.31002902984619,3,3,3,2,-7.31,5.82,-1.52,17.54,-0.57,-17.64
25.33002901077271,3,3,3,1,-6.4,6.53,-1.38,18.68,-0.99,-16.73
25.35002899169922,3,3,3,1,-5.73,6.49,-0.91,13.9,-2.8,-11.13
25.37002897262573,3,3,3,1,-3.96,7.02,-0.16,12.7,-3.62,-9.92
25.39002895355225,3,3,3,1,-4.01,5.9,-0.9399999999999999,3.47,-2.33,-9.77
25.41002893447876,3,3,3,1,-4.8,2.61,-0.32,2.05,-1.69,-9.24
25.43002915382385,3,3,3,1,-5.41,1.04,-0.58,0.57,-0.48,-9.960000000000001
25.45002913475037,3,3,3,1,-7.77,0.2,0.83,5.27,4.09,-10.32
25.47002911567688,3,3,3,1,-7.7,1.18,-0.2,7.18,5.1,-8.76
25.49002909660339,3,3,3,1,-8.699999999999999,-5.16,-0.88,-0.8100000000000001,8.69,-5.44
25.51002907752991,3,3,3,1,-11.02,-12.06,-2.78,0.06,6.84,-4.91
25.53002905845642,3,3,3,1,-14.11,-13.48,1.95,2.3,1.69,-4.55
25.55002903938293,3,3,3,1,-12.3,-12.32,1.98,9.25,-1.36,-5.63
25.57002902030945,3,3,3,0,-10.91,-7.23,-0.51,8.390000000000001,0.95,-6.9
25.59002900123596,3,3,3,0,-9.470000000000001,-2.74,-1.75,6.39,-0.86,-4.55
25.61002898216248,3,3,3,0,-8.800000000000001,6,-5.14,9.779999999999999,-1.06,1.5
25.63002896308899,3,3,3,0,-8.720000000000001,8.619999999999999,0.1,10.71,-8.220000000000001,7.53
25.65102910995483,3,3,3,0,-14.1,-6.02,4.61,13.24,-2.36,6.84
25.67102909088135,3,3,3,0,-17.69,-7.48,3,18.05,-2.05,5.58
25.69102907180786,3,3,3,0,-9.67,7.39,-2.09,14.1,5.19,7.85
25.71102905273438,3,3,3,0,-7.96,6.92,-4.25,-0.99,6.22,6.57
25.73102903366089,3,3,3,0,-8.109999999999999,5.56,-4.8,-5.91,6.76,5.61
25.7510290145874,3,3,3,0,-5.64,3.02,-5.42,-14.23,5.36,6.55
25.77102899551392,3,3,3,0,-6.99,2.77,-4.91,-14.7,5.23,7.63
25.79102897644043,3,3,3,0,-12.36,2.18,-2.67,-14.96,4.78,10.6
25.81102895736694,3,3,3,0,-13.52,1.53,-1.96,-11.69,4.09,11.79
25.83102893829346,3,3,3,0,-13.18,1.31,-1.76,-9.19,3.74,12.12
25.85102915763855,3,3,3,0,-10.46,2.7,-2.82,-2.51,3.47,12.94
25.87102913856506,3,3,3,0,-9.970000000000001,2.74,-3.14,-5.31,4.51,13.38
25.89102911949158,3,3,3,0,-8.75,1.92,-3.07,-8.5,5.01,14.18
25.91102910041809,3,3,3,0,-9.09,1.3,-1.67,-11.64,4.62,14.32
25.9310290813446,3,3,3,0,-9.289999999999999,1.34,-1.28,-12.91,3.76,14.12
25.95102906227112,3,3,3,0,-9.98,0.82,-1.33,-12.77,3.48,13.46
25.97102904319763,3,3,3,1,-9.880000000000001,0.59,-1.22,-12.94,3.34,13.07
25.99102902412415,3,3,3,1,-9.220000000000001,-0.21,-1.99,-11.46,3.22,12.17
26.01102900505066,3,3,3,1,-8.99,-0.07000000000000001,-1.81,-9.039999999999999,2.97,11.76
26.03102898597717,3,3,3,1,-8.81,0.13,-1.63,-7.15,2.38,11.89
26.05102896690369,3,3,3,1,-8.890000000000001,0.78,-1.74,-6.83,1.92,12.16
26.0710289478302,3,3,3,2,-9.029999999999999,0.06,-2.03,-6.23,1.43,12.09
26.09102916717529,3,3,3,2,-9.66,-1.32,-1.85,-3.93,0.6899999999999999,11.62
26.11102914810181,3,3,3,2,-10.14,-1.69,-2.17,-1.7,0.6899999999999999,10.75
26.13102912902832,3,3,3,2,-10.27,-1.87,-2,-2.28,1.02,9.359999999999999
26.15102910995483,3,3,3,2,-11.22,-2.32,-2.05,-3.42,1.13,7.9
26.17102909088135,3,3,3,2,-11.5,-2.3,-1.87,-4.46,0.42,6.5
26.19102907180786,3,3,3,2,-11.33,-3.02,-1.76,-5.36,-0.46,4.41
26.21102905273438,3,3,3,2,-11.25,-4.23,-1.68,-6.78,-1.85,2.11
26.23102903366089,3,3,3,3,-11.61,-5.9,-1.41,-8.83,-2.62,-0.35
26.2510290145874,3,3,3,3,-12.15,-8.970000000000001,0.76,-10.93,-3.88,-3.72
26.27102899551392,3,3,3,3,-12.34,-6.87,3.04,-10.32,-5.17,-7.72
26.29102897644043,3,3,3,3,-10.94,0.36,-1.88,-5.45,-6.77,-10.5
26.31102895736694,3,3,3,3,-11.41,0.45,-5.41,2.97,-5.41,-12.94
26.33102893829346,3,3,3,3,-14.09,2.16,-3.97,0.86,-5.06,-15.52
26.35102915763855,3,3,3,3,-15.17,3.94,-2.92,-1.59,-2.97,-13.17
26.37102913856506,3,3,3,3,-14.83,4.55,-4.18,3.36,-1.6,-12
26.39102911949158,3,3,3,3,-14.12,7.21,-3.14,6.44,-3.11,-14.63
26.41102910041809,3,3,3,3,-11.75,7.2,-2.89,6.77,-2.94,-15.83
26.4310290813446,3,3,3,3,-11.34,6.5,-3.08,7.62,-0.75,-17.08
26.45102906227112,3,3,3,3,-10.19,6.26,-2.96,10.03,0.24,-17.91
26.47102904319763,3,3,3,3,-9.65,6.28,-2.91,11.36,0.13,-18.05
26.49102902412415,3,3,3,3,-8.24,6.56,-1.96,13.41,-0.37,-17.62
26.51102900505066,3,3,3,3,-7.59,5.88,-1.86,16.74,-0.26,-16.61
26.53102898597717,3,3,3,3,-6.82,6.01,-1.97,19.74,-0.53,-15.69
26.55102896690369,3,3,3,3,-6.15,6.1,-1.28,20.5,-2.41,-12.45
26.5710289478302,3,3,3,3,-4.44,6.46,-0.36,19.55,-4.33,-9.880000000000001
26.59202909469604,3,3,3,3,-4.9,6.08,-0.53,12.01,-2.99,-9.800000000000001
26.61102914810181,3,3,3,3,-5.39,4.83,-0.45,6.85,-3.08,-8.029999999999999
26.63102912902832,3,3,3,3,-5.36,3.74,0.22,2.7,-3.26,-7.43
26.65202903747559,3,3,3,3,-7.09,2.57,2.67,5.41,-0.6,-7.86
26.67102909088135,3,3,3,3,-7.8,1.67,2.54,8.800000000000001,1.59,-6.52
26.69202899932861,3,3,3,3,-7.98,-6.64,-0.36,1.09,8.42,-5.32
26.71202898025513,3,3,3,3,-11.47,-12.95,-2.63,-4.58,14.97,-5.69
26.73202896118164,3,3,3,3,-15.29,-14.43,1.41,4.66,4.33,-4.01
26.75202894210815,3,3,3,3,-12.18,-12.26,2.02,8.48,-5.46,-4.66
26.77202916145325,3,3,3,3,-10.5,-6.54,-0.07000000000000001,7.69,-1.16,-7.43
26.79202914237976,3,3,3,3,-9.640000000000001,-0.88,-2.11,4.18,-1.62,-7.4
26.81202912330627,3,3,3,3,-10.41,6.68,-3.91,6.64,-1.41,-2.41
26.83202910423279,3,3,3,3,-10.42,6.41,2.83,8.74,-12.45,7.78
26.8520290851593,3,3,3,3,-15.84,-6.83,3.78,7.93,-3.77,5.41
26.87202906608582,3,3,3,3,-12.18,1.34,-0.57,12.13,1.82,4.03
26.89202904701233,3,3,3,3,-8.699999999999999,6.69,-2.58,10.23,5.61,6.16
26.91202902793884,3,3,3,3,-8.800000000000001,5.89,-3.78,1.87,5.14,7.18
26.93202900886536,3,3,3,3,-7.37,5.52,-5.4,-6.13,6.13,6.06
26.95202898979187,3,3,3,3,-7.26,3.71,-4.34,-10.24,5.17,6.96
26.97202897071838,3,3,3,3,-8.9,3.01,-3.68,-12.3,5.48,8.880000000000001
26.9920289516449,3,3,3,3,-11.21,2.24,-2.84,-11.82,5.19,10.42
27.01202893257141,3,3,3,3,-12.01,1.37,-1.85,-9.57,4.72,11.42
27.0320291519165,3,3,3,3,-11.46,2.23,-1.81,-4.3,4.04,12.25
27.05202913284302,3,3,3,3,-10.42,2.45,-2.25,-1.97,3.9,12.78
27.07202911376953,3,3,3,3,-9.220000000000001,2.41,-2.76,-3.49,4.43,13.02
27.09202909469604,3,3,3,3,-8.75,1.79,-2.76,-6.79,4.95,13.17
27.11202907562256,3,3,3,3,-8.76,0.83,-1.55,-9.92,4.73,13.04
27.13202905654907,3,3,3,2,-9.06,0.46,-1.39,-11.84,4.31,12.92
27.15202903747559,3,3,3,2,-9.52,0.46,-1.42,-11.16,3.84,12.65
27.1720290184021,3,3,3,2,-9.640000000000001,0.47,-1.31,-10.12,3.53,12.56
27.19202899932861,3,3,3,2,-9.52,0.59,-1.9,-8.92,3.56,12.53
27.21202898025513,3,3,3,2,-9.640000000000001,1.01,-2.02,-7.58,3.53,12.63
27.23202896118164,3,3,3,2,-9.68,1.36,-1.28,-6.92,2.75,13.01
27.25202894210815,3,3,3,2,-9.619999999999999,0.73,-1.69,-7.07,2.33,13.15
27.27202916145325,3,3,3,2,-9.390000000000001,-0.76,-1.62,-6.7,1.98,12.44
27.29202914237976,3,3,3,2,-9.5,-1.81,-1.84,-4.82,1.42,11.39
27.31202912330627,3,3,3,2,-9.859999999999999,-2.1,-2.18,-2.99,0.85,10.59
27.33202910423279,3,3,3,2,-10.15,-1.82,-2.42,-2.03,1.02,9.359999999999999
27.3520290851593,3,3,3,2,-10.86,-1.68,-2.99,-2.16,1.17,7.74
27.37202906608582,3,3,3,2,-11.23,-1.19,-2.75,-2.99,1.29,6.18
27.39202904701233,3,3,3,2,-11.52,-1.27,-3.04,-5.83,0.47,4.88
27.41202902793884,3,3,3,2,-11.83,-2.51,-2.74,-9.609999999999999,-0.84,3.16
27.43202900886536,3,3,3,2,-12.66,-6.17,-2.61,-11.84,-2.01,0.59
27.45202898979187,3,3,3,2,-13.2,-7.59,-1.01,-9.380000000000001,-3.44,-3.21
27.47202897071838,3,3,3,2,-12.83,-7.22,1.88,-8.84,-4.78,-5.96
27.4920289516449,3,3,3,2,-12.54,-4.27,2.83,-4.31,-5.61,-8.640000000000001
27.51202893257141,3,3,3,2,-10.01,0.51,-2.88,-1.77,-6.42,-11.14
27.5320291519165,3,3,3,2,-10.96,1.54,-3.64,4.2,-4.35,-14.47
27.55202913284302,3,3,3,2,-12.81,3.89,-1.84,-0.9399999999999999,-3.08,-15.55
27.57202911376953,3,3,3,2,-13.73,5.19,-1.61,-1.24,-1.35,-12.69
27.59202909469604,3,3,3,2,-14.42,6.32,-2.74,-0.6899999999999999,-0.73,-13.08
27.61202907562256,3,3,3,2,-12.01,6.77,-2.45,-0.28,-1.27,-14.43
27.63202905654907,3,3,3,2,-11.52,6.06,-2.43,2.22,-0.17,-16.6
27.65202903747559,3,3,3,2,-10.8,6.47,-2.31,5.15,1.07,-18.3
27.6720290184021,3,3,3,2,-9.789999999999999,6.71,-2.17,7.08,1.38,-18.63
27.69202899932861,3,3,3,2,-8.529999999999999,6.14,-1.97,7.94,0.78,-18.97
27.71302914619446,3,3,3,2,-7.85,5.58,-1.53,10.01,0.73,-18.78
27.73302912712097,3,3,3,2,-6.79,5.86,-1.1,14.49,0.46,-17.45
27.75302910804749,3,3,3,2,-6.2,5.9,-1.05,16.28,-0.45,-14.31
27.773029088974,3,3,3,2,-5.31,6.07,0.09,15.98,-1.71,-11.25
27.79302906990051,3,3,3,2,-4.53,6.45,-0.44,12.32,-1.68,-10.16
27.81302905082703,3,3,3,2,-4.68,4.51,-0.42,6.27,-0.39,-8.859999999999999
27.83302903175354,3,3,3,2,-5.19,2.95,-0.55,2.4,-0.09,-7.8
27.85302901268005,3,3,3,2,-6.26,1.46,0.66,1.72,1.77,-8.09
27.87302899360657,3,3,3,2,-7.44,0.67,0.1,3.97,6.13,-7.46
27.89302897453308,3,3,3,2,-8.19,-4.06,-0.1,1.91,9.23,-5.18
27.91302895545959,3,3,3,2,-10.28,-11.25,-0.78,-2,12.49,-3.9
27.93302893638611,3,3,3,2,-15.05,-14.56,0.82,7.58,5.73,-3.44
27.9530291557312,3,3,3,2,-13.62,-13.61,1.86,10.46,-5.41,-3.92
27.97302913665771,3,3,3,2,-11.6,-8.34,0.17,9.19,-2.16,-6.23
27.99302911758423,3,3,3,2,-10.44,-4.03,-0.96,7.49,-2.37,-7.47
28.01302909851074,3,3,3,2,-7.62,4.13,-5.55,7.67,-1.9,-4.49
28.03302907943726,3,3,3,2,-10.51,10.52,-2.2,10.26,-6,4.39
28.05302906036377,3,3,3,2,-11.45,-1.75,4.55,8.050000000000001,-7.44,9.27
28.07302904129028,3,3,3,2,-17.21,-6.68,2.48,11.65,-1.34,4.59
28.0930290222168,3,3,3,2,-12.42,4.3,-0.64,15.69,4.01,6.46
28.11302900314331,3,3,3,2,-9.34,6.19,-2.98,5.31,5.48,7.89
28.13302898406982,3,3,3,2,-9.06,5.42,-3.37,-2.81,5.81,7.39
28.15302896499634,3,3,3,2,-6.23,5.09,-5.15,-9.41,6.76,6.35
28.17302894592285,3,3,3,2,-6.94,3.71,-3.99,-13.96,5.47,8.529999999999999
28.19302916526794,3,3,3,2,-9.99,2.25,-3.53,-15.96,5.66,9.710000000000001
28.21302914619446,3,3,3,2,-11.53,1.16,-2.76,-14.94,4.62,10.43
28.23302912712097,3,3,3,2,-11.92,0.1,-2.21,-10.15,3.86,10.81
28.25302910804749,3,3,3,2,-11.32,1.47,-2.54,-4.25,3.19,11.33
28.273029088974,3,3,3,2,-9.970000000000001,3.17,-3.02,-4.65,3.74,11.47
28.29302906990051,3,3,3,2,-9.4,3.28,-2.97,-8.98,4.51,12.12
28.31302905082703,3,3,3,2,-9.18,2.08,-2.33,-13.62,4.48,12.43
28.33302903175354,3,3,3,2,-9.220000000000001,1.75,-1.88,-15.57,3.96,12.44
28.35302901268005,3,3,3,2,-9.31,0.98,-1.93,-16,3.42,12.09
28.37302899360657,3,3,3,2,-9.51,0.45,-1.77,-15.01,2.87,11.48
28.39302897453308,3,3,3,2,-9.49,-0.06,-2.31,-12.84,2.67,10.83
28.41302895545959,3,3,3,2,-9.18,0.55,-1.89,-10.34,2.16,10.63
28.43302893638611,3,3,3,2,-8.74,0.76,-2.3,-9.67,1.91,11.01
28.4530291557312,3,3,3,2,-8.58,0.53,-2.67,-9.369999999999999,1.83,11.49
28.47302913665771,3,3,3,2,-8.630000000000001,0.38,-1.91,-7.3,1.25,11.5
28.49302911758423,3,3,3,2,-8.800000000000001,0.35,-2.04,-5.1,0.99,11.52
28.51302909851074,3,3,3,2,-9.869999999999999,-0.37,-1.88,-4.69,0.82,11.53
28.53302907943726,3,3,3,2,-10.29,-0.7,-1.72,-3.97,0.83,10.7
28.55302906036377,3,3,3,2,-10.56,-2.59,-2.03,-4.1,0.67,9.09
28.57302904129028,3,3,3,2,-10.88,-3.06,-1.99,-4.05,0.66,7.34
28.5930290222168,3,3,3,2,-11.14,-2.54,-2.45,-3.13,0.65,5.48
28.61302900314331,3,3,3,2,-11.2,-2.39,-2.36,-3.18,0.24,3.64
28.63302898406982,3,3,3,2,-11.55,-2.03,-2.03,-5.28,-0.87,2.38
28.65302896499634,3,3,3,2,-12.09,-3.51,-1.67,-9.6,-1.66,0.9399999999999999
28.67302894592285,3,3,3,2,-12.26,-7.41,-0.41,-11.17,-2.76,-2.21
28.69302916526794,3,3,3,2,-12.12,-8.24,0.62,-7.62,-3.95,-6
28.71302914619446,3,3,3,2,-12.1,-2.76,2.71,-1.2,-5.63,-8.630000000000001
28.73402905464172,3,3,3,2,-11.12,0.38,-1.08,0.42,-7.37,-10.54
28.75402903556824,3,3,3,2,-11.48,0.29,-5.05,5.36,-5.57,-13.53
28.77402901649475,3,3,3,2,-13.3,2.18,-3.39,2.28,-4.73,-15.02
28.79402899742126,3,3,3,2,-13.5,5.34,-2.57,3.21,-2.31,-12.24
28.81402897834778,3,3,3,2,-14.21,6.19,-3.29,3.89,-1.62,-12.8
28.83402895927429,3,3,3,2,-13.03,6.96,-2.44,3.44,-3.41,-14.38
28.85402894020081,3,3,3,2,-11.88,6.41,-2.63,3.71,-2.33,-15.48
28.8740291595459,3,3,3,2,-11.55,6.43,-2.48,6.03,-0.92,-16.9
28.89402914047241,3,3,3,2,-10.13,6.26,-2.49,7.92,-0.41,-17.75
28.91402912139893,3,3,3,2,-9.17,6.76,-2.29,9.81,-0.98,-17.82
28.93402910232544,3,3,3,2,-7.82,5.88,-2.22,8.57,-0.67,-17.03
28.95402908325195,3,3,3,2,-6.91,5.58,-2.16,10.73,-0.17,-16.43
28.97402906417847,3,3,3,2,-6.13,6.06,-1.78,13.55,-0.35,-14.23
28.99402904510498,3,3,3,2,-5.96,5.88,-1.5,13.78,-1.73,-10.66
29.01402902603149,3,3,3,2,-4.75,6.17,-0.23,13.32,-3.95,-8.84
29.03402900695801,3,3,3,2,-4.67,4.62,-0.45,4.3,-2.69,-8.960000000000001
29.05402898788452,3,3,3,2,-4.99,2.13,0.43,5.16,-2.84,-8.98
29.07402896881104,3,3,3,2,-5.83,2.15,0.17,6.25,-0.42,-9.970000000000001
29.09402894973755,3,3,3,2,-7.15,1.29,1.11,4.72,3.02,-9.75
29.11402893066406,3,3,3,2,-6.93,-0.26,-0.74,2.45,6.91,-7.08
29.13402915000916,3,3,3,2,-9.9,-8.1,-1.08,1.46,12.99,-5.51
29.15402913093567,3,3,3,2,-12.74,-12.77,-2.5,0.3,10.32,-4.66
29.17402911186218,3,3,3,2,-13.46,-14.7,3.1,8.24,-4.1,-2.96
29.1940290927887,3,3,3,2,-12.66,-11.3,0.83,12.13,-2.13,-5.67
29.21402907371521,3,3,3,2,-10.85,-5.19,-1.13,8.69,-1.18,-7.75
29.23402905464172,3,3,3,2,-9.779999999999999,-0.13,-2.28,6.28,-3.32,-6.13
29.25402903556824,3,3,3,2,-9.710000000000001,6.71,-4.52,7.46,-2.93,-0.6899999999999999
29.27402901649475,3,3,3,2,-11.3,6.2,1.92,9.23,-9.300000000000001,6.9
29.29402899742126,3,3,3,2,-13.11,-3.98,3.84,9.67,-3.46,5.71
29.31402897834778,3,3,3,2,-15.15,-3.68,0.43,13.67,0.12,6.04
29.33402895927429,3,3,3,1,-10.57,5.02,-1.79,12.18,4.94,8.210000000000001
29.35402894020081,3,3,3,1,-8.34,6.65,-2.63,2.91,5.55,8.42
29.3740291595459,3,3,3,1,-7.86,4.43,-3.86,-6,6.07,7.11
29.39402914047241,3,3,3,1,-6.67,3.76,-4.92,-10.2,5.48,7.03
29.41402912139893,3,3,3,1,-7.94,2.28,-3.9,-12.85,5.57,8.640000000000001
29.43402910232544,3,3,3,1,-9.58,2.26,-3.42,-12.52,5,9.99
29.45402908325195,3,3,3,1,-11.89,1.21,-2.48,-10.83,4.34,10.94
29.47402906417847,3,3,3,1,-11.42,1.36,-2.02,-6.38,3.66,11.56
29.49402904510498,3,3,3,1,-10.64,2.28,-2.31,-3.28,3.5,12.16
29.51402902603149,3,3,3,1,-9.5,2.73,-2.74,-4.72,3.83,12.56
29.53402900695801,3,3,3,1,-9.06,2.33,-2.55,-8.56,4.6,12.89
29.55402898788452,3,3,3,1,-8.869999999999999,1.24,-2.14,-11.64,4.68,13.15
29.57402896881104,3,3,3,1,-9.01,0.62,-1.63,-12.62,4.18,13.05
29.59402894973755,3,3,3,1,-9.4,0.44,-1.15,-11.72,3.51,12.84
29.61402893066406,3,3,3,1,-9.48,0.23,-1.33,-10.49,3.13,12.63
29.63402915000916,3,3,3,1,-9.65,0.06,-1.65,-8.82,2.99,12.24
29.65402913093567,3,3,3,1,-9.59,0.53,-1.8,-6.55,2.77,12.11
29.67402911186218,3,3,3,1,-9.44,0.66,-1.87,-5.94,2.37,12.36
29.6940290927887,3,3,3,1,-9.359999999999999,0.57,-1.84,-5.87,2.15,12.38
29.71402907371521,3,3,3,1,-9.08,0.21,-1.57,-5.21,1.47,12.17
29.73402905464172,3,3,3,1,-9.279999999999999,-0.58,-1.64,-4.4,0.74,11.79
29.75502896308899,3,3,3,1,-9.75,-1.78,-1.79,-3.13,0.31,11.02
29.7750289440155,3,3,3,1,-10.17,-1.93,-2.02,-1.72,0.57,9.32
29.7950291633606,3,3,3,1,-11.01,-1.69,-2.45,-1.72,1.09,7.48
29.81502914428711,3,3,3,1,-11.21,-1.23,-2.67,-3.21,0.95,6.06
29.83502912521362,3,3,3,1,-11.37,-0.89,-2.48,-5.78,-0.07000000000000001,4.99
29.85502910614014,3,3,3,1,-11.69,-1.23,-3.12,-7.27,-0.93,3.82
29.87502908706665,3,3,3,1,-13.22,-3.35,-2.46,-8.51,-1.75,1.83
29.89502906799316,3,3,3,1,-13.21,-6.06,-1.94,-9.119999999999999,-3.37,-2.06
29.91502904891968,3,3,3,1,-12.38,-8.93,-0.18,-8.289999999999999,-4.05,-3.87
29.93502902984619,3,3,3,1,-12.14,-7.99,1.71,-2.41,-7.28,-9.869999999999999
29.95502901077271,3,3,3,1,-11.1,-0.31,0.61,3.21,-6.4,-12.46
29.97502899169922,3,3,3,1,-9.779999999999999,1.19,-3.81,5.99,-4.5,-14
29.99502897262573,3,3,3,1,-11.35,2.65,-3.79,-2.63,-1.75,-15.77
30.01502895355225,3,3,3,1,-13.24,5.17,-1.72,-3.7,-1.64,-13.62
30.03502893447876,3,3,3,1,-13.79,5.23,-2.38,-1.27,-0.2,-12.44
30.05502915382385,3,3,3,1,-14.15,6.78,-2.76,0.32,-0.97,-14.15
30.07502913475037,3,3,3,1,-11.95,5.68,-3.09,1.97,-0.45,-15.39
30.09502911567688,3,3,3,1,-11.76,5.51,-3.15,8.33,1.3,-19.24
30.11502909660339,3,3,3,1,-10.56,6.38,-2.88,9.779999999999999,1.34,-19.57
30.13502907752991,3,3,3,1,-9.23,6.37,-2.4,11.18,0.47,-19.75
30.15502905845642,3,3,3,1,-8.359999999999999,6.2,-2.04,12.25,0.3,-18.95
30.17502903938293,3,3,3,1,-7.11,6.08,-1.54,13.61,0.17,-18.34
30.19502902030945,3,3,3,1,-6.58,5.84,-1.11,17.15,-1,-14.57
30.21502900123596,3,3,3,1,-5.7,5.83,-0.01,17.15,-1.46,-13.1
30.23502898216248,3,3,3,1,-4.96,6.52,0.15,11.86,-1.09,-9.59
30.25502896308899,3,3,3,1,-4.06,6.05,-0.59,6.4,-0.12,-7.58
30.2750289440155,3,3,3,2,-4.12,4.51,-0.58,5.76,0.35,-6.68
30.2950291633606,3,3,3,2,-5.48,2.69,-0.05,1.15,3.1,-6.94
30.31502914428711,3,3,3,2,-6.49,0.19,1.25,0.74,4.46,-7.08
30.33502912521362,3,3,3,2,-8.26,-1.22,-1.8,0.8100000000000001,10.84,-7.2
30.35502910614014,3,3,3,2,-10,-7.84,-0.92,0.79,12.56,-8.460000000000001
30.37502908706665,3,3,3,2,-14.41,-15.39,-1.14,6.79,9.77,-8.49
30.39502906799316,3,3,3,2,-14.6,-16.85,2.96,9.08,-7.78,-6.95
30.41502904891968,3,3,3,2,-12.54,-10.78,1.32,9.720000000000001,-3.88,-7.56
30.43502902984619,3,3,3,2,-10.51,-5.94,0.25,6.43,-0.5,-7.08
30.45502901077271,3,3,3,2,-7.16,1.21,-4.64,7.73,0.61,-2.11
30.47502899169922,3,3,3,2,-8.529999999999999,10.35,-3.61,5.83,-6.36,4.66
30.49502897262573,3,3,3,2,-12.25,-0.21,3.95,6.89,-4.81,6.8
30.51502895355225,3,3,3,2,-18.08,-7.28,3.99,10.38,-3,4.25
30.53502893447876,3,3,3,2,-13.29,-0.35,0.46,14.9,3.69,7.32
30.55502915382385,3,3,3,2,-9.300000000000001,6.21,-2.94,3.62,4.81,7.79
30.57502913475037,3,3,3,2,-7.26,7.2,-3.26,-2.08,5.14,7.72
30.59502911567688,3,3,3,2,-8.65,6.11,-4.73,-13.34,6.58,6.29
30.61502909660339,3,3,3,2,-5.92,4.63,-5.15,-15.13,5.51,7.28
30.63502907752991,3,3,3,2,-8.24,3.85,-3.47,-17.47,4.53,10.6
30.65502905845642,3,3,3,2,-11.75,1.58,-3.13,-13.95,3.45,11.84
30.67502903938293,3,3,3,2,-12.62,-0.2,-2.35,-11.33,3.1,11.73
30.69502902030945,3,3,3,2,-11.4,0.8100000000000001,-2.81,-2.1,3.64,11.74
30.71502900123596,3,3,3,2,-10.54,1.75,-3.37,-2.57,4.14,11.9
30.73502898216248,3,3,3,2,-9.08,2.69,-3.26,-8.140000000000001,4.7,13.21
30.75502896308899,3,3,3,2,-8.75,1.95,-2.51,-11.56,4.29,13.2
30.77602910995483,3,3,3,2,-9.130000000000001,1.45,-1.97,-12.53,4.1,13.13
30.79602909088135,3,3,3,2,-9.44,1.38,-1.85,-13.22,3.56,12.76
30.81602907180786,3,3,3,2,-9.779999999999999,1.15,-1.63,-13.46,3.41,12.52
30.83602905273438,3,3,3,2,-9.65,0.71,-1.51,-12.24,3.5,12.1
30.85602903366089,3,3,3,2,-9.390000000000001,0.47,-1.74,-10.1,3.5,12.15
30.8760290145874,3,3,3,2,-9.07,0.75,-1.4,-9.51,3.41,12.37
30.89602899551392,3,3,3,2,-9.119999999999999,0.23,-1.45,-7.75,2.42,12.79
30.91602897644043,3,3,3,2,-8.98,0.08,-1.76,-6.96,2.04,12.76
30.93602895736694,3,3,3,2,-9.289999999999999,-0.42,-1.79,-3.38,1.18,12.38
30.95602893829346,3,3,3,2,-9.85,-1.14,-1.75,-1.93,0.87,11.66
30.97602915763855,3,3,3,2,-10.03,-1.47,-1.8,-2.41,1.05,10.28
30.99602913856506,3,3,3,2,-10.41,-2.93,-2.72,-3.04,1.42,8.039999999999999
31.01602911949158,3,3,3,2,-10.63,-2.86,-2.62,-3.56,1.51,7.04
31.03602910041809,3,3,3,2,-11.28,-1.5,-2.41,-6.7,0.19,5.71
31.0560290813446,3,3,3,2,-11.11,-2.36,-2.1,-9.08,-0.72,4.37
31.07602906227112,3,3,3,2,-11.31,-3.07,-1.48,-9.41,-1.23,3.09
31.09602904319763,3,3,3,2,-12.35,-7.65,-0.92,-11.3,-2.51,-1.1
31.11602902412415,3,3,3,2,-12.27,-8.69,-0.16,-11.51,-2.7,-2.96
31.13602900505066,3,3,3,2,-12.27,-3.12,2.61,-9.029999999999999,-5.01,-8.82
31.15602898597717,3,3,3,2,-11.72,-0.49,-0.98,-3.44,-6.51,-11.47
31.17602896690369,3,3,3,2,-11.54,-0.1,-2.82,-0.11,-6.4,-12.73
31.1960289478302,3,3,3,2,-13.61,2.6,-3.19,-2.63,-3.79,-15.64
31.21602916717529,3,3,3,2,-14.37,3.96,-2.26,-3.14,-2.87,-14.26
31.23602914810181,3,3,3,2,-14.8,5.21,-2.97,-0.05,-1.1,-13.02
31.25602912902832,3,3,3,2,-12.81,7.88,-1.98,0.28,-1.86,-14.81
31.27602910995483,3,3,3,2,-11.84,7.03,-2.33,0.23,-1.45,-15.99
31.29602909088135,3,3,3,2,-11.39,6.36,-2.09,1.59,0.12,-18
31.31602907180786,3,3,3,2,-10.83,6.45,-1.96,4.92,0.36,-18.87
31.33602905273438,3,3,3,2,-8.859999999999999,6.27,-1.5,5.61,0.03,-18.86
31.35602903366089,3,3,3,2,-8.07,5.98,-1.41,8.93,-0.31,-18.64
31.3760290145874,3,3,3,2,-7.25,5.54,-1.57,14.9,-0.28,-17.92
31.39602899551392,3,3,3,2,-6.75,5.55,-1.41,18.3,-0.5,-16.26
31.41602897644043,3,3,3,2,-6.36,5.81,-1.12,16.5,-2.07,-13.32
31.43602895736694,3,3,3,2,-4.2,7.22,-0.41,15.3,-4.53,-11.1
31.45602893829346,3,3,3,2,-4.23,5.59,-1.93,10.69,-2.71,-9.92
31.47602915763855,3,3,3,2,-4.39,4.36,-1.54,7.85,-1.88,-8.960000000000001
31.49602913856506,3,3,3,2,-5.23,2.73,0.29,5.03,-0.41,-8.6
31.51602911949158,3,3,3,2,-6.07,1.59,1.04,6.54,2.3,-8.41
31.53602910041809,3,3,3,2,-9.02,-4.49,2.42,4.51,5.65,-7.43
31.5560290813446,3,3,3,2,-10.47,-8.15,0.16,2.04,8.300000000000001,-5.26
31.57602906227112,3,3,3,1,-14.34,-12.69,-1.06,1.77,4.61,-6.1
31.59602904319763,3,3,3,1,-13.54,-13.4,1.48,-0.55,-2.6,-6.29
31.61602902412415,3,3,3,1,-11.27,-8.84,1.55,1.07,-3.48,-6.5
31.63602900505066,3,3,3,1,-10.32,-5.03,-0.05,4.31,-0.61,-8.68
31.65602898597717,3,3,3,1,-8.539999999999999,1.24,-4.14,3.82,-0.6,-7.63
31.67602896690369,3,3,3,0,-9.630000000000001,8.619999999999999,-3.07,6.78,-2.06,-1.67
31.6960289478302,3,3,3,0,-10.85,1.73,3.32,7.65,-10.01,8.359999999999999
31.71602916717529,3,3,3,0,-15.83,-5.2,2.55,4.18,-1.74,6.01
31.73602914810181,3,3,3,0,-13.99,0.24,-0.7,10.02,2.1,4.73
31.75602912902832,3,3,3,0,-8.26,6.79,-1.67,9.31,5.2,7.33
31.77602910995483,3,3,3,0,-8.44,5.77,-2.88,0.65,5.68,8.27
31.79602909088135,3,3,3,0,-7.2,4.22,-4.89,-7.5,6,6.72
31.81702899932861,3,3,3,0,-7.35,2.78,-4.39,-11.25,4.68,7.07
31.83702898025513,3,3,3,0,-9.140000000000001,2.18,-3.64,-12.86,4.84,8.59
31.85702896118164,3,3,3,0,-10.81,1.33,-2.82,-11.94,4.51,9.99
31.87702894210815,3,3,3,0,-12.1,0.84,-1.86,-10.76,4.14,10.81
31.89702916145325,3,3,3,0,-11.55,1.46,-1.93,-6.1,3.33,11.25
31.91702914237976,3,3,3,0,-10.09,2.45,-2.42,-3.53,3.25,11.74
31.93702912330627,3,3,3,0,-9.51,2.44,-2.84,-4.94,3.66,11.81
31.95702910423279,3,3,3,0,-8.99,1.72,-2.85,-8.18,3.94,11.78
31.9770290851593,3,3,3,0,-9,1.22,-2.22,-11.1,3.71,11.9
31.99702906608582,3,3,3,0,-9.16,1.29,-1.86,-13.5,3.38,12.16
32.01702904701233,3,3,3,0,-9.31,1.02,-1.86,-13.62,3.05,12.33
32.03702902793884,3,3,3,0,-9.56,0.32,-1.92,-13.93,2.92,12.11
32.05702900886536,3,3,3,0,-9.359999999999999,0.35,-1.66,-12.41,2.68,11.84
32.07702898979187,3,3,3,0,-9.119999999999999,0.46,-2.09,-10.31,2.65,11.99
32.09702897071838,3,3,3,0,-9.369999999999999,0.48,-1.86,-8.449999999999999,2.76,12
32.1170289516449,3,3,3,0,-9.57,0.6899999999999999,-1.07,-6.78,2.16,12.09
32.13702893257141,3,3,3,0,-9.48,0.33,-1.2,-5.94,1.56,12.51
32.1570291519165,3,3,3,0,-9.6,-1.42,-1.82,-4.97,1.17,12.47
32.17702913284302,3,3,3,0,-9.640000000000001,-1.61,-1.58,-2.03,0.74,11.32
32.19702911376953,3,3,3,0,-10.2,-2.04,-2.35,-0.28,0.9,9.949999999999999
32.21702909469604,3,3,3,0,-10.67,-2.25,-2.34,-1.55,0.77,8.52
32.23702907562256,3,3,3,0,-11,-2.8,-2.68,-2.97,0.88,6.8
32.25702905654907,3,3,3,0,-11.05,-2.97,-2.21,-3.86,0.55,4.42
32.27702903747559,3,3,3,0,-11.82,-2.59,-1.4,-5.83,-0.62,2.73
32.2970290184021,3,3,3,0,-12.58,-3.72,-1.2,-8.81,-2.02,1.52
32.31702899932861,3,3,3,0,-13.23,-7.52,-0.13,-10.79,-3.22,-1.01
32.33702898025513,3,3,3,0,-12.52,-8.66,0.52,-10.05,-4.29,-4.24
32.35702896118164,3,3,3,0,-11.48,-3.31,2.26,-7.46,-4.62,-7.06
32.37702894210815,3,3,3,0,-11.07,-1.39,-1.08,-4.13,-6.7,-9.91
32.39702916145325,3,3,3,0,-9.630000000000001,1.59,-4.85,4.79,-7.17,-11.74
32.41702914237976,3,3,3,0,-13.7,3.03,-4.13,4.21,-3.74,-13.94
32.43702912330627,3,3,3,0,-14.14,4.32,-3.65,1.9,-3.51,-12.38
32.45702910423279,3,3,3,0,-14.5,5.75,-4.46,4.8,-1.51,-10
32.4770290851593,3,3,3,0,-12.76,7.58,-3.91,5.4,-2.27,-12.25
32.49702906608582,3,3,3,0,-11.43,6.45,-4,5.91,-1.99,-13.92
32.51702904701233,3,3,3,0,-11.29,6.03,-3.5,5.94,-0.57,-16.46
32.53702902793884,3,3,3,0,-9.859999999999999,5.95,-2.73,7.89,0.08,-17.7
32.55702900886536,3,3,3,0,-8.970000000000001,6.43,-1.96,9.869999999999999,-0.15,-18.16
32.57702898979187,3,3,3,0,-7.93,5.25,-1.29,11.79,-0.23,-17.48
32.59702897071838,3,3,3,0,-7.28,5.02,-1.23,14.58,0.42,-16.8
32.6170289516449,3,3,3,0,-6.11,5.69,-0.71,16.92,0.45,-14.59
32.63702893257141,3,3,3,0,-5.47,5.57,-0.17,16.68,-1.53,-12.25
32.6570291519165,3,3,3,0,-5.09,4.42,0.04,15.93,-2.65,-10.44
32.67702913284302,3,3,3,0,-5.18,3.62,-0.29,10.87,-1.93,-9.41
32.69702911376953,3,3,3,0,-5.67,2.7,0.21,10.14,-1.51,-9.369999999999999
32.71702909469604,3,3,3,0,-6.18,2.53,-0.68,7.04,0.24,-10.68
32.73702907562256,3,3,3,0,-6.65,1.18,-0.76,1.82,3.02,-10.48
32.75702905654907,3,3,3,0,-7.46,-0.35,-0.7,2.08,6.48,-8.41
32.77702903747559,3,3,3,0,-9.869999999999999,-7.99,-0.59,-3.58,9.57,-6.17
32.7970290184021,3,3,3,0,-11.93,-12.46,0.35,1.82,7.25,-4.22
32.81702899932861,3,3,3,0,-13.65,-13.94,1.43,8.359999999999999,-0.13,-4.17
32.83802914619446,3,3,3,0,-12.08,-10.82,0.6,10.77,-2.1,-5.23
32.85802912712097,3,3,3,0,-10.62,-3.47,-1.3,9.77,-1.86,-5.6
32.87802910804749,3,3,3,0,-9.52,0.25,-3.57,9.9,-2.65,-3.72
32.898029088974,3,3,3,0,-15.16,5.99,3.58,11.65,-6.28,3.3
32.91802906990051,3,3,3,0,-15.84,-5.9,7.41,12.61,-11.65,7.66
32.93802905082703,3,3,3,0,-11.36,2.81,0.34,14.5,-1.05,3.18
32.95802903175354,3,3,3,0,-7.04,9.470000000000001,-3.86,8.33,5.48,4.78
32.97802901268005,3,3,3,0,-8.19,7.37,-4.89,-2.26,6.21,6.02
32.99802899360657,3,3,3,0,-6.78,4.94,-5.43,-10.15,6.32,6.76
33.01802897453308,3,3,3,0,-7.66,6.26,-4.64,-10.46,4.44,8.289999999999999
33.03802895545959,3,3,3,0,-9.74,3.95,-3.94,-12.37,4.79,10.34
33.05802893638611,3,3,3,0,-12.07,1.06,-2.68,-12.54,4.74,11.93
33.0780291557312,3,3,3,0,-12.38,0.12,-1.57,-8.58,4.13,12.2
33.09802913665771,3,3,3,0,-11.11,1.59,-2.27,-1.65,3.83,12.71
33.11802911758423,3,3,3,0,-9.550000000000001,2.09,-3.05,-1.86,4.18,12.77
33.13802909851074,3,3,3,0,-9.01,1.93,-2.96,-4.7,4.57,13.39
33.15802907943726,3,3,3,0,-9.050000000000001,1.16,-1.84,-8.359999999999999,4.52,13.75
33.17802906036377,3,3,3,0,-9.210000000000001,0.79,-1.74,-10.31,4.15,13.79
33.19802904129028,3,3,3,0,-9.609999999999999,0.7,-1.26,-11.05,3.67,13.37
33.2180290222168,3,3,3,0,-9.76,0.5,-1.18,-11.17,3.41,12.76
33.23802900314331,3,3,3,0,-9.58,0.7,-1.51,-10.57,3.44,12.21
33.25802898406982,3,3,3,0,-9.31,1.11,-1.57,-9.25,3.3,12.12
33.27802896499634,3,3,3,0,-9.35,1.35,-1.4,-8.85,3.34,12.53
33.29802894592285,3,3,3,0,-9.58,1.26,-1.12,-8.65,3.08,13
33.31802916526794,3,3,3,0,-9.300000000000001,0.42,-1.53,-7.46,2.38,13.2
33.33802914619446,3,3,3,0,-9.24,-0.8,-1.85,-5.91,1.74,12.84
33.35802912712097,3,3,3,0,-9.65,-2.29,-1.86,-3.58,1,11.96
33.37802910804749,3,3,3,0,-10.07,-2.02,-1.95,-1.51,0.89,10.75
33.398029088974,3,3,3,0,-10.44,-2.03,-2.53,-1.94,0.79,9.51
33.41802906990051,3,3,3,0,-10.81,-2.11,-2.31,-2.69,0.66,8.1
33.43802905082703,3,3,3,0,-10.92,-1.56,-2.29,-3.22,-0.05,6.9
33.45802903175354,3,3,3,0,-10.85,-1.74,-2.22,-4.79,-0.99,5.56
33.47802901268005,3,3,3,0,-11.44,-2.7,-2.05,-6.38,-1.75,3.56
33.49802899360657,3,3,3,0,-12.06,-5.45,-2.27,-9.130000000000001,-2.07,1.18
33.51802897453308,3,3,3,0,-12.38,-8.119999999999999,-0.26,-10.09,-2.79,-1.85
33.53802895545959,3,3,3,0,-12.73,-5.83,2.13,-8.619999999999999,-4.19,-6.05
33.55802893638611,3,3,3,0,-11.88,-0.77,-0.62,-8.09,-6.64,-9.789999999999999
33.5780291557312,3,3,3,0,-11.04,-0.44,-4.35,-0.14,-4.98,-12.32
33.59802913665771,3,3,3,0,-13.06,2.96,-2.79,-0.72,-3.33,-15.58
33.61802911758423,3,3,3,0,-13.96,4.45,-1.38,-4.32,-2.31,-13.37
33.63802909851074,3,3,3,0,-14.64,5.41,-2.31,-0.51,-0.64,-12
33.65802907943726,3,3,3,0,-13.87,7.56,-1.84,1.32,-1.54,-13.8
33.67802906036377,3,3,3,0,-11.92,6.77,-2.12,1.85,-1.35,-15.97
33.69802904129028,3,3,3,0,-11.5,6.24,-2.11,3.51,0.33,-18.35
33.7180290222168,3,3,3,0,-9.98,6.38,-2.21,6.23,1.06,-19.26
33.73802900314331,3,3,3,0,-9.09,6.1,-2.25,7.54,0.9,-19.38
33.75802898406982,3,3,3,0,-8.199999999999999,5.42,-1.84,10.3,0.27,-19.27
33.77802896499634,3,3,3,0,-7.22,5.43,-1.78,14.65,0.31,-18.28
33.79802894592285,3,3,3,0,-6.55,5.81,-1.61,16.97,0.06,-16.36
33.81802916526794,3,3,3,0,-5.29,5.89,0.16,16.94,-1.57,-13.58
33.83802914619446,3,3,3,0,-4.59,6.08,-0.25,16.66,-2.42,-12.36
33.85902905464172,3,3,3,0,-4.77,4.26,-1.02,8.550000000000001,-0.62,-11.51
33.87902903556824,3,3,3,0,-5.07,2.99,-1.31,6.04,-0.28,-9.949999999999999
33.89902901649475,3,3,3,0,-6.3,1.78,-0.21,2.37,0.87,-10.52
33.91902899742126,3,3,3,0,-6.82,1.46,1.15,6.33,1.74,-10.44
33.93902897834778,3,3,3,0,-7.78,-0.77,0.64,6.85,4.83,-8.109999999999999
33.95902895927429,3,3,3,0,-9.02,-6.33,0.07000000000000001,0.21,7.73,-5.99
33.97902894020081,3,3,3,0,-13.19,-12.55,-1.39,1.19,8.49,-4.8
33.9990291595459,3,3,3,0,-13.99,-13.16,1.39,5.15,-0.04,-4.05
34.01902914047241,3,3,3,0,-12.01,-10.28,1.1,7.48,-2.41,-4.94
34.03902912139893,3,3,3,0,-10.89,-6.75,-0.47,8.210000000000001,0.07000000000000001,-6.8
34.05902910232544,3,3,3,0,-8.59,0.86,-3.97,7.29,-0.92,-5.37
34.07902908325195,3,3,3,0,-9.77,8.19,-3.08,10.19,-0.95,-0.4
34.09902906417847,3,3,3,0,-10.89,2.01,4.48,9.4,-9.960000000000001,9.91
34.11902904510498,3,3,3,0,-16.81,-6.2,5.27,7.85,-3.34,7.2
34.13902902603149,3,3,3,0,-13.84,1.84,1.07,13.62,0.87,4.84
34.15902900695801,3,3,3,0,-9.390000000000001,7.29,-2.53,7.86,5.33,7.07
34.17902898788452,3,3,3,0,-7.86,5.86,-4.14,-3,5.41,7.1
34.19902896881104,3,3,3,0,-7.35,3.76,-5.55,-10.6,6.3,6.3
34.21902894973755,3,3,3,0,-6.66,2.05,-4.91,-11.86,5.4,7.24
34.23902893066406,3,3,3,0,-8.94,2.53,-2.9,-12.97,4.79,9.029999999999999
34.25902915000916,3,3,3,0,-11.58,2.02,-2.3,-13.62,4.4,10.49
34.27902913093567,3,3,3,0,-12.13,0.85,-1.83,-11.36,3.64,10.88
34.29902911186218,3,3,3,0,-11.23,1.38,-2.36,-5.43,2.66,11.37
34.3190290927887,3,3,3,0,-10.36,2.06,-2.85,-2.16,2.78,11.15
34.33902907371521,3,3,3,0,-9.32,3.34,-3.67,-3.66,3.8,11.49
34.35902905464172,3,3,3,0,-8.960000000000001,3.18,-2.89,-6.82,4.12,12.44
34.37902903556824,3,3,3,0,-9.289999999999999,1.56,-1.92,-11.47,4.08,12.79
34.39902901649475,3,3,3,0,-9.59,1.11,-1.69,-13.22,3.62,12.72
34.41902899742126,3,3,3,1,-9.66,1.14,-1.58,-12.94,2.98,12.14
34.43902897834778,3,3,3,1,-9.4,0.91,-1.82,-12.37,2.85,11.71
34.45902895927429,3,3,3,1,-8.92,0.87,-1.7,-11.94,2.79,11.51
34.47902894020081,3,3,3,1,-8.85,1.16,-1.86,-11.07,2.79,11.83
34.4990291595459,3,3,3,1,-9.1,1.03,-2.18,-9.94,2.77,12.27
34.51902914047241,3,3,3,1,-9.6,0.34,-1.51,-8.220000000000001,2.37,12.67
34.53902912139893,3,3,3,1,-9.44,0,-1.79,-6.63,1.71,12.98
34.55902910232544,3,3,3,1,-9.52,-1.77,-1.59,-4.46,1.46,12.58
34.57902908325195,3,3,3,1,-9.67,-1.95,-1.53,-1.54,0.76,11.66
34.59902906417847,3,3,3,1,-10.53,-1.92,-1.47,-0.8,0.4,10.74
34.61902904510498,3,3,3,1,-10.86,-2.99,-2.1,-2.37,0.5600000000000001,9.07
34.63902902603149,3,3,3,1,-11.02,-2.84,-2.5,-2.69,0.96,6.46
34.65902900695801,3,3,3,1,-11.31,-2.25,-2.2,-3.92,0.42,4.6
34.67902898788452,3,3,3,1,-11.45,-3.31,-1.94,-7.03,-0.93,3.24
34.69902896881104,3,3,3,1,-12.01,-5.42,-1.31,-10.15,-2.01,1.13
34.71902894973755,3,3,3,1,-12.44,-8.960000000000001,-0.11,-11.67,-2.85,-2.12
34.73902893066406,3,3,3,1,-12.68,-7.65,1.52,-9.59,-3.44,-5.92
34.75902915000916,3,3,3,1,-11.99,-0.68,0.5600000000000001,-6.19,-5.96,-9.109999999999999
34.77902913093567,3,3,3,2,-11.38,0.62,-3.23,-0.75,-6.44,-10.31
34.79902911186218,3,3,3,2,-12.71,0.44,-4.75,1.88,-5.98,-13.6
34.8190290927887,3,3,3,2,-14.49,2.47,-2.76,-2.08,-4.69,-14.94
34.83902907371521,3,3,3,2,-13.52,5.17,-3.5,2.46,-2.43,-12.46
34.85902905464172,3,3,3,2,-13.7,5.71,-3.39,6.07,-1.76,-13.97
34.88002896308899,3,3,3,2,-12.34,6.8,-2.56,6.8,-2.86,-15.86
34.9000289440155,3,3,3,2,-11.51,6.68,-2.69,6.25,-0.83,-16.05
34.9200291633606,3,3,3,2,-10.95,6.49,-2.76,7.7,0.57,-16.96
34.94002914428711,3,3,3,2,-10.19,6.42,-2.62,9.07,0.08,-17.65
34.96002912521362,3,3,3,2,-8.779999999999999,6.09,-1.87,9.99,-1.07,-17.75
34.98002910614014,3,3,3,2,-8.07,5.55,-1.48,11.73,-1.35,-17.36
35.00002908706665,3,3,3,2,-6.72,5.36,-1.74,13.91,-0.87,-16.49
35.02002906799316,3,3,3,2,-6.14,5.69,-1.88,13.98,-0.79,-14.76
35.04002904891968,3,3,3,2,-5.21,5.53,-0.85,15.46,-2.88,-9.77
35.06002902984619,3,3,3,2,-4.25,6.05,-0.93,14.81,-3.44,-9.09
35.08002901077271,3,3,3,2,-4.38,5.31,-0.66,10.5,-3.06,-8.630000000000001
35.10002899169922,3,3,3,2,-5.37,3.65,-0.19,5.19,-2.52,-7.22
35.12002897262573,3,3,3,2,-6.23,2.42,1.08,3.69,-2.34,-7.39
35.14002895355225,3,3,3,2,-8.130000000000001,0.54,2.64,7.15,2.09,-7.72
35.16002893447876,3,3,3,2,-8.41,0.37,-1.02,7.33,5.5,-6.53
35.18002915382385,3,3,3,3,-10.77,-10.72,-0.8100000000000001,-2.84,15.27,-6.38
35.20002913475037,3,3,3,3,-14.22,-14.79,-3.5,-0.1,6.44,-4.94
35.22002911567688,3,3,3,3,-12.23,-12.83,2.37,2.38,-2.34,-3.99
35.24002909660339,3,3,3,3,-11.5,-10.15,1.53,7.59,0.61,-6.97
35.26002907752991,3,3,3,3,-10.26,-3.4,-1.89,7.54,0.79,-7.97
35.28002905845642,3,3,3,3,-9.73,0.89,-3.92,10.04,-1.19,-2.96
35.30002903938293,3,3,3,3,-11.49,6.11,2.73,14.5,-14.7,7.98
35.32002902030945,3,3,3,3,-13.31,-3.77,6.28,15.28,-9.880000000000001,7.79
35.34002900123596,3,3,3,3,-12.98,0.48,0.42,17.19,1.9,5.38
35.36002898216248,3,3,3,3,-10.02,7.83,-3.49,13.22,4.77,6.16
35.38002896308899,3,3,3,2,-8.289999999999999,7.19,-3.83,-2.09,6.53,7.49
35.4000289440155,3,3,3,2,-7.84,4.95,-3.59,-9.640000000000001,7.33,6.87
35.4200291633606,3,3,3,2,-7.2,4.03,-4.15,-11.54,6.48,7.3
35.44002914428711,3,3,3,2,-8.5,3.4,-3.69,-15.37,5.58,9.5
35.46002912521362,3,3,3,1,-10.65,0.97,-3.21,-15.18,5.19,10.1
35.48002910614014,3,3,3,1,-11.8,-0.43,-2.54,-8.199999999999999,3.75,11.07
35.50002908706665,3,3,3,1,-11.52,1.16,-2.21,-1.2,3.65,11.85
35.52002906799316,3,3,3,1,-10.71,2.63,-2.76,-0.6,3.82,12.16
35.54002904891968,3,3,3,1,-9.720000000000001,3.25,-3.28,-5.94,4.51,13.24
35.56002902984619,3,3,3,0,-9.31,2.65,-2.76,-7.4,4.54,13.65
35.58002901077271,3,3,3,0,-9.19,1.71,-2.03,-12.2,4.57,14.19
35.60002899169922,3,3,3,0,-9.279999999999999,1.4,-1.73,-12.54,3.89,14.26
35.62002897262573,3,3,3,0,-9.41,1.1,-1.42,-12.16,3.71,14.06
35.64002895355225,3,3,3,0,-9.470000000000001,0.7,-1.39,-11.15,3.52,13.41
35.66002893447876,3,3,3,0,-9.300000000000001,0.02,-1.55,-10.7,3.53,13.23
35.68002915382385,3,3,3,0,-9.300000000000001,0.06,-1.68,-7.61,3.15,12.51
35.70002913475037,3,3,3,0,-9.130000000000001,0.57,-1.68,-5.66,2.53,12.55
35.72002911567688,3,3,3,0,-9.199999999999999,1.02,-1.52,-5.33,2.24,12.61
35.74002909660339,3,3,3,0,-9.390000000000001,0.87,-1.98,-4.27,1.6,12.3
35.76002907752991,3,3,3,0,-9.75,-0.02,-1.57,-3.68,1.05,12.09
35.78002905845642,3,3,3,0,-10.08,-0.97,-1.79,-2.57,0.65,10.78
35.80002903938293,3,3,3,0,-10.61,-1.96,-2.01,-3.32,0.84,8.99
35.82002902030945,3,3,3,0,-10.74,-2.7,-2.25,-4,0.95,7.92
35.84002900123596,3,3,3,0,-11.08,-2.51,-2.63,-5.27,1.22,5.07
35.86002898216248,3,3,3,0,-11.27,-2.11,-2.46,-5.48,0.8100000000000001,4.35
35.88002896308899,3,3,3,0,-11.42,-2.35,-1.98,-7.69,-1.37,2.69
35.90102910995483,3,3,3,0,-12.05,-3.63,-1.9,-9.6,-2.28,0.87
35.92102909088135,3,3,3,0,-13.02,-7.8,-1.9,-9.65,-2.69,-0.52
35.94102907180786,3,3,3,0,-12.9,-8.35,0.06,-5.94,-4.01,-5.26
35.96102905273438,3,3,3,0,-12.12,-3.07,2.62,-2.8,-4.06,-6.61
35.98102903366089,3,3,3,0,-11.12,0.16,-0.46,-0.84,-6.42,-10.89
36.0010290145874,3,3,3,0,-10.91,1.61,-4.25,1.95,-4.66,-13.73
36.02102899551392,3,3,3,0,-11.93,2.09,-3.53,-0.51,-3.06,-14.9
36.04102897644043,3,3,3,0,-13.8,4.45,-2.5,0.07000000000000001,-0.48,-11.86
36.06102895736694,3,3,3,0,-14.33,4.92,-2.94,0.9399999999999999,-0.14,-12.27
36.08102893829346,3,3,3,0,-12.2,7.5,-2.69,2.22,-1.03,-14.3
36.10102915763855,3,3,3,0,-11.43,6.2,-2.51,4.27,0.06,-16.8
36.12102913856506,3,3,3,0,-11.27,6.06,-2.43,5.56,0.48,-18.04
36.14102911949158,3,3,3,0,-9.43,5.99,-1.75,8.65,0.5600000000000001,-19.58
36.16102910041809,3,3,3,0,-9.07,5.84,-1.44,9.65,0.12,-19.78
36.1810290813446,3,3,3,0,-7.76,5.54,-0.85,14.31,-0.64,-19.11
36.20102906227112,3,3,3,0,-7.1,5.7,-0.89,16.3,-0.59,-17.67
36.22102904319763,3,3,3,0,-6.83,6,-0.77,17.09,-1,-16.37
36.24102902412415,3,3,3,0,-4.99,6.37,0.15,18.59,-3.46,-12.44
36.26102900505066,3,3,3,0,-4.59,6.97,0.04,17.2,-3.37,-11.47
36.28102898597717,3,3,3,0,-4.29,5.57,-0.68,5.55,-2.99,-8.720000000000001
36.30102896690369,3,3,3,0,-4.92,3.52,0.73,0.63,-3.18,-7.78
36.3210289478302,3,3,3,0,-5.18,2.13,0.96,-0.47,0.59,-8.5
36.34102916717529,3,3,3,0,-8.31,-1.73,0.08,5.01,7.42,-8.619999999999999
36.36102914810181,3,3,3,0,-9.130000000000001,-3.7,0.29,-1.36,11.9,-6.93
36.38102912902832,3,3,3,0,-13.71,-13.58,-0.84,5.93,7.17,-4.88
36.40102910995483,3,3,3,0,-14.84,-14.64,1.23,8.34,-4.69,-4.2
36.42102909088135,3,3,3,0,-12.66,-12.37,2.26,5.43,-6.82,-4.81
36.44102907180786,3,3,3,0,-10.62,-6.86,-0.41,6.53,-1.54,-7.28
36.46102905273438,3,3,3,0,-9.52,-1.23,-2.29,5.85,-1.54,-6.72
36.48102903366089,3,3,3,0,-10.32,9.449999999999999,-3.78,8.43,-5.79,1.26
36.5010290145874,3,3,3,0,-11.67,2.15,5.39,7.86,-10.33,9.619999999999999
36.52102899551392,3,3,3,0,-16.82,-6.66,2.82,6.14,-0.3,3.93
36.54102897644043,3,3,3,0,-12.43,2.95,-1.52,11.47,5.5,4.48
36.56102895736694,3,3,3,0,-8.779999999999999,6.91,-1.53,6.49,5.11,6.93
36.58102893829346,3,3,3,0,-8.699999999999999,6.32,-4.07,-1.93,6.12,7.59
36.60102915763855,3,3,3,0,-7.43,5.54,-5.54,-8.26,6.12,6.61
36.62102913856506,3,3,3,0,-7.31,4,-4.51,-11.26,5.28,8.460000000000001
36.64102911949158,3,3,3,0,-9.18,3.11,-3.87,-12.46,5.45,10.47
36.66102910041809,3,3,3,0,-11.97,2.08,-2.11,-12.72,5.05,11.74
36.6810290813446,3,3,3,0,-12.34,1.44,-1.35,-9.83,4.59,12.27
36.70102906227112,3,3,3,0,-11.26,1.6,-1.56,-5.47,4.09,12.74
36.72102904319763,3,3,3,0,-9.82,1.87,-2.66,-5.11,4.05,12.44
36.74102902412415,3,3,3,0,-9.24,2.13,-2.81,-7.58,4.39,12.62
36.76102900505066,3,3,3,0,-8.880000000000001,1.73,-2.3,-11.15,4.43,12.81
36.78102898597717,3,3,3,0,-9.109999999999999,1.12,-2.39,-14.85,4.3,12.61
36.80102896690369,3,3,3,0,-9.470000000000001,0.29,-1.78,-15.7,3.51,12.36
36.8210289478302,3,3,3,0,-9.710000000000001,0.17,-1.41,-14.47,2.89,12.03
36.84102916717529,3,3,3,0,-9.59,-0.16,-1.42,-12.94,2.45,11.51
36.86102914810181,3,3,3,0,-9.289999999999999,-0.01,-1.62,-10.3,1.99,11.26
36.88102912902832,3,3,3,0,-8.91,0.82,-1.97,-7.98,1.62,11.3
36.90102910995483,3,3,3,0,-8.949999999999999,0.57,-2.41,-7,1.88,11.56
36.92102909088135,3,3,3,0,-8.890000000000001,0.6899999999999999,-2.27,-5.61,1.85,11.62
36.94202899932861,3,3,3,0,-9.050000000000001,0.18,-2.31,-3.75,1.84,11.65
36.96202898025513,3,3,3,0,-9.27,-0.74,-1.62,-2.28,1.56,11.08
36.98202896118164,3,3,3,0,-9.73,-0.75,-1.49,-2.25,0.97,10.25
37.00202894210815,3,3,3,0,-10.67,-1.45,-1.31,-2.89,0.72,9.050000000000001
37.02202916145325,3,3,3,0,-10.91,-1.85,-1.55,-3.67,0.63,7.23
37.04202914237976,3,3,3,0,-11.38,-1.91,-1.89,-4.27,0.36,5.5
37.06202912330627,3,3,3,0,-11.44,-2.03,-1.31,-5.38,-0.29,3.92
37.08202910423279,3,3,3,0,-11.37,-3.82,-1.16,-7.22,-1.05,1.98
37.1020290851593,3,3,3,0,-11.7,-5.85,-0.77,-8.140000000000001,-2.44,-0.14
37.12202906608582,3,3,3,0,-11.94,-8.07,-0.28,-7.61,-3.44,-2.67
37.14202904701233,3,3,3,0,-12.51,-7.43,1.41,-7.59,-4.88,-6.08
37.16202902793884,3,3,3,0,-11.88,-2.02,0.13,-5.93,-7.39,-9.48
37.18202900886536,3,3,3,0,-10.65,-0.12,-4.23,3.73,-6.33,-11.28
37.20202898979187,3,3,3,0,-12.13,0.82,-5.11,5.86,-4.2,-14.33
37.22202897071838,3,3,3,0,-14.15,3.97,-2.88,0.27,-2.45,-12.96
37.2420289516449,3,3,3,0,-14.59,5.46,-3.84,3.75,-0.35,-10.12
37.26202893257141,3,3,3,0,-15.16,7.13,-3.7,4.38,-1.18,-12.26
37.2820291519165,3,3,3,0,-12.09,7.81,-3.18,4.43,-2.26,-14.35
