timestamp,magCalib,accCalib,gyrCalib,sysCalib,accX,accY,accZ,gyrX,gyrY,gyrZ
0.01323902606964111,2,3,3,3,-9.6,-0.32,1.3,0.06,0.28,-0.74
0.02323901653289795,2,3,3,3,-9.59,-0.34,1.28,0.02,0.28,-0.6899999999999999
0.03323900699615479,2,3,3,3,-9.6,-0.35,1.22,0.03,0.29,-0.68
0.04323899745941162,2,3,3,3,-9.619999999999999,-0.38,1.24,0,0.29,-0.65
0.05323898792266846,2,3,3,3,-9.619999999999999,-0.38,1.26,-0.09,0.29,-0.66
0.06323897838592529,2,3,3,3,-9.619999999999999,-0.4,1.27,-0.12,0.27,-0.62
0.07323896884918213,2,3,3,3,-9.619999999999999,-0.41,1.26,-0.17,0.25,-0.62
0.08323895931243896,2,3,3,3,-9.630000000000001,-0.43,1.15,-0.23,0.23,-0.61
0.0932389497756958,2,3,3,3,-9.630000000000001,-0.42,1.24,-0.2,0.23,-0.6
0.1032389402389526,2,3,3,3,-9.609999999999999,-0.43,1.23,-0.22,0.22,-0.6
0.1132389307022095,2,3,3,3,-9.65,-0.42,1.26,-0.2,0.22,-0.6
0.1232389211654663,2,3,3,3,-9.67,-0.46,1.24,-0.18,0.25,-0.59
0.1332389116287231,2,3,3,3,-9.67,-0.47,1.16,-0.21,0.25,-0.57
0.14323890209198,2,3,3,3,-9.66,-0.48,1.22,-0.21,0.25,-0.6
0.1532391309738159,2,3,3,3,-9.68,-0.48,1.25,-0.26,0.27,-0.55
0.1632391214370728,2,3,3,3,-9.699999999999999,-0.5,1.27,-0.28,0.25,-0.54
0.1732391119003296,2,3,3,3,-9.69,-0.52,1.29,-0.29,0.27,-0.5
0.1832391023635864,2,3,3,3,-9.67,-0.54,1.19,-0.23,0.28,-0.46
0.1932390928268433,2,3,3,3,-9.67,-0.55,1.24,-0.15,0.28,-0.4
0.2032390832901001,2,3,3,3,-9.68,-0.55,1.27,-0.12,0.27,-0.33
0.2132390737533569,2,3,3,3,-9.68,-0.55,1.27,-0.09,0.25,-0.25
0.2232390642166138,2,3,3,3,-9.66,-0.53,1.24,-0.05,0.21,-0.18
0.2332390546798706,2,3,3,3,-9.699999999999999,-0.5,1.12,-0.05,0.22,-0.12
0.2432390451431274,2,3,3,3,-9.69,-0.48,1.14,0.01,0.21,-0.06
0.2532390356063843,2,3,3,3,-9.69,-0.46,1.16,-0.03,0.19,-0.03
0.2632390260696411,2,3,3,3,-9.69,-0.46,1.16,-0.03,0.21,0
0.2732390165328979,2,3,3,3,-9.67,-0.42,1.23,-0.03,0.21,0
0.2832390069961548,2,3,3,3,-9.68,-0.36,1.07,-0.09,0.18,0.04
0.2932389974594116,2,3,3,3,-9.67,-0.36,1.18,-0.13,0.22,0.06
0.3032389879226685,2,3,3,3,-9.699999999999999,-0.37,1.22,-0.15,0.21,0.06
0.3132389783859253,2,3,3,3,-9.699999999999999,-0.37,1.22,-0.15,0.21,0.06
0.3232389688491821,2,3,3,3,-9.68,-0.38,1.23,-0.22,0.22,0.05
0.333238959312439,2,3,3,3,-9.699999999999999,-0.38,1.12,-0.32,0.16,0.1
0.3432389497756958,2,3,3,3,-9.699999999999999,-0.39,1.17,-0.36,0.14,0.08
0.3532389402389526,2,3,3,3,-9.699999999999999,-0.41,1.15,-0.42,0.14,0.09
0.3632389307022095,2,3,3,3,-9.699999999999999,-0.41,1.15,-0.42,0.14,0.09
0.3732389211654663,2,3,3,3,-9.69,-0.44,1.16,-0.45,0.13,0.08
0.3832389116287231,2,3,3,3,-9.68,-0.46,1.03,-0.46,0.04,0.17
0.39323890209198,2,3,3,3,-9.65,-0.47,1.1,-0.44,0.05,0.18
0.4032391309738159,2,3,3,3,-9.65,-0.48,1.11,-0.42,0.05,0.22
0.4132391214370728,2,3,3,3,-9.65,-0.48,1.11,-0.42,0.05,0.22
0.4232391119003296,2,3,3,3,-9.66,-0.46,1.09,-0.37,0.04,0.24
0.4332391023635864,2,3,3,3,-9.68,-0.42,1.11,-0.19,0.06,0.25
0.4432390928268433,2,3,3,3,-9.67,-0.43,1.04,-0.1,0.09,0.29
0.4532390832901001,2,3,3,3,-9.67,-0.46,1.09,-0.04,0.09,0.3
0.4632390737533569,2,3,3,3,-9.69,-0.47,1.15,-0.04,0.09,0.3
0.4732390642166138,2,3,3,3,-9.68,-0.48,1.15,0.03,0.11,0.3
0.4832390546798706,2,3,3,3,-9.710000000000001,-0.49,1.14,0.09,0.08,0.34
0.4932390451431274,2,3,3,3,-9.699999999999999,-0.5,1.02,0.14,0.1,0.37
0.5032390356063843,2,3,3,3,-9.69,-0.51,1.09,0.14,0.1,0.36
0.5132390260696411,2,3,3,3,-9.699999999999999,-0.48,1.12,0.14,0.1,0.36
0.5232390165328979,2,3,3,3,-9.699999999999999,-0.46,1.16,0.19,0.1,0.38
0.5332390069961548,2,3,3,3,-9.699999999999999,-0.43,1.21,0.3,0.12,0.39
0.5432389974594116,2,3,3,3,-9.69,-0.43,1.01,0.36,0.13,0.43
0.5532389879226685,2,3,3,3,-9.68,-0.42,1.06,0.34,0.09,0.41
0.5632389783859253,2,3,3,3,-9.68,-0.44,1.05,0.34,0.09,0.41
0.5732389688491821,2,3,3,3,-9.68,-0.41,1.08,0.27,0.06,0.41
0.583238959312439,2,3,3,3,-9.67,-0.39,1.08,0.11,0.06,0.33
0.5932389497756958,2,3,3,3,-9.66,-0.41,1.02,0.06,0.05,0.33
0.6032389402389526,2,3,3,3,-9.699999999999999,-0.38,1.06,0.05,0.08,0.29
0.6132389307022095,2,3,3,3,-9.699999999999999,-0.43,1.06,0.05,0.08,0.29
0.6232389211654663,2,3,3,3,-9.74,-0.44,1.1,0.09,0.06,0.28
0.6332389116287231,2,3,3,3,-9.710000000000001,-0.39,1.09,0.01,-0.01,0.24
0.64323890209198,2,3,3,3,-9.699999999999999,-0.34,1.02,0.02,-0.03,0.21
0.6532391309738159,2,3,3,3,-9.710000000000001,-0.31,1.06,0.07000000000000001,-0.01,0.16
0.6632391214370728,2,3,3,3,-9.720000000000001,-0.36,1.06,0.07000000000000001,-0.01,0.16
0.6732391119003296,2,3,3,3,-9.69,-0.38,1.03,0.12,-0.06,0.11
0.6832391023635864,2,3,3,3,-9.69,-0.37,1.06,0.05,-0.08,0.11
0.6932390928268433,2,3,3,3,-9.66,-0.34,0.97,-0.01,-0.05,0.11
0.7032390832901001,2,3,3,3,-9.66,-0.34,1.08,-0.06,-0.07000000000000001,0.09
0.7132390737533569,2,3,3,3,-9.630000000000001,-0.37,1.13,-0.06,-0.07000000000000001,0.09
0.7232390642166138,2,3,3,3,-9.630000000000001,-0.35,1.17,-0.17,-0.02,0.1
0.7332390546798706,2,3,3,3,-9.68,-0.39,1.1,-0.19,-0.03,0.12
0.7432390451431274,2,3,3,3,-9.67,-0.41,1.02,-0.2,-0.05,0.11
0.7532390356063843,2,3,3,3,-9.710000000000001,-0.39,1.06,-0.2,-0.06,0.11
0.7632390260696411,2,3,3,3,-9.720000000000001,-0.39,1.1,-0.2,-0.06,0.11
0.7732390165328979,2,3,3,3,-9.699999999999999,-0.38,1.14,-0.16,-0.06,0.12
0.7832390069961548,2,3,3,3,-9.710000000000001,-0.4,1.14,-0.13,-0.07000000000000001,0.11
0.7932389974594116,2,3,3,3,-9.699999999999999,-0.39,0.99,-0.12,-0.11,0.11
0.8032389879226685,2,3,3,3,-9.710000000000001,-0.38,1.08,-0.16,-0.09,0.08
0.8142389059066772,2,3,3,3,-9.67,-0.43,1.1,-0.16,-0.09,0.08
0.8242388963699341,2,3,3,3,-9.69,-0.39,1.13,-0.21,-0.08,0.07000000000000001
0.83423912525177,2,3,3,3,-9.67,-0.39,1.17,-0.29,-0.12,0.06
0.8442391157150269,2,3,3,3,-9.68,-0.37,1.05,-0.28,-0.1,0.04
0.8542391061782837,2,3,3,3,-9.69,-0.36,1.07,-0.22,-0.11,0.02
0.8642390966415405,2,3,3,3,-9.720000000000001,-0.37,1.06,-0.22,-0.11,0.02
0.8742390871047974,2,3,3,3,-9.699999999999999,-0.37,1.13,-0.25,-0.1,-0.01
0.8842390775680542,2,3,3,3,-9.65,-0.35,1.07,-0.21,-0.1,-0.03
0.894239068031311,2,3,3,3,-9.65,-0.38,1.01,-0.23,-0.09,-0.04
0.9042390584945679,2,3,3,3,-9.640000000000001,-0.39,1.06,-0.16,-0.09,-0.08
0.9142390489578247,2,3,3,3,-9.630000000000001,-0.37,1.07,-0.13,-0.1,-0.06
0.9242390394210815,2,3,3,3,-9.66,-0.36,1.11,-0.11,-0.12,-0.04
0.9342390298843384,2,3,3,3,-9.68,-0.35,1.07,-0.17,-0.13,-0.05
0.9442390203475952,2,3,3,3,-9.65,-0.34,0.96,-0.14,-0.15,-0.04
0.9542390108108521,2,3,3,3,-9.66,-0.37,1.07,-0.16,-0.19,-0.03
0.9642390012741089,2,3,3,3,-9.66,-0.34,1.1,-0.16,-0.19,0
0.9742389917373657,2,3,3,3,-9.630000000000001,-0.35,1.12,-0.15,-0.21,0
0.9842389822006226,2,3,3,3,-9.65,-0.35,1.16,-0.19,-0.23,0.06
0.9942389726638794,2,3,3,3,-9.67,-0.35,1.08,-0.21,-0.23,0.08
1.004238963127136,2,3,3,3,-9.65,-0.36,1.12,-0.29,-0.27,0.1
1.014238953590393,2,3,3,3,-9.66,-0.41,1.18,-0.33,-0.29,0.13
1.02423894405365,2,3,3,3,-9.66,-0.4,1.18,-0.34,-0.27,0.12
1.034238934516907,2,3,3,3,-9.65,-0.45,1.17,-0.3,-0.29,0.12
1.044238924980164,2,3,3,3,-9.65,-0.47,1.11,-0.29,-0.28,0.15
1.05423891544342,2,3,3,3,-9.65,-0.45,1.16,-0.26,-0.3,0.14
1.064238905906677,2,3,3,3,-9.68,-0.44,1.17,-0.21,-0.3,0.16
1.074238896369934,2,3,3,3,-9.699999999999999,-0.4,1.22,-0.18,-0.27,0.14
1.08423912525177,2,3,3,3,-9.69,-0.4,1.2,-0.14,-0.32,0.14
1.094239115715027,2,3,3,3,-9.699999999999999,-0.39,1.14,-0.11,-0.35,0.12
1.104239106178284,2,3,3,3,-9.699999999999999,-0.4,1.17,-0.1,-0.36,0.1
1.114239096641541,2,3,3,3,-9.69,-0.39,1.23,-0.06,-0.34,0.07000000000000001
1.124239087104797,2,3,3,3,-9.66,-0.43,1.26,-0.03,-0.39,0.07000000000000001
1.134239077568054,2,3,3,3,-9.69,-0.46,1.26,-0.02,-0.35,0.08
1.144239068031311,2,3,3,3,-9.66,-0.44,1.2,0,-0.33,0.1
1.154239058494568,2,3,3,3,-9.67,-0.46,1.24,0.01,-0.31,0.15
1.164239048957825,2,3,3,3,-9.640000000000001,-0.47,1.26,-0.05,-0.3,0.21
1.174239039421082,2,3,3,3,-9.65,-0.49,1.28,-0.02,-0.3,0.25
1.184239029884338,2,3,3,3,-9.66,-0.49,1.24,-0.02,-0.29,0.33
1.194239020347595,2,3,3,3,-9.68,-0.52,1.2,-0.07000000000000001,-0.28,0.37
1.204239010810852,2,3,3,3,-9.65,-0.54,1.24,-0.15,-0.27,0.45
1.214239001274109,2,3,3,3,-9.66,-0.53,1.26,-0.13,-0.27,0.49
1.224238991737366,2,3,3,3,-9.66,-0.51,1.28,-0.12,-0.25,0.53
1.234238982200623,2,3,3,3,-9.65,-0.55,1.25,-0.12,-0.24,0.5600000000000001
1.244238972663879,2,3,3,3,-9.67,-0.51,1.17,-0.18,-0.2,0.5600000000000001
1.254238963127136,2,3,3,3,-9.66,-0.54,1.19,-0.16,-0.16,0.55
1.264238953590393,2,3,3,3,-9.68,-0.53,1.28,-0.13,-0.17,0.59
1.27423894405365,2,3,3,3,-9.69,-0.52,1.26,-0.17,-0.21,0.57
1.284238934516907,2,3,3,3,-9.69,-0.49,1.29,-0.16,-0.23,0.58
1.294238924980164,2,3,3,3,-9.68,-0.47,1.21,-0.16,-0.22,0.55
1.30423891544342,2,3,3,3,-9.66,-0.5,1.25,-0.13,-0.22,0.51
1.314238905906677,2,3,3,3,-9.66,-0.47,1.26,-0.07000000000000001,-0.25,0.51
1.324238896369934,2,3,3,3,-9.66,-0.49,1.28,-0.09,-0.25,0.45
1.33423912525177,2,3,3,3,-9.619999999999999,-0.43,1.24,-0.03,-0.27,0.41
1.344239115715027,2,3,3,3,-9.609999999999999,-0.44,1.19,-0.01,-0.28,0.39
1.354239106178284,2,3,3,3,-9.609999999999999,-0.41,1.24,-0.04,-0.27,0.41
1.364239096641541,2,3,3,3,-9.59,-0.41,1.29,0.03,-0.28,0.39
1.374239087104797,2,3,3,3,-9.609999999999999,-0.41,1.33,0.06,-0.29,0.38
1.384239077568054,2,3,3,3,-9.640000000000001,-0.41,1.32,0.01,-0.29,0.36
1.394239068031311,2,3,3,3,-9.609999999999999,-0.41,1.25,0.02,-0.27,0.32
1.404239058494568,2,3,3,3,-9.630000000000001,-0.43,1.26,0.1,-0.31,0.34
1.414239048957825,2,3,3,3,-9.640000000000001,-0.43,1.34,0.14,-0.29,0.27
1.424239039421082,2,3,3,3,-9.66,-0.43,1.37,0.18,-0.3,0.26
1.434239029884338,2,3,3,3,-9.67,-0.43,1.34,0.32,-0.35,0.2
1.444239020347595,2,3,3,3,-9.67,-0.41,1.26,0.35,-0.33,0.15
1.454239010810852,2,3,3,3,-9.640000000000001,-0.39,1.28,0.44,-0.32,0.12
1.464239001274109,2,3,3,3,-9.67,-0.35,1.28,0.47,-0.33,0.1
1.474238991737366,2,3,3,3,-9.68,-0.35,1.3,0.46,-0.34,0.04
1.484238982200623,2,3,3,3,-9.640000000000001,-0.34,1.22,0.49,-0.32,-0.03
1.494238972663879,2,3,3,3,-9.65,-0.36,1.18,0.43,-0.34,-0.03
1.504238963127136,2,3,3,3,-9.69,-0.36,1.23,0.42,-0.31,-0.07000000000000001
1.514238953590393,2,3,3,3,-9.66,-0.35,1.27,0.37,-0.32,-0.09
1.52423894405365,2,3,3,3,-9.609999999999999,-0.3,1.3,0.31,-0.3,-0.09
1.534238934516907,2,3,3,3,-9.609999999999999,-0.3,1.27,0.23,-0.25,-0.1
1.544238924980164,2,3,3,3,-9.59,-0.29,1.21,0.12,-0.25,-0.12
1.55423891544342,2,3,3,3,-9.6,-0.27,1.29,0.07000000000000001,-0.2,-0.17
1.564238905906677,2,3,3,3,-9.67,-0.29,1.3,0.06,-0.14,-0.16
1.574238896369934,2,3,3,3,-9.65,-0.35,1.33,-0.08,-0.11,-0.14
1.58423912525177,2,3,3,3,-9.69,-0.39,1.3,-0.25,-0.12,-0.14
1.594239115715027,2,3,3,3,-9.65,-0.43,1.24,-0.39,-0.06,-0.09
1.604239106178284,2,3,3,3,-9.609999999999999,-0.35,1.34,-0.47,-0.04,-0.07000000000000001
1.614239096641541,2,3,3,3,-9.6,-0.32,1.39,-0.54,-0.01,-0.03
1.634239077568054,2,3,3,3,-9.609999999999999,-0.33,1.43,-0.77,0.04,0.06
1.644239068031311,2,3,3,3,-9.630000000000001,-0.41,1.37,-0.91,0.03,0.07000000000000001
1.654239058494568,2,3,3,3,-9.69,-0.48,1.42,-1.05,0.03,0.08
1.664239048957825,2,3,3,3,-9.77,-0.5600000000000001,1.43,-1.23,0.01,0.11
1.674239039421082,2,3,3,3,-9.67,-0.67,1.46,-1.32,-0.03,0.14
1.684239029884338,2,3,3,3,-9.609999999999999,-0.68,1.44,-1.49,-0.08,0.17
1.694239020347595,2,3,3,3,-9.779999999999999,-0.72,1.36,-1.54,-0.02,0.21
1.704239010810852,2,3,3,3,-9.779999999999999,-0.75,1.34,-1.5,-0.03,0.23
1.714239001274109,2,3,3,3,-9.65,-0.84,1.45,-1.52,-0.08,0.27
1.724238991737366,2,3,3,3,-9.619999999999999,-0.8,1.49,-1.4,0.02,0.23
1.734238982200623,2,3,3,3,-9.619999999999999,-0.77,1.47,-1.26,-0.03,0.25
1.744238972663879,2,3,3,3,-9.67,-0.84,1.39,-1.11,-0.03,0.22
1.754238963127136,2,3,3,3,-9.66,-0.62,1.42,-0.92,-0.06,0.18
1.764238953590393,2,3,3,3,-9.76,-0.76,1.41,-0.9,-0.04,0.19
1.77423894405365,2,3,3,3,-9.609999999999999,-0.78,1.42,-1.04,-0.05,0.21
1.784238934516907,2,3,3,3,-9.640000000000001,-0.63,1.48,-0.9399999999999999,0.01,0.19
1.794238924980164,2,3,3,3,-9.59,-0.74,1.31,-0.7,0.01,0.17
1.80423891544342,2,3,3,3,-9.66,-0.84,1.37,-0.41,0.2,0.12
1.814238905906677,2,3,3,3,-9.59,-0.53,1.44,-0.12,0.05,0.09
1.824238896369934,2,3,3,3,-9.52,-0.8,1.49,0.23,0.01,0.02
1.83423912525177,2,3,3,3,-9.66,-0.57,1.26,0.3,0.06,0.01
1.845239043235779,2,3,3,3,-9.66,-0.28,1.26,0.07000000000000001,0.19,0.21
1.855239033699036,2,3,3,3,-9.65,-0.2,1.34,-0.04,0.02,0.17
1.865239024162292,2,3,3,3,-9.65,-0.24,1.45,0.05,0.04,0.11
1.875239014625549,2,3,3,3,-9.640000000000001,-0.31,1.45,0.12,0.03,0.01
1.885239005088806,2,3,3,3,-9.57,-0.33,1.41,0.16,-0.03,-0.07000000000000001
1.895238995552063,2,3,3,3,-9.609999999999999,-0.36,1.28,0.12,-0.02,-0.16
1.90523898601532,2,3,3,3,-9.640000000000001,-0.27,1.22,0.11,0.11,-0.25
1.915238976478577,2,3,3,3,-9.619999999999999,-0.2,1.31,0.11,0.2,-0.29
1.925238966941833,2,3,3,3,-9.65,-0.24,1.36,0.3,0.21,-0.34
1.93523895740509,2,3,3,3,-9.5,-0.23,1.42,0.3,0.21,-0.34
1.945238947868347,2,3,3,3,-9.48,-0.22,1.31,0.37,0.08,-0.4
1.955238938331604,2,3,3,3,-9.68,-0.32,1.29,0.35,0,-0.45
1.965238928794861,2,3,3,3,-9.460000000000001,-0.23,1.36,0.11,-0.14,-0.37
1.975238919258118,2,3,3,3,-9.859999999999999,-0.24,1.28,0,-0.24,-0.27
1.985238909721375,2,3,3,3,-10.09,-0.43,0.88,0,-0.24,-0.27
1.995238900184631,2,3,3,3,-9.699999999999999,-0.33,1.05,-0.25,0.17,-0.23
2.005239129066467,2,3,3,3,-9.44,-0.28,1.51,0.02,0.15,-0.31
2.015239119529724,2,3,3,3,-9.18,-0.31,1.39,-0.39,0.25,-0.25
2.025239109992981,2,3,3,3,-9.66,-0.36,1.6,-0.01,0.06,-0.48
2.035239100456238,2,3,3,3,-9.59,-0.47,1.34,-0.22,-0.08,-0.43
2.045239090919495,2,3,3,3,-9.630000000000001,-0.38,1.28,-0.26,-0.12,-0.36
2.055239081382751,2,3,3,3,-9.640000000000001,-0.44,1.23,-0.19,-0.15,-0.31
2.065239071846008,2,3,3,3,-9.710000000000001,-0.51,1.25,-0.26,-0.07000000000000001,-0.25
2.075239062309265,2,3,3,3,-9.69,-0.43,1.28,-0.26,0.03,-0.22
2.085239052772522,2,3,3,3,-9.699999999999999,-0.47,1.27,-0.19,0.08,-0.15
2.095239043235779,2,3,3,3,-9.67,-0.55,1.23,-0.17,0.05,-0.06
2.105239033699036,2,3,3,3,-9.76,-0.59,1.19,-0.2,0.11,0.08
2.115239024162292,2,3,3,3,-9.69,-0.6,1.21,-0.26,0.06,0.21
2.125239014625549,2,3,3,3,-9.65,-0.54,1.25,-0.21,0,0.22
2.135239005088806,2,3,3,3,-9.630000000000001,-0.47,1.37,-0.12,-0.08,0.19
2.145238995552063,2,3,3,3,-9.68,-0.38,1.32,0.05,-0.23,0.16
2.15523898601532,2,3,3,3,-9.66,-0.29,1.36,0.19,-0.33,0.07000000000000001
2.165238976478577,2,3,3,3,-9.59,-0.32,1.44,0.32,-0.35,0.02
2.175238966941833,2,3,3,3,-9.41,-0.42,1.51,0.34,-0.25,0.03
2.18523895740509,2,3,3,3,-9.720000000000001,-0.5600000000000001,1.47,0.2,-0.07000000000000001,-0.01
2.195238947868347,2,3,3,3,-9.74,-0.62,1.15,0.11,0.25,0.12
2.205238938331604,2,3,3,3,-10.09,-0.63,1.25,-0.01,0.22,0.18
2.215238928794861,2,3,3,3,-9.24,-0.63,1.43,0.04,-0.18,0.25
2.225238919258118,2,3,3,3,-9.539999999999999,-0.55,1.39,0.17,0.36,0.31
2.235238909721375,2,3,3,3,-9.52,-0.46,1.42,0.39,0.25,0.23
2.245238900184631,2,3,3,3,-9.81,-0.63,1.17,0.5600000000000001,0.08,0.27
2.255239129066467,2,3,3,3,-9.67,-0.57,1.25,0.34,0.07000000000000001,0.36
2.265239119529724,2,3,3,3,-9.779999999999999,-0.54,1.32,0.24,0.12,0.38
2.275239109992981,2,3,3,3,-9.75,-0.52,1.34,0.31,0.01,0.33
2.285239100456238,2,3,3,3,-9.710000000000001,-0.55,1.29,0.37,-0.06,0.26
2.295239090919495,2,3,3,3,-9.710000000000001,-0.58,1.24,0.43,-0.15,0.19
2.305239081382751,2,3,3,3,-9.6,-0.58,1.25,0.58,-0.2,0.15
2.315239071846008,2,3,3,3,-9.630000000000001,-0.52,1.3,0.68,-0.14,0.14
2.325239062309265,2,3,3,3,-9.609999999999999,-0.46,1.31,0.7,-0.14,0.11
2.335239052772522,2,3,3,3,-9.57,-0.46,1.39,0.76,-0.13,0.12
2.345239043235779,2,3,3,3,-9.619999999999999,-0.46,1.37,0.76,-0.07000000000000001,0.08
2.355239033699036,2,3,3,3,-9.6,-0.41,1.52,0.73,0,0.06
2.365239024162292,2,3,3,3,-9.640000000000001,-0.38,1.54,0.78,0.14,-0.02
2.375239014625549,2,3,3,3,-9.65,-0.33,1.47,0.8,0.13,-0.06
2.385239005088806,2,3,3,3,-9.66,-0.27,1.47,0.77,0.13,-0.11
2.395238995552063,2,3,3,3,-9.69,-0.3,1.28,0.79,0.24,-0.21
2.40523898601532,2,3,3,3,-9.59,-0.31,1.39,0.72,0.27,-0.23
2.415238976478577,2,3,3,3,-9.59,-0.32,1.34,0.64,0.5,-0.29
2.425238966941833,2,3,3,3,-9.66,-0.28,1.32,0.46,0.55,-0.31
2.43523895740509,2,3,3,3,-9.69,-0.24,1.21,0.32,0.55,-0.33
2.445238947868347,2,3,3,3,-9.699999999999999,-0.29,1.12,0.24,0.41,-0.33
2.455238938331604,2,3,3,3,-9.73,-0.38,1.23,0.14,0.27,-0.32
2.465238928794861,2,3,3,3,-9.720000000000001,-0.45,1.28,0.15,0.07000000000000001,-0.33
2.475238919258118,2,3,3,3,-9.69,-0.39,1.39,0.16,-0.14,-0.39
2.485238909721375,2,3,3,3,-9.710000000000001,-0.39,1.38,0.25,-0.1,-0.41
2.495238900184631,2,3,3,3,-9.720000000000001,-0.37,1.31,0.35,-0.06,-0.41
2.505239129066467,2,3,3,3,-9.699999999999999,-0.31,1.29,0.5,0.02,-0.42
2.515239119529724,2,3,3,3,-9.710000000000001,-0.22,1.36,0.67,0.04,-0.36
2.525239109992981,2,3,3,3,-9.710000000000001,-0.24,1.36,0.72,0.02,-0.29
2.535239100456238,2,3,3,3,-9.68,-0.26,1.39,0.6899999999999999,0.14,-0.29
2.545239090919495,2,3,3,3,-9.73,-0.46,1.37,0.57,0.3,-0.26
2.555239081382751,2,3,3,3,-9.699999999999999,-0.46,1.38,0.41,0.25,-0.21
2.565239071846008,2,3,3,3,-9.630000000000001,-0.41,1.36,0.29,0.05,-0.15
2.575239062309265,2,3,3,3,-9.550000000000001,-0.31,1.37,0.3,-0.06,-0.11
2.585239052772522,2,3,3,3,-9.539999999999999,-0.3,1.42,0.49,-0.06,-0.1
2.595239043235779,2,3,3,3,-9.6,-0.44,1.31,0.6,0.09,-0.1
2.605239033699036,2,3,3,3,-9.73,-0.58,1.32,0.46,0.17,-0.06
2.615239024162292,2,3,3,3,-9.779999999999999,-0.59,1.31,0.23,0.13,-0.01
2.625239014625549,2,3,3,3,-9.92,-0.53,1.22,0.01,0.05,0.03
2.635239005088806,2,3,3,3,-9.91,-0.48,1.23,-0.11,-0.18,0.01
2.645238995552063,2,3,3,3,-9.779999999999999,-0.46,1.19,-0.14,-0.38,-0.03
2.65523898601532,2,3,3,3,-9.640000000000001,-0.47,1.16,-0.08,-0.25,-0.07000000000000001
2.665238976478577,2,3,3,3,-9.65,-0.47,1.2,0.02,-0.03,-0.06
2.675238966941833,2,3,3,3,-9.65,-0.45,1.17,0,0.04,-0.02
2.68523895740509,2,3,3,3,-9.619999999999999,-0.3,1.21,-0.12,-0.05,0.05
2.695238947868347,2,3,3,3,-9.640000000000001,-0.19,1.31,-0.08,-0.15,0.11
2.705238938331604,2,3,3,3,-9.58,-0.17,1.44,0.17,-0.21,0.21
2.715238928794861,2,3,3,3,-9.57,-0.26,1.49,0.36,-0.31,0.28
2.725238919258118,2,3,3,3,-9.57,-0.26,1.49,0.32,-0.4,0.34
2.735238909721375,2,3,3,3,-9.58,-0.32,1.43,0.32,-0.4,0.34
2.745238900184631,2,3,3,3,-9.67,-0.35,1.18,-0.14,-0.45,0.36
2.755239129066467,2,3,3,3,-9.65,-0.3,1.28,-0.29,-0.5,0.35
2.765239119529724,2,3,3,3,-9.69,-0.29,1.33,-0.37,-0.55,0.36
2.775239109992981,2,3,3,3,-9.69,-0.29,1.33,-0.37,-0.55,0.36
2.785239100456238,2,3,3,3,-9.640000000000001,-0.29,1.29,-0.4,-0.55,0.32
2.795239090919495,2,3,3,3,-9.58,-0.28,1.21,-0.46,-0.5,0.25
2.805239081382751,2,3,3,3,-9.6,-0.27,1.27,-0.43,-0.37,0.22
2.815239071846008,2,3,3,3,-9.779999999999999,-0.2,1.38,-0.39,-0.34,0.27
2.825239062309265,2,3,3,3,-9.779999999999999,-0.2,1.38,-0.39,-0.34,0.27
2.835239052772522,2,3,3,3,-9.69,-0.29,1.41,-0.4,-0.39,0.29
2.845239043235779,2,3,3,3,-9.699999999999999,-0.41,1.29,-0.5,-0.12,0.24
2.855239033699036,2,3,3,3,-9.529999999999999,-0.47,1.3,-0.55,-0.04,0.24
2.866238951683044,2,3,3,3,-9.43,-0.47,1.32,-0.6,0.08,0.23
2.876238942146301,2,3,3,3,-9.43,-0.47,1.32,-0.6,0.08,0.23
2.886238932609558,2,3,3,3,-9.449999999999999,-0.47,1.32,-0.57,0.21,0.26
2.896238923072815,2,3,3,3,-9.58,-0.43,1.3,-0.23,0.42,0.35
2.906238913536072,2,3,3,3,-9.609999999999999,-0.44,1.26,-0.22,0.15,0.45
2.916238903999329,2,3,3,3,-9.789999999999999,-0.23,1.4,-0.19,-0.18,0.46
2.926239132881165,2,3,3,3,-9.74,-0.22,1.35,-0.19,-0.18,0.46
2.936239123344421,2,3,3,3,-9.58,-0.2,1.37,-0.13,-0.37,0.45
2.946239113807678,2,3,3,3,-9.529999999999999,-0.13,1.39,-0.29,-0.77,0.44
2.956239104270935,2,3,3,3,-9.470000000000001,-0.1,1.31,-0.38,-0.68,0.38
2.966239094734192,2,3,3,3,-9.470000000000001,-0.1,1.34,-0.42,-0.59,0.35
2.976239085197449,2,3,3,3,-9.640000000000001,-0.1,1.38,-0.42,-0.59,0.35
2.986239075660706,2,3,3,3,-9.76,-0.05,1.46,-0.36,-0.52,0.28
2.996239066123962,2,3,3,3,-9.869999999999999,-0.01,1.55,-0.49,-0.6899999999999999,0.02
3.006239056587219,2,3,3,3,-9.81,-0.04,1.47,-0.73,-0.77,-0.1
3.016239047050476,2,3,3,3,-9.619999999999999,-0.12,1.4,-0.9,-0.82,-0.15
3.026239037513733,2,3,3,3,-9.57,-0.14,1.42,-0.9,-0.82,-0.15
3.03623902797699,2,3,3,3,-9.550000000000001,-0.1,1.43,-1.02,-0.8,-0.22
3.046239018440247,2,3,3,3,-9.73,-0.09,1.43,-0.9399999999999999,-0.41,-0.37
3.056239008903503,2,3,3,3,-9.82,-0.03,1.35,-0.99,-0.34,-0.43
3.06623899936676,2,3,3,3,-9.84,-0.08,1.4,-0.96,-0.55,-0.5600000000000001
3.076238989830017,2,3,3,3,-9.76,-0.17,1.47,-0.96,-0.55,-0.5600000000000001
3.086238980293274,2,3,3,3,-9.57,-0.37,1.52,-0.99,-0.64,-0.72
3.096238970756531,2,3,3,3,-9.460000000000001,-0.44,1.5,-0.79,-0.47,-0.82
3.106238961219788,2,3,3,3,-9.42,-0.44,1.39,-0.61,-0.16,-0.83
3.116238951683044,2,3,3,3,-9.57,-0.41,1.41,-0.45,0.07000000000000001,-0.88
3.126238942146301,2,3,3,3,-9.59,-0.35,1.35,-0.45,0.07000000000000001,-0.88
3.136238932609558,2,3,3,3,-9.630000000000001,-0.35,1.38,-0.36,0.15,-0.9
3.146238923072815,2,3,3,3,-9.619999999999999,-0.41,1.36,-0.5,-0.12,-0.87
3.156238913536072,2,3,3,3,-9.550000000000001,-0.44,1.26,-0.58,-0.12,-0.87
3.166238903999329,2,3,3,3,-9.67,-0.47,1.38,-0.58,-0.33,-0.89
3.176239132881165,2,3,3,3,-9.609999999999999,-0.48,1.44,-0.58,-0.33,-0.89
3.186239123344421,2,3,3,3,-9.57,-0.42,1.52,-0.65,-0.4,-0.92
3.196239113807678,2,3,3,3,-9.630000000000001,-0.43,1.55,-0.67,-0.33,-0.88
3.206239104270935,2,3,3,3,-9.59,-0.49,1.4,-0.74,-0.36,-0.86
3.216239094734192,2,3,3,3,-9.699999999999999,-0.5,1.49,-0.75,-0.34,-0.78
3.226239085197449,2,3,3,3,-9.880000000000001,-0.47,1.51,-0.75,-0.34,-0.78
3.236239075660706,2,3,3,3,-9.81,-0.51,1.46,-0.68,-0.35,-0.85
3.246239066123962,2,3,3,3,-9.68,-0.53,1.48,-0.78,-0.6,-0.95
3.256239056587219,2,3,3,3,-9.49,-0.53,1.37,-0.86,-0.58,-0.95
3.266239047050476,2,3,3,3,-9.390000000000001,-0.55,1.35,-0.92,-0.52,-0.9399999999999999
3.276239037513733,2,3,3,3,-9.449999999999999,-0.58,1.4,-0.92,-0.52,-0.9399999999999999
3.28623902797699,2,3,3,3,-9.48,-0.58,1.5,-0.82,-0.42,-1.01
3.296239018440247,2,3,3,3,-9.529999999999999,-0.52,1.58,-0.63,-0.07000000000000001,-1.14
3.306239008903503,2,3,3,3,-9.59,-0.52,1.59,-0.66,0.02,-1.09
3.31623899936676,2,3,3,3,-9.59,-0.64,1.58,-0.64,-0.02,-1.03
3.326238989830017,2,3,3,3,-9.57,-0.65,1.59,-0.64,-0.02,-1.03
3.336238980293274,2,3,3,3,-9.57,-0.71,1.6,-0.66,-0.04,-0.9
3.346238970756531,2,3,3,3,-9.56,-0.6899999999999999,1.65,-0.78,-0.03,-0.75
3.356238961219788,2,3,3,3,-9.630000000000001,-0.78,1.4,-0.66,0,-0.77
3.366238951683044,2,3,3,3,-9.609999999999999,-0.79,1.43,-0.66,0,-0.77
3.376238942146301,2,3,3,3,-9.56,-0.75,1.55,-0.54,0.02,-0.7
3.386238932609558,2,3,3,3,-9.52,-0.85,1.55,-0.53,0.09,-0.63
3.396238923072815,2,3,3,3,-9.48,-0.85,1.54,-0.52,0.1,-0.58
3.406238913536072,2,3,3,3,-9.460000000000001,-0.83,1.49,-0.58,0.07000000000000001,-0.48
3.416238903999329,2,3,3,3,-9.43,-0.8,1.59,-0.64,0.1,-0.4
3.426239132881165,2,3,3,3,-9.48,-0.79,1.62,-0.65,0.13,-0.35
3.436239123344421,2,3,3,3,-9.48,-0.82,1.63,-0.61,0.21,-0.3
3.446239113807678,2,3,3,3,-9.41,-0.8,1.74,-0.53,0.43,-0.3
3.456239104270935,2,3,3,3,-9.35,-0.82,1.67,-0.4,0.65,-0.29
3.466239094734192,2,3,3,3,-9.210000000000001,-0.87,1.75,-0.26,0.85,-0.23
3.476239085197449,2,3,3,3,-9.210000000000001,-0.88,1.73,-0.1,1.13,-0.18
3.486239075660706,2,3,3,3,-9.24,-0.89,1.68,0.07000000000000001,1.52,-0.19
3.496239066123962,2,3,3,3,-9.32,-0.92,1.58,0.22,1.99,-0.22
3.506239056587219,2,3,3,3,-9.859999999999999,-1,1.06,0.31,2.36,-0.24
3.516239047050476,2,3,3,3,-9.52,-1.05,1.35,0.55,2.51,-0.37
3.526239037513733,2,3,3,3,-9.74,-0.89,1.45,0.84,2.49,-0.39
3.53623902797699,2,3,3,3,-9.9,-0.85,1.35,1.14,2.49,-0.46
3.546239018440247,2,3,3,3,-9.92,-0.83,1.24,1.35,2.1,-0.5600000000000001
3.556239008903503,2,3,3,3,-10.02,-0.83,1.11,1.48,1.55,-0.66
3.56623899936676,2,3,3,3,-10.07,-0.86,1.1,1.63,1.41,-0.68
3.576238989830017,2,3,3,3,-9.98,-0.74,1.31,1.71,1.06,-0.67
3.586238980293274,2,3,3,3,-9.99,-0.63,1.22,1.59,0.66,-0.6
3.596238970756531,2,3,3,3,-9.710000000000001,-0.8,1.37,1.41,0.42,-0.5
3.606238961219788,2,3,3,3,-9.66,-0.82,1.34,1.38,0.41,-0.38
3.616238951683044,2,3,3,3,-9.609999999999999,-0.6899999999999999,1.37,1.31,0.37,-0.27
3.626238942146301,2,3,3,3,-9.43,-0.72,1.33,1.28,0.12,-0.17
3.636238932609558,2,3,3,3,-9.470000000000001,-0.74,1.36,1.26,0.2,-0.12
3.646238923072815,2,3,3,3,-9.44,-0.76,1.38,1.21,0.23,-0.07000000000000001
3.656238913536072,2,3,3,3,-9.550000000000001,-0.68,1.23,1.13,0.17,-0.06
3.666238903999329,2,3,3,3,-9.59,-0.67,1.28,1,0.11,-0.05
3.676239132881165,2,3,3,3,-9.640000000000001,-0.6,1.35,0.99,0.1,-0.06
3.686239123344421,2,3,3,3,-9.710000000000001,-0.54,1.38,0.97,0.07000000000000001,-0.06
3.696239113807678,2,3,3,3,-9.82,-0.49,1.32,0.92,0.06,-0.12
3.706239104270935,2,3,3,3,-9.82,-0.44,1.24,0.84,0.01,-0.16
3.716239094734192,2,3,3,3,-9.84,-0.41,1.27,0.74,0,-0.26
3.726239085197449,2,3,3,3,-9.82,-0.42,1.3,0.58,0.03,-0.36
3.736239075660706,2,3,3,3,-9.800000000000001,-0.4,1.34,0.42,0.05,-0.46
3.746239066123962,2,3,3,3,-9.800000000000001,-0.43,1.36,0.24,0.17,-0.54
3.756239056587219,2,3,3,3,-9.81,-0.49,1.31,0.08,0.31,-0.55
3.766239047050476,2,3,3,3,-9.83,-0.49,1.43,-0.1,0.4,-0.52
3.776239037513733,2,3,3,3,-9.82,-0.55,1.49,-0.33,0.4,-0.43
3.78623902797699,2,3,3,3,-9.81,-0.58,1.53,-0.55,0.36,-0.33
3.796239018440247,2,3,3,3,-9.76,-0.63,1.55,-0.71,0.32,-0.24
3.806239008903503,2,3,3,3,-9.529999999999999,-0.74,1.38,-0.79,0.3,-0.19
3.81623899936676,2,3,3,3,-9.43,-0.78,1.39,-0.83,0.29,-0.13
3.826238989830017,2,3,3,3,-9.380000000000001,-0.85,1.42,-0.88,0.31,-0.12
3.836238980293274,2,3,3,3,-9.380000000000001,-0.96,1.41,-0.89,0.32,-0.09
3.846238970756531,2,3,3,3,-9.460000000000001,-1.09,1.2,-0.91,0.25,-0.05
3.856238961219788,2,3,3,3,-9.49,-1.1,1.13,-0.88,0.1,-0.06
3.866238951683044,2,3,3,3,-9.5,-1.14,1.15,-0.8100000000000001,-0.04,-0.09
3.876238942146301,2,3,3,3,-9.49,-1.13,1.18,-0.84,-0.12,-0.09
3.887239098548889,2,3,3,3,-9.539999999999999,-1.22,1.33,-0.77,-0.18,-0.08
3.897239089012146,2,3,3,3,-9.56,-1.24,1.35,-0.67,-0.23,-0.06
3.907239079475403,2,3,3,3,-9.58,-1.24,1.24,-0.61,-0.25,-0.07000000000000001
3.91723906993866,2,3,3,3,-9.640000000000001,-1.25,1.31,-0.48,-0.19,-0.08
3.927239060401917,2,3,3,3,-9.640000000000001,-1.21,1.3,-0.4,-0.16,-0.14
3.937239050865173,2,3,3,3,-9.640000000000001,-1.22,1.33,-0.24,-0.07000000000000001,-0.25
3.94723904132843,2,3,3,3,-9.65,-1.21,1.31,-0.12,-0.05,-0.35
3.957239031791687,2,3,3,3,-9.68,-1.26,1.09,0.05,-0.02,-0.42
3.967239022254944,2,3,3,3,-9.699999999999999,-1.23,1.13,0.12,0.04,-0.45
3.977239012718201,2,3,3,3,-9.74,-1.2,1.2,0.23,0.08,-0.38
3.987239003181458,2,3,3,3,-9.82,-1.18,1.21,0.24,0.09,-0.33
3.997238993644714,2,3,3,3,-9.84,-1.14,1.09,0.23,0.08,-0.23
4.007238984107971,2,3,3,3,-9.84,-1.11,1.03,0.22,0.05,-0.15
4.017238974571228,2,3,3,3,-9.779999999999999,-1.04,1.07,0.12,-0.04,-0.06
4.027238965034485,2,3,3,3,-9.67,-0.99,1.14,0.01,-0.13,-0.02
4.037238955497742,2,3,3,3,-9.5,-0.87,1.24,0,-0.19,0
4.047238945960999,2,3,3,3,-9.470000000000001,-0.86,1.19,0.02,-0.22,-0.02
4.057238936424255,2,3,3,3,-9.460000000000001,-0.84,1.1,-0.05,-0.22,-0.08
4.067238926887512,2,3,3,3,-9.48,-0.87,1.08,-0.09,-0.17,-0.15
4.077238917350769,2,3,3,3,-9.640000000000001,-0.92,1.19,-0.17,-0.16,-0.21
4.087238907814026,2,3,3,3,-9.710000000000001,-0.98,1.21,-0.36,-0.13,-0.22
4.097238898277283,2,3,3,3,-9.75,-1.02,1.23,-0.47,-0.14,-0.23
4.107239127159119,2,3,3,3,-9.75,-1.05,1.14,-0.59,-0.11,-0.22
4.117239117622375,2,3,3,3,-9.710000000000001,-1.03,1.2,-0.67,-0.16,-0.21
4.127239108085632,2,3,3,3,-9.65,-1.03,1.21,-0.72,-0.15,-0.19
4.137239098548889,2,3,3,3,-9.59,-1.05,1.23,-0.76,-0.13,-0.17
4.147239089012146,2,3,3,3,-9.57,-1.09,1.19,-0.8100000000000001,-0.13,-0.18
4.157239079475403,2,3,3,3,-9.630000000000001,-1.14,1.14,-0.82,-0.12,-0.14
4.16723906993866,2,3,3,3,-9.67,-1.16,1.15,-0.85,-0.11,-0.13
4.177239060401917,2,3,3,3,-9.699999999999999,-1.2,1.16,-0.93,-0.07000000000000001,-0.11
4.187239050865173,2,3,3,3,-9.640000000000001,-1.24,1.2,-0.97,-0.08,-0.09
4.19723904132843,2,3,3,3,-9.609999999999999,-1.25,1.26,-0.9399999999999999,-0.07000000000000001,-0.09
4.207239031791687,2,3,3,3,-9.57,-1.2,1.2,-0.9399999999999999,-0.04,-0.02
4.217239022254944,2,3,3,3,-9.539999999999999,-1.21,1.28,-0.92,0.01,0.01
4.227239012718201,2,3,3,3,-9.57,-1.25,1.42,-0.79,0.1,0.05
4.237239003181458,2,3,3,3,-9.630000000000001,-1.28,1.36,-0.74,0.14,0.07000000000000001
4.247238993644714,2,3,3,3,-9.65,-1.28,1.37,-0.66,0.13,0.12
4.257238984107971,2,3,3,3,-9.630000000000001,-1.35,1.22,-0.64,0.13,0.13
4.267238974571228,2,3,3,3,-9.609999999999999,-1.33,1.28,-0.64,0.1,0.13
4.277238965034485,2,3,3,3,-9.59,-1.34,1.29,-0.58,0.1,0.11
4.287238955497742,2,3,3,3,-9.6,-1.28,1.3,-0.5,0.12,0.09
4.297238945960999,2,3,3,3,-9.65,-1.24,1.22,-0.39,0.12,0.08
4.307238936424255,2,3,3,3,-9.68,-1.2,1.2,-0.29,0.11,0.08
4.317238926887512,1,3,3,3,-9.699999999999999,-1.27,1.23,-0.25,0.09,0.08
4.327238917350769,1,3,3,3,-9.699999999999999,-1.26,1.27,-0.22,0.06,0.08
4.337238907814026,1,3,3,3,-9.699999999999999,-1.22,1.31,-0.17,-0.05,0.11
4.347238898277283,1,3,3,3,-9.67,-1.17,1.28,-0.21,-0.12,0.1
4.367239117622375,1,3,3,3,-9.59,-1.14,1.26,-0.08,-0.1,0.05
4.377239108085632,1,3,3,3,-9.59,-1.11,1.3,-0.08,-0.12,0.03
4.387239098548889,1,3,3,3,-9.609999999999999,-1.13,1.32,-0.13,-0.06,0.03
4.397239089012146,1,3,3,3,-9.640000000000001,-1.09,1.29,-0.16,-0.06,0.04
4.407239079475403,1,3,3,3,-9.66,-1.08,1.23,-0.21,-0.04,0.05
4.41723906993866,1,3,3,3,-9.699999999999999,-1.07,1.27,-0.19,-0.02,0.06
4.427239060401917,1,3,3,3,-9.66,-1.02,1.27,-0.25,-0.01,0.07000000000000001
4.437239050865173,1,3,3,3,-9.67,-0.96,1.27,-0.25,-0.03,0.06
4.44723904132843,1,3,3,3,-9.630000000000001,-0.93,1.17,-0.23,-0.05,0.02
4.457239031791687,1,3,3,3,-9.619999999999999,-0.93,1.18,-0.28,-0.04,0.04
4.467239022254944,1,3,3,3,-9.609999999999999,-0.97,1.21,-0.34,-0.02,0
4.477239012718201,1,3,3,3,-9.59,-1.01,1.24,-0.35,-0.01,-0.04
4.487239003181458,1,3,3,3,-9.609999999999999,-1.11,1.3,-0.41,-0.01,-0.01
4.497238993644714,1,3,3,3,-9.609999999999999,-1.13,1.28,-0.41,-0.04,0.05
4.507238984107971,1,3,3,3,-9.609999999999999,-1.12,1.22,-0.42,-0.02,0.11
4.517238974571228,1,3,3,3,-9.630000000000001,-1.08,1.28,-0.41,0.01,0.18
4.527238965034485,1,3,3,3,-9.65,-1.03,1.28,-0.37,-0.04,0.26
4.537238955497742,1,3,3,3,-9.67,-1.02,1.28,-0.36,0.01,0.28
4.547238945960999,1,3,3,3,-9.65,-0.99,1.26,-0.34,0.02,0.33
4.557238936424255,1,3,3,3,-9.630000000000001,-0.97,1.17,-0.32,0.01,0.32
4.567238926887512,1,3,3,3,-9.6,-0.93,1.19,-0.28,-0.02,0.32
4.577238917350769,1,3,3,3,-9.6,-0.91,1.23,-0.31,-0.01,0.27
4.587238907814026,1,3,3,3,-9.6,-0.93,1.28,-0.3,0,0.24
4.597238898277283,1,3,3,3,-9.619999999999999,-0.92,1.3,-0.3,0,0.19
4.607239127159119,1,3,3,3,-9.609999999999999,-0.9399999999999999,1.21,-0.29,-0.02,0.18
4.617239117622375,1,3,3,3,-9.609999999999999,-0.95,1.28,-0.26,0.02,0.19
4.627239108085632,1,3,3,3,-9.58,-0.9399999999999999,1.31,-0.22,0.03,0.19
4.637239098548889,1,3,3,3,-9.6,-0.97,1.31,-0.21,0.02,0.21
4.647239089012146,1,3,3,3,-9.6,-1,1.28,-0.21,0.02,0.21
4.657239079475403,1,3,3,3,-9.6,-1.02,1.2,-0.24,0.02,0.25
4.66723906993866,1,3,3,3,-9.59,-1.04,1.24,-0.3,0.01,0.3
4.677239060401917,1,3,3,3,-9.550000000000001,-1,1.29,-0.36,0.01,0.31
4.687239050865173,1,3,3,3,-9.57,-1.02,1.29,-0.34,-0.01,0.3
4.69723904132843,1,3,3,3,-9.57,-0.99,1.29,-0.31,0.03,0.3
4.707239031791687,1,3,3,3,-9.59,-1,1.2,-0.27,0.04,0.3
4.717239022254944,1,3,3,3,-9.640000000000001,-1.02,1.28,-0.18,0.04,0.27
4.727239012718201,1,3,3,3,-9.640000000000001,-1.01,1.33,-0.08,-0.01,0.29
4.737239003181458,1,3,3,3,-9.67,-1,1.35,-0.05,-0.02,0.26
4.747238993644714,1,3,3,3,-9.699999999999999,-1.03,1.34,-0.02,-0.07000000000000001,0.31
4.757238984107971,1,3,3,3,-9.68,-0.96,1.25,-0.05,-0.06,0.28
4.767238974571228,1,3,3,3,-9.66,-0.93,1.3,-0.09,-0.06,0.26
4.777238965034485,1,3,3,3,-9.630000000000001,-0.91,1.38,-0.05,-0.02,0.25
4.787238955497742,1,3,3,3,-9.68,-0.8,1.41,-0.05,0.01,0.22
4.797238945960999,1,3,3,3,-9.74,-0.77,1.4,-0.01,0.05,0.2
4.807238936424255,1,3,3,3,-9.800000000000001,-0.76,1.34,0.01,0.02,0.24
4.817238926887512,1,3,3,3,-9.890000000000001,-0.78,1.31,-0.02,0.01,0.26
4.827238917350769,1,3,3,3,-9.91,-0.75,1.34,-0.12,-0.05,0.25
4.837238907814026,1,3,3,3,-9.83,-0.71,1.33,-0.16,-0.05,0.23
4.847238898277283,1,3,3,3,-9.74,-0.73,1.37,-0.19,-0.05,0.17
4.857239127159119,1,3,3,3,-9.68,-0.71,1.29,-0.26,0,0.13
4.867239117622375,1,3,3,3,-9.550000000000001,-0.66,1.34,-0.33,0.06,0.11
4.877239108085632,1,3,3,3,-9.529999999999999,-0.64,1.33,-0.39,0.09,0.09
4.887239098548889,1,3,3,3,-9.550000000000001,-0.63,1.33,-0.45,0.05,0.08
4.897239089012146,1,3,3,3,-9.550000000000001,-0.68,1.31,-0.48,0.01,0.1
4.907239079475403,1,3,3,3,-9.6,-0.72,1.23,-0.52,-0.08,0.09
4.918238997459412,1,3,3,3,-9.609999999999999,-0.77,1.25,-0.57,-0.16,0.08
4.928238987922668,1,3,3,3,-9.619999999999999,-0.83,1.24,-0.62,-0.22,0.12
4.938238978385925,1,3,3,3,-9.619999999999999,-0.86,1.26,-0.6899999999999999,-0.23,0.12
4.948238968849182,1,3,3,3,-9.630000000000001,-0.89,1.26,-0.7,-0.22,0.18
4.958238959312439,1,3,3,3,-9.57,-0.9,1.19,-0.6899999999999999,-0.17,0.22
4.968238949775696,1,3,3,3,-9.619999999999999,-0.9,1.17,-0.71,-0.14,0.22
4.978238940238953,1,3,3,3,-9.609999999999999,-0.93,1.21,-0.66,-0.1,0.18
4.988238930702209,1,3,3,3,-9.640000000000001,-0.9399999999999999,1.28,-0.55,-0.06,0.18
4.998238921165466,1,3,3,3,-9.640000000000001,-1.01,1.32,-0.49,-0.04,0.11
5.008238911628723,1,3,3,3,-9.640000000000001,-1.03,1.25,-0.38,-0.02,0.1
5.01823890209198,1,3,3,3,-9.65,-1.02,1.3,-0.32,-0.01,0.09
5.028239130973816,1,3,3,3,-9.65,-0.99,1.28,-0.26,0.02,0.06
5.038239121437073,1,3,3,3,-9.640000000000001,-0.9399999999999999,1.27,-0.15,0.06,0.01
5.04823911190033,1,3,3,3,-9.640000000000001,-0.91,1.27,-0.01,0.13,-0.02
5.058239102363586,1,3,3,3,-9.640000000000001,-0.88,1.17,0.1,0.13,-0.04
5.068239092826843,1,3,3,3,-9.640000000000001,-0.91,1.17,0.17,0.11,0.01
5.0782390832901,1,3,3,3,-9.69,-0.9,1.2,0.24,0.09,0.05
5.088239073753357,1,3,3,3,-9.710000000000001,-0.91,1.24,0.35,0.02,0.07000000000000001
5.098239064216614,1,3,3,3,-9.84,-0.93,1.24,0.43,-0.04,0.1
5.108239054679871,1,3,3,3,-9.81,-0.96,1.17,0.48,-0.09,0.14
5.118239045143127,1,3,3,3,-9.74,-0.9399999999999999,1.24,0.52,-0.12,0.18
5.128239035606384,1,3,3,3,-9.57,-0.93,1.32,0.59,-0.09,0.19
5.138239026069641,1,3,3,3,-9.52,-0.9,1.34,0.63,-0.04,0.2
5.148239016532898,1,3,3,3,-9.460000000000001,-0.89,1.32,0.64,0.03,0.21
5.158239006996155,1,3,3,3,-9.470000000000001,-0.89,1.27,0.65,0.09,0.24
5.168238997459412,1,3,3,3,-9.56,-0.87,1.31,0.6,0.12,0.22
5.178238987922668,1,3,3,3,-9.619999999999999,-0.88,1.32,0.52,0.11,0.23
5.188238978385925,1,3,3,3,-9.619999999999999,-0.88,1.32,0.45,0.07000000000000001,0.22
5.198238968849182,1,3,3,3,-9.66,-0.91,1.33,0.34,0.05,0.22
5.208238959312439,1,3,3,3,-9.710000000000001,-0.95,1.19,0.23,-0.02,0.18
5.218238949775696,1,3,3,3,-9.699999999999999,-0.9399999999999999,1.26,0.22,-0.05,0.24
5.228238940238953,1,3,3,3,-9.630000000000001,-0.92,1.33,0.17,-0.07000000000000001,0.19
5.238238930702209,1,3,3,3,-9.630000000000001,-0.92,1.33,0.11,-0.05,0.21
5.248238921165466,1,3,3,3,-9.619999999999999,-0.93,1.33,0.11,-0.05,0.21
5.258238911628723,1,3,3,3,-9.69,-0.91,1.28,-0.11,-0.12,0.2
5.26823890209198,1,3,3,3,-9.69,-0.89,1.34,-0.18,-0.15,0.19
5.278239130973816,1,3,3,3,-9.710000000000001,-0.89,1.39,-0.21,-0.13,0.14
5.288239121437073,1,3,3,3,-9.710000000000001,-0.89,1.39,-0.21,-0.13,0.14
5.29823911190033,1,3,3,3,-9.699999999999999,-0.87,1.4,-0.33,-0.15,0.11
5.308239102363586,1,3,3,3,-9.69,-0.87,1.35,-0.5600000000000001,-0.22,0.03
5.318239092826843,1,3,3,3,-9.68,-1.01,1.48,-0.73,-0.26,0.01
5.3282390832901,1,3,3,3,-9.68,-1.06,1.53,-0.92,-0.28,-0.05
5.338239073753357,1,3,3,3,-9.68,-1.06,1.53,-0.92,-0.28,-0.05
5.348239064216614,1,3,3,3,-9.640000000000001,-1.07,1.67,-0.95,-0.14,-0.12
5.358239054679871,1,3,3,3,-9.609999999999999,-1.16,1.59,-0.53,0.19,-0.48
5.368239045143127,1,3,3,3,-9.550000000000001,-1.42,1.36,-0.74,0.13,-0.86
5.378239035606384,1,3,3,3,-9.52,-1.27,1.43,-0.45,0.24,-1.29
5.388239026069641,1,3,3,3,-9.51,-1.32,1.44,-0.45,0.24,-1.29
5.398239016532898,1,3,3,3,-9.59,-1.48,1.58,0.01,0.34,-1.75
5.408239006996155,1,3,3,3,-9.859999999999999,-1.64,1.5,1.19,0.47,-2.3
5.418238997459412,1,3,3,3,-10.02,-1.67,1.42,1.89,0.44,-2.4
5.428238987922668,1,3,3,3,-10.15,-1.7,1.4,2.49,0.29,-2.46
5.438238978385925,1,3,3,3,-10.2,-1.65,1.32,2.49,0.29,-2.46
5.448238968849182,1,3,3,3,-10.03,-1.35,1.27,3.03,0.17,-2.42
5.458238959312439,1,3,3,3,-9.82,-1.17,1.28,3.78,0.06,-2.19
5.468238949775696,1,3,3,3,-9.56,-1.04,1.23,3.93,0.07000000000000001,-1.95
5.478238940238953,1,3,3,3,-9.34,-0.93,1.3,3.74,-0.02,-1.63
5.488238930702209,1,3,3,3,-9.02,-0.76,1.3,3.74,-0.02,-1.63
5.498238921165466,1,3,3,3,-8.93,-0.65,1.25,3.26,-0.03,-1.27
5.508238911628723,1,3,3,3,-8.84,-0.58,1.32,2.14,0.1,-0.64
5.51823890209198,1,3,3,3,-8.92,-0.45,1.32,1.43,0.13,-0.34
5.528239130973816,1,3,3,3,-9.02,-0.43,1.35,0.74,0.16,-0.1
5.538239121437073,1,3,3,3,-9.130000000000001,-0.43,1.38,0.74,0.16,-0.1
5.54823911190033,1,3,3,3,-9.210000000000001,-0.46,1.42,0.12,0.21,0.03
5.558239102363586,1,3,3,3,-9.289999999999999,-0.58,1.36,-0.89,0.34,0.08
5.568239092826843,1,3,3,3,-9.34,-0.6899999999999999,1.28,-1.39,0.45,0
5.5782390832901,1,3,3,3,-9.42,-0.75,1.32,-1.84,0.55,-0.1
5.588239073753357,1,3,3,3,-9.44,-0.85,1.31,-1.84,0.55,-0.1
5.598239064216614,1,3,3,3,-9.42,-1.17,1.28,-2.21,0.67,-0.26
5.608239054679871,1,3,3,3,-9.35,-1.39,1.22,-2.79,0.8100000000000001,-0.62
5.618239045143127,1,3,3,3,-9.19,-1.55,1.1,-2.97,0.8,-0.78
5.628239035606384,1,3,3,3,-8.98,-1.7,1,-2.99,0.73,-0.87
5.638239026069641,1,3,3,3,-8.41,-1.77,0.87,-2.99,0.73,-0.87
5.648239016532898,1,3,3,3,-8.16,-1.78,0.98,-2.95,0.73,-0.85
5.658239006996155,1,3,3,3,-7.81,-1.82,1.07,-2.68,0.45,-0.33
5.668238997459412,1,3,3,3,-7.34,-1.71,0.75,-2.48,0.14,-0.04
5.678238987922668,1,3,3,3,-7.16,-1.54,0.67,-2.22,-0.31,0.28
5.688238978385925,1,3,3,3,-6.89,-1.25,0.5,-2.22,-0.31,0.28
5.698238968849182,1,3,3,3,-6.61,-1.09,0.37,-1.82,-0.77,0.58
5.708238959312439,1,3,3,3,-6.35,-0.96,0.45,-0.43,-1.88,1.32
5.718238949775696,1,3,3,3,-6.21,-1.02,0.55,0.42,-2.21,1.71
5.728238940238953,1,3,3,3,-6.08,-1.08,0.6899999999999999,1.26,-2.26,2.04
5.76823890209198,1,3,3,3,-6.03,-0.03,0.58,3.01,-0.8,2.63
5.778239130973816,1,3,3,3,-6.42,-0.03,0.75,2.9,-0.98,3.01
5.788239121437073,1,3,3,3,-7.4,0.05,0.77,2.9,-0.98,3.01
5.79823911190033,1,3,3,3,-7.69,0.1,0.51,2.55,-1.53,3.17
5.808239102363586,1,3,3,3,-8.08,0.19,0.25,2.6,-1.37,3.01
5.818239092826843,1,3,3,3,-8.44,0.02,0.12,3.21,-0.58,3.32
5.8282390832901,1,3,3,3,-9.380000000000001,-0.23,0.76,3.13,0.04,3.73
5.838239073753357,1,3,3,3,-9.800000000000001,-0.08,1.41,3.13,0.04,3.73
5.848239064216614,1,3,3,3,-10.02,-0.05,1.36,2.45,0.27,3.79
5.858239054679871,1,3,3,3,-10.71,-0.01,1.12,1.51,0.24,3.46
5.868239045143127,1,3,3,3,-11.56,-0.12,1.58,0.51,-0.05,3.48
5.878239035606384,1,3,3,3,-12.42,-0.09,1.49,0.51,-0.05,3.48
5.888239026069641,1,3,3,3,-13.65,0.09,2.11,-0.06,-0.27,3.84
5.898239016532898,1,3,3,3,-15.32,0.48,2.03,-0.97,-0.5,3.85
5.908239006996155,1,3,3,3,-15.7,0.4,2.08,-0.59,-0.06,3.7
5.918238997459412,1,3,3,3,-15.67,0.23,2.55,0.44,0.26,3.73
5.928238987922668,1,3,3,3,-16.04,-0.08,3.12,1.57,0.98,3.57
5.939238905906677,1,3,3,3,-17.73,1.56,3.32,1.33,1.3,3.12
5.949238896369934,1,3,3,3,-19.35,3.1,2.98,1.1,1.44,3
5.95923912525177,1,3,3,3,-21.03,4.34,3.06,2.51,1.99,2.93
5.969239115715027,1,3,3,3,-22.61,5.03,3.44,4.22,2.84,2.22
5.979239106178284,1,3,3,3,-24.15,5.72,3.31,4.19,2.99,1.2
5.989239096641541,1,3,3,3,-24.8,5.88,3.47,2.8,3.05,-0.05
5.999239087104797,1,3,3,3,-25.54,5.39,3.76,1.89,3.65,-0.87
6.009239077568054,1,3,3,3,-25.73,3.6,3.71,1.1,4.03,-1.55
6.019239068031311,1,3,3,3,-25.83,2.77,3.57,-0.38,4.13,-2.69
6.029239058494568,1,3,3,3,-26.15,1.89,3.21,-1.85,4.37,-4.24
6.039239048957825,1,3,3,3,-26.46,0.54,2.64,-2.51,4.13,-5.98
6.049239039421082,1,3,3,3,-24.68,-2.2,2.07,-2.34,3.32,-7.9
6.059239029884338,1,3,3,3,-22.33,-2.91,1.97,-1.87,2.41,-9.17
6.069239020347595,1,3,3,3,-19.42,-3.13,1.82,-1.05,1.78,-9.35
6.079239010810852,1,3,3,3,-16.13,-2.86,1.71,-0.11,1.84,-8.789999999999999
6.099238991737366,1,3,3,3,-7.81,-1.47,0.66,0.6899999999999999,1.98,-7.48
6.109238982200623,1,3,3,3,-5.06,-1.18,0.35,-0.34,1.37,-7.57
6.119238972663879,1,3,3,3,-2.22,-1.06,-0.65,-2.16,0.9399999999999999,-7.23
6.129238963127136,1,3,3,3,3.01,-3.18,-0.21,-0.47,1.66,-7.16
6.139238953590393,1,3,3,3,4.92,-3.64,-0.23,1.67,2.34,-7.12
6.14923894405365,1,3,3,3,7.13,-4.4,0.39,1.72,1.66,-7.35
6.159238934516907,1,3,3,3,8.869999999999999,-5.61,0.9399999999999999,-0.13,0.79,-7.44
6.169238924980164,1,3,3,3,8.300000000000001,-5.97,0.42,-2.71,0.66,-6.36
6.17923891544342,1,3,3,3,6.42,-5.18,-0.74,-4.44,1.14,-4.11
6.189238905906677,1,3,3,3,4.55,-3.93,-1.61,-5.25,1.67,-0.65
6.199238896369934,1,3,3,3,1.48,-1.38,-1.35,-4.75,1.6,3.31
6.20923912525177,1,3,3,3,-0.48,-0.35,-0.78,-3.32,1.43,6.38
6.219239115715027,2,3,3,3,-1.66,-0.06,-0.05,-1.68,0.63,8.720000000000001
6.229239106178284,2,3,3,3,-1.85,-0.46,0.27,0.53,-0.66,10.06
6.239239096641541,2,3,3,3,-2.4,-0.9399999999999999,-0.09,2.27,-2.06,10.29
6.249239087104797,2,3,3,3,-2.38,-0.84,-0.11,2,-3.57,10.08
6.259239077568054,2,3,3,3,-2.19,-0.5,-0.13,1.38,-4.32,9.33
6.269239068031311,2,3,3,3,-1.84,-0.05,-0.37,0.86,-4.38,7.75
6.279239058494568,2,3,3,3,-1.46,0.76,0.07000000000000001,0.51,-3.56,5.57
6.289239048957825,2,3,3,3,-1.08,0.8100000000000001,0.53,0.7,-2.52,3.19
6.299239039421082,2,3,3,3,-0.59,0.6899999999999999,0.58,0.72,-1.74,0.93
6.309239029884338,2,3,3,3,-0.36,0.45,0.57,0.6,-0.35,-1.15
6.319239020347595,2,3,3,3,-0.19,-0.05,0.24,0.46,1.1,-2.57
6.329239010810852,2,3,3,3,-0.2,-0.37,0.21,0.39,2.13,-3.38
6.339239001274109,2,3,3,3,-0.24,-0.8,0.35,0.48,2.62,-3.58
6.349238991737366,2,3,3,3,-0.17,-1.94,0.68,0.73,2.85,-3.14
6.359238982200623,2,3,3,3,-0.11,-2.5,0.87,1.32,2.87,-2.21
6.369238972663879,2,3,3,3,0.06,-3.02,0.6,2.39,2.62,-0.79
6.379238963127136,2,3,3,3,0.45,-3.28,0.13,3.39,1.95,0.88
6.389238953590393,2,3,3,3,0.79,-2.74,0.16,3.67,1.57,2.63
6.39923894405365,2,3,3,3,0.97,-2.17,0.08,3.97,1.99,4.67
6.409238934516907,2,3,3,3,0.8100000000000001,-1.63,1.14,3.97,2.15,6.67
6.419238924980164,2,3,3,3,0.19,-2.54,1.71,4.77,1.66,8.83
6.42923891544342,2,3,3,3,-2.86,-1.12,-0.64,3.88,-0.47,11.67
6.439238905906677,2,3,3,3,-7.31,0.38,0.88,-0.74,-5.07,14.2
6.449238896369934,2,3,3,3,-12.55,-0.68,1.19,-1.06,-9.529999999999999,18.01
6.45923912525177,2,3,3,3,-17.89,-0.27,1.54,1.91,-14.66,20.45
6.469239115715027,2,3,3,3,-36.74,5.39,6.73,6.24,-10,20.97
6.479239106178284,2,3,3,3,-38.68,13.63,7.32,3.98,-5.7,16.45
6.489239096641541,2,3,3,3,-37.9,15.69,7.16,-2.84,4.89,6.12
6.499239087104797,2,3,3,3,-30.41,8.630000000000001,4.92,-6.76,9.32,-2.18
6.509239077568054,2,3,3,3,-23.42,3.87,3.54,-9.9,6.64,-2.5
6.519239068031311,2,3,3,3,-22,3.12,1.23,-11.44,6.04,-0.78
6.529239058494568,2,3,3,3,-21.71,2.97,-1.04,-11.77,7.02,0.16
6.539239048957825,2,3,3,3,-22.2,2.5,-1.22,-11.04,6.76,0.25
6.549239039421082,2,3,3,3,-21.67,2.05,-0.07000000000000001,-9.710000000000001,4.6,0.37
6.559239029884338,2,3,3,3,-20.9,1.67,0.95,-8.119999999999999,2.22,0.21
6.569239020347595,2,3,3,3,-18.96,1.08,1.74,-7.27,-0.27,-0.65
6.579239010810852,2,3,3,3,-14.15,0.01,2.27,-7.38,-1.78,-2.22
6.589239001274109,2,3,3,3,-12.04,-0.46,2.32,-7.44,-1.73,-4.31
6.599238991737366,2,3,3,3,-9.970000000000001,-1.02,1.65,-6.33,-1.27,-6.51
6.609238982200623,2,3,3,3,-8.23,-1.26,1.16,-4.92,-0.72,-8.4
6.619238972663879,2,3,3,3,-6.51,-1.36,0.35,-3.64,0.21,-9.74
6.629238963127136,2,3,3,3,-6.15,-1.58,0.06,-2.92,0.96,-10.51
6.639238953590393,2,3,3,3,-5.96,-1.81,-0.11,-2.61,1.64,-10.53
6.64923894405365,2,3,3,3,-5.9,-2.22,0.02,-2.46,2.35,-10
6.659238934516907,2,3,3,3,-5.61,-2.89,-0.47,-2.32,2.76,-9.109999999999999
6.669238924980164,2,3,3,3,-5.54,-3.13,-0.59,-2.27,3,-7.93
6.67923891544342,2,3,3,3,-5.27,-3.21,-0.4,-1.88,2.7,-6.63
6.689238905906677,2,3,3,3,-4.66,-3.01,-0.18,-1.29,1.89,-5.27
6.699238896369934,2,3,3,3,-4.35,-3.01,-0.13,-0.41,0.74,-4.04
6.70923912525177,2,3,3,3,-4.16,-2.86,-0.15,0.38,-0.38,-3.1
6.719239115715027,2,3,3,3,-4.22,-2.62,-0.28,1.13,-1.22,-2.36
6.729239106178284,2,3,3,3,-4.98,-2.49,0.18,2,-1.78,-1.62
6.739239096641541,2,3,3,3,-5.81,-2.42,0.53,2.64,-2.36,-0.72
6.749239087104797,2,3,3,3,-6.93,-2.48,0.68,3.24,-3.06,0.42
6.759239077568054,2,3,3,3,-8.359999999999999,-2.53,0.47,3.76,-4,1.72
6.769239068031311,2,3,3,3,-11.78,-2.32,0.41,3.8,-5.08,3
6.779239058494568,2,3,3,3,-13.39,-2.16,0.04,3.9,-6.32,3.92
6.789239048957825,2,3,3,3,-14.55,-1.96,0.09,3.96,-6.77,4.6
6.799239039421082,2,3,3,3,-14.61,-1.5,0.65,3.98,-6.78,4.46
6.809239029884338,2,3,3,3,-12.16,-0.65,2.21,4.18,-5.86,3.52
6.819239020347595,2,3,3,3,-10.88,-0.11,2.58,4.41,-3.65,1.97
6.829239010810852,2,3,3,3,-10.38,0.29,2.46,4.02,-0.57,0.16
6.839239001274109,2,3,3,3,-10.11,0.2,2.08,2.9,2.39,-1.59
6.849238991737366,2,3,3,3,-9.539999999999999,-0.25,1.12,1.68,4.2,-2.72
6.859238982200623,2,3,3,3,-9.1,-0.44,0.7,0.78,4.71,-3.37
6.869238972663879,2,3,3,3,-8.869999999999999,-0.5600000000000001,0.3,0.34,4.45,-3.6
6.879238963127136,2,3,3,3,-8.98,-0.54,-0.08,0.14,3.73,-3.45
6.889238953590393,2,3,3,3,-9.210000000000001,-0.5600000000000001,-0.09,-0.07000000000000001,2.4,-3
6.89923894405365,2,3,3,3,-9.32,-0.62,0,-0.3,0.79,-2.33
6.909238934516907,2,3,3,3,-9.300000000000001,-0.62,-0.03,-0.37,-0.87,-1.38
6.919238924980164,2,3,3,3,-9.130000000000001,-0.82,0.25,-0.36,-2.3,-0.4
6.92923891544342,2,3,3,3,-8.99,-0.9,0.58,-0.46,-3.49,0.39
6.939238905906677,2,3,3,3,-8.880000000000001,-1.08,0.72,-0.39,-4.3,1.05
6.949238896369934,2,3,3,3,-8.85,-1.21,0.64,-0.35,-4.57,1.52
6.95923912525177,2,3,3,3,-9.24,-1.2,0.78,-0.55,-4.22,1.74
6.970239043235779,2,3,3,3,-9.470000000000001,-1.16,0.82,-0.5,-3.52,1.77
6.980239033699036,2,3,3,3,-9.74,-1.11,0.99,-0.25,-2.57,1.63
6.990239024162292,2,3,3,3,-9.99,-0.99,1.05,0.04,-1.52,1.25
7.000239014625549,2,3,3,3,-10.28,-0.83,1,0.21,-0.61,0.75
7.010239005088806,2,3,3,3,-10.34,-0.74,0.99,0.31,0.21,0.21
7.020238995552063,2,3,3,3,-10.27,-0.61,0.87,0.47,0.86,-0.29
7.03023898601532,2,3,3,3,-10.1,-0.52,0.87,0.6899999999999999,1.29,-0.68
7.040238976478577,2,3,3,3,-9.67,-0.36,0.88,0.79,1.49,-0.86
7.050238966941833,2,3,3,3,-9.470000000000001,-0.23,0.77,0.76,1.42,-0.9
7.06023895740509,2,3,3,3,-9.300000000000001,-0.12,0.87,0.71,1.17,-0.79
7.070238947868347,2,3,3,3,-9.119999999999999,-0.13,0.61,0.75,0.84,-0.59
7.080238938331604,2,3,3,3,-9.220000000000001,-0.03,0.58,0.62,0.52,-0.45
7.090238928794861,2,3,3,3,-9.31,-0.06,0.66,0.42,0.3,-0.33
7.100238919258118,2,3,3,3,-9.41,-0.14,0.79,0.34,0.06,-0.16
7.110238909721375,2,3,3,3,-9.49,-0.2,0.88,0.45,-0.03,0.02
7.120238900184631,2,3,3,3,-9.51,-0.12,0.93,0.57,-0.06,0.15
7.130239129066467,2,3,3,3,-9.58,0,0.98,0.59,0,0.27
7.140239119529724,2,3,3,3,-9.609999999999999,0.1,1.23,0.54,0.12,0.29
7.150239109992981,2,3,3,3,-9.74,-0.01,1.37,0.42,0.25,0.31
7.160239100456238,2,3,3,3,-9.82,-0.04,1.43,0.24,0.38,0.27
7.170239090919495,2,3,3,3,-9.82,-0.08,1.36,-0.03,0.44,0.17
7.180239081382751,2,3,3,3,-9.869999999999999,-0.08,1.44,-0.34,0.45,0.05
7.190239071846008,2,3,3,3,-9.82,-0.07000000000000001,1.56,-0.54,0.43,-0.11
7.200239062309265,2,3,3,3,-9.73,-0.01,1.58,-0.57,0.3,-0.25
7.210239052772522,2,3,3,3,-9.68,-0.02,1.52,-0.54,0.08,-0.39
7.220239043235779,2,3,3,3,-9.449999999999999,-0.23,1.41,-0.58,-0.12,-0.52
7.230239033699036,2,3,3,3,-9.42,-0.28,1.4,-0.71,-0.16,-0.6
7.240239024162292,2,3,3,3,-9.44,-0.25,1.39,-0.75,-0.08,-0.61
7.250239014625549,2,3,3,3,-9.48,-0.17,1.43,-0.66,-0.01,-0.5600000000000001
7.260239005088806,2,3,3,3,-9.539999999999999,-0.07000000000000001,1.44,-0.66,-0.01,-0.5600000000000001
7.270238995552063,2,3,3,3,-9.59,-0.15,1.34,-0.33,-0.01,-0.44
7.28023898601532,2,3,3,3,-9.67,-0.22,1.38,-0.05,-0.05,-0.4
7.290238976478577,2,3,3,3,-9.68,-0.3,1.37,0.17,-0.07000000000000001,-0.41
7.300238966941833,2,3,3,3,-9.710000000000001,-0.3,1.39,0.33,-0.2,-0.66
7.31023895740509,2,3,3,3,-9.74,-0.24,1.37,0.33,-0.2,-0.66
7.320238947868347,2,3,3,3,-9.75,-0.34,1.33,0.34,-0.23,-0.83
7.330238938331604,2,3,3,3,-9.710000000000001,-0.4,1.39,0.39,-0.26,-1.12
7.340238928794861,2,3,3,3,-9.65,-0.64,1.52,0.33,-0.21,-1.21
7.350238919258118,2,3,3,3,-9.619999999999999,-0.71,1.5,0.26,-0.19,-1.25
7.360238909721375,2,3,3,3,-9.6,-0.8,1.61,0.27,-0.18,-1.23
7.370238900184631,2,3,3,3,-9.52,-0.92,1.51,0.31,-0.02,-1.12
7.380239129066467,2,3,3,3,-9.48,-1.18,1.37,0.26,0.16,-0.9399999999999999
7.390239119529724,2,3,3,3,-9.44,-1.25,1.35,0.11,0.27,-0.74
7.400239109992981,2,3,3,3,-9.34,-1.39,1.34,0.02,0.41,-0.55
7.410239100456238,2,3,3,3,-9.130000000000001,-1.76,1.27,-0.01,0.5600000000000001,-0.44
7.420239090919495,2,3,3,3,-9.02,-1.91,1.14,0.02,0.83,-0.41
7.430239081382751,2,3,3,3,-8.91,-2.02,1.04,0.03,1.2,-0.4
7.440239071846008,2,3,3,3,-8.75,-2.06,0.97,0.08,1.64,-0.48
7.450239062309265,2,3,3,3,-8.43,-2.07,1.04,0.32,2.01,-0.6
7.460239052772522,2,3,3,3,-8.16,-2.15,0.97,0.8100000000000001,2.33,-0.75
7.470239043235779,2,3,3,3,-7.85,-2.28,0.88,1.41,2.72,-0.84
7.480239033699036,2,3,3,3,-7.47,-2.34,0.92,1.88,3.12,-0.9399999999999999
7.490239024162292,2,3,3,3,-6.64,-2.13,1.31,2.19,3.36,-0.83
7.500239014625549,2,3,3,3,-6.23,-1.93,1.38,2.07,3.66,-0.57
7.510239005088806,2,3,3,3,-6.14,-1.76,1.32,1.62,3.45,-0.23
7.520238995552063,2,3,3,3,-5.87,-1.59,1.19,0.97,2.74,0.15
7.53023898601532,2,3,3,3,-5.56,-1.31,0.72,0.5,1.99,0.5600000000000001
7.540238976478577,2,3,3,3,-5.55,-1.35,0.51,0.32,0.75,1
7.550238966941833,2,3,3,3,-5.11,-1.25,0.32,0.32,-0.82,1.42
7.56023895740509,2,3,3,3,-4.78,-1.13,0.21,0.37,-1.99,1.66
7.570238947868347,2,3,3,3,-4.49,-1.04,-0.14,0.93,-3.05,2.04
7.600238919258118,2,3,3,3,-5.05,-1.55,0.04,4.86,-5.24,4.97
7.630239129066467,2,3,3,3,-7.95,-0.24,0.73,6.9,-4.26,8.01
7.640239119529724,2,3,3,3,-11.2,1.39,2,7.25,-2.91,8.23
7.650239109992981,2,3,3,3,-11.2,1.39,2,7.33,-1.37,7.8
7.660239100456238,2,3,3,3,-12.86,1.84,2.84,5.91,0.35,6.43
7.670239090919495,2,3,3,3,-15.44,2.7,3.05,3.26,0.98,4.45
7.680239081382751,2,3,3,3,-16.37,2.79,2.27,1.22,1.01,3.15
7.690239071846008,2,3,3,3,-16.66,2.36,2.47,0.24,0.57,2.79
7.700239062309265,2,3,3,3,-16.66,2.36,2.47,-0.64,-0.19,2.99
7.710239052772522,2,3,3,3,-16.6,1.93,2.34,-0.99,-0.5,3.27
7.720239043235779,2,3,3,3,-17.5,1.76,2.06,-1.35,-0.09,3.22
7.730239033699036,2,3,3,3,-18.63,2.6,2.77,-1.27,0.7,3.38
7.740239024162292,2,3,3,3,-19.81,3.42,3.07,-1.08,0.88,3.69
7.750239014625549,2,3,3,3,-19.81,3.42,3.07,-1.08,0.88,3.69
7.760239005088806,2,3,3,3,-22.94,5.66,2.37,-1.24,1.05,3.08
7.770238995552063,2,3,3,3,-26.26,7.41,3.78,-1.45,2.01,-0.18
7.78023898601532,2,3,3,3,-27.42,7.24,4.26,-1.35,1.81,-2.31
7.790238976478577,2,3,3,3,-29.59,5.72,5.47,-1.57,1.09,-4.48
7.800238966941833,2,3,3,3,-29.59,5.72,5.47,-1.57,1.09,-4.48
7.81023895740509,2,3,3,3,-29.39,4.22,5.04,-1.83,-0.5600000000000001,-6.27
7.820238947868347,2,3,3,3,-29.28,1.24,2.94,-1.68,-2.16,-9.609999999999999
7.830238938331604,2,3,3,3,-29.28,1.24,2.94,-1.41,-3.1,-10.38
7.840238928794861,2,3,3,3,-24.88,-0.58,2.08,-0.49,-3.14,-10.75
7.850238919258118,2,3,3,3,-21.84,-1.36,1.86,-0.49,-3.14,-10.75
7.860238909721375,2,3,3,3,-18.24,-1.81,2.1,0.51,-2.21,-10.57
7.870238900184631,2,3,3,3,-15.25,-1.75,1.83,-0.48,0.99,-10.14
7.881239056587219,2,3,3,3,-10.13,-1.15,0.67,-1.34,2.29,-9.93
7.890239119529724,2,3,3,3,-7.64,-1.37,0.6,-3.44,4.06,-8.970000000000001
7.900239109992981,2,3,3,3,-5.24,-0.88,-0.51,-3.44,4.06,-8.970000000000001
7.91123902797699,2,3,3,3,-0.34,-2.58,0,-5.51,4.57,-8.119999999999999
7.920239090919495,2,3,3,3,1.99,-3.87,0.11,-3.84,4.56,-6.78
7.930239081382751,2,3,3,3,4.35,-4.67,-0.34,-4.37,2.46,-6.83
7.94123899936676,2,3,3,3,6.6,-6.07,-0.03,-7.67,0.39,-6.68
7.950239062309265,2,3,3,3,7.53,-6.99,0.07000000000000001,-7.67,0.39,-6.68
7.960239052772522,2,3,3,3,7.13,-9.4,-0.35,-13.73,-0.7,-6.33
7.970239043235779,2,3,3,3,5.61,-6.74,-1.85,-5.22,3.46,2.89
7.980239033699036,2,3,3,3,2.9,-3.44,-2.79,-3.56,2.62,7.37
7.991238951683044,2,3,3,3,0.32,-1.26,-1.92,-1.74,0.23,9.65
8.051239132881165,2,3,3,3,-1.33,-0.45,0.59,4.21,-5.11,6.91
8.061239123344421,2,3,3,3,-1.55,0.36,0.5600000000000001,2.98,-4.21,5.26
8.071239113807678,2,3,3,3,-2.32,1.35,0.12,1.84,-0.33,1.73
8.081239104270935,2,3,3,3,-2.18,1.27,0.25,1.03,0.9399999999999999,-0.07000000000000001
8.091239094734192,2,3,3,3,-1.8,1.14,0.26,0.68,1.94,-1.6
8.101239085197449,2,3,3,2,-1.27,0.99,0.04,0.68,1.94,-1.6
8.111239075660706,2,3,3,2,-1.04,0.91,-0.14,0.54,2.43,-2.72
8.121239066123962,2,3,3,2,-0.78,0.68,-0.29,0.66,1.76,-3.83
8.131239056587219,2,3,3,2,-0.61,0.4,-0.3,1.01,1.12,-3.75
8.141239047050476,2,3,3,2,0.05,-0.37,0.03,1.7,0.64,-3.11
8.151239037513733,2,3,3,2,0.47,-0.9,0.48,1.7,0.64,-3.11
8.16123902797699,2,3,3,2,0.72,-1.55,1.05,2.64,0.44,-2.02
8.171239018440247,2,3,3,2,0.96,-2.26,1.37,3.62,0.43,0.85
8.181239008903503,2,3,3,2,1.18,-3.28,0.89,3.52,1.14,2.86
8.19123899936676,2,3,3,2,1.04,-3.22,0.49,3.48,1.52,4.95
8.201238989830017,2,3,3,2,0.8100000000000001,-2.98,0.64,3.48,1.52,4.95
8.211238980293274,2,3,3,2,0.7,-2.53,0.42,3.37,2.18,7.16
8.221238970756531,2,3,3,2,0.12,-1.02,0.09,3.45,2.51,10.11
8.231238961219788,2,3,3,2,-0.02,-0.44,0.27,4.5,1.14,11.64
8.241238951683044,2,3,3,2,-0.64,-0.54,1.39,3.37,-1.85,14.82
8.251238942146301,2,3,3,2,-2.83,-0.82,0.72,3.37,-1.85,14.82
8.261238932609558,2,3,3,2,-10.88,0.98,2.73,-0.38,-9.199999999999999,17.88
8.271238923072815,2,3,3,2,-17.99,0.53,3.38,7.21,-12.03,23.19
8.291238903999329,2,3,3,2,-39.12,14.64,4.43,-4.06,2.07,7.71
8.301239132881165,2,3,3,2,-37.14,15.52,6.18,-4.06,2.07,7.71
8.311239123344421,2,3,3,2,-24.93,6.85,6.59,-5.72,6.05,-0.65
8.321239113807678,2,3,3,2,-21.37,2.9,6.4,-6.67,4.58,-1.13
8.331239104270935,2,3,3,2,-25.6,-0.9,1.66,-7.13,6.64,0.6
8.341239094734192,2,3,3,2,-27.58,0.66,-2.57,-6.26,8.94,2.37
8.351239085197449,2,3,3,2,-29.79,2.77,-4.05,-5.17,7.63,3.08
8.361239075660706,2,3,3,2,-28.14,4.68,-2.94,-4.01,3.16,1.95
8.371239066123962,2,3,3,2,-20.17,5.48,0.47,-3.2,-0.54,1.41
8.381239056587219,2,3,3,2,-17.86,4.23,1.76,-3.32,-3.01,0.68
8.391239047050476,2,3,3,2,-15.2,2.9,2.49,-4.55,-5.22,-1.32
8.401239037513733,2,3,3,2,-12.41,1.48,3.2,-6.19,-5.58,-4.29
8.41123902797699,2,3,3,2,-7.68,0.27,3.45,-6.86,-3.76,-7.05
8.421239018440247,2,3,3,2,-6.29,0.25,2.95,-5.9,-1.38,-9.539999999999999
8.431239008903503,2,3,3,2,-5.63,0.39,2.05,-4.28,1.2,-11.54
8.44123899936676,2,3,3,2,-5.57,-0.75,0.76,-3.28,3.38,-12.78
8.451238989830017,2,3,3,2,-5.35,-1.59,0.5,-2.91,4.41,-13.43
8.461238980293274,2,3,3,2,-5.36,-2.44,0.26,-2.85,4.86,-13.67
8.471238970756531,2,3,3,2,-5.65,-3.1,-0.37,-2.74,5.03,-13.21
8.481238961219788,2,3,3,2,-5.96,-3.51,-1.14,-2.71,4.91,-11.78
8.491238951683044,2,3,3,2,-5.49,-3.29,-1.08,-2.69,4.17,-9.800000000000001
8.501238942146301,2,3,3,2,-5,-3.12,-1.02,-2.64,3.14,-7.88
8.511238932609558,2,3,3,2,-4.67,-3.01,-0.91,-2.15,2.1,-6.4
8.521238923072815,2,3,3,2,-4.3,-2.99,-0.61,-1.43,1.04,-5.4
8.531238913536072,2,3,3,2,-4.38,-3.08,-0.37,-0.78,0.16,-4.75
8.541238903999329,2,3,3,2,-4.76,-3.12,-0.07000000000000001,-0.2,-0.62,-4.07
8.551239132881165,2,3,3,2,-5.28,-3.08,0.34,0.4,-1.36,-3.25
8.561239123344421,2,3,3,2,-6.45,-2.78,0.93,0.96,-1.8,-2.28
8.571239113807678,2,3,3,2,-7.25,-2.49,1.18,1.49,-1.88,-1.21
8.581239104270935,2,3,3,2,-8.19,-2.07,1.46,2.19,-1.56,0.18
8.591239094734192,2,3,3,2,-10.33,-1.65,2.46,2.86,-1.02,1.7
8.601239085197449,2,3,3,2,-11.34,-1.64,2.84,3.38,-0.4,3.14
8.611239075660706,2,3,3,2,-12.46,-1.45,2.85,3.88,0.27,4.4
8.621239066123962,2,3,3,2,-13.68,-1.03,2.6,3.79,0.86,5.18
8.631239056587219,2,3,3,2,-14.97,-0.13,2.03,2.79,0.97,5.03
8.641239047050476,2,3,3,2,-14.45,0.15,1.71,1.52,0.77,3.71
8.651239037513733,2,3,3,2,-13.18,0.3,1.3,0.74,0.65,1.27
8.66123902797699,2,3,3,2,-11.53,0.45,1.13,0.77,0.74,-1.54
8.671239018440247,2,3,3,2,-9.59,0.23,0.73,1.27,1.22,-3.41
8.681239008903503,2,3,3,2,-8.69,-0.08,0.55,1.51,1.33,-4.09
8.69123899936676,2,3,3,2,-8.09,-0.37,0.55,1.3,1.09,-3.86
8.701238989830017,2,3,3,2,-7.65,-0.79,0.61,0.9,0.57,-3.16
8.711238980293274,2,3,3,2,-7.31,-1.28,0.71,0.31,-0.07000000000000001,-2.25
8.721238970756531,2,3,3,2,-7.53,-1.15,0.82,-0.38,-0.5600000000000001,-1.26
8.731238961219788,2,3,3,2,-7.79,-1.13,0.88,-0.54,-0.98,-0.44
8.741238951683044,2,3,3,2,-8.109999999999999,-1.05,0.9,-0.21,-1.25,0.32
8.751238942146301,2,3,3,2,-8.789999999999999,-0.8,1.16,0.35,-1.35,1.15
8.761238932609558,2,3,3,2,-9.1,-0.78,1.29,1,-1.43,1.84
8.771238923072815,2,3,3,2,-9.44,-0.68,1.32,1.44,-1.51,2.32
8.781238913536072,2,3,3,2,-10.01,-0.21,1.31,1.52,-1.48,2.52
8.791238903999329,2,3,3,2,-10.2,-0.05,1.44,1.32,-1.4,2.44
8.801239132881165,2,3,3,2,-10.36,0.12,1.47,0.96,-1.02,2.14
8.811239123344421,2,3,3,2,-10.53,0.26,1.43,0.41,-0.31,1.65
8.821239113807678,2,3,3,2,-10.72,0.23,1.27,-0.2,0.44,1
8.831239104270935,2,3,3,2,-10.72,0.1,1.17,-0.64,1.01,0.34
8.841239094734192,2,3,3,2,-10.56,0.03,1.17,-0.92,1.33,-0.24
8.851239085197449,2,3,3,2,-10.28,0.04,1.12,-1.14,1.38,-0.76
8.861239075660706,2,3,3,2,-9.789999999999999,0.07000000000000001,1.07,-1.34,1.28,-0.99
8.871239066123962,2,3,3,2,-9.539999999999999,0.03,1.07,-1.5,0.9399999999999999,-0.99
8.881239056587219,2,3,3,2,-9.32,0.02,1.11,-1.52,0.44,-0.79
8.891239047050476,2,3,3,2,-9.109999999999999,0,1.15,-1.49,-0.01,-0.51
8.901239037513733,2,3,3,2,-9.09,0,1.17,-1.41,-0.36,-0.21
8.91123902797699,2,3,3,2,-9.17,-0.04,1.17,-1.35,-0.68,0.03
8.921239018440247,2,3,3,2,-9.279999999999999,-0.09,1.17,-1.3,-0.96,0.23
8.931239008903503,2,3,3,2,-9.449999999999999,-0.08,1.04,-1.22,-1.17,0.28
8.94123899936676,2,3,3,2,-9.58,0,1.19,-1.02,-1.22,0.31
8.951238989830017,2,3,3,2,-9.67,-0.03,1.3,-0.85,-1.16,0.28
8.961238980293274,2,3,3,2,-9.69,-0.04,1.39,-0.73,-0.89,0.21
8.971238970756531,2,3,3,2,-9.800000000000001,-0.08,1.36,-0.67,-0.62,0.04
8.981238961219788,2,3,3,2,-9.800000000000001,-0.09,1.3,-0.7,-0.46,-0.17
8.991238951683044,2,3,3,2,-9.83,-0.15,1.31,-0.82,-0.3,-0.39
9.001238942146301,2,3,3,2,-9.85,-0.21,1.35,-0.93,-0.17,-0.55
9.012239098548889,2,3,3,3,-9.81,-0.46,1.37,-1.04,-0.19,-0.71
9.022239089012146,2,3,3,3,-9.77,-0.61,1.35,-1.02,-0.17,-0.85
9.032239079475403,2,3,3,3,-9.699999999999999,-0.72,1.25,-0.91,-0.26,-1
9.04223906993866,2,3,3,3,-9.59,-0.8100000000000001,1.22,-0.7,-0.35,-1.15
9.07223904132843,2,3,3,3,-9.56,-0.96,1.3,0.03,-0.43,-1.03
9.082239031791687,2,3,3,3,-9.609999999999999,-0.93,1.2,0.28,-0.38,-0.87
9.092239022254944,2,3,3,3,-9.68,-0.86,1.23,0.55,-0.4,-0.67
9.102239012718201,2,3,3,3,-9.67,-0.85,1.23,0.72,-0.37,-0.44
9.112239003181458,2,3,3,3,-9.640000000000001,-0.8100000000000001,1.25,0.87,-0.38,-0.28
9.122238993644714,2,3,3,3,-9.51,-0.75,1.36,1.03,-0.39,-0.17
9.132238984107971,2,3,3,3,-9.49,-0.78,1.27,1.16,-0.39,-0.06
9.142238974571228,2,3,3,3,-9.470000000000001,-0.78,1.33,1.08,-0.23,0
9.152238965034485,2,3,3,3,-9.43,-0.73,1.32,0.73,-0.15,0.07000000000000001
9.162238955497742,2,3,3,3,-9.49,-0.6899999999999999,1.24,0.36,-0.06,0.13
9.172238945960999,2,3,3,3,-9.470000000000001,-0.64,1.2,0,0.07000000000000001,0.2
9.182238936424255,2,3,3,3,-9.43,-0.5600000000000001,1.17,-0.25,0.19,0.21
9.192238926887512,2,3,3,3,-9.35,-0.52,1.4,-0.35,0.38,0.14
9.202238917350769,2,3,3,3,-9.25,-0.61,1.76,-0.41,0.68,0.05
9.212238907814026,2,3,3,3,-9.17,-0.66,1.78,-0.5600000000000001,0.95,-0.07000000000000001
9.222238898277283,2,3,3,3,-9.119999999999999,-0.59,1.51,-1.1,1.3,-0.09
9.232239127159119,2,3,3,3,-9.17,-0.55,1.16,-1.45,2.03,-0.18
9.242239117622375,2,3,3,3,-9.039999999999999,-0.87,0.8,-1.24,2.56,-0.43
9.252239108085632,2,3,3,3,-8.779999999999999,-1.15,0.67,-0.58,2.86,-0.64
9.262239098548889,2,3,3,3,-8.460000000000001,-1.43,0.64,-0.13,2.98,-0.67
9.272239089012146,2,3,3,3,-8.300000000000001,-1.61,0.72,-0.41,3.26,-0.45
9.282239079475403,2,3,3,3,-8.08,-1.72,0.87,-1,3.47,-0.17
9.29223906993866,2,3,3,3,-8.050000000000001,-1.77,0.92,-1.64,3.57,0.03
9.302239060401917,2,3,3,3,-8.029999999999999,-1.85,0.92,-1.99,3.57,0.26
9.312239050865173,2,3,3,3,-7.78,-1.97,0.67,-2.11,3.33,0.47
9.32223904132843,2,3,3,3,-7.52,-2.05,0.6,-2.15,2.88,0.68
9.332239031791687,2,3,3,3,-7.19,-2.18,0.55,-2.21,2.32,0.92
9.342239022254944,2,3,3,3,-6.9,-2.31,0.52,-2.32,1.68,1.05
9.372238993644714,2,3,3,3,-5.62,-2.01,0.39,-1.83,-0.92,0.84
9.382238984107971,2,3,3,3,-5.4,-1.88,-0.1,-1.46,-1.98,0.7
9.392238974571228,2,3,3,3,-4.66,-1.53,-0.08,-1.25,-3.2,0.35
9.402238965034485,2,3,3,3,-4.79,-1.48,0.31,-0.61,-3.73,0.26
9.412238955497742,2,3,3,3,-4.89,-1.46,0.48,0.41,-3.59,0.75
9.422238945960999,2,3,3,3,-5.31,-1.4,0.44,1.32,-3.8,1.74
9.432238936424255,2,3,3,3,-6.45,-1.17,0.01,1.65,-4.26,2.91
9.442238926887512,2,3,3,3,-7.44,-1.01,0.29,1.66,-4.44,4.06
9.452238917350769,2,3,3,3,-8.68,-0.8100000000000001,0.98,1.79,-4.08,5.11
9.462238907814026,2,3,3,3,-10.83,-0.2,2.09,2.61,-3.28,6
9.472238898277283,2,3,3,3,-11.92,0.15,1.98,4.14,-2.07,6.45
9.482239127159119,2,3,3,3,-12.85,0.55,1.62,4.97,-0.52,6.57
9.492239117622375,2,3,3,3,-13.82,0.72,1.57,4.73,0.9,6.24
9.502239108085632,2,3,3,3,-14.52,0.54,2.08,4.36,1.52,5.52
9.512239098548889,2,3,3,3,-14.63,0.45,1.32,2.89,0.68,4.83
9.522239089012146,2,3,3,3,-15.12,0.5600000000000001,1.86,2.62,0.44,4.49
9.532239079475403,2,3,3,3,-15.25,0.85,1.53,2.19,0.49,4.76
9.54223906993866,2,3,3,3,-17.01,2.92,1.29,0.15,0.6899999999999999,5.36
9.552239060401917,2,3,3,3,-18.25,3.83,1.46,-0.59,0.42,5.44
9.562239050865173,2,3,3,3,-20.21,4.67,1.06,0.25,0.45,4.82
9.57223904132843,2,3,3,3,-22.13,5.21,1.4,0.57,1.46,3.78
9.582239031791687,2,3,3,3,-26.1,6.67,2.16,0.95,2.27,2.78
9.592239022254944,2,3,3,3,-27.72,7.34,2.43,1.54,2.35,1.56
9.612239003181458,2,3,3,3,-29.28,8.19,2.92,1,1.04,-1.98
9.622238993644714,2,3,3,3,-30.32,8.050000000000001,3.4,0.04,0.7,-3.64
9.632238984107971,2,3,3,3,-29.53,7.44,3.2,-1.07,-0.41,-5.08
9.642238974571228,2,3,3,3,-28.26,6.21,3.28,-2.73,-1.69,-6.53
9.652238965034485,2,3,3,3,-24.84,1.98,3.83,-4.66,-2.4,-8.210000000000001
9.662238955497742,2,3,3,3,-22.52,-0.19,3.63,-6.11,-1.67,-9.25
9.672238945960999,2,3,3,3,-19.35,-1.93,3.08,-6.84,-0.64,-9.42
9.682238936424255,2,3,3,3,-15.67,-2.83,2.26,-6.52,0.38,-9.02
9.692238926887512,2,3,3,3,-9.51,-2.97,0.39,-5.44,1.67,-8.5
9.702238917350769,2,3,3,3,-6.53,-3.11,-0.27,-5.27,1.97,-8.130000000000001
9.712238907814026,2,3,3,3,-4.02,-3.17,-0.66,-5.49,2.32,-7.57
9.722238898277283,2,3,3,3,-1.46,-3.28,-0.43,-6.18,3.54,-6.57
9.732239127159119,2,3,3,3,2.79,-4.01,-0.53,-5.93,4.63,-5.4
9.742239117622375,2,3,3,3,4.45,-4.06,-0.07000000000000001,-4.27,5.03,-4.92
9.752239108085632,2,3,3,3,6.21,-4.38,-0.04,-2.59,3.78,-4.96
9.762239098548889,2,3,3,3,7.8,-4.84,0.08,-1.78,1.95,-4.79
9.772239089012146,2,3,3,3,6.8,-5.01,-0.22,-1.34,0.73,-4.54
9.782239079475403,2,3,3,3,5.43,-4.69,-0.78,0.15,0.5,-3.85
9.79223906993866,2,3,3,3,3.66,-3.73,-1.03,1.08,0.68,-1.79
9.802239060401917,2,3,3,3,0.49,-2.47,-1.04,1.19,1.12,1.6
9.812239050865173,2,3,3,3,-0.8100000000000001,-2.23,-0.93,1.14,0.98,4.85
9.82223904132843,2,3,3,3,-1.73,-1.59,-0.49,1.49,0.52,7.2
9.832239031791687,2,3,3,3,-2.11,-0.95,-0.21,2.67,-0.64,8.51
9.842239022254944,2,3,3,3,-2.14,-0.32,-0.04,4.1,-2.08,8.85
9.852239012718201,2,3,3,3,-1.76,-0.19,-0.15,4.57,-3.11,8.77
9.862239003181458,2,3,3,3,-1.57,0.09,-0.15,3.75,-3.64,7.64
9.872238993644714,2,3,3,3,-1.33,0.51,-0.17,3.75,-3.64,7.64
9.882238984107971,2,3,3,3,-1.15,0.73,-0.33,3.53,-3.38,6.14
9.892238974571228,2,3,3,3,-1.26,0.89,-0.07000000000000001,3.51,-2.19,4.35
9.902238965034485,2,3,3,3,-1.26,1.1,0.16,3.21,-1,2.61
9.912238955497742,2,3,3,3,-1.16,1.23,0.54,2.2,0.84,-0.54
9.922238945960999,2,3,3,3,-0.74,0.67,0.5,2.2,0.84,-0.54
9.932238936424255,2,3,3,3,-0.64,0.51,0.22,1.25,2.35,-2.26
9.942238926887512,2,3,3,3,-0.59,0.33,0.11,1.03,2.56,-2.59
9.952238917350769,2,3,3,3,-0.42,0.03,0.18,1.04,2.33,-2.46
9.962238907814026,2,3,3,3,-0.16,-0.66,0.61,1.2,1.81,-1.88
9.972238898277283,2,3,3,3,0,-1.22,1.2,1.65,1,-0.76
9.982239127159119,2,3,3,3,0.4,-1.99,1.51,2.17,0.29,0.74
9.992239117622375,2,3,3,3,0.51,-3.02,1.6,2.53,-0.16,2.42
10.00223910808563,2,3,3,3,0.67,-3.18,1.05,2.92,-0.3,4.44
10.01323902606964,2,3,3,3,0.67,-3.18,1.05,2.98,0.42,6.64
10.02223908901215,2,3,3,3,1,-3.25,0.65,1.94,1.65,8.779999999999999
10.0322390794754,2,3,3,3,1.35,-1.52,0.44,0.5,2.46,10.69
10.04323899745941,2,3,3,3,1.18,-1.01,0.88,-0.44,2.21,12.2
10.05323898792267,2,3,3,3,-0.31,-0.82,1.65,-0.76,1.08,14.5
10.06323897838593,2,3,3,3,-0.31,-0.82,1.65,-4.93,-2.31,17.15
10.07323896884918,2,3,3,3,-10.37,1.91,0.58,-6.48,-7.77,20.34
10.08323895931244,2,3,3,3,-17.39,2.16,-0.38,-4.41,-16.11,22.6
10.0932389497757,2,3,3,3,-30.92,2.93,4,1.33,-15.88,24.43
10.10323894023895,2,3,3,3,-39.17,5.56,7.05,0.72,-12.2,19.39
10.11323893070221,2,3,3,3,-39.17,5.56,7.05,0.72,-12.2,19.39
10.12323892116547,2,3,3,3,-38.83,14.59,6.39,-5.06,-1.84,10.2
10.13323891162872,2,3,3,3,-22.22,4.84,4.54,-8.52,2.11,-1.61
10.14323890209198,2,3,3,3,-21.94,2.45,3.18,-10.12,4.53,-1.98
10.15323913097382,2,3,3,3,-21.13,1.74,1.92,-10.37,4.61,-2.11
10.16323912143707,2,3,3,3,-21.13,1.74,1.92,-10.37,4.61,-2.11
10.17323911190033,2,3,3,3,-22.37,2.06,1.53,-6.88,2.87,-1.29
10.18323910236359,2,3,3,3,-22.01,2.1,1.11,-4.75,0.95,-1.32
10.19323909282684,2,3,3,3,-19.87,1.6,2.17,-2.95,-0.8,-2.43
10.2032390832901,2,3,3,3,-17.85,0.9399999999999999,2.36,-1.67,-1.05,-4.12
10.21323907375336,2,3,3,3,-17.85,0.9399999999999999,2.36,-1.67,-1.05,-4.12
10.22323906421661,2,3,3,3,-15.83,0.63,2.29,-0.47,-0.17,-5.95
10.23323905467987,2,3,3,3,-11.17,0.98,1.52,2.07,1.89,-9.789999999999999
10.24323904514313,2,3,3,3,-9.800000000000001,1.09,1.31,3.02,2.72,-11.42
10.25323903560638,2,3,3,3,-9.800000000000001,1.09,1.31,3.38,3.4,-12.69
10.26323902606964,2,3,3,3,-8.390000000000001,1.12,1.27,3.38,3.4,-12.69
10.2732390165329,2,3,3,3,-6.46,0.93,0.65,3.33,3.87,-13.3
10.28323900699615,2,3,3,3,-5.61,0.72,0.62,2.3,4.16,-12.93
10.29323899745941,2,3,3,3,-4.99,0.43,0.5600000000000001,1.63,4.2,-12.11
10.30323898792267,2,3,3,3,-4.38,-0.01,0.42,0.67,4.07,-11.1
10.31323897838593,2,3,3,3,-3.77,-0.37,0.21,0.67,4.07,-11.1
10.32323896884918,2,3,3,3,-3.53,-0.5,0.13,-0.26,3.63,-9.880000000000001
10.33323895931244,2,3,3,3,-3.52,-0.76,0.07000000000000001,-1.64,2.56,-7.29
10.3432389497757,2,3,3,3,-3.82,-1.4,0.17,-1.78,1.84,-5.89
10.35323894023895,2,3,3,3,-4.1,-1.85,0.31,-1.65,1.15,-4.54
10.36323893070221,2,3,3,3,-4.52,-2.24,-0.05,-1.65,1.15,-4.54
10.37323892116547,2,3,3,3,-5.35,-2.46,-0.21,-1.27,0.33,-3.18
10.38323891162872,2,3,3,3,-7.44,-2.95,-0.41,-0.47,-2.07,-0.65
10.39323890209198,2,3,3,3,-8.720000000000001,-3.18,-0.24,0.04,-3.47,0.65
10.40323913097382,2,3,3,3,-9.890000000000001,-3.29,0.04,0.32,-4.66,1.9
10.41323912143707,2,3,3,3,-11.05,-3.26,0.33,0.32,-4.66,1.9
10.42323911190033,2,3,3,3,-12.44,-2.95,0.85,0.78,-5.49,3.01
10.43323910236359,2,3,3,3,-12.55,-2.74,1.26,2.79,-5.22,3.83
10.44323909282684,2,3,3,3,-12.12,-2.4,1.57,3.71,-3.83,3.49
10.4532390832901,2,3,3,3,-11.39,-2.03,1.85,4.39,-1.91,2.86
10.48323905467987,2,3,3,3,-9.73,-0.06,1.58,4.51,2.85,0.02
10.49323904514313,2,3,3,3,-9.69,0.67,1.06,4.37,3.43,-0.89
10.50323903560638,2,3,3,3,-9.77,0.9,0.88,4.1,3.2,-1.66
10.51323902606964,2,3,3,3,-9.94,1.15,0.78,4.1,3.2,-1.66
10.5232390165329,2,3,3,3,-9.99,1.34,0.63,3.77,2.55,-2.2
10.53323900699615,2,3,3,3,-9.69,1.44,0.53,2.54,0.91,-2.51
10.54323899745941,2,3,3,3,-9.48,1.46,0.5600000000000001,1.71,0.09,-2.26
10.55323898792267,2,3,3,3,-9.32,1.39,0.6,0.78,-0.59,-1.82
10.56323897838593,2,3,3,3,-9.24,1.23,0.64,0.78,-0.59,-1.82
10.57323896884918,2,3,3,3,-9.210000000000001,0.6899999999999999,0.78,0.05,-1.1,-1.34
10.58323895931244,2,3,3,3,-9.199999999999999,0.44,0.75,-1.01,-1.59,-0.45
10.5932389497757,2,3,3,3,-9.24,0.25,0.65,-1.27,-1.58,-0.12
10.60323894023895,2,3,3,3,-9.27,0.16,0.83,-1.36,-1.48,0.04
10.61323893070221,2,3,3,3,-9.33,-0.15,1.26,-1.36,-1.48,0.04
10.62323892116547,2,3,3,3,-9.380000000000001,-0.34,1.33,-1.32,-1.18,0.06
10.63323891162872,2,3,3,3,-9.4,-0.47,1.38,-1.22,-0.45,0.01
10.64323890209198,2,3,3,3,-9.380000000000001,-0.58,1.31,-1.31,-0.09,0.13
10.65323913097382,2,3,3,3,-9.359999999999999,-0.82,1.33,-1.47,0.22,0.29
10.66323912143707,2,3,3,3,-9.390000000000001,-0.89,1.29,-1.47,0.22,0.29
10.67323911190033,2,3,3,3,-9.460000000000001,-0.88,1.25,-1.82,0.52,0.51
10.68323910236359,2,3,3,3,-9.630000000000001,-0.75,1.05,-1.58,0.74,0.88
10.69323909282684,2,3,3,3,-9.68,-0.6899999999999999,0.83,-1.19,0.64,0.98
10.7032390832901,2,3,3,3,-9.699999999999999,-0.63,0.74,-0.85,0.53,1.03
10.71323907375336,2,3,3,3,-9.68,-0.59,0.73,-0.85,0.53,1.03
10.72323906421661,2,3,3,3,-9.609999999999999,-0.45,0.75,-0.53,0.48,1.11
10.73323905467987,2,3,3,3,-9.59,-0.42,0.72,-0.29,0.5,1.16
10.74323904514313,2,3,3,3,-9.59,-0.4,0.62,0.03,0.47,1.27
10.75323903560638,2,3,3,3,-9.57,-0.38,0.67,0.31,0.44,1.23
10.76323902606964,2,3,3,3,-9.67,-0.32,0.74,0.59,0.45,1.2
10.7732390165329,2,3,3,3,-9.74,-0.29,0.8100000000000001,0.9,0.39,1.14
10.78323900699615,2,3,3,3,-9.779999999999999,-0.21,0.84,1.17,0.38,1.06
10.79323899745941,2,3,3,3,-9.75,-0.18,0.88,1.35,0.28,0.96
10.80323898792267,2,3,3,3,-9.75,-0.05,1.04,1.37,0.24,0.84
10.81323897838593,2,3,3,3,-9.779999999999999,-0.01,1.1,1.27,0.27,0.71
10.82323896884918,2,3,3,3,-9.75,-0.01,1.17,1.12,0.23,0.54
10.83323895931244,2,3,3,3,-9.77,0,1.23,0.96,0.21,0.35
10.8432389497757,2,3,3,3,-9.77,0,1.16,0.8100000000000001,0.13,0.13
10.85323894023895,2,3,3,3,-9.73,-0.02,1.17,0.63,0.17,-0.06
10.86323893070221,2,3,3,3,-9.68,-0.1,1.23,0.47,0.11,-0.23
10.87323892116547,2,3,3,3,-9.66,-0.2,1.17,0.41,0.12,-0.27
10.90323913097382,2,3,3,3,-9.720000000000001,-0.25,1,0.48,0.07000000000000001,-0.04
10.91323912143707,2,3,3,3,-9.74,-0.3,0.97,0.41,0.01,0.12
10.92323911190033,2,3,3,3,-9.720000000000001,-0.28,0.95,0.31,-0.05,0.29
10.93323910236359,2,3,3,3,-9.66,-0.28,0.9399999999999999,0.29,-0.03,0.45
10.94323909282684,2,3,3,3,-9.59,-0.25,0.85,0.3,-0.04,0.58
10.9532390832901,2,3,3,3,-9.44,-0.22,0.9399999999999999,0.22,0.02,0.7
10.96323907375336,2,3,3,3,-9.470000000000001,-0.17,1.02,0.09,0.06,0.78
10.97323906421661,2,3,3,3,-9.49,-0.12,1.09,-0.06,0.08,0.84
10.98323905467987,2,3,3,3,-9.58,-0.05,1.11,-0.25,0.02,0.87
10.99323904514313,2,3,3,3,-9.710000000000001,-0.08,1.11,-0.47,-0.09,0.88
11.00323903560638,2,3,3,3,-9.74,-0.12,1.15,-0.5600000000000001,-0.14,0.78
11.01323902606964,2,3,3,3,-9.81,-0.16,1.13,-0.59,-0.16,0.67
11.0232390165329,2,3,3,3,-9.859999999999999,-0.21,1.03,-0.64,-0.23,0.54
11.05323898792267,2,3,3,3,-9.699999999999999,-0.12,0.89,-0.5,-0.21,0.31
11.06423890590668,2,3,3,3,-9.57,-0.25,1.07,-0.4,-0.27,0.21
11.07423889636993,2,3,3,3,-9.5,-0.34,1.1,-0.31,-0.31,0.09
11.08423912525177,2,3,3,3,-9.52,-0.39,1.11,-0.26,-0.27,0.02
11.09423911571503,2,3,3,3,-9.57,-0.4,0.98,-0.14,-0.28,0.01
11.10423910617828,2,3,3,3,-9.73,-0.39,1.01,0.03,-0.19,0.04
11.11423909664154,2,3,3,3,-9.77,-0.4,1.03,0.21,-0.18,0.02
11.1242390871048,2,3,3,3,-9.81,-0.37,1.06,0.49,-0.17,0
11.13423907756805,2,3,3,3,-9.81,-0.34,1.1,0.72,-0.17,-0.02
11.14423906803131,2,3,3,3,-9.81,-0.31,1.08,0.79,-0.14,-0.07000000000000001
11.15423905849457,2,3,3,3,-9.76,-0.31,1.17,0.85,-0.14,-0.04
11.16423904895782,2,3,3,3,-9.74,-0.31,1.17,0.82,-0.16,-0.1
11.17423903942108,2,3,3,3,-9.68,-0.23,1.22,0.7,-0.2,-0.16
11.18423902988434,2,3,3,3,-9.66,-0.2,1.2,0.54,-0.16,-0.22
11.1942390203476,2,3,3,3,-9.640000000000001,-0.16,1.15,0.46,-0.14,-0.34
11.20423901081085,2,3,3,3,-9.630000000000001,-0.13,1.16,0.33,-0.14,-0.38
11.21423900127411,2,3,3,3,-9.66,-0.11,1.17,0.22,-0.17,-0.48
11.22423899173737,2,3,3,3,-9.68,-0.09,1.19,0.09,-0.15,-0.51
11.23423898220062,2,3,3,3,-9.73,-0.06,1.16,-0.11,-0.19,-0.49
11.24423897266388,2,3,3,3,-9.74,-0.1,1.12,-0.18,-0.2,-0.47
11.26423895359039,2,3,3,3,-9.609999999999999,-0.13,1.3,-0.21,-0.26,-0.4
11.27423894405365,2,3,3,3,-9.6,-0.05,1.3,-0.21,-0.27,-0.35
11.28423893451691,2,3,3,3,-9.609999999999999,-0.04,1.33,-0.2,-0.24,-0.36
11.29423892498016,2,3,3,3,-9.6,-0.09,1.25,-0.21,-0.18,-0.32
11.30423891544342,2,3,3,3,-9.630000000000001,-0.12,1.28,-0.22,-0.14,-0.3
11.31423890590668,2,3,3,3,-9.619999999999999,-0.16,1.31,-0.29,-0.1,-0.33
11.32423889636993,2,3,3,3,-9.630000000000001,-0.18,1.32,-0.37,-0.15,-0.35
11.33423912525177,2,3,3,3,-9.630000000000001,-0.23,1.2,-0.3,-0.14,-0.33
11.34423911571503,2,3,3,3,-9.67,-0.21,1.24,-0.25,-0.1,-0.26
11.35423910617828,2,3,3,3,-9.609999999999999,-0.17,1.21,-0.04,-0.08,-0.16
11.36423909664154,2,3,3,3,-9.609999999999999,-0.33,1.1,0.12,0.09,-0.06
11.3742390871048,2,3,3,3,-9.58,-0.29,1.25,0.08,0.11,0.02
11.38423907756805,2,3,3,3,-9.56,-0.18,1.31,-0.04,0.04,0.11
11.39423906803131,2,3,3,3,-9.56,-0.14,1.34,0.12,0.05,0.23
11.40423905849457,2,3,3,3,-9.630000000000001,-0.28,1.39,0.45,0.13,0.44
11.41423904895782,2,3,3,3,-9.67,-0.35,1.43,0.83,0.18,0.64
11.42423903942108,2,3,3,3,-9.6,-0.47,1.34,1.16,0.01,0.89
11.43423902988434,2,3,3,3,-9.539999999999999,-0.55,1.06,1.09,0.06,1.09
11.4442390203476,2,3,3,3,-9.59,-0.49,0.75,1.02,0.3,1.08
11.45423901081085,2,3,3,3,-9.609999999999999,-0.44,0.79,1.07,0.44,1.01
11.46423900127411,2,3,3,3,-9.67,-0.31,0.89,1.13,0.48,0.97
11.47423899173737,2,3,3,3,-9.73,-0.24,0.91,1.24,0.6,0.98
11.48423898220062,2,3,3,3,-9.85,-0.27,0.82,1.21,0.54,0.91
11.50423896312714,2,3,3,3,-9.869999999999999,-0.23,0.86,0.5600000000000001,0.24,0.59
11.51423895359039,2,3,3,3,-9.779999999999999,-0.16,0.91,0.42,0.15,0.47
11.53423893451691,2,3,3,3,-9.720000000000001,-0.14,0.89,0.19,-0.04,0.24
11.54423892498016,2,3,3,3,-9.699999999999999,-0.13,0.78,0.15,-0.1,0.14
11.55423891544342,2,3,3,3,-9.66,-0.15,0.84,0.13,-0.15,0.08
11.56423890590668,2,3,3,3,-9.619999999999999,-0.14,0.9,0.13,-0.14,0.02
11.57423889636993,2,3,3,3,-9.619999999999999,-0.1,1.01,0.17,-0.09,0.04
11.58423912525177,2,3,3,3,-9.6,-0.06,0.97,0.22,-0.09,0.09
11.59423911571503,2,3,3,3,-9.640000000000001,0.02,0.85,0.2,-0.07000000000000001,0.18
11.60423910617828,2,3,3,3,-9.630000000000001,0.03,0.88,0.16,-0.09,0.32
11.61423909664154,2,3,3,3,-9.66,0.05,0.9399999999999999,0.08,-0.06,0.37
11.6242390871048,2,3,3,3,-9.68,0.09,1.01,-0.04,-0.04,0.45
11.63423907756805,2,3,3,3,-9.69,0.07000000000000001,0.97,-0.22,-0.04,0.49
11.64423906803131,2,3,3,3,-9.69,0.03,0.95,-0.33,0,0.51
11.65423905849457,2,3,3,3,-9.699999999999999,-0.01,0.95,-0.41,0.01,0.49
11.66423904895782,2,3,3,3,-9.69,-0.04,0.98,-0.47,0.04,0.43
11.67423903942108,2,3,3,3,-9.69,-0.08,1,-0.5,0.08,0.43
11.68423902988434,2,3,3,3,-9.68,-0.1,1.04,-0.59,0.04,0.42
11.6942390203476,2,3,3,3,-9.640000000000001,-0.09,0.93,-0.6,0.06,0.39
11.70423901081085,2,3,3,3,-9.66,-0.1,0.97,-0.57,0.02,0.38
11.71423900127411,2,3,3,3,-9.69,-0.16,1,-0.53,0.05,0.35
11.72423899173737,2,3,3,3,-9.68,-0.15,1.04,-0.51,0.04,0.34
11.73423898220062,2,3,3,3,-9.710000000000001,-0.18,1.03,-0.49,-0.01,0.34
11.74423897266388,2,3,3,3,-9.710000000000001,-0.17,0.93,-0.48,-0.05,0.24
11.75423896312714,2,3,3,3,-9.699999999999999,-0.17,1,-0.37,-0.05,0.23
11.76423895359039,2,3,3,3,-9.720000000000001,-0.19,1.07,-0.32,-0.03,0.2
11.77423894405365,2,3,3,3,-9.699999999999999,-0.21,1.14,-0.23,-0.04,0.2
11.78423893451691,2,3,3,3,-9.66,-0.17,1.13,-0.22,-0.02,0.22
11.79423892498016,2,3,3,3,-9.65,-0.13,1.03,-0.25,0,0.23
11.80423891544342,2,3,3,3,-9.65,-0.04,1.08,-0.25,0.02,0.3
11.81423890590668,2,3,3,3,-9.67,0,1.14,-0.21,0.05,0.29
11.82423889636993,2,3,3,3,-9.699999999999999,0.05,1.04,-0.05,0.06,0.31
11.83423912525177,2,3,3,3,-9.73,0.06,1,0.04,0.1,0.28
11.84423911571503,2,3,3,3,-9.77,0.09,0.96,0.09,0.1,0.22
11.85423910617828,2,3,3,3,-9.73,0.14,1.02,0.04,0.05,0.18
11.86423909664154,2,3,3,3,-9.710000000000001,0.15,1.05,-0.12,-0.01,0.17
11.8742390871048,2,3,3,3,-9.710000000000001,0.17,1.04,-0.31,-0.06,0.11
11.88423907756805,2,3,3,3,-9.710000000000001,0.13,1.03,-0.47,-0.11,0.03
11.89423906803131,2,3,3,3,-9.710000000000001,0.08,0.9399999999999999,-0.5600000000000001,-0.16,-0.05
11.90423905849457,2,3,3,3,-9.710000000000001,0.03,1.01,-0.55,-0.18,-0.09
11.91423904895782,2,3,3,3,-9.67,0.01,1.05,-0.54,-0.19,-0.14
11.92423903942108,2,3,3,3,-9.68,-0.01,1.05,-0.49,-0.2,-0.17
11.93423902988434,2,3,3,3,-9.68,-0.01,1.03,-0.4,-0.16,-0.18
11.9442390203476,2,3,3,3,-9.65,-0.04,1.05,-0.41,-0.18,-0.19
11.95423901081085,2,3,3,3,-9.640000000000001,-0.08,1.01,-0.41,-0.16,-0.13
11.96423900127411,2,3,3,3,-9.65,-0.07000000000000001,1.05,-0.45,-0.16,-0.06
11.97423899173737,2,3,3,3,-9.68,-0.05,1.09,-0.42,-0.16,-0.01
11.98423898220062,2,3,3,3,-9.67,-0.06,1.05,-0.42,-0.14,0.02
11.99423897266388,2,3,3,3,-9.66,-0.06,0.98,-0.37,-0.14,0.04
12.00423896312714,2,3,3,3,-9.619999999999999,-0.04,1.03,-0.33,-0.17,0.05
12.01423895359039,2,3,3,3,-9.609999999999999,-0.08,1.2,-0.24,-0.14,0.03
12.02423894405365,2,3,3,3,-9.619999999999999,-0.13,1.22,-0.18,-0.2,0.06
12.03423893451691,2,3,3,3,-9.65,-0.16,1.19,-0.23,-0.24,0.1
12.04423892498016,2,3,3,3,-9.69,-0.23,1.04,-0.18,-0.24,0.18
12.05423891544342,2,3,3,3,-9.699999999999999,-0.23,1.1,-0.05,-0.19,0.21
12.06423890590668,2,3,3,3,-9.69,-0.14,1.17,0.02,-0.14,0.24
12.07423889636993,2,3,3,3,-9.67,-0.11,1.17,0.23,-0.05,0.29
12.08423912525177,2,3,3,3,-9.609999999999999,-0.21,0.96,0.53,0.07000000000000001,0.32
12.09523904323578,2,3,3,3,-9.630000000000001,-0.17,0.93,0.61,0.09,0.28
12.10523903369904,2,3,3,3,-9.630000000000001,-0.1,1.03,0.48,0.02,0.22
12.11523902416229,2,3,3,3,-9.630000000000001,-0.04,1.09,0.41,0,0.15
12.12523901462555,2,3,3,3,-9.65,-0.02,1.13,0.49,0.02,0.12
12.13523900508881,2,3,3,3,-9.69,-0.06,1,0.55,0.02,0.1
12.14523899555206,2,3,3,3,-9.720000000000001,-0.07000000000000001,0.92,0.57,0.05,0.12
12.15523898601532,2,3,3,3,-9.74,-0.05,0.9399999999999999,0.48,0.02,0.06
12.16523897647858,2,3,3,3,-9.74,0.01,1.05,0.4,-0.05,0
12.17523896694183,2,3,3,3,-9.75,0,0.98,0.44,0.01,-0.05
12.18523895740509,2,3,3,3,-9.74,-0.05,1.06,0.51,0.04,-0.06
12.19523894786835,2,3,3,3,-9.65,-0.04,1.03,0.34,-0.02,-0.15
12.2052389383316,2,3,3,3,-9.640000000000001,-0.06,1.15,0.21,-0.04,-0.2
12.21523892879486,2,3,3,3,-9.630000000000001,-0.08,1.16,0.09,-0.04,-0.23
12.22523891925812,2,3,3,3,-9.630000000000001,-0.1,1.16,0.02,-0.02,-0.21
12.23523890972137,2,3,3,3,-9.65,-0.13,1.1,-0.05,0.06,-0.23
12.24523890018463,2,3,3,3,-9.65,-0.15,1,-0.18,0.01,-0.22
12.25523912906647,2,3,3,3,-9.68,-0.13,1.03,-0.25,0.03,-0.21
12.26523911952972,2,3,3,3,-9.69,-0.09,0.99,-0.35,0.03,-0.19
12.27523910999298,2,3,3,3,-9.69,-0.08,1.11,-0.46,0.01,-0.16
12.28523910045624,2,3,3,3,-9.68,-0.1,1.14,-0.53,0.02,-0.17
12.29523909091949,2,3,3,3,-9.67,-0.09,1.04,-0.51,0.02,-0.2
12.30523908138275,2,3,3,3,-9.68,-0.12,1.05,-0.48,0,-0.19
12.31523907184601,2,3,3,3,-9.720000000000001,-0.15,1.05,-0.38,0.02,-0.23
12.32523906230927,2,3,3,3,-9.710000000000001,-0.12,1,-0.25,-0.03,-0.22
12.33523905277252,2,3,3,3,-9.710000000000001,-0.12,1.02,-0.19,-0.02,-0.24
12.34523904323578,2,3,3,3,-9.699999999999999,-0.12,1,-0.12,-0.03,-0.26
12.35523903369904,2,3,3,3,-9.699999999999999,-0.16,1.06,-0.05,-0.06,-0.32
12.36523902416229,2,3,3,3,-9.69,-0.18,1.07,-0.04,-0.03,-0.4
12.37523901462555,2,3,3,3,-9.699999999999999,-0.19,1.06,-0.09,-0.04,-0.47
12.38523900508881,2,3,3,3,-9.67,-0.22,0.97,-0.16,-0.06,-0.53
12.39523899555206,2,3,3,3,-9.68,-0.22,0.97,-0.17,-0.07000000000000001,-0.57
12.40523898601532,2,3,3,3,-9.630000000000001,-0.21,1.06,-0.19,-0.07000000000000001,-0.6
12.41523897647858,2,3,3,3,-9.609999999999999,-0.19,1.13,-0.17,-0.02,-0.66
12.42523896694183,2,3,3,3,-9.529999999999999,-0.15,1.17,-0.21,0.08,-0.75
12.43523895740509,2,3,3,3,-9.52,-0.14,1.2,-0.21,0.08,-0.75
12.44523894786835,2,3,3,3,-9.51,-0.14,1.11,-0.28,0.14,-0.8
12.4552389383316,2,3,3,3,-9.539999999999999,-0.11,1.09,-0.49,0.27,-0.8
12.46523892879486,2,3,3,3,-9.65,-0.12,1.1,-0.6899999999999999,0.29,-0.66
12.47523891925812,2,3,3,3,-9.65,-0.12,1.1,-0.77,0.3,-0.54
12.48523890972137,2,3,3,3,-9.710000000000001,-0.12,1.16,-0.77,0.3,-0.54
12.49523890018463,2,3,3,3,-9.720000000000001,-0.16,1.08,-0.87,0.21,-0.45
12.50523912906647,2,3,3,3,-9.66,-0.2,1.17,-0.9,0.13,-0.3
12.51523911952972,2,3,3,3,-9.609999999999999,-0.17,1.23,-0.88,0.21,-0.22
12.52523910999298,2,3,3,3,-9.609999999999999,-0.17,1.23,-0.87,0.27,-0.17
12.53523910045624,2,3,3,3,-9.57,-0.19,1.28,-0.85,0.34,-0.14
12.54523909091949,2,3,3,3,-9.550000000000001,-0.16,1.23,-0.84,0.42,-0.14
12.55523908138275,2,3,3,3,-9.56,-0.16,1.28,-0.8100000000000001,0.44,-0.14
12.56523907184601,2,3,3,3,-9.6,-0.13,1.3,-0.8,0.49,-0.19
12.57523906230927,2,3,3,3,-9.6,-0.13,1.3,-0.8,0.49,-0.19
12.58523905277252,2,3,3,3,-9.76,-0.14,1.26,-0.75,0.5,-0.19
12.59523904323578,2,3,3,3,-9.93,-0.12,1.08,-0.68,0.31,-0.2
12.60523903369904,2,3,3,3,-9.960000000000001,-0.14,1.14,-0.6,0.19,-0.24
12.61523902416229,2,3,3,3,-9.84,-0.17,1.3,-0.37,0.09,-0.34
12.62523901462555,2,3,3,3,-9.84,-0.17,1.3,-0.37,0.09,-0.34
12.63523900508881,2,3,3,3,-9.720000000000001,-0.16,1.3,-0.13,0.04,-0.42
12.64523899555206,2,3,3,3,-9.56,-0.19,1.29,0.32,0.03,-0.72
12.65523898601532,2,3,3,3,-9.56,-0.19,1.29,0.53,0.11,-0.85
12.66523897647858,2,3,3,3,-9.529999999999999,-0.16,1.29,0.7,0.15,-0.95
12.67523896694183,2,3,3,3,-9.529999999999999,-0.16,1.32,0.7,0.15,-0.95
12.68523895740509,2,3,3,3,-9.51,-0.14,1.32,0.82,0.28,-1.04
12.69523894786835,2,3,3,3,-9.529999999999999,-0.08,1.35,0.97,0.47,-1.15
12.7052389383316,2,3,3,3,-9.58,0.03,1.21,0.86,0.54,-1.14
12.71523892879486,2,3,3,3,-9.59,0.12,1.25,0.77,0.51,-1.15
12.72523891925812,2,3,3,3,-9.609999999999999,0.17,1.3,0.77,0.51,-1.15
12.73523890972137,2,3,3,3,-9.57,0.3,1.4,0.61,0.51,-1.16
12.74523890018463,2,3,3,3,-9.56,0.32,1.42,0.36,0.37,-1.18
12.75523912906647,2,3,3,3,-9.550000000000001,0.36,1.33,0.31,0.35,-1.18
12.76523911952972,2,3,3,3,-9.529999999999999,0.37,1.33,0.22,0.32,-1.16
12.77523910999298,2,3,3,3,-9.52,0.33,1.39,0.22,0.32,-1.16
12.78523910045624,2,3,3,3,-9.52,0.3,1.42,0.12,0.32,-1.15
12.79523909091949,2,3,3,3,-9.5,0.24,1.48,-0.12,0.28,-1.1
12.80523908138275,2,3,3,3,-9.529999999999999,0.19,1.4,-0.16,0.2,-1.02
12.81523907184601,2,3,3,3,-9.529999999999999,0.08,1.56,-0.15,0.14,-0.88
12.82523906230927,2,3,3,3,-9.52,0,1.51,-0.15,0.14,-0.88
12.83523905277252,2,3,3,3,-9.49,-0.05,1.5,-0.22,0.14,-0.77
12.84523904323578,2,3,3,3,-9.470000000000001,-0.08,1.5,-0.17,0.15,-0.5
12.85523903369904,2,3,3,3,-9.460000000000001,-0.21,1.46,0.02,0.06,-0.34
12.86523902416229,2,3,3,3,-9.41,-0.28,1.51,0.12,0.08,-0.21
12.87523901462555,2,3,3,3,-9.369999999999999,-0.3,1.47,0.12,0.08,-0.21
12.88523900508881,2,3,3,3,-9.56,-0.35,1.55,0.57,0.08,-0.03
12.89523899555206,2,3,3,3,-9.59,-0.33,1.7,1.17,-0.1,0.01
12.90523898601532,2,3,3,3,-9.640000000000001,-0.31,1.67,1.73,-0.25,0.1
12.91523897647858,2,3,3,3,-9.69,-0.28,1.8,2.16,-0.37,0.21
12.92523896694183,2,3,3,3,-9.59,-0.34,1.75,2.16,-0.37,0.21
12.93523895740509,2,3,3,3,-9.68,-0.36,1.68,2.14,-0.18,0.17
12.94523894786835,2,3,3,3,-9.84,-0.25,1.78,2.12,-0.42,0.07000000000000001
12.9552389383316,2,3,3,3,-9.699999999999999,-0.33,1.61,2.2,-1.06,-0.1
12.96523892879486,2,3,3,3,-9.85,-0.42,1.56,2,-1.19,-0.26
12.97523891925812,2,3,3,3,-9.779999999999999,-0.53,1.29,2,-1.19,-0.26
12.98523890972137,2,3,3,3,-9.83,-0.45,0.92,1.3,-1.09,-0.39
12.99523890018463,2,3,3,3,-9.92,-0.3,1.1,1.56,-1.36,-0.5600000000000001
13.00523912906647,2,3,3,3,-9.67,-0.51,0.62,1.68,-1.06,-0.67
13.01523911952972,2,3,3,3,-9.67,-0.5600000000000001,0.58,1.8,-0.74,-0.98
13.02523910999298,2,3,3,3,-9.65,-0.52,0.6,1.8,-0.74,-0.98
13.03523910045624,2,3,3,3,-9.57,-0.66,0.61,2.06,-0.62,-1.29
13.04523909091949,2,3,3,3,-9.619999999999999,-0.67,0.82,2.74,-0.76,-1.57
13.05523908138275,2,3,3,3,-9.49,-0.84,0.6,2.89,-0.52,-1.53
13.06523907184601,2,3,3,3,-9.51,-0.99,0.43,2.95,-0.13,-1.52
13.07523906230927,2,3,3,3,-9.56,-1.13,0.15,2.95,-0.13,-1.52
13.08523905277252,2,3,3,3,-9.539999999999999,-1.03,0.17,3.06,0.19,-1.45
13.09523904323578,2,3,3,3,-9.56,-0.9399999999999999,0.36,4.03,0.71,-1.15
13.10523903369904,2,3,3,3,-9.529999999999999,-0.9,0.23,4.66,1,-0.85
13.11623895168304,2,3,3,3,-9.66,-0.59,0.35,4.66,1,-0.85
13.1262389421463,2,3,3,3,-9.6,-0.46,0.24,5.27,1.2,-0.52
13.13623893260956,2,3,3,3,-9.630000000000001,-0.24,0,5.62,1.31,-0.2
13.14623892307281,2,3,3,3,-9.619999999999999,-0.05,0.06,6.05,1.38,0.07000000000000001
13.15623891353607,2,3,3,3,-9.58,0.13,-0.21,6.36,1.59,0.17
13.16623890399933,2,3,3,3,-9.699999999999999,0.47,-0.18,6.46,1.93,0.1
13.17623913288116,2,3,3,3,-9.74,0.57,-0.26,6.64,2.14,-0.1
13.18623912334442,2,3,3,3,-9.74,0.6,-0.23,6.66,2.2,-0.29
13.19623911380768,2,3,3,3,-9.85,0.6899999999999999,-0.08,6.67,2.16,-0.55
13.20623910427094,2,3,3,3,-9.92,0.82,-0.09,6.57,2.07,-0.83
13.21623909473419,2,3,3,3,-9.949999999999999,0.96,0.04,6.36,2.19,-1.14
13.22623908519745,2,3,3,3,-9.91,1.09,0.24,6.21,2.43,-1.45
13.23623907566071,2,3,3,3,-9.800000000000001,1.05,0.2,5.99,2.72,-1.81
13.24623906612396,2,3,3,3,-9.66,1.02,0.14,5.66,3.13,-2.09
13.25623905658722,2,3,3,3,-9.57,0.93,0.02,5.26,3.49,-2.39
13.26623904705048,2,3,3,3,-9.550000000000001,0.92,-0.04,4.77,3.64,-2.59
13.27623903751373,2,3,3,3,-9.58,0.8100000000000001,-0.07000000000000001,4.38,3.61,-2.7
13.28623902797699,2,3,3,3,-9.59,0.7,-0.07000000000000001,4.02,3.45,-2.72
13.29623901844025,2,3,3,3,-9.52,0.52,-0.09,3.74,3.25,-2.68
13.3062390089035,2,3,3,3,-9.380000000000001,0.28,-0.23,3.58,2.99,-2.68
13.31623899936676,2,3,3,3,-9.289999999999999,0.2,-0.23,3.32,2.59,-2.64
13.32623898983002,2,3,3,3,-9.24,0.14,-0.18,3.09,2.18,-2.51
13.33623898029327,2,3,3,3,-9.19,0.09,-0.19,2.89,1.94,-2.3
13.34623897075653,2,3,3,3,-9.300000000000001,0,-0.2,2.79,1.79,-2.13
13.35623896121979,2,3,3,3,-9.25,-0.01,-0.26,2.75,1.77,-1.91
13.36623895168304,2,3,3,3,-9.369999999999999,-0.02,-0.25,2.75,1.77,-1.74
13.3762389421463,2,3,3,3,-9.43,0.05,-0.29,2.71,1.72,-1.6
13.38623893260956,2,3,3,3,-9.699999999999999,0.14,-0.33,2.64,1.66,-1.44
13.39623892307281,2,3,3,3,-9.85,0.24,-0.32,2.57,1.58,-1.35
13.40623891353607,2,3,3,3,-10.05,0.36,-0.36,2.56,1.52,-1.33
13.41623890399933,2,3,3,3,-10.12,0.5600000000000001,-0.33,2.42,1.33,-1.32
13.42623913288116,2,3,3,3,-10.03,0.64,-0.31,2.28,1.21,-1.42
13.43623912334442,2,3,3,3,-9.84,0.73,-0.32,2.12,1.06,-1.6
13.44623911380768,2,3,3,3,-9.789999999999999,0.84,-0.34,1.89,0.9399999999999999,-1.77
13.45623910427094,2,3,3,3,-9.68,1.15,-0.55,1.51,0.72,-1.87
13.46623909473419,2,3,3,3,-9.640000000000001,1.14,-0.42,1.23,0.52,-1.69
13.47623908519745,2,3,3,3,-9.66,1.06,-0.39,0.93,0.43,-1.39
13.48623907566071,2,3,3,3,-9.720000000000001,1,-0.6,0.57,0.43,-1.01
13.49623906612396,2,3,3,3,-9.9,0.76,-0.83,0.36,0.37,-0.73
13.50623905658722,2,3,3,3,-9.92,0.66,-1.16,0.2,0.22,-0.65
13.51623904705048,2,3,3,3,-10.04,0.74,-1.38,-0.08,-0.04,-0.72
13.52623903751373,2,3,3,3,-10.26,0.6899999999999999,-1.23,-0.1,-0.78,-0.83
13.53623902797699,2,3,3,3,-10.45,0.3,-1.15,0.14,-1.73,-0.9399999999999999
13.54623901844025,2,3,3,3,-10.44,0.2,-1,0.15,-2.53,-0.9399999999999999
13.5562390089035,2,3,3,3,-10.38,0.16,-0.92,0.4,-3.01,-0.67
13.56623899936676,2,3,3,3,-10.59,0.26,-0.86,0.9,-3.19,-0.17
13.57623898983002,2,3,3,3,-10.81,0.27,-0.84,1.53,-3.04,0.46
13.58623898029327,2,3,3,2,-11.18,0.29,-0.8,2.24,-2.68,1.14
13.59623897075653,2,3,3,2,-11.62,0.44,-0.62,2.93,-2.25,1.77
13.60623896121979,2,3,3,2,-12.27,0.82,0.29,3.43,-1.82,2.34
13.61623895168304,2,3,3,2,-12.51,1.12,0.87,3.29,-1.27,2.63
13.6262389421463,2,3,3,2,-12.63,1.34,1.28,2.01,-0.75,2.54
13.63623893260956,2,3,3,1,-12.45,1.34,1.39,0,-0.34,1.96
13.64623892307281,2,3,3,1,-11.82,0.76,0.85,-2.16,-0.27,1.16
13.65623891353607,2,3,3,1,-11.49,0.17,0.17,-4.48,-0.41,0.47
13.66623890399933,2,3,3,1,-11.08,-0.54,-0.2,-6.45,-0.59,0.05
13.67623913288116,2,3,3,1,-10.67,-1.52,-0.04,-7.47,-0.7,0.02
13.68623912334442,2,3,3,1,-9.25,-3.25,1.16,-7.49,-0.72,0.43
13.69623911380768,2,3,3,1,-8.52,-3.67,1.53,-6.87,-0.52,1.24
13.70623910427094,2,3,3,1,-7.79,-3.63,1.29,-6.6,-0.34,2.01
13.71623909473419,2,3,3,1,-7.46,-3.11,1.11,-6.56,0.77,2.86
13.72623908519745,2,3,3,1,-7.52,-1.72,1.28,-5.52,2.28,3.85
13.73623907566071,2,3,3,0,-7.83,-0.87,1.25,-4.38,3.55,4.86
13.74623906612396,2,3,3,0,-8.25,-0.2,1.61,-3.47,4.59,6.08
13.75623905658722,2,3,3,0,-9.68,0.43,1.31,-2.76,5.01,7.11
13.76623904705048,2,3,3,0,-10.61,0.51,1,-3,4.93,7.61
13.77623903751373,2,3,3,0,-11.43,0.55,0.61,-3.84,4.44,7.73
13.78623902797699,2,3,3,0,-12.13,0.63,0.61,-4.63,3.38,7.49
13.79623901844025,2,3,3,0,-12.49,0.45,0.5600000000000001,-4.83,1.59,7.16
13.8062390089035,2,3,3,0,-12.53,0.42,0.45,-5.4,-0.13,6.67
13.81623899936676,2,3,3,0,-12.57,0.48,0.61,-6.25,-1.85,6.09
13.82623898983002,2,3,3,0,-12.05,0.33,0.53,-7.18,-3.48,5.24
13.83623898029327,2,3,3,0,-11.98,0.2,0.68,-8.27,-4.05,4.62
13.84623897075653,2,3,3,0,-11.33,-0.22,0.8100000000000001,-8.1,-5.03,4.51
13.85623896121979,2,3,3,0,-10.63,-0.44,0.61,-7.99,-6.4,4.35
13.86623895168304,2,3,3,0,-9.93,-0.47,0.57,-8.65,-7.05,4.18
13.8762389421463,2,3,3,0,-8.94,-0.44,0.79,-9.02,-7.21,3.88
13.88623893260956,2,3,3,0,-8.710000000000001,-0.32,0.91,-8.960000000000001,-7.13,3.54
13.89623892307281,2,3,3,0,-8.5,-0.43,1.14,-8.470000000000001,-6.86,3.21
13.90623891353607,2,3,3,0,-8.24,-0.54,1.03,-7.86,-6.52,2.97
13.91623890399933,2,3,3,0,-8.130000000000001,-0.46,0.86,-7.14,-6.19,2.84
13.92623913288116,2,3,3,0,-8.42,-0.4,1.12,-6.1,-5.8,2.74
13.93623912334442,2,3,3,0,-8.289999999999999,-0.16,0.98,-5.51,-5.84,2.63
13.94623911380768,2,3,3,0,-8.289999999999999,0.31,1.37,-4.68,-5.48,2.37
13.95623910427094,2,3,3,0,-8,0.58,1.52,-4.17,-5.47,2.2
13.96623909473419,2,3,3,0,-7.58,0.68,1.66,-4.05,-5.78,2.13
13.97623908519745,2,3,3,0,-7.23,0.8100000000000001,1.62,-4.26,-5.5,1.85
13.98623907566071,2,3,3,0,-6.73,1.15,1.73,-4.82,-4.97,1.46
13.99623906612396,2,3,3,0,-6.58,1.24,1.73,-5.38,-4.26,1.09
14.00623905658722,2,3,3,0,-6.4,1.29,1.62,-5.88,-3.47,0.7
14.01623904705048,2,3,3,0,-6.35,1.21,1.56,-6.17,-2.58,0.22
14.02623903751373,2,3,3,0,-6.3,0.92,1.44,-6.24,-1.71,-0.42
14.03623902797699,2,3,3,0,-6.34,0.79,1.28,-6.02,-0.83,-1.22
14.04623901844025,2,3,3,0,-6.41,0.68,1.21,-5.53,0.12,-2.02
14.0562390089035,2,3,3,0,-6.52,0.62,1.05,-4.78,0.97,-2.64
14.06623899936676,2,3,3,0,-6.76,0.52,1.47,-3.88,1.69,-3.04
14.07623898983002,2,3,3,0,-7.02,0.38,1.78,-3.04,2.4,-3.3
14.08623898029327,2,3,3,0,-7.41,0.3,2.25,-2.56,2.98,-3.4
14.09623897075653,2,3,3,0,-8.76,0.59,2.6,-2.6,3.42,-3.25
14.10623896121979,2,3,3,0,-9.609999999999999,1.05,2.1,-2.83,4.11,-2.7
14.11623895168304,2,3,3,0,-10.29,1.24,1.83,-2.81,4.67,-1.64
14.1262389421463,2,3,3,0,-10.71,1.28,1.65,-2.55,4.73,-0.4
14.13723909854889,2,3,3,0,-11.1,1.05,1.9,-2.36,4.3,0.77
14.14723908901215,2,3,3,0,-11.4,0.74,2.14,-2.48,3.53,1.54
14.1572390794754,2,3,3,0,-11.56,0.74,1.95,-3.39,2.47,1.9
14.16723906993866,2,3,3,0,-11.69,1.19,1.78,-5.18,1.62,2.12
14.17723906040192,2,3,3,0,-11.73,2.49,1.96,-6.66,1.02,2.32
14.18723905086517,2,3,3,0,-11.7,2.75,2.3,-7.03,0.6,2.51
14.19723904132843,2,3,3,0,-11.49,3.01,2.58,-6.55,0.18,2.7
14.20723903179169,2,3,3,0,-11.32,3.4,2.9,-6.28,-0.44,2.85
14.21723902225494,2,3,3,0,-11.25,2.68,3.11,-5.8,-0.92,2.86
14.2272390127182,2,3,3,0,-11.77,1.79,2.49,-5.57,-0.93,3
14.23723900318146,2,3,3,0,-12.54,1.43,1.79,-6.18,-0.98,3.24
14.24723899364471,2,3,3,0,-13.29,1.33,1.87,-6.5,-0.51,3.28
14.25723898410797,2,3,3,0,-13.49,-0.79,1.36,-5.06,-0.06,2.83
14.26723897457123,2,3,3,0,-13.07,-1.78,1.68,-3.34,-0.66,2.03
14.27723896503448,2,3,3,0,-12.37,-2.55,1.09,-2.26,-1.72,0.89
14.28723895549774,2,3,3,0,-11.14,-2.63,1.4,-1.55,-2.24,-0.06
14.297238945961,2,3,3,0,-10.53,-3.17,1.59,0.11,-2.22,-0.76
14.30723893642426,2,3,3,0,-10.23,-3.3,1.98,1.76,-2.1,-0.99
14.31723892688751,2,3,3,0,-9.380000000000001,-3.31,1.41,3.14,-2.12,-0.84
14.32723891735077,2,3,3,0,-7.91,-2.74,0.5,4.36,-1.8,-0.64
14.33723890781403,2,3,3,0,-7.52,-2.53,0.48,5.51,-1.02,-0.54
14.34723889827728,2,3,3,0,-7.54,-2.34,0.84,6.47,-0.11,-0.61
14.35723912715912,2,3,3,0,-7.81,-2.27,0.88,7.39,0.57,-0.62
14.36723911762238,2,3,3,0,-9.23,-1.64,0.67,8.109999999999999,1.15,-0.63
14.37723910808563,2,3,3,0,-10.15,-1.38,0.66,8.59,1.14,-0.76
14.38723909854889,2,3,3,0,-10.76,-1.15,0.58,8.75,0.5,-1
14.39723908901215,2,3,3,0,-11,-0.8,0.54,8.550000000000001,-0.23,-1.32
14.4072390794754,2,3,3,0,-10.72,-0.44,0.49,8.34,-0.78,-1.59
14.41723906993866,2,3,3,0,-10.51,-0.26,0.61,8.07,-0.75,-2.04
14.42723906040192,2,3,3,0,-10.19,-0.22,0.77,7.73,-0.35,-2.5
14.43723905086517,2,3,3,0,-9.23,-0.27,1.1,7.38,0.24,-2.69
14.44723904132843,2,3,3,0,-8.91,-0.13,1.02,7.02,1.33,-2.73
14.45723903179169,2,3,3,0,-8.640000000000001,-0.01,0.92,6.75,2.67,-2.71
14.46723902225494,2,3,3,0,-8.67,0.06,0.85,6.6,4.02,-2.85
14.4772390127182,2,3,3,0,-8.66,-0.14,0.53,6.58,5.05,-3.17
14.48723900318146,2,3,3,0,-8.94,-0.18,0.45,6.53,5.82,-3.48
14.49723899364471,2,3,3,0,-9.01,-0.32,0.17,6.49,5.98,-3.87
14.50723898410797,2,3,3,0,-8.970000000000001,-0.45,-0.06,6.5,5.56,-4.23
14.51723897457123,2,3,3,0,-9,-0.68,-0.14,6.47,4.81,-4.42
14.52723896503448,2,3,3,0,-8.91,-0.8100000000000001,-0.1,6.51,3.99,-4.4
14.53723895549774,2,3,3,0,-8.869999999999999,-0.87,0.05,6.67,3.08,-4.23
14.547238945961,2,3,3,0,-8.74,-0.93,0.07000000000000001,6.82,2.3,-3.87
14.55723893642426,2,3,3,0,-8.56,-0.82,0.01,6.93,1.56,-3.4
14.56723892688751,2,3,3,0,-8.48,-0.68,-0.06,7.16,1.03,-2.98
14.57723891735077,2,3,3,0,-8.470000000000001,-0.58,0.05,7.27,0.74,-2.59
14.58723890781403,2,3,3,0,-8.49,-0.42,0.02,7.26,0.65,-2.32
14.59723889827728,2,3,3,0,-8.460000000000001,0.07000000000000001,0.05,7.39,0.52,-2.17
14.60723912715912,2,3,3,0,-8.460000000000001,0.26,0.15,7.49,0.27,-2.08
14.61723911762238,2,3,3,0,-8.35,0.61,0.17,7.58,-0.1,-2.13
14.62723910808563,2,3,3,0,-8.289999999999999,1.21,0.41,7.5,-0.35,-2.29
14.63723909854889,2,3,3,0,-8.49,1.36,0.4,7.25,-0.54,-2.44
14.64723908901215,2,3,3,0,-8.609999999999999,1.47,0.39,6.9,-0.88,-2.58
14.6572390794754,2,3,3,0,-8.59,1.27,0.47,6.38,-1.49,-2.61
14.66723906993866,2,3,3,0,-8.56,0.91,0.25,5.82,-1.96,-2.43
14.67723906040192,2,3,3,0,-8.880000000000001,0.85,-0.06,5.29,-2.24,-1.94
14.68723905086517,2,3,3,0,-9.17,0.8,-0.41,4.7,-2.53,-1.3
14.69723904132843,2,3,3,0,-9.27,0.67,-0.42,4,-3.09,-0.62
14.70723903179169,2,3,3,0,-9.220000000000001,-0.07000000000000001,-0.22,3.62,-3.85,-0.09
14.71723902225494,2,3,3,0,-9.109999999999999,-0.46,-0.18,3.52,-4.66,0.14
14.7272390127182,2,3,3,0,-9.220000000000001,-0.79,-0.09,3.4,-5.17,0.09
14.73723900318146,2,3,3,0,-9.369999999999999,-0.96,0.05,3.48,-5.33,-0.12
14.74723899364471,2,3,3,0,-9.56,-1.11,0.67,3.92,-5.34,-0.23
14.75723898410797,2,3,3,0,-9.51,-0.8100000000000001,0.78,4.52,-5.29,-0.2
14.76723897457123,2,3,3,0,-9.539999999999999,-0.34,1.04,4.64,-4.85,0.03
14.77723896503448,2,3,3,0,-9.99,0.95,0.91,4.38,-3.98,0.34
14.78723895549774,2,3,3,0,-10.38,1.42,0.57,3.71,-2.85,0.58
14.797238945961,2,3,3,0,-10.85,1.73,0.22,2.8,-1.68,0.63
14.80723893642426,2,3,3,0,-11.13,1.74,-0.1,2.17,-0.88,0.43
14.81723892688751,2,3,3,0,-11.61,1.47,-1.18,2.36,-0.45,0.09
14.82723891735077,2,3,3,0,-11.98,1.52,-1.3,2.94,-0.1,-0.23
14.83723890781403,2,3,3,0,-12.43,1.7,-0.5600000000000001,3.96,0.37,-0.47
14.84723889827728,2,3,3,0,-12.68,2,0.31,5.2,0.82,-0.22
14.85723912715912,2,3,3,0,-12.75,2.43,2.24,5.57,1.42,0.38
14.86723911762238,2,3,3,0,-12.33,2.03,2.9,4.37,1.88,0.93
14.87723910808563,2,3,3,0,-11.94,1.49,3.22,1.97,2.49,1.01
14.88723909854889,2,3,3,0,-11.52,0.98,3.51,-1.11,3.52,0.58
14.89723908901215,2,3,3,0,-11.52,0.98,3.51,-4.3,4.69,0.11
14.9072390794754,2,3,3,0,-9.94,-1.99,1.76,-7.46,5.67,-0.05
14.91723906993866,2,3,3,0,-9.25,-2.84,1.24,-9.779999999999999,6.03,0.05
14.92723906040192,2,3,3,0,-8.77,-3.31,1.39,-10.52,6.19,0.38
14.93723905086517,2,3,3,0,-8.77,-3.31,1.39,-10.08,6.52,1.06
14.94723904132843,2,3,3,0,-8.08,-3.91,1.71,-9.380000000000001,6.97,1.97
14.95723903179169,2,3,3,0,-8.470000000000001,-3.29,0.87,-8.720000000000001,7.56,3.14
14.96723902225494,2,3,3,0,-10.35,-2.41,1.44,-7.65,8.17,4.5
14.9772390127182,2,3,3,0,-11.5,-1.97,1.57,-6.14,8.699999999999999,5.91
14.98723900318146,2,3,3,0,-11.5,-1.97,1.57,-4.41,8.289999999999999,7.16
14.99723899364471,2,3,3,0,-12.57,-1.51,1.41,-3.17,7.25,8.050000000000001
15.00723898410797,2,3,3,0,-14.35,0.17,1.31,-2.62,5.98,8.470000000000001
15.047238945961,2,3,3,0,-13.01,1.07,2.2,-2.81,1.01,5.68
15.05723893642426,2,3,3,0,-10.99,0.9399999999999999,1.47,-3.96,-0.24,4.62
15.06723892688751,2,3,3,0,-10.37,0.9,0.97,-5.99,-1.12,3.45
15.07723891735077,2,3,3,0,-10.37,0.9,0.97,-8.19,-1.27,2.65
15.08723890781403,2,3,3,0,-9.890000000000001,0.89,0.72,-8.19,-1.27,2.65
15.09723889827728,2,3,3,0,-9.789999999999999,0.77,0.68,-10.98,-2.7,2.13
15.10723912715912,2,3,3,0,-9.130000000000001,0.4,0.49,-12.97,-5.88,1.93
15.11723911762238,2,3,3,0,-8.52,0.09,0.08,-13.36,-6.72,2.15
15.12723910808563,2,3,3,0,-7.96,-0.2,0.38,-13.16,-7.44,2.34
15.13723909854889,2,3,3,0,-7.7,-0.31,0.59,-13.16,-7.44,2.34
15.14723908901215,2,3,3,0,-7.37,-0.37,0.66,-12.8,-7.72,2.38
15.1572390794754,2,3,3,0,-7.09,-0.47,0.68,-11.08,-6.97,2.01
15.16823899745941,2,3,3,0,-6.93,-0.54,0.75,-10.02,-6.19,1.61
15.17823898792267,2,3,3,0,-6.78,-0.43,0.78,-8.91,-5.28,1.34
15.18823897838593,2,3,3,0,-6.68,-0.32,0.97,-8.91,-5.28,1.34
15.19823896884918,2,3,3,0,-6.68,-0.13,1.09,-7.87,-4.28,1.2
15.20823895931244,2,3,3,0,-6.36,0.21,1.15,-6.5,-2.55,0.65
15.2182389497757,2,3,3,0,-6.3,0.46,1.14,-6.3,-1.95,0.15
15.22823894023895,2,3,3,0,-6.3,0.5600000000000001,1.2,-6.33,-1.56,-0.5600000000000001
15.23823893070221,2,3,3,0,-6.19,0.6,1.2,-6.33,-1.56,-0.5600000000000001
15.24823892116547,2,3,3,0,-5.95,0.67,1.14,-6.5,-1.02,-1.45
15.25823891162872,2,3,3,0,-5.89,0.76,1.15,-5.48,0.91,-3.51
15.26823890209198,2,3,3,0,-5.84,0.88,1.17,-3.95,2.13,-4.48
15.27823913097382,2,3,3,0,-5.9,0.9399999999999999,1.15,-2.37,3.17,-5.29
15.28823912143707,2,3,3,0,-6.25,0.76,1.28,-2.37,3.17,-5.29
15.29823911190033,2,3,3,0,-6.5,0.45,1.42,-1.2,4.14,-5.8
15.30823910236359,2,3,3,0,-6.99,0,1.65,-0.87,5.9,-5.65
15.31823909282684,2,3,3,0,-8.449999999999999,-0.52,2.18,-1.67,6.3,-4.8
15.3282390832901,2,3,3,0,-9.460000000000001,-0.34,2.2,-1.9,6.49,-3.21
15.34823906421661,2,3,3,0,-11.22,-0.01,1.41,-1.75,5.78,-1.53
15.35823905467987,2,3,3,0,-12.68,0.15,1.39,-2.04,2.19,1.03
15.36823904514313,2,3,3,0,-13.34,0.08,1.5,-3.28,0.47,2.34
15.37823903560638,2,3,3,0,-13.07,0.46,1.28,-4.63,-0.38,3.31
15.38823902606964,2,3,3,0,-12.51,1.37,1.23,-4.63,-0.38,3.31
15.3982390165329,2,3,3,0,-11.77,3.11,1.55,-4.93,-0.48,3.81
15.40823900699615,2,3,3,0,-11.46,3.59,1.87,-4.21,-0.46,4.23
15.41823899745941,2,3,3,0,-11.24,4.01,1.83,-4.03,-0.72,3.99
15.42823898792267,2,3,3,0,-11.51,4.3,2.2,-3.22,-1.67,3.6
15.43823897838593,2,3,3,0,-12.92,2.74,2.78,-3.22,-1.67,3.6
15.44823896884918,2,3,3,0,-13.53,2.21,1.51,-3.71,-2.08,2.68
15.45823895931244,2,3,3,0,-14.56,2.36,1.76,-1.32,-1.48,0.47
15.4682389497757,2,3,3,0,-15.07,1.63,2.53,-0.3,-1.53,-0.68
15.47823894023895,2,3,3,0,-13.83,-1.82,1.9,-0.89,-1.62,-1.75
15.48823893070221,2,3,3,0,-12.74,-2.5,1.21,-0.89,-1.62,-1.75
15.49823892116547,2,3,3,0,-12.07,-2.6,1.16,-0.53,-1.29,-2.2
15.50823891162872,2,3,3,0,-11.1,-3.4,1.69,2.27,-1.45,-1.9
15.51823890209198,2,3,3,0,-10.61,-3.89,1.72,3.71,-1.61,-1.1
15.52823913097382,2,3,3,0,-9.74,-4.01,1.37,5.3,-1.12,-0.21
15.53823912143707,2,3,3,0,-8.83,-3.62,0.53,5.3,-1.12,-0.21
15.54823911190033,2,3,3,0,-6.89,-2.76,0.19,6.74,-0.62,0.31
15.55823910236359,2,3,3,0,-6.34,-2.56,0.49,7.71,-0.34,0.39
15.56823909282684,2,3,3,0,-6.34,-2.44,0.46,8.43,0.12,0.14
15.5782390832901,2,3,3,0,-6.95,-2.26,0.2,8.880000000000001,0.19,-0.35
15.58823907375336,2,3,3,0,-9.380000000000001,-2,0.12,9.23,-0.32,-0.95
15.59823906421661,2,3,3,0,-10.54,-1.98,0.28,9.27,-1.16,-1.63
15.60823905467987,2,3,3,0,-11.16,-1.98,0.46,9.140000000000001,-1.78,-2.21
15.61823904514313,2,3,3,0,-11.25,-1.82,0.44,8.859999999999999,-2.01,-2.53
15.62823903560638,2,3,3,0,-10.5,-1.4,0.92,8.66,-1.69,-2.74
15.63823902606964,2,3,3,0,-9.99,-1.13,1.18,8.550000000000001,-0.8100000000000001,-2.82
15.6482390165329,2,3,3,0,-9.619999999999999,-1,1.16,8.539999999999999,0.9,-2.83
15.65823900699615,2,3,3,0,-9,-0.49,1.05,8.56,2.76,-2.91
15.66823899745941,2,3,3,0,-8.949999999999999,-0.4,0.85,8.73,4.33,-3.09
15.67823898792267,2,3,3,0,-8.99,-0.37,0.7,9.06,5.48,-3.25
15.68823897838593,2,3,3,0,-9.050000000000001,-0.42,0.5600000000000001,9.449999999999999,6.03,-3.45
15.69823896884918,2,3,3,0,-9.220000000000001,-0.4,0.14,9.9,6.06,-3.61
15.70823895931244,2,3,3,0,-9.300000000000001,-0.19,-0.06,10.21,5.79,-3.7
15.7182389497757,2,3,3,0,-9.25,-0.01,-0.33,10.47,4.88,-3.92
15.72823894023895,2,3,3,0,-9.09,0.1,-0.36,10.46,3.9,-4.16
15.73823893070221,2,3,3,0,-8.74,0.19,-0.29,10.28,2.87,-4.28
15.74823892116547,2,3,3,0,-8.48,0.07000000000000001,-0.13,9.83,1.7,-4.3
15.75823891162872,2,3,3,0,-8.210000000000001,-0.05,-0.14,9.380000000000001,0.66,-4.13
15.76823890209198,2,3,3,0,-7.73,-0.1,-0.18,8.85,0.15,-3.9
15.77823913097382,2,3,3,0,-7.54,0,-0.12,8.24,-0.21,-3.66
15.78823912143707,2,3,3,0,-7.5,-0.05,-0.07000000000000001,7.77,-0.34,-3.48
15.79823911190033,2,3,3,0,-7.68,0.08,-0.04,7.23,-0.49,-3.32
15.80823910236359,2,3,3,0,-7.84,0.14,-0.24,6.96,-0.97,-3.28
15.81823909282684,2,3,3,0,-8.27,0.44,-0.24,6.97,-1.42,-3.17
15.8282390832901,2,3,3,0,-8.15,0.53,-0.18,7.15,-2.08,-3.13
15.83823907375336,2,3,3,0,-8.380000000000001,0.54,-0.09,7.11,-2.6,-3.14
15.84823906421661,2,3,3,0,-8.09,0.63,0.04,6.54,-3.22,-3.01
15.85823905467987,2,3,3,0,-8.17,0.64,0.29,6.18,-3.42,-2.78
15.86823904514313,2,3,3,0,-8.19,0.61,0.26,6.01,-3.52,-2.65
15.87823903560638,2,3,3,0,-8.390000000000001,0.67,0.38,5.57,-3.46,-2.59
15.88823902606964,2,3,3,0,-8.85,0.68,0.4,4.93,-3.45,-2.51
15.8982390165329,2,3,3,0,-9.220000000000001,0.57,0.24,4.13,-3.32,-2.39
15.90823900699615,2,3,3,0,-9.6,0.39,0.4,3.28,-3.54,-2.22
15.91823899745941,2,3,3,0,-9.83,0.14,0.07000000000000001,2.45,-4.12,-1.97
15.92823898792267,2,3,3,0,-10.11,-0.17,-0.09,1.89,-4.61,-1.8
15.93823897838593,2,3,3,0,-10.14,-0.27,-0.1,1.67,-4.97,-1.66
15.94823896884918,2,3,3,0,-10.14,-0.45,0.16,1.91,-5.07,-1.48
15.95823895931244,2,3,3,0,-10.14,-0.51,0.54,2.22,-4.97,-1.1
15.9682389497757,2,3,3,0,-10.22,-0.33,0.92,2.36,-4.66,-0.57
15.97823894023895,2,3,3,0,-10.29,-0.04,1.17,2.05,-4.12,0.01
15.98823893070221,2,3,3,0,-10.49,0.46,1.18,1.37,-3.37,0.57
15.99823892116547,2,3,3,0,-11.2,1.29,1.07,0.59,-2.63,0.98
16.00823891162872,2,3,3,0,-11.46,1.33,0.73,-0.08,-2.21,1.09
16.01823890209198,2,3,3,0,-11.69,1.26,0.5600000000000001,-0.26,-1.87,0.9399999999999999
16.02823913097382,2,3,3,0,-11.79,0.9,0.19,0.42,-1.49,0.55
16.03823912143707,2,3,3,0,-12.29,0.46,-0.43,1.44,-0.86,0.12
16.04823911190033,2,3,3,0,-12.56,0.55,0.62,3.04,-0.24,-0.05
16.05823910236359,2,3,3,0,-12.64,0.72,1.48,4.8,0.28,0.09
16.06823909282684,2,3,3,0,-12.58,0.96,1.9,5.1,1.04,0.42
16.0782390832901,2,3,3,0,-11.74,1.68,2.86,3.54,1.98,0.48
16.08823907375336,2,3,3,0,-11.06,1.72,3.59,0.72,3.38,-0.08
16.09823906421661,2,3,3,0,-10.57,1.47,3.95,-2.66,5.56,-0.83
16.10823905467987,2,3,3,0,-10.09,0.98,3.84,-6.16,8.050000000000001,-1.22
16.11823904514313,2,3,3,0,-9.210000000000001,-1.1,1.96,-9.210000000000001,9.960000000000001,-1.08
16.12823903560638,2,3,3,0,-8.720000000000001,-2.01,1.22,-11.53,10.83,-0.76
16.13823902606964,2,3,3,0,-8.58,-2.99,1.01,-12.62,11,-0.14
16.1482390165329,2,3,3,0,-8.07,-3.73,0.55,-12.79,10.3,0.97
16.15923893451691,2,3,3,0,-8.369999999999999,-3.91,-0.63,-12.52,10.4,2.73
16.16823899745941,2,3,3,0,-9.08,-3.42,-1.04,-11.17,9.789999999999999,4.87
16.17823898792267,2,3,3,0,-10.16,-3.04,-0.62,-9.210000000000001,9.15,6.92
16.18923890590668,2,3,3,0,-12.32,-2.65,0.53,-6.73,7.47,8.51
16.19923889636993,2,3,3,0,-13.23,-2.52,0.67,-4.57,5.17,9.69
16.20923912525177,2,3,3,0,-13.72,-1.99,0.96,-3.07,2.86,10.28
16.21923911571503,2,3,3,0,-13.93,-1.33,1.68,-1.45,1.09,10.42
16.22923910617828,2,3,3,0,-12.98,-0.39,2.41,-0.04,-0.14,9.720000000000001
16.23923909664154,2,3,3,0,-12.15,-0.01,2.31,-0.01,-0.61,8.029999999999999
16.2492390871048,2,3,3,0,-11.6,0.33,2.07,-0.93,-0.29,5.97
16.25923907756805,2,3,3,0,-11.09,0.59,1.54,-2.69,0.5,4.26
16.26923906803131,2,3,3,0,-10.63,0.79,0.7,-4.48,1.25,3.25
16.27923905849457,2,3,3,0,-10.86,0.72,0.36,-5.89,1.13,2.85
16.28923904895782,2,3,3,0,-11.23,0.6,0.22,-7.16,0.17,2.87
16.29923903942108,2,3,3,0,-11.02,0.29,0.08,-8.390000000000001,-1.92,3.14
16.30923902988434,2,3,3,0,-9.800000000000001,-0.52,0,-9.58,-4.16,3.5
16.3192390203476,2,3,3,0,-9.279999999999999,-0.67,0.11,-10.48,-6.12,4.04
16.32923901081085,2,3,3,0,-8.699999999999999,-0.6899999999999999,0.39,-10.75,-7.42,4.32
16.33923900127411,2,3,3,0,-7.67,-0.46,0.74,-10.49,-8.140000000000001,4.44
16.34923899173737,2,3,3,0,-7.24,-0.5,0.88,-9.56,-8.359999999999999,4.32
16.35923898220062,2,3,3,0,-6.93,-0.66,0.97,-8.449999999999999,-8.18,3.91
16.36923897266388,2,3,3,0,-6.8,-0.57,0.74,-7.54,-7.4,3.41
16.37923896312714,2,3,3,0,-6.34,-0.26,0.87,-6.82,-6.46,2.93
16.38923895359039,2,3,3,0,-6.23,-0.03,0.89,-6.27,-5.35,2.42
16.39923894405365,2,3,3,1,-6.21,0.24,0.92,-5.92,-4.22,1.8
16.40923893451691,2,3,3,1,-6.23,0.44,0.96,-5.77,-3.12,1.36
16.41923892498016,2,3,3,1,-6.28,0.82,0.9399999999999999,-5.74,-2.12,1.07
16.42923891544342,2,3,3,1,-6.23,0.87,1.3,-5.84,-1.5,0.65
16.43923890590668,2,3,3,1,-6.08,0.87,1.25,-6.01,-1.5,-0.02
16.44923889636993,2,3,3,1,-5.95,0.74,0.97,-6.5,-1.28,-1.02
16.45923912525177,2,3,3,1,-5.98,0.77,0.73,-6.89,-0.4,-2.15
16.46923911571503,2,3,3,1,-6,0.83,0.65,-6.38,0.83,-3.33
16.47923910617828,2,3,3,1,-6.11,0.79,0.83,-4.9,2.04,-4.44
16.48923909664154,2,3,3,1,-6.23,0.65,1.11,-2.66,3.06,-5.33
16.4992390871048,2,3,3,1,-6.96,-0.08,1.24,-0.47,4.09,-5.93
16.50923907756805,2,3,3,1,-7.67,-0.4,1.3,1.2,5.19,-6.04
16.51923906803131,2,3,3,1,-8.4,-0.68,1.76,2.08,5.58,-5.52
16.52923905849457,2,3,3,1,-9.66,-0.84,1.65,2.04,5.01,-4.74
16.53923904895782,2,3,3,1,-10.13,-0.74,1.2,1.76,4.76,-3.38
16.54923903942108,2,3,3,1,-10.64,-0.44,1.3,1.65,4.92,-1.37
16.55923902988434,2,3,3,1,-11.34,-0.19,1.62,1.59,4.22,0.5600000000000001
16.5692390203476,2,3,3,1,-12.6,0.51,1.09,1.04,2.72,2.23
16.57923901081085,2,3,3,1,-12.33,1.56,0.48,-0.12,1.2,4.09
16.58923900127411,2,3,3,1,-12.02,2.79,0.15,-1.67,0.35,5.68
16.59923899173737,2,3,3,1,-11.6,4.04,0.61,-3.05,-0.16,6.27
16.60923898220062,2,3,3,1,-11,5.93,1.54,-3.7,-0.39,5.92
16.61923897266388,2,3,3,1,-11.04,5.88,1.47,-3.4,-0.01,5.29
16.62923896312714,2,3,3,1,-11.67,5.64,1.84,-3.79,0.14,4.69
16.63923895359039,2,3,3,1,-12.63,4.79,2.63,-4.75,-0.61,3.83
16.64923894405365,2,3,3,1,-14.22,3.01,2.1,-5.55,-1.54,2.92
16.65923893451691,2,3,3,1,-14.52,1.77,2.29,-5.51,-1.79,1.66
16.66923892498016,2,3,3,1,-14.61,0.46,2.04,-4.67,-1.73,0.02
16.67923891544342,2,3,3,1,-14.02,-2.4,1.63,-3.86,-1.26,-1.43
16.68923890590668,2,3,3,1,-13.72,-3.62,1.39,-3.24,-1.56,-2.54
16.69923889636993,2,3,3,1,-13.37,-4.55,1.02,-2.21,-2.69,-3.27
16.70923912525177,2,3,3,1,-12.98,-5.28,0.96,-0.61,-3.19,-3.34
16.71923911571503,2,3,3,1,-11.04,-6.15,0.63,1.45,-3.36,-2.56
16.72923910617828,2,3,3,1,-9.74,-5.32,0.26,3.32,-3.39,-1.2
16.73923909664154,2,3,3,1,-8.380000000000001,-4.18,0.39,5.38,-2.6,0.16
16.7492390871048,2,3,3,1,-6.89,-3.17,0.6899999999999999,7.5,-2.12,0.79
16.75923907756805,2,3,3,1,-5.12,-1.93,1.29,9.220000000000001,-1.6,0.68
16.76923906803131,2,3,3,1,-4.9,-1.63,1.34,10.36,-0.39,0.39
16.77923905849457,2,3,3,1,-5.7,-1.39,1.25,11.03,1.04,0.14
16.78923904895782,2,3,3,1,-7.03,-1.18,0.9,11.02,2.27,-0.12
16.79923903942108,2,3,3,1,-10.04,-0.76,0.9399999999999999,10.4,2.85,-0.22
16.80923902988434,2,3,3,1,-11.31,-0.4,0.34,9.4,3.16,-0.4
16.8192390203476,2,3,3,1,-12.26,-0.04,-0.03,8.08,3.39,-0.71
16.82923901081085,2,3,3,1,-12.54,0.21,-0.13,6.79,3.04,-1.16
16.83923900127411,2,3,3,1,-11.85,-0.09,0.16,5.71,2.86,-1.8
16.84923899173737,2,3,3,1,-11.14,-0.31,0.41,5.01,3,-2.66
16.85923898220062,2,3,3,1,-10.46,-0.47,0.62,4.94,3.37,-3.66
16.86923897266388,2,3,3,1,-9.289999999999999,-1.08,0.34,5.43,3.59,-4.5
16.87923896312714,2,3,3,1,-8.81,-1.35,0.21,6.13,3.99,-4.97
16.88923895359039,2,3,3,1,-8.48,-1.49,0.07000000000000001,6.8,4.16,-5.07
16.89923894405365,2,3,3,0,-8.16,-1.58,0,7.67,3.98,-4.93
16.90923893451691,2,3,3,0,-7.7,-1.17,-0.09,8.68,3.61,-4.55
16.91923892498016,2,3,3,0,-7.87,-0.91,-0.32,9.529999999999999,3.16,-4.01
16.92923891544342,2,3,3,0,-8.050000000000001,-0.71,-0.47,10.08,2.88,-3.59
16.93923890590668,2,3,3,0,-8.300000000000001,-0.54,-0.47,10.43,2.31,-3.25
16.94923889636993,2,3,3,0,-8.869999999999999,-0.16,-0.54,10.66,1.63,-2.76
16.95923912525177,2,3,3,0,-8.859999999999999,0.16,-0.7,10.46,0.71,-2.18
16.96923911571503,2,3,3,0,-8.960000000000001,0.4,-0.84,9.94,-0.25,-1.78
16.97923910617828,2,3,3,0,-8.890000000000001,0.71,-0.86,9.16,-1.12,-1.57
16.98923909664154,2,3,3,0,-8.74,1.05,-0.44,8.35,-1.98,-1.68
16.9992390871048,2,3,3,0,-8.58,1.09,-0.52,7.68,-2.75,-1.89
17.00923907756805,2,3,3,0,-8.390000000000001,1.03,-0.34,7.06,-3.4,-2.29
17.01923906803131,2,3,3,0,-8.300000000000001,0.8,-0.29,6.44,-3.86,-2.73
17.02923905849457,2,3,3,0,-8.1,0.78,-0.11,5.84,-4.24,-3.15
17.03923904895782,2,3,3,0,-7.89,0.75,0,5.13,-4.56,-3.25
17.04923903942108,2,3,3,0,-7.98,0.71,0.24,4.51,-4.29,-3.12
17.05923902988434,2,3,3,0,-8.279999999999999,0.48,0.39,4.11,-3.91,-2.97
17.0692390203476,2,3,3,0,-8.449999999999999,0.52,0.4,3.63,-3.53,-2.71
17.07923901081085,2,3,3,0,-8.5,0.5600000000000001,0.13,3.18,-3.16,-2.42
17.08923900127411,2,3,3,0,-8.619999999999999,0.7,-0.25,2.67,-2.74,-2.29
17.09923899173737,2,3,3,0,-9.039999999999999,0.46,-0.21,2.61,-2.3,-2.28
17.10923898220062,2,3,3,0,-9.130000000000001,0.29,-0.27,2.62,-2.5,-2.54
17.11923897266388,2,3,3,0,-9.26,-0.01,-0.07000000000000001,2.15,-3.03,-2.93
17.12923896312714,2,3,3,0,-9.31,-0.31,0,2.07,-3.62,-3.15
17.13923895359039,2,3,3,0,-9.6,-0.78,0.3,2.16,-4.11,-3.18
17.14923894405365,2,3,3,0,-9.73,-0.95,0.66,2.53,-4.33,-2.83
17.15923893451691,2,3,3,0,-9.789999999999999,-0.9399999999999999,0.87,3.13,-4.26,-2.15
17.16923892498016,2,3,3,0,-9.869999999999999,-0.73,0.9399999999999999,3.45,-3.72,-1.33
17.17923891544342,2,3,3,0,-10.26,0.39,0.79,3.43,-2.82,-0.51
17.18923890590668,2,3,3,0,-10.6,1.04,0.63,3.02,-1.81,0.16
17.19923889636993,2,3,3,0,-10.6,1.04,0.63,2.54,-0.99,0.5
17.20923912525177,2,3,3,0,-11.49,1.71,0.52,2.44,-0.5600000000000001,0.51
17.22023904323578,2,3,3,0,-11.49,1.25,0.18,3.1,-0.49,0.35
17.23023903369904,2,3,3,0,-11.46,0.98,-0.62,4.69,-0.7,0.02
17.24023902416229,2,3,3,0,-11.51,0.9,-0.78,6.05,-0.82,-0.52
17.25023901462555,2,3,3,0,-11.51,0.9,-0.78,7.53,-1.04,-1.02
17.26023900508881,2,3,3,0,-11.4,0.9399999999999999,-1.05,8.91,-1.28,-1.28
17.27023899555206,2,3,3,0,-11.13,1.15,0.58,10.06,-1.58,-1.15
17.28023898601532,2,3,3,0,-10.99,1.05,1.34,10.36,-1.59,-0.64
17.29023897647858,2,3,3,0,-10.57,0.95,1.96,9.34,-0.93,-0.1
17.30023896694183,2,3,3,0,-10.49,0.87,3.14,7.13,0.51,0.3
17.31023895740509,2,3,3,0,-10.49,0.87,3.14,4.3,2.35,0.29
17.32023894786835,2,3,3,0,-9.6,0.01,4.72,1.07,4.87,0.15
17.3302389383316,2,3,3,0,-9.34,-1.55,3,-2.53,7.47,0.15
17.34023892879486,2,3,3,0,-9.25,-2.22,2.26,-6.32,9.279999999999999,0.27
17.35023891925812,2,3,3,0,-9.25,-2.22,2.26,-6.32,9.279999999999999,0.27
17.36023890972137,2,3,3,0,-9.24,-2.95,2.16,-11.04,10.15,1.42
17.37023890018463,2,3,3,0,-10.24,-3.93,0.47,-11.58,10.52,2.85
17.38023912906647,2,3,3,0,-11.38,-3.35,-0.23,-11.11,10.95,4.66
17.39023911952972,2,3,3,0,-12.93,-2.52,-0.34,-9.81,11,6.47
17.40023910999298,2,3,3,0,-12.93,-2.52,-0.34,-9.81,11,6.47
17.41023910045624,2,3,3,0,-15,-1.08,0.92,-7.51,9.5,8.050000000000001
17.42023909091949,2,3,3,0,-13.83,-0.9399999999999999,0.99,-1.96,2.04,9.24
17.43023908138275,2,3,3,0,-12.71,-0.58,1.24,-1.29,-0.96,8.5
17.44023907184601,2,3,3,0,-11.29,0.38,2.32,-1.57,-2.02,7.41
17.45023906230927,2,3,3,0,-11.29,0.38,2.32,-1.82,-2.37,6.76
17.46023905277252,2,3,3,0,-10.71,0.63,2.59,-1.82,-2.37,6.76
17.47023904323578,2,3,3,0,-9.68,0.9,1.61,-4.08,-2.11,5.57
17.48023903369904,2,3,3,0,-9.68,0.9,1.61,-5.97,-1.07,4.72
17.49023902416229,2,3,3,0,-9.4,0.92,0.64,-7.85,-0.39,3.72
17.50023901462555,2,3,3,0,-9.699999999999999,0.96,0.27,-7.85,-0.39,3.72
17.51023900508881,2,3,3,0,-9.98,0.93,-0.06,-10.67,-0.15,2.85
17.52023899555206,2,3,3,0,-10.09,0.64,-0.23,-11.59,-1.25,2.77
17.53023898601532,2,3,3,0,-10.32,0.01,-0.31,-11.98,-2.92,2.76
17.54023897647858,2,3,3,0,-9.81,-0.47,-0.14,-12.01,-4.91,2.85
17.55023896694183,2,3,3,0,-9.359999999999999,-0.86,0.11,-12.01,-4.91,2.85
17.56023895740509,2,3,3,0,-8.300000000000001,-1.05,0.64,-11.83,-6.52,2.92
17.57023894786835,2,3,3,0,-7.96,-0.98,0.73,-10.7,-7.65,2.59
17.5802389383316,2,3,3,0,-7.65,-0.91,0.78,-9.859999999999999,-7.38,2.38
17.59023892879486,2,3,3,0,-7.38,-0.84,0.93,-9.140000000000001,-6.66,2.14
17.62023890018463,2,3,3,0,-6.81,-0.01,1.47,-7.32,-2.91,1.61
17.63023912906647,2,3,3,0,-6.87,0.25,1.43,-6.83,-1.83,1.36
17.64023911952972,2,3,3,0,-7.16,0.55,1.67,-6.65,-0.8100000000000001,0.4
17.65023910999298,2,3,3,0,-7.2,0.51,1.75,-6.65,-0.8100000000000001,0.4
17.66023910045624,2,3,3,0,-7.25,0.47,1.7,-6.55,-0.29,-0.32
17.67023909091949,2,3,3,0,-7.22,0.43,1.52,-5.91,1.03,-2.35
17.68023908138275,2,3,3,0,-7.04,0.36,1.44,-5.01,1.88,-3.26
17.69023907184601,2,3,3,0,-6.94,0.44,1.25,-3.37,2.79,-3.93
17.70023906230927,2,3,3,0,-6.92,0.44,0.9399999999999999,-3.37,2.79,-3.93
17.71023905277252,2,3,3,0,-6.87,0.45,0.5600000000000001,-1.28,3.56,-4.38
17.72023904323578,2,3,3,0,-6.83,0.32,0.64,2.12,4.68,-4.62
17.73023903369904,2,3,3,0,-6.93,0.15,0.59,2.58,4.81,-4.34
17.74023902416229,2,3,3,0,-7.14,-0.03,0.9399999999999999,2.36,4.69,-3.93
17.75023901462555,2,3,3,0,-7.89,-0.39,1.88,2.36,4.69,-3.93
17.76023900508881,2,3,3,0,-8.630000000000001,-0.23,2.05,1.66,4.49,-3.08
17.77023899555206,2,3,3,0,-9.27,0.15,2.19,0.83,3.24,-0.34
17.78023898601532,2,3,3,0,-9.77,0.59,1.96,0.22,2.47,1.02
17.79023897647858,2,3,3,0,-10.98,1.03,1.37,-0.92,1.69,2.41
17.80023896694183,2,3,3,0,-11.43,1.34,1.24,-0.92,1.69,2.41
17.81023895740509,2,3,3,0,-11.55,1.71,0.98,-2.1,1.29,3.57
17.82023894786835,2,3,3,0,-11.62,2.13,0.8,-3.33,0.67,4.26
17.8302389383316,2,3,3,0,-11.35,3.45,0.83,-3.49,0.29,3.69
17.84023892879486,2,3,3,0,-11.22,4.13,1.22,-3.67,0.02,2.88
17.85023891925812,2,3,3,0,-11.16,4.51,1.58,-3.67,0.02,2.88
17.86023890972137,2,3,3,0,-11.18,4.84,1.26,-4.33,-0.02,2.3
17.87023890018463,2,3,3,0,-12.11,4.05,1.71,-6.64,-0.89,1.74
17.88023912906647,2,3,3,0,-12.85,3.53,1.43,-7.11,-1.5,1.36
17.89023911952972,2,3,3,0,-13.34,2.69,1.68,-7.11,-2.36,0.87
17.90023910999298,2,3,3,0,-13.86,0,1.28,-7.11,-2.36,0.87
17.91023910045624,2,3,3,0,-14.45,-1.34,1.1,-7.2,-3.1,0.38
17.92023909091949,2,3,3,0,-14.81,-2.55,0.6899999999999999,-5.72,-5.48,-0.85
17.93023908138275,2,3,3,0,-14.79,-3.37,0.65,-3.36,-5.92,-1.28
17.94023907184601,2,3,3,0,-13.75,-4.76,0.86,-3.36,-5.92,-1.28
17.95023906230927,2,3,3,0,-12.14,-4.72,0.72,-0.74,-5.35,-1.15
17.96023905277252,2,3,3,0,-10.07,-4.06,0.33,1.9,-4.27,-0.57
17.97023904323578,2,3,3,0,-8.25,-3.06,-0.1,4.13,-2.94,-0.19
17.98023903369904,2,3,3,0,-5.74,-1.39,0.55,5.61,-1.88,-0.1
17.99023902416229,2,3,3,0,-5.2,-1.01,0.91,6.32,-0.75,-0.22
18.00023901462555,2,3,3,0,-5.23,-0.75,1.04,6.34,0.57,-0.38
18.01023900508881,2,3,3,0,-5.59,-0.7,1.06,6.03,1.94,-0.45
18.02023899555206,2,3,3,0,-7.77,-1.24,0.9399999999999999,5.53,2.87,-0.35
18.03023898601532,2,3,3,0,-9.27,-1.48,0.61,4.91,3.11,-0.05
18.04023897647858,2,3,3,0,-10.97,-1.55,0.17,4.29,3.1,0.31
18.05123913288116,2,3,3,0,-12.11,-1.49,-0.18,3.85,2.52,0.42
18.06023895740509,2,3,3,0,-12.25,-1.19,-0.15,3.76,1.39,0.07000000000000001
18.07023894786835,2,3,3,0,-11.77,-1.08,-0.06,3.94,0.6899999999999999,-0.75
18.0802389383316,2,3,3,0,-11.18,-1.1,0.11,4.3,0.89,-1.65
18.09023892879486,2,3,3,0,-9.67,-1.18,0.6,4.68,1.65,-2.26
18.10023891925812,2,3,3,0,-9.26,-1.06,0.6899999999999999,5.07,2.75,-2.52
18.11123907566071,2,3,3,0,-8.98,-0.88,0.6899999999999999,5.4,3.74,-2.54
18.12023890018463,2,3,3,0,-8.720000000000001,-0.79,0.6899999999999999,5.63,3.99,-2.55
18.13023912906647,2,3,3,0,-8.76,-0.8,0.24,5.65,3.92,-2.54
18.14123904705048,2,3,3,0,-8.890000000000001,-0.9,0.1,5.58,3.47,-2.65
18.15023910999298,2,3,3,0,-8.94,-1.11,-0.03,5.47,2.91,-2.63
18.16023910045624,2,3,3,0,-8.93,-1.18,-0.07000000000000001,5.55,2.38,-2.52
18.17123901844025,2,3,3,0,-9.130000000000001,-0.87,-0.07000000000000001,5.7,1.81,-2.21
18.18023908138275,2,3,3,0,-9.27,-0.83,-0.14,5.89,1.16,-1.85
18.19023907184601,2,3,3,0,-9.35,-0.77,-0.04,6.05,0.27,-1.35
18.20023906230927,2,3,3,0,-9.51,-0.59,-0.03,5.95,-0.54,-0.83
18.21023905277252,2,3,3,0,-9.630000000000001,-0.13,-0.18,5.57,-1.2,-0.4
18.22023904323578,2,3,3,0,-9.59,0.15,-0.18,5.06,-1.62,-0.25
18.23023903369904,2,3,3,0,-9.44,0.38,-0.25,4.5,-2.04,-0.4
18.2512389421463,2,3,3,0,-8.890000000000001,0.84,0.3,3.27,-2.93,-1.15
18.26123893260956,2,3,3,0,-8.68,0.88,0.5,2.71,-3.26,-1.46
18.27123892307281,2,3,3,0,-8.66,0.9,0.5600000000000001,2.34,-3.32,-1.68
18.28123891353607,2,3,3,0,-8.800000000000001,0.84,0.49,2.03,-3.39,-1.83
18.29123890399933,2,3,3,0,-8.869999999999999,0.71,0.51,1.67,-3.54,-1.86
18.30123913288116,2,3,3,0,-8.9,0.58,0.35,1.35,-3.73,-1.71
18.31123912334442,2,3,3,0,-8.949999999999999,0.49,0.09,1.01,-3.83,-1.43
18.32123911380768,2,3,3,0,-8.949999999999999,0.36,0.09,0.97,-4.2,-1.1
18.33123910427094,2,3,3,0,-9,0.42,0.36,1.22,-4.79,-0.83
18.34123909473419,2,3,3,0,-8.800000000000001,0.34,0.66,1.42,-5.51,-0.6899999999999999
18.35123908519745,2,3,3,0,-8.67,0.45,0.5600000000000001,1.24,-6.04,-0.76
18.36123907566071,2,3,3,0,-8.529999999999999,0.65,0.48,1.26,-6.24,-1.17
18.37123906612396,2,3,3,0,-8.49,0.53,0.46,1.45,-6.14,-1.72
18.38123905658722,2,3,3,0,-8.43,0.36,0.24,1.42,-5.95,-2.41
18.39123904705048,2,3,3,0,-8.380000000000001,0.12,0.4,1.32,-5.73,-2.98
18.40123903751373,2,3,3,0,-8.35,-0.27,1.43,1.74,-5.36,-3.2
18.41123902797699,2,3,3,0,-8.52,-0.44,1.63,2.26,-4.73,-3.03
18.42123901844025,2,3,3,0,-8.84,-0.24,1.67,2.26,-4.03,-2.47
18.4312390089035,2,3,3,0,-9.59,0.51,1.48,1.77,-3.43,-1.83
18.44123899936676,2,3,3,0,-10.1,0.71,1.43,1.21,-3.02,-1.32
18.45123898983002,2,3,3,0,-10.5,0.75,1.27,0.65,-2.92,-0.96
18.46123898029327,2,3,3,0,-10.63,0.75,1.22,0.43,-3.17,-0.78
18.47123897075653,2,3,3,0,-10.55,0.23,0.51,0.6899999999999999,-3.26,-0.9
18.48123896121979,2,3,3,0,-10.65,0.07000000000000001,0.32,1.48,-3.18,-1.23
18.49123895168304,2,3,3,0,-10.75,-0.14,-0.13,2.95,-3,-1.57
18.5012389421463,2,3,3,0,-10.95,-0.19,-0.55,4.74,-2.88,-1.69
18.51123893260956,2,3,3,0,-11.25,0.04,0.35,6.9,-3.04,-1.42
18.52123892307281,2,3,3,0,-11.15,0.02,0.8,8.76,-3.39,-0.72
18.53123891353607,2,3,3,0,-10.93,-0.17,1.33,9.67,-3.42,0.27
18.54123890399933,2,3,3,0,-10.65,-0.44,1.67,9.890000000000001,-2.62,1.15
18.55123913288116,2,3,3,0,-9.65,-0.05,3.7,9.550000000000001,-0.86,1.78
18.56123912334442,2,3,3,0,-9.109999999999999,0.18,4.73,8.380000000000001,2.02,2.37
18.57123911380768,2,3,3,0,-8.84,0.16,4.93,5.84,5.79,3
18.58123910427094,2,3,3,0,-9.800000000000001,0.1,3.91,2.22,9.470000000000001,3.44
18.59123909473419,2,3,3,0,-10.45,-0.42,3.42,-1.32,12.25,3.67
18.60123908519745,2,3,3,0,-11.02,-1.06,2.9,-4.04,13.37,3.95
18.61123907566071,2,3,3,0,-11.53,-1.71,2.34,-5.72,13.15,4.32
18.62123906612396,2,3,3,0,-12.86,-2.74,0.87,-6.25,12.05,4.82
18.63123905658722,2,3,3,0,-13.58,-2.84,0.58,-6.12,10.25,5.43
18.64123904705048,2,3,3,0,-13.96,-2.69,0.78,-5.05,7.61,6.1
18.65123903751373,2,3,3,0,-13.8,-2.38,1.34,-2.67,4.32,6.69
18.66123902797699,2,3,3,0,-12.34,-2.1,1.41,0.38,1.58,7.25
18.67123901844025,2,3,3,0,-11.62,-1.72,1.6,2.5,-0.28,7.46
18.6812390089035,2,3,3,0,-10.93,-1.21,1.85,3.63,-1.95,7.37
18.69123899936676,2,3,3,0,-10.44,-0.58,2.16,3.84,-3.17,7.19
18.70123898983002,2,3,3,0,-9.32,0.61,2.56,3.07,-3.82,6.86
18.71123898029327,2,3,3,1,-8.98,1.31,2.94,1.67,-3.81,6.28
18.72123897075653,2,3,3,1,-8.49,1.64,3.15,0.07000000000000001,-3.58,5.5
18.73123896121979,2,3,3,1,-8.34,1.59,2.94,-2.04,-2.75,4.74
18.74123895168304,2,3,3,1,-8.56,1.21,2.3,-4.55,-1.69,4.23
18.7512389421463,2,3,3,1,-8.49,0.91,1.89,-6.55,-0.78,3.97
18.76123893260956,2,3,3,1,-8.470000000000001,0.65,1.58,-8.08,-0.08,3.48
18.77123892307281,2,3,3,1,-8.74,0.15,1.2,-9.109999999999999,0.17,2.83
18.78123891353607,2,3,3,1,-8.949999999999999,-0.16,1.07,-9.49,-0.01,2.1
18.79123890399933,2,3,3,1,-9.08,-0.5,1.06,-9.31,-0.41,1.48
18.80123913288116,2,3,3,1,-9.199999999999999,-0.76,1.07,-8.82,-0.9,0.98
18.81123912334442,2,3,3,2,-9.130000000000001,-1.03,1.14,-8.07,-1.34,0.62
18.82123911380768,2,3,3,2,-9.08,-0.98,1.4,-6.94,-1.71,0.4
18.83123910427094,2,3,3,2,-8.960000000000001,-0.88,1.7,-5.62,-2.21,0.36
18.84123909473419,2,3,3,2,-8.869999999999999,-0.8,1.95,-4.48,-2.62,0.54
18.85123908519745,2,3,3,2,-8.609999999999999,-0.76,2.04,-3.61,-2.78,0.78
18.86123907566071,2,3,3,2,-8.369999999999999,-0.74,1.79,-3.08,-2.54,1.04
18.87123906612396,2,3,3,2,-8.25,-0.49,1.64,-2.81,-1.73,1.15
18.88123905658722,2,3,3,2,-8.210000000000001,-0.07000000000000001,1.57,-2.54,-0.63,1.24
18.89123904705048,2,3,3,2,-8.27,0.64,2.09,-2.12,0.29,1.28
18.90123903751373,2,3,3,2,-8.380000000000001,0.79,1.89,-1.62,0.75,1.14
18.91123902797699,2,3,3,2,-8.66,0.99,1.83,-1.54,1.19,0.97
18.92123901844025,2,3,3,2,-9.17,1,1.9,-1.69,1.17,0.76
18.9312390089035,2,3,3,2,-9.300000000000001,0.93,2.03,-2.07,1.13,0.66
18.94123899936676,2,3,3,2,-9.34,0.93,2.21,-2.72,1.14,0.71
18.95123898983002,2,3,3,2,-9.279999999999999,0.92,2.21,-3.29,1.09,0.91
18.96123898029327,2,3,3,3,-8.73,0.88,1.85,-3.51,1.14,1.23
18.97123897075653,2,3,3,3,-8.27,0.89,1.93,-3.37,1.26,1.5
18.98123896121979,2,3,3,3,-7.78,0.86,1.87,-2.94,1.61,1.65
18.99123895168304,2,3,3,3,-7.54,0.7,1.92,-2.51,2.1,1.72
19.0012389421463,2,3,3,3,-7.36,0.47,1.24,-2.45,2.3,1.68
19.01123893260956,2,3,3,3,-7.56,0.42,1.19,-2.69,2.41,1.43
19.02123892307281,2,3,3,3,-8.02,0.5,1.63,-3.26,2.83,1.24
19.03123891353607,2,3,3,3,-8.34,0.71,1.7,-3.78,3.1,1.2
