timestamp,magCalib,accCalib,gyrCalib,sysCalib,accX,accY,accZ,gyrX,gyrY,gyrZ
-0.2227610349655151,2,3,3,3,-9.67,-0.72,-1.12,-0.06,-0.03,0.06
-0.2127610445022583,2,3,3,3,-9.699999999999999,-0.71,-1.15,0.08,-0.05,0.04
-0.2027610540390015,2,3,3,3,-9.699999999999999,-0.71,-1.15,0.01,-0.16,-0.04
-0.1927610635757446,2,3,3,3,-9.699999999999999,-0.7,-1.18,0.08,-0.17,-0.12
-0.1827610731124878,2,3,3,3,-9.66,-0.61,-1.1,-0.04,-0.15,-0.21
-0.172761082649231,2,3,3,3,-9.66,-0.61,-1.1,-0.17,-0.13,-0.19
-0.1627610921859741,2,3,3,3,-9.68,-0.6,-1.03,-0.15,0,-0.24
-0.1527611017227173,2,3,3,3,-9.68,-0.53,-1.11,-0.19,-0.08,-0.29
-0.1427608728408813,2,3,3,3,-9.68,-0.53,-1.11,-0.2,-0.12,-0.31
-0.1327608823776245,2,3,3,3,-9.69,-0.43,-1.1,-0.16,-0.1,-0.31
-0.1227608919143677,2,3,3,3,-9.699999999999999,-0.44,-1,-0.21,-0.15,-0.33
-0.1127609014511108,2,3,3,3,-9.74,-0.39,-0.97,-0.21,-0.15,-0.33
-0.102760910987854,2,3,3,3,-9.76,-0.37,-0.95,-0.17,-0.21,-0.3
-0.09276092052459717,2,3,3,3,-9.789999999999999,-0.28,-0.96,-0.18,-0.25,-0.3
-0.08276093006134033,2,3,3,3,-9.789999999999999,-0.28,-0.96,-0.28,-0.31,-0.24
-0.0727609395980835,2,3,3,3,-9.779999999999999,-0.25,-0.9399999999999999,-0.28,-0.31,-0.24
-0.06276094913482666,2,3,3,3,-9.76,-0.23,-0.92,-0.33,-0.19,-0.21
-0.05276095867156982,2,3,3,3,-9.76,-0.23,-0.95,-0.38,0,-0.09
-0.04276096820831299,2,3,3,3,-9.77,-0.2,-1.04,-0.38,-0.04,-0.09
-0.03276097774505615,2,3,3,3,-9.76,-0.21,-0.96,-0.4,-0.08,-0.02
-0.02276098728179932,2,3,3,3,-9.76,-0.21,-0.96,-0.4,-0.08,-0.02
-0.01276099681854248,2,3,3,3,-9.76,-0.24,-0.91,-0.32,-0.16,-0.02
-0.002761006355285645,2,3,3,3,-9.800000000000001,-0.26,-1.02,-0.17,-0.19,0.11
0.007238984107971191,2,3,3,3,-9.800000000000001,-0.26,-1.02,-0.1,-0.1,0.14
0.01723897457122803,2,3,3,3,-9.77,-0.26,-1,-0.09,-0.13,0.19
0.02723896503448486,2,3,3,3,-9.75,-0.19,-0.91,-0.01,-0.13,0.2
0.0372389554977417,2,3,3,3,-9.75,-0.17,-0.91,0,0,0.21
0.04723894596099854,2,3,3,3,-9.76,-0.2,-0.92,-0.01,-0.06,0.2
0.05723893642425537,2,3,3,3,-9.76,-0.3,-0.99,-0.11,-0.08,0.22
0.06723892688751221,2,3,3,3,-9.76,-0.3,-0.99,-0.24,-0.07000000000000001,0.22
0.07723891735076904,2,3,3,3,-9.77,-0.34,-0.96,-0.24,-0.07000000000000001,0.22
0.08723890781402588,2,3,3,3,-9.76,-0.35,-0.95,-0.19,-0.03,0.26
0.09723889827728271,2,3,3,3,-9.77,-0.36,-0.92,-0.17,-0.09,0.27
0.1072391271591187,2,3,3,3,-9.76,-0.36,-1.06,-0.18,-0.04,0.23
0.1172391176223755,2,3,3,3,-9.74,-0.37,-1.06,-0.2,0.04,0.24
0.1272391080856323,2,3,3,3,-9.74,-0.37,-1.06,-0.2,0.04,0.24
0.1372390985488892,2,3,3,3,-9.73,-0.35,-1,-0.2,0.04,0.23
0.147239089012146,2,3,3,3,-9.710000000000001,-0.34,-1.04,-0.27,0.01,0.2
0.1572390794754028,2,3,3,3,-9.74,-0.36,-1.07,-0.19,0.06,0.2
0.1672390699386597,2,3,3,3,-9.720000000000001,-0.36,-1.03,-0.12,0.1,0.22
0.1772390604019165,2,3,3,3,-9.720000000000001,-0.32,-1,-0.11,0.06,0.2
0.1872390508651733,2,3,3,3,-9.720000000000001,-0.32,-1.02,-0.1,0.02,0.22
0.1972390413284302,2,3,3,3,-9.73,-0.32,-1.09,-0.05,0.02,0.19
0.207239031791687,2,3,3,3,-9.73,-0.33,-1.04,-0.03,0,0.19
0.2172390222549438,2,3,3,3,-9.73,-0.36,-1.01,0.03,0.03,0.19
0.2272390127182007,2,3,3,3,-9.73,-0.36,-1.01,0.09,0,0.2
0.2372390031814575,2,3,3,3,-9.73,-0.33,-1.01,0.14,0.07000000000000001,0.2
0.2472389936447144,2,3,3,3,-9.77,-0.21,-1.12,0.12,0.11,0.21
0.2582389116287231,2,3,3,3,-9.76,-0.2,-1.03,0.11,0.16,0.18
0.26823890209198,2,3,3,3,-9.73,-0.22,-1.01,0.05,0.14,0.21
0.2782391309738159,2,3,3,3,-9.73,-0.28,-0.99,0.01,0.09,0.2
0.2882391214370728,2,3,3,3,-9.73,-0.33,-0.99,-0.1,0.05,0.15
0.2982391119003296,2,3,3,3,-9.74,-0.39,-1.15,-0.03,0.08,0.19
0.3082391023635864,2,3,3,3,-9.73,-0.39,-1.11,0.13,0.12,0.21
0.3182390928268433,2,3,3,3,-9.68,-0.39,-1.07,0.17,0.09,0.19
0.3282390832901001,2,3,3,3,-9.68,-0.39,-1.07,0.27,0.06,0.2
0.3382390737533569,2,3,3,3,-9.710000000000001,-0.33,-1.03,0.27,0.06,0.2
0.3482390642166138,2,3,3,3,-9.73,-0.35,-1.14,0.22,0.08,0.16
0.3582390546798706,2,3,3,3,-9.74,-0.39,-1.08,0.23,0.14,0.18
0.3682390451431274,2,3,3,3,-9.720000000000001,-0.32,-1.05,0.24,0.11,0.19
0.3782390356063843,2,3,3,3,-9.720000000000001,-0.32,-1.05,0.24,0.11,0.19
0.3882390260696411,2,3,3,3,-9.73,-0.31,-1.05,0.22,0.11,0.18
0.3982390165328979,2,3,3,3,-9.73,-0.3,-1.09,0.14,0.01,0.12
0.4082390069961548,2,3,3,3,-9.73,-0.35,-1.07,0.07000000000000001,-0.01,0.1
0.4182389974594116,2,3,3,3,-9.73,-0.39,-1.06,0.01,0.01,0.06
0.4282389879226685,2,3,3,3,-9.74,-0.38,-1.07,0.07000000000000001,0.12,0.07000000000000001
0.4382389783859253,2,3,3,3,-9.69,-0.35,-1.11,0.07000000000000001,0.12,0.07000000000000001
0.4482389688491821,2,3,3,3,-9.710000000000001,-0.31,-1.16,0.14,0.16,0.05
0.458238959312439,2,3,3,3,-9.710000000000001,-0.32,-1.1,0.14,0.11,0.04
0.4682389497756958,2,3,3,3,-9.720000000000001,-0.31,-1.07,0.04,0,-0.03
0.4782389402389526,2,3,3,3,-9.699999999999999,-0.3,-1.05,0.03,-0.02,-0.02
0.4882389307022095,2,3,3,3,-9.75,-0.29,-1.09,0.03,-0.02,-0.02
0.4982389211654663,2,3,3,3,-9.73,-0.29,-1.14,0.01,0.03,-0.02
0.5082389116287231,2,3,3,3,-9.74,-0.27,-1.1,-0.01,0,0
0.51823890209198,2,3,3,3,-9.73,-0.26,-1.08,-0.01,0,0
0.5282391309738159,2,3,3,3,-9.710000000000001,-0.25,-1,-0.02,-0.05,0.01
0.5382391214370728,2,3,3,3,-9.69,-0.31,-1.06,-0.05,-0.03,-0.02
0.5482391119003296,2,3,3,3,-9.710000000000001,-0.35,-1.13,-0.05,0.05,-0.01
0.5582391023635864,2,3,3,3,-9.720000000000001,-0.34,-1.14,-0.08,0.09,-0.04
0.5682390928268433,2,3,3,3,-9.720000000000001,-0.35,-1.09,-0.06,0.08,-0.02
0.5782390832901001,2,3,3,3,-9.73,-0.4,-1.05,-0.07000000000000001,0.04,-0.03
0.5882390737533569,2,3,3,3,-9.74,-0.42,-1.09,-0.08,0.08,-0.05
0.5982390642166138,2,3,3,3,-9.720000000000001,-0.44,-1.17,0,0.07000000000000001,-0.03
0.6082390546798706,2,3,3,3,-9.720000000000001,-0.45,-1.14,0.04,0,-0.07000000000000001
0.6182390451431274,2,3,3,3,-9.710000000000001,-0.44,-1.11,0.06,-0.02,-0.11
0.6282390356063843,2,3,3,3,-9.710000000000001,-0.44,-1.12,0.08,0.04,-0.12
0.6382390260696411,2,3,3,3,-9.69,-0.44,-1.1,0.13,0.1,-0.15
0.6482390165328979,2,3,3,3,-9.699999999999999,-0.45,-1.24,0.1,0.18,-0.15
0.6582390069961548,2,3,3,3,-9.69,-0.48,-1.21,0.04,0.11,-0.21
0.6682389974594116,2,3,3,3,-9.69,-0.46,-1.13,0.02,0.16,-0.24
0.6782389879226685,2,3,3,3,-9.69,-0.46,-1.13,0.02,0.16,-0.24
0.6882389783859253,2,3,3,3,-9.710000000000001,-0.46,-1.13,0.01,0.2,-0.28
0.6982389688491821,2,3,3,3,-9.68,-0.47,-1.24,0.04,0.27,-0.39
0.708238959312439,2,3,3,3,-9.69,-0.46,-1.22,-0.01,0.3,-0.46
0.7182389497756958,2,3,3,3,-9.67,-0.44,-1.22,-0.03,0.32,-0.54
0.7282389402389526,2,3,3,3,-9.67,-0.44,-1.22,-0.03,0.32,-0.54
0.7382389307022095,2,3,3,3,-9.720000000000001,-0.44,-1.17,-0.07000000000000001,0.26,-0.59
0.7482389211654663,2,3,3,3,-9.73,-0.47,-1.26,-0.22,0.23,-0.67
0.7582389116287231,2,3,3,3,-9.720000000000001,-0.47,-1.19,-0.27,0.27,-0.6899999999999999
0.76823890209198,2,3,3,3,-9.69,-0.53,-1.09,-0.3,0.28,-0.7
0.7782391309738159,2,3,3,3,-9.69,-0.53,-1.09,-0.3,0.28,-0.7
0.7882391214370728,2,3,3,3,-9.699999999999999,-0.52,-1.06,-0.31,0.27,-0.73
0.7982391119003296,2,3,3,3,-9.710000000000001,-0.48,-1.16,-0.35,0.32,-0.73
0.8082391023635864,2,3,3,3,-9.720000000000001,-0.53,-1.1,-0.22,0.35,-0.6899999999999999
0.8182390928268433,2,3,3,3,-9.710000000000001,-0.5,-1.06,-0.07000000000000001,0.31,-0.68
0.8282390832901001,2,3,3,3,-9.710000000000001,-0.5,-1.06,-0.07000000000000001,0.31,-0.68
0.8382390737533569,2,3,3,3,-9.720000000000001,-0.48,-1.04,-0.02,0.25,-0.71
0.8482390642166138,2,3,3,3,-9.73,-0.37,-1.15,0.01,0.43,-0.71
0.8582390546798706,2,3,3,3,-9.73,-0.36,-1.06,0.01,0.33,-0.6899999999999999
0.8682390451431274,2,3,3,3,-9.720000000000001,-0.39,-1.06,0,0.32,-0.67
0.8782390356063843,2,3,3,3,-9.720000000000001,-0.39,-1.06,0,0.32,-0.67
0.8882390260696411,2,3,3,3,-9.710000000000001,-0.36,-1.06,0,0.36,-0.65
0.8982390165328979,2,3,3,3,-9.75,-0.28,-1.16,0.11,0.38,-0.57
0.9082390069961548,2,3,3,3,-9.74,-0.27,-1.14,0.02,0.36,-0.54
0.9182389974594116,2,3,3,3,-9.720000000000001,-0.3,-1.11,-0.04,0.34,-0.5
0.9282389879226685,2,3,3,3,-9.720000000000001,-0.3,-1.11,-0.04,0.34,-0.5
0.9382389783859253,2,3,3,3,-9.76,-0.36,-1.08,-0.08,0.29,-0.45
0.9482389688491821,2,3,3,3,-9.74,-0.37,-1.22,-0.18,0.21,-0.45
0.958238959312439,2,3,3,3,-9.720000000000001,-0.38,-1.22,-0.15,0.2,-0.38
0.9682389497756958,2,3,3,3,-9.710000000000001,-0.46,-1.16,-0.25,0.14,-0.37
0.9782389402389526,2,3,3,3,-9.710000000000001,-0.46,-1.16,-0.25,0.14,-0.37
0.9882389307022095,2,3,3,3,-9.68,-0.48,-1.14,-0.18,0.13,-0.3
0.9982389211654663,2,3,3,3,-9.710000000000001,-0.48,-1.2,-0.2,-0.02,-0.3
1.008238911628723,2,3,3,3,-9.699999999999999,-0.51,-1.18,-0.17,-0.03,-0.24
1.01823890209198,2,3,3,3,-9.720000000000001,-0.55,-1.15,-0.19,-0.05,-0.19
1.028239130973816,2,3,3,3,-9.720000000000001,-0.55,-1.15,-0.19,-0.05,-0.19
1.038239121437073,2,3,3,3,-9.710000000000001,-0.57,-1.13,-0.21,-0.06,-0.13
1.04823911190033,2,3,3,3,-9.69,-0.65,-1.25,-0.05,0.09,-0.09
1.058239102363586,2,3,3,3,-9.699999999999999,-0.68,-1.24,-0.05,0.14,-0.07000000000000001
1.068239092826843,2,3,3,3,-9.68,-0.7,-1.24,-0.03,0.22,-0.05
1.0782390832901,2,3,3,3,-9.67,-0.71,-1.26,0.01,0.14,-0.08
1.088239073753357,2,3,3,3,-9.68,-0.75,-1.26,0.03,0.1,-0.1
1.098239064216614,2,3,3,3,-9.66,-0.8100000000000001,-1.33,-0.03,0.06,-0.13
1.109238982200623,2,3,3,3,-9.66,-0.85,-1.3,-0.08,0.09,-0.15
1.118239045143127,2,3,3,3,-9.66,-0.87,-1.31,-0.07000000000000001,0.13,-0.19
1.128239035606384,2,3,3,3,-9.66,-0.87,-1.31,-0.07000000000000001,0.13,-0.19
1.139238953590393,2,3,3,3,-9.66,-0.85,-1.24,-0.03,0.06,-0.24
1.148239016532898,2,3,3,3,-9.68,-0.84,-1.33,0.02,0.09,-0.27
1.158239006996155,2,3,3,3,-9.66,-0.82,-1.27,-0.01,0.15,-0.34
1.169238924980164,2,3,3,3,-9.67,-0.8,-1.25,0.01,0.16,-0.37
1.178238987922668,2,3,3,2,-9.67,-0.8,-1.25,0.01,0.16,-0.37
1.188238978385925,2,3,3,2,-9.699999999999999,-0.82,-1.23,0.05,0.2,-0.38
1.199238896369934,2,3,3,2,-9.65,-0.8100000000000001,-1.3,0.14,0.11,-0.41
1.208238959312439,2,3,3,2,-9.66,-0.79,-1.24,0.14,0.11,-0.43
1.218238949775696,2,3,3,2,-9.66,-0.75,-1.24,0.21,0.2,-0.41
1.229239106178284,2,3,3,2,-9.66,-0.75,-1.24,0.19,0.23,-0.43
1.238238930702209,2,3,3,2,-9.69,-0.73,-1.24,0.2,0.16,-0.48
1.248238921165466,2,3,3,2,-9.67,-0.66,-1.32,0.21,0.18,-0.48
1.259239077568054,2,3,3,2,-9.69,-0.63,-1.3,0.18,0.13,-0.49
1.26823890209198,2,3,3,2,-9.68,-0.64,-1.26,0.22,0.16,-0.5
1.278239130973816,2,3,3,2,-9.68,-0.64,-1.26,0.16,0.1,-0.53
1.289239048957825,2,3,3,2,-9.640000000000001,-0.6,-1.31,0.13,0.1,-0.54
1.299239039421082,2,3,3,2,-9.640000000000001,-0.6,-1.41,0.14,0.07000000000000001,-0.54
1.309239029884338,2,3,3,2,-9.68,-0.6,-1.33,-0.06,0.01,-0.57
1.319239020347595,2,3,3,2,-9.67,-0.63,-1.25,-0.17,-0.11,-0.57
1.329239010810852,2,3,3,2,-9.67,-0.63,-1.25,-0.15,0.02,-0.59
1.339239001274109,2,3,3,2,-9.68,-0.62,-1.26,-0.18,0,-0.61
1.349238991737366,2,3,3,2,-9.69,-0.62,-1.35,-0.3,-0.06,-0.64
1.359238982200623,2,3,3,2,-9.65,-0.66,-1.3,-0.39,-0.1,-0.64
1.369238972663879,2,3,3,2,-9.65,-0.6899999999999999,-1.25,-0.49,-0.15,-0.64
1.379238963127136,2,3,3,2,-9.65,-0.6899999999999999,-1.25,-0.53,-0.11,-0.7
1.389238953590393,2,3,3,2,-9.65,-0.71,-1.22,-0.61,-0.07000000000000001,-0.73
1.39923894405365,2,3,3,2,-9.75,-0.77,-1.3,-0.7,-0.15,-0.7
1.409238934516907,2,3,3,2,-9.73,-0.78,-1.21,-0.75,-0.19,-0.66
1.419238924980164,2,3,3,2,-9.710000000000001,-0.79,-1.15,-0.78,-0.09,-0.6
1.42923891544342,2,3,3,2,-9.710000000000001,-0.79,-1.15,-0.76,-0.01,-0.57
1.439238905906677,2,3,3,2,-9.720000000000001,-0.8,-1.13,-0.66,-0.05,-0.54
1.449238896369934,2,3,3,2,-9.67,-0.76,-1.24,-0.79,-0.01,-0.48
1.45923912525177,2,3,3,2,-9.699999999999999,-0.76,-1.19,-0.79,-0.04,-0.41
1.469239115715027,2,3,3,2,-9.69,-0.74,-1.16,-0.6899999999999999,-0.14,-0.35
1.479239106178284,2,3,3,2,-9.69,-0.74,-1.16,-0.6899999999999999,-0.14,-0.35
1.489239096641541,2,3,3,2,-9.66,-0.86,-1.13,-0.68,-0.19,-0.3
1.499239087104797,2,3,3,2,-9.65,-0.93,-1.24,-0.47,-0.11,-0.1
1.509239077568054,2,3,3,2,-9.65,-0.97,-1.22,-0.31,-0.03,-0.02
1.519239068031311,2,3,3,2,-9.69,-1.01,-1.19,-0.16,-0.01,0.05
1.529239058494568,2,3,3,2,-9.67,-1.01,-1.17,-0.08,-0.08,0.12
1.539239048957825,2,3,3,2,-9.67,-1,-1.15,0.02,-0.17,0.14
1.549239039421082,2,3,3,2,-9.640000000000001,-1.01,-1.26,0.1,-0.17,0.19
1.559239029884338,2,3,3,2,-9.65,-0.99,-1.25,0.14,-0.13,0.2
1.569239020347595,2,3,3,2,-9.69,-0.95,-1.19,0.13,-0.06,0.22
1.579239010810852,2,3,3,2,-9.69,-0.95,-1.19,0.13,-0.06,0.22
1.589239001274109,2,3,3,2,-9.65,-0.9399999999999999,-1.21,0.1,-0.09,0.25
1.599238991737366,2,3,3,2,-9.67,-0.98,-1.38,0.21,-0.06,0.23
1.609238982200623,2,3,3,2,-9.68,-0.99,-1.31,0.27,-0.1,0.19
1.619238972663879,2,3,3,2,-9.68,-0.98,-1.29,0.31,-0.09,0.19
1.629238963127136,2,3,3,2,-9.68,-0.98,-1.29,0.39,-0.04,0.18
1.639238953590393,2,3,3,2,-9.68,-0.93,-1.24,0.46,-0.02,0.17
1.64923894405365,2,3,3,2,-9.609999999999999,-0.8100000000000001,-1.36,0.42,-0.01,0.13
1.659238934516907,2,3,3,2,-9.619999999999999,-0.8100000000000001,-1.36,0.42,0.04,0.15
1.669238924980164,2,3,3,2,-9.66,-0.82,-1.31,0.21,-0.03,0.07000000000000001
1.67923891544342,2,3,3,2,-9.67,-0.86,-1.22,0.07000000000000001,-0.03,0.02
1.689238905906677,2,3,3,2,-9.67,-0.9,-1.25,-0.02,-0.02,0.02
1.699238896369934,2,3,3,2,-9.68,-0.9,-1.36,-0.01,0.08,-0.03
1.70923912525177,2,3,3,2,-9.69,-0.88,-1.31,-0.02,0.1,-0.1
1.729239106178284,2,3,3,2,-9.640000000000001,-0.75,-1.26,0.14,0.19,-0.21
1.759239077568054,2,3,3,2,-9.710000000000001,-0.65,-1.26,-0.07000000000000001,-0.01,-0.39
1.769239068031311,2,3,3,2,-9.66,-0.66,-1.26,-0.17,-0.04,-0.41
1.779239058494568,2,3,3,3,-9.67,-0.68,-1.19,-0.17,-0.06,-0.33
1.789239048957825,2,3,3,3,-9.710000000000001,-0.6899999999999999,-1.14,-0.2,0.05,-0.29
1.799239039421082,2,3,3,3,-9.67,-0.67,-1.33,-0.19,0,-0.25
1.809239029884338,2,3,3,3,-9.66,-0.66,-1.28,-0.22,-0.02,-0.21
1.819239020347595,2,3,3,3,-9.67,-0.67,-1.26,-0.24,-0.11,-0.2
1.829239010810852,2,3,3,3,-9.67,-0.67,-1.26,-0.24,-0.11,-0.2
1.839239001274109,2,3,3,3,-9.710000000000001,-0.68,-1.21,-0.24,-0.16,-0.21
1.849238991737366,2,3,3,3,-9.74,-0.66,-1.29,-0.28,-0.02,-0.27
1.859238982200623,2,3,3,3,-9.720000000000001,-0.66,-1.26,-0.21,0.06,-0.28
1.869238972663879,2,3,3,3,-9.710000000000001,-0.6899999999999999,-1.24,-0.19,0,-0.3
1.879238963127136,2,3,3,3,-9.710000000000001,-0.6899999999999999,-1.24,-0.21,-0.01,-0.33
1.889238953590393,2,3,3,3,-9.66,-0.67,-1.17,-0.27,-0.06,-0.27
1.89923894405365,2,3,3,3,-9.710000000000001,-0.59,-1.25,-0.36,-0.01,-0.27
1.909238934516907,2,3,3,3,-9.710000000000001,-0.6,-1.26,-0.4,-0.06,-0.17
1.919238924980164,2,3,3,3,-9.75,-0.53,-1.15,-0.42,-0.08,-0.11
1.92923891544342,2,3,3,3,-9.75,-0.53,-1.15,-0.44,-0.1,-0.11
1.939238905906677,2,3,3,3,-9.69,-0.5600000000000001,-1.11,-0.47,-0.19,-0.03
1.949238896369934,2,3,3,3,-9.69,-0.58,-1.21,-0.5600000000000001,-0.22,0.04
1.95923912525177,2,3,3,3,-9.710000000000001,-0.5600000000000001,-1.16,-0.62,-0.25,0.1
1.969239115715027,2,3,3,3,-9.75,-0.59,-1.13,-0.75,-0.22,0.08
1.979239106178284,2,3,3,3,-9.74,-0.63,-1.14,-0.91,-0.22,0.12
1.989239096641541,2,3,3,3,-9.710000000000001,-0.7,-1.11,-0.99,-0.28,0.14
1.999239087104797,2,3,3,3,-9.640000000000001,-0.83,-1.25,-0.97,-0.29,0.2
2.009239077568054,2,3,3,3,-9.67,-0.85,-1.19,-0.96,-0.34,0.27
2.019239068031311,2,3,3,3,-9.699999999999999,-0.86,-1.17,-0.97,-0.26,0.22
2.029239058494568,2,3,3,3,-9.67,-0.88,-1.17,-0.92,-0.15,0.24
2.039239048957825,2,3,3,3,-9.67,-0.88,-1.17,-0.92,-0.15,0.24
2.049239039421082,2,3,3,3,-9.69,-0.86,-1.32,-0.63,-0.1,0.24
2.059239029884338,2,3,3,3,-9.699999999999999,-0.91,-1.28,-0.5,-0.07000000000000001,0.26
2.069239020347595,2,3,3,3,-9.67,-0.93,-1.24,-0.32,-0.1,0.27
2.079239010810852,2,3,3,3,-9.67,-0.93,-1.24,-0.2,-0.12,0.25
2.089239001274109,2,3,3,3,-9.65,-0.93,-1.23,-0.11,-0.16,0.25
2.099238991737366,2,3,3,3,-9.69,-0.85,-1.29,-0.03,-0.17,0.28
2.109238982200623,2,3,3,3,-9.69,-0.78,-1.23,0.07000000000000001,-0.17,0.32
2.119238972663879,2,3,3,3,-9.699999999999999,-0.71,-1.17,0.1,-0.18,0.33
2.129238963127136,2,3,3,3,-9.68,-0.7,-1.15,0.16,-0.19,0.37
2.139238953590393,2,3,3,3,-9.68,-0.7,-1.17,0.27,-0.33,0.39
2.14923894405365,2,3,3,3,-9.720000000000001,-0.71,-1.29,0.23,-0.32,0.34
2.159238934516907,2,3,3,3,-9.710000000000001,-0.71,-1.19,0.13,-0.23,0.36
2.169238924980164,2,3,3,3,-9.67,-0.7,-1.17,0.14,-0.28,0.37
2.17923891544342,2,3,3,3,-9.640000000000001,-0.68,-1.18,0.29,-0.26,0.33
2.189238905906677,2,3,3,3,-9.699999999999999,-0.62,-1.23,0.38,-0.18,0.29
2.199238896369934,2,3,3,3,-9.720000000000001,-0.66,-1.3,0.09,-0.19,0.26
2.20923912525177,2,3,3,3,-9.720000000000001,-0.65,-1.19,0,-0.27,0.32
2.219239115715027,2,3,3,3,-9.68,-0.6899999999999999,-1.13,-0.01,-0.32,0.35
2.229239106178284,2,3,3,2,-9.75,-0.6899999999999999,-1.11,-0.01,-0.25,0.43
2.239239096641541,2,3,3,2,-9.84,-0.71,-1.13,0.02,-0.35,0.64
2.249239087104797,2,3,3,2,-9.85,-0.62,-1.31,-0.02,-0.42,0.9399999999999999
2.259239077568054,2,3,3,2,-9.94,-0.58,-1.35,-0.88,-0.23,1.49
2.269239068031311,2,3,3,2,-10.05,-0.59,-1.27,-1.34,-0.38,2.32
2.279239058494568,2,3,3,2,-10.05,-0.59,-1.27,-1.43,-0.8,3.11
2.289239048957825,2,3,3,2,-10.05,-0.5,-1.48,-2.1,-1.32,3.72
2.299239039421082,2,3,3,2,-9.970000000000001,-0.42,-1.23,-2.08,-1.66,4.22
2.31023895740509,2,3,3,2,-9.91,-0.16,-1.36,-2.21,-1.57,4.43
2.320238947868347,2,3,3,2,-10.02,-0.16,-1.41,-3.02,-1.79,4.77
2.330238938331604,2,3,3,2,-10.02,-0.16,-1.41,-3.43,-2.13,5.66
2.340238928794861,2,3,3,2,-10.26,0,-1.02,-3.62,-2.25,6.92
2.350238919258118,2,3,3,2,-10.17,0.19,-0.9399999999999999,-3.79,-1.96,8.18
2.360238909721375,2,3,3,2,-10.12,0.28,-1,-4.1,-1.48,9.08
2.370238900184631,2,3,3,2,-10.09,0.55,-0.86,-4.21,-1.19,9.6
2.380239129066467,2,3,3,2,-9.609999999999999,1.07,-0.85,-4.07,-1.45,9.23
2.390239119529724,2,3,3,2,-8.789999999999999,1.62,-0.9,-4.02,-1.61,7.92
2.400239109992981,2,3,3,2,-8.6,0.9,-0.16,-2.88,-3.27,5.26
2.410239100456238,2,3,3,2,-8.890000000000001,0.33,-0.17,-1.45,-4.43,3.22
2.420239090919495,2,3,3,2,-9.460000000000001,0.26,-0.47,-0.93,-2.87,3.05
2.430239081382751,2,3,3,2,-9.82,0.13,-0.59,-0.27,-2.17,3.15
2.440239071846008,2,3,3,2,-9.369999999999999,0.04,-0.59,-0.26,-2.49,2.5
2.450239062309265,2,3,3,2,-9.449999999999999,0.08,-0.63,-0.27,-1.32,1.87
2.460239052772522,2,3,3,2,-9.380000000000001,0.07000000000000001,-0.65,-0.5,-0.64,1.4
2.470239043235779,2,3,3,2,-9.58,0.18,-0.72,-0.88,-0.18,1.05
2.480239033699036,2,3,3,2,-9.58,0.18,-0.72,-1.6,-0.01,0.76
2.490239024162292,2,3,3,2,-9.65,0.32,-0.84,-2.09,-0.11,0.4
2.500239014625549,2,3,3,2,-9.69,0.5,-0.96,-2.02,-0.24,0.08
2.510239005088806,2,3,3,2,-9.880000000000001,0.52,-0.88,-1.8,-0.41,-0.02
2.520238995552063,2,3,3,2,-9.890000000000001,0.47,-0.78,-1.55,-0.42,0.15
2.53023898601532,2,3,3,2,-9.890000000000001,0.47,-0.78,-1.25,-0.42,0.24
2.540238976478577,2,3,3,2,-9.5,0.58,-0.65,-1.03,-0.26,0.1
2.550238966941833,2,3,3,2,-9.6,0.67,-0.82,-0.89,-0.11,0.08
2.56023895740509,2,3,3,2,-9.69,0.71,-0.79,-0.88,-0.23,0.01
2.570238947868347,2,3,3,2,-9.66,0.83,-0.77,-0.8100000000000001,-0.44,-0.04
2.580238938331604,2,3,3,2,-9.710000000000001,0.78,-0.73,-0.76,-0.4,-0.03
2.590238928794861,2,3,3,2,-9.92,0.5600000000000001,-0.77,-0.63,-0.37,0.13
2.600238919258118,2,3,3,2,-9.85,0.51,-0.73,-0.15,-0.49,0.21
2.610238909721375,2,3,3,2,-9.710000000000001,0.5600000000000001,-0.76,0.27,-0.51,0.22
2.620238900184631,2,3,3,2,-9.65,0.58,-0.67,0.49,-0.52,0.18
2.630239129066467,2,3,3,2,-9.699999999999999,0.5,-0.63,0.86,-0.45,0.22
2.640239119529724,2,3,3,2,-9.74,0.47,-0.64,0.95,-0.33,0.34
2.650239109992981,2,3,3,2,-9.69,0.48,-0.79,0.87,-0.41,0.36
2.660239100456238,2,3,3,2,-9.67,0.49,-0.77,0.73,-0.42,0.31
2.670239090919495,2,3,3,2,-9.66,0.37,-0.73,0.51,-0.47,0.21
2.680239081382751,2,3,3,2,-9.66,0.37,-0.73,0.64,-0.37,0.2
2.690239071846008,2,3,3,2,-9.720000000000001,0.34,-0.73,0.72,-0.39,0.12
2.700239062309265,2,3,3,2,-9.68,0.36,-0.77,0.76,-0.36,0.02
2.710239052772522,2,3,3,2,-9.77,0.26,-0.7,0.8,-0.25,-0.01
2.720239043235779,2,3,3,2,-9.710000000000001,0.31,-0.79,0.89,-0.17,-0.06
2.730239033699036,2,3,3,2,-9.710000000000001,0.31,-0.79,0.85,-0.14,-0.16
2.740239024162292,2,3,3,2,-9.69,0.3,-0.8,0.93,-0.13,-0.13
2.750239014625549,2,3,3,2,-9.699999999999999,0.39,-0.79,0.9399999999999999,-0.33,-0.24
2.760239005088806,2,3,3,2,-9.720000000000001,0.36,-0.75,1.05,-0.54,-0.41
2.770238995552063,2,3,3,2,-9.77,0.3,-0.68,1.01,-0.43,-0.42
2.78023898601532,2,3,3,2,-9.779999999999999,0.3,-0.71,1.07,-0.35,-0.42
2.790238976478577,2,3,3,2,-9.77,0.39,-0.7,1.26,-0.34,-0.43
2.800238966941833,2,3,3,2,-9.710000000000001,0.46,-0.84,1.43,-0.43,-0.44
2.81023895740509,2,3,3,2,-9.69,0.5600000000000001,-0.82,1.31,-0.41,-0.55
2.820238947868347,2,3,3,2,-9.74,0.48,-0.6899999999999999,1.33,-0.3,-0.59
2.830238938331604,2,3,3,2,-9.640000000000001,0.58,-0.6,1.28,-0.27,-0.68
2.840238928794861,2,3,3,2,-9.69,0.5600000000000001,-0.57,1.11,-0.14,-0.8
2.850238919258118,2,3,3,2,-9.789999999999999,0.57,-0.74,1.28,-0.05,-0.8
2.860238909721375,2,3,3,2,-9.789999999999999,0.48,-0.64,1.28,-0.2,-0.82
2.870238900184631,2,3,3,2,-9.76,0.32,-0.63,1.28,-0.23,-0.76
2.880239129066467,2,3,3,2,-9.67,0.31,-0.6899999999999999,1.29,-0.27,-0.75
2.890239119529724,2,3,3,2,-9.67,0.31,-0.6899999999999999,1.32,-0.53,-0.85
2.900239109992981,2,3,3,2,-9.779999999999999,0.38,-0.63,1.3,-0.73,-0.9
2.910239100456238,2,3,3,2,-9.82,0.37,-0.61,1.35,-0.53,-0.72
2.920239090919495,2,3,3,2,-9.720000000000001,0.35,-0.7,1.35,-0.4,-0.66
2.930239081382751,2,3,3,2,-9.720000000000001,0.35,-0.7,1.26,-0.24,-0.71
2.940239071846008,2,3,3,2,-9.789999999999999,0.35,-0.58,1.16,-0.33,-0.6899999999999999
2.950239062309265,2,3,3,2,-9.73,0.37,-0.73,1.07,-0.17,-0.6899999999999999
2.960239052772522,2,3,3,2,-9.74,0.34,-0.79,0.99,-0.07000000000000001,-0.74
2.970239043235779,2,3,3,2,-9.800000000000001,0.33,-0.71,1.02,-0.11,-0.84
2.980239033699036,2,3,3,2,-9.81,0.15,-0.73,0.91,-0.11,-0.89
2.990239024162292,2,3,3,2,-9.81,0.11,-0.75,0.84,0.01,-0.85
3.000239014625549,2,3,3,2,-9.710000000000001,0.21,-0.77,0.8,-0.05,-0.88
3.010239005088806,2,3,3,2,-9.69,0.41,-0.71,0.77,-0.18,-1.03
3.020238995552063,2,3,3,2,-9.77,0.31,-0.63,0.6899999999999999,-0.21,-1.1
3.03023898601532,2,3,3,2,-9.76,0.22,-0.63,0.68,-0.15,-1.05
3.040238976478577,2,3,3,2,-9.720000000000001,0.2,-0.64,0.76,-0.21,-1.02
3.050238966941833,2,3,3,2,-9.73,0.27,-0.75,1.01,-0.28,-1.01
3.06023895740509,2,3,3,2,-9.720000000000001,0.37,-0.59,1.07,-0.26,-1.01
3.070238947868347,2,3,3,2,-9.74,0.39,-0.62,0.82,-0.27,-1.02
3.080238938331604,2,3,3,2,-9.779999999999999,0.32,-0.49,0.67,-0.27,-0.96
3.090238928794861,2,3,3,2,-9.779999999999999,0.32,-0.49,0.54,-0.1,-0.83
3.100238919258118,2,3,3,2,-9.74,0.25,-0.72,0.55,-0.04,-0.87
3.110238909721375,2,3,3,2,-9.789999999999999,0.28,-0.6,0.58,-0.13,-0.92
3.120238900184631,2,3,3,2,-9.74,0.3,-0.51,0.6899999999999999,-0.32,-0.99
3.130239129066467,2,3,3,2,-9.699999999999999,0.34,-0.5,0.74,-0.38,-1.09
3.140239119529724,2,3,3,2,-9.73,0.36,-0.6,0.82,-0.32,-1.15
3.150239109992981,2,3,3,2,-9.76,0.3,-0.67,0.75,-0.26,-1.17
3.160239100456238,2,3,3,2,-9.779999999999999,0.42,-0.68,0.92,-0.3,-1.13
3.170239090919495,2,3,3,2,-9.84,0.36,-0.6,0.79,-0.34,-1
3.180239081382751,2,3,3,2,-9.699999999999999,0.41,-0.39,0.83,-0.41,-0.88
3.190239071846008,2,3,3,2,-9.630000000000001,0.5,-0.5,0.89,-0.42,-0.88
3.200239062309265,2,3,3,2,-9.710000000000001,0.43,-0.5600000000000001,0.87,-0.34,-0.9
3.210239052772522,2,3,3,2,-9.83,0.24,-0.44,1.01,-0.2,-0.75
3.220239043235779,2,3,3,2,-9.69,0.32,-0.46,1.17,-0.29,-0.75
3.230239033699036,2,3,3,2,-9.69,0.36,-0.39,1.3,-0.32,-0.83
3.240239024162292,2,3,3,2,-9.69,0.33,-0.39,1.4,-0.35,-0.79
3.250239014625549,2,3,3,2,-9.699999999999999,0.41,-0.53,1.58,-0.28,-0.8100000000000001
3.260239005088806,2,3,3,2,-9.869999999999999,0.34,-0.44,1.44,-0.2,-0.79
3.270238995552063,2,3,3,2,-9.82,0.23,-0.51,1.28,-0.4,-0.62
3.28023898601532,2,3,3,2,-9.800000000000001,0.22,-0.62,1.17,-0.53,-0.52
3.290238976478577,2,3,3,2,-9.9,0.18,-0.57,0.96,-0.66,-0.38
3.300238966941833,2,3,3,2,-9.800000000000001,-0.11,-0.5,0.96,-0.77,-0.24
3.31023895740509,2,3,3,2,-9.710000000000001,-0.1,-0.43,1.21,-0.71,-0.34
3.320238947868347,2,3,3,2,-9.699999999999999,-0.08,-0.47,1.19,-0.63,-0.48
3.330238938331604,2,3,3,2,-9.67,0.02,-0.52,1.28,-0.45,-0.54
3.341239094734192,2,3,3,2,-10.03,0,-0.73,0.6899999999999999,-0.27,-0.58
3.351239085197449,2,3,3,2,-10.14,-0.48,-0.61,0.38,-0.31,-0.16
3.361239075660706,2,3,3,2,-9.84,-0.64,-0.42,0.65,-0.68,0.14
3.371239066123962,2,3,3,2,-9.5,-0.55,-0.39,0.67,-0.68,-0.13
3.381239056587219,2,3,3,2,-9.57,-0.36,-0.53,0.65,-0.29,-0.34
3.391239047050476,2,3,3,2,-9.77,-0.35,-0.58,0.57,-0.07000000000000001,-0.44
3.401239037513733,2,3,3,2,-9.82,-0.29,-0.66,0.71,-0.14,-0.55
3.41123902797699,2,3,3,2,-9.779999999999999,-0.25,-0.54,0.86,-0.29,-0.67
3.421239018440247,2,3,3,2,-9.710000000000001,-0.1,-0.51,1.02,-0.35,-0.75
3.431239008903503,2,3,3,2,-9.789999999999999,-0.16,-0.51,1.31,-0.18,-0.74
3.44123899936676,2,3,3,2,-9.880000000000001,-0.16,-0.45,1.37,-0.17,-0.8
3.451238989830017,2,3,3,2,-9.82,-0.09,-0.44,1.42,-0.21,-0.92
3.461238980293274,2,3,3,2,-9.73,0.22,-0.28,1.67,-0.24,-1.15
3.471238970756531,2,3,3,2,-9.73,0.37,-0.23,2,-0.22,-1.39
3.481238961219788,2,3,3,2,-9.69,0.62,-0.4,2.15,-0.13,-1.5
3.491238951683044,2,3,3,2,-9.83,0.85,-0.61,1.74,0.3,-1.41
3.501238942146301,2,3,3,2,-10.17,0.1,-0.71,1.47,0.25,-0.82
3.511238932609558,2,3,3,2,-10.03,-0.21,-0.63,1.2,-0.22,-0.53
3.521238923072815,2,3,3,2,-9.970000000000001,-0.4,-0.63,0.88,-0.31,-0.6899999999999999
3.531238913536072,2,3,3,2,-9.94,-0.5600000000000001,-0.61,0.4,-0.32,-0.93
3.541238903999329,2,3,3,2,-9.890000000000001,-0.61,-0.63,0.27,-0.11,-1.19
3.551239132881165,2,3,3,2,-9.81,-0.64,-0.65,0.36,0.08,-1.31
3.561239123344421,2,3,3,2,-9.66,-0.58,-0.71,0.15,0.32,-1.51
3.571239113807678,2,3,3,2,-9.609999999999999,-0.59,-0.77,-0.22,0.67,-1.68
3.581239104270935,2,3,3,3,-9.9,-1.08,-0.7,-0.33,0.9,-1.48
3.591239094734192,2,3,3,3,-9.85,-1.16,-0.52,-0.42,0.62,-1.33
3.601239085197449,2,3,3,3,-9.699999999999999,-1.11,-0.48,-0.4,0.32,-1.37
3.611239075660706,2,3,3,3,-9.550000000000001,-0.87,-0.49,-0.23,0.47,-1.38
3.621239066123962,2,3,3,3,-9.6,-0.43,-0.38,0.07000000000000001,0.77,-1.39
3.631239056587219,2,3,3,3,-9.67,-0.34,-0.47,0.11,0.88,-1.49
3.641239047050476,2,3,3,3,-9.76,-0.35,-0.51,-0.13,0.86,-1.49
3.651239037513733,2,3,3,3,-9.73,-0.33,-0.65,-0.22,0.78,-1.37
3.66123902797699,2,3,3,3,-9.789999999999999,-0.3,-0.57,-0.19,0.92,-1.18
3.671239018440247,2,3,3,3,-9.699999999999999,-0.3,-0.52,-0.16,0.7,-0.87
3.681239008903503,2,3,3,3,-9.640000000000001,-0.32,-0.47,-0.34,0.55,-0.76
3.69123899936676,2,3,3,3,-9.640000000000001,-0.34,-0.39,-0.31,0.59,-0.77
3.701238989830017,2,3,3,3,-9.609999999999999,-0.19,-0.59,-0.12,0.53,-0.83
3.711238980293274,2,3,3,3,-9.710000000000001,-0.08,-0.5600000000000001,0.01,0.6,-0.85
3.721238970756531,2,3,3,3,-9.82,-0.02,-0.6,0.07000000000000001,0.6,-0.76
3.731238961219788,2,3,3,3,-10.02,-0.03,-0.8,-0.08,0.5,-0.64
3.741238951683044,2,3,3,3,-10.07,-0.18,-0.8,-0.39,0.22,-0.45
3.751238942146301,2,3,3,3,-10.02,-0.38,-0.79,-0.58,-0.01,-0.24
3.761238932609558,2,3,3,3,-9.92,-0.62,-0.68,-0.78,-0.19,-0.13
3.771238923072815,2,3,3,3,-9.630000000000001,-0.75,-0.6,-0.71,-0.04,-0.22
3.781238913536072,2,3,3,3,-9.57,-0.68,-0.67,-0.44,0.29,-0.36
3.791238903999329,2,3,3,3,-9.609999999999999,-0.68,-0.7,-0.24,0.55,-0.51
3.801239132881165,2,3,3,3,-9.66,-0.64,-0.8100000000000001,-0.09,0.51,-0.6
3.811239123344421,2,3,3,3,-9.640000000000001,-0.4,-0.83,0.09,0.34,-0.55
3.821239113807678,2,3,3,3,-9.720000000000001,-0.42,-0.9399999999999999,0.06,0.31,-0.51
3.831239104270935,2,3,3,3,-9.82,-0.54,-0.92,0.07000000000000001,0.46,-0.47
3.841239094734192,2,3,3,3,-9.9,-0.66,-0.83,0.09,0.24,-0.34
3.851239085197449,2,3,3,3,-9.789999999999999,-0.74,-0.75,-0.1,-0.07000000000000001,-0.38
3.861239075660706,2,3,3,3,-9.66,-0.7,-0.72,-0.18,-0.1,-0.47
3.871239066123962,2,3,3,3,-9.630000000000001,-0.5600000000000001,-0.72,-0.17,0.15,-0.53
3.881239056587219,2,3,3,3,-9.69,-0.5,-0.76,-0.27,0.43,-0.61
3.891239047050476,2,3,3,3,-9.800000000000001,-0.5,-0.9,-0.43,0.49,-0.65
3.901239037513733,2,3,3,3,-9.81,-0.6,-0.92,-0.67,0.37,-0.63
3.91123902797699,2,3,3,3,-9.779999999999999,-0.62,-0.79,-0.62,0.28,-0.63
3.921239018440247,2,3,3,3,-9.779999999999999,-0.64,-0.83,-0.59,0.26,-0.64
3.931239008903503,2,3,3,3,-9.73,-0.57,-0.8100000000000001,-0.63,0.24,-0.62
3.94123899936676,2,3,3,3,-9.710000000000001,-0.59,-0.78,-0.54,0.22,-0.58
3.951238989830017,2,3,3,3,-9.619999999999999,-0.58,-0.86,-0.47,0.12,-0.59
3.961238980293274,2,3,3,3,-9.66,-0.5,-0.89,-0.51,0.19,-0.6
3.971238970756531,2,3,3,3,-9.82,-0.63,-0.77,-0.6899999999999999,0.07000000000000001,-0.55
3.981238961219788,2,3,3,3,-9.83,-0.6899999999999999,-0.64,-0.66,-0.01,-0.48
3.991238951683044,2,3,3,3,-9.789999999999999,-0.77,-0.61,-0.84,0,-0.39
4.001238942146301,2,3,3,3,-9.74,-0.77,-0.75,-0.83,0.1,-0.32
4.011238932609558,2,3,3,3,-9.710000000000001,-0.72,-0.73,-0.54,0.13,-0.33
4.021238923072815,2,3,3,3,-9.69,-0.7,-0.71,-0.25,0.06,-0.37
4.031238913536072,2,3,3,3,-9.66,-0.7,-0.66,-0.06,-0.07000000000000001,-0.42
4.041238903999329,2,3,3,3,-9.65,-0.6899999999999999,-0.65,0.12,-0.03,-0.39
4.051239132881165,2,3,3,3,-9.81,-0.59,-0.85,0.1,-0.02,-0.32
4.061239123344421,2,3,3,3,-9.859999999999999,-0.61,-0.75,-0.14,-0.11,-0.22
4.071239113807678,2,3,3,3,-9.84,-0.71,-0.66,-0.43,-0.1,-0.09
4.081239104270935,2,3,3,3,-9.779999999999999,-0.8100000000000001,-0.6,-0.27,-0.08,0.02
4.091239094734192,2,3,3,3,-9.720000000000001,-0.84,-0.67,-0.23,0,-0.03
4.101239085197449,2,3,3,3,-9.699999999999999,-0.78,-0.75,-0.06,0.02,-0.16
4.111239075660706,2,3,3,3,-9.710000000000001,-0.72,-0.77,0.07000000000000001,0.09,-0.15
4.121239066123962,2,3,3,3,-9.74,-0.64,-0.74,0.1,0.1,-0.15
4.131239056587219,2,3,3,3,-9.73,-0.58,-0.8,0.08,0.11,-0.14
4.141239047050476,2,3,3,3,-9.800000000000001,-0.59,-0.83,0.19,0.11,-0.1
4.151239037513733,2,3,3,3,-9.83,-0.66,-0.87,-0.02,0.05,-0.02
4.16123902797699,2,3,3,3,-9.859999999999999,-0.72,-0.84,-0.2,-0.07000000000000001,0.08
4.171239018440247,2,3,3,3,-9.73,-0.75,-0.65,-0.21,-0.27,0.07000000000000001
4.19123899936676,2,3,3,2,-9.69,-0.64,-0.63,0.07000000000000001,-0.12,-0.06
4.201238989830017,2,3,3,2,-9.710000000000001,-0.6,-0.78,0.19,-0.02,-0.09
4.211238980293274,2,3,3,2,-9.699999999999999,-0.43,-0.77,0.39,0.01,-0.12
4.221238970756531,2,3,3,2,-9.609999999999999,-0.25,-0.89,0.5,-0.16,-0.14
4.231238961219788,2,3,3,2,-9.800000000000001,-0.39,-0.8100000000000001,0.05,-0.02,-0.17
4.241238951683044,2,3,3,2,-9.9,-0.48,-0.7,-0.08,0.16,0.08
4.251238942146301,2,3,3,2,-9.75,-0.68,-0.73,-0.28,-0.2,0.11
4.261238932609558,2,3,3,2,-9.710000000000001,-0.66,-0.73,-0.39,-0.24,0.07000000000000001
4.271238923072815,2,3,3,2,-9.76,-0.61,-0.68,-0.17,-0.1,0.02
4.281238913536072,2,3,3,2,-9.82,-0.59,-0.71,-0.01,0,0.09
4.291238903999329,2,3,3,2,-9.73,-0.42,-0.82,0.05,-0.05,0.08
4.301239132881165,2,3,3,2,-9.75,-0.42,-0.89,-0.19,-0.1,0.06
4.311239123344421,2,3,3,2,-9.77,-0.53,-0.77,-0.39,-0.14,0.11
4.321239113807678,2,3,3,2,-9.710000000000001,-0.63,-0.67,-0.38,-0.17,0.13
4.331239104270935,2,3,3,2,-9.68,-0.77,-0.64,-0.44,-0.09,0.12
4.341239094734192,2,3,3,2,-9.710000000000001,-0.71,-0.7,-0.43,0.05,0.12
4.351239085197449,2,3,3,2,-9.76,-0.6899999999999999,-0.8100000000000001,-0.24,0.03,0.08
4.362239003181458,2,3,3,2,-9.779999999999999,-0.68,-0.79,-0.11,0.07000000000000001,0.1
4.372238993644714,2,3,3,2,-9.710000000000001,-0.68,-0.71,-0.09,0.07000000000000001,0.05
4.382238984107971,2,3,3,2,-9.699999999999999,-0.67,-0.6899999999999999,-0.02,0.06,0.01
4.392238974571228,2,3,3,2,-9.699999999999999,-0.67,-0.66,-0.07000000000000001,0.03,-0.01
4.402238965034485,2,3,3,2,-9.76,-0.66,-0.8,-0.12,0.03,-0.02
4.412238955497742,2,3,3,2,-9.73,-0.65,-0.71,-0.19,0.04,0.04
4.422238945960999,2,3,3,2,-9.699999999999999,-0.62,-0.64,-0.31,0.05,0.05
4.432238936424255,2,3,3,2,-9.68,-0.5600000000000001,-0.64,-0.35,0.12,0.05
4.442238926887512,2,3,3,2,-9.66,-0.55,-0.72,-0.49,0.22,0.02
4.452238917350769,2,3,3,2,-9.710000000000001,-0.53,-0.88,-0.52,0.22,0.02
4.462238907814026,2,3,3,2,-9.75,-0.46,-0.8100000000000001,-0.53,0.19,0.02
4.472238898277283,2,3,3,2,-9.800000000000001,-0.58,-0.68,-0.47,0.1,0.13
4.482239127159119,2,3,3,2,-9.76,-0.65,-0.6,-0.41,0.06,0.26
4.492239117622375,2,3,3,2,-9.720000000000001,-0.6899999999999999,-0.64,-0.22,0.06,0.19
4.502239108085632,2,3,3,2,-9.73,-0.73,-0.75,-0.09,0,0.14
4.512239098548889,2,3,3,2,-9.779999999999999,-0.6899999999999999,-0.72,0.25,0.05,0.15
4.522239089012146,2,3,3,2,-9.789999999999999,-0.59,-0.71,0.48,0.1,0.08
4.532239079475403,2,3,3,2,-9.73,-0.28,-0.65,0.65,0,0.03
4.54223906993866,2,3,3,2,-9.76,-0.21,-0.67,0.6899999999999999,-0.05,0.04
4.552239060401917,2,3,3,2,-9.859999999999999,-0.3,-0.84,0.43,0.01,0.06
4.562239050865173,2,3,3,2,-10.01,-0.59,-0.78,0.26,-0.05,0.2
4.57223904132843,2,3,3,2,-9.960000000000001,-0.51,-0.64,0.17,-0.26,0.2
4.582239031791687,2,3,3,2,-9.869999999999999,-0.5,-0.63,0.26,-0.29,0.14
4.592239022254944,2,3,3,2,-9.800000000000001,-0.53,-0.71,0.27,-0.02,0.03
4.602239012718201,2,3,3,2,-9.76,-0.59,-0.86,0.37,0.21,-0.13
4.612239003181458,2,3,3,2,-9.74,-0.5600000000000001,-0.84,0.41,0.22,-0.34
4.622238993644714,2,3,3,2,-9.77,-0.49,-0.8,0.53,0.13,-0.38
4.632238984107971,2,3,3,2,-9.75,-0.48,-0.73,0.58,0.15,-0.36
4.642238974571228,2,3,3,2,-9.720000000000001,-0.54,-0.86,0.35,0.19,-0.38
4.652238965034485,2,3,3,2,-9.789999999999999,-0.66,-0.84,0.11,0.32,-0.28
4.662238955497742,2,3,3,2,-9.81,-0.8,-0.7,0.06,0.29,-0.26
4.672238945960999,2,3,3,2,-9.76,-0.82,-0.52,-0.11,0.13,-0.35
4.682238936424255,2,3,3,2,-9.66,-0.58,-0.57,-0.22,0,-0.38
4.692238926887512,2,3,3,2,-9.710000000000001,-0.53,-0.65,-0.09,0.18,-0.32
4.702238917350769,2,3,3,2,-9.710000000000001,-0.48,-0.72,-0.01,0.33,-0.25
4.712238907814026,2,3,3,2,-9.68,-0.48,-0.78,-0.21,0.35,-0.25
4.722238898277283,2,3,3,2,-9.67,-0.39,-0.77,-0.26,0.47,-0.28
4.732239127159119,2,3,3,2,-9.69,-0.29,-0.78,-0.28,0.5,-0.22
4.742239117622375,2,3,3,2,-9.74,-0.28,-0.79,-0.3,0.49,-0.12
4.752239108085632,2,3,3,2,-9.779999999999999,-0.36,-0.86,-0.47,0.29,0
4.762239098548889,2,3,3,2,-9.74,-0.38,-0.6,-0.54,0.09,0.06
4.772239089012146,2,3,3,2,-9.710000000000001,-0.34,-0.63,-0.4,0.02,0.03
4.782239079475403,2,3,3,2,-9.710000000000001,-0.35,-0.64,-0.28,-0.06,-0.06
4.79223906993866,2,3,3,2,-9.720000000000001,-0.39,-0.63,-0.13,-0.04,-0.05
4.802239060401917,2,3,3,2,-9.68,-0.41,-0.76,0.04,-0.12,-0.03
4.812239050865173,2,3,3,2,-9.720000000000001,-0.45,-0.76,0.15,-0.19,-0.05
4.82223904132843,2,3,3,2,-9.779999999999999,-0.41,-0.73,0.3,-0.25,0.01
4.832239031791687,2,3,3,2,-9.82,-0.31,-0.77,0.36,-0.11,0.02
4.842239022254944,2,3,3,2,-9.960000000000001,-0.51,-0.87,0.06,-0.03,0.15
4.852239012718201,2,3,3,2,-9.93,-0.59,-0.8100000000000001,-0.02,-0.04,0.29
4.862239003181458,2,3,3,2,-9.859999999999999,-0.65,-0.72,-0.07000000000000001,-0.13,0.3
4.872238993644714,2,3,3,2,-9.789999999999999,-0.62,-0.73,-0.07000000000000001,-0.13,0.21
4.882238984107971,2,3,3,2,-9.699999999999999,-0.57,-0.8,0.01,0,0.12
4.892238974571228,2,3,3,2,-9.710000000000001,-0.54,-0.89,0.14,0.11,0.07000000000000001
4.902238965034485,2,3,3,2,-9.73,-0.54,-0.97,0.06,0.05,0.02
4.912238955497742,2,3,3,2,-9.710000000000001,-0.52,-0.85,-0.03,0.01,0.1
4.922238945960999,2,3,3,2,-9.710000000000001,-0.46,-0.83,-0.15,-0.06,0.15
4.932238936424255,2,3,3,2,-9.789999999999999,-0.52,-0.77,-0.25,-0.16,0.19
4.942238926887512,2,3,3,2,-9.84,-0.7,-0.59,-0.31,-0.18,0.39
4.952238917350769,2,3,3,2,-9.73,-0.71,-0.58,0.06,-0.3,0.46
4.962238907814026,2,3,3,2,-9.630000000000001,-0.54,-0.63,0.26,-0.38,0.33
4.972238898277283,2,3,3,2,-9.67,-0.36,-0.71,0.28,-0.19,0.24
4.982239127159119,2,3,3,2,-9.720000000000001,-0.26,-0.8,0.24,-0.12,0.23
4.992239117622375,2,3,3,2,-9.81,-0.27,-0.82,-0.04,-0.13,0.26
5.002239108085632,2,3,3,2,-9.859999999999999,-0.47,-0.74,-0.36,-0.18,0.46
5.012239098548889,2,3,3,2,-9.720000000000001,-0.45,-0.75,-0.45,-0.32,0.63
5.022239089012146,2,3,3,2,-9.800000000000001,-0.67,-0.67,-0.99,-0.49,0.65
5.032239079475403,2,3,3,2,-9.789999999999999,-0.76,-0.55,-1.2,-0.41,0.82
5.04223906993866,2,3,3,2,-9.69,-0.79,-0.57,-0.86,-0.54,0.79
5.052239060401917,2,3,3,2,-9.66,-0.7,-0.6899999999999999,-0.55,-0.53,0.61
5.062239050865173,2,3,3,2,-9.66,-0.65,-0.73,-0.18,-0.38,0.47
5.07223904132843,2,3,3,2,-9.76,-0.6,-0.66,0.2,-0.24,0.39
5.082239031791687,2,3,3,2,-9.76,-0.4,-0.63,0.44,-0.3,0.27
5.092239022254944,2,3,3,2,-9.68,-0.28,-0.67,0.48,-0.43,0.14
5.102239012718201,2,3,3,2,-9.630000000000001,-0.08,-0.78,0.41,-0.48,0.13
5.182238936424255,2,3,3,2,-10.36,0.05,0.16,1.86,-2.65,2.78
5.212238907814026,2,3,3,2,-9.59,-0.16,-0.26,1.78,-1.93,2.12
5.242239117622375,2,3,3,2,-9.5,0.2,-0.71,1.67,-0.99,1.64
5.252239108085632,2,3,3,2,-9.6,0.4,-1.06,1.11,-0.9399999999999999,1.51
5.262239098548889,2,3,3,2,-9.91,0.01,-0.87,0.08,-0.84,1.72
5.272239089012146,2,3,3,2,-9.82,-0.2,-0.57,-0.25,-1.19,2.27
5.282239079475403,2,3,3,2,-9.210000000000001,0.15,-0.18,-0.21,-1.63,2.3
5.29223906993866,2,3,3,2,-9.17,0.55,-0.14,0.13,-1.59,1.91
5.302239060401917,2,3,3,2,-9.26,0.96,-0.22,0.24,-1.57,1.54
5.312239050865173,2,3,3,2,-9.41,1.32,-0.08,0.11,-1.86,1.29
5.32223904132843,2,3,3,2,-9.58,1.9,0.57,0.01,-2.35,1.23
5.332239031791687,2,3,3,2,-9.48,2.36,0.82,-0.14,-2.97,1.26
5.342239022254944,2,3,3,2,-9.470000000000001,2.86,0.97,-0.31,-3.5,1.37
5.352239012718201,2,3,3,2,-9.58,2.99,1.36,-0.36,-3.73,1.64
5.362239003181458,2,3,3,2,-9.58,3.31,1.47,-0.27,-3.81,2.1
5.372238993644714,2,3,3,2,-9.4,3.59,1.31,-0.51,-3.99,2.45
5.383238911628723,2,3,3,2,-9.42,3.31,2.08,-0.8100000000000001,-3.97,3.15
5.39323890209198,2,3,3,2,-9.26,3.44,1.87,0.86,-3.39,4.19
5.403239130973816,2,3,3,2,-8.869999999999999,2.56,1.64,-0.18,-3.32,4.57
5.413239121437073,2,3,3,2,-8.81,2.45,1.86,-1.1,-2.95,5.22
5.42323911190033,2,3,3,2,-8.48,2.53,1.83,-0.42,-2.92,5.8
5.433239102363586,2,3,3,2,-8.07,3.41,1.01,0.53,-3.3,5.72
5.443239092826843,2,3,3,2,-8.1,2.75,1.25,1.13,-3.59,5.6
5.4532390832901,2,3,3,2,-8.380000000000001,1.52,1.41,1.67,-3.04,5.77
5.463239073753357,2,3,3,2,-8.34,1.07,1.09,2.3,-2.45,6.68
5.473239064216614,2,3,3,2,-8.1,1.83,0.62,2.91,-3.05,7.7
5.483239054679871,2,3,3,2,-7.8,2.68,0.64,4.28,-4.24,8.210000000000001
5.493239045143127,2,3,3,2,-7.32,3.15,0.78,5.38,-6.04,8.15
5.503239035606384,2,3,3,2,-7.27,3.15,0.57,6.2,-7.1,7.35
5.513239026069641,2,3,3,2,-8.220000000000001,2.56,-0.28,5.89,-6.87,6.63
5.523239016532898,2,3,3,2,-8.109999999999999,1.73,0.23,4.4,-7.33,6.69
5.533239006996155,2,3,3,2,-8.130000000000001,1.49,0.82,4.5,-7.93,7.26
5.543238997459412,2,3,3,2,-8.65,1.8,0.5600000000000001,5.24,-5.47,8.109999999999999
5.553238987922668,2,3,3,2,-9.83,3.62,-0.47,5.06,-3.47,8.83
5.563238978385925,2,3,3,2,-10.17,3.61,-0.19,5.32,-4.2,9.09
5.573238968849182,2,3,3,2,-9.52,1.6,0.29,4.57,-7.44,8.5
5.583238959312439,2,3,3,2,-9.65,0.39,0.45,1.75,-9.449999999999999,8.06
5.593238949775696,2,3,3,2,-10.51,0.77,0,-0.29,-7.65,8.6
5.603238940238953,2,3,3,2,-10.9,2,0.64,-0.85,-8.15,8.67
5.613238930702209,2,3,3,2,-10.89,2.23,1.39,2.49,-8.33,7.42
5.623238921165466,2,3,3,2,-11.48,0.99,0.51,3.87,-5.57,6.29
5.633238911628723,2,3,3,2,-12.71,-1.79,-0.59,1.51,-2.05,6.35
5.64323890209198,2,3,3,2,-12.8,-1.86,0.28,-1.42,-1.65,7.47
5.653239130973816,2,3,3,2,-12.76,-2.11,0.86,-1.08,-2.6,8.220000000000001
5.663239121437073,2,3,3,2,-13.11,-2.05,1.14,0.6899999999999999,-2.5,7.32
5.67323911190033,2,3,3,2,-13.78,-3,0.62,2.56,-1.76,5.24
5.683239102363586,2,3,3,2,-14.13,-3.07,0.44,3.56,-1.18,3.76
5.693239092826843,2,3,3,2,-14.71,-3.7,0.14,4.54,-0.98,3.61
5.7032390832901,2,3,3,2,-15.23,-5.8,-0.43,5.37,-0.6899999999999999,2.99
5.713239073753357,2,3,3,2,-14.72,-9.42,-0.18,5.28,-0.49,1.38
5.723239064216614,2,3,3,2,-14.49,-10.95,-1.05,5.2,0.31,-0.8100000000000001
5.733239054679871,2,3,3,2,-15,-11.69,-1.88,5.88,-0.82,-5.92
5.743239045143127,2,3,3,2,-16.13,-10.99,-1.94,5.88,-0.82,-5.92
5.753239035606384,2,3,3,2,-20.12,-6.17,-2.62,6.82,-3.66,-9.74
5.763239026069641,2,3,3,2,-22.76,-2.26,-1.55,7.38,-6.36,-13.96
5.773239016532898,2,3,3,2,-26.09,1.13,-0.8100000000000001,6.31,-6.93,-16.84
5.783239006996155,2,3,3,2,-30.42,3.11,0.07000000000000001,-4.65,-0.73,-13.14
5.793238997459412,2,3,3,2,-34.79,4.69,2.45,-4.65,-0.73,-13.14
5.803238987922668,2,3,3,2,-30.73,3.48,3.39,-9.02,3.85,-8.01
5.813238978385925,2,3,3,2,-24.67,2.14,4.03,-11.61,9.44,-9.49
5.823238968849182,2,3,3,2,-19.6,1.54,4.61,-10.94,9.859999999999999,-10.8
5.833238959312439,2,3,3,2,-14.22,3.09,4.3,-9.77,9.19,-11.16
5.843238949775696,2,3,3,2,-12.23,4.43,3.64,-9.77,9.19,-11.16
5.853238940238953,2,3,3,2,-9.6,5.64,2.35,-9.4,8.56,-10.96
5.863238930702209,2,3,3,2,-6.22,4.05,1.98,-12.29,15.57,-7.69
5.873238921165466,2,3,3,2,-3.45,0.22,3.6,-7.33,19.35,-5.23
5.883238911628723,2,3,3,2,-2.64,3.25,2.97,1.97,16.47,-2.91
5.89323890209198,2,3,3,2,0.08,9.92,3.29,4.05,13.85,-2.03
5.903239130973816,2,3,3,2,1.06,16.64,2.96,0.6899999999999999,12.43,-1.57
5.913239121437073,2,3,3,2,3.37,26.14,2.73,-4.67,6.63,-1.59
5.92323911190033,2,3,3,2,3.66,18.54,1.35,-15.61,4.49,-2.16
5.933239102363586,2,3,3,2,2.38,7.46,-0.32,-20.91,1.45,-3.31
5.943239092826843,2,3,3,2,0.65,-0.98,-0.32,-15.97,-2.75,-2.75
5.9532390832901,2,3,3,2,-2.09,0.27,2,-9,-5.16,-0.35
5.963239073753357,2,3,3,2,-2.01,3.12,2.57,-8.73,-4.65,1.41
5.973239064216614,2,3,3,2,-1.15,2.76,2.29,-12.09,-2.45,2.18
5.983239054679871,2,3,3,2,0.08,0.79,1.63,-14.41,-0.21,2.01
5.993239045143127,2,3,3,2,-0.3,-3.76,-0.73,-13.96,1.77,2.36
6.003239035606384,2,3,3,2,-0.91,-5.05,-1.46,-11.77,3.27,1.95
6.013239026069641,2,3,3,2,-1.58,-5.65,-1.73,-9,4.31,1.68
6.023239016532898,2,3,3,2,-1.55,-5.5,-1.98,-6.95,3.97,1.58
6.033239006996155,2,3,3,2,-0.17,-4.35,-1.43,-4.73,2.43,1.57
6.043238997459412,2,3,3,2,0.22,-3.43,-1.29,-1.21,0.26,1.85
6.053238987922668,2,3,3,2,0.25,-2.39,-1.07,2.09,-1.91,1.9
6.063238978385925,2,3,3,2,0.05,-1.18,-0.57,4.67,-3.43,1.72
6.073238968849182,2,3,3,2,-0.38,1.53,0.3,6.11,-4.13,1.63
6.083238959312439,2,3,3,2,-0.45,2.48,0.97,5.93,-4.33,1.56
6.093238949775696,2,3,3,2,-0.36,3.32,1.54,4.98,-4.18,1.41
6.103238940238953,2,3,3,2,-0.36,3.84,1.88,4,-3.63,1.52
6.113238930702209,2,3,3,2,-0.32,4.59,2.99,2.46,-2.8,1.72
6.123238921165466,2,3,3,2,-0.3,5.09,3.61,0.9,-2.25,1.83
6.133238911628723,2,3,3,2,-0.39,5.86,3.85,-0.18,-1.39,2.28
6.14323890209198,2,3,3,2,-0.85,6.87,3.37,-1.64,-1.18,3.23
6.153239130973816,2,3,3,2,-1.36,8.16,-0.42,-3.93,-1.97,4.78
6.163239121437073,2,3,3,2,-1.34,7.98,-1.79,-6.44,-0.62,6.2
6.17323911190033,2,3,3,2,-3.92,6.68,4,-0.32,-5.93,3.99
6.183239102363586,2,3,3,2,-4.1,14.6,11.7,14.21,-12.89,1.33
6.193239092826843,2,3,3,2,-14.6,-4.27,-3.77,-3.83,-6.25,-0.22
6.2032390832901,2,3,3,2,-24.31,-26.3,-5.86,-0.65,-9.74,-0.22
6.213239073753357,2,3,3,2,-35.28,-27.8,-3.81,18.15,-12.83,6.14
6.223239064216614,2,3,3,2,-31.87,-6.44,-6.73,23.68,-5.31,13.02
6.233239054679871,2,3,3,2,-21.47,11.22,-9.02,18.98,7.74,4.81
6.243239045143127,2,3,3,2,-15.17,0.19,-4.19,8.16,5.01,0.92
6.253239035606384,2,3,3,2,-11.9,-2.25,-4.09,2.96,2.78,3.52
6.263239026069641,2,3,3,2,-26.72,1.94,0.47,-0.4,2.09,1.59
6.273239016532898,2,3,3,2,-37.56,2.74,3.55,-8.06,1.41,1.64
6.353238940238953,2,3,3,2,-12.16,-3.23,-1.36,3.53,8.57,-7.32
6.363238930702209,2,3,3,2,-11.54,-0.55,-1.25,4.6,9.25,-8.01
6.373238921165466,2,3,3,2,-10.42,2.85,-1.28,3.42,8.460000000000001,-9.470000000000001
6.383238911628723,2,3,3,1,-8.77,2.71,-0.59,0.18,6.96,-9.550000000000001
6.39323890209198,2,3,3,1,-7.84,1.44,-0.7,-2.35,6,-7.72
6.403239130973816,2,3,3,1,-6.97,0.74,-0.88,-2.1,5.49,-5.61
6.414239048957825,2,3,3,1,-6.37,1.24,-0.95,-0.5600000000000001,5.21,-4.41
6.424239039421082,2,3,3,1,-6.1,1.62,-1.47,0.6,4.98,-4.29
6.434239029884338,2,3,3,1,-6.42,1.65,-1.4,0.82,5.13,-3.66
6.474238991737366,2,3,3,1,-5.91,1.1,-0.98,-2.57,5.66,-3.37
6.484238982200623,2,3,3,1,-6.13,0.9399999999999999,-0.9,-1.94,5.2,-3.45
6.494238972663879,2,3,3,1,-6.59,0.8100000000000001,-0.76,-1.51,4.5,-3.01
6.504238963127136,2,3,3,1,-9.25,3.52,-0.2,-0.05,3.32,-1.93
6.514238953590393,2,3,3,1,-11.5,4.93,1.78,-0.36,1.98,-0.46
6.52423894405365,2,3,3,1,-13.7,4.93,3.15,-3.65,1.17,0.5600000000000001
6.534238934516907,2,3,3,1,-14.52,3.65,3.3,-6.83,0.9399999999999999,0.89
6.544238924980164,2,3,3,1,-12.47,0.77,2.29,-6.25,1.55,-0.01
6.55423891544342,2,3,3,1,-10.35,-0.07000000000000001,1.21,-3.8,2.35,-0.63
6.564238905906677,2,3,3,1,-8.869999999999999,-0.89,-0.19,-0.91,2.35,-0.1
6.574238896369934,2,3,3,1,-8.59,-0.82,-1.38,2.25,1.78,1.13
6.58423912525177,2,3,3,1,-9.48,-0.66,-2.45,4.37,1.04,2.02
6.594239115715027,2,3,3,1,-9.869999999999999,-0.77,-2.64,5.19,0.59,2.14
6.604239106178284,2,3,3,1,-9.9,-0.6,-2.7,5.77,0.26,1.26
6.614239096641541,2,3,3,1,-9.720000000000001,-0.26,-2.43,5.99,0.02,0.17
6.624239087104797,2,3,3,1,-9.800000000000001,0.38,-1.85,5.54,0.17,-0.61
6.634239077568054,2,3,3,1,-10.1,0.64,-1.64,4.49,0.46,-1
6.644239068031311,2,3,3,1,-10.18,0.77,-1.32,3.09,0.65,-1.08
6.654239058494568,2,3,3,1,-9.94,0.8,-1.2,2.1,0.97,-1.09
6.664239048957825,2,3,3,1,-9.32,0.83,-0.91,1.44,1.03,-0.91
6.674239039421082,2,3,3,1,-8.99,0.88,-0.84,0.77,1,-0.73
6.684239029884338,2,3,3,1,-8.970000000000001,1.21,-0.84,0.73,0.8100000000000001,-0.71
6.694239020347595,2,3,3,1,-9,1.37,-0.74,0.74,0.48,-0.68
6.704239010810852,2,3,3,1,-9.24,1.74,-0.87,0.31,0.28,-0.41
6.714239001274109,2,3,3,1,-9.34,1.68,-0.91,0.2,0.02,-0.1
6.724238991737366,2,3,3,1,-9.380000000000001,1.56,-0.83,0.25,-0.17,0.33
6.734238982200623,2,3,3,1,-9.43,1.19,-0.72,0.59,-0.43,0.6899999999999999
6.744238972663879,2,3,3,1,-9.51,1.55,-0.57,1.15,-0.78,0.78
6.754238963127136,2,3,3,1,-9.74,1.21,-0.49,1.08,-1.01,0.55
6.764238953590393,2,3,3,1,-9.83,1.05,-0.55,1.05,-1.02,0.47
6.77423894405365,2,3,3,1,-10.02,0.62,-0.63,1.03,-0.88,0.74
6.784238934516907,2,3,3,1,-9.800000000000001,0,-0.97,1.14,-0.8,1.03
6.794238924980164,2,3,3,1,-9.720000000000001,0.23,-1.09,1.84,-0.63,1.02
6.80423891544342,2,3,3,1,-9.539999999999999,0.27,-1.3,2.46,-0.73,0.73
6.814238905906677,2,3,3,1,-9.58,0.2,-1.38,2.76,-0.88,0.64
6.824238896369934,2,3,3,1,-9.550000000000001,0.7,-1.4,2.78,-0.91,0.57
6.83423912525177,2,3,3,1,-9.619999999999999,0.6899999999999999,-1.43,2.57,-0.98,0.47
6.844239115715027,2,3,3,1,-9.41,1.2,-1.56,2.02,-1.22,0.3
6.854239106178284,2,3,3,1,-9.23,0.83,-1.48,1.47,-1.2,0.24
6.864239096641541,2,3,3,1,-9.48,1.11,-1.17,1.52,-1.04,0.7
6.874239087104797,2,3,3,1,-9.49,1.01,-0.9,1.15,-1.13,0.24
6.884239077568054,2,3,3,2,-9.5,1.02,-0.54,0.84,-1.12,-0.11
6.894239068031311,2,3,3,2,-9.57,0.35,-0.18,0.65,-1.03,-0.11
6.904239058494568,2,3,3,2,-9.609999999999999,1.57,-0.43,1.19,-0.97,0.32
6.914239048957825,2,3,3,2,-9.49,1.47,-0.05,0.66,-1.13,-0.02
6.924239039421082,2,3,3,2,-9.82,1.29,-0.09,0.32,-1.12,-0.13
6.934239029884338,2,3,3,2,-9.949999999999999,1.14,-0.07000000000000001,0.12,-1.05,0.1
6.944239020347595,2,3,3,2,-9.800000000000001,0.93,-0.18,-0.03,-0.93,0.33
6.954239010810852,2,3,3,2,-9.69,0.72,-0.26,-0.11,-0.83,0.19
6.964239001274109,2,3,3,2,-9.56,0.57,-0.3,-0.03,-0.85,0.07000000000000001
6.974238991737366,2,3,3,2,-9.470000000000001,0.75,-0.28,0.04,-0.92,-0.22
6.984238982200623,2,3,3,2,-9.74,0.48,-0.29,0.19,-1.07,-0.24
6.994238972663879,2,3,3,2,-9.789999999999999,0.6,-0.42,0.04,-1.01,-0.03
7.004238963127136,2,3,3,2,-9.720000000000001,0.73,-0.58,-0.12,-0.89,0.03
7.014238953590393,2,3,3,2,-9.66,0.45,-0.68,-0.5,-0.55,0.03
7.02423894405365,2,3,3,2,-9.609999999999999,0.38,-0.57,-0.72,-0.42,-0.14
7.034238934516907,2,3,3,2,-9.699999999999999,0.5600000000000001,-0.55,-0.76,-0.41,-0.36
7.044238924980164,2,3,3,2,-9.699999999999999,0.66,-0.36,-0.79,-0.51,-0.74
7.05423891544342,2,3,3,2,-9.779999999999999,0.78,-0.31,-0.83,-0.45,-0.9
7.064238905906677,2,3,3,2,-9.69,0.35,-0.33,-1.05,-0.36,-0.8
7.074238896369934,2,3,3,2,-9.789999999999999,0,-0.42,-1,-0.07000000000000001,-0.61
7.08423912525177,2,3,3,2,-9.74,0.24,-0.44,-0.72,-0.02,-0.6
7.094239115715027,2,3,3,2,-9.66,0.59,-0.29,-0.06,-0.41,-0.9
7.104239106178284,2,3,3,2,-9.699999999999999,0.5600000000000001,-0.15,0.28,-0.79,-1.23
7.114239096641541,2,3,3,2,-9.68,0.89,-0.02,0.74,-1.17,-1.38
7.124239087104797,2,3,3,2,-9.66,1.27,0.25,1.05,-1.39,-1.52
7.134239077568054,2,3,3,2,-9.59,1.33,0.38,0.88,-1.4,-1.58
7.144239068031311,2,3,3,2,-9.48,1.71,0.46,0.65,-1.42,-1.43
7.154239058494568,2,3,3,2,-9.380000000000001,2.14,0.57,0.42,-1.73,-1.5
7.164239048957825,2,3,3,2,-9.24,2.66,0.88,0.32,-2.27,-1.7
7.174239039421082,2,3,3,2,-8.970000000000001,3.87,1.64,0.6,-3.15,-1.88
7.184239029884338,2,3,3,2,-8.890000000000001,4.18,2.07,1.51,-4.28,-2.03
7.194239020347595,2,3,3,2,-8.84,4.38,2.39,2.96,-5.29,-1.8
7.204239010810852,2,3,3,2,-8.779999999999999,4.58,2.5,4.31,-6.3,-1.31
7.214239001274109,2,3,3,2,-8.720000000000001,4.71,2.94,5.46,-7.03,-0.29
7.224238991737366,2,3,3,2,-8.640000000000001,4.75,2.99,6.42,-7.7,1.15
7.234238982200623,2,3,3,2,-8.460000000000001,4.73,2.83,6.87,-8.199999999999999,2.59
7.244238972663879,2,3,3,2,-8.27,4.41,2.64,6.97,-8.31,3.85
7.254238963127136,2,3,3,2,-8.16,3.12,1.73,6.43,-7.96,4.91
7.264238953590393,2,3,3,2,-8.23,2.43,1.42,5.6,-7.28,5.82
7.27423894405365,2,3,3,2,-8.130000000000001,1.98,1.06,4.78,-6.5,6.4
7.284238934516907,2,3,3,2,-8.02,1.83,0.7,3.98,-5.54,6.54
7.294238924980164,2,3,3,2,-7.99,2.45,0.11,3.8,-4.81,6.55
7.30423891544342,2,3,3,2,-7.95,3.39,-0.45,3.98,-4.54,6.61
7.314238905906677,2,3,3,2,-8.17,4.23,-0.74,2.42,-4.72,7.06
7.324238896369934,2,3,3,2,-8.470000000000001,3.64,0.49,2.65,-6.3,8.17
7.33423912525177,2,3,3,2,-8.15,2.84,0.59,2.13,-8.619999999999999,9.720000000000001
7.344239115715027,2,3,3,2,-7.48,2.28,0.71,1.27,-10.26,10.74
7.354239106178284,2,3,3,2,-7.51,2.24,0.44,3.44,-8.5,12.07
7.364239096641541,2,3,3,2,-7.99,1.16,-0.09,3.13,-6.18,13.35
7.374239087104797,2,3,3,2,-9.24,-1.29,0.01,-0.74,-6.15,13.78
7.384239077568054,2,3,3,2,-9.98,-1.3,0.23,-1.71,-7.9,13.62
7.394239068031311,2,3,3,2,-10.17,-0.72,1.25,1.46,-9.56,11.88
7.404239058494568,2,3,3,2,-11.19,-0.68,1.52,4.11,-8.58,8.890000000000001
7.414239048957825,2,3,3,2,-12.21,-2.42,-0.24,3.27,-8.68,7.03
7.424239039421082,2,3,3,2,-12.71,-2.42,-0.98,1.56,-6.62,6.56
7.43523895740509,2,3,3,2,-12.72,-2.63,-1.27,-1,-5.32,7.07
7.445238947868347,2,3,3,2,-12.82,-2.18,-0.54,0.18,-3.98,6.84
7.455238938331604,2,3,3,2,-14.13,-1.68,-0.47,1.81,-2.83,6.02
7.465238928794861,2,3,3,2,-14.6,-2.66,-0.49,3.01,-1.9,5.24
7.475238919258118,2,3,3,2,-14.72,-3.96,-0.79,2.97,-0.76,4.67
7.485238909721375,2,3,3,2,-14.59,-4.53,-1.08,3.54,0.09,3.57
7.495238900184631,2,3,3,2,-15.25,-6.52,-2.09,4.18,0.6,2.02
7.505239129066467,2,3,3,2,-15.35,-8.5,-2.49,3.54,0.8100000000000001,0.11
7.515239119529724,2,3,3,2,-15.09,-10.32,-2.52,1.91,0.99,-1.71
7.525239109992981,2,3,3,2,-15.57,-11.67,-3.15,0.25,0.99,-3.87
7.535239100456238,2,3,3,1,-18.48,-11.15,-2.18,-1.23,0.39,-7.18
7.545239090919495,2,3,3,1,-21.06,-9.18,-1.69,-3.99,1.21,-10.72
7.555239081382751,2,3,3,1,-24.08,-6.11,-0.64,-7.76,3.16,-13.58
7.565239071846008,2,3,3,1,-28.44,-3.53,0.13,-11.19,6.52,-15.11
7.575239062309265,2,3,3,1,-39.03,-0.02,1.75,-12.76,9.35,-12.12
7.585239052772522,2,3,3,1,-37.31,0.93,2.57,-14.44,12.41,-8.449999999999999
7.595239043235779,2,3,3,1,-29.69,0.15,4.55,-16.18,15.44,-12.06
7.605239033699036,2,3,3,1,-23.94,0.76,5.82,-15.3,18.22,-16.91
7.615239024162292,2,3,3,1,-18.82,3.83,5.96,-13.68,18.86,-15.97
7.625239014625549,2,3,3,1,-16.64,6.11,5.82,-10.58,17.61,-13.75
7.635239005088806,2,3,3,0,-14.13,7.4,4.76,-7.86,16.4,-13.45
7.645238995552063,2,3,3,0,-11.93,5.66,3.14,-7.62,16.6,-12.92
7.65523898601532,2,3,3,0,-9.02,-3.31,0.77,-9.06,17.19,-11.46
7.665238976478577,2,3,3,0,-6.07,-2.5,0.96,-2.34,14.24,-10.31
7.675238966941833,2,3,3,0,-0.76,11.05,1.75,21.48,13.68,-10.92
7.68523895740509,2,3,3,0,2.31,28.09,3.86,25.42,11.75,-10.59
7.695238947868347,2,3,3,0,1.22,38.55,9.359999999999999,9.17,3.17,-6.17
7.705238938331604,2,3,3,0,1.23,27.45,7.91,-24,0.2,-3.34
7.715238928794861,2,3,3,0,1.47,2.6,3.13,-46.26,1.27,-2.19
7.725238919258118,2,3,3,0,1.23,-8.289999999999999,0.66,-30.63,-3.32,1.45
7.735238909721375,2,3,3,0,-2.36,0.07000000000000001,4.05,-9.82,-7.48,2.22
7.745238900184631,2,3,3,0,-2.91,2.67,3.96,2.79,-9.07,1.46
7.755239129066467,2,3,3,0,-2.57,2.26,2.31,3.98,-7.67,1.82
7.765239119529724,2,3,3,0,-0.7,0.88,0.99,0.6,-6.01,1.33
7.775239109992981,2,3,3,0,-0.09,-3.74,-0.59,-0.85,-3.37,1.28
7.785239100456238,2,3,3,0,-0.92,-4.39,-1.37,0.93,-1.61,3.04
7.795239090919495,2,3,3,0,-1.43,-4.51,-1.86,3.41,-1.18,4.24
7.805239081382751,2,3,3,0,-1.37,-3.51,-2.49,5.13,-1.55,4.68
7.815239071846008,2,3,3,0,-0.65,-1.27,-2.7,4.62,-2.18,4.35
7.825239062309265,2,3,3,0,-0.13,-1.51,-2.52,2.07,-3.12,4.02
7.835239052772522,2,3,3,0,0.15,-1.89,-2.31,0.86,-3.89,3.83
7.845239043235779,2,3,3,0,0.06,-2.4,-2.01,1.04,-4.34,3.61
7.855239033699036,2,3,3,0,-0.7,-2.8,-1.32,2.12,-4.56,3.1
7.865239024162292,2,3,3,0,-0.9,-2.53,-1.08,3.48,-4.52,2.7
7.875239014625549,2,3,3,0,-0.9399999999999999,-1.98,-0.75,4.16,-4.45,2.82
7.885239005088806,2,3,3,0,-0.6,-1.12,-0.31,4.65,-4.24,3.09
7.895238995552063,2,3,3,0,0.35,0.59,0.61,4.73,-3.68,2.82
7.90523898601532,2,3,3,0,0.51,1.57,0.76,4.37,-2.94,2.37
7.915238976478577,2,3,3,0,0.43,2.78,0.66,3.94,-2.13,2.08
7.925238966941833,2,3,3,0,0.16,4.49,0.68,3.17,-1.82,2.12
7.93523895740509,2,3,3,0,-0.61,7.52,1.37,1.45,-2.11,2.21
7.945238947868347,2,3,3,0,-1.31,7.4,2.04,-1.21,-2.53,2.32
7.955238938331604,2,3,3,0,-2.02,5.63,3.18,-2.38,-3.25,2.78
7.965238928794861,2,3,3,0,-2.12,5.81,2.53,0.84,-4.27,3.81
7.975238919258118,2,3,3,0,-1.48,7.8,0.05,5.92,-5.17,5.42
7.985238909721375,2,3,3,0,-0.76,7,-1.44,4.61,-3.88,7.34
7.995238900184631,2,3,3,0,-3.32,0.67,4.41,0.4,-2.27,7.43
8.005239129066467,2,3,3,0,-6.96,16.31,-1.17,18.36,-11.71,5.78
8.015239119529724,2,3,3,0,-20.1,-3.91,-10.78,11.78,-4.27,2.31
8.025239109992981,2,3,3,0,-34.33,-28.85,-6.47,-4.75,-3.91,1.41
8.035239100456238,2,3,3,0,-39.19,-26.09,-4.81,6.11,-13.14,8.52
8.045239090919495,2,3,3,0,-22.98,10.74,-6.19,16.45,1.15,8.48
8.055239081382751,2,3,3,0,-12.04,-0.09,-7.75,15.32,14.73,-5.63
8.065239071846008,2,3,3,0,-5.46,-9.18,-5.26,3.44,8.23,-2.68
8.075239062309265,2,3,3,0,-11.2,-3.2,-5.01,5.41,5.53,7.02
8.085239052772522,2,3,3,0,-37.58,15.69,7.84,8.199999999999999,0.02,3.29
8.095239043235779,2,3,3,0,-39.19,25.96,14.57,3.61,-4.25,1.24
8.105239033699036,2,3,3,0,-37.07,24.32,17.82,-23.34,2.11,0.34
8.115239024162292,2,3,3,0,-22.71,-5.13,10.96,-42.8,4.23,-9.34
8.125239014625549,2,3,3,0,-6.72,-30.12,-3.19,-32.87,2.21,-5.24
8.135239005088806,2,3,3,0,-6.52,-26.41,-5.57,-15,0.62,3.42
8.145238995552063,2,3,3,0,-9.06,-17.05,-5.27,0.23,4.04,3.5
8.15523898601532,2,3,3,0,-11.23,-10.09,-5.83,8.35,6.87,0.62
8.165238976478577,2,3,3,0,-12.8,-5.22,-7.63,12.96,7.12,-3.56
8.175238966941833,2,3,3,0,-12.66,1.42,-6.72,16.2,7.81,-10.17
8.18523895740509,2,3,3,0,-11.95,6.16,-4.94,15.48,6.99,-17.63
8.195238947868347,2,3,3,0,-10.28,8.19,-3.46,9.56,5.43,-19.24
8.205238938331604,2,3,3,0,-7.66,3.55,-1.24,-0.54,5.05,-13.81
8.215238928794861,2,3,3,0,-6.99,1.21,-0.74,-6.42,5.08,-8.02
8.225238919258118,2,3,3,0,-6.52,0.71,-0.58,-6.45,5.04,-6.15
8.235238909721375,2,3,3,0,-5.96,0.68,-0.46,-4.01,5.3,-6.46
8.245238900184631,2,3,3,0,-5.91,1.45,-0.12,-1.63,5.7,-5.81
8.255239129066467,2,3,3,0,-5.83,2.66,0.2,0.63,5.68,-4.3
8.265239119529724,2,3,3,0,-6.14,3.24,0.45,1.27,5.15,-3.29
8.275239109992981,2,3,3,0,-6.41,2.85,0.71,-0.25,4.37,-2.97
8.285239100456238,2,3,3,0,-6.9,2.04,0.68,-2.1,3.76,-3.37
8.295239090919495,2,3,3,0,-6.99,1.66,0.34,-2.94,3.56,-3.29
8.305239081382751,2,3,3,0,-7.16,1.07,0.02,-2.98,3.43,-2.76
8.315239071846008,2,3,3,0,-7.5,0.75,0.05,-2.49,3.03,-1.79
8.325239062309265,2,3,3,0,-8.859999999999999,0.58,0.86,-1.51,1.92,-1.28
8.335239052772522,2,3,3,0,-10.01,1.09,1.74,0.61,0.06,-1.33
8.345239043235779,2,3,3,0,-11.34,1.34,2.63,1.37,-2.4,-1.74
8.355239033699036,2,3,3,0,-12.55,1.43,2.68,0.68,-3.63,-1.68
8.365239024162292,2,3,3,0,-13.68,1.32,1.97,0.75,-3.05,-1.11
8.375239014625549,2,3,3,0,-13.42,1.1,1.86,1.54,-1.42,-0.46
8.385239005088806,2,3,3,0,-12.37,0.97,1.22,1.5,0.8100000000000001,0.26
8.395238995552063,2,3,3,0,-10.95,1.11,0.68,1.76,2.73,1.1
8.40523898601532,2,3,3,0,-8.85,0.92,-0.48,2.58,3.69,1.45
8.415238976478577,2,3,3,0,-8.880000000000001,0.52,-0.73,2.84,3.9,1.22
8.425238966941833,2,3,3,0,-9.31,0.36,-0.87,3.39,3.33,0.7
8.43523895740509,2,3,3,0,-9.6,0.41,-0.9399999999999999,3.64,2.42,-0.03
8.445238947868347,2,3,3,0,-9.83,0.17,-0.45,2.66,1.55,-0.42
8.455238938331604,2,3,3,0,-9.58,-0.44,-0.4,1.94,0.99,-0.02
8.466239094734192,2,3,3,0,-8.99,-0.34,-0.5600000000000001,2,0.24,0.13
8.476239085197449,2,3,3,0,-8.81,-0.09,-0.74,1.97,-0.15,-0.02
8.486239075660706,2,3,3,0,-8.77,0.9,-0.59,2.83,-0.45,0.15
8.496239066123962,2,3,3,0,-8.800000000000001,1.05,-0.78,3.24,-0.61,0.16
8.506239056587219,2,3,3,0,-9.029999999999999,1.01,-0.5,3.25,-0.64,0.17
8.516239047050476,2,3,3,0,-9.26,1.24,-0.3,2.91,-0.45,0.37
8.526239037513733,2,3,3,0,-9.75,1.3,-0.27,1.86,-0.18,0.48
8.53623902797699,2,3,3,0,-9.859999999999999,1.01,-0.19,1.51,-0.3,0.71
8.546239018440247,2,3,3,0,-9.789999999999999,0.66,-0.18,1.2,-0.86,0.61
8.556239008903503,2,3,3,0,-9.75,0.63,0,1.42,-1.21,0.44
8.56623899936676,2,3,3,0,-9.82,0.36,0.09,1.18,-1.14,0.27
8.576238989830017,2,3,3,0,-9.880000000000001,0.14,0.25,0.99,-1.08,0.2
8.586238980293274,2,3,3,0,-9.960000000000001,0.1,0.18,1.09,-0.62,0
8.596238970756531,2,3,3,0,-9.970000000000001,0.49,0.02,1.36,-0.45,-0.21
8.606238961219788,2,3,3,0,-10,0.9,-0.31,1.11,-0.17,-0.3
8.616238951683044,2,3,3,0,-10.06,0.76,-0.36,0.74,0.27,-0.22
8.626238942146301,2,3,3,0,-10.03,0.67,-0.54,0.27,0.5600000000000001,-0.07000000000000001
8.636238932609558,2,3,3,0,-9.84,0.57,-0.68,-0.2,0.6899999999999999,0.09
8.646238923072815,2,3,3,0,-9.6,-0.32,-0.88,-0.51,0.62,0.13
8.656238913536072,2,3,3,0,-9.6,0.3,-1.14,-0.38,0.28,0.08
8.666238903999329,2,3,3,0,-9.81,0.87,-1.02,-0.09,0.1,0.03
8.676239132881165,2,3,3,0,-9.81,0.35,-0.7,-0.28,-0.21,-0.14
8.686239123344421,2,3,3,0,-9.59,-0.19,-0.46,-0.38,-0.4,-0.73
8.696239113807678,2,3,3,0,-9.800000000000001,-0.28,-0.43,-0.48,-0.18,-0.7
8.706239104270935,2,3,3,0,-9.859999999999999,-0.45,-0.5600000000000001,-0.72,-0.13,-0.29
8.716239094734192,2,3,3,0,-9.710000000000001,-0.41,-0.47,-0.5600000000000001,-0.13,-0.19
8.726239085197449,2,3,3,0,-9.640000000000001,-0.01,-0.33,-0.33,-0.02,-0.42
8.736239075660706,2,3,3,0,-9.75,0,-0.22,-0.55,0.07000000000000001,-0.75
8.746239066123962,2,3,3,0,-9.789999999999999,-0.03,-0.15,-0.49,0.19,-1.01
8.756239056587219,2,3,3,0,-9.83,-0.26,-0.23,-0.34,0.21,-1.16
8.766239047050476,2,3,3,0,-9.82,0,-0.1,-0.02,0.28,-1.06
8.776239037513733,2,3,3,0,-9.65,0.31,-0.12,0.41,0.26,-1.06
8.78623902797699,2,3,3,0,-9.710000000000001,0.72,-0.33,0.48,0.21,-1.26
8.796239018440247,2,3,3,0,-9.83,0.7,-0.13,0.23,0.27,-1.01
8.806239008903503,2,3,3,0,-9.550000000000001,0.78,-0.19,0.12,0.27,-0.8100000000000001
8.81623899936676,2,3,3,0,-9.51,0.8,-0.01,0.03,0.27,-0.85
8.826238989830017,2,3,3,0,-9.630000000000001,0.64,-0.04,-0.13,0.5600000000000001,-0.6899999999999999
8.836238980293274,2,3,3,0,-9.710000000000001,0.44,-0.11,-0.3,0.41,-0.57
8.846238970756531,2,3,3,0,-9.699999999999999,0.51,-0.1,0.02,0.23,-0.73
8.856238961219788,2,3,3,0,-9.59,0.6899999999999999,-0.2,0.35,0.01,-0.99
8.866238951683044,2,3,3,0,-9.640000000000001,0.87,-0.16,0.38,-0.02,-1.26
8.876238942146301,2,3,3,0,-9.779999999999999,0.88,0.08,-0.07000000000000001,-0.14,-1.16
8.926239132881165,2,3,3,0,-9.6,0.93,0.55,0.1,-1.33,-1.11
8.956239104270935,2,3,3,0,-9.07,1.58,0.5600000000000001,1.24,-1.65,-0.67
8.966239094734192,2,3,3,0,-9.16,1.78,0.75,1.58,-2.14,-0.8100000000000001
8.976239085197449,2,3,3,0,-9.220000000000001,2.05,0.9,1.76,-2.63,-0.88
8.986239075660706,2,3,3,0,-9.24,2.29,0.95,2.1,-3.08,-0.72
8.996239066123962,2,3,3,0,-9.09,3.06,0.62,2.82,-3.55,-0.37
9.006239056587219,2,3,3,0,-9.1,3.44,0.23,3.19,-4.08,0.15
9.016239047050476,2,3,3,0,-9.279999999999999,3.22,0.68,2.67,-4.32,0.84
9.026239037513733,2,3,3,0,-9.24,3.38,0.71,4.22,-4.84,1.71
9.03623902797699,2,3,3,0,-9.119999999999999,2.91,0.58,3.49,-5.09,2.1
9.046239018440247,2,3,3,0,-9.25,2.45,0.67,2.15,-4.55,2.53
9.056239008903503,2,3,3,0,-9.31,2.11,0.65,0.92,-4.17,3.25
9.06623899936676,2,3,3,0,-9.359999999999999,1.99,0.84,-0.03,-4,3.9
9.076238989830017,2,3,3,0,-9.17,1.89,1.15,-0.21,-4.11,4.71
9.086238980293274,2,3,3,0,-8.859999999999999,2,1.12,0.03,-4.56,5.46
9.096238970756531,2,3,3,0,-8.65,2.02,1.16,0.06,-4.94,6.14
9.106238961219788,2,3,3,0,-8.390000000000001,1.98,1.16,0.53,-5.43,6.81
9.116238951683044,2,3,3,0,-7.8,2.42,1.06,0.53,-5.94,7.31
9.136238932609558,2,3,3,0,-7.94,2.99,0.47,-1.56,-6.58,8.5
9.176239132881165,2,3,3,0,-8.24,1.48,-0.33,0.53,-7.04,10.66
9.186239123344421,2,3,3,0,-9.08,0.76,-0.66,1.72,-4.95,11.01
9.196239113807678,2,3,3,0,-11.06,-0.24,-0.63,0.16,-4.1,11.51
9.206239104270935,2,3,3,0,-11.24,-0.75,-0.61,-3.28,-6.47,12.26
9.216239094734192,2,3,3,0,-11.4,-1.08,-0.68,-2.86,-8.699999999999999,12.47
9.226239085197449,2,3,3,0,-10.75,-1.57,-0.53,-1.72,-9.44,11.55
9.236239075660706,2,3,3,0,-10.99,-2.95,-1.46,-1.39,-6.25,10.08
9.246239066123962,2,3,3,0,-10.83,-3.55,-1.39,-2.26,-4.2,9.19
9.256239056587219,2,3,3,0,-11.17,-3.38,-1.71,-2.5,-3.72,8.67
9.266239047050476,2,3,3,0,-11.6,-2.63,-1.76,-0.63,-1.74,7.91
9.276239037513733,2,3,3,0,-13.57,-2.56,-1.64,1.08,0.39,6.76
9.28623902797699,2,3,3,0,-13.91,-3.8,-0.96,3.04,0.64,5.3
9.296239018440247,2,3,3,0,-14.01,-5.08,-0.23,3.66,-0.5600000000000001,3.71
9.306239008903503,2,3,3,0,-14.69,-6.13,-0.71,1.85,-0.11,2.52
9.31623899936676,2,3,3,0,-15.66,-8.06,-0.46,1.79,0.11,1.56
9.326238989830017,2,3,3,0,-15.93,-10.07,-0.52,1.73,-0.41,0.09
9.336238980293274,2,3,3,0,-15.99,-11.82,0.27,0.97,-1.83,-1.34
9.346238970756531,2,3,3,0,-16.72,-13.75,0.37,0.38,-2.52,-3.61
9.356238961219788,2,3,3,0,-19.48,-13.36,0.11,0.67,-2.06,-7.11
9.366238951683044,2,3,3,0,-21.47,-10.93,0.48,0.95,-0.74,-10.64
9.376238942146301,2,3,3,0,-24.27,-7.19,1.66,-0.11,0.48,-13.26
9.386238932609558,2,3,3,0,-28.56,-2.46,3.27,-1.38,1.09,-15.87
9.396238923072815,2,3,3,0,-39,4.58,4.14,-3.58,1.76,-16.4
9.406238913536072,2,3,3,0,-39.03,6.42,4.06,-6.21,4.83,-12.89
9.416238903999329,2,3,3,0,-33.53,7.06,5.02,-7.94,8.050000000000001,-10.71
9.426239132881165,2,3,3,0,-26.09,7.19,4.95,-9.06,10.39,-13.19
9.446239113807678,2,3,3,0,-14.22,8.6,2.07,-8.699999999999999,13.77,-12.01
9.456239104270935,2,3,3,0,-11.9,9.210000000000001,0.96,-6.72,15.7,-11.5
9.466239094734192,2,3,3,0,-9.27,7.46,-0.43,-6.26,18.77,-10.89
9.477239012718201,2,3,3,0,-5.29,-1.35,-1.14,-7.56,21.42,-9.529999999999999
9.487239003181458,2,3,3,0,-4.24,-1.09,1.03,-5.21,20.52,-8.710000000000001
9.497238993644714,2,3,3,0,-1.28,6.13,1.73,7.67,14.58,-8.84
9.507238984107971,2,3,3,0,2.29,19.5,1.23,18.81,11.01,-9.380000000000001
9.517238974571228,2,3,3,0,2.5,30.84,4.5,8.43,6.48,-5.3
9.527238965034485,2,3,3,0,1.42,25.26,3.75,-5.23,0.87,-0.48
9.537238955497742,2,3,3,0,2.38,6.11,3.82,-29.39,-2.31,-1.53
9.547238945960999,2,3,3,0,1.57,-5.57,2.07,-34.59,0.1,-1.23
9.557238936424255,2,3,3,0,-0.77,-2.36,3.42,-22.36,-1.29,1.78
9.567238926887512,2,3,3,0,-2.16,1.87,4.33,-8.91,-4.45,2.72
9.577238917350769,2,3,3,0,-2.17,3.46,3.74,-1.85,-5.54,2.12
9.587238907814026,2,3,3,0,-1.65,2.89,2.93,-1.4,-4.97,2.18
9.597238898277283,2,3,3,0,-0.76,-0.36,0.8100000000000001,-1.96,-3.66,2.6
9.607239127159119,2,3,3,0,-1.01,-1.63,0.19,-0.32,-2.98,2.98
9.617239117622375,2,3,3,0,-1.51,-2.75,-0.09,1.63,-1.88,3.98
9.627239108085632,2,3,3,0,-1.76,-3.37,-0.74,2.71,-0.66,5
9.637239098548889,2,3,3,0,-0.9399999999999999,-2.71,-1.1,3.71,-0.51,5.01
9.647239089012146,2,3,3,0,-0.3,-2.19,-1.18,4.44,-0.64,4.99
9.657239079475403,2,3,3,0,0.3,-1.68,-1.59,5.17,-1.23,4.8
9.66723906993866,2,3,3,0,0.03,-1.13,-1.77,6.55,-2.12,4.54
9.677239060401917,2,3,3,0,-0.4,-0.77,-1.55,8.050000000000001,-2.93,4.28
9.687239050865173,2,3,3,0,-0.63,-0.14,-1.2,9.27,-4,3.64
9.69723904132843,2,3,3,0,-0.72,0.57,-0.6899999999999999,9.81,-4.83,2.86
9.707239031791687,2,3,3,0,-0.5,0.92,-0.2,8.960000000000001,-5.13,2.53
9.717239022254944,2,3,3,0,-0.15,1.45,-0.09,7.66,-4.75,2.71
9.727239012718201,2,3,3,0,0.13,2.39,0.3,6.33,-4.02,3.01
9.737239003181458,2,3,3,0,0.36,3.44,0.95,4.23,-2.96,3.09
9.747238993644714,2,3,3,0,-0.01,5.58,1.35,1.22,-1.75,2.98
9.757238984107971,2,3,3,0,-0.55,6.92,1.04,-2.39,-0.41,2.87
9.767238974571228,2,3,3,0,-0.6899999999999999,8.470000000000001,0.64,-5.83,0.85,3.23
9.777238965034485,2,3,3,0,-0.84,10.34,-0.62,-8.44,1.98,3.86
9.787238955497742,2,3,3,0,-1.74,9.42,-1.31,-12.52,1.93,4.79
9.797238945960999,2,3,3,0,-2.01,4.48,-0.82,-20.23,0.1,6.33
9.807238936424255,2,3,3,0,-1.97,-1.74,1.34,-24.24,-1.53,7.74
9.817238926887512,2,3,3,0,-4.66,-2.28,14.62,-17.69,-4.53,7.04
9.827238917350769,2,3,3,0,-9.720000000000001,9.949999999999999,-2.33,11.47,-14.18,5.18
9.837238907814026,2,3,3,0,-20.66,-15.3,-10.06,13.47,-2.27,5.73
9.847238898277283,2,3,3,0,-36.97,-36.23,-5.93,0.95,-1.1,7.33
9.857239127159119,2,3,3,0,-39.19,-26.04,-4.54,13.53,-16.71,13.03
9.867239117622375,2,3,3,0,-25.39,6.1,-6.96,22.88,-7.45,17.45
9.877239108085632,2,3,3,0,-16.8,-1.41,-4.58,22.11,13.84,-3.33
9.887239098548889,2,3,3,0,-9.91,0.82,-1.59,12.5,5.6,-6.23
9.897239089012146,2,3,3,0,-14.92,5.37,-1.95,6.95,4.53,0.97
9.907239079475403,2,3,3,0,-33.9,2.93,1.71,-1.55,0.52,2.79
9.91723906993866,2,3,3,0,-36.36,1.14,0.47,-11.02,-4.08,3.53
9.927239060401917,2,3,3,0,-28.13,-3.87,1.02,-18.91,-0.35,2.46
9.937239050865173,2,3,3,0,-20.03,-8.380000000000001,2.64,-19.72,1.12,-4.74
9.94723904132843,2,3,3,0,-16.75,-10.79,2.27,-14.92,1.81,-6.11
9.957239031791687,2,3,3,0,-17.8,-9.880000000000001,1.75,-7.82,1.94,-2.16
9.967239022254944,2,3,3,0,-17.63,-7.75,0.43,-2.14,2.92,-1.07
9.977239012718201,2,3,3,0,-16.92,-5.98,-0.98,1.78,4.71,-3.9
9.987239003181458,2,3,3,0,-12.92,-2.38,-2.33,3.85,6.19,-6.06
9.997238993644714,2,3,3,0,-10.86,-1.23,-3.04,4.2,6.95,-8
10.00723898410797,2,3,3,0,-9.48,-0.82,-3.52,3.51,7.24,-8.83
10.01723897457123,2,3,3,0,-8.52,-0.49,-3.4,2.81,7.25,-8.039999999999999
10.02723896503448,2,3,3,0,-7.41,1.37,-2.62,2.42,7.22,-7.12
10.03723895549774,2,3,3,0,-7.07,1.74,-1.96,1.82,6.94,-6.9
10.047238945961,2,3,3,0,-6.92,2.02,-1.78,1.04,6.63,-7.13
10.05723893642426,2,3,3,0,-6.62,2.18,-1.69,0.47,6.33,-7.21
10.06723892688751,2,3,3,0,-5.78,2.81,-1.47,0.31,5.95,-7.33
10.07723891735077,2,3,3,0,-5.51,2.82,-1.15,0,5.42,-7.35
10.08723890781403,2,3,3,0,-5.52,2.78,-0.88,-0.38,5.33,-6.22
10.09723889827728,2,3,3,0,-5.56,3.1,-0.62,-0.35,5.4,-4.82
10.10723912715912,2,3,3,0,-6.19,3.6,0.18,-0.26,5.17,-3.89
10.11723911762238,2,3,3,0,-6.63,4.52,0.9,-0.02,4.23,-3.3
10.12723910808563,2,3,3,0,-7.63,5.01,1.92,-0.5600000000000001,3.32,-3.02
10.13723909854889,2,3,3,0,-8.83,4.89,2.83,-2.36,2.35,-2.6
10.14723908901215,2,3,3,0,-10.47,4.1,4.09,-4.41,0.97,-1.74
10.1572390794754,2,3,3,0,-10.84,3.57,4.01,-5.84,0.21,-0.9399999999999999
10.16723906993866,2,3,3,0,-11.03,3.09,3.43,-5.44,0.13,-0.31
10.17723906040192,2,3,3,0,-11.06,2.07,3.07,-4.5,0.23,0.44
10.18723905086517,2,3,3,0,-10.79,-0.11,1.35,-3.01,0.49,1.51
10.19723904132843,2,3,3,0,-10.5,-0.71,0.22,-1.04,0.87,2.63
10.20723903179169,2,3,3,0,-10.22,-1.28,-0.73,0.88,1.27,3.06
10.21723902225494,2,3,3,0,-9.98,-1.39,-1.36,2.9,1.26,3.06
10.2272390127182,2,3,3,0,-9.9,-0.98,-1.73,5.02,0.8100000000000001,2.64
10.23723900318146,2,3,3,0,-10.09,-0.93,-1.91,6.95,0.23,1.81
10.24723899364471,2,3,3,0,-10.18,-1.25,-1.96,8.32,-0.3,1.08
10.25723898410797,2,3,3,0,-10.13,-1.33,-2.04,9.4,-0.75,0.5600000000000001
10.26723897457123,2,3,3,0,-9.77,-0.51,-2.16,9.869999999999999,-0.92,0.26
10.27723896503448,2,3,3,0,-9.630000000000001,-0.04,-2.17,9.92,-0.6899999999999999,-0.16
10.28723895549774,2,3,3,0,-9.48,0.6899999999999999,-2.09,9.609999999999999,-0.61,-0.68
10.30723893642426,2,3,3,0,-9.18,2.05,-1.57,7.1,-0.55,-1.68
10.31723892688751,2,3,3,0,-9.06,2.04,-1.22,4.7,-0.36,-1.88
10.32723891735077,2,3,3,0,-8.98,1.99,-0.8100000000000001,2.78,-0.2,-1.92
10.33723890781403,2,3,3,0,-9.1,1.85,-0.5600000000000001,1.11,0.12,-1.9
10.34723889827728,2,3,3,0,-9.51,1.7,-0.33,-0.19,0.3,-1.68
10.35723912715912,2,3,3,0,-9.6,0.88,-0.1,-1.19,0.4,-1.3
10.36723911762238,2,3,3,0,-9.890000000000001,1.61,-0.23,-1.06,0.54,-0.71
10.37723910808563,2,3,3,0,-9.56,1.43,0,-1.38,0.54,-0.21
10.38723909854889,2,3,3,0,-9.279999999999999,1.69,0.23,-1.62,0.79,-0.25
10.39723908901215,2,3,3,0,-9.390000000000001,1.19,0.2,-1.82,0.84,-0.63
10.4072390794754,2,3,3,0,-9.539999999999999,1.24,0,-1.97,1.08,-0.53
10.41723906993866,2,3,3,0,-9.609999999999999,1.3,0.05,-1.83,1.37,-0.25
10.42723906040192,2,3,3,0,-9.710000000000001,0.75,-0.03,-1.86,1.31,-0.18
10.43723905086517,2,3,3,0,-9.75,0.53,-0.28,-1.39,1.01,-0.21
10.44723904132843,2,3,3,0,-9.91,0.38,-0.53,-0.84,0.73,-0.04
10.45723903179169,2,3,3,0,-10.16,0.19,-0.68,-0.32,0.55,0.44
10.46723902225494,2,3,3,0,-9.699999999999999,0.34,-1.11,0.57,0.31,0.95
10.4772390127182,2,3,3,0,-9.25,0.21,-1.3,1.48,0.11,0.86
10.48723900318146,2,3,3,0,-9.720000000000001,1.69,-1.4,1.96,0.14,0.4
10.49723899364471,2,3,3,0,-9.43,0.11,-1.08,0.9,-0.01,0.09
10.50823891162872,2,3,3,0,-9.17,0.78,-1.22,0.59,0.21,0.28
10.51823890209198,2,3,3,0,-9.74,-0.03,-0.88,0.19,-0.24,-0.32
10.52823913097382,2,3,3,0,-10.17,0.22,-0.96,0.62,-0.14,-0.29
10.53823912143707,2,3,3,0,-9.619999999999999,-0.15,-0.57,0.54,-0.28,0.17
10.54823911190033,2,3,3,0,-9.619999999999999,0.3,-0.61,1.02,-0.42,-0.28
10.55823910236359,2,3,3,0,-9.5,0.6,-0.58,1.64,-0.33,-0.26
10.56823909282684,2,3,3,0,-9.699999999999999,0.3,-0.49,1.54,-0.28,-0.46
10.5782390832901,2,3,3,0,-9.720000000000001,0.32,-0.5600000000000001,1.05,-0.04,-0.2
10.58823907375336,2,3,3,0,-9.6,0.38,-0.46,0.73,0.02,0.03
10.59823906421661,2,3,3,0,-9.58,0.37,-0.4,1.09,-0.17,-0.19
10.60823905467987,2,3,3,0,-9.720000000000001,0.2,-0.66,0.86,-0.02,-0.34
10.61823904514313,2,3,3,0,-9.789999999999999,0.38,-0.71,0.44,0.02,-0.32
10.62823903560638,2,3,3,0,-9.81,0.54,-0.72,0.82,-0.1,-0.38
10.63823902606964,2,3,3,0,-9.76,0.6,-0.72,1.15,-0.19,-0.42
10.6482390165329,2,3,3,0,-9.69,0.58,-0.64,0.9399999999999999,-0.38,-0.41
10.65823900699615,2,3,3,0,-9.73,0.49,-0.52,0.63,-0.51,-0.4
10.66823899745941,2,3,3,0,-9.800000000000001,0.52,-0.53,0.46,-0.3,-0.38
10.67823898792267,2,3,3,0,-9.77,0.5,-0.52,0.19,-0.21,-0.34
10.68823897838593,2,3,3,0,-9.68,0.46,-0.55,-0.17,-0.33,-0.43
10.69823896884918,2,3,3,0,-9.65,0.3,-0.57,-0.37,-0.37,-0.5600000000000001
10.70823895931244,2,3,3,0,-9.699999999999999,0.36,-0.75,-0.18,-0.21,-0.53
10.7182389497757,2,3,3,0,-9.710000000000001,0.6899999999999999,-0.85,0.05,-0.18,-0.46
10.72823894023895,2,3,3,0,-9.75,0.57,-0.78,-0.08,-0.31,-0.46
10.73823893070221,2,3,3,0,-9.710000000000001,0.14,-0.6,-0.52,-0.38,-0.32
10.74823892116547,2,3,3,0,-9.75,0,-0.62,-0.45,-0.44,-0.18
10.75823891162872,2,3,3,0,-9.81,-0.02,-0.83,-0.37,-0.4,-0.06
10.76823890209198,2,3,3,0,-9.84,-0.08,-0.86,-0.27,-0.45,0.08
10.77823913097382,2,3,3,0,-9.84,0.17,-0.84,-0.04,-0.25,0.23
10.78823912143707,2,3,3,0,-9.699999999999999,-0.13,-0.77,0.05,-0.24,0.31
10.79823911190033,2,3,3,0,-9.710000000000001,-0.14,-0.79,-0.08,-0.17,0.13
10.80823910236359,2,3,3,0,-9.65,-0.29,-0.97,-0.08,-0.1,0.13
10.81823909282684,2,3,3,0,-9.66,-0.16,-0.99,-0.14,-0.02,0.07000000000000001
10.8282390832901,2,3,3,0,-9.65,-0.1,-0.98,0.36,0.01,0.09
10.83823907375336,2,3,3,0,-9.699999999999999,-0.01,-0.86,0.38,-0.02,0.04
10.84823906421661,2,3,3,0,-9.710000000000001,0.06,-0.75,0.45,-0.01,0.05
10.85823905467987,2,3,3,0,-9.9,-0.08,-0.89,0.6899999999999999,-0.13,0.08
10.86823904514313,2,3,3,0,-9.93,-0.16,-0.82,0.6,-0.25,0.04
10.87823903560638,2,3,3,0,-9.91,-0.33,-0.8,0.57,-0.27,0.15
10.88823902606964,2,3,3,0,-9.83,-0.32,-0.8,0.58,-0.24,0.17
10.8982390165329,2,3,3,0,-9.83,-0.23,-0.78,0.61,-0.06,0.06
10.90823900699615,2,3,3,0,-9.789999999999999,-0.07000000000000001,-0.85,0.78,-0.02,-0.04
10.91823899745941,2,3,3,0,-9.73,0.03,-0.79,0.9,0.08,-0.11
10.92823898792267,2,3,3,0,-9.710000000000001,0.08,-0.77,1.01,0.12,-0.18
10.93823897838593,2,3,3,0,-9.74,0,-0.64,1.25,0.1,-0.24
10.94823896884918,2,3,3,0,-9.73,0.08,-0.62,1.17,-0.02,-0.21
10.95823895931244,2,3,3,0,-9.69,0.23,-0.68,1.39,-0.17,-0.14
10.9682389497757,2,3,3,0,-9.75,0.26,-0.6,1.48,-0.34,-0.11
10.97823894023895,2,3,3,0,-9.76,0.27,-0.48,1.54,-0.42,-0.06
10.98823893070221,2,3,3,0,-9.77,0.33,-0.51,1.2,-0.38,0.03
10.99823892116547,2,3,3,0,-9.76,0.36,-0.47,0.8,-0.24,0.01
11.00823891162872,2,3,3,0,-9.710000000000001,0.37,-0.49,0.5600000000000001,-0.2,-0.04
11.01823890209198,2,3,3,0,-9.68,0.45,-0.48,0.22,-0.14,-0.18
11.02823913097382,2,3,3,0,-9.699999999999999,0.42,-0.61,0.15,-0.02,-0.27
11.03823912143707,2,3,3,0,-9.789999999999999,0.35,-0.59,0.15,-0.04,-0.34
11.04823911190033,2,3,3,0,-9.789999999999999,0.4,-0.54,0.36,-0.01,-0.3
11.05823910236359,2,3,3,0,-9.74,0.22,-0.64,0.26,-0.14,-0.15
11.06823909282684,2,3,3,0,-9.73,0.2,-0.59,0.01,0.03,-0.04
11.0782390832901,2,3,3,0,-9.710000000000001,0.29,-0.51,-0.13,0,0.07000000000000001
11.08823907375336,2,3,3,0,-9.65,0.43,-0.47,-0.2,-0.04,-0.19
11.09823906421661,2,3,3,0,-9.74,0.39,-0.5,-0.2,-0.04,-0.19
11.12823903560638,2,3,3,0,-9.77,0.15,-0.52,-1.04,0.2,0.26
11.13823902606964,2,3,3,0,-9.67,0.47,-0.61,-1.3,0.25,0.28
11.1482390165329,2,3,3,0,-9.630000000000001,0.63,-0.49,-1.3,0.25,0.28
11.15823900699615,2,3,3,0,-9.640000000000001,0.74,-0.63,-1.1,0.13,0.18
11.16823899745941,2,3,3,0,-9.69,0.8,-0.59,-1.68,-0.05,-0.12
11.17823898792267,2,3,3,0,-9.58,0.98,-0.61,-2.32,-0.04,-0.23
11.18823897838593,2,3,3,0,-9.66,0.73,-0.49,-2.93,0.03,-0.2
11.19823896884918,2,3,3,0,-9.66,0.53,-0.52,-3.33,-0.01,-0.16
11.20823895931244,2,3,3,0,-9.74,0.29,-0.64,-3.55,-0.07000000000000001,-0.06
11.2182389497757,2,3,3,0,-9.82,-0.26,-0.62,-3.29,-0.04,0
11.22823894023895,2,3,3,0,-9.880000000000001,-0.46,-0.66,-2.79,-0.17,0.09
11.23823893070221,2,3,3,0,-9.91,-0.55,-0.72,-2.07,-0.23,0.23
11.24823892116547,2,3,3,0,-9.94,-0.55,-0.85,-1.54,-0.07000000000000001,0.26
11.25823891162872,2,3,3,0,-9.890000000000001,-0.47,-1.11,-0.8,0.16,0.21
11.26823890209198,2,3,3,0,-9.869999999999999,-0.38,-1.12,-0.22,0.19,0.14
11.27823913097382,2,3,3,0,-9.9,-0.32,-1.05,0,0.11,0.1
11.28823912143707,2,3,3,0,-9.82,-0.08,-0.96,0.19,-0.03,-0.02
11.29823911190033,2,3,3,0,-9.800000000000001,0.03,-0.91,0.22,-0.01,-0.19
11.30823910236359,2,3,3,0,-9.779999999999999,0.11,-0.88,0.41,-0.01,-0.22
11.31823909282684,2,3,3,0,-9.73,0.24,-0.83,0.48,-0.11,-0.25
11.3282390832901,2,3,3,0,-9.68,0.32,-0.78,0.44,-0.11,-0.25
11.33823907375336,2,3,3,0,-9.710000000000001,0.43,-0.66,0.46,0.05,-0.15
11.34823906421661,2,3,3,0,-9.73,0.5600000000000001,-0.7,0.22,0.14,-0.08
11.35823905467987,2,3,3,0,-9.76,0.57,-0.8100000000000001,-0.12,0.2,-0.02
11.36923897266388,2,3,3,0,-9.73,0.53,-0.73,-0.37,0.17,0.03
11.37823903560638,2,3,3,0,-9.710000000000001,0.48,-0.7,-0.55,0.11,0
11.38823902606964,2,3,3,0,-9.74,0.39,-0.6,-0.67,0.12,-0.04
11.3982390165329,2,3,3,0,-9.779999999999999,0.24,-0.5600000000000001,-0.5,0.16,-0.08
11.40823900699615,2,3,3,0,-9.76,0.14,-0.75,-0.26,0.13,-0.03
11.41823899745941,2,3,3,0,-9.73,0.17,-0.85,-0.21,0.2,0.04
11.42823898792267,2,3,3,0,-9.76,0.11,-0.83,-0.19,0.23,-0.01
11.43823897838593,2,3,3,0,-9.75,0.14,-0.82,-0.1,0.21,-0.02
11.44823896884918,2,3,3,0,-9.75,0.29,-0.9,-0.31,0.21,-0.04
11.45923912525177,2,3,3,0,-9.710000000000001,0.3,-0.85,-0.48,0.15,-0.1
11.4682389497757,2,3,3,0,-9.69,0.23,-0.74,-0.41,0.2,-0.16
11.47823894023895,2,3,3,0,-9.699999999999999,0.29,-0.74,-0.41,0.2,-0.21
11.48823893070221,2,3,3,0,-9.779999999999999,0.16,-0.58,-0.32,0.11,-0.19
11.49823892116547,2,3,3,0,-9.76,0.19,-0.63,-0.14,0.13,-0.22
11.62923896312714,2,3,3,0,-9.82,0.01,-0.77,-0.24,0.12,-0.21
11.69923889636993,2,3,3,0,-9.77,0.32,-0.67,0.06,-0.14,-0.47
11.70923912525177,2,3,3,0,-9.83,0.3,-0.63,0.09,-0.01,-0.35
11.71923911571503,2,3,3,0,-9.82,0.33,-0.67,-0.17,0.1,-0.3
11.72923910617828,2,3,3,0,-9.76,0.17,-0.65,-0.27,0.03,-0.25
11.73923909664154,2,3,3,0,-9.74,0.02,-0.6,-0.26,0.05,-0.22
11.7492390871048,2,3,3,0,-9.68,0.05,-0.62,-0.04,0.07000000000000001,-0.2
11.75923907756805,2,3,3,0,-9.710000000000001,0.04,-0.78,0.06,0.14,-0.14
11.76923906803131,2,3,3,0,-9.720000000000001,0,-0.76,0.19,0.13,-0.19
11.77923905849457,2,3,3,0,-9.699999999999999,0.15,-0.79,0.39,0.17,-0.23
11.78923904895782,2,3,3,0,-9.77,0.08,-0.73,0.41,0.12,-0.25
11.79923903942108,2,3,3,0,-9.859999999999999,0.12,-0.67,0.53,-0.04,-0.21
11.80923902988434,2,3,3,0,-9.800000000000001,0.09,-0.83,0.43,-0.01,-0.3
12.01923906803131,2,3,3,0,-9.75,0.12,-0.86,-0.05,0.08,-0.19
12.04923903942108,2,3,3,0,-9.720000000000001,0.04,-0.87,-0.2,0.05,-0.16
12.05923902988434,2,3,3,0,-9.75,0.01,-0.99,-0.25,0.03,-0.26
12.0692390203476,2,3,3,0,-9.789999999999999,-0.03,-0.96,-0.5,0.08,-0.27
12.07923901081085,2,3,3,0,-9.81,-0.2,-0.87,-0.58,0.24,-0.18
12.08923900127411,2,3,3,0,-9.699999999999999,-0.28,-1.01,-0.41,0.28,-0.15
12.09923899173737,2,3,3,0,-9.710000000000001,-0.26,-1.08,-0.54,0.26,-0.21
12.10923898220062,2,3,3,0,-9.75,-0.24,-1.16,-0.43,0.27,-0.26
12.16923892498016,2,3,3,0,-9.77,0.02,-0.62,-0.75,0.18,-0.22
12.17923891544342,2,3,3,0,-9.69,0.17,-0.63,-0.65,0.1,-0.17
12.19923889636993,2,3,3,0,-9.57,0.58,-0.49,-0.01,-0.1,-0.13
12.20923912525177,2,3,3,0,-9.57,0.64,-0.58,-0.05,-0.32,-0.19
12.21923911571503,2,3,3,0,-9.630000000000001,0.72,-0.6899999999999999,-0.07000000000000001,-0.42,-0.19
12.22923910617828,2,3,3,0,-9.77,0.67,-0.64,-0.36,-0.37,-0.06
12.23923909664154,2,3,3,0,-9.83,0.48,-0.33,-0.6,-0.2,0.17
12.2492390871048,2,3,3,0,-9.73,0.42,-0.43,-1.14,-0.19,0.3
12.25923907756805,2,3,3,0,-9.789999999999999,0.31,-0.61,-1.42,0.13,0.37
12.26923906803131,2,3,3,0,-9.75,0.29,-0.73,-1.19,0.14,0.29
12.27923905849457,2,3,3,0,-9.73,0.24,-0.64,-0.9,0.08,0.19
12.28923904895782,2,3,3,0,-9.66,0.25,-0.64,-0.71,0.04,0.12
12.29923903942108,2,3,3,0,-9.630000000000001,0.2,-0.68,-0.86,0.01,0.06
12.30923902988434,2,3,3,0,-9.69,0.1,-0.8,-0.93,-0.14,0.08
12.3192390203476,2,3,3,0,-9.73,-0.12,-0.75,-0.87,-0.21,0.13
12.32923901081085,2,3,3,0,-9.73,-0.23,-0.78,-0.59,-0.3,0.11
12.33923900127411,2,3,3,0,-9.82,-0.37,-0.86,-0.32,-0.22,0.06
12.34923899173737,2,3,3,0,-9.98,-0.41,-0.89,0.02,-0.13,0.02
12.35923898220062,2,3,3,0,-10.01,-0.41,-0.78,-0.06,0.01,0.03
12.36923897266388,2,3,3,0,-9.9,-0.42,-0.72,-0.31,0.38,0.07000000000000001
12.37923896312714,2,3,3,0,-9.789999999999999,-0.44,-0.99,-0.52,0.74,-0.12
12.38923895359039,2,3,3,0,-9.710000000000001,-0.47,-1.1,-0.26,0.78,-0.44
12.39923894405365,2,3,3,0,-9.73,-0.4,-1.04,0.08,0.79,-0.65
12.40923893451691,2,3,3,0,-9.67,-0.16,-0.9399999999999999,0.26,0.78,-0.68
12.41923892498016,2,3,3,0,-9.65,0.06,-0.87,0.23,0.84,-0.68
12.42923891544342,2,3,3,0,-9.69,0.1,-0.74,0.01,0.78,-0.67
12.43923890590668,2,3,3,0,-9.69,0.21,-0.5,-0.08,0.73,-0.64
12.44923889636993,2,3,3,0,-9.68,0.27,-0.55,-0.41,0.67,-0.58
12.45923912525177,2,3,3,0,-9.67,0.26,-0.62,-0.71,0.76,-0.58
12.46923911571503,2,3,3,0,-9.68,0.23,-0.58,-0.98,0.9399999999999999,-0.43
12.47923910617828,2,3,3,0,-9.67,0.33,-0.54,-1.01,0.98,-0.37
12.48923909664154,2,3,3,0,-9.619999999999999,0.35,-0.54,-1.28,0.8100000000000001,-0.43
12.4992390871048,2,3,3,0,-9.58,0.34,-0.48,-1.37,0.78,-0.44
12.50923907756805,2,3,3,0,-9.630000000000001,0.32,-0.64,-1.25,0.91,-0.42
12.51923906803131,2,3,3,0,-9.710000000000001,0.18,-0.72,-1.21,0.9399999999999999,-0.38
12.52923905849457,2,3,3,0,-9.68,0.16,-0.73,-1.24,0.96,-0.33
12.53923904895782,2,3,3,0,-9.66,0.16,-0.73,-1.36,1.01,-0.33
12.54923903942108,2,3,3,0,-9.59,0.11,-0.7,-1.35,1.14,-0.31
12.56023895740509,2,3,3,0,-9.68,0.2,-0.84,-1.25,1.29,-0.39
12.57023894786835,2,3,3,0,-9.67,0.28,-0.74,-1.18,1.21,-0.54
12.5802389383316,2,3,3,0,-9.630000000000001,0.49,-0.65,-1.2,1.32,-0.73
12.59023892879486,2,3,3,0,-9.619999999999999,0.54,-0.61,-1.75,1.34,-0.84
12.60023891925812,2,3,3,0,-9.6,0.48,-0.6,-2.2,1.58,-0.85
12.61023890972137,2,3,3,0,-9.529999999999999,0.43,-0.68,-2.48,1.8,-0.8100000000000001
12.62023890018463,2,3,3,0,-9.550000000000001,0.22,-0.7,-2.94,1.94,-0.68
12.63023912906647,2,3,3,0,-9.609999999999999,0.15,-0.71,-3.18,1.94,-0.54
12.64023911952972,2,3,3,0,-9.619999999999999,0.07000000000000001,-0.72,-3.12,1.88,-0.49
12.65023910999298,2,3,3,0,-9.68,0.07000000000000001,-0.8,-2.98,1.82,-0.55
12.66023910045624,2,3,3,0,-9.67,0.04,-0.92,-3.18,1.86,-0.58
12.67023909091949,2,3,3,0,-9.67,-0.12,-0.96,-3.59,2.05,-0.6
12.68023908138275,2,3,3,0,-9.75,-0.63,-1.14,-3.82,2.11,-0.49
12.69023907184601,2,3,3,0,-9.75,-0.79,-1.35,-4.01,2.1,-0.51
12.70023906230927,2,3,3,0,-9.69,-0.86,-1.4,-3.85,2.09,-0.66
12.71023905277252,2,3,3,0,-9.710000000000001,-0.97,-1.39,-3.77,2.15,-0.9399999999999999
12.72023904323578,2,3,3,0,-9.859999999999999,-0.8,-1.64,-4.03,2.34,-1.41
12.73023903369904,2,3,3,0,-9.91,-0.65,-1.43,-4.24,2.58,-1.68
12.74023902416229,2,3,3,0,-9.859999999999999,-0.68,-1.56,-5.34,2.88,-1.86
12.75023901462555,2,3,3,0,-9.81,-0.77,-1.68,-6.23,3.17,-1.85
12.76023900508881,2,3,3,0,-9.789999999999999,-1.2,-1.28,-6.56,3.25,-1.91
12.77023899555206,2,3,3,0,-9.720000000000001,-1.14,-1.07,-6.49,3.05,-2.19
12.78023898601532,2,3,3,0,-9.65,-0.95,-0.89,-5.62,2.76,-2.46
12.79023897647858,2,3,3,0,-9.69,-0.9,-0.7,-4.59,2.57,-2.65
12.80023896694183,2,3,3,0,-9.68,-0.8,-0.93,-3.54,2.43,-2.58
12.81023895740509,2,3,3,0,-9.65,-0.62,-1.19,-2.22,2.59,-2.22
12.82023894786835,2,3,3,0,-9.68,-0.44,-1.18,-1.21,2.57,-1.79
12.8302389383316,2,3,3,0,-9.51,0.18,-1.33,0.06,2.21,-1.56
12.84023892879486,2,3,3,0,-9.529999999999999,0.9399999999999999,-1.38,0.54,2.11,-1.48
12.85023891925812,2,3,3,0,-9.51,0.9399999999999999,-1.59,0.54,1.94,-1.28
12.86023890972137,2,3,3,0,-9.539999999999999,1.05,-1.91,1.1,1.99,-1.08
12.87023890018463,2,3,3,0,-9.539999999999999,1.17,-2.19,1.53,2.15,-1.08
12.89023911952972,2,3,3,0,-9.720000000000001,1.46,-2.06,2.56,1.77,-1.17
12.90023910999298,2,3,3,0,-9.619999999999999,1.62,-2.05,2.71,1.45,-1.34
12.92023909091949,2,3,3,0,-9.300000000000001,0.89,-2.18,2.88,1.3,-1.18
12.95023906230927,2,3,3,0,-9.449999999999999,0.8100000000000001,-1.99,3.84,0.82,-1.66
12.96023905277252,2,3,3,0,-9.84,0.49,-2.31,3.78,0.6,-1.69
12.97023904323578,2,3,3,0,-9.81,0.32,-2.55,3.9,0.67,-1.42
12.98023903369904,2,3,3,0,-9.67,0.04,-2.76,4.1,0.92,-1.36
12.99023902416229,2,3,3,0,-9.460000000000001,-0.65,-2.69,4.11,1.12,-1.47
13.00023901462555,2,3,3,0,-9.43,-0.66,-2.55,4.38,1.09,-1.85
13.01023900508881,2,3,3,0,-9.48,-0.83,-2.35,4.46,1.13,-2.45
13.02023899555206,2,3,3,0,-9.52,-0.92,-2.17,4.43,1.2,-3.01
13.03023898601532,2,3,3,0,-9.619999999999999,-1.2,-2.24,4.12,1.43,-3.36
13.04023897647858,2,3,3,0,-9.6,-1.37,-2.21,3.9,1.66,-3.53
13.05023896694183,2,3,3,0,-9.529999999999999,-1.39,-2.17,3.92,2.02,-3.68
13.06023895740509,2,3,3,0,-9.42,-1.17,-2.28,3.99,2.27,-3.91
13.07023894786835,2,3,3,0,-9.359999999999999,-0.82,-2.06,4.11,2.32,-4.17
13.0802389383316,2,3,3,0,-9.449999999999999,-0.62,-1.95,4.2,2.19,-4.41
13.09023892879486,2,3,3,0,-9.529999999999999,-0.41,-1.94,4.18,2.17,-4.46
13.10023891925812,2,3,3,0,-9.539999999999999,-0.28,-1.96,4.19,2.12,-4.51
13.11023890972137,2,3,3,0,-9.539999999999999,-0.02,-2.04,4.33,2.14,-4.56
13.12023890018463,2,3,3,0,-9.6,0.05,-1.86,4.43,2.11,-4.8
13.13023912906647,2,3,3,0,-9.69,0.02,-1.72,4.43,1.75,-4.97
13.14023911952972,2,3,3,0,-9.74,-0.02,-1.67,4.51,1.5,-5.08
13.15023910999298,2,3,3,0,-9.859999999999999,-0.02,-1.62,4.71,1.41,-5.12
13.16023910045624,2,3,3,0,-9.869999999999999,-0.04,-1.65,4.83,1.27,-5.24
13.17023909091949,2,3,3,0,-9.869999999999999,0.05,-1.66,5.12,1.29,-5.38
13.18023908138275,2,3,3,0,-9.77,0.25,-1.86,5.26,1.25,-5.58
13.19023907184601,2,3,3,0,-9.710000000000001,-0.15,-1.93,5.05,1.44,-5.68
13.20023906230927,2,3,3,0,-9.73,-0.33,-1.84,5.01,1.38,-5.7
13.21023905277252,2,3,3,0,-9.85,-0.28,-1.92,5.36,1.18,-5.96
13.22023904323578,2,3,3,0,-10.08,-0.28,-1.82,5.6,0.98,-6.16
13.23023903369904,2,3,3,0,-10.56,0.23,-0.91,6.02,0.68,-6.24
13.24023902416229,2,3,3,0,-10.4,0.64,-0.9,6.37,0.28,-6.46
13.25023901462555,2,3,3,0,-10.14,0.82,-1.09,6.12,0.36,-6.7
13.26023900508881,2,3,3,0,-9.91,1.22,-0.96,6.12,0.61,-6.69
13.27023899555206,2,3,3,0,-9.59,2.21,-0.77,6.37,0.47,-6.9
13.28023898601532,2,3,3,0,-9.69,2.52,-0.5600000000000001,5.71,0.41,-6.88
13.29023897647858,2,3,3,0,-9.73,2.73,-0.51,4.63,0.29,-6.75
13.30023896694183,2,3,3,0,-9.710000000000001,2.88,-0.59,3.54,0.26,-6.57
13.31023895740509,2,3,3,0,-9.85,2.99,-0.7,2.77,0.27,-6.41
13.32023894786835,2,3,3,0,-10.03,3.3,-0.68,2.97,0.09,-6.29
13.3302389383316,2,3,3,0,-10.26,3.65,-0.87,3.34,-0.13,-6.35
13.34023892879486,2,3,3,0,-10.58,3.87,-1.17,3.28,-0.15,-6.39
13.35023891925812,2,3,3,0,-11.73,5.01,-1.45,3.1,-0.05,-6.24
13.36023890972137,2,3,3,0,-12.31,5.93,-1.46,2.33,-0.06,-5.75
13.37023890018463,2,3,3,0,-12.59,6.73,-1.03,0.78,-0.07000000000000001,-4.83
13.38023912906647,2,3,3,0,-12.63,6.95,-0.37,-1.88,-0.66,-4.2
13.39023911952972,2,3,3,0,-12.76,6.22,1.19,-5.02,-2.03,-3.78
13.40023910999298,2,3,3,0,-12.79,5.85,2.07,-6.52,-3.9,-2.96
13.41023910045624,2,3,3,0,-12.63,5.6,2.7,-6.28,-6.05,-1.9
13.42023909091949,2,3,3,0,-12.32,5.22,2.59,-6.31,-7.93,-0.67
13.43023908138275,2,3,3,0,-12.06,2.25,2.87,-9.31,-8.83,1.16
13.44023907184601,2,3,3,0,-11.39,1.05,2.15,-2.68,-10.04,3.76
13.45023906230927,2,3,3,0,-10.4,0.63,-0.39,3.65,-9.640000000000001,5.14
13.46023905277252,2,3,3,0,-9.94,1.8,-2.32,6.84,-7.34,7.28
13.47023904323578,2,3,3,0,-10.73,1.44,-3.87,5.54,-4.86,10.09
13.48023903369904,2,3,3,0,-11.5,0.71,-3.33,2.34,-4.04,12.77
13.49023902416229,2,3,3,0,-11.97,0.85,-2.86,0.49,-5.36,14.64
13.50023901462555,2,3,3,0,-12.99,-0.77,-2.62,-0.89,-6.21,15.52
13.51023900508881,2,3,3,0,-14.43,-4.53,-1.5,-0.43,-6.64,14.71
13.52023899555206,2,3,3,0,-14.24,-5.01,-0.6899999999999999,0.7,-6.67,13.33
13.55023896694183,2,3,3,0,-13.32,-3.41,-2.69,2.58,-7.22,13.61
13.56023895740509,2,3,3,0,-13.59,-3.52,-3.16,3.18,-7.61,14.46
13.57023894786835,2,3,3,0,-13.35,-3.34,-3.3,2.55,-7.99,14.97
13.5802389383316,2,3,3,0,-13.11,-2.58,-3.22,2.08,-7.57,15.88
13.59123909473419,2,3,3,0,-12.09,-2.97,-2.63,0.76,-6.92,16.4
13.60123908519745,2,3,3,0,-11.64,-3.73,-2.39,-1.38,-6.36,16.51
13.61123907566071,2,3,3,0,-11.08,-4.26,-2.36,-3.33,-5.47,17.49
13.62123906612396,2,3,3,0,-10.36,-4.44,-2.2,-4.46,-4.73,18.33
13.63123905658722,2,3,3,0,-9.539999999999999,-4.25,-2.06,-4.86,-4.17,19.07
13.64123904705048,2,3,3,0,-9.109999999999999,-4.02,-2.1,-5.05,-4.13,19.49
13.65123903751373,2,3,3,0,-8.92,-3.88,-2.17,-5.7,-4.38,19.41
13.66123902797699,2,3,3,0,-8.789999999999999,-3.84,-2.37,-6.48,-4.4,19.19
13.67123901844025,2,3,3,0,-8.5,-3.86,-2.32,-7.48,-4.27,19.01
13.6812390089035,2,3,3,0,-8.34,-3.66,-2.15,-8.58,-4.19,18.82
13.69123899936676,2,3,3,0,-8.24,-3.59,-1.88,-9.630000000000001,-4.16,18.51
13.70123898983002,2,3,3,0,-8.109999999999999,-3.84,-1.58,-10.57,-4.17,18.08
13.71123898029327,2,3,3,0,-7.86,-4.23,-1.05,-10.94,-3.9,17.65
13.72123897075653,2,3,3,0,-7.42,-3.96,-0.9,-11.31,-3.44,17.02
13.73123896121979,2,3,3,0,-6.98,-4.39,-0.78,-12.08,-2.66,15.73
13.74123895168304,2,3,3,0,-6.56,-4.75,-0.9,-11.8,-1.45,14.68
13.7512389421463,2,3,3,0,-5.84,-4.98,-1.55,-9.99,-0.39,13.67
13.76123893260956,2,3,3,0,-5.91,-4.4,-2.02,-6.58,0.46,12.51
13.77123892307281,2,3,3,0,-6.04,-3.56,-2.19,-2.41,0.79,10.84
13.78123891353607,2,3,3,0,-5.96,-2.74,-2.15,1.26,0.78,9
13.79123890399933,2,3,3,0,-5.57,-1.51,-1.32,3.75,0.16,7.64
13.85123908519745,2,3,3,0,-7.91,1.9,0.33,-0.87,2.35,7.8
13.86123907566071,2,3,3,0,-8.130000000000001,3.6,0.41,-1.2,3.58,7.3
13.87123906612396,2,3,3,0,-8.91,7.35,1.05,-0.57,5.52,6.04
13.88123905658722,2,3,3,0,-9.75,9.18,1.41,0.09,7.29,4
13.89123904705048,2,3,3,1,-10.57,10.3,1.3,0.52,6.48,2.07
13.90123903751373,3,3,3,1,-11.44,11.43,3.29,1.44,2.07,1.23
13.91123902797699,3,3,3,1,-11.24,12.1,4.52,-1.08,-3.4,1.35
13.92123901844025,3,3,3,1,-10.85,12.36,4.48,-8.470000000000001,-5.3,2.92
13.9312390089035,3,3,3,1,-10.68,11.7,3.31,-15.58,-1.55,6.21
13.94123899936676,3,3,3,1,-10.35,7.82,1.2,-16.96,2.52,9.33
13.95123898983002,3,3,3,1,-9.91,5.55,0.37,-14.93,2.66,9.970000000000001
13.96123898029327,3,3,3,1,-9.48,4.41,0.07000000000000001,-11.68,0.51,8.880000000000001
13.97123897075653,3,3,3,1,-9.32,4.05,0.28,-9.6,-1.44,7.05
13.98123896121979,3,3,3,1,-10.35,0.74,-3.13,-9.75,-2.2,5.16
13.99123895168304,3,3,3,1,-11.89,-0.18,-3.98,-9.35,-2.79,2.95
14.0012389421463,3,3,3,1,-13.57,-0.62,0.96,-10.17,-4.65,-0.02
14.01123893260956,3,3,3,1,-12.49,2.37,5.18,-12.84,-10.98,-4.32
14.02123892307281,3,3,3,1,-10.21,8.359999999999999,4.31,-19.28,-11.43,-7.45
14.03123891353607,3,3,3,1,-10.52,3.39,3.42,-26.42,-3.82,-7.86
14.04123890399933,3,3,3,1,-10.79,-3.77,2.43,-24.52,4.57,-7.26
14.05123913288116,3,3,3,1,-10.15,-6.42,1.89,-12.74,8.140000000000001,-6.25
14.06123912334442,3,3,3,1,-8.390000000000001,-5.8,-4.1,-7.94,7.31,-5.58
14.07123911380768,3,3,3,1,-10.06,-3.85,-3.67,-4.31,9.210000000000001,-5.12
14.08123910427094,3,3,3,1,-11.19,-3.96,-2.9,-1.76,10.65,-4.62
14.09123909473419,3,3,3,1,-11.01,-3.95,-2.31,-0.15,8.869999999999999,-4.49
14.10123908519745,3,3,3,1,-8.390000000000001,-1.29,-1.89,2.7,6.54,-6.25
14.11123907566071,3,3,3,1,-8.800000000000001,-0.62,-3.11,5.69,6.42,-8.970000000000001
14.12123906612396,3,3,3,1,-9.949999999999999,-2.28,-3.8,7.45,8.050000000000001,-9.07
14.13123905658722,3,3,3,1,-10.4,-3.8,-3.37,8.51,7.76,-7.69
14.14123904705048,3,3,3,1,-9.720000000000001,-1,-2.42,9.800000000000001,6.91,-7.18
14.15123903751373,3,3,3,1,-10.27,0.28,-2.54,10.09,7.33,-7.88
14.16123902797699,3,3,3,1,-10.62,1.42,-2.55,9.460000000000001,7.48,-8.27
14.17123901844025,3,3,3,1,-11.06,2.33,-2.23,7.93,7.08,-8.460000000000001
14.1812390089035,3,3,3,1,-9.93,3.28,-1.79,5.8,6.52,-8.109999999999999
14.19123899936676,3,3,3,1,-9.210000000000001,2.56,-2.14,3.04,6.27,-8.44
14.20123898983002,3,3,3,1,-8.880000000000001,1.37,-2.52,0.96,6.25,-8.81
14.21123898029327,3,3,3,1,-9.16,0.09,-2.94,0.08,6.63,-8.789999999999999
14.22123897075653,3,3,3,1,-9.609999999999999,-0.36,-3.11,0.49,6.98,-8.58
14.23123896121979,3,3,3,1,-9.57,-0.1,-2.67,1.31,7.07,-8.81
14.24123895168304,3,3,3,1,-9.91,0.16,-2.3,2.22,7.1,-9.65
14.2512389421463,3,3,3,1,-9.99,0.2,-1.96,2.78,6.99,-10.44
14.26123893260956,3,3,3,1,-10.13,0.12,-1.55,3.05,7.01,-10.69
14.27123892307281,3,3,3,1,-9.94,0.12,-1.53,3.46,6.92,-10.48
14.28123891353607,3,3,3,1,-9.75,0.31,-1.68,4.09,6.89,-10.1
14.29123890399933,3,3,3,1,-9.609999999999999,0.35,-1.79,4.38,7.06,-9.77
14.30123913288116,3,3,3,1,-9.6,0.42,-1.75,4.84,7.37,-9.6
14.31123912334442,3,3,3,1,-9.630000000000001,0.84,-1.67,5.57,7.56,-9.720000000000001
14.32123911380768,3,3,3,1,-9.5,0.9,-1.49,5.9,7.65,-10.26
14.33123910427094,3,3,3,1,-9.630000000000001,-0.07000000000000001,-1.04,5.94,7.85,-10.74
14.34123909473419,3,3,3,1,-9.49,0.5,-1.35,7.1,8.01,-10.13
14.35123908519745,3,3,3,1,-9.5,0.76,-1.21,8.289999999999999,7.84,-9.94
14.36123907566071,3,3,3,1,-9.41,1.44,-1.46,9.41,7.51,-9.800000000000001
14.37123906612396,3,3,3,1,-9.369999999999999,1.32,-1.34,9.470000000000001,7.4,-9.880000000000001
14.38123905658722,3,3,3,1,-9.460000000000001,0.92,-1.54,9.199999999999999,7.36,-9.34
14.39123904705048,3,3,3,1,-9.31,1.01,-1.82,8.460000000000001,7.29,-8.960000000000001
14.40123903751373,3,3,3,1,-9.43,1.05,-1.71,7.67,7.1,-8.699999999999999
14.41123902797699,3,3,3,1,-9.5,1.39,-1.49,7.61,6.69,-8.279999999999999
14.42123901844025,3,3,3,1,-9.449999999999999,1.8,-1.03,7.07,6.22,-8.84
14.4312390089035,3,3,3,1,-9.92,1.94,-0.91,6.43,6.16,-9.630000000000001
14.44123899936676,3,3,3,0,-10.24,1.66,-0.61,5.07,6.16,-10.06
14.45123898983002,3,3,3,0,-10.03,1.21,-0.65,4.19,6.3,-10.51
14.46123898029327,3,3,3,0,-9.48,1.66,-0.85,4.76,6.38,-11.11
14.47123897075653,3,3,3,0,-9.130000000000001,2.65,-0.85,6.63,6.07,-11.46
14.48123896121979,3,3,3,0,-8.890000000000001,3.34,-0.66,7.71,5.28,-11.6
14.49123895168304,3,3,3,0,-8.9,3.89,-0.51,7.71,4.4,-11.41
14.5012389421463,3,3,3,0,-9.09,4.64,-0.36,7.39,3.57,-10.97
14.51123893260956,3,3,3,0,-9.199999999999999,4.83,-0.59,7.13,2.99,-10.33
14.52123892307281,3,3,3,0,-9.31,4.97,-0.74,6.91,2.5,-9.51
14.53123891353607,3,3,3,0,-9.35,5.48,-0.9399999999999999,6.7,1.91,-9.039999999999999
14.54123890399933,3,3,3,0,-9.619999999999999,5.12,-0.8100000000000001,5.49,1.39,-8.91
14.55123913288116,3,3,3,0,-9.81,4.97,-0.92,4.35,0.85,-8.76
14.56123912334442,3,3,3,0,-9.92,5.05,-1.3,3.67,0.18,-8.619999999999999
14.57123911380768,3,3,3,0,-10.24,4.67,-1.19,2.86,-0.31,-8.359999999999999
14.58123910427094,3,3,3,0,-11.54,3.93,-1.31,2.88,-0.79,-7.81
14.59123909473419,3,3,3,0,-12.36,2.72,-0.9399999999999999,2.21,-1.35,-7.06
14.60123908519745,3,3,3,0,-12.96,2.79,-0.72,3.21,-1.9,-5.84
14.61223900318146,3,3,3,0,-13.67,3.58,-0.24,7.11,-2.27,-5.44
14.62223899364471,3,3,3,0,-13.95,5.1,1.8,9.779999999999999,-3.12,-5.57
14.63223898410797,3,3,3,0,-13.35,5.98,2.81,12.98,-4.38,-5.34
14.64223897457123,3,3,3,0,-12.74,6.09,3.13,16.06,-5.83,-5.57
14.65223896503448,3,3,3,0,-12.47,6.15,3.56,16.84,-7.5,-4.9
14.66223895549774,3,3,3,0,-12.08,5.59,3.94,16.25,-9.49,-2.4
14.672238945961,3,3,3,0,-11.49,4.78,2.56,14.24,-11.27,0.8
14.68223893642426,3,3,3,0,-10.8,3.35,0.5600000000000001,9.75,-11.96,3.9
14.69223892688751,3,3,3,0,-10.05,1.89,-2.44,6.75,-11.09,6.94
14.70223891735077,3,3,3,0,-10.47,0.27,-4.46,6.76,-8.52,9.550000000000001
14.71223890781403,3,3,3,0,-11.26,1.93,-3.97,9.49,-6.77,12.4
14.72223889827728,3,3,3,0,-12.62,1.39,-3.84,10.77,-6.28,14.5
14.73223912715912,3,3,3,0,-15.15,-3.19,-3.07,6.86,-5.62,15.45
14.74223911762238,3,3,3,0,-15.96,-4.02,-2.87,2.57,-5.71,15.53
14.75223910808563,3,3,3,0,-16.27,-3.7,-2.33,0.93,-5.16,14.51
14.76223909854889,3,3,3,0,-15.87,-3.02,-2.22,0.7,-5.26,12.34
14.77223908901215,3,3,3,0,-14.84,-2.71,-2.21,0.4,-6.36,11.59
14.7822390794754,3,3,3,0,-14.24,-3.6,-3.02,-0.2,-7.62,12.83
14.79223906993866,3,3,3,0,-13.4,-4.88,-3.66,-1.16,-7.5,14.25
14.80223906040192,3,3,3,0,-12.8,-5.06,-3.77,-2.17,-5.6,14.83
14.81223905086517,3,3,3,0,-12.47,-3.56,-3.48,-3.24,-3.89,15.19
14.82223904132843,3,3,3,0,-12.88,-3.84,-3.2,-5.73,-2.9,16.01
14.83223903179169,3,3,3,0,-12.53,-4.08,-3.02,-8.18,-2.48,17.77
14.84223902225494,3,3,3,0,-11.76,-4.44,-3.09,-9.74,-2.82,18.73
14.8522390127182,3,3,3,0,-9.970000000000001,-5.32,-3.01,-10.47,-3.22,19.21
14.86223900318146,3,3,3,0,-9.16,-5.61,-2.89,-10.42,-3.86,19.66
14.87223899364471,3,3,3,0,-8.630000000000001,-5.71,-2.66,-10.09,-4.48,19.95
14.88223898410797,3,3,3,0,-8.42,-5.5,-2.37,-9.69,-4.74,20.31
14.89223897457123,3,3,3,0,-7.82,-4.98,-2.3,-9.82,-4.69,20.3
14.90223896503448,3,3,3,0,-7.45,-5.35,-2.46,-10.53,-4.06,19.81
14.91223895549774,3,3,3,0,-7.24,-5.25,-2.58,-11.03,-3.17,19.31
14.922238945961,3,3,3,0,-6.87,-5.08,-2.54,-11.65,-2.62,19.2
14.93223893642426,3,3,3,0,-6.29,-4.73,-2.01,-12.53,-2.68,18.76
14.94223892688751,3,3,3,0,-6.14,-4.7,-1.61,-13.39,-2.9,17.99
14.95223891735077,3,3,3,0,-6.13,-4.55,-1.1,-14.17,-2.91,16.65
14.96223890781403,3,3,3,0,-5.83,-5.28,-1.07,-15.56,-2.9,14.78
14.97223889827728,3,3,3,0,-5.16,-7.02,-1.44,-15.73,-2.31,13.15
14.98223912715912,3,3,3,0,-4.99,-7.47,-1.91,-14.04,-1.36,12.29
14.99223911762238,3,3,3,0,-5.08,-6.85,-2.14,-10.44,-0.23,11.55
15.00223910808563,3,3,3,0,-5.2,-5.84,-2.12,-5.78,0.51,10.24
15.01223909854889,3,3,3,0,-5.26,-3.15,-1,-1.47,-0.08,8.43
15.02223908901215,3,3,3,0,-5.2,-1.79,0.02,1.34,-1.95,6.42
15.0322390794754,3,3,3,1,-4.96,-0.63,0.41,1.78,-4.55,4.96
15.04223906993866,3,3,3,1,-5.13,0.42,0.48,1.71,-6.11,5.07
15.05223906040192,3,3,3,1,-7.82,1.64,1.21,1.34,-4.73,6.23
15.06223905086517,3,3,3,1,-9.130000000000001,1.14,1.5,-0.36,-1.29,7.04
15.07223904132843,3,3,3,1,-9.800000000000001,0.43,1.41,-3.38,2.31,7.53
15.08223903179169,3,3,3,1,-9.73,0.9,1.75,-7.48,4.82,7.95
15.09223902225494,3,3,3,1,-9.210000000000001,5.54,2.86,-10.22,8.07,7.97
15.1022390127182,3,3,3,1,-10.4,8.5,2.99,-6.97,12.21,8.59
15.11223900318146,3,3,3,1,-11.29,11.77,2.45,-1.53,9.02,7.63
15.12223899364471,3,3,3,1,-11.75,14.61,2.48,2.61,-0.24,4.72
15.13223898410797,3,3,3,2,-11.98,17.21,4.17,3.99,-6.75,2.26
15.14223897457123,3,3,3,2,-11.73,15.67,3.98,-0.35,-6.15,2.1
15.15223896503448,3,3,3,2,-11.08,12.85,3.02,-7.47,-1.51,5.03
15.16223895549774,3,3,3,2,-10.21,9.75,1.75,-11.33,1.77,8.960000000000001
15.172238945961,3,3,3,2,-10.08,3.42,0.4,-11.24,1.88,11.67
15.18223893642426,3,3,3,2,-10.37,0.51,-1.21,-9.02,-1.55,11.7
15.19223892688751,3,3,3,2,-11.19,-3.45,-3.87,-6.74,-4.77,9.699999999999999
15.20223891735077,3,3,3,2,-12.1,-5.16,-6.49,-1.85,-4.3,6.96
15.21223890781403,3,3,3,2,-13.78,-0.39,6.38,1.67,-3.61,2.43
15.22223889827728,3,3,3,2,-10.73,5.86,7.48,2.16,-10.65,-3.67
15.23223912715912,3,3,3,2,-8.49,7.18,5.05,-6.87,-11.05,-7.47
15.24223911762238,3,3,3,2,-9.85,4.72,2.79,-11.7,-0.07000000000000001,-8.66
15.25223910808563,3,3,3,2,-11.94,-0.58,-1.02,-9.52,6.77,-8.220000000000001
15.26223909854889,3,3,3,2,-10.05,-2.74,-2.15,-11.49,5.35,-7.93
15.27223908901215,3,3,3,2,-9.640000000000001,-3.64,-2.44,-9.890000000000001,7.48,-7.15
15.2822390794754,3,3,3,2,-9.69,-4.16,-3.36,-8.01,10.36,-6.1
15.29223906993866,3,3,3,2,-10.07,-2.68,-4.39,-8.210000000000001,11.51,-5.27
15.30223906040192,3,3,3,2,-8.69,-2.62,-3.05,-7.74,9.93,-5.05
15.31223905086517,3,3,3,2,-7.74,-1.56,-2.38,-4.5,6.98,-6.75
15.32223904132843,3,3,3,2,-8.300000000000001,-1.3,-2.77,-0.38,6.76,-9.4
15.33223903179169,3,3,3,2,-10.53,-3.9,-2.54,1.18,7.52,-10.56
15.34223902225494,3,3,3,2,-10.66,-4.14,-2.32,3.02,7.66,-9.73
15.3522390127182,3,3,3,2,-10.19,-2.78,-2.62,5.3,7.59,-8.52
15.36223900318146,3,3,3,2,-10,-1.7,-2.67,6.78,7.48,-8.43
15.37223899364471,3,3,3,2,-10.55,1.05,-3.14,8.16,7.77,-8
15.38223898410797,3,3,3,2,-10.77,2.19,-2.89,8.529999999999999,7.34,-8.16
15.39223897457123,3,3,3,2,-10.39,3.04,-2.66,8.48,6.72,-8.18
15.40223896503448,3,3,3,2,-9.789999999999999,1.65,-2.3,5.77,6.22,-8.210000000000001
15.41223895549774,3,3,3,2,-8.98,0.06,-2.84,5.04,6.17,-8.48
15.422238945961,3,3,3,2,-9.380000000000001,-0.25,-3.09,5.68,6.59,-8.59
15.43223893642426,3,3,3,2,-9.640000000000001,-0.17,-3.37,5.68,6.59,-8.59
15.44223892688751,3,3,3,2,-10.08,-0.1,-3.4,6.09,6.79,-9.26
15.45223891735077,3,3,3,2,-10.43,-0.55,-3.3,6.49,7.32,-10.47
15.46223890781403,3,3,3,2,-10.3,-0.61,-3.31,7.01,7.58,-10.96
15.47223889827728,3,3,3,2,-10.26,-0.6,-2.92,7.9,7.88,-11.16
15.48223912715912,3,3,3,2,-10.42,-0.84,-2.3,7.9,7.88,-11.16
15.49223911762238,3,3,3,2,-9.949999999999999,-0.41,-2.02,9.140000000000001,8.210000000000001,-10.82
15.50223910808563,3,3,3,2,-9.6,0.23,-1.91,10.17,9,-10.99
15.51223909854889,3,3,3,2,-9.300000000000001,0.83,-1.79,9.76,9.1,-11.45
15.52223908901215,3,3,3,2,-9.199999999999999,0.99,-1.49,9.27,8.9,-11.79
15.5322390794754,3,3,3,2,-9.16,1.27,-1.28,9.27,8.9,-11.79
15.54223906993866,3,3,3,2,-9.289999999999999,0.77,-1.24,8.42,8.65,-12.15
15.55223906040192,3,3,3,2,-9.32,0.73,-1.36,9.6,8.550000000000001,-11.87
15.56223905086517,3,3,3,2,-9.039999999999999,0.98,-1.38,10.73,8.34,-11.96
15.57223904132843,3,3,3,2,-9.539999999999999,0.97,-1.51,11.84,7.84,-11.54
15.58223903179169,3,3,3,2,-9.449999999999999,1.05,-1.47,11.84,7.84,-11.54
15.59223902225494,3,3,3,2,-9.24,1.03,-1.43,12.5,6.96,-11.58
15.6022390127182,3,3,3,2,-9.119999999999999,1.6,-1.79,12.18,5.58,-12.64
15.61223900318146,3,3,3,2,-9.390000000000001,1.79,-1.78,10.3,5.06,-13.22
15.62223899364471,3,3,3,2,-9.390000000000001,2.02,-1.59,8.779999999999999,4.51,-14.12
15.63323891162872,3,3,3,2,-9.369999999999999,2.32,-1.38,8.779999999999999,4.51,-14.12
15.64323890209198,3,3,3,2,-9.52,2.61,-0.85,6.91,4.31,-15
15.65323913097382,3,3,3,2,-9.49,2.77,-0.7,4.87,4.15,-15.74
15.66323912143707,3,3,3,2,-9.51,3.21,-0.72,5.13,4.28,-15.3
15.67323911190033,3,3,3,2,-9.640000000000001,3.61,-0.39,5.23,4.08,-14.47
15.68323910236359,3,3,3,2,-9.609999999999999,3.79,-0.5600000000000001,5.23,4.08,-14.47
15.69323909282684,3,3,3,2,-9.710000000000001,4.08,-0.6899999999999999,5.54,3.82,-13.49
15.7032390832901,3,3,3,2,-9.91,4.6,-0.7,6.79,3.27,-11.57
15.71323907375336,3,3,3,2,-10,4.85,-0.8,7.35,3.1,-10.63
15.72323906421661,3,3,3,2,-10.11,5.02,-1.29,7.34,3.1,-9.74
15.73323905467987,3,3,3,2,-10.28,4.84,-1.25,7.34,3.1,-9.74
15.74323904514313,3,3,3,2,-10.34,4.69,-1.33,7.03,2.89,-9.24
15.75323903560638,3,3,3,2,-10.45,4.48,-1.41,6.34,2.6,-8.34
15.76323902606964,3,3,3,2,-10.84,3.95,-1.11,6.31,2.2,-7.59
15.7732390165329,3,3,3,2,-11.02,3.8,-1.19,6.13,1.83,-6.43
15.78323900699615,3,3,3,2,-11.28,3.78,-0.82,6.13,1.83,-6.43
15.79323899745941,3,3,3,2,-11.78,4.02,-0.62,6.1,1.01,-4.67
15.80323898792267,3,3,3,2,-12.59,4.9,-0.6899999999999999,4.57,-1.03,-0.4
15.81323897838593,3,3,3,2,-13.25,5.96,-0.24,4.52,-2.08,1.18
15.82323896884918,3,3,3,2,-13.74,6.67,0.57,3.42,-3.82,1.69
15.83323895931244,3,3,3,2,-13.85,7.05,1.72,3.42,-3.82,1.69
15.8432389497757,3,3,3,2,-13.33,6.31,3.63,3.77,-6.49,1.42
15.85323894023895,3,3,3,2,-12.94,5.99,4.24,9,-11.51,0.22
15.86323893070221,3,3,3,2,-12.19,5.95,4.7,7.89,-12.7,0.06
15.87323892116547,3,3,3,2,-11.77,4.93,3.22,0.85,-12.5,1.99
15.88323891162872,3,3,3,2,-10.26,-0.36,-0.37,0.85,-12.5,1.99
15.89323890209198,3,3,3,2,-9.26,-0.43,-3.73,5.58,-12.61,5.28
15.90323913097382,3,3,3,2,-9.380000000000001,0.31,-5.14,7.86,-7.84,11.47
15.91323912143707,3,3,3,2,-10.53,0.9,-5.34,4.73,-6.62,13.98
15.92323911190033,3,3,3,2,-14.31,0.45,-4.2,0.16,-6.53,16.57
15.93323910236359,3,3,3,1,-15.51,-1.93,-3.4,0.16,-6.53,16.57
15.9532390832901,3,3,3,1,-16.75,-4.71,-2.75,-5.2,-5.36,13.19
15.96323907375336,3,3,3,1,-15.39,-4.45,-2.79,-4.09,-6.77,11.44
15.97323906421661,3,3,3,1,-14.65,-3.68,-2.91,-2.36,-8.630000000000001,11.95
15.98323905467987,3,3,3,1,-14.23,-3.47,-2.89,-2.36,-8.630000000000001,11.95
15.99323904514313,3,3,3,1,-13.43,-4.17,-3.66,-1.99,-10.38,13.89
16.00323903560638,3,3,3,1,-12.74,-4.72,-4.65,-1.07,-8.039999999999999,15.79
16.01323902606964,3,3,3,1,-12.66,-4.1,-4.52,-1.8,-6.73,15.71
16.0232390165329,3,3,3,1,-12.67,-3.8,-3.94,-4.65,-6.15,15.92
16.03323900699615,3,3,3,0,-12.62,-4.03,-3.62,-4.65,-6.15,15.92
16.04323899745941,3,3,3,0,-11.98,-4.98,-3.28,-7.31,-5.67,16.88
16.05323898792267,3,3,3,0,-11.06,-5.68,-3.36,-9.449999999999999,-5.02,18.62
16.06323897838593,3,3,3,0,-10.04,-6.22,-3.58,-9.119999999999999,-4.79,19.5
16.07323896884918,3,3,3,0,-9.23,-6.24,-3.73,-8.210000000000001,-4.8,20.16
16.08323895931244,3,3,3,0,-8.59,-5.85,-3.02,-8.210000000000001,-4.8,20.16
16.0932389497757,3,3,3,0,-8.44,-5.23,-2.82,-7.96,-5.4,20.33
16.10323894023895,3,3,3,0,-8.15,-5.77,-2.59,-9.33,-5.57,20.42
16.11323893070221,3,3,3,0,-7.56,-5.59,-2.62,-10.11,-5.23,19.9
16.12323892116547,3,3,3,0,-6.17,-5.32,-2.51,-11.08,-5.04,18.7
16.13323891162872,3,3,3,0,-5.93,-5.32,-2.48,-11.08,-5.04,18.7
16.14323890209198,3,3,3,0,-5.74,-5.08,-2.34,-11.94,-4.81,17.63
16.15323913097382,3,3,3,0,-5.74,-5.03,-1.89,-13.78,-3.97,14.47
16.16323912143707,3,3,3,0,-5.57,-5.8,-1.54,-14.91,-3.6,12.99
16.17323911190033,3,3,3,0,-5.18,-6.86,-1.53,-14.32,-2.95,11.99
16.18323910236359,3,3,3,0,-4.96,-7.61,-1.74,-14.32,-2.95,11.99
16.19323909282684,3,3,3,0,-4.81,-7.21,-2.28,-11.23,-2.22,11.17
16.2032390832901,3,3,3,0,-4.69,-4.89,-2.57,-0.68,-1.42,8.039999999999999
16.21323907375336,3,3,3,0,-4.89,-3.52,-1.87,2.58,-1.78,6.2
16.22323906421661,3,3,3,0,-5.12,-1.95,-0.71,2.81,-3.26,4.24
16.28323900699615,3,3,3,0,-9.49,0.21,1.24,-5.26,3.18,7.29
16.31323897838593,3,3,3,0,-9.369999999999999,9.19,1.85,8.31,9.81,9.619999999999999
16.32323896884918,3,3,3,0,-12.18,16.76,-0.2,13.01,-2.75,4.7
16.33323895931244,3,3,3,0,-12.64,20.13,1.96,13.01,-2.75,4.7
16.3432389497757,3,3,3,0,-12.87,20.9,3.97,12.42,-9.16,2
16.35323894023895,3,3,3,0,-11.87,18.51,4.1,-6.5,0.19,7.33
16.36323893070221,3,3,3,0,-9.699999999999999,9.529999999999999,1.17,-11.19,4.15,12.81
16.37323892116547,3,3,3,0,-9.550000000000001,5.68,0.12,-13.43,1.52,14.95
16.38323891162872,3,3,3,0,-9.460000000000001,1.81,-1.57,-13.43,1.52,14.95
16.39323890209198,3,3,3,0,-9.140000000000001,-2.15,-3.79,-13.19,-5.77,8.65
16.40323913097382,3,3,3,0,-13.04,-7.18,-3.49,-11.19,-6.06,1.39
16.41323912143707,3,3,3,0,-12.87,-7.65,3.39,-11.92,-7.15,-11.55
16.42323911190033,3,3,3,0,-12.41,-2.37,8.279999999999999,-11.92,-1.03,-9.859999999999999
16.43323910236359,3,3,3,0,-11.77,4.54,7.42,-11.92,-1.03,-9.859999999999999
16.44323909282684,3,3,3,0,-11.64,7.3,2.77,-19.1,2.55,-8.17
16.4532390832901,3,3,3,0,-12.62,2.7,1.97,-19.82,4.39,-6.83
16.46323907375336,3,3,3,0,-12.97,-1.6,1.1,-11.29,9.949999999999999,-6.38
16.47323906421661,3,3,3,0,-10.21,-6.3,-1.28,-5.71,10.37,-5.76
16.48323905467987,3,3,3,0,-10.39,-6.36,-3.06,-5.71,10.37,-5.76
16.49323904514313,3,3,3,0,-11.21,-4.6,-3.58,-1.39,10.16,-4.09
16.50323903560638,3,3,3,0,-10.69,-2.95,-3.3,5.92,5.99,-6.95
16.51323902606964,3,3,3,0,-7.06,-1.22,-3.3,7.26,7,-8.800000000000001
16.5232390165329,3,3,3,0,-7.49,-2.05,-4.29,7.46,7.74,-7.85
16.53323900699615,3,3,3,0,-8.34,-3.51,-5.04,7.46,7.74,-7.85
16.54323899745941,3,3,3,0,-8.74,-3.34,-4.89,9.33,7.45,-6.11
16.55323898792267,3,3,3,0,-9.42,-0.99,-4,10.49,6.42,-6.92
16.56323897838593,3,3,3,0,-10.26,-0.01,-3.91,9.43,6.33,-7.96
16.57323896884918,3,3,3,0,-10.98,1.25,-3.33,8.16,6.35,-9.43
16.58323895931244,3,3,3,0,-11.14,1.96,-2.62,8.16,6.35,-9.43
16.5932389497757,3,3,3,0,-11.3,1.37,-1.73,6.32,6.57,-9.77
16.60323894023895,3,3,3,0,-10.88,0.42,-1.54,3.98,6.31,-9.15
16.61323893070221,3,3,3,0,-9.66,-1.14,-1.49,5.35,6.42,-8.75
16.62323892116547,3,3,3,0,-9.220000000000001,-1.07,-1.76,6,6.75,-8.470000000000001
16.63323891162872,3,3,3,0,-10.1,-0.59,-2.46,6,6.75,-8.470000000000001
16.64323890209198,3,3,3,0,-10.34,-0.07000000000000001,-2.87,6.46,7.16,-8.5
16.65323913097382,3,3,3,0,-9.890000000000001,0.28,-2.94,6.67,7.6,-10.2
16.66423904895782,3,3,3,0,-9.890000000000001,-0.07000000000000001,-2.99,7.24,7.7,-10.51
16.67423903942108,3,3,3,0,-9.49,-0.11,-2.75,8.41,8.07,-9.949999999999999
16.68423902988434,3,3,3,0,-9.69,0,-2.4,8.41,8.07,-9.949999999999999
16.6942390203476,3,3,3,0,-9.83,0.17,-2.23,9.119999999999999,8.119999999999999,-9.710000000000001
16.70423901081085,3,3,3,0,-9.869999999999999,0.86,-2.02,9.4,8.130000000000001,-10.08
16.71423900127411,3,3,3,0,-9.82,0.6899999999999999,-1.52,9.16,8.48,-10.23
16.72423899173737,3,3,3,0,-9.9,0.47,-1.36,8.85,8.539999999999999,-10.41
16.73423898220062,3,3,3,0,-9.68,0.46,-1.32,8.85,8.539999999999999,-10.41
16.74423897266388,3,3,3,0,-9.460000000000001,0.92,-1.43,8.6,8.44,-10.76
16.75423896312714,3,3,3,0,-9.109999999999999,0.38,-1.46,9.5,8.34,-10.6
16.76423895359039,3,3,3,0,-9.199999999999999,0.3,-1.39,10.29,8.23,-10.16
16.77423894405365,3,3,3,0,-9.119999999999999,0.52,-1.37,10.39,7.89,-10.48
16.78423893451691,3,3,3,1,-8.85,1.19,-1.68,10.39,7.89,-10.48
16.79423892498016,3,3,3,1,-9.23,1.64,-1.72,9.83,7.23,-10.76
16.80423891544342,3,3,3,1,-9.470000000000001,1.78,-1.69,8.050000000000001,5.46,-11.94
16.81423890590668,3,3,3,1,-9.529999999999999,2.2,-1.94,6.74,5.1,-12.22
16.82423889636993,3,3,3,1,-9.6,2.45,-2.06,5.92,4.74,-12.24
16.83423912525177,3,3,3,1,-9.5,2.1,-1.44,5.92,4.74,-12.24
16.84423911571503,3,3,3,1,-9.199999999999999,2.34,-1.23,6.25,4.39,-12.77
16.85423910617828,3,3,3,1,-9.140000000000001,2.59,-1.14,7.38,3.98,-13.22
16.86423909664154,3,3,3,1,-9.07,2.78,-0.96,7.73,3.84,-13.22
16.8742390871048,3,3,3,1,-8.65,3.62,-0.91,7.12,3.7,-13.19
16.88423907756805,3,3,3,1,-8.5,3.78,-0.97,7.12,3.7,-13.19
16.89423906803131,3,3,3,1,-8.869999999999999,3.6,-0.97,6.16,3.5,-12.69
16.90423905849457,3,3,3,1,-9.359999999999999,3.5,-0.99,3.96,3.19,-10.12
16.91423904895782,3,3,3,1,-10.25,3.2,-1.59,3.65,3.08,-8.44
16.92423903942108,3,3,3,1,-10.46,3.15,-1.56,3.87,2.87,-7.41
16.93423902988434,3,3,3,1,-10.5,3.47,-1.65,3.87,2.87,-7.41
16.9442390203476,3,3,3,1,-10.3,3.85,-1.76,3.99,2.64,-7.27
16.95423901081085,3,3,3,1,-10.36,3.68,-1.22,3.87,1.73,-7.31
16.96423900127411,3,3,3,1,-10.49,2.95,-0.96,4.91,1.04,-7.22
16.97423899173737,3,3,3,1,-10.7,2.24,-0.6,7.56,0.27,-6.82
16.98423898220062,3,3,3,1,-10.85,2.08,-0.16,7.56,0.27,-6.82
16.99423897266388,3,3,3,2,-10.64,2.97,-0.09,10.6,-0.44,-6.18
17.00423896312714,3,3,3,2,-10.86,3.55,0.02,13.18,-1.85,-4.64
17.01423895359039,3,3,3,2,-11.29,4.44,-0.14,12.27,-2.62,-3.39
17.02423894405365,3,3,3,2,-11.66,5.43,0.07000000000000001,11.53,-3.23,-1.96
17.03423893451691,3,3,3,2,-12.55,6.89,1.67,11.53,-3.23,-1.96
17.04423892498016,3,3,3,2,-12.45,7.86,2.33,10.29,-4.03,-1.61
17.05423891544342,3,3,3,2,-12.14,8.23,2.46,3.38,-6.95,-2.09
17.06423890590668,3,3,3,2,-12.2,7.56,2.57,8.880000000000001,-9.32,-1.11
17.07423889636993,3,3,3,2,-11.75,2.94,3.2,11.8,-10.84,-0.08
17.08423912525177,3,3,3,2,-11.77,1.47,2.15,11.8,-10.84,-0.08
17.09423911571503,3,3,3,2,-11.38,1.73,0.78,12.59,-11.71,3.52
17.10423910617828,3,3,3,2,-10.54,2.12,-1.38,8.74,-8.539999999999999,9.66
17.11423909664154,3,3,3,2,-10.1,1.49,-5.23,6.66,-6.39,12
17.1242390871048,3,3,3,2,-11.32,1,-5.39,5.04,-5.74,14.75
17.13423907756805,3,3,3,2,-13.61,1.43,-4.67,5.04,-5.74,14.75
17.14423906803131,3,3,3,2,-15.5,1.44,-4.7,-0.18,-5.58,16.69
17.15423905849457,3,3,3,2,-17.35,-2.67,-3.82,-7.9,-5.92,13.45
17.16423904895782,3,3,3,2,-17.25,-4.01,-2.98,-8.44,-6.75,9.67
17.17423903942108,3,3,3,2,-16.27,-5.32,-2,-7.1,-8.130000000000001,9.109999999999999
17.18423902988434,3,3,3,2,-14.77,-6,-1.81,-7.1,-8.130000000000001,9.109999999999999
17.1942390203476,3,3,3,2,-12.84,-5.37,-1.46,-4.74,-9.109999999999999,11.57
17.20423901081085,3,3,3,2,-12.29,-5.69,-1.77,-2.03,-8.58,15.59
17.21423900127411,3,3,3,2,-12,-6.25,-2.6,-1.29,-6.65,16.03
17.22423899173737,3,3,3,2,-12.09,-6.51,-2.86,-1.36,-5.53,15.6
17.23423898220062,3,3,3,2,-11.64,-4.97,-1.93,-1.36,-5.53,15.6
17.24423897266388,3,3,3,2,-11.54,-4.62,-1.56,-2.7,-4.91,15.14
17.25423896312714,3,3,3,2,-11.4,-4.6,-1.32,-4.94,-4.87,15.67
17.26423895359039,3,3,3,2,-11.07,-4.43,-1.45,-5.71,-5.07,16.31
17.27423894405365,3,3,3,2,-10.19,-5.05,-1.67,-6.48,-5.36,16.84
17.28423893451691,3,3,3,2,-9.529999999999999,-5.28,-1.87,-6.48,-5.36,16.84
17.29423892498016,3,3,3,2,-8.93,-5.64,-2.08,-6.92,-5.31,17.17
17.30423891544342,3,3,3,2,-8.710000000000001,-5.69,-2.32,-7.17,-4.52,18.17
17.31423890590668,3,3,3,2,-8.32,-5.12,-2.73,-7.72,-4.18,17.95
17.32423889636993,3,3,3,2,-7.94,-4.57,-2.92,-8.31,-3.76,17.34
17.33423912525177,3,3,3,2,-7.6,-4.35,-3.05,-8.31,-3.76,17.34
17.34423911571503,3,3,3,2,-7.26,-4.09,-2.98,-9.119999999999999,-3.7,16.63
17.35423910617828,3,3,3,2,-6.9,-4.54,-2.75,-11.74,-4.8,14.44
17.36423909664154,3,3,3,2,-6.67,-5.1,-2.57,-11.87,-5.18,13.66
17.3742390871048,3,3,3,2,-6.45,-5.52,-2.39,-11.3,-5.27,12.52
17.38423907756805,3,3,3,2,-6.24,-6.48,-1.84,-11.3,-5.27,12.52
17.39423906803131,3,3,3,2,-5.88,-7.56,-1.73,-10.35,-5.32,11.12
17.40423905849457,3,3,3,2,-5.48,-8.34,-2.08,-1.55,-3.07,8.869999999999999
17.41423904895782,3,3,3,2,-5.37,-7.7,-2.73,3.78,-2.06,7.92
17.42423903942108,3,3,3,2,-5.67,-4.32,-2.92,7.09,-2.22,6.5
17.43423902988434,3,3,3,2,-5.73,-2.54,-2.09,7.09,-2.22,6.5
17.4442390203476,3,3,3,2,-5.58,-0.92,-0.91,7.43,-3.25,5.06
17.45423901081085,3,3,3,2,-5.19,-0.07000000000000001,-0.32,2.44,-2.03,5.12
17.46423900127411,3,3,3,2,-6.43,0.52,0.13,-0.73,0.03,5.51
17.47423899173737,3,3,3,2,-7.74,0.42,0.75,-4.13,1.99,5.6
17.48423898220062,3,3,3,2,-8.5,0.59,1.36,-4.13,1.99,5.6
17.49423897266388,3,3,3,2,-8.960000000000001,0.7,1.18,-7.91,4.8,5.96
17.50423896312714,3,3,3,2,-8.08,1.11,-0.52,-9.300000000000001,10.36,6.73
17.51423895359039,3,3,3,2,-7.56,2.14,-0.07000000000000001,-3.62,9.619999999999999,6.38
17.52423894405365,3,3,3,2,-7.96,4.95,1.17,1.85,5.51,4.7
17.53423893451691,3,3,3,2,-9.369999999999999,8.279999999999999,1.75,1.85,5.51,4.7
17.54423892498016,3,3,3,2,-12.39,14.74,1.44,6.46,0.01,2.17
17.55423891544342,3,3,3,2,-12.28,16.6,2.52,-0.86,-5.31,-0.6899999999999999
17.56423890590668,3,3,3,2,-11.31,17.02,3.3,-9.15,-1.22,3.21
17.60423910617828,3,3,3,2,-9.59,3.39,-0.6,-9.210000000000001,-1.88,10.9
17.61423909664154,3,3,3,2,-9.529999999999999,2.02,-1.21,-8.25,-3.39,7.36
17.6242390871048,3,3,3,2,-10.88,-4.2,-3.21,-6.47,-4.93,2.8
17.63423907756805,3,3,3,2,-11.52,-7.16,-2.37,-6.47,-4.93,2.8
17.64423906803131,3,3,3,2,-12.28,-5.95,2.03,-6.27,-4.94,-2.1
17.65423905849457,3,3,3,2,-12.31,0.12,6.5,-15.39,-2.08,-4.13
17.66423904895782,3,3,3,2,-14.06,12.25,4.82,-21.75,-4.89,-3.25
17.67423903942108,3,3,3,2,-14.72,12.89,2.56,-31.75,-4.06,-4.66
17.68523895740509,3,3,3,2,-14.14,6.81,0.43,-31.75,-4.06,-4.66
17.69523894786835,3,3,3,2,-12.83,-3.28,0.39,-30.32,3.54,-4.88
17.7052389383316,3,3,3,2,-7.64,-6.85,-3,-12.55,11.7,-6.06
17.71523892879486,3,3,3,2,-7.74,-4.78,-5.13,-5.55,11.68,-6.04
17.72523891925812,3,3,3,2,-8.9,-3.24,-3.8,0.08,7.94,-6
17.73523890972137,3,3,3,2,-9.460000000000001,-2.44,-0.59,0.08,7.94,-6
17.74523890018463,3,3,3,2,-8.029999999999999,-1.06,-2.21,4.19,5.88,-6.51
17.75523912906647,3,3,3,2,-7.4,-1.86,-5.14,4.5,7.41,-7.16
17.76523911952972,3,3,3,2,-7.65,-3,-5.45,8.029999999999999,8.050000000000001,-6.43
17.77523910999298,3,3,3,2,-8.44,-4.3,-4.23,13.04,6.6,-7.08
17.78523910045624,3,3,3,2,-9.720000000000001,-0.68,-2.35,13.04,6.6,-7.08
17.79523909091949,3,3,3,2,-11.16,-0.14,-1.61,14.67,5.89,-7.43
17.80523908138275,3,3,3,2,-12.85,1.38,-1.25,8.640000000000001,5.21,-6.95
17.81523907184601,3,3,3,2,-12.35,2.67,-0.92,5.38,5.63,-6.61
17.82523906230927,3,3,3,2,-9.6,1.69,-1.35,3.71,5.76,-6.96
17.83523905277252,3,3,3,2,-8.789999999999999,1.17,-2.18,3.71,5.76,-6.96
17.84523904323578,3,3,3,2,-9.34,0.49,-2.55,3.13,5.86,-6.93
17.85523903369904,3,3,3,2,-9.6,0.09,-2.54,3.92,5.73,-7.11
17.86523902416229,3,3,3,2,-9.81,0.04,-2.53,3.68,5.93,-7.43
17.87523901462555,3,3,3,2,-9.81,-0.27,-2.11,3.59,6.17,-8.130000000000001
17.88523900508881,3,3,3,2,-10.15,-0.83,-1.74,3.59,6.17,-8.130000000000001
17.89523899555206,3,3,3,2,-10,-0.77,-1.84,3.81,6.2,-8.65
17.90523898601532,3,3,3,2,-9.75,-0.7,-2.09,5.74,6.32,-7.98
17.91523897647858,3,3,3,2,-9.49,0.09,-2.27,6.31,6.38,-7.96
17.92523896694183,3,3,3,2,-9.460000000000001,0.49,-2.17,6.24,6.23,-7.5
17.93523895740509,3,3,3,2,-9.82,0.77,-1.81,6.24,6.23,-7.5
17.94523894786835,3,3,3,2,-10.41,0.75,-1.4,5.51,6.02,-6.98
17.9552389383316,3,3,3,2,-10.38,-0.05,-1.18,4.43,6.06,-6.99
17.96523892879486,3,3,3,2,-10.24,-0.51,-1.27,4.45,6.27,-7.37
17.97523891925812,3,3,3,2,-9.77,0.02,-1.44,4.63,6.69,-8.19
17.99523890018463,3,3,3,2,-9.130000000000001,0.27,-1.64,5.36,7.02,-7.97
18.01523911952972,3,3,3,2,-9.19,0.99,-1.95,5.75,6.48,-7.24
18.05523908138275,3,3,3,2,-9.460000000000001,0.59,-1.31,3.7,5.56,-8.35
18.06523907184601,3,3,3,2,-9.609999999999999,0.7,-1.41,3.96,5.33,-8.539999999999999
18.07523906230927,3,3,3,2,-9.5,0.79,-1.27,3.75,5.13,-8.65
18.08523905277252,3,3,3,2,-9.33,1.14,-1.19,3.75,5.13,-8.65
18.09523904323578,3,3,3,2,-9.06,0.87,-1.01,3.23,4.93,-9.02
18.10523903369904,3,3,3,2,-8.99,0.97,-1.06,3.58,4.35,-9.640000000000001
18.11523902416229,3,3,3,2,-8.859999999999999,1.1,-1.21,4.77,3.9,-9.970000000000001
18.12523901462555,3,3,3,2,-8.609999999999999,1.35,-1.27,6.2,3.53,-10.24
18.13523900508881,3,3,3,2,-8.5,1.48,-1.18,6.2,3.53,-10.24
18.14523899555206,3,3,3,2,-8.56,2.09,-1.03,7.5,3,-10.27
18.15523898601532,3,3,3,2,-8.75,1.91,-1.38,7.45,2.53,-9.130000000000001
18.16523897647858,3,3,3,2,-9.07,1.51,-1.43,7.71,2.52,-8.24
18.17523896694183,3,3,3,2,-9.300000000000001,1.89,-1.37,7.54,2.36,-7.95
18.18523895740509,3,3,3,2,-9.66,3.4,-0.8,7.54,2.36,-7.95
18.19523894786835,3,3,3,2,-9.65,3.97,-0.72,5.58,2.15,-7.68
18.2052389383316,3,3,3,2,-9.630000000000001,3.72,-0.6,1.35,1.46,-7.23
18.21523892879486,3,3,3,2,-9.75,3.13,-0.53,1.78,0.68,-6.8
18.22523891925812,3,3,3,2,-10.05,3.42,0.2,2.76,-0.26,-6.4
18.23523890972137,3,3,3,2,-10.14,3.75,0.52,2.76,-0.26,-6.4
18.24523890018463,3,3,3,2,-10.32,4.04,0.83,3.81,-1.09,-5.68
18.25523912906647,3,3,3,2,-10.67,4.23,0.61,6.01,-2.49,-3.54
18.26523911952972,3,3,3,2,-11.37,5.01,0.97,4.55,-2.47,-2.45
18.27523910999298,3,3,3,2,-12.2,4.42,1.29,8.42,-3.1,-1.47
18.28523910045624,3,3,3,2,-12.66,3.78,2.39,8.42,-3.1,-1.47
18.29523909091949,3,3,3,2,-13,3.79,3.31,14.91,-4.46,-1.68
18.30523908138275,3,3,3,2,-13.03,4.42,3.15,22.66,-8.619999999999999,-1.06
18.31523907184601,3,3,3,2,-13.11,4.07,2.82,21.68,-10.56,0.62
18.32523906230927,3,3,3,2,-13.03,3.71,2.46,17,-11.31,2.79
18.33523905277252,3,3,3,2,-12.54,2.16,0.39,17,-11.31,2.79
18.34523904323578,3,3,3,2,-11.96,0.95,-1.28,12.92,-11.17,4.87
18.35523903369904,3,3,3,2,-11.5,-0.38,-2.82,9.550000000000001,-8.880000000000001,7.89
18.36523902416229,3,3,3,2,-11.54,-1.68,-4.02,9.130000000000001,-7.52,9.16
18.37523901462555,3,3,3,2,-12.63,-2.98,-5.57,9.960000000000001,-6.46,10.37
18.38523900508881,3,3,3,2,-13.31,-2.62,-5.74,9.960000000000001,-6.46,10.37
18.39523899555206,3,3,3,2,-13.64,-2.93,-4.91,9.619999999999999,-5.66,10.96
18.40523898601532,3,3,3,2,-13.64,-2.66,-3.61,5.85,-7.91,11.04
18.41523897647858,3,3,3,2,-13.24,-2.24,-2.58,2.32,-8.199999999999999,10.24
18.42523896694183,3,3,3,2,-13.28,-3.03,-2.61,-0.75,-7.35,8.94
18.43523895740509,3,3,3,2,-13.01,-4.41,-2.47,-0.75,-7.35,8.94
18.44523894786835,3,3,3,2,-12.25,-5.63,-2.32,-3.11,-6.09,8.08
18.4552389383316,3,3,3,2,-10.37,-6.7,-1.86,-4.95,-3.98,9.98
18.46523892879486,3,3,3,2,-9.51,-6.95,-1.9,-4.31,-2.72,11.22
18.47523891925812,3,3,3,2,-9.16,-6.83,-1.78,-2.78,-1.95,11.93
18.48523890972137,3,3,3,2,-8.84,-6.18,-1.7,-2.78,-1.95,11.93
18.49523890018463,3,3,3,2,-8.640000000000001,-5.15,-1.26,-1.6,-1.81,11.92
18.50523912906647,3,3,3,2,-8.609999999999999,-4.79,-0.74,-1.49,-3.51,11.31
18.51523911952972,3,3,3,2,-8.41,-4.72,-0.61,-1.52,-4.36,11.12
18.52523910999298,3,3,3,2,-8.029999999999999,-5.3,-0.98,-1.01,-4.83,11.88
18.53523910045624,3,3,3,1,-8.470000000000001,-5.42,-1.72,-1.01,-4.83,11.88
18.54523909091949,3,3,3,1,-8.81,-4.62,-1.91,0.01,-5.02,12.81
18.55523908138275,3,3,3,1,-8.949999999999999,-3.86,-1.56,-1.77,-5.3,12.98
18.56523907184601,3,3,3,1,-8.92,-4.05,-1.5,-3.23,-4.98,13.23
18.57523906230927,3,3,3,1,-9.02,-4.35,-1.26,-3.78,-4.99,13.06
18.58523905277252,3,3,3,1,-9.01,-4.47,-1.06,-3.78,-4.99,13.06
18.59523904323578,3,3,3,1,-8.800000000000001,-4.39,-1.19,-3.1,-5.28,12.27
18.60523903369904,3,3,3,1,-8.289999999999999,-4.53,-1.48,-2.42,-2.14,11.29
18.61523902416229,3,3,3,1,-7.37,-4.22,-1.72,-2.46,1.05,10.47
18.62523901462555,3,3,3,1,-6.94,-4.05,-1.82,-2.18,4.01,9.220000000000001
18.63523900508881,3,3,3,0,-6.9,-3.88,-1.95,-2.18,4.01,9.220000000000001
18.64523899555206,3,3,3,0,-7.23,-3.52,-2.05,-1.72,5.28,7.96
18.65523898601532,3,3,3,0,-8.720000000000001,-4.35,-1.65,-2.95,2.24,5.17
18.66523897647858,3,3,3,0,-9.35,-4.47,-1.35,-4.15,0.87,4.31
18.67523896694183,3,3,3,0,-9.19,-3.89,-1.2,-4.27,0.52,3.57
18.68523895740509,3,3,3,0,-8.69,-2.8,-0.91,-4.27,0.52,3.57
18.69523894786835,3,3,3,0,-8.279999999999999,0.11,0.04,-5.49,1.25,3.27
18.7052389383316,3,3,3,0,-8.5,1.44,0.16,-9.73,5.92,4.18
18.71623909473419,3,3,3,0,-8.99,2.57,-0.1,-12.63,8.029999999999999,4.41
18.72623908519745,3,3,3,0,-9.41,3.2,-0.41,-14.4,8.109999999999999,4.21
18.73623907566071,3,3,3,0,-9.69,3.69,-0.66,-14.4,8.109999999999999,4.21
18.74623906612396,3,3,3,0,-9.710000000000001,4.09,-0.17,-14.61,6.57,4.15
18.75623905658722,3,3,3,0,-9.869999999999999,4.3,0.9,-17.47,1.48,4.18
18.76623904705048,3,3,3,0,-9.93,4.04,1.91,-17.15,-0.88,4.12
18.77623903751373,3,3,3,0,-8.67,3.04,2.45,-15.83,-2.03,3.54
18.78623902797699,3,3,3,0,-8.01,2.93,1.92,-15.83,-2.03,3.54
18.79623901844025,3,3,3,0,-7.92,2.96,1.12,-13.52,-1.9,2.74
18.8062390089035,3,3,3,0,-8.26,2.39,0.75,-6.84,-3.06,4.15
18.81623899936676,3,3,3,0,-9.19,1.92,0.82,-2.98,-2.15,6.1
18.82623898983002,3,3,3,0,-8.880000000000001,3.05,-0.03,-3.37,0.67,7.08
18.83623898029327,3,3,3,0,-9.1,4.82,-1.54,-3.37,0.67,7.08
18.84623897075653,3,3,3,0,-9.470000000000001,4.25,-0.77,-2.64,-1.04,6.04
18.85623896121979,3,3,3,0,-7.26,2.07,-0.98,-7.57,-4.77,-0.9399999999999999
18.86623895168304,3,3,3,0,-7.23,-0.96,-1.78,-6.62,-0.13,-2.31
18.8762389421463,3,3,3,0,-8.529999999999999,-4.5,-1.77,-1.49,3.17,-3.27
18.88623893260956,3,3,3,0,-10.24,-6.5,-1.64,-1.49,3.17,-3.27
18.89623892307281,3,3,3,0,-13.85,-3.35,0.27,-1.3,3.43,-3.8
18.90623891353607,3,3,3,0,-14.41,0.59,1.21,-5.08,1.54,-2
18.91623890399933,3,3,3,0,-14.42,4.15,1.32,-11.96,5.25,-2.36
18.92623913288116,3,3,3,0,-14.11,4.43,0.92,-16.6,9.26,-3.69
18.93623912334442,3,3,3,0,-12.28,-3.04,0.67,-16.6,9.26,-3.69
18.94623911380768,3,3,3,0,-11.11,-4.55,1.12,-14.34,10.42,-4.93
18.95623910427094,3,3,3,0,-9.800000000000001,-3.87,0.6899999999999999,-8.65,8.960000000000001,-5.07
18.96623909473419,3,3,3,0,-9.27,-2.35,-0.33,-7.32,8.92,-4.7
18.97623908519745,3,3,3,0,-9.31,-1.79,-1.83,-5.74,7.91,-4.49
18.98623907566071,3,3,3,0,-8.9,-1.12,-2.02,-5.74,7.91,-4.49
18.99623906612396,3,3,3,0,-8.890000000000001,-0.19,-1.98,-3.9,6.99,-4.26
19.00623905658722,3,3,3,0,-9.25,0.24,-1.89,-1.13,5.2,-3.17
19.01623904705048,3,3,3,0,-10.05,0.51,-0.8100000000000001,0.67,4.2,-3.03
19.02623903751373,3,3,3,0,-10.05,0.51,-0.8100000000000001,2.63,3.57,-3.53
19.03623902797699,3,3,3,0,-10.03,0.54,-0.42,2.63,3.57,-3.53
19.04623901844025,3,3,3,0,-9.789999999999999,1.43,-0.29,3.79,3.49,-3.19
19.0562390089035,3,3,3,0,-9.800000000000001,2.45,-0.53,2.56,3.85,-0.96
19.06623899936676,3,3,3,0,-9.58,3.27,-0.74,1.85,3.71,-0.89
19.07623898983002,3,3,3,0,-9.199999999999999,4.05,-0.66,0.5,3.56,-1.35
19.08623898029327,3,3,3,0,-9.199999999999999,4.05,-0.66,0.5,3.56,-1.35
19.09623897075653,3,3,3,0,-9.369999999999999,4.19,-1.18,-1.19,3.42,-1.73
19.10623896121979,3,3,3,0,-9.539999999999999,2.63,-1.57,-3.59,3.39,-0.87
19.11623895168304,3,3,3,0,-9.449999999999999,1.78,-1.8,-3.9,3.51,-0.5600000000000001
19.1262389421463,3,3,3,0,-9.789999999999999,0.45,-1.57,-3.61,3.52,-0.25
19.13623893260956,3,3,3,0,-9.789999999999999,0.45,-1.57,-3.61,3.52,-0.25
19.14623892307281,3,3,3,0,-9.69,0.5600000000000001,-1.67,-2.48,3.1,-0.16
