timestamp,magCalib,accCalib,gyrCalib,sysCalib,accX,accY,accZ,gyrX,gyrY,gyrZ
-0.02976095676422119,1,3,3,0,-9.56,0.8,1.91,0.41,0.35,0.44
-0.01976096630096436,1,3,3,0,-9.57,0.82,1.92,0.42,0.34,0.44
-0.00976097583770752,1,3,3,0,-9.56,0.84,1.98,0.42,0.34,0.44
0.0002390146255493164,1,3,3,0,-9.57,0.84,2.03,0.48,0.34,0.43
0.01023900508880615,1,3,3,0,-9.56,0.84,2.01,0.28,0.29,0.39
0.02123892307281494,1,3,3,0,-9.539999999999999,0.88,1.9,0.23,0.25,0.39
0.03123891353607178,1,3,3,0,-9.539999999999999,0.91,1.96,0.24,0.26,0.37
0.04123890399932861,1,3,3,0,-9.49,0.89,2.02,0.24,0.26,0.37
0.05123913288116455,1,3,3,0,-9.470000000000001,0.88,2.01,0.17,0.22,0.35
0.06123912334442139,1,3,3,0,-9.49,0.89,2.04,0.08,0.14,0.32
0.07123911380767822,1,3,3,0,-9.49,0.87,1.9,0.06,0.16,0.31
0.08123910427093506,1,3,3,0,-9.48,0.88,1.96,0.06,0.2,0.3
0.09123909473419189,1,3,3,0,-9.49,0.85,2.05,0.06,0.2,0.3
0.1012390851974487,1,3,3,0,-9.51,0.85,2.02,0.08,0.21,0.32
0.1112390756607056,1,3,3,0,-9.539999999999999,0.87,1.97,0,0.11,0.35
0.1212390661239624,1,3,3,0,-9.539999999999999,0.82,1.93,0.01,0.14,0.34
0.1312390565872192,1,3,3,0,-9.56,0.83,1.96,-0.03,0.15,0.39
0.1412390470504761,1,3,3,0,-9.539999999999999,0.82,1.97,-0.03,0.15,0.39
0.1512390375137329,1,3,3,0,-9.529999999999999,0.83,1.98,-0.07000000000000001,0.18,0.35
0.1612390279769897,1,3,3,0,-9.5,0.86,1.91,-0.09,0.16,0.32
0.1712390184402466,1,3,3,0,-9.51,0.86,1.82,-0.09,0.16,0.32
0.1812390089035034,1,3,3,0,-9.470000000000001,0.87,1.88,-0.11,0.18,0.3
0.1912389993667603,1,3,3,0,-9.48,0.85,1.96,-0.08,0.22,0.25
0.2012389898300171,1,3,3,0,-9.48,0.88,1.98,-0.05,0.18,0.19
0.2112389802932739,1,3,3,0,-9.460000000000001,0.88,2.04,0.02,0.18,0.13
0.2212389707565308,1,3,3,0,-9.470000000000001,0.87,1.92,0.02,0.2,0.12
0.2312389612197876,1,3,3,0,-9.49,0.88,1.9,-0.03,0.2,0.07000000000000001
0.2412389516830444,1,3,3,0,-9.49,0.86,1.95,-0.07000000000000001,0.21,0.06
0.2512389421463013,1,3,3,0,-9.49,0.88,1.98,-0.12,0.22,0.04
0.2612389326095581,1,3,3,0,-9.51,0.85,2.04,-0.09,0.27,0.05
0.2712389230728149,1,3,3,0,-9.52,0.83,1.9,-0.14,0.21,0.08
0.2812389135360718,1,3,3,0,-9.539999999999999,0.82,1.95,-0.2,0.23,0.06
0.2912389039993286,1,3,3,0,-9.539999999999999,0.85,2,-0.26,0.2,0.05
0.3012391328811646,1,3,3,0,-9.539999999999999,0.85,1.96,-0.31,0.17,0.03
0.3112391233444214,1,3,3,0,-9.539999999999999,0.8100000000000001,1.96,-0.33,0.19,0.11
0.3212391138076782,1,3,3,0,-9.529999999999999,0.85,1.91,-0.34,0.21,0.09
0.3312391042709351,1,3,3,0,-9.51,0.84,1.96,-0.4,0.13,0.06
0.3412390947341919,1,3,3,0,-9.52,0.82,1.98,-0.43,0.13,0.05
0.3512390851974487,1,3,3,0,-9.529999999999999,0.8,2.01,-0.48,0.1,0.03
0.3612390756607056,1,3,3,0,-9.5,0.8,1.99,-0.46,0.09,0.01
0.3712390661239624,1,3,3,0,-9.52,0.8,1.89,-0.52,0.07000000000000001,0
0.3812390565872192,1,3,3,0,-9.470000000000001,0.79,2.01,-0.53,0.02,-0.06
0.3912390470504761,1,3,3,0,-9.48,0.72,2.03,-0.54,0.03,-0.08
0.4012390375137329,1,3,3,0,-9.5,0.72,2.06,-0.54,0.05,-0.15
0.4112390279769897,1,3,3,0,-9.52,0.72,2.07,-0.52,0,-0.17
0.4212390184402466,1,3,3,0,-9.56,0.7,1.89,-0.49,-0.01,-0.19
0.4312390089035034,1,3,3,0,-9.539999999999999,0.72,1.96,-0.42,-0.02,-0.21
0.4412389993667603,1,3,3,0,-9.539999999999999,0.71,1.99,-0.36,0.01,-0.19
0.4512389898300171,1,3,3,0,-9.550000000000001,0.72,2.06,-0.29,0.01,-0.18
0.4612389802932739,1,3,3,0,-9.550000000000001,0.76,2.09,-0.19,-0.02,-0.2
0.4712389707565308,1,3,3,0,-9.529999999999999,0.75,1.98,-0.18,-0.04,-0.25
0.4812389612197876,1,3,3,0,-9.51,0.78,1.98,-0.17,-0.06,-0.27
0.4912389516830444,1,3,3,0,-9.5,0.78,2.03,-0.17,-0.07000000000000001,-0.29
0.5012389421463013,1,3,3,0,-9.48,0.79,2.02,-0.16,-0.06,-0.31
0.5112389326095581,1,3,3,0,-9.52,0.8,2.02,-0.15,-0.06,-0.34
0.5212389230728149,1,3,3,0,-9.52,0.8,1.92,-0.16,-0.05,-0.34
0.5312389135360718,1,3,3,0,-9.529999999999999,0.77,2,-0.1,0.01,-0.34
0.5412389039993286,1,3,3,0,-9.539999999999999,0.78,2.04,-0.11,-0.02,-0.3
0.5512391328811646,1,3,3,0,-9.52,0.77,2.09,-0.1,-0.01,-0.32
0.5612391233444214,1,3,3,0,-9.529999999999999,0.8,2.07,-0.07000000000000001,-0.07000000000000001,-0.31
0.5712391138076782,1,3,3,0,-9.51,0.8,2,-0.07000000000000001,-0.04,-0.28
0.5812391042709351,1,3,3,0,-9.49,0.8100000000000001,2.04,-0.05,-0.03,-0.26
0.5912390947341919,1,3,3,0,-9.49,0.79,2.07,-0.08,-0.09,-0.27
0.6012390851974487,1,3,3,0,-9.48,0.8100000000000001,2.09,-0.02,-0.11,-0.29
0.6112390756607056,1,3,3,0,-9.460000000000001,0.74,2.09,0.09,-0.08,-0.3
0.6212390661239624,1,3,3,0,-9.49,0.72,1.99,0.18,-0.09,-0.29
0.6312390565872192,1,3,3,0,-9.51,0.7,1.98,0.18,-0.06,-0.25
0.6412390470504761,1,3,3,0,-9.5,0.73,2,0.21,-0.08,-0.19
0.6512390375137329,1,3,3,0,-9.49,0.77,2.05,0.2,-0.07000000000000001,-0.13
0.6612390279769897,1,3,3,0,-9.49,0.8100000000000001,2.06,0.21,-0.05,-0.09
0.6712390184402466,1,3,3,0,-9.48,0.8100000000000001,2,0.25,-0.04,-0.09
0.6812390089035034,1,3,3,0,-9.49,0.79,2.06,0.24,-0.07000000000000001,-0.06
0.6912389993667603,1,3,3,0,-9.5,0.77,2.02,0.17,-0.08,-0.07000000000000001
0.7012389898300171,1,3,3,0,-9.52,0.77,1.99,0.05,-0.07000000000000001,-0.06
0.7112389802932739,1,3,3,0,-9.51,0.79,2.01,-0.05,-0.07000000000000001,-0.01
0.7212389707565308,1,3,3,0,-9.48,0.83,1.95,-0.05,-0.11,0
0.7312389612197876,1,3,3,0,-9.470000000000001,0.82,2.02,-0.01,-0.08,-0.01
0.7412389516830444,1,3,3,0,-9.48,0.8100000000000001,2.06,0.02,-0.06,0
0.7512389421463013,1,3,3,0,-9.460000000000001,0.8100000000000001,2.08,0.03,-0.03,0
0.7612389326095581,1,3,3,0,-9.49,0.8100000000000001,2.03,0.03,-0.01,0.02
0.7712389230728149,1,3,3,0,-9.48,0.8100000000000001,2.01,0.09,-0.04,0.04
0.7812389135360718,1,3,3,0,-9.5,0.8,1.98,0.09,-0.04,0.05
0.7912389039993286,1,3,3,0,-9.52,0.82,2.02,0.05,-0.02,0.08
0.8012391328811646,1,3,3,0,-9.49,0.83,2.05,-0.01,-0.01,0.08
0.8112391233444214,1,3,3,0,-9.49,0.83,2.03,0.01,0.01,0.06
0.8212391138076782,1,3,3,0,-9.52,0.83,1.97,0,0,0.08
0.8312391042709351,1,3,3,0,-9.529999999999999,0.79,1.97,0.04,-0.01,0.05
0.8412390947341919,1,3,3,0,-9.529999999999999,0.77,2.04,0.03,-0.01,0.08
0.8512390851974487,1,3,3,0,-9.52,0.78,2.07,-0.07000000000000001,0.01,0.08
0.8612390756607056,1,3,3,0,-9.51,0.79,2.08,-0.07000000000000001,0,0.08
0.8712390661239624,1,3,3,0,-9.49,0.79,2.01,-0.08,-0.02,0.1
0.8812390565872192,1,3,3,0,-9.49,0.79,2.04,0.03,-0.05,0.1
0.8912390470504761,1,3,3,0,-9.49,0.8,2.04,0.06,-0.07000000000000001,0.07000000000000001
0.9012390375137329,1,3,3,0,-9.48,0.8,2.02,0.08,-0.13,0.03
0.9112390279769897,1,3,3,0,-9.48,0.82,2.01,0.08,-0.2,0.04
0.9212390184402466,1,3,3,0,-9.470000000000001,0.83,1.93,0.09,-0.21,-0.03
0.9312390089035034,1,3,3,0,-9.48,0.86,2.01,0.08,-0.24,-0.02
0.9412389993667603,1,3,3,0,-9.5,0.85,2.08,0.04,-0.24,-0.08
0.9512389898300171,1,3,3,0,-9.539999999999999,0.83,2.1,-0.01,-0.26,-0.11
0.9612389802932739,1,3,3,0,-9.56,0.8,2.06,-0.04,-0.31,-0.13
0.9712389707565308,1,3,3,0,-9.57,0.76,1.99,-0.1,-0.38,-0.15
0.9812389612197876,1,3,3,0,-9.57,0.72,1.98,-0.21,-0.41,-0.15
0.9912389516830444,1,3,3,0,-9.52,0.72,2.04,-0.29,-0.46,-0.15
1.001238942146301,1,3,3,0,-9.5,0.73,2.06,-0.24,-0.47,-0.16
1.011238932609558,1,3,3,0,-9.48,0.71,2.04,-0.17,-0.47,-0.18
1.021238923072815,1,3,3,0,-9.49,0.72,1.93,-0.1,-0.45,-0.21
1.031238913536072,1,3,3,0,-9.460000000000001,0.7,2,-0.13,-0.5,-0.21
1.041238903999329,1,3,3,0,-9.470000000000001,0.6899999999999999,2.04,-0.07000000000000001,-0.52,-0.24
1.052239060401917,1,3,3,0,-9.460000000000001,0.7,2.08,-0.01,-0.46,-0.22
1.062239050865173,1,3,3,0,-9.460000000000001,0.7,2.08,0.02,-0.46,-0.2
1.07223904132843,1,3,3,0,-9.5,0.72,2.05,0.05,-0.45,-0.15
1.082239031791687,1,3,3,0,-9.52,0.73,2.1,0.11,-0.43,-0.12
1.092239022254944,1,3,3,0,-9.52,0.75,2.09,0.1,-0.44,-0.13
1.102239012718201,1,3,3,0,-9.529999999999999,0.8,2.05,0.14,-0.43,-0.13
1.112239003181458,1,3,3,0,-9.52,0.84,2.06,0.16,-0.39,-0.1
1.122238993644714,1,3,3,0,-9.51,0.85,1.95,0.19,-0.37,-0.1
1.132238984107971,1,3,3,0,-9.5,0.88,1.99,0.13,-0.34,-0.12
1.142238974571228,1,3,3,0,-9.51,0.92,2.05,0.08,-0.35,-0.14
1.152238965034485,1,3,3,0,-9.5,0.9,2.04,0.02,-0.38,-0.22
1.162238955497742,1,3,3,0,-9.48,0.9399999999999999,2.06,-0.04,-0.38,-0.26
1.172238945960999,1,3,3,0,-9.49,0.95,1.98,-0.1,-0.4,-0.31
1.182238936424255,1,3,3,0,-9.5,0.98,2.09,-0.17,-0.38,-0.4
1.192238926887512,1,3,3,0,-9.5,0.95,2.1,-0.22,-0.42,-0.4
1.202238917350769,1,3,3,0,-9.48,0.91,2.11,-0.27,-0.37,-0.47
1.212238907814026,1,3,3,0,-9.49,0.9399999999999999,2.1,-0.28,-0.35,-0.49
1.222238898277283,1,3,3,0,-9.49,0.86,1.99,-0.32,-0.41,-0.52
1.232239127159119,1,3,3,0,-9.51,0.84,2.02,-0.33,-0.38,-0.52
1.242239117622375,1,3,3,0,-9.5,0.82,2.06,-0.32,-0.38,-0.5
1.252239108085632,1,3,3,0,-9.5,0.84,2.06,-0.26,-0.34,-0.43
1.262239098548889,1,3,3,0,-9.470000000000001,0.8100000000000001,2.1,-0.26,-0.35,-0.4
1.272239089012146,1,3,3,0,-9.470000000000001,0.8,2.03,-0.22,-0.34,-0.37
1.282239079475403,1,3,3,0,-9.44,0.79,2.06,-0.14,-0.32,-0.33
1.29223906993866,1,3,3,0,-9.449999999999999,0.8100000000000001,2.09,-0.07000000000000001,-0.27,-0.29
1.302239060401917,1,3,3,0,-9.48,0.77,2.15,0.04,-0.26,-0.27
1.312239050865173,1,3,3,0,-9.49,0.75,2.13,0.07000000000000001,-0.33,-0.27
1.32223904132843,1,3,3,0,-9.49,0.71,2.02,0.16,-0.37,-0.26
1.332239031791687,1,3,3,0,-9.48,0.74,2.11,0.17,-0.38,-0.25
1.342239022254944,1,3,3,0,-9.470000000000001,0.6899999999999999,2.17,0.18,-0.41,-0.24
1.352239012718201,1,3,3,0,-9.449999999999999,0.6899999999999999,2.21,0.2,-0.41,-0.26
1.362239003181458,1,3,3,0,-9.449999999999999,0.68,2.21,0.21,-0.42,-0.24
1.372238993644714,1,3,3,0,-9.470000000000001,0.66,2.06,0.22,-0.39,-0.23
1.382238984107971,1,3,3,0,-9.49,0.68,2.09,0.25,-0.45,-0.22
1.392238974571228,1,3,3,0,-9.49,0.66,2.13,0.27,-0.47,-0.23
1.402238965034485,1,3,3,0,-9.48,0.6899999999999999,2.15,0.32,-0.47,-0.22
1.412238955497742,1,3,3,0,-9.44,0.72,2.15,0.36,-0.41,-0.18
1.422238945960999,1,3,3,0,-9.44,0.75,2.12,0.41,-0.35,-0.12
1.432238936424255,1,3,3,0,-9.42,0.77,2.18,0.42,-0.37,-0.1
1.442238926887512,1,3,3,0,-9.449999999999999,0.8,2.19,0.44,-0.35,-0.09
1.452238917350769,1,3,3,0,-9.470000000000001,0.84,2.21,0.43,-0.34,-0.09
1.462238907814026,1,3,3,0,-9.460000000000001,0.88,2.18,0.46,-0.27,-0.07000000000000001
1.472238898277283,1,3,3,0,-9.48,0.9,2.1,0.45,-0.25,0
1.482239127159119,1,3,3,0,-9.49,0.95,2.13,0.36,-0.17,0
1.492239117622375,1,3,3,0,-9.49,1,2.24,0.24,-0.09,0.03
1.502239108085632,1,3,3,0,-9.49,1.03,2.21,0.12,-0.09,0.07000000000000001
1.512239098548889,1,3,3,0,-9.470000000000001,1.05,2.21,0,-0.07000000000000001,0.1
1.522239089012146,1,3,3,0,-9.43,1.08,2.22,-0.16,-0.08,0.15
1.532239079475403,1,3,3,0,-9.460000000000001,1.08,2.35,-0.36,-0.12,0.15
1.54223906993866,1,3,3,0,-9.48,1.11,2.32,-0.49,-0.18,0.19
1.552239060401917,1,3,3,0,-9.539999999999999,1.14,2.24,-0.64,-0.26,0.14
1.562239050865173,1,3,3,0,-9.609999999999999,1.23,2.11,-0.75,-0.34,0.08
1.57223904132843,1,3,3,0,-9.58,1.23,2.06,-0.76,-0.42,0.07000000000000001
1.582239031791687,1,3,3,0,-9.52,1.2,2.18,-0.74,-0.42,0.07000000000000001
1.592239022254944,1,3,3,0,-9.470000000000001,1.17,2.18,-0.89,-0.44,0.05
1.602239012718201,1,3,3,0,-9.380000000000001,1.15,2.09,-0.97,-0.39,0.06
1.612239003181458,1,3,3,0,-9.390000000000001,1.12,2.06,-1.06,-0.35,0.09
1.622238993644714,1,3,3,0,-9.390000000000001,1.08,1.99,-1.19,-0.32,0.14
1.632238984107971,1,3,3,0,-9.42,1.06,2.07,-1.36,-0.32,0.18
1.642238974571228,1,3,3,0,-9.49,1.05,2.2,-1.55,-0.34,0.17
1.652238965034485,1,3,3,0,-9.5,0.99,2.22,-1.69,-0.43,0.11
1.662238955497742,1,3,3,0,-9.51,0.98,2.16,-1.78,-0.55,0.08
1.672238945960999,1,3,3,0,-9.470000000000001,0.97,2.04,-1.84,-0.54,0.05
1.682238936424255,1,3,3,0,-9.44,0.9,2.07,-1.82,-0.49,0.02
1.692238926887512,1,3,3,0,-9.460000000000001,0.83,2.08,-1.65,-0.36,0.04
1.702238917350769,1,3,3,0,-9.41,0.79,2.06,-1.42,-0.19,0.07000000000000001
1.712238907814026,1,3,3,0,-9.44,0.73,2.12,-1.3,-0.06,0.1
1.722238898277283,1,3,3,0,-9.52,0.72,2.06,-1.13,0.03,0.12
1.732239127159119,1,3,3,0,-9.789999999999999,1.14,2.04,-0.8100000000000001,0.15,0.21
1.742239117622375,1,3,3,0,-9.08,0.72,2.31,-0.6899999999999999,0.01,0.23
1.752239108085632,1,3,3,0,-9.48,0.76,2.18,-0.67,0.07000000000000001,0.06
1.762239098548889,1,3,3,0,-9.26,0.57,2.19,-0.53,-0.02,0
1.772239089012146,1,3,3,0,-9.41,0.37,2.21,-0.4,-0.03,-0.1
1.782239079475403,1,3,3,0,-9.25,0.16,2.3,-0.26,-0.13,-0.2
1.79223906993866,1,3,3,0,-9.26,0.67,2.24,0.11,-0.16,-0.18
1.802239060401917,1,3,3,0,-9.51,0.8,2.23,0.39,-0.24,-0.13
1.812239050865173,1,3,3,0,-9.42,0.6899999999999999,2.15,0.59,-0.07000000000000001,-0.12
1.82223904132843,1,3,3,0,-9.460000000000001,0.71,2.13,0.58,0.06,-0.06
1.832239031791687,1,3,3,0,-9.449999999999999,0.7,2.2,0.48,0.07000000000000001,-0.05
1.842239022254944,1,3,3,0,-9.470000000000001,0.7,2.27,0.38,0.11,0.01
1.852239012718201,1,3,3,0,-9.470000000000001,0.71,2.29,0.37,0.16,0.08
1.862239003181458,1,3,3,0,-9.49,0.71,2.29,0.38,0.31,0.13
1.872238993644714,1,3,3,0,-9.460000000000001,0.67,2.2,0.43,0.38,0.18
1.882238984107971,1,3,3,0,-9.380000000000001,0.73,2.23,0.41,0.26,0.24
1.892238974571228,1,3,3,0,-9.390000000000001,0.82,2.28,0.46,0.33,0.28
1.902238965034485,1,3,3,0,-9.4,0.85,2.29,0.43,0.33,0.27
1.912238955497742,1,3,3,0,-9.4,0.8,2.28,0.37,0.33,0.25
1.922238945960999,1,3,3,0,-9.449999999999999,0.9,2.22,0.34,0.24,0.22
1.932238936424255,1,3,3,0,-9.42,0.91,2.28,0.2,0.22,0.23
1.952238917350769,1,3,3,0,-9.550000000000001,0.96,2.3,0.02,0.13,0.28
1.982239127159119,1,3,3,0,-9.48,0.76,2.28,-0.16,-0.1,0.29
2.012239098548889,1,3,3,0,-9.41,0.78,2.41,-0.11,0.28,0.46
2.022239089012146,1,3,3,0,-9.32,0.91,2.24,-0.1,0.4,0.48
2.04223906993866,1,3,3,0,-9.48,0.88,2.33,-0.14,0.52,0.4
2.053238987922668,1,3,3,0,-9.56,0.87,2.29,-0.3,0.28,0.32
2.062239050865173,1,3,3,0,-9.609999999999999,0.87,2.13,-0.39,0.12,0.19
2.073238968849182,1,3,3,0,-9.609999999999999,0.87,2.08,-0.49,0.04,0.11
2.083238959312439,1,3,3,0,-9.58,0.8100000000000001,2.15,-0.51,-0.03,0.04
2.093238949775696,1,3,3,0,-9.539999999999999,0.78,2.31,-0.48,-0.11,-0.07000000000000001
2.103238940238953,1,3,3,0,-9.51,0.78,2.42,-0.44,-0.29,-0.15
2.113238930702209,1,3,3,0,-9.449999999999999,0.8,2.33,-0.31,-0.47,-0.3
2.123238921165466,1,3,3,0,-9.42,0.8,2.27,-0.12,-0.59,-0.36
2.133238911628723,1,3,3,0,-9.359999999999999,0.88,2.3,0,-0.7,-0.37
2.14323890209198,1,3,3,0,-9.5,0.96,2.29,-0.08,-0.67,-0.41
2.153239130973816,1,3,3,0,-9.5,0.93,2.25,-0.14,-0.71,-0.4
2.163239121437073,1,3,3,0,-9.539999999999999,0.83,2.23,-0.23,-0.73,-0.33
2.17323911190033,1,3,3,0,-9.49,0.83,2.28,-0.38,-0.75,-0.28
2.183239102363586,1,3,3,0,-9.52,0.8100000000000001,2.32,-0.46,-0.86,-0.26
2.193239092826843,1,3,3,0,-9.48,0.79,2.32,-0.41,-0.88,-0.24
2.2032390832901,1,3,3,0,-9.41,0.78,2.31,-0.4,-0.84,-0.29
2.213239073753357,1,3,3,0,-9.35,0.75,2.22,-0.43,-0.71,-0.34
2.223239064216614,1,3,3,0,-9.390000000000001,0.73,2.27,-0.33,-0.6,-0.35
2.233239054679871,1,3,3,0,-9.35,0.74,2.34,-0.23,-0.68,-0.37
2.243239045143127,1,3,3,0,-9.32,0.72,2.29,-0.12,-0.7,-0.4
2.253239035606384,1,3,3,0,-9.390000000000001,0.72,2.34,0.02,-0.66,-0.39
2.263239026069641,1,3,3,0,-9.43,0.66,2.32,0.16,-0.57,-0.36
2.273239016532898,1,3,3,0,-9.48,0.62,2.2,0.24,-0.48,-0.34
2.283239006996155,1,3,3,0,-9.48,0.61,2.25,0.34,-0.38,-0.29
2.293238997459412,1,3,3,0,-9.44,0.71,2.4,0.45,-0.38,-0.24
2.303238987922668,1,3,3,0,-9.41,0.73,2.4,0.57,-0.33,-0.21
2.313238978385925,1,3,3,0,-9.41,0.78,2.43,0.66,-0.29,-0.19
2.323238968849182,1,3,3,0,-9.390000000000001,0.77,2.34,0.77,-0.22,-0.22
2.333238959312439,1,3,3,0,-9.4,0.8100000000000001,2.35,0.78,-0.15,-0.22
2.343238949775696,1,3,3,0,-9.449999999999999,0.79,2.43,0.8,-0.07000000000000001,-0.17
2.353238940238953,1,3,3,0,-9.49,0.8,2.51,0.83,-0.19,-0.15
2.363238930702209,1,3,3,0,-9.51,0.8,2.39,0.8100000000000001,-0.31,-0.07000000000000001
2.373238921165466,1,3,3,0,-9.49,0.87,2.27,0.86,-0.3,-0.07000000000000001
2.383238911628723,1,3,3,0,-9.44,0.91,2.24,0.91,-0.25,0.02
2.39323890209198,1,3,3,0,-9.44,0.91,2.38,0.82,-0.14,0.09
2.403239130973816,1,3,3,0,-9.5,0.97,2.47,0.65,-0.14,0.16
2.413239121437073,1,3,3,0,-9.57,0.86,2.67,0.61,-0.34,0.15
2.42323911190033,1,3,3,0,-9.49,0.8,2.57,0.52,-0.73,0.12
2.433239102363586,1,3,3,0,-9.41,0.76,2.34,0.55,-0.74,0.06
2.443239092826843,1,3,3,0,-9.35,0.6899999999999999,2.19,0.52,-0.51,0.04
2.4532390832901,1,3,3,0,-9.390000000000001,0.7,2.24,0.44,-0.41,0.04
2.463239073753357,1,3,3,0,-9.359999999999999,0.71,2.35,0.41,-0.24,0.01
2.473239064216614,1,3,3,0,-9.4,0.68,2.29,0.39,-0.04,0.04
2.483239054679871,1,3,3,0,-9.41,0.8,2.27,0.36,0.05,0.13
2.493239045143127,1,3,3,0,-9.41,0.89,2.28,0.39,0.21,0.25
2.503239035606384,1,3,3,0,-9.41,0.85,2.25,0.39,0.26,0.28
2.513239026069641,1,3,3,0,-9.44,0.83,2.19,0.19,0.22,0.28
2.523239016532898,1,3,3,0,-9.49,0.78,2.13,0.03,0.17,0.25
2.533239006996155,1,3,3,0,-9.49,0.72,2.26,-0.04,0.16,0.25
2.543238997459412,1,3,3,0,-9.52,0.75,2.33,-0.06,0.14,0.3
2.553238987922668,1,3,3,0,-9.529999999999999,0.8,2.4,-0.1,0.06,0.3
2.563238978385925,1,3,3,0,-9.57,0.8,2.36,-0.16,-0.02,0.27
2.573238968849182,1,3,3,0,-9.609999999999999,0.72,2.27,-0.21,-0.16,0.26
2.583238959312439,1,3,3,0,-9.56,0.73,2.32,-0.34,-0.21,0.23
2.593238949775696,1,3,3,0,-9.41,0.8100000000000001,2.39,-0.34,-0.29,0.19
2.603238940238953,1,3,3,0,-9.289999999999999,0.83,2.47,-0.33,-0.27,0.2
2.613238930702209,1,3,3,0,-9.26,0.87,2.44,-0.25,-0.2,0.08
2.623238921165466,1,3,3,0,-9.369999999999999,0.84,2.33,-0.17,-0.24,-0.02
2.633238911628723,1,3,3,0,-9.56,0.77,2.58,-0.1,-0.3,-0.07000000000000001
2.64323890209198,1,3,3,0,-9.640000000000001,0.89,2.43,0,-0.46,-0.04
2.653239130973816,1,3,3,0,-9.609999999999999,0.82,2.61,0.08,-0.71,-0.07000000000000001
2.663239121437073,1,3,3,0,-9.609999999999999,0.89,2.63,0.05,-0.8,-0.05
2.67323911190033,1,3,3,0,-9.41,0.87,2.33,0.02,-0.87,-0.09
2.683239102363586,1,3,3,0,-9.33,0.86,2.39,0.02,-0.83,-0.1
2.693239092826843,1,3,3,0,-9.34,0.82,2.45,0.02,-0.68,-0.14
2.7032390832901,1,3,3,0,-9.43,0.78,2.67,-0.07000000000000001,-0.5,-0.1
2.713239073753357,1,3,3,0,-9.529999999999999,0.78,2.57,-0.22,-0.38,-0.08
2.723239064216614,1,3,3,0,-9.550000000000001,0.75,2.45,-0.33,-0.33,-0.06
2.733239054679871,1,3,3,0,-9.52,0.71,2.5,-0.42,-0.41,-0.1
2.743239045143127,1,3,3,0,-9.43,0.6899999999999999,2.44,-0.47,-0.47,-0.17
2.753239035606384,1,3,3,0,-9.34,0.64,2.5,-0.49,-0.46,-0.26
2.763239026069641,1,3,3,0,-9.33,0.67,2.51,-0.49,-0.31,-0.28
2.773239016532898,1,3,3,0,-9.33,0.72,2.47,-0.44,-0.23,-0.3
2.783239006996155,1,3,3,0,-9.869999999999999,0.91,2.69,-0.4,-0.42,-0.31
2.793238997459412,1,3,3,0,-9.92,0.93,2.61,-0.45,-0.9399999999999999,-0.32
2.803238987922668,1,3,3,0,-9.77,0.89,2.61,-0.47,-1.55,-0.32
2.813238978385925,1,3,3,0,-9.52,0.84,2.62,-0.52,-1.73,-0.35
2.823238968849182,1,3,3,0,-9.15,0.79,2.42,-0.49,-1.52,-0.39
2.833238959312439,1,3,3,0,-9.06,0.73,2.44,-0.41,-1.35,-0.47
2.843238949775696,1,3,3,0,-8.99,0.66,2.56,-0.38,-1.01,-0.46
2.853238940238953,1,3,3,1,-9.050000000000001,0.6,2.62,-0.25,-0.41,-0.49
2.863238930702209,1,3,3,1,-9.470000000000001,0.54,2.53,-0.2,-0.05,-0.54
2.873238921165466,1,3,3,1,-9.789999999999999,0.57,2.47,-0.09,-0.17,-0.59
2.883238911628723,1,3,3,1,-9.869999999999999,0.6,2.55,0.03,-0.85,-0.68
2.89323890209198,1,3,3,1,-9.35,0.55,2.52,0.06,-1.41,-0.78
2.903239130973816,1,3,3,1,-9.16,0.57,2.6,0.12,-1.52,-0.91
2.913239121437073,1,3,3,1,-8.99,0.53,2.57,0.08,-1.33,-0.88
2.92323911190033,1,3,3,1,-8.890000000000001,0.51,2.51,-0.05,-1,-0.79
2.933239102363586,1,3,3,1,-9.02,0.48,2.65,-0.19,-0.79,-0.7
2.943239092826843,1,3,3,1,-9.16,0.49,2.78,-0.27,-0.6899999999999999,-0.63
2.9532390832901,1,3,3,1,-9.32,0.63,2.84,-0.29,-0.67,-0.52
2.963239073753357,1,3,3,1,-9.44,0.6899999999999999,2.82,-0.39,-0.6899999999999999,-0.31
2.973239064216614,1,3,3,1,-9.42,0.62,2.69,-0.51,-0.75,-0.14
2.983239054679871,1,3,3,1,-9.49,0.5,2.73,-0.47,-0.59,-0.08
2.993239045143127,1,3,3,1,-9.369999999999999,0.36,2.77,-0.38,-0.4,-0.1
3.003239035606384,1,3,3,1,-9.27,0.32,2.84,-0.15,-0.13,-0.04
3.013239026069641,1,3,3,1,-9.41,0.44,2.8,0.12,0.22,0.05
3.023239016532898,1,3,3,1,-9.56,0.5600000000000001,2.77,0.4,0.28,0.21
3.033239006996155,1,3,3,1,-9.51,0.66,2.74,0.49,0.25,0.37
3.043238997459412,1,3,3,1,-9.390000000000001,0.61,2.73,0.51,0.28,0.45
3.053238987922668,1,3,3,1,-9.289999999999999,0.41,2.72,0.5,0.26,0.38
3.063238978385925,1,3,3,1,-9.199999999999999,0.37,2.69,0.5,0.19,0.31
3.073238968849182,1,3,3,1,-9.19,0.34,2.61,0.52,0.21,0.35
3.083238959312439,1,3,3,1,-9.119999999999999,0.37,2.6,0.49,0.36,0.36
3.094239115715027,1,3,3,1,-9.43,0.63,2.77,0.5600000000000001,0.34,0.47
3.104239106178284,1,3,3,1,-9.460000000000001,0.74,2.77,0.6,0.29,0.68
3.114239096641541,1,3,3,1,-9.52,0.78,2.82,0.61,0.06,0.76
3.124239087104797,1,3,3,1,-9.35,0.75,2.67,0.7,-0.3,0.8
3.134239077568054,1,3,3,1,-9.23,0.72,2.73,0.78,-0.53,0.79
3.144239068031311,1,3,3,1,-9.32,0.68,2.76,0.71,-0.68,0.78
3.154239058494568,1,3,3,1,-9.24,0.68,2.88,0.61,-0.64,0.72
3.164239048957825,1,3,3,1,-9.18,0.76,2.83,0.54,-0.5600000000000001,0.73
3.174239039421082,1,3,3,1,-9.25,0.79,2.78,0.57,-0.36,0.59
3.184239029884338,1,3,3,1,-9.289999999999999,0.8,2.79,0.55,-0.3,0.55
3.194239020347595,1,3,3,1,-9.52,0.9,2.82,0.5,-0.3,0.61
3.204239010810852,1,3,3,1,-9.49,0.85,2.85,0.41,-0.45,0.67
3.214239001274109,1,3,3,1,-9.26,0.8100000000000001,2.79,0.34,-0.31,0.59
3.224238991737366,1,3,3,1,-9.109999999999999,0.66,2.64,0.3,-0.13,0.61
3.234238982200623,1,3,3,1,-8.949999999999999,0.6899999999999999,2.65,0.21,0.01,0.77
3.244238972663879,1,3,3,1,-9,0.6899999999999999,2.78,0.25,0.13,0.8100000000000001
3.254238963127136,1,3,3,1,-9.210000000000001,0.74,2.9,0.26,0.26,0.64
3.264238953590393,1,3,3,1,-9.51,0.83,2.91,0.17,0.31,0.67
3.27423894405365,1,3,3,1,-9.859999999999999,0.99,2.59,-0.05,-0.07000000000000001,0.59
3.284238934516907,1,3,3,1,-9.41,0.91,2.63,-0.28,-0.22,0.6
3.294238924980164,1,3,3,1,-9.27,0.91,2.58,-0.33,0.01,0.6
3.30423891544342,1,3,3,1,-9,0.91,2.61,-0.38,0.1,0.64
3.314238905906677,1,3,3,1,-9.119999999999999,0.92,2.64,-0.46,0.48,0.74
3.324238896369934,1,3,3,1,-9.220000000000001,0.86,2.59,-0.38,0.5,0.76
3.33423912525177,1,3,3,1,-9.48,0.88,2.68,-0.26,0.24,0.63
3.344239115715027,1,3,3,1,-9.73,0.96,2.72,-0.17,0.09,0.53
3.354239106178284,1,3,3,1,-9.73,0.96,2.79,-0.2,-0.26,0.41
3.364239096641541,1,3,3,1,-9.56,0.92,2.74,-0.2,-0.73,0.17
3.374239087104797,1,3,3,1,-9.27,0.85,2.67,-0.33,-0.8,0.08
3.384239077568054,1,3,3,1,-9.1,0.86,2.65,-0.28,-0.4,0.06
3.394239068031311,1,3,3,1,-9.06,0.79,2.65,-0.12,-0.07000000000000001,0.02
3.404239058494568,1,3,3,1,-9.050000000000001,0.78,2.63,-0.07000000000000001,0.07000000000000001,-0.01
3.414239048957825,1,3,3,1,-9.039999999999999,0.8100000000000001,2.58,-0.05,0.16,-0.01
3.424239039421082,1,3,3,1,-8.93,0.8100000000000001,2.52,-0.01,0.22,0
3.434239029884338,1,3,3,1,-8.57,0.85,2.63,0.15,0.27,-0.04
3.444239020347595,1,3,3,1,-8.390000000000001,0.85,2.72,0.31,0.87,-0.08
3.454239010810852,1,3,3,1,-8.31,0.9,2.77,0.37,1.93,0.02
3.464239001274109,1,3,3,1,-8.529999999999999,0.89,2.85,0.42,3.04,0.11
3.474238991737366,1,3,3,1,-9.050000000000001,0.71,2.84,0.35,3.73,0.16
3.484238982200623,1,3,3,1,-9.199999999999999,0.64,2.75,0.19,4.04,0.35
3.494238972663879,1,3,3,1,-9.289999999999999,0.6899999999999999,2.68,0.13,4.34,0.66
3.504238963127136,1,3,3,1,-9.369999999999999,0.64,2.65,0.15,4.67,1.02
3.514238953590393,1,3,3,1,-9.529999999999999,0.66,2.49,0.2,4.85,1.31
3.52423894405365,1,3,3,1,-9.68,0.6899999999999999,2.25,0.22,4.86,1.52
3.534238934516907,1,3,3,1,-9.699999999999999,0.8,2.16,0.36,4.6,1.67
3.544238924980164,1,3,3,1,-10.39,1.1,2.03,0.83,4.36,1.57
3.55423891544342,1,3,3,1,-10.42,1.24,2,1.28,4.02,1.33
3.564238905906677,1,3,3,1,-10.54,0.9399999999999999,2.09,1.44,3.19,0.9
3.574238896369934,1,3,3,1,-10.54,0.9399999999999999,1.93,1.33,2.08,0.35
3.58423912525177,1,3,3,1,-9.66,1.1,2.25,1.36,0.98,0.01
3.594239115715027,1,3,3,1,-9.539999999999999,1.08,2.1,1.44,0.41,-0.14
3.604239106178284,1,3,3,1,-9.4,1.09,2,1.34,0.32,-0.28
3.614239096641541,1,3,3,1,-9.35,1.12,2,1.18,0.29,-0.32
3.624239087104797,1,3,3,1,-9.279999999999999,1.14,2,1.01,0.22,-0.34
3.634239077568054,1,3,3,1,-9.300000000000001,1.13,2.06,0.9,0.08,-0.3
3.644239068031311,1,3,3,1,-9.35,1.12,2.1,0.87,0.04,-0.26
3.654239058494568,1,3,3,1,-9.35,1.12,2.12,0.82,0.03,-0.22
3.664239048957825,1,3,3,1,-9.460000000000001,1.07,2.13,0.66,0.1,-0.21
3.674239039421082,1,3,3,1,-9.5,1.05,2.17,0.47,0.11,-0.12
3.684239029884338,1,3,3,1,-9.51,1.12,2.25,0.35,0.19,-0.02
3.694239020347595,1,3,3,1,-9.619999999999999,1.17,2.19,0.36,0.24,0.1
3.704239010810852,1,3,3,1,-9.800000000000001,1.17,2.13,0.33,0.25,0.21
3.714239001274109,1,3,3,1,-9.84,1.16,2.13,0.21,0.29,0.3
3.724238991737366,1,3,3,1,-9.859999999999999,1.18,2.05,0.07000000000000001,0.3,0.39
3.734238982200623,1,3,3,1,-9.82,1.24,2.04,0.04,0.28,0.45
3.744238972663879,1,3,3,1,-9.84,1.23,2.02,-0.04,0.23,0.48
3.754238963127136,1,3,3,1,-9.82,1.25,2.05,-0.17,0.14,0.44
3.764238953590393,1,3,3,1,-9.76,1.25,1.99,-0.39,0.07000000000000001,0.42
3.77423894405365,1,3,3,1,-9.550000000000001,1.22,1.87,-0.64,0.02,0.37
3.784238934516907,1,3,3,1,-9.390000000000001,1.15,1.87,-0.83,0.01,0.31
3.794238924980164,1,3,3,1,-9.26,1.13,1.86,-0.96,-0.01,0.23
3.80423891544342,1,3,3,1,-9.140000000000001,1.04,1.89,-1.09,0.03,0.23
3.814238905906677,1,3,3,1,-8.970000000000001,1.07,1.96,-1.17,0.01,0.22
3.824238896369934,1,3,3,1,-9,1.1,1.93,-1.2,-0.05,0.18
3.83423912525177,1,3,3,1,-9.050000000000001,1.12,2,-1.21,-0.15,0.12
3.844239115715027,1,3,3,1,-9.140000000000001,1.17,2.02,-1.2,-0.21,0.09
3.854239106178284,1,3,3,1,-9.369999999999999,1.12,1.98,-1.14,-0.15,-0.01
3.864239096641541,1,3,3,1,-9.390000000000001,1.07,2.01,-1.04,-0.14,-0.03
3.874239087104797,1,3,3,1,-9.43,1.07,1.94,-0.91,-0.14,-0.04
3.884239077568054,1,3,3,1,-9.41,1.03,1.9,-0.67,-0.03,-0.01
3.894239068031311,1,3,3,1,-9.359999999999999,0.99,2.09,-0.58,0.05,0.07000000000000001
3.904239058494568,1,3,3,1,-9.390000000000001,1.02,2.13,-0.43,0.12,0.17
3.914239048957825,1,3,3,1,-9.460000000000001,1.04,2.13,-0.21,0.19,0.26
3.924239039421082,1,3,3,1,-9.539999999999999,1.13,2.06,0.04,0.14,0.35
3.934239029884338,1,3,3,1,-9.56,1.17,2.16,0.25,0.12,0.41
3.944239020347595,1,3,3,1,-9.56,1.27,2.21,0.5,0.09,0.46
3.954239010810852,1,3,3,1,-9.58,1.27,2.23,0.72,0.03,0.47
3.964239001274109,1,3,3,1,-9.470000000000001,1.36,2.11,0.72,0.01,0.44
3.974238991737366,1,3,3,1,-9.390000000000001,1.37,2.05,0.67,-0.01,0.42
3.984238982200623,1,3,3,1,-9.32,1.4,2.19,0.6,0.01,0.37
3.994238972663879,1,3,3,1,-9.23,1.39,2.27,0.45,0.06,0.3
4.004238963127136,1,3,3,1,-9.24,1.41,2.28,0.26,0.03,0.29
4.014238953590393,1,3,3,1,-9.24,1.42,2.27,0.08,0.01,0.27
4.02423894405365,1,3,3,1,-9.31,1.43,2.08,-0.03,0.01,0.29
4.034238934516907,1,3,3,1,-9.369999999999999,1.45,2.05,-0.13,0.01,0.32
4.044238924980164,1,3,3,1,-9.49,1.48,2.09,-0.2,-0.01,0.37
4.05423891544342,1,3,3,1,-9.52,1.48,2.09,-0.17,0.01,0.43
4.064238905906677,1,3,3,1,-9.550000000000001,1.48,2.12,-0.21,-0.04,0.42
4.074238896369934,1,3,3,1,-9.550000000000001,1.5,2.1,-0.26,-0.15,0.42
4.08423912525177,1,3,3,1,-9.470000000000001,1.54,2.1,-0.3,-0.22,0.4
4.094239115715027,1,3,3,1,-9.44,1.53,2.12,-0.46,-0.17,0.36
4.104239106178284,1,3,3,1,-9.390000000000001,1.51,2.18,-0.5600000000000001,-0.09,0.31
4.114239096641541,1,3,3,1,-9.34,1.54,2.23,-0.66,-0.04,0.29
4.125239014625549,1,3,3,1,-9.369999999999999,1.56,2.16,-0.67,0.05,0.3
4.135239005088806,1,3,3,1,-9.43,1.55,2.15,-0.63,0.08,0.29
4.145238995552063,1,3,3,1,-9.48,1.51,2.12,-0.61,0,0.25
4.15523898601532,1,3,3,1,-9.56,1.45,2.13,-0.65,-0.02,0.16
4.165238976478577,1,3,3,1,-9.550000000000001,1.4,2.08,-0.7,-0.02,0.07000000000000001
4.175238966941833,1,3,3,1,-9.550000000000001,1.35,2.05,-0.73,-0.06,0.02
4.18523895740509,1,3,3,1,-9.51,1.35,2.01,-0.74,-0.11,0.01
4.195238947868347,1,3,3,1,-9.470000000000001,1.28,2.08,-0.66,-0.16,0
4.205238938331604,1,3,3,1,-9.43,1.27,2.08,-0.67,-0.14,-0.01
4.215238928794861,1,3,3,1,-9.43,1.28,2.13,-0.67,-0.15,0.03
4.225238919258118,1,3,3,1,-9.41,1.27,2.03,-0.6,-0.15,0.02
4.235238909721375,1,3,3,1,-9.41,1.28,2.08,-0.52,-0.16,0.03
4.245238900184631,1,3,3,1,-9.41,1.31,2.09,-0.44,-0.2,0.04
4.255239129066467,1,3,3,1,-9.4,1.31,2.11,-0.31,-0.17,0.03
4.265239119529724,1,3,3,1,-9.390000000000001,1.3,2.14,-0.22,-0.19,0.04
4.275239109992981,1,3,3,1,-9.33,1.29,2.05,-0.17,-0.22,0.01
4.285239100456238,1,3,3,1,-9.31,1.34,2.03,-0.09,-0.19,-0.01
4.295239090919495,1,3,3,1,-9.33,1.3,2.05,0.02,-0.17,-0.07000000000000001
4.305239081382751,1,3,3,1,-9.369999999999999,1.3,2.11,0.07000000000000001,-0.08,-0.08
4.315239071846008,1,3,3,1,-9.41,1.32,2.08,0.1,-0.06,-0.09
4.325239062309265,1,3,3,1,-9.449999999999999,1.28,2.01,0.07000000000000001,-0.01,-0.15
4.335239052772522,1,3,3,1,-9.470000000000001,1.29,2.06,0.07000000000000001,-0.04,-0.15
4.345239043235779,1,3,3,1,-9.470000000000001,1.34,2.13,0.13,-0.06,-0.14
4.355239033699036,1,3,3,1,-9.49,1.35,2.16,0.23,-0.1,-0.11
4.365239024162292,1,3,3,1,-9.470000000000001,1.35,2.15,0.28,-0.08,-0.07000000000000001
4.375239014625549,1,3,3,1,-9.449999999999999,1.36,2.06,0.24,-0.07000000000000001,-0.07000000000000001
4.385239005088806,1,3,3,1,-9.48,1.32,2.1,0.22,-0.09,-0.08
4.395238995552063,1,3,3,1,-9.470000000000001,1.3,2.13,0.18,-0.09,-0.02
4.40523898601532,1,3,3,1,-9.460000000000001,1.3,2.22,0.1,-0.07000000000000001,0.01
4.415238976478577,1,3,3,1,-9.43,1.3,2.2,0.03,-0.04,0.03
4.425238966941833,1,3,3,1,-9.42,1.29,2.14,0.01,-0.04,0.05
4.43523895740509,1,3,3,1,-9.4,1.31,2.18,-0.02,-0.02,0.1
4.445238947868347,1,3,3,1,-9.41,1.33,2.18,-0.05,-0.03,0.08
4.455238938331604,1,3,3,1,-9.42,1.31,2.2,-0.07000000000000001,-0.03,0.08
4.465238928794861,1,3,3,1,-9.470000000000001,1.34,2.13,-0.08,-0.04,0.04
4.475238919258118,1,3,3,1,-9.470000000000001,1.34,2.03,-0.18,-0.08,-0.02
4.485238909721375,1,3,3,1,-9.49,1.32,2.04,-0.25,-0.11,-0.1
4.495238900184631,1,3,3,1,-9.5,1.28,2.1,-0.3,-0.18,-0.17
4.505239129066467,1,3,3,1,-9.4,1.24,2.18,-0.3,-0.19,-0.23
4.515239119529724,1,3,3,1,-9.369999999999999,1.23,2.2,-0.27,-0.12,-0.26
4.525239109992981,1,3,3,1,-9.34,1.22,2.08,-0.24,-0.05,-0.27
4.535239100456238,1,3,3,1,-9.32,1.23,2.23,-0.19,-0.03,-0.26
4.545239090919495,1,3,3,1,-9.35,1.22,2.22,-0.18,-0.03,-0.23
4.555239081382751,1,3,3,1,-9.41,1.19,2.19,-0.2,0.01,-0.24
4.565239071846008,1,3,3,1,-9.43,1.17,2.2,-0.25,-0.02,-0.22
4.575239062309265,1,3,3,1,-9.48,1.19,2.09,-0.29,-0.03,-0.21
4.585239052772522,1,3,3,1,-9.49,1.18,2.12,-0.24,-0.07000000000000001,-0.24
4.595239043235779,1,3,3,1,-9.49,1.19,2.12,-0.22,-0.12,-0.23
4.605239033699036,1,3,3,1,-9.48,1.17,2.17,-0.21,-0.17,-0.22
4.615239024162292,1,3,3,1,-9.42,1.2,2.11,-0.25,-0.17,-0.24
4.625239014625549,1,3,3,1,-9.4,1.2,2.02,-0.27,-0.17,-0.27
4.635239005088806,1,3,3,1,-9.390000000000001,1.16,2.12,-0.36,-0.2,-0.27
4.645238995552063,1,3,3,1,-9.380000000000001,1.18,2.11,-0.43,-0.2,-0.31
4.65523898601532,1,3,3,1,-9.359999999999999,1.13,2.15,-0.45,-0.2,-0.35
4.665238976478577,1,3,3,1,-9.380000000000001,1.1,2.18,-0.45,-0.21,-0.35
4.675238966941833,1,3,3,1,-9.380000000000001,1.06,2.08,-0.43,-0.18,-0.32
4.68523895740509,1,3,3,1,-9.380000000000001,1.08,2.09,-0.34,-0.23,-0.32
4.695238947868347,1,3,3,1,-9.41,1.13,2.16,-0.21,-0.22,-0.32
4.705238938331604,1,3,3,1,-9.43,1.12,2.13,-0.05,-0.24,-0.29
4.715238928794861,1,3,3,1,-9.48,1.11,2.13,0.06,-0.2,-0.29
4.725238919258118,1,3,3,1,-9.52,1.1,2.06,0.09,-0.19,-0.26
4.735238909721375,1,3,3,1,-9.52,1.14,2.15,0.11,-0.15,-0.25
4.745238900184631,1,3,3,1,-9.51,1.15,2.17,0.09,-0.13,-0.26
4.755239129066467,1,3,3,1,-9.51,1.15,2.17,0.02,-0.1,-0.24
4.765239119529724,1,3,3,1,-9.51,1.16,2.16,0,-0.05,-0.27
4.775239109992981,1,3,3,1,-9.470000000000001,1.1,2.21,-0.02,0.06,-0.22
4.785239100456238,1,3,3,1,-9.51,1.11,2.26,0,0.06,-0.2
4.795239090919495,1,3,3,1,-9.5,1.13,2.27,0.07000000000000001,0.14,-0.19
4.805239081382751,1,3,3,1,-9.609999999999999,1.13,2.3,0.05,0.13,-0.2
4.815239071846008,1,3,3,1,-9.609999999999999,1.12,2.22,-0.04,0.09,-0.17
4.825239062309265,1,3,3,1,-9.6,1.14,2.09,-0.11,0.1,-0.18
4.835239052772522,1,3,3,1,-9.52,1.14,2.07,-0.2,0.11,-0.14
4.845239043235779,1,3,3,1,-9.33,1.1,2.18,-0.32,0.13,-0.05
4.855239033699036,1,3,3,1,-9.26,1.09,2.18,-0.49,0.13,0
4.865239024162292,1,3,3,1,-9.23,1.09,2.22,-0.58,0.08,-0.02
4.875239014625549,1,3,3,1,-9.24,1.04,2.2,-0.74,0.02,0.03
4.885239005088806,1,3,3,1,-9.369999999999999,1.06,2.16,-0.83,-0.06,0
4.895238995552063,1,3,3,1,-9.48,1.02,2.17,-0.82,-0.06,0
4.90523898601532,1,3,3,1,-9.52,1.04,2.2,-0.87,-0.12,-0.01
4.915238976478577,1,3,3,1,-9.52,1.04,2.2,-0.91,-0.14,-0.04
4.925238966941833,1,3,3,1,-9.52,1.03,2.1,-0.91,-0.19,-0.03
4.93523895740509,1,3,3,1,-9.48,0.99,2.19,-0.9399999999999999,-0.22,-0.08
4.945238947868347,1,3,3,1,-9.43,0.97,2.24,-0.91,-0.25,-0.09
4.955238938331604,1,3,3,1,-9.43,0.97,2.24,-0.83,-0.23,-0.09
4.965238928794861,1,3,3,1,-9.4,0.88,2.23,-0.74,-0.22,-0.05
4.975238919258118,1,3,3,1,-9.41,0.82,2.12,-0.66,-0.18,0.03
4.985238909721375,1,3,3,1,-9.43,0.77,2.15,-0.59,-0.1,0.03
4.995238900184631,1,3,3,1,-9.470000000000001,0.8,2.29,-0.48,-0.04,0.08
5.005239129066467,1,3,3,1,-9.449999999999999,0.75,2.36,-0.43,0.01,0.08
5.015239119529724,1,3,3,1,-9.4,0.76,2.35,-0.37,0.04,0.11
5.025239109992981,1,3,3,1,-9.35,0.79,2.2,-0.33,0.09,0.11
5.035239100456238,1,3,3,1,-9.33,0.8100000000000001,2.26,-0.23,0.12,0.11
5.045239090919495,1,3,3,1,-9.380000000000001,0.86,2.29,-0.2,0.15,0.07000000000000001
5.055239081382751,1,3,3,1,-9.41,0.89,2.38,-0.13,0.09,0.04
5.065239071846008,1,3,3,1,-9.449999999999999,0.93,2.38,-0.06,0.02,-0.01
5.075239062309265,1,3,3,1,-9.529999999999999,1.03,2.24,0.06,0.04,-0.07000000000000001
5.085239052772522,1,3,3,1,-9.529999999999999,1.09,2.25,0.21,0.06,-0.11
5.095239043235779,1,3,3,1,-9.529999999999999,1.1,2.24,0.3,0.05,-0.17
5.105239033699036,1,3,3,1,-9.529999999999999,1.1,2.24,0.34,0.09,-0.21
5.115239024162292,1,3,3,1,-9.52,1.14,2.23,0.37,0.06,-0.21
5.125239014625549,1,3,3,1,-9.43,1.15,2.13,0.41,0.06,-0.21
5.135239005088806,1,3,3,1,-9.43,1.18,2.22,0.37,-0.04,-0.19
5.146238923072815,1,3,3,1,-9.4,1.23,2.22,0.42,-0.14,-0.18
5.156238913536072,1,3,3,1,-9.4,1.23,2.22,0.51,-0.21,-0.16
5.166238903999329,1,3,3,1,-9.390000000000001,1.26,2.17,0.51,-0.18,-0.14
5.176239132881165,1,3,3,1,-9.390000000000001,1.29,2.09,0.44,-0.14,-0.14
5.186239123344421,1,3,3,1,-9.369999999999999,1.37,2.07,0.36,-0.05,-0.16
5.196239113807678,1,3,3,1,-9.4,1.34,2.12,0.3,-0.01,-0.18
5.206239104270935,1,3,3,1,-9.4,1.31,2.17,0.19,-0.01,-0.16
5.216239094734192,1,3,3,1,-9.390000000000001,1.35,2.2,0.08,0.04,-0.13
5.226239085197449,1,3,3,1,-9.449999999999999,1.37,2.05,0.08,-0.02,-0.08
5.236239075660706,1,3,3,1,-9.42,1.38,2.21,0.11,-0.13,-0.08
5.246239066123962,1,3,3,1,-9.390000000000001,1.37,2.17,0.1,-0.26,-0.04
5.256239056587219,1,3,3,1,-9.41,1.34,2.09,0.01,-0.19,-0.03
5.266239047050476,1,3,3,1,-9.44,1.27,2.17,-0.13,-0.16,0.02
5.276239037513733,1,3,3,1,-9.48,1.31,2.16,-0.33,-0.33,0.08
5.28623902797699,1,3,3,1,-9.539999999999999,1.25,2.12,-0.38,-0.5600000000000001,0.12
5.296239018440247,1,3,3,1,-9.59,1.21,2.12,-0.54,-0.64,0.19
5.306239008903503,1,3,3,1,-9.59,1.21,2.12,-0.58,-0.77,0.31
5.31623899936676,1,3,3,1,-9.57,1.12,2.08,-0.6899999999999999,-0.65,0.46
5.326238989830017,1,3,3,1,-9.380000000000001,0.84,1.88,-0.66,-0.27,0.64
5.336238980293274,1,3,3,1,-9.199999999999999,0.58,2.07,-0.38,0.17,0.85
5.346238970756531,1,3,3,1,-9.19,0.36,2.18,-0.05,0.58,1.05
5.356238961219788,1,3,3,1,-9.19,0.36,2.18,0.4,0.9399999999999999,1.29
5.366238951683044,1,3,3,1,-9.210000000000001,0.29,2.15,0.93,1.28,1.38
5.376238942146301,1,3,3,1,-9.529999999999999,0.2,2.01,1.55,1.46,1.47
5.386238932609558,1,3,3,1,-9.56,0.27,2.03,2.52,1.54,1.53
5.396238923072815,1,3,3,1,-9.6,0.36,2.02,3.64,1.58,1.56
5.406238913536072,1,3,3,1,-9.6,0.36,2.02,4.53,1.59,1.49
5.416238903999329,1,3,3,1,-9.58,0.49,2.04,5.12,1.65,1.43
5.426239132881165,1,3,3,1,-9.35,1.16,1.9,5.49,1.68,1.36
5.436239123344421,1,3,3,1,-9.300000000000001,1.39,1.9,5.66,1.75,1.29
5.446239113807678,1,3,3,1,-9.289999999999999,1.7,1.87,5.56,1.73,1.22
5.456239104270935,1,3,3,1,-9.289999999999999,1.7,1.87,5.56,1.73,1.22
5.466239094734192,1,3,3,1,-9.289999999999999,2.11,1.81,5.15,1.61,1.12
5.476239085197449,1,3,3,1,-9.26,2.32,1.63,3.65,1.15,0.82
5.486239075660706,1,3,3,1,-9.23,2.38,1.59,2.7,0.97,0.61
5.496239066123962,1,3,3,1,-9.15,2.4,1.69,1.76,0.9399999999999999,0.47
5.506239056587219,1,3,3,1,-9.15,2.4,1.69,1.76,0.9399999999999999,0.47
5.516239047050476,1,3,3,1,-9.130000000000001,2.37,1.76,-0.05,1,0.18
5.526239037513733,1,3,3,1,-9.19,2.13,1.75,-0.66,1.1,0.11
5.53623902797699,1,3,3,1,-9.130000000000001,2.02,1.81,-1.16,1.24,0.07000000000000001
5.546239018440247,1,3,3,1,-9.08,1.98,1.73,-1.46,1.53,0.12
5.556239008903503,1,3,3,1,-9.08,1.98,1.73,-1.46,1.53,0.12
5.56623899936676,1,3,3,1,-9.029999999999999,1.86,1.63,-1.73,1.96,0.23
5.576238989830017,1,3,3,1,-8.59,1.76,1.33,-2.56,2.97,0.66
5.586238980293274,1,3,3,1,-8.390000000000001,1.72,1.4,-2.94,3.47,0.84
5.596238970756531,1,3,3,1,-8.19,1.78,1.39,-3.23,3.81,0.98
5.606238961219788,1,3,3,1,-8.19,1.78,1.39,-3.23,3.81,0.98
5.616238951683044,1,3,3,1,-8.01,1.54,1.24,-3.48,3.99,0.96
5.626238942146301,1,3,3,1,-7.79,1.2,0.93,-3.9,3.6,0.61
5.636238932609558,1,3,3,1,-7.71,1.03,1.03,-4.46,2.96,0.35
5.646238923072815,1,3,3,1,-7.41,0.58,1.38,-4.67,2.22,0.03
5.656238913536072,1,3,3,1,-7.41,0.58,1.38,-4.67,2.22,0.03
5.666238903999329,1,3,3,1,-7.4,0.44,1.57,-4.64,1.17,-0.32
5.676239132881165,1,3,3,1,-7.42,0.5,1.45,-3.11,-1.01,-0.87
5.686239123344421,1,3,3,1,-7.42,0.5,1.45,-1.7,-1.31,-0.77
5.696239113807678,1,3,3,1,-7.35,0.57,1.14,-1.05,-1.42,-0.58
5.706239104270935,1,3,3,1,-7.26,0.51,1.27,-1.05,-1.42,-0.58
5.716239094734192,1,3,3,1,-7.09,0.45,1.42,-0.96,-1.82,-0.26
5.726239085197449,1,3,3,1,-6.82,0.27,1.38,-0.6,-2.46,0.32
5.736239075660706,1,3,3,1,-6.92,0.18,1.3,-0.9,-2.72,0.39
5.746239066123962,1,3,3,1,-7.07,0.41,1.17,-1.4,-3.25,0.22
5.756239056587219,1,3,3,1,-7.3,0.48,1.4,-1.4,-3.25,0.22
5.766239047050476,1,3,3,1,-7.95,0.74,2.24,-2.33,-3.94,-0.24
5.776239037513733,1,3,3,1,-8.199999999999999,0.74,2.52,-2.61,-5.47,-2.23
5.78623902797699,1,3,3,1,-8.369999999999999,0.84,2.44,-2.3,-5.65,-3.15
5.796239018440247,1,3,3,1,-8.51,1.03,2.3,-2.21,-5.58,-3.95
5.806239008903503,1,3,3,1,-8.890000000000001,1.21,2.83,-2.21,-5.58,-3.95
5.81623899936676,1,3,3,1,-9.1,1.2,3.1,-2.67,-5.21,-4.64
5.826238989830017,1,3,3,1,-9.460000000000001,0.78,2.99,-4.03,-4.98,-5.49
5.836238980293274,1,3,3,1,-9.48,0.72,3.04,-3.87,-4.81,-5.4
5.846238970756531,1,3,3,1,-10.58,0.24,2.9,-3.56,-4.45,-5.25
5.856238961219788,1,3,3,1,-11.49,-0.04,3.19,-3.56,-4.45,-5.25
5.866238951683044,1,3,3,1,-12.3,-0.16,3.81,-3.48,-3.97,-5.21
5.876238942146301,1,3,3,1,-13.1,-0.6,4.23,-2.38,-2.83,-5.19
5.886238932609558,1,3,3,1,-14.39,-1.1,4.2,-1.84,-2.06,-4.93
5.896238923072815,1,3,3,1,-15.16,-1.71,4.2,-0.93,-1.46,-4.6
5.906238913536072,1,3,3,1,-16.14,-2.3,4.29,-0.93,-1.46,-4.6
5.916238903999329,1,3,3,1,-17.2,-3,4.63,-0.18,-0.82,-4.03
5.926239132881165,1,3,3,1,-18.82,-3.94,5.33,1.63,0.41,-2.6
5.936239123344421,1,3,3,1,-19.37,-3.78,5.78,2.61,1.2,-1.96
5.946239113807678,1,3,3,1,-20.02,-3.51,6.41,2.46,2.26,-1.35
5.956239104270935,1,3,3,1,-21.56,-2.5,7.64,2.46,2.26,-1.35
5.966239094734192,1,3,3,1,-22.81,-1.85,7.72,1.11,3.44,-0.74
5.976239085197449,1,3,3,1,-24.26,-1.07,7.86,-1.62,4.24,1.3
5.986239075660706,1,3,3,1,-25.67,-0.22,7.71,-2.99,4.09,3.42
5.996239066123962,1,3,3,1,-27.41,0.42,7.57,-3.13,2.78,5.87
6.006239056587219,1,3,3,1,-26.45,0.58,6.75,-3.13,2.78,5.87
6.016239047050476,1,3,3,1,-24.91,1.01,6.37,-1.72,1.56,8.140000000000001
6.026239037513733,1,3,3,1,-23.39,2.17,6,2.53,2.38,8.81
6.03623902797699,1,3,3,1,-18.45,3.65,4.51,4.84,3.78,7.72
6.046239018440247,1,3,3,1,-15.74,3.83,3.64,7.23,5.74,6.77
6.056239008903503,1,3,3,1,-12.92,3.9,2.88,7.23,5.74,6.77
6.06623899936676,1,3,3,1,-11.18,3.54,1.79,8.630000000000001,8.300000000000001,5.91
6.076238989830017,1,3,3,1,-6.7,2.69,1.02,8.130000000000001,12.21,6.2
6.086238980293274,1,3,3,1,-5.23,2.08,0.24,6.64,12.15,6.69
6.096238970756531,1,3,3,1,-3.7,0.99,-1.81,3.69,10.84,8.029999999999999
6.106238961219788,1,3,3,1,0.47,3.34,-2.14,3.69,10.84,8.029999999999999
6.116238951683044,1,3,3,1,2.63,3.5,-2.9,2.16,8.74,8.039999999999999
6.126238942146301,1,3,3,1,4.91,4.21,-2.52,1.03,1.44,8.109999999999999
6.136238932609558,1,3,3,1,7.47,5,-2.03,-1.77,1.42,7.54
6.146238923072815,1,3,3,1,7.95,4.96,-0.87,-5.7,2.5,5.29
6.156238913536072,1,3,3,1,6.14,3.75,-1.05,-5.7,2.5,5.29
6.166238903999329,1,3,3,1,3.35,2.28,-1.52,-9.26,2.5,1.97
6.177239060401917,1,3,3,1,1.09,0.05,-2.81,-4.58,-4.72,-5.19
6.187239050865173,1,3,3,1,-1.94,-0.84,0.63,-4.05,-7.3,-8.69
6.19723904132843,1,3,3,1,-2.4,-0.9399999999999999,1.27,-4.19,-8.32,-11.2
6.207239031791687,1,3,3,1,-2.57,-0.77,1.16,-4.19,-8.32,-11.2
6.217239022254944,1,3,3,1,-2.54,-0.36,0.74,-3.13,-9,-11.46
6.227239012718201,1,3,3,1,-1.79,-0.4,-0.12,-0.78,-8.31,-9.4
6.237239003181458,1,3,3,1,-1.25,-0.44,-0.09,-0.5,-6.59,-7.22
6.247238993644714,1,3,3,1,-0.7,-0.25,0.03,-0.44,-4.26,-4.42
6.257238984107971,1,3,3,1,-0.27,-0.35,0.09,-0.44,-4.26,-4.42
6.267238974571228,1,3,3,1,-0.18,-0.78,0.21,-0.43,-1.55,-1.71
6.277238965034485,1,3,3,1,-0.46,-0.99,0.14,1.36,2.48,1.94
6.287238955497742,1,3,3,1,-0.67,-1,-0.22,2.11,3.59,3.27
6.297238945960999,1,3,3,1,-0.91,-0.87,-0.53,2.67,4.27,4.29
6.307238936424255,1,3,3,1,-1.02,-0.02,-0.74,2.67,4.27,4.29
6.317238926887512,1,3,3,1,-1.02,0.41,-0.98,3.13,4.41,4.78
6.327238917350769,1,3,3,1,-1.11,0.87,-1.13,4.43,3.52,3.92
6.337238907814026,1,3,3,1,-0.8100000000000001,1.64,-1.91,4.8,3.14,2.83
6.347238898277283,1,3,3,1,-0.83,1.9,-1.61,4.29,2.26,1.38
6.357239127159119,1,3,3,1,-0.5,2.04,-1.32,4.29,2.26,1.38
6.367239117622375,1,3,3,1,-0.2,2.09,-1.07,2.92,1.09,-0.32
6.377239108085632,1,3,3,1,-0.55,2.21,-0.93,-1.43,-4.55,-4.95
6.387239098548889,1,3,3,1,-1.2,2.05,-0.95,-3.09,-9.289999999999999,-7.66
6.397239089012146,1,3,3,1,-2.29,4.09,-1.24,-0.67,-13.59,-10.14
6.407239079475403,1,3,3,1,-3.21,3.93,-0.36,-0.67,-13.59,-10.14
6.41723906993866,1,3,3,1,-12.62,5.55,6.48,-0.19,-21.07,-13.94
6.427239060401917,1,3,3,1,-12.43,7.46,3.82,-10.55,-20.62,-18.69
6.437239050865173,1,3,3,1,-21.19,9.119999999999999,3.99,-14.51,-16.69,-18
6.44723904132843,1,3,3,1,-31.09,3.63,7.68,-14.23,-12.72,-15.44
6.457239031791687,1,3,3,1,-28.99,-6.14,10.81,-14.23,-12.72,-15.44
6.467239022254944,1,3,3,1,-34,-4.12,9.91,-10.14,-2.51,-9.23
6.477239012718201,1,3,3,1,-30.97,-3.48,5.72,-10.78,4.13,3.82
6.487239003181458,1,3,3,1,-27.83,-3.73,5.98,-12.14,3.06,4.51
6.497238993644714,1,3,3,1,-20.87,-4.07,9.42,-11.2,2.53,3.08
6.507238984107971,1,3,3,1,-20.11,-3.32,9,-11.2,2.53,3.08
6.517238974571228,1,3,3,1,-19.55,-2.34,8.25,-8.02,1.53,0.9
6.527238965034485,1,3,3,1,-15.56,-1.88,6.63,-3.01,1.45,0.6
6.537238955497742,1,3,3,1,-14.7,-2.09,5.31,-1.8,2.61,2.55
6.547238945960999,1,3,3,1,-13.88,-2.07,4.39,-0.66,3.99,4.71
6.557238936424255,1,3,3,1,-13.4,-2.2,3.65,-0.66,3.99,4.71
6.567238926887512,1,3,3,1,-11.61,-1.98,3.19,0.23,5.31,6.67
6.577238917350769,1,3,3,1,-10.65,-1.79,2.85,0.86,6.17,10.04
6.587238907814026,1,3,3,1,-9.81,-1.15,2.8,1.11,5.69,11.01
6.597238898277283,1,3,3,1,-9.109999999999999,-0.34,2.63,0.96,5.04,11.25
6.607239127159119,1,3,3,1,-7.39,0.91,2.11,0.96,5.04,11.25
6.617239117622375,1,3,3,1,-6.56,1.26,1.92,0.66,4.9,10.63
6.627239108085632,1,3,3,1,-5.91,1.59,2.08,-0.19,5.24,7.56
6.637239098548889,1,3,3,1,-5.35,1.34,1.71,-0.09,5.26,5.91
6.647239089012146,1,3,3,1,-4.73,1.27,1.45,0.42,4.97,4.35
6.657239079475403,1,3,3,1,-4.49,1.22,1.24,0.42,4.97,4.35
6.66723906993866,1,3,3,1,-4.3,1.12,0.99,1.08,4.49,2.98
6.677239060401917,1,3,3,1,-4.1,1.02,1.07,2.17,3.01,1.2
6.687239050865173,1,3,3,1,-4.05,1.07,1.12,2.52,2.17,0.67
6.69723904132843,1,3,3,1,-4.26,1.23,1.23,2.75,1.19,0.25
6.707239031791687,1,3,3,1,-4.68,1.32,1.28,2.75,1.19,0.25
6.717239022254944,1,3,3,1,-5.93,1.27,1.34,2.88,0.24,-0.14
6.727239012718201,1,3,3,1,-6.84,1.46,1.33,3.17,-1.1,-0.96
6.737239003181458,1,3,3,1,-7.84,1.59,1.5,3.5,-1.47,-1.51
6.747238993644714,1,3,3,1,-8.99,1.88,1.98,3.59,-1.7,-2.05
6.757238984107971,1,3,3,1,-11.52,2.4,2.74,3.59,-1.7,-2.05
6.767238974571228,1,3,3,1,-13.01,2.54,3.14,3.81,-1.84,-2.56
6.777238965034485,1,3,3,1,-14.37,2.52,3.08,4.66,-1.88,-3.13
6.787238955497742,1,3,3,1,-15.18,2.41,2.88,4.99,-1.3,-2.85
6.797238945960999,1,3,3,1,-13.96,1.96,3.12,4.76,0.03,-1.94
6.807238936424255,1,3,3,1,-12.52,1.71,2.85,4.76,0.03,-1.94
6.817238926887512,1,3,3,1,-11.37,1.58,2.54,4.22,1.53,-0.48
6.827238917350769,1,3,3,1,-10.36,1.71,2.29,2.94,2.88,1.88
6.837238907814026,1,3,3,1,-8.48,1.96,1.83,2.27,2.93,2.35
6.847238898277283,1,3,3,1,-7.66,2.1,1.76,1.62,2.61,2.31
6.857239127159119,1,3,3,1,-7,2.14,1.72,1.62,2.61,2.31
6.867239117622375,1,3,3,1,-6.47,2.14,1.78,1.01,2.2,1.9
6.877239108085632,1,3,3,1,-6.24,1.96,1.93,-0.37,1.85,0.76
6.887239098548889,1,3,3,1,-6.62,1.91,1.96,-0.91,1.79,0.02
6.897239089012146,1,3,3,1,-7.2,1.83,2,-1.22,1.52,-0.75
6.907239079475403,1,3,3,1,-8.720000000000001,1.8,2.04,-1.22,1.52,-0.75
6.91723906993866,1,3,3,1,-9.32,1.65,2.1,-1.36,1.03,-1.54
6.927239060401917,1,3,3,1,-9.82,1.4,2.2,-1.5,0.44,-2.15
6.937239050865173,1,3,3,1,-10.21,1.06,2.23,-2.04,-0.48,-2.55
6.94723904132843,1,3,3,1,-10.55,0.67,2.32,-2.04,-0.48,-2.55
6.957239031791687,1,3,3,1,-10.61,0.62,2.49,-2.01,-0.57,-2.27
6.967239022254944,1,3,3,1,-10.63,0.51,2.66,-1.37,-0.46,-1.79
6.977239012718201,1,3,3,1,-10.64,0.43,2.63,-0.43,-0.27,-1.13
6.987239003181458,1,3,3,1,-10.4,0.37,2.36,0.48,0.06,-0.42
6.997238993644714,1,3,3,1,-10.19,0.42,2.38,1.37,0.38,0.21
7.007238984107971,1,3,3,1,-9.98,0.44,2.38,1.97,0.52,0.6899999999999999
7.017238974571228,1,3,3,1,-9.720000000000001,0.5600000000000001,2.39,2.29,0.55,1.01
7.027238965034485,1,3,3,1,-9.18,0.9,2.34,2.4,0.4,1.07
7.037238955497742,1,3,3,1,-8.93,0.97,2.04,2.35,0.29,1.01
7.047238945960999,1,3,3,1,-8.789999999999999,1.01,2.07,2.13,0.22,0.79
7.057238936424255,1,3,3,1,-8.75,0.93,2.44,1.62,-0.26,0.5
7.067238926887512,1,3,3,1,-8.84,1.06,2.2,1.32,-0.98,0.38
7.077238917350769,1,3,3,1,-9.050000000000001,0.91,1.72,1.63,-1.35,0.3
7.087238907814026,1,3,3,1,-9.289999999999999,0.5600000000000001,1.52,1.49,-1.06,0.07000000000000001
7.097238898277283,1,3,3,1,-9.640000000000001,0.34,2.41,0.62,-0.74,-0.19
7.107239127159119,1,3,3,1,-9.720000000000001,0.41,2.69,0.07000000000000001,-1.24,-0.4
7.117239117622375,1,3,3,1,-9.6,0.63,1.79,0.2,-1.92,-0.48
7.127239108085632,1,3,3,1,-9.74,0.6899999999999999,1.64,0.5,-1.87,-0.49
7.137239098548889,1,3,3,1,-9.529999999999999,0.71,1.48,0.27,-1.61,-0.37
7.147239089012146,1,3,3,1,-9.5,0.77,1.5,-0.08,-1.08,-0.19
7.157239079475403,1,3,3,1,-9.5,0.72,1.61,-0.4,-0.59,-0.02
7.16723906993866,1,3,3,1,-9.52,0.68,1.7,-0.76,-0.19,0.08
7.177239060401917,1,3,3,1,-9.67,0.61,1.83,-1.04,0.11,0.16
7.187239050865173,1,3,3,1,-9.67,0.59,1.87,-1.06,0.12,0.23
7.198238968849182,1,3,3,1,-9.609999999999999,0.55,1.69,-0.83,0.11,0.37
7.208238959312439,1,3,3,1,-9.59,0.43,1.57,-0.72,0.4,0.47
7.218238949775696,1,3,3,1,-9.52,0.22,1.66,-0.63,0.67,0.59
7.228238940238953,1,3,3,1,-9.529999999999999,0.2,1.8,-0.52,0.85,0.6899999999999999
7.238238930702209,1,3,3,1,-9.550000000000001,0.17,1.9,-0.44,0.75,0.77
7.248238921165466,1,3,3,1,-9.529999999999999,0.08,1.94,-0.21,0.53,0.83
7.258238911628723,1,3,3,1,-9.449999999999999,0.1,1.81,-0.03,0.45,0.87
7.26823890209198,1,3,3,1,-9.44,0.18,1.8,0.15,0.49,0.92
7.278239130973816,1,3,3,1,-9.470000000000001,0.28,1.74,0.28,0.49,0.97
7.288239121437073,1,3,3,1,-9.52,0.33,1.64,0.46,0.44,1.06
7.29823911190033,1,3,3,1,-9.6,0.5,1.74,0.6899999999999999,0.36,1.13
7.308239102363586,1,3,3,1,-9.640000000000001,0.67,1.75,0.8,0.28,1.16
7.318239092826843,1,3,3,1,-9.710000000000001,0.8100000000000001,1.75,0.79,0.29,1.21
7.3282390832901,1,3,3,1,-9.76,1.11,1.58,0.73,0.32,1.23
7.338239073753357,1,3,3,1,-9.779999999999999,1.26,1.49,0.62,0.32,1.24
7.348239064216614,1,3,3,1,-9.75,1.32,1.53,0.48,0.34,1.23
7.358239054679871,1,3,3,1,-9.75,1.41,1.62,0.46,0.31,1.13
7.368239045143127,1,3,3,1,-9.59,1.53,1.79,0.37,0.24,1.01
7.378239035606384,1,3,3,1,-9.470000000000001,1.56,1.66,0.33,0.14,0.86
7.388239026069641,1,3,3,1,-9.42,1.53,1.61,0.28,0.16,0.68
7.398239016532898,1,3,3,1,-9.31,1.54,1.79,0.41,0.18,0.47
7.408239006996155,1,3,3,1,-9.119999999999999,1.76,1.66,0.84,0.19,0.22
7.418238997459412,1,3,3,1,-8.970000000000001,1.73,1.77,1.27,0.37,0.01
7.428238987922668,1,3,3,1,-8.949999999999999,1.72,1.63,1.37,0.92,0.01
7.438238978385925,1,3,3,1,-8.92,1.77,1.38,1.39,1.36,0.22
7.448238968849182,1,3,3,1,-8.52,1.89,0.7,1.32,1.59,0.52
7.458238959312439,1,3,3,1,-8.210000000000001,1.84,0.52,0.86,1.79,0.83
7.468238949775696,1,3,3,0,-7.79,1.71,0.41,0.14,2.07,1.2
7.478238940238953,1,3,3,0,-7.25,1.64,0.14,-0.54,2.38,1.43
7.488238930702209,1,3,3,0,-6.42,1.71,-0.67,-0.85,2.3,1.51
7.498238921165466,1,3,3,0,-5.89,1.51,-0.5,-1.05,1.99,1.38
7.508238911628723,1,3,3,0,-5.35,1.36,-0.3,-1.32,1.43,1.14
7.51823890209198,1,3,3,0,-4.68,1.24,0.38,-1.55,0.48,0.67
7.528239130973816,1,3,3,0,-4.35,1.13,1.04,-1.48,-1.39,-0.03
7.538239121437073,1,3,3,0,-4.11,0.58,1.03,-1.01,-3.56,-0.8
7.54823911190033,1,3,3,0,-4.34,0.35,1.05,-1.59,-5.01,-1.54
7.558239102363586,1,3,3,0,-4.8,0.27,1.44,-1.36,-6.44,-2.53
7.568239092826843,1,3,3,0,-4.89,0.09,1.43,-0.53,-7.8,-4.06
7.5782390832901,1,3,3,0,-5.47,-0.2,1.61,0.14,-8.42,-5.4
7.588239073753357,1,3,3,0,-6.24,0.04,1.74,0.63,-8.81,-6.7
7.598239064216614,1,3,3,0,-7.45,0.83,1.64,1.26,-8.529999999999999,-8.1
7.608239054679871,1,3,3,0,-8.34,1.39,2.13,0.82,-7.49,-8.85
7.618239045143127,1,3,3,0,-9.9,1.15,2.66,0.47,-6.01,-9.15
7.628239035606384,1,3,3,0,-11.16,1.02,3.09,-0.1,-4.99,-8.85
7.638239026069641,1,3,3,0,-13.78,0.32,3.73,-0.82,-4.14,-7.82
7.648239016532898,1,3,3,0,-14.87,-0.06,4.12,-0.42,-3.37,-6.22
7.658239006996155,1,3,3,0,-15.4,-0.3,4.01,-0.22,-3.48,-4.38
7.668238997459412,1,3,3,0,-15.19,-0.04,3.87,-0.67,-3.47,-3.13
7.678238987922668,1,3,3,0,-13.93,0.6899999999999999,3.82,-1.51,-3.26,-2.55
7.688238978385925,1,3,3,0,-13.85,0.67,4.03,-2.75,-2.58,-2.4
7.698238968849182,1,3,3,0,-14.39,0.46,4.42,-3.92,-1.69,-2.73
7.708238959312439,1,3,3,0,-16.29,-1.23,5.17,-4.87,-0.77,-3.37
7.718238949775696,1,3,3,0,-17.31,-2.15,5.93,-5.18,0.28,-3.51
7.738238930702209,1,3,3,0,-20.68,-4.46,7.19,-5.35,2.16,-1.77
7.748238921165466,1,3,3,0,-24.75,-5.41,7.58,-5.36,3.21,-0.22
7.758238911628723,1,3,3,0,-26.84,-5.24,8.16,-5.15,4.45,1.57
7.76823890209198,1,3,3,0,-28.18,-4.81,8.19,-3.94,4.71,3.44
7.778239130973816,1,3,3,0,-28.94,-4.81,7.75,-2.4,4.42,5.49
7.788239121437073,1,3,3,0,-27.21,-3.48,7.41,-1.27,4.48,6.99
7.79823911190033,1,3,3,0,-25.65,-2.34,7.18,0.46,4.76,8.27
7.808239102363586,1,3,3,0,-24.09,-0.78,6.91,2.97,5.33,8.869999999999999
7.818239092826843,1,3,3,0,-22.56,1.38,6.64,5.21,6.25,8.52
7.8282390832901,1,3,3,0,-18.09,4.95,4.93,6.48,7.29,8.08
7.838239073753357,1,3,3,0,-16.05,5.64,4.12,6.44,8.43,7.9
7.848239064216614,1,3,3,0,-14.24,4.94,2.58,6.38,9.34,7.81
7.858239054679871,1,3,3,0,-12.35,5.21,2.68,6.18,10.28,7.7
7.868239045143127,1,3,3,0,-8.210000000000001,2.78,0.03,5.44,10.86,7.42
7.878239035606384,1,3,3,0,-5.31,2.73,-0.15,4.06,10.48,7.78
7.888239026069641,1,3,3,0,-2.8,2.92,-1.25,2.4,10.66,7.91
7.898239016532898,1,3,3,0,1.86,4.32,-1.85,1.99,8.550000000000001,7.67
7.908239006996155,1,3,3,0,4.69,5.25,-1.26,1.21,4.39,7.27
7.918238997459412,1,3,3,0,7.35,5.36,-0.46,-1.17,0.6,7.29
7.928238987922668,1,3,3,0,9.460000000000001,5.28,0.14,-4.25,-0.28,7.14
7.938238978385925,1,3,3,0,8.76,4.34,-0.34,-7.29,2.13,5.63
7.948238968849182,1,3,3,0,6.53,2.56,-1.08,-9.449999999999999,5.05,2.46
7.958238959312439,1,3,3,0,2.17,0.03,-2.03,-8.66,5.86,-1.39
7.968238949775696,1,3,3,0,-0.88,-2.51,-2.21,-5.2,2.18,-5
7.978238940238953,2,3,3,0,-2.67,-2.13,-0.06,-1.39,-2.47,-7.78
7.988238930702209,2,3,3,0,-2.65,-1.44,0.98,0.52,-5.09,-9.779999999999999
7.998238921165466,2,3,3,0,-2.7,-1.26,0.7,0.62,-5.48,-10.62
8.008238911628723,2,3,3,0,-3.05,-1.45,0.45,1.59,-5.9,-10.24
8.01823890209198,2,3,3,0,-2.57,-1.19,0.25,2.38,-6.35,-8.82
8.028239130973816,2,3,3,0,-2.03,-0.89,0.25,2.24,-5.87,-6.61
8.038239121437073,2,3,3,0,-1.36,-0.79,0.37,1.93,-4.46,-4.12
8.04823911190033,2,3,3,0,-0.88,-0.77,0.31,1.64,-2.2,-1.7
8.058239102363586,2,3,3,0,-0.37,-0.98,0.18,1.83,0.29,0.45
8.068239092826843,2,3,3,0,-0.16,-0.91,0.05,2.44,2.43,2.27
8.0782390832901,2,3,3,0,-0.03,-0.8,-0.13,2.87,4.14,3.61
8.088239073753357,2,3,3,0,-0.07000000000000001,-0.58,-0.42,3.05,5.17,4.62
8.098239064216614,2,3,3,0,-0.39,0.2,-0.73,3.3,5.48,5.14
8.108239054679871,2,3,3,0,-0.76,0.66,-0.64,3.74,5.03,5.06
8.118239045143127,2,3,3,0,-0.96,0.9399999999999999,-0.6899999999999999,4.45,3.96,4.54
8.128239035606384,2,3,3,0,-1.31,1.42,-1.3,5.02,3.09,3.61
8.138239026069641,2,3,3,0,-1.28,1.91,-1.52,4.9,2.22,2.13
8.148239016532898,2,3,3,0,-1.06,2.46,-1.7,4.44,1.19,0.46
8.158239006996155,2,3,3,0,-0.66,2.86,-1.82,3.46,0.19,-1.11
8.168238997459412,2,3,3,0,-0.01,2.51,-1.61,1.5,-0.45,-2.62
8.178238987922668,2,3,3,0,0.3,1.89,-1.44,-1.22,-0.84,-4.26
8.188238978385925,2,3,3,0,0.02,1.66,-0.73,-3.34,-2.11,-6.38
8.198238968849182,2,3,3,0,0.06,1.25,-1.69,-3.78,-4.39,-8.92
8.208238959312439,2,3,3,0,-1.85,2.98,-2.82,-3.83,-7.86,-11.12
8.219239115715027,2,3,3,0,-3.97,3.06,-0.64,-0.99,-10.99,-12.7
8.229239106178284,2,3,3,0,-8.640000000000001,2.53,1.68,-0.49,-15.92,-15.47
8.239239096641541,2,3,3,0,-14.16,4.28,5.91,-6.52,-19.86,-18.96
8.249239087104797,2,3,3,0,-30.32,4.32,4.33,-15.54,-15.47,-20.13
8.259239077568054,2,3,3,0,-33.86,-0.33,11.39,-16.14,-11.82,-18.14
8.269239068031311,2,3,3,0,-30.73,-3.26,10.41,-16.34,-5.54,-15.19
8.279239058494568,2,3,3,0,-38.16,-3.73,9.99,-12.87,3.63,-9.699999999999999
8.289239048957825,2,3,3,0,-31.54,-6.2,3.43,-10.61,5.04,-4.38
8.299239039421082,2,3,3,0,-28,-6.41,5.7,-11.07,3.22,-2.33
8.309239029884338,2,3,3,0,-22.7,-6.11,7.7,-9.31,2.65,-1.03
8.319239020347595,2,3,3,0,-18.93,-3.58,9.84,-5.19,2.95,-0.98
8.329239010810852,2,3,3,0,-17.83,-3.5,9.44,-0.3,2.9,-1.53
8.339239001274109,2,3,3,0,-16.59,-3.11,7.93,1.41,2.74,-1.76
8.349238991737366,2,3,3,0,-16.19,-2.52,6.18,1.43,3.2,-0.49
8.359238982200623,2,3,3,0,-15.19,-1.67,3.4,0.98,3.95,1.84
8.369238972663879,2,3,3,1,-14.61,-1.17,2.67,0.74,4.68,4.43
8.379238963127136,2,3,3,1,-13.53,-1.64,1.48,1.28,5.25,7.05
8.389238953590393,2,3,3,1,-12.07,-1.75,0.86,2.31,5.55,10.05
8.39923894405365,2,3,3,1,-9.44,-0.62,0.73,3.02,5.65,12.63
8.409238934516907,2,3,3,1,-8.210000000000001,0.02,0.75,2.96,5.02,14.09
8.419238924980164,2,3,3,1,-7,0.44,0.82,2.43,4.05,14.47
8.42923891544342,2,3,3,1,-6.08,0.8100000000000001,0.9,1.98,3.4,14.01
8.439238905906677,2,3,3,1,-4.66,1.25,1.05,1.76,3.05,12.85
8.449238896369934,2,3,3,1,-4.09,1.54,1.47,1.71,2.66,11.5
8.45923912525177,2,3,3,1,-3.69,1.81,2.04,1.89,2.14,10.04
8.469239115715027,2,3,3,1,-3.63,2.14,2.14,2.09,1.23,8.56
8.479239106178284,2,3,3,1,-3.59,2.55,1.53,2.06,0.47,7.06
8.489239096641541,2,3,3,1,-3.57,2.67,0.93,2.15,0.04,5.57
8.499239087104797,2,3,3,1,-3.86,2.55,0.61,2.17,-0.14,4.2
8.509239077568054,2,3,3,1,-5.1,1.91,1.21,2.08,-0.85,2.88
8.519239068031311,2,3,3,1,-5.72,1.59,0.93,2.11,-2.3,1.8
8.529239058494568,2,3,3,1,-6.91,1.27,0.29,2.61,-3.52,1
8.539239048957825,2,3,3,1,-8.41,0.89,0.31,3.41,-4.83,0.08
8.549239039421082,2,3,3,1,-11.07,0.97,0.55,4.28,-6.44,-0.93
8.559239029884338,2,3,3,1,-12.28,1.03,0.5,5.23,-7.6,-1.76
8.569239020347595,2,3,3,1,-13.12,1.25,0.79,5.7,-8.039999999999999,-2.32
8.579239010810852,2,3,3,1,-13.6,1.69,1.17,5.87,-7.66,-2.64
8.589239001274109,2,3,3,1,-12.77,1.78,1.41,6.07,-6.61,-2.92
8.599238991737366,2,3,3,1,-11.79,1.68,1.8,5.74,-5.18,-2.92
8.609238982200623,2,3,3,1,-10.74,1.51,2.19,5.2,-3.41,-2.44
8.619238972663879,2,3,3,1,-10.05,1.19,2.6,4.64,-1.55,-1.71
8.629238963127136,2,3,3,1,-9.01,1.26,2.84,4.13,0,-1.01
8.639238953590393,2,3,3,1,-8.68,1.56,2.55,3.47,1.2,-0.38
8.64923894405365,2,3,3,1,-8.51,1.63,2.36,2.33,2.14,0.18
8.659238934516907,2,3,3,1,-8.6,1.43,2.22,1.13,2.6,0.49
8.669238924980164,2,3,3,1,-8.720000000000001,1.04,1.9,0.42,2.18,0.78
8.67923891544342,2,3,3,1,-8.68,0.8100000000000001,1.5,0.37,1.48,0.88
8.689238905906677,2,3,3,1,-8.710000000000001,0.8100000000000001,1.22,0.58,0.76,0.6899999999999999
8.699238896369934,2,3,3,1,-8.449999999999999,0.92,1.21,0.9,0.06,0.27
8.70923912525177,2,3,3,1,-8.529999999999999,0.88,1.38,1.06,-0.67,-0.17
8.719239115715027,2,3,3,1,-8.59,0.93,1.37,1.13,-1.5,-0.64
8.729239106178284,2,3,3,1,-8.779999999999999,0.96,1.25,1.28,-2.03,-1.13
8.739239096641541,2,3,3,1,-9.32,1.2,1.29,1.24,-2.34,-1.46
8.749239087104797,2,3,3,1,-9.720000000000001,1.27,1.43,1.18,-2.46,-1.56
8.759239077568054,2,3,3,1,-10.03,1.34,1.67,1.05,-2.38,-1.52
8.769239068031311,2,3,3,1,-10.24,1.45,1.82,0.78,-2.14,-1.27
8.779239058494568,2,3,3,1,-10.45,1.27,2.03,0.5,-1.68,-0.88
8.789239048957825,2,3,3,1,-10.42,1.21,2.05,0.18,-1.15,-0.33
8.799239039421082,2,3,3,1,-10.36,1.1,2.21,-0.1,-0.58,0.26
8.809239029884338,2,3,3,1,-10.25,1.08,2.35,-0.31,-0.11,0.75
8.819239020347595,2,3,3,1,-9.85,0.87,2.34,-0.41,0.11,1.04
8.829239010810852,2,3,3,1,-9.65,0.76,2.24,-0.46,0.4,1.17
8.839239001274109,2,3,3,1,-9.470000000000001,0.62,2.08,-0.65,0.53,1.15
8.849238991737366,2,3,3,1,-9.24,0.52,2.01,-0.79,0.37,0.99
8.859238982200623,2,3,3,1,-8.83,0.34,1.96,-0.85,0.26,0.71
8.869238972663879,2,3,3,1,-8.710000000000001,0.3,1.95,-1.03,0.16,0.39
8.879238963127136,2,3,3,1,-8.699999999999999,0.28,1.93,-1.17,0.12,0.11
8.889238953590393,2,3,3,1,-8.75,0.26,1.84,-1.27,0.16,-0.15
8.89923894405365,2,3,3,1,-9.17,0.38,1.91,-1.32,0.12,-0.3
8.909238934516907,2,3,3,1,-9.390000000000001,0.4,1.95,-1.32,0.08,-0.41
8.919238924980164,2,3,3,1,-9.609999999999999,0.44,1.9,-1.34,0.12,-0.44
8.92923891544342,2,3,3,1,-9.800000000000001,0.46,1.83,-1.5,0.06,-0.32
8.939238905906677,2,3,3,1,-9.880000000000001,0.41,1.72,-1.66,0.11,-0.17
8.949238896369934,2,3,3,1,-9.92,0.31,1.83,-1.75,0.09,0.06
8.95923912525177,2,3,3,1,-9.859999999999999,0.17,1.99,-1.82,0.08,0.28
8.969239115715027,2,3,3,1,-9.710000000000001,0.18,2.08,-1.86,0.01,0.5600000000000001
8.979239106178284,2,3,3,1,-9.619999999999999,0.2,1.96,-1.65,0.08,0.8100000000000001
8.989239096641541,2,3,3,1,-9.5,0.28,1.84,-1.41,0.24,1
8.999239087104797,2,3,3,1,-9.41,0.26,1.86,-1.15,0.42,1.1
9.009239077568054,2,3,3,1,-9.44,0.21,1.87,-0.78,0.57,1.19
9.019239068031311,2,3,3,1,-9.48,0.21,1.94,-0.33,0.58,1.15
9.029239058494568,2,3,3,1,-9.49,0.23,2.06,0.16,0.45,1.08
9.039239048957825,2,3,3,1,-9.460000000000001,0.31,2,0.53,0.37,0.96
9.049239039421082,2,3,3,1,-9.5,0.52,1.87,0.93,0.34,0.82
9.059239029884338,2,3,3,1,-9.51,0.59,1.85,1.39,0.28,0.6899999999999999
9.069239020347595,2,3,3,1,-9.5,0.73,1.84,1.62,0.28,0.57
9.079239010810852,2,3,3,1,-9.51,0.92,1.83,1.77,0.19,0.47
9.089239001274109,2,3,3,1,-9.539999999999999,1.08,1.75,1.84,0.15,0.34
9.099238991737366,2,3,3,1,-9.48,1.17,1.84,1.81,0.06,0.22
9.109238982200623,2,3,3,1,-9.43,1.28,1.9,1.67,-0.05,0.17
9.119238972663879,2,3,3,1,-9.42,1.53,1.83,1.47,-0.04,0.13
9.129238963127136,2,3,3,1,-9.49,1.6,1.74,1.31,0.07000000000000001,0.11
9.139238953590393,2,3,3,1,-9.529999999999999,1.68,1.61,1.02,0.16,0.09
9.14923894405365,2,3,3,1,-9.52,1.68,1.58,0.7,0.3,0.1
9.159238934516907,2,3,3,1,-9.43,1.71,1.64,0.37,0.45,0.12
9.169238924980164,2,3,3,1,-9.41,1.68,1.67,0.27,0.68,0.13
9.17923891544342,2,3,3,1,-9.390000000000001,1.59,1.71,0.33,1.01,0.14
9.189238905906677,2,3,3,1,-9.42,1.51,1.62,0.14,1.43,0.25
9.199238896369934,2,3,3,1,-9.42,1.59,1.61,-0.3,1.94,0.48
9.20923912525177,2,3,3,1,-9.460000000000001,1.63,1.36,-0.8,2.25,0.65
9.219239115715027,2,3,3,1,-9.41,1.71,1.3,-1.47,2.37,0.7
9.229239106178284,2,3,3,1,-9.279999999999999,1.82,1.27,-2.14,2.31,0.78
9.239239096641541,2,3,3,1,-8.85,2.19,1.3,-2.67,2.29,0.8100000000000001
9.250239014625549,2,3,3,1,-8.57,2.34,1.31,-2.94,2.4,0.79
9.260239005088806,2,3,3,1,-8.33,2.46,1.34,-3.05,2.63,0.67
9.270238995552063,2,3,3,1,-8.050000000000001,2.48,1.19,-3.3,2.75,0.5
9.28023898601532,2,3,3,1,-7.61,2.28,1.26,-3.78,2.72,0.3
9.290238976478577,2,3,3,1,-7.3,2.15,1.05,-4.22,2.52,0.08
9.300238966941833,2,3,3,1,-6.95,2.13,0.8,-4.65,2.33,-0.13
9.31023895740509,2,3,3,1,-6.19,2.27,0.55,-4.64,2.09,-0.22
9.320238947868347,2,3,3,1,-5.76,2.34,0.48,-4.1,1.69,-0.21
9.330238938331604,2,3,3,1,-5.43,2.11,0.3,-3.32,1.03,-0.09
9.340238928794861,2,3,3,1,-5.15,1.33,-0.08,-3.79,0.51,-0.11
9.350238919258118,2,3,3,1,-5.23,1.02,0.7,-5.16,-0.28,-0.39
9.360238909721375,2,3,3,1,-5.41,0.89,0.8100000000000001,-4.38,-1.93,-0.5600000000000001
9.370238900184631,2,3,3,1,-5.96,0.82,0.73,-2.85,-3.6,-0.61
9.380239129066467,2,3,3,1,-6.79,0.36,0.92,-2.28,-5.29,-0.77
9.390239119529724,2,3,3,1,-7.93,0.05,1.72,-3.31,-7.01,-1.36
9.400239109992981,2,3,3,1,-8.460000000000001,0.01,2.47,-3.67,-8.56,-2.58
9.410239100456238,2,3,3,1,-8.82,-0.23,2.37,-2.42,-9.84,-3.89
9.420239090919495,2,3,3,1,-8.890000000000001,-0.26,2.07,-1.6,-9.640000000000001,-5.01
9.430239081382751,2,3,3,1,-8.9,-0.05,2.42,-0.96,-8.140000000000001,-5.81
9.440239071846008,2,3,3,1,-9.07,0.36,2.65,-0.35,-6.6,-6.11
9.450239062309265,2,3,3,1,-9.369999999999999,0.54,2.95,0.53,-5.23,-6
9.460239052772522,2,3,3,1,-10.01,0.1,3.08,1.08,-4.27,-5.88
9.470239043235779,2,3,3,1,-11.12,0.22,3.36,1.04,-3.54,-5.85
9.480239033699036,2,3,3,1,-12.09,0.48,3.67,0.87,-2.64,-5.69
9.490239024162292,2,3,3,1,-13.27,0.84,3.69,0.12,-2.32,-5.53
9.500239014625549,2,3,3,1,-14.31,0.88,4.47,-0.82,-3.02,-5.51
9.510239005088806,2,3,3,1,-14.71,-0.03,4.7,-1.8,-3.9,-5.38
9.520238995552063,2,3,3,1,-15.36,-0.86,5.6,-3.22,-3.57,-5.26
9.53023898601532,2,3,3,1,-16.39,-1.58,6.27,-4.57,-2.64,-5.11
9.540238976478577,2,3,3,1,-19.12,-4.44,7.8,-5.13,-1.53,-4.69
9.550238966941833,2,3,3,1,-21.17,-5.83,7.97,-5.23,-0.14,-3.58
9.56023895740509,2,3,3,1,-23.24,-6.63,8.34,-3.57,0.75,-1.94
9.570238947868347,2,3,3,1,-25.42,-6.45,8.640000000000001,-0.5600000000000001,1.54,0.06
9.580238938331604,2,3,3,1,-27.75,-5.25,8.48,1.93,2.14,2.12
9.590238928794861,2,3,3,1,-27.69,-3.84,8.25,3.55,2.64,4.01
9.600238919258118,2,3,3,1,-27.6,-2.8,8.109999999999999,3.62,3.19,5.67
9.610238909721375,2,3,3,1,-27.36,-1.51,7.87,2.02,3.75,7.21
9.620238900184631,2,3,3,1,-26.29,1.03,7.03,-0.08,4.23,8.07
9.630239129066467,2,3,3,1,-24.32,1.65,5.92,-2.16,4.8,8.119999999999999
9.640239119529724,2,3,3,1,-21.62,2.37,4.86,-3.78,6.02,7.75
9.650239109992981,2,3,3,1,-18.35,2.85,4.01,-4.53,7.87,7.1
9.660239100456238,2,3,3,1,-13,2.16,2.06,-4.19,10,6.59
9.670239090919495,2,3,3,1,-10.99,2.59,2.44,-2.14,11.25,6.38
9.680239081382751,2,3,3,1,-9.43,2.15,1.53,-0.03,12.28,6.12
9.690239071846008,2,3,3,1,-5.08,0.82,0.2,1.73,11.45,6.2
9.700239062309265,2,3,3,1,-2.29,0.95,-0.31,1.32,10.37,6.34
9.710239052772522,2,3,3,1,0.72,1.23,-0.79,1.66,8.470000000000001,6.88
9.720239043235779,2,3,3,1,2.79,1.99,-0.79,2.22,6.69,7.17
9.730239033699036,2,3,3,1,5.76,2.89,-0.88,2.65,4.58,6.81
9.740239024162292,2,3,3,1,6.23,2.96,-1.21,2.41,2.81,6.5
9.750239014625549,2,3,3,1,6.64,2.68,-1.03,1.19,2,5.71
9.760239005088806,2,3,3,1,5.81,2.36,-0.58,-0.4,1.88,3.94
9.770238995552063,2,3,3,1,2.86,1.07,-0.74,-1.83,1.05,1.53
9.78023898601532,2,3,3,1,1.14,0.46,-0.64,-2.84,0.23,-1.35
9.790238976478577,2,3,3,1,-0.57,0.13,-0.46,-2.97,-0.31,-4.4
9.800238966941833,2,3,3,1,-2.06,-0.18,-0.21,-1.66,-1.64,-7.22
9.81023895740509,2,3,3,1,-2.82,-0.68,-0.08,-0.11,-3.74,-9.18
9.820238947868347,2,3,3,2,-2.64,-0.82,-0.2,0.8,-5.33,-10.08
9.830238938331604,2,3,3,2,-2.32,-0.82,0.1,1.53,-6.51,-9.800000000000001
9.840238928794861,2,3,3,2,-2.12,-0.8,0.67,2.36,-7.61,-8.67
9.850238919258118,2,3,3,2,-1,-0.52,0.13,3.11,-7.6,-6.76
9.860238909721375,2,3,3,2,-0.38,-0.66,0.14,3.39,-6.21,-4.44
9.870238900184631,2,3,3,2,-0.12,-0.78,0.28,3.55,-3.92,-2.02
9.880239129066467,2,3,3,2,-0.12,-0.68,-0.05,3.74,-1.49,0.08
9.890239119529724,2,3,3,2,-0.18,-0.48,-0.31,3.93,0.7,1.82
9.900239109992981,2,3,3,2,-0.47,-0.18,-0.37,4.21,2.48,3.11
9.910239100456238,2,3,3,2,-0.52,0.14,-0.49,4.43,3.54,3.77
9.920239090919495,2,3,3,2,-0.54,0.85,-0.8,4.6,4.24,3.99
9.930239081382751,2,3,3,2,-0.79,1.24,-0.53,4.66,4.02,3.83
9.940239071846008,2,3,3,2,-0.58,1.8,-0.71,5.36,2.62,3.43
9.950239062309265,2,3,3,2,-0.47,2.18,-1.54,6.01,2.05,2.85
9.960239052772522,2,3,3,2,-0.6899999999999999,3.03,-2.44,5.41,2.37,1.68
9.970239043235779,2,3,3,2,-0.68,3.54,-2.25,4.27,2.24,0.15
9.980239033699036,2,3,3,2,-0.36,3.96,-2.13,2.72,1.6,-1.65
9.990239024162292,2,3,3,2,0.05,4.18,-2,0.53,1.26,-3.65
10.00023901462555,2,3,3,2,-0.36,3.43,-0.78,-2.8,1.01,-5.98
10.01023900508881,2,3,3,2,-0.85,3.19,-0.6,-6.42,-1.84,-9.18
10.02023899555206,2,3,3,2,-2.06,1.98,-0.26,-8.960000000000001,-6.95,-12.63
10.03023898601532,2,3,3,2,-3.12,3.44,-2.56,-9.210000000000001,-12.49,-15.43
10.04023897647858,2,3,3,2,-8.26,2.93,1.82,-5.33,-17.53,-17.38
10.05023896694183,2,3,3,2,-12.35,4.17,7.25,-8.550000000000001,-25.81,-21.13
10.06023895740509,2,3,3,2,-13.15,5.34,4.53,-13.29,-26.03,-22.26
10.07023894786835,2,3,3,2,-36.89,-0.98,11.92,-17.87,-18.51,-20.34
10.0802389383316,2,3,3,2,-30.86,-6.24,9.41,-21.19,-15.5,-16.3
10.09023892879486,2,3,3,2,-28.8,-9.75,11.4,-17.56,-5.27,-11.25
10.10023891925812,2,3,3,2,-33.11,-5.34,10.4,-10.82,5.56,-3.7
10.11023890972137,2,3,3,2,-28.29,-4.17,7.79,-10.12,7.29,0.02
10.12023890018463,2,3,3,2,-23.99,-5.79,7.55,-10.48,6,2.8
10.13023912906647,2,3,3,2,-21.16,-6.47,7.66,-10.16,4.19,3.72
10.14023911952972,2,3,3,2,-21,-6.34,7.84,-8.369999999999999,3.37,2.82
10.15023910999298,2,3,3,2,-19.66,-5.34,7.19,-5.45,2.49,1.48
10.16023910045624,2,3,3,2,-18.58,-5.13,6.72,-2.45,2.1,0.92
10.17023909091949,2,3,3,2,-18.06,-5.01,5.9,0.12,2.05,1.28
10.18023908138275,2,3,3,2,-17.45,-5.03,5.05,2.66,2.52,2.64
10.19023907184601,2,3,3,2,-15.2,-3.87,3.72,5.44,3.41,4.54
10.20023906230927,2,3,3,2,-13.85,-3.3,3.32,7.72,4.02,6.49
10.21023905277252,2,3,3,2,-12.31,-2.26,3.19,9.41,3.92,8.43
10.22023904323578,2,3,3,2,-10.55,-1.3,2.38,10.43,3.9,10.01
10.23023903369904,2,3,3,2,-7.58,0.39,2.05,10.82,3.96,11.31
10.24023902416229,2,3,3,2,-6.29,0.91,1.66,10.41,4.22,12.15
10.25023901462555,2,3,3,2,-5.12,1.57,1.58,9.18,4.81,12.55
10.26023900508881,2,3,3,2,-4.04,2,1.11,7.58,5.69,12.45
10.27123892307281,2,3,3,2,-3.94,2.17,0.93,5.9,6.27,11.91
10.28123891353607,2,3,3,2,-3.87,2.17,0.77,4.34,6.13,11.08
10.29123890399933,2,3,3,2,-3.96,2.27,0.72,2.81,5.41,10.16
10.30123913288116,2,3,3,2,-4.18,2.02,0.86,1.25,4.46,8.890000000000001
10.31123912334442,2,3,3,2,-4.37,1.65,0.91,0.03,3.32,7.53
10.32123911380768,2,3,3,2,-4.51,1.36,0.99,-0.83,2.12,6.12
10.33123910427094,2,3,3,2,-4.66,1.28,1.2,-1.15,0.95,4.73
10.34123909473419,2,3,3,2,-5.25,1.21,1.6,-0.91,-0.16,3.33
10.35123908519745,2,3,3,2,-5.73,1.17,1.66,-0.29,-1.16,2.1
10.36123907566071,2,3,3,2,-6.39,1.14,1.69,0.44,-1.86,1.01
10.37123906612396,2,3,3,2,-7.27,1.15,1.73,1.08,-2.21,0.12
10.38123905658722,2,3,3,2,-9.6,1.09,1.53,1.86,-2.37,-0.79
10.39123904705048,2,3,3,2,-10.94,1.18,1.6,3.07,-2.48,-1.74
10.40123903751373,2,3,3,2,-11.98,1.41,1.78,4.46,-2.56,-2.65
10.41123902797699,2,3,3,2,-12.68,1.61,1.93,5.44,-2.33,-3.47
10.42123901844025,2,3,3,2,-12.95,1.48,1.93,6.03,-1.75,-4.12
10.4312390089035,2,3,3,2,-12.44,1.13,1.78,6.42,-1.13,-4.43
10.44123899936676,2,3,3,2,-11.58,0.71,1.78,6.75,-0.35,-4.06
10.45123898983002,2,3,3,2,-10.3,-0.01,2.02,6.94,0.5600000000000001,-3.1
10.46123898029327,2,3,3,2,-9.74,0.01,1.99,7.04,1.2,-2.01
10.47123897075653,2,3,3,2,-9.210000000000001,0.28,2.04,7.12,1.37,-1.01
10.48123896121979,2,3,3,2,-8.81,0.51,2.18,7.14,1.39,-0.18
10.49123895168304,2,3,3,2,-8.27,1.22,2.07,6.64,1.34,0.43
10.5012389421463,2,3,3,2,-8.16,1.63,2.02,5.56,1.31,0.75
10.51123893260956,2,3,3,2,-8.1,1.82,2.06,4.31,1.44,0.92
10.52123892307281,2,3,3,2,-8.25,1.88,2.06,3.04,1.71,0.95
10.53123891353607,2,3,3,2,-8.76,1.73,1.75,1.75,1.81,0.83
10.54123890399933,2,3,3,2,-8.960000000000001,1.54,1.66,0.72,1.7,0.6
10.55123913288116,2,3,3,2,-9.119999999999999,1.26,1.73,0.02,1.42,0.33
10.56123912334442,2,3,3,2,-9.35,1.08,1.88,-0.6,1.03,0.07000000000000001
10.57123911380768,2,3,3,2,-9.83,0.8,2.01,-1.15,0.39,-0.14
10.58123910427094,2,3,3,2,-9.99,0.88,1.72,-1.59,-0.08,-0.23
10.59123909473419,2,3,3,2,-10.16,0.92,1.44,-1.69,-0.37,-0.19
10.60123908519745,2,3,3,2,-10.18,0.93,1.45,-1.41,-0.72,-0.13
10.61123907566071,2,3,3,2,-10.05,1,1.44,-1.27,-0.89,-0.09
10.62123906612396,2,3,3,2,-9.949999999999999,1.06,1.42,-1.25,-0.84,-0.07000000000000001
10.63123905658722,2,3,3,2,-9.81,1.04,1.46,-1.29,-0.65,-0.05
10.64123904705048,2,3,3,2,-9.68,0.95,1.45,-1.35,-0.51,-0.1
10.65123903751373,2,3,3,2,-9.56,0.66,1.76,-1.27,-0.4,-0.25
10.66123902797699,2,3,3,2,-9.5,0.58,1.93,-1.1,-0.36,-0.44
10.67123901844025,2,3,3,2,-9.369999999999999,0.5,1.98,-0.91,-0.33,-0.6899999999999999
10.6812390089035,2,3,3,2,-9.26,0.33,1.99,-0.7,-0.32,-0.8100000000000001
10.69123899936676,2,3,3,2,-9.210000000000001,0.25,1.95,-0.45,-0.2,-0.9399999999999999
10.70123898983002,2,3,3,2,-9.220000000000001,0.2,2.03,-0.24,-0.06,-1
10.71123898029327,2,3,3,2,-9.27,0.14,2.06,0.01,0.11,-1.09
10.72123897075653,2,3,3,2,-9.390000000000001,0.12,2.06,0.29,0.23,-1.08
10.73123896121979,2,3,3,2,-9.460000000000001,0.15,2.08,0.65,0.24,-1.08
10.74123895168304,2,3,3,2,-9.57,0.2,2.02,0.84,0.18,-1.05
10.7512389421463,2,3,3,2,-9.69,0.23,2.07,1.01,-0.01,-1.02
10.76123893260956,2,3,3,2,-9.76,0.25,2.17,1.16,-0.2,-0.99
10.77123892307281,2,3,3,2,-9.84,0.19,2.13,1.31,-0.37,-0.96
10.78123891353607,2,3,3,2,-9.869999999999999,0.23,1.98,1.34,-0.55,-0.86
10.79123890399933,2,3,3,2,-9.869999999999999,0.3,1.72,1.3,-0.71,-0.76
10.80123913288116,2,3,3,2,-9.69,0.4,1.72,1.28,-0.85,-0.6
10.81123912334442,2,3,3,2,-9.640000000000001,0.52,1.74,1.21,-0.82,-0.32
10.82123911380768,2,3,3,2,-9.6,0.67,1.73,1.19,-0.65,-0.03
10.83123910427094,2,3,3,2,-9.619999999999999,0.76,1.71,1.18,-0.48,0.2
10.84123909473419,2,3,3,2,-9.6,0.91,1.62,1.13,-0.3,0.44
10.85123908519745,2,3,3,2,-9.609999999999999,0.96,1.69,1.11,-0.11,0.55
10.86123907566071,2,3,3,2,-9.59,1.01,1.8,1.23,-0.01,0.55
10.87123906612396,2,3,3,2,-9.550000000000001,1.08,1.85,1.34,-0.02,0.46
10.88123905658722,2,3,3,2,-9.539999999999999,1.11,1.71,1.34,-0.04,0.24
10.89123904705048,2,3,3,2,-9.470000000000001,1.14,1.6,1.17,-0.07000000000000001,0.04
10.90123903751373,2,3,3,2,-9.41,1.13,1.67,0.87,-0.08,-0.17
10.91123902797699,2,3,3,2,-9.32,1.06,1.78,0.46,-0.06,-0.36
10.92123901844025,2,3,3,2,-9.31,1.03,1.74,0.08,0.02,-0.54
10.9312390089035,2,3,3,2,-9.32,1,1.68,-0.29,-0.03,-0.67
10.94123899936676,2,3,3,2,-9.34,0.88,1.58,-0.45,-0.1,-0.77
10.95123898983002,2,3,3,2,-9.41,0.65,1.73,-0.46,-0.07000000000000001,-0.8100000000000001
10.96123898029327,2,3,3,2,-9.470000000000001,0.65,1.82,-0.53,-0.08,-0.77
10.97123897075653,2,3,3,2,-9.529999999999999,0.65,1.86,-0.7,-0.11,-0.71
10.98123896121979,2,3,3,2,-9.619999999999999,0.63,1.86,-0.87,-0.1,-0.66
10.99123895168304,2,3,3,2,-9.73,0.55,1.73,-1.02,-0.09,-0.6
11.0012389421463,2,3,3,2,-9.720000000000001,0.48,1.8,-1.02,-0.04,-0.57
11.01123893260956,2,3,3,2,-9.720000000000001,0.44,1.84,-0.9399999999999999,-0.09,-0.49
11.02123892307281,2,3,3,2,-9.67,0.4,1.91,-0.79,-0.12,-0.41
11.03123891353607,2,3,3,2,-9.539999999999999,0.35,1.82,-0.59,-0.14,-0.32
11.04123890399933,2,3,3,2,-9.49,0.38,1.74,-0.46,-0.07000000000000001,-0.18
11.05123913288116,2,3,3,2,-9.42,0.42,1.78,-0.38,0,-0.02
11.06123912334442,2,3,3,2,-9.42,0.46,1.82,-0.17,0.09,0.08
11.07123911380768,2,3,3,2,-9.460000000000001,0.49,1.84,0.12,0.14,0.1
11.08123910427094,2,3,3,2,-9.5,0.48,1.83,0.37,0.15,0.04
11.09123909473419,2,3,3,2,-9.56,0.52,1.72,0.59,0.19,-0.02
11.10123908519745,2,3,3,2,-9.609999999999999,0.58,1.76,0.83,0.17,-0.09
11.11123907566071,2,3,3,2,-9.66,0.6,1.77,0.98,0.18,-0.09
11.12123906612396,2,3,3,2,-9.66,0.6,1.77,1.02,0.2,-0.05
11.13123905658722,2,3,3,2,-9.720000000000001,0.6899999999999999,1.79,0.96,0.13,-0.02
11.14123904705048,2,3,3,2,-9.640000000000001,0.74,1.67,0.8,0.05,0.02
11.15123903751373,2,3,3,2,-9.550000000000001,0.76,1.71,0.68,0.03,0.08
11.16123902797699,2,3,3,2,-9.5,0.74,1.83,0.51,0,0.1
11.17123901844025,2,3,3,2,-9.42,0.76,1.83,0.48,0,0.19
11.1812390089035,2,3,3,2,-9.41,0.73,1.71,0.49,0.02,0.22
11.19123899936676,2,3,3,2,-9.449999999999999,0.71,1.79,0.53,0.01,0.22
11.20123898983002,2,3,3,2,-9.52,0.6899999999999999,1.88,0.55,-0.18,0.18
11.21123898029327,2,3,3,2,-9.539999999999999,0.72,1.78,0.54,-0.38,0.13
11.22123897075653,2,3,3,2,-9.640000000000001,0.73,1.51,0.58,-0.38,0.12
11.23123896121979,2,3,3,2,-9.69,0.68,1.57,0.35,-0.25,0.12
11.24123895168304,2,3,3,2,-9.75,0.62,1.64,0.16,-0.36,0.13
11.2512389421463,2,3,3,2,-9.66,0.57,1.72,0.26,-0.79,0.22
11.26123893260956,2,3,3,2,-9.6,0.49,1.59,0.42,-0.89,0.27
11.27123892307281,2,3,3,2,-9.59,0.44,1.61,0.28,-0.64,0.31
11.28123891353607,2,3,3,2,-9.59,0.44,1.61,0.14,-0.46,0.41
11.29123890399933,2,3,3,2,-9.619999999999999,0.47,1.67,0.19,-0.31,0.48
11.30223906040192,2,3,3,2,-9.59,0.52,1.78,0.17,-0.31,0.49
11.31223905086517,2,3,3,2,-9.619999999999999,0.59,1.8,0.08,-0.22,0.48
11.32223904132843,2,3,3,2,-9.619999999999999,0.59,1.8,0.06,-0.14,0.43
11.33223903179169,2,3,3,2,-9.640000000000001,0.58,1.76,0.04,-0.12,0.37
11.34223902225494,2,3,3,2,-9.619999999999999,0.67,1.7,-0.07000000000000001,-0.2,0.31
11.3522390127182,2,3,3,2,-9.619999999999999,0.66,1.91,-0.17,-0.36,0.29
11.36223900318146,2,3,3,2,-9.619999999999999,0.62,2.09,-0.22,-0.76,0.21
11.37223899364471,2,3,3,2,-9.65,0.71,1.85,-0.28,-0.91,0.14
11.38223898410797,2,3,3,2,-9.66,0.77,1.88,-0.26,-1.02,0.13
11.39223897457123,2,3,3,2,-9.65,0.78,1.84,-0.22,-1.2,0.13
11.40223896503448,2,3,3,2,-9.630000000000001,0.8,1.76,-0.13,-1.18,0.11
11.41223895549774,2,3,3,2,-9.550000000000001,0.77,1.73,-0.15,-1.02,0.04
11.422238945961,2,3,3,2,-9.51,0.75,1.72,-0.12,-0.85,0.03
11.43223893642426,2,3,3,2,-9.460000000000001,0.7,1.83,-0.13,-0.71,0.04
11.44223892688751,2,3,3,2,-9.49,0.65,1.79,-0.17,-0.58,0.04
11.45223891735077,2,3,3,2,-9.470000000000001,0.6899999999999999,2.06,-0.25,-0.54,-0.01
11.46223890781403,2,3,3,2,-9.44,0.71,2.05,-0.29,-0.5600000000000001,-0.08
11.47223889827728,2,3,3,2,-9.44,0.71,2.05,-0.25,-0.47,-0.08
11.48223912715912,2,3,3,2,-9.44,0.64,2.01,-0.22,-0.29,-0.14
11.49223911762238,2,3,3,2,-9.380000000000001,0.5600000000000001,2.04,-0.13,-0.24,-0.19
11.50223910808563,2,3,3,2,-9.4,0.57,2.06,0.01,-0.19,-0.19
11.51223909854889,2,3,3,2,-9.369999999999999,0.59,2.1,0.18,-0.12,-0.21
11.52223908901215,2,3,3,2,-9.369999999999999,0.6899999999999999,2.16,0.31,-0.02,-0.27
11.5322390794754,2,3,3,2,-9.369999999999999,0.75,2.14,0.3,0.08,-0.32
11.54223906993866,2,3,3,2,-9.41,0.8,2.06,0.18,0.08,-0.36
11.55223906040192,2,3,3,2,-9.43,0.8,2.06,0.06,0.11,-0.42
11.56223905086517,2,3,3,2,-9.49,0.85,2.11,-0.03,0.1,-0.43
11.57223904132843,2,3,3,2,-9.52,0.83,2.12,-0.06,0.04,-0.47
11.58223903179169,2,3,3,2,-9.52,0.83,2.08,-0.16,-0.01,-0.5
11.59223902225494,2,3,3,2,-9.550000000000001,0.8,1.99,-0.29,-0.08,-0.5
11.6022390127182,2,3,3,2,-9.550000000000001,0.74,2.06,-0.35,-0.04,-0.45
11.61223900318146,2,3,3,2,-9.539999999999999,0.74,2.12,-0.5,0,-0.41
11.62223899364471,2,3,3,2,-9.539999999999999,0.74,2.12,-0.59,0.04,-0.35
11.63223898410797,2,3,3,2,-9.539999999999999,0.73,2.13,-0.59,0.04,-0.35
11.64223897457123,2,3,3,2,-9.529999999999999,0.61,1.95,-0.6899999999999999,0.15,-0.29
11.65223896503448,2,3,3,2,-9.51,0.57,2.01,-0.77,0.1,-0.27
11.66223895549774,2,3,3,2,-9.470000000000001,0.51,2.02,-0.76,0.07000000000000001,-0.23
11.672238945961,2,3,3,2,-9.470000000000001,0.51,2.02,-0.76,0.07000000000000001,-0.23
11.68223893642426,2,3,3,2,-9.48,0.44,2.06,-0.57,0.03,-0.17
11.69223892688751,2,3,3,2,-9.5,0.46,1.97,-0.45,0.09,-0.16
11.70223891735077,2,3,3,2,-9.52,0.47,1.97,-0.3,0.06,-0.18
11.71223890781403,2,3,3,2,-9.529999999999999,0.5,2.01,-0.16,0.08,-0.22
11.72223889827728,2,3,3,2,-9.529999999999999,0.5,2.01,-0.02,0.11,-0.26
11.73223912715912,2,3,3,2,-9.51,0.55,2.03,0.08,0.12,-0.25
11.74223911762238,2,3,3,2,-9.529999999999999,0.59,1.95,0.15,0.14,-0.3
11.75223910808563,2,3,3,2,-9.550000000000001,0.63,1.94,0.17,0.17,-0.3
11.76223909854889,2,3,3,2,-9.539999999999999,0.61,1.96,0.23,0.21,-0.3
11.77223908901215,2,3,3,2,-9.539999999999999,0.61,1.96,0.25,0.24,-0.28
11.7822390794754,2,3,3,2,-9.56,0.6,1.98,0.23,0.26,-0.28
11.79223906993866,2,3,3,2,-9.539999999999999,0.59,1.86,0.21,0.27,-0.23
11.80223906040192,2,3,3,2,-9.550000000000001,0.6,1.91,0.16,0.28,-0.23
11.81223905086517,2,3,3,2,-9.550000000000001,0.61,1.97,0.15,0.2,-0.22
11.82223904132843,2,3,3,2,-9.52,0.57,2.02,0.1,0.14,-0.2
11.83223903179169,2,3,3,2,-9.51,0.58,2.07,-0.06,0.11,-0.19
11.84223902225494,2,3,3,2,-9.5,0.53,2.02,-0.14,0.1,-0.14
11.8522390127182,2,3,3,2,-9.5,0.5,2.07,-0.17,0.1,-0.08
11.86223900318146,2,3,3,2,-9.539999999999999,0.48,2.12,-0.29,0.02,-0.03
11.87223899364471,2,3,3,3,-9.539999999999999,0.48,2.12,-0.38,-0.05,-0.03
11.88223898410797,2,3,3,3,-9.52,0.49,2.13,-0.36,-0.09,0
11.89223897457123,2,3,3,3,-9.539999999999999,0.55,1.9,-0.29,-0.05,-0.01
11.90223896503448,2,3,3,3,-9.529999999999999,0.43,1.99,-0.32,-0.11,-0.03
11.91223895549774,2,3,3,3,-9.550000000000001,0.53,1.89,-0.44,-0.07000000000000001,-0.05
11.922238945961,2,3,3,3,-9.550000000000001,0.53,1.89,-0.33,-0.03,0
11.93223893642426,2,3,3,3,-9.56,0.54,1.91,-0.17,-0.02,0
11.94223892688751,2,3,3,3,-9.550000000000001,0.55,1.92,-0.18,-0.06,0.04
11.95223891735077,2,3,3,3,-9.550000000000001,0.52,2.02,-0.15,-0.06,-0.02
11.96223890781403,2,3,3,3,-9.529999999999999,0.53,1.99,-0.14,-0.07000000000000001,-0.03
11.97223889827728,2,3,3,3,-9.529999999999999,0.53,1.99,-0.2,-0.13,-0.07000000000000001
11.98223912715912,2,3,3,3,-9.52,0.5,1.93,-0.28,-0.14,-0.13
11.99223911762238,2,3,3,3,-9.5,0.47,1.81,-0.32,-0.15,-0.16
12.00223910808563,2,3,3,3,-9.529999999999999,0.48,1.82,-0.32,-0.08,-0.18
12.01223909854889,2,3,3,3,-9.550000000000001,0.47,1.88,-0.28,-0.03,-0.21
12.02223908901215,2,3,3,3,-9.550000000000001,0.47,1.88,-0.28,-0.03,-0.21
12.0322390794754,2,3,3,3,-9.56,0.46,1.98,-0.23,-0.01,-0.26
12.04223906993866,2,3,3,3,-9.6,0.45,1.95,-0.11,0.02,-0.31
12.05223906040192,2,3,3,3,-9.51,0.44,2.02,0.02,0,-0.27
12.06223905086517,2,3,3,3,-9.470000000000001,0.46,2.05,0.12,0.05,-0.27
12.07223904132843,2,3,3,3,-9.470000000000001,0.46,2.05,0.12,0.05,-0.27
12.08223903179169,2,3,3,3,-9.43,0.46,2.01,0.19,0.08,-0.24
12.09223902225494,2,3,3,3,-9.43,0.43,1.95,0.37,0.07000000000000001,-0.16
12.1022390127182,2,3,3,3,-9.470000000000001,0.42,2.03,0.42,0.06,-0.1
12.11223900318146,2,3,3,3,-9.48,0.5,2.09,0.45,0.1,-0.08
12.12223899364471,2,3,3,3,-9.48,0.5,2.09,0.45,0.1,-0.08
12.13223898410797,2,3,3,3,-9.52,0.54,2.09,0.54,0.15,-0.02
12.14223897457123,2,3,3,3,-9.58,0.65,1.93,0.71,0.2,0.05
12.15223896503448,2,3,3,3,-9.59,0.72,1.96,0.73,0.21,0.11
12.16223895549774,2,3,3,3,-9.56,0.74,1.94,0.73,0.19,0.15
12.172238945961,2,3,3,3,-9.56,0.74,1.94,0.73,0.19,0.15
12.18223893642426,2,3,3,3,-9.529999999999999,0.74,1.98,0.68,0.19,0.2
12.19223892688751,2,3,3,3,-9.52,0.8,1.96,0.47,0.13,0.26
12.20223891735077,2,3,3,3,-9.52,0.8,1.86,0.32,0.13,0.27
12.21223890781403,2,3,3,3,-9.539999999999999,0.83,1.96,0.22,0.12,0.23
12.22223889827728,2,3,3,3,-9.56,0.87,1.96,0.22,0.12,0.23
12.23223912715912,2,3,3,3,-9.529999999999999,0.83,1.97,0.06,0.06,0.23
12.24223911762238,2,3,3,3,-9.529999999999999,0.79,1.96,-0.29,0.08,0.16
12.25223910808563,2,3,3,3,-9.49,0.73,1.85,-0.4,0.04,0.16
12.26223909854889,2,3,3,3,-9.470000000000001,0.63,2.01,-0.45,0.06,0.17
12.27223908901215,2,3,3,3,-9.449999999999999,0.62,2.04,-0.45,0.06,0.17
12.2822390794754,2,3,3,3,-9.470000000000001,0.6,2.06,-0.35,0.08,0.16
12.29223906993866,2,3,3,3,-9.52,0.58,2,-0.08,0.08,0.18
12.30223906040192,2,3,3,3,-9.56,0.58,1.89,0.06,0.14,0.24
12.31223905086517,2,3,3,3,-9.56,0.59,1.96,0.1,0.14,0.31
12.32323896884918,2,3,3,3,-9.539999999999999,0.58,2.01,0.1,0.14,0.31
12.33323895931244,2,3,3,3,-9.449999999999999,0.63,2.05,0.05,0.11,0.39
12.3432389497757,2,3,3,3,-9.41,0.68,2.01,-0.06,0.14,0.52
12.35323894023895,2,3,3,3,-9.390000000000001,0.61,1.92,0,0.19,0.57
12.36323893070221,2,3,3,3,-9.390000000000001,0.59,1.91,0.09,0.1,0.6
12.37323892116547,2,3,3,3,-9.529999999999999,0.57,2.15,0.09,0.1,0.6
12.38323891162872,2,3,3,3,-9.57,0.6,2.05,0.22,-0.1,0.5600000000000001
12.39323890209198,2,3,3,3,-9.59,0.6899999999999999,1.99,0.5600000000000001,-0.36,0.57
12.40323913097382,2,3,3,3,-9.630000000000001,0.73,1.89,0.57,-0.42,0.62
12.41323912143707,2,3,3,3,-9.609999999999999,0.8100000000000001,1.86,0.51,-0.49,0.68
12.42323911190033,2,3,3,3,-9.619999999999999,0.82,1.97,0.51,-0.49,0.68
12.43323910236359,2,3,3,3,-9.619999999999999,0.77,2.18,0.33,-0.75,0.76
12.44323909282684,2,3,3,3,-9.550000000000001,0.75,2.25,-0.02,-1.01,0.71
12.4532390832901,2,3,3,3,-9.460000000000001,0.89,1.78,0.01,-1,0.62
12.46323907375336,2,3,3,3,-9.49,0.87,1.93,0.15,-1.2,0.5
12.47323906421661,2,3,3,3,-9.51,0.87,1.91,0.15,-1.2,0.5
12.48323905467987,2,3,3,3,-9.619999999999999,0.8100000000000001,1.82,0.3,-1.2,0.39
12.49323904514313,2,3,3,3,-9.619999999999999,0.74,1.82,0.06,-1.05,0.21
12.50323903560638,2,3,3,3,-9.640000000000001,0.7,1.73,-0.06,-1.02,0.27
12.51323902606964,2,3,3,3,-9.69,0.68,1.84,-0.12,-0.92,0.3
12.5232390165329,2,3,3,3,-9.640000000000001,0.62,1.88,-0.12,-0.92,0.3
12.53323900699615,2,3,3,3,-9.65,0.61,1.81,-0.21,-0.79,0.29
12.54323899745941,2,3,3,3,-9.59,0.52,1.88,-0.43,-0.77,0.32
12.55323898792267,2,3,3,3,-9.529999999999999,0.46,1.92,-0.16,-0.84,0.28
12.56323897838593,2,3,3,3,-9.5,0.42,2.21,0.33,-0.96,0.22
12.57323896884918,2,3,3,3,-9.48,0.36,2.09,0.33,-0.96,0.22
12.58323895931244,2,3,3,3,-9.51,0.31,2.14,0.58,-0.8100000000000001,0.14
12.5932389497757,2,3,3,3,-9.52,0.3,2.07,0.87,-0.53,0.08
12.60323894023895,2,3,3,3,-9.51,0.23,1.68,0.8,-0.38,0.13
12.61323893070221,2,3,3,3,-9.529999999999999,0.15,1.67,0.6899999999999999,-0.32,0.27
12.62323892116547,2,3,3,3,-9.529999999999999,0.13,1.76,0.6899999999999999,-0.32,0.27
12.63323891162872,2,3,3,3,-9.529999999999999,0.16,1.98,0.83,-0.26,0.39
12.64323890209198,2,3,3,3,-9.529999999999999,0.24,1.82,1.55,0.03,0.6
12.65323913097382,2,3,3,3,-9.59,0.27,1.72,1.73,0.1,0.73
12.66323912143707,2,3,3,3,-9.6,0.33,1.75,1.73,0.18,0.85
12.67323911190033,2,3,3,3,-9.6,0.5,1.8,1.73,0.18,0.85
12.68323910236359,2,3,3,3,-9.56,0.53,1.85,1.65,0.18,0.95
12.69323909282684,2,3,3,3,-9.529999999999999,0.57,1.93,1.36,0.12,1.08
12.7032390832901,2,3,3,3,-9.49,0.57,1.84,1.28,0.32,1.13
12.71323907375336,2,3,3,3,-9.43,0.62,1.83,1.17,0.43,1.22
12.72323906421661,2,3,3,3,-9.460000000000001,0.57,1.8,1.17,0.43,1.22
12.73323905467987,2,3,3,3,-9.5,0.52,1.8,0.91,0.43,1.27
12.74323904514313,2,3,3,3,-9.529999999999999,0.48,1.79,0.36,0.26,1.4
12.75323903560638,2,3,3,3,-9.609999999999999,0.5,1.71,0.23,0.13,1.45
12.76323902606964,2,3,3,3,-9.65,0.5600000000000001,1.82,0.16,0.06,1.51
12.7732390165329,2,3,3,3,-9.710000000000001,0.63,1.77,0.16,0.06,1.51
12.78323900699615,2,3,3,3,-9.75,0.6899999999999999,1.65,0.05,-0.05,1.46
12.79323899745941,2,3,3,3,-9.77,0.71,1.57,-0.17,-0.12,1.39
12.80323898792267,2,3,3,3,-9.710000000000001,0.72,1.48,-0.66,-0.27,1.23
12.81323897838593,2,3,3,3,-9.640000000000001,0.73,1.54,-0.84,-0.32,1.07
12.82323896884918,2,3,3,3,-9.6,0.75,1.58,-0.84,-0.32,1.07
12.83323895931244,2,3,3,3,-9.52,0.71,1.58,-0.96,-0.29,0.96
12.8432389497757,2,3,3,3,-9.470000000000001,0.71,1.54,-0.91,-0.29,0.68
12.85323894023895,2,3,3,3,-9.449999999999999,0.7,1.44,-0.85,-0.19,0.55
12.86323893070221,2,3,3,3,-9.5,0.66,1.5,-0.76,-0.11,0.48
12.87323892116547,2,3,3,3,-9.529999999999999,0.63,1.48,-0.76,-0.11,0.48
12.88323891162872,2,3,3,3,-9.58,0.59,1.47,-0.59,-0.02,0.36
12.89323890209198,2,3,3,3,-9.630000000000001,0.51,1.5,-0.41,0.05,0.3
12.90323913097382,2,3,3,3,-9.66,0.44,1.53,-0.11,0.35,0.31
12.91323912143707,2,3,3,3,-9.65,0.46,1.61,0.02,0.43,0.31
12.92323911190033,2,3,3,3,-9.66,0.4,1.62,0.02,0.43,0.31
12.93323910236359,2,3,3,3,-9.66,0.4,1.65,0.04,0.51,0.37
12.94323909282684,2,3,3,3,-9.640000000000001,0.51,1.84,-0.03,0.46,0.38
12.9532390832901,2,3,3,3,-9.59,0.67,1.84,0.11,0.46,0.32
12.96323907375336,2,3,3,3,-9.539999999999999,0.78,1.88,0.24,0.49,0.24
12.97323906421661,2,3,3,3,-9.52,0.79,1.94,0.24,0.49,0.24
12.98323905467987,2,3,3,3,-9.449999999999999,1.05,2.37,0.32,0.44,0.11
12.99323904514313,2,3,3,3,-9.380000000000001,1.16,2.4,0.8100000000000001,0.38,-0.2
13.00323903560638,2,3,3,3,-9.34,1.22,2.24,0.79,0.42,-0.5
13.01323902606964,2,3,3,3,-9.41,1.16,2.29,0.74,0.2,-0.77
13.0232390165329,2,3,3,3,-9.609999999999999,0.9399999999999999,2.51,0.74,0.2,-0.77
13.03323900699615,2,3,3,3,-9.75,0.91,2.76,0.77,-0.06,-1.14
13.04323899745941,2,3,3,3,-9.859999999999999,0.92,3.04,0.99,-1.33,-2.14
13.05323898792267,2,3,3,3,-9.98,0.88,2.98,1.71,-2.1,-2.65
13.06323897838593,2,3,3,3,-9.869999999999999,0.71,2.78,2.51,-2.61,-3.03
13.07323896884918,2,3,3,3,-9.85,0.29,2.74,2.51,-2.61,-3.03
13.08323895931244,2,3,3,3,-9.949999999999999,-0.04,2.97,2.8,-2.99,-3.4
13.0932389497757,2,3,3,3,-10.1,-0.47,3.34,3.13,-4.03,-3.85
13.10323894023895,2,3,3,3,-10.13,-0.38,3.45,3.92,-4.68,-3.87
13.11323893070221,2,3,3,3,-9.92,-0.16,3.44,5.25,-4.82,-3.88
13.12323892116547,2,3,3,3,-9.640000000000001,-0.04,3.05,5.25,-4.82,-3.88
13.13323891162872,2,3,3,3,-9.58,-0.72,4.01,5.98,-4.76,-3.92
13.14323890209198,2,3,3,3,-9.6,-0.83,4.07,6.13,-5.68,-3.85
13.15323913097382,2,3,3,3,-9.48,-0.8100000000000001,3.96,6.58,-6.07,-3.62
13.16323912143707,2,3,3,3,-9.43,-0.66,3.87,6.78,-6.14,-3.13
13.17323911190033,2,3,3,3,-9.58,-0.48,3.77,6.78,-6.14,-3.13
13.18323910236359,2,3,3,3,-9.779999999999999,-0.4,3.84,6.72,-6.14,-2.56
13.19323909282684,2,3,3,3,-9.84,-0.26,3.8,6.81,-5.98,-1.15
13.2032390832901,2,3,3,3,-9.869999999999999,-0.14,3.71,6.77,-5.67,-0.41
13.21323907375336,2,3,3,3,-9.640000000000001,-0.07000000000000001,3.43,6.45,-5.27,0.26
13.22323906421661,2,3,3,3,-9.359999999999999,-0.05,3.48,6.45,-5.27,0.26
13.23323905467987,2,3,3,3,-8.960000000000001,0.04,3.49,6.08,-4.88,0.8100000000000001
13.24323904514313,2,3,3,3,-8.630000000000001,0.15,3.51,5.54,-4.3,1.4
13.25323903560638,2,3,3,3,-8.029999999999999,0.43,3.39,5.26,-4.11,1.38
13.26323902606964,2,3,3,3,-7.78,0.47,3.31,4.84,-3.86,1.25
13.2732390165329,2,3,3,3,-7.69,0.48,3.33,4.84,-3.86,1.25
13.28323900699615,2,3,3,3,-7.63,0.43,3.46,4.35,-3.65,1
13.29323899745941,2,3,3,3,-7.7,0.38,3.52,3.39,-3.36,0.5600000000000001
13.30323898792267,2,3,3,3,-7.86,0.32,3.47,3.2,-3.22,0.39
13.31323897838593,2,3,3,3,-7.93,0.25,3.56,3.06,-2.99,0.33
13.32323896884918,2,3,3,3,-8.09,0.07000000000000001,3.67,3.06,-2.99,0.33
13.33323895931244,2,3,3,3,-8.140000000000001,-0.02,3.77,3.05,-2.77,0.3
13.34423911571503,2,3,3,3,-8.119999999999999,-0.13,3.9,3.28,-2.29,0.37
13.35423910617828,2,3,3,3,-8.130000000000001,-0.19,3.94,3.47,-2.03,0.4
13.36423909664154,2,3,3,3,-8.029999999999999,-0.24,4.14,3.75,-1.72,0.44
13.3742390871048,2,3,3,3,-8.039999999999999,-0.3,4.41,3.75,-1.72,0.44
13.38423907756805,2,3,3,3,-8.050000000000001,-0.37,4.69,4.03,-1.45,0.39
13.39423906803131,2,3,3,3,-8.050000000000001,-0.44,4.72,4.24,-0.88,0.16
13.40423905849457,2,3,3,3,-8.119999999999999,-0.5,4.12,3.75,-0.34,0.23
13.41423904895782,2,3,3,3,-8.16,-0.47,4.03,3.22,0.2,0.36
13.42423903942108,2,3,3,3,-8.19,-0.47,4.14,3.22,0.2,0.36
13.43423902988434,2,3,3,3,-8.27,-0.58,4.31,2.75,0.49,0.55
13.4442390203476,2,3,3,3,-8.26,-0.77,4.17,2.05,0.84,0.58
13.45423901081085,2,3,3,3,-8.17,-0.64,3.87,1.29,1.38,0.53
13.46423900127411,2,3,3,3,-8.06,-0.29,3.84,0.61,2.17,0.52
13.47423899173737,2,3,3,3,-8.16,0.36,4.15,0.11,2.88,0.46
13.48423898220062,2,3,3,3,-8.35,0.5,4.36,-0.29,3.31,0.28
13.49423897266388,2,3,3,3,-8.52,0.65,4.61,-0.52,3.44,-0.13
13.50423896312714,2,3,3,3,-8.84,0.65,4.64,-0.62,3.23,-0.55
13.51423895359039,2,3,3,3,-9.26,0.12,4.57,-1.08,2.7,-1.11
13.52423894405365,2,3,3,3,-9.43,-0.28,4.48,-1.65,2.3,-1.62
13.53423893451691,2,3,3,3,-9.619999999999999,-0.71,4.46,-1.76,1.95,-2.07
13.54423892498016,2,3,3,3,-9.77,-0.89,4.78,-1.38,1.63,-2.49
13.55423891544342,2,3,3,3,-9.970000000000001,-0.43,4.88,-0.75,1.48,-2.84
13.56423890590668,2,3,3,3,-10.52,-0.22,4.58,-0.24,1.51,-2.98
13.57423889636993,2,3,3,3,-11.12,-0.13,4.52,-0.06,1.46,-3
13.58423912525177,2,3,3,3,-11.45,0.03,4.91,-0.11,2.09,-2.59
13.59423911571503,2,3,3,3,-12.11,0.71,5.06,-0.49,3.14,-1.62
13.60423910617828,2,3,3,3,-12.07,0.6899999999999999,4.47,-1.34,3.64,-0.62
13.61423909664154,2,3,3,3,-11.77,0.9399999999999999,3.79,-2.93,4.06,0.19
13.6242390871048,2,3,3,3,-11.29,1.36,4.1,-4.65,4.26,0.8
13.63423907756805,2,3,3,3,-9.859999999999999,2.44,4.56,-6.18,4.03,1
13.64423906803131,2,3,3,3,-9.470000000000001,2.57,3.82,-7.67,3.37,0.55
13.65423905849457,2,3,3,3,-9.050000000000001,2.1,3.22,-8.57,2.44,-0.32
13.66423904895782,2,3,3,3,-8.66,1.68,1.74,-8.5,1.66,-1.06
13.67423903942108,2,3,3,3,-8.85,1.46,1.31,-8.01,1.44,-1.52
13.68423902988434,2,3,3,2,-9.109999999999999,1.32,1.27,-7.34,1.66,-1.81
13.6942390203476,2,3,3,2,-9.34,1.39,1.02,-6.66,2.18,-1.63
13.70423901081085,2,3,3,2,-9.779999999999999,1.27,1.25,-5.56,2.42,-1.08
13.71423900127411,2,3,3,2,-9.77,1.24,1.23,-4.43,2.49,-0.28
13.72423899173737,2,3,3,2,-9.699999999999999,1.27,1.36,-3.43,2.48,0.71
13.73423898220062,2,3,3,2,-9.59,1.44,1.39,-2.88,2.36,1.65
13.74423897266388,2,3,3,2,-9.050000000000001,2.16,1.97,-2.92,2.31,2.34
13.75423896312714,2,3,3,2,-8.9,2.33,2.03,-3.54,2.2,2.7
13.76423895359039,2,3,3,2,-8.880000000000001,2.36,2.28,-4.44,2.14,2.7
13.77423894405365,2,3,3,2,-9.08,2.23,2.28,-5.45,2.25,2.19
13.78423893451691,2,3,3,2,-9.17,1.81,2.36,-6.33,2.53,1.65
13.79423892498016,2,3,3,2,-9.16,1.58,2.49,-7.1,2.78,1.18
13.80423891544342,2,3,3,2,-9.039999999999999,1.42,2.42,-7.79,3,0.96
13.81423890590668,2,3,3,2,-9.16,1.12,2.4,-8.41,3.27,1
13.82423889636993,2,3,3,2,-9.359999999999999,0.45,2.26,-8.640000000000001,3.58,1.06
13.83423912525177,2,3,3,2,-9.42,0.22,2.15,-8.6,3.7,1.36
13.84423911571503,2,3,3,2,-9.369999999999999,0.03,1.96,-8.42,3.71,1.86
13.85423910617828,2,3,3,2,-9.41,-0.08,1.78,-8.029999999999999,3.66,2.29
13.86423909664154,2,3,3,2,-9.109999999999999,-0.09,1.63,-7.34,3.36,2.76
13.8742390871048,2,3,3,2,-8.99,-0.13,1.44,-6.44,3.12,3.21
13.88423907756805,2,3,3,1,-8.68,-0.15,1.41,-5.56,3.03,3.47
13.89423906803131,2,3,3,1,-8.289999999999999,-0.12,1.47,-4.67,2.88,3.53
13.90423905849457,2,3,3,1,-8.32,0.28,1.29,-3.83,2.73,3.31
13.91423904895782,2,3,3,1,-8.1,0.17,1.33,-3.25,2.59,3.09
13.92423903942108,2,3,3,1,-8.130000000000001,0.5,1.25,-2.68,2.32,2.81
13.93423902988434,2,3,3,0,-8.57,0.52,1.26,-2.4,2.06,2.6
13.9442390203476,2,3,3,0,-8.710000000000001,0.59,1.27,-2.43,1.81,2.46
13.95423901081085,2,3,3,0,-8.91,0.63,1.3,-2.67,1.32,2.46
13.96423900127411,2,3,3,0,-8.949999999999999,0.54,1.29,-3.03,0.82,2.6
13.97423899173737,2,3,3,0,-9.119999999999999,0.23,1.29,-3.38,0.19,2.94
13.98423898220062,2,3,3,0,-8.99,0.02,1.36,-3.7,-0.38,3.2
13.99423897266388,2,3,3,0,-8.99,-0.15,1.43,-3.81,-1,3.51
14.00423896312714,2,3,3,0,-8.73,-0.33,1.47,-3.65,-1.59,3.77
14.01423895359039,2,3,3,0,-8.5,-0.54,1.73,-3.24,-2.09,3.98
14.02423894405365,2,3,3,0,-8.699999999999999,-0.6,2.01,-2.52,-2.48,4.08
14.03423893451691,2,3,3,0,-8.67,-0.51,1.88,-1.63,-2.81,4.09
14.04423892498016,2,3,3,0,-8.720000000000001,-0.21,1.72,-0.8,-2.88,4.1
14.05423891544342,2,3,3,0,-8.81,0.35,1.57,0.09,-2.64,4.16
14.06423890590668,2,3,3,0,-9.01,0.61,1.6,0.8100000000000001,-2.44,4.2
14.07423889636993,2,3,3,0,-9.42,0.88,1.37,0.95,-2.51,4.16
14.08423912525177,2,3,3,0,-10.21,1.11,1.51,0.55,-2.76,4
14.09423911571503,2,3,3,0,-10.32,1.27,1.63,-0.02,-3.09,3.71
14.10423910617828,2,3,3,0,-10.28,1.34,1.99,-0.76,-3.1,3.38
14.11423909664154,2,3,3,0,-10.21,1.37,2.14,-1.67,-2.9,2.85
14.1242390871048,2,3,3,0,-10.21,1.21,2.28,-2.83,-2.68,2.28
14.13423907756805,2,3,3,0,-10.31,1.11,2.27,-4.07,-2.33,1.71
14.14423906803131,2,3,3,0,-10.42,0.91,2.25,-5.07,-1.93,1.25
14.15423905849457,2,3,3,0,-10.51,0.51,2.08,-5.63,-1.58,0.82
14.16423904895782,2,3,3,0,-10.66,-0.38,1.95,-5.79,-1.26,0.4
14.17423903942108,2,3,3,0,-10.65,-0.71,2.11,-5.78,-0.9,0.11
14.18423902988434,2,3,3,0,-10.74,-0.93,2.25,-5.84,-0.52,-0.03
14.1942390203476,2,3,3,0,-10.96,-0.84,2.3,-6.17,-0.05,-0.06
14.20423901081085,2,3,3,0,-11.61,-0.3,2.69,-7.09,0.63,0.04
14.21423900127411,2,3,3,0,-11.84,-0.17,3.07,-8.26,1.4,0.21
14.22423899173737,2,3,3,0,-11.96,-0.26,3.03,-8.630000000000001,2.18,0.23
14.23423898220062,2,3,3,0,-11.75,-0.21,3.05,-8.07,3.43,0.05
14.24423897266388,2,3,3,0,-10.95,-0.45,2.99,-6.37,5.17,-0.23
14.25423896312714,2,3,3,0,-10.73,-0.64,3.02,-4.14,7.14,-0.58
14.26423895359039,2,3,3,0,-10.53,-0.43,2.7,-1.62,9.01,-0.9399999999999999
14.27423894405365,2,3,3,0,-9.890000000000001,0.66,1.48,1.25,10.94,-1.27
14.28423893451691,2,3,3,0,-9.640000000000001,1.13,1.42,3.64,12.59,-1.64
14.29423892498016,2,3,3,0,-9.27,1.85,2.1,4.98,13.37,-2.11
14.30423891544342,2,3,3,0,-8.75,2.55,2.51,5.44,13.22,-2.71
14.31423890590668,2,3,3,0,-8.029999999999999,3.16,2.13,5.54,12.46,-3.6
14.32423889636993,2,3,3,0,-8.19,2.99,1.11,5.89,11.56,-4.68
14.33423912525177,2,3,3,0,-8.74,2.52,0.8,6.25,10.53,-5.81
14.34423911571503,2,3,3,0,-9.550000000000001,2.09,1.42,5.98,8.81,-6.89
14.35423910617828,2,3,3,0,-10.22,1.83,2.06,5.75,6.39,-7.73
14.36423909664154,2,3,3,0,-10.61,1.57,2,5.94,4.46,-8.369999999999999
14.37523901462555,2,3,3,0,-11.39,1.15,2.1,5.94,2.72,-8.84
14.38523900508881,2,3,3,0,-12.28,0.82,2.53,5.57,0.77,-9.15
14.39523899555206,2,3,3,0,-14.08,1.1,3.54,5.07,-1.62,-9.09
14.40523898601532,2,3,3,0,-14.16,1.54,2.92,5.43,-4,-8.380000000000001
14.41523897647858,2,3,3,0,-13.94,1.57,2.18,6.8,-4.9,-7.24
14.42523896694183,2,3,3,0,-13.55,1.37,2.11,7.86,-5.2,-5.87
14.43523895740509,2,3,3,0,-11.88,1.06,1.98,8.58,-5.33,-4.37
14.44523894786835,2,3,3,0,-11.29,1.06,2.09,9,-5.5,-3.03
14.4552389383316,2,3,3,0,-10.64,1.11,1.94,9.06,-6.28,-1.98
14.46523892879486,2,3,3,0,-9.07,0.86,1.44,9.039999999999999,-7,-0.99
14.47523891925812,2,3,3,0,-8.59,0.91,1.58,8.76,-7.76,-0.36
14.48523890972137,2,3,3,0,-8.15,0.85,1.76,8.359999999999999,-8.41,-0.14
14.49523890018463,2,3,3,0,-7.68,0.8,1.89,8.01,-8.859999999999999,-0.02
14.50523912906647,2,3,3,0,-7.31,0.79,1.89,7.81,-9.109999999999999,-0.13
14.51523911952972,2,3,3,0,-7.09,0.66,1.95,7.71,-9.27,-0.34
14.52523910999298,2,3,3,0,-6.89,0.58,1.96,7.64,-9.06,-0.75
14.53523910045624,2,3,3,0,-6.78,0.39,2.05,7.59,-8.74,-1.29
14.54523909091949,2,3,3,0,-6.78,0.17,2.42,7.69,-8.69,-1.7
14.55523908138275,2,3,3,0,-6.76,0.01,2.46,8.01,-8.42,-1.99
14.56523907184601,2,3,3,0,-6.86,-0.11,2.47,8.1,-8.06,-2.09
14.57523906230927,2,3,3,0,-6.63,-0.2,2.54,8.15,-7.73,-1.87
14.58523905277252,2,3,3,0,-6.17,-0.36,2.17,8.41,-6.82,-1.45
14.59523904323578,2,3,3,0,-6.03,-0.46,2.29,8.130000000000001,-5.47,-0.93
14.60523903369904,2,3,3,0,-5.92,-0.45,2.51,7.75,-4.26,-0.41
14.63523900508881,2,3,3,0,-5.79,-0.19,2.08,6.62,-2.2,0.36
14.64523899555206,2,3,3,0,-5.93,0.12,1.73,4.81,-0.2,0.41
14.67523896694183,2,3,3,0,-6.1,0.62,3.11,-0.18,2.65,-1.04
14.7052389383316,2,3,3,0,-8.640000000000001,1.37,2.62,0.04,3.45,-3.43
14.71523892879486,2,3,3,0,-10.17,1.07,2.47,0.77,2.65,-3.82
14.72523891925812,2,3,3,0,-11.73,0.57,2.69,1.29,1.32,-4.23
14.73523890972137,2,3,3,0,-13.27,-0.43,3.32,1.96,-0.32,-4.59
14.74523890018463,2,3,3,0,-13.3,-0.73,3.54,2.43,-1.65,-4.7
14.75523912906647,2,3,3,0,-12.84,-1.18,3.93,2.33,-2.49,-4.49
14.76523911952972,2,3,3,0,-12.03,-1.86,4.66,1.85,-2.62,-4.04
14.77523910999298,2,3,3,0,-10.51,-3.11,5.26,1.61,-2.52,-3.53
14.79523909091949,2,3,3,0,-9.94,-3.61,5.53,2.72,-1.94,-2.46
14.80523908138275,2,3,3,0,-9.91,-2.56,5.18,3.85,-1.81,-2.08
14.81523907184601,2,3,3,0,-10.97,-0.06,4.64,6.42,-1.57,-1.72
14.82523906230927,2,3,3,0,-12.42,0.5,5.36,8.52,-1.46,-1.06
14.84523904323578,2,3,3,0,-13.76,3.03,4.9,3.6,-2.29,0.5600000000000001
14.85523903369904,2,3,3,0,-12.96,5.6,2.38,1.18,-1.91,1.33
14.88523900508881,2,3,3,0,-9.74,3.99,1.87,-9.58,-1.12,1.77
14.89523899555206,2,3,3,0,-9.32,3.52,1.53,-10.71,-1.3,0.84
14.90523898601532,2,3,3,0,-9.01,2.57,1.39,-10.81,-1.82,0.06
14.91523897647858,2,3,3,0,-8.51,1.78,1.52,-10.53,-2.38,-0.33
14.92523896694183,2,3,3,0,-7.87,1.14,1.96,-10.09,-2.6,-0.49
14.93523895740509,2,3,3,0,-7.85,1.03,1.89,-9.27,-2.1,-0.39
14.94523894786835,2,3,3,0,-8.050000000000001,0.85,1.61,-8.27,-1,-0.06
14.9552389383316,2,3,3,0,-8.529999999999999,0.74,1.36,-7.21,0.25,0.48
14.96523892879486,2,3,3,0,-9.58,0.95,1.71,-5.97,1.26,1.1
14.97523891925812,2,3,3,0,-10.08,1.2,1.84,-4.8,1.81,1.7
14.98523890972137,2,3,3,0,-10.3,1.71,2.1,-3.96,2.07,2.29
14.99523890018463,2,3,3,0,-10.88,1.68,1.74,-3.43,2.43,2.51
15.00523912906647,2,3,3,0,-10.92,1.74,1.65,-3.19,2.82,2.68
15.01523911952972,2,3,3,0,-10.81,1.84,1.78,-3.24,3.31,2.93
15.02523910999298,2,3,3,0,-10.5,1.97,1.97,-3.73,3.97,3.28
15.03523910045624,2,3,3,0,-10.05,2.14,2.04,-4.8,4.84,3.65
15.04523909091949,2,3,3,0,-9.130000000000001,2.24,2.06,-6.27,5.55,4.02
15.05523908138275,2,3,3,0,-8.68,2.08,1.94,-7.87,6.15,4.41
15.06523907184601,2,3,3,0,-8.390000000000001,1.9,1.83,-9.34,6.45,4.78
15.09523904323578,2,3,3,0,-7.57,0.65,1.39,-12.56,5.56,5.76
15.10523903369904,2,3,3,0,-7.67,0.34,1.09,-12.66,4.86,5.87
15.11523902416229,2,3,3,0,-7.97,-0.09,1.14,-12.24,3.7,5.75
15.12523901462555,2,3,3,0,-8.07,-0.21,1.25,-11.34,2.6,5.54
15.13523900508881,2,3,3,0,-8.140000000000001,-0.24,1.11,-10.14,1.48,5.27
15.14523899555206,2,3,3,0,-8.289999999999999,-0.28,1.3,-8.93,0.61,5.02
15.15523898601532,2,3,3,0,-8.15,-0.36,1.19,-7.45,0.02,4.74
15.16523897647858,2,3,3,0,-8.19,-0.37,1.14,-6.25,-0.16,4.59
15.17523896694183,2,3,3,0,-8.31,-0.39,1.3,-5.47,-0.54,4.62
15.18523895740509,2,3,3,0,-8.279999999999999,-0.46,1.4,-4.85,-0.9399999999999999,4.8
15.19523894786835,2,3,3,0,-8.32,-0.54,1.39,-4.51,-1.33,5.22
15.2052389383316,2,3,3,0,-8.199999999999999,-0.49,1.48,-4.43,-1.78,5.72
15.21523892879486,2,3,3,0,-8.210000000000001,-0.57,1.64,-4.29,-2.19,6.24
15.22523891925812,2,3,3,0,-8.18,-0.78,1.84,-3.93,-2.62,6.66
15.23523890972137,2,3,3,0,-8.279999999999999,-1.03,1.72,-3.17,-2.93,7.03
15.24523890018463,2,3,3,0,-8.359999999999999,-1.08,1.72,-2.04,-3.29,7.24
15.25523912906647,2,3,3,0,-8.5,-1,1.72,-0.87,-3.63,7.44
15.26523911952972,2,3,3,0,-8.73,-0.44,1.73,0.46,-3.77,7.57
15.27523910999298,2,3,3,0,-8.9,0,1.5,1.54,-3.93,7.45
15.28523910045624,2,3,3,0,-9.33,0.49,1.57,2.04,-4.1,7.23
15.29523909091949,2,3,3,0,-9.699999999999999,1.08,1.41,2.12,-4.29,6.78
15.30523908138275,2,3,3,0,-10.21,1.87,1.67,1.75,-4.48,6.13
15.31523907184601,2,3,3,0,-10.11,2.2,2.15,0.86,-4.65,5.36
15.32523906230927,2,3,3,0,-9.98,2.23,2.42,-0.18,-4.42,4.34
15.33523905277252,2,3,3,1,-10.01,1.86,2.65,-1.47,-3.93,3.14
15.34523904323578,2,3,3,1,-10.13,1.38,2.81,-2.53,-3.3,1.87
15.35523903369904,2,3,3,1,-10.21,1.02,2.69,-3,-2.49,0.71
15.36523902416229,2,3,3,1,-10.31,0.51,2.76,-3.16,-1.53,-0.23
15.37523901462555,2,3,3,1,-10.33,-0.05,2.8,-3.04,-0.49,-0.9399999999999999
15.38523900508881,2,3,3,1,-10.64,-1.11,2.95,-2.8,0.61,-1.4
15.39623892307281,2,3,3,1,-10.96,-1.33,2.87,-2.9,1.64,-1.59
15.40623891353607,2,3,3,1,-11.57,-1.36,2.63,-3.47,2.55,-1.7
15.41623890399933,2,3,3,1,-12.2,-1.18,3.2,-4.54,3.3,-1.57
15.42623913288116,2,3,3,1,-13.05,-0.68,3.45,-5.04,4.07,-1.41
15.43623912334442,2,3,3,1,-13.05,-0.7,3.19,-4.74,5.15,-1.22
15.44623911380768,2,3,3,1,-12.61,-0.2,3.44,-4.03,6.75,-0.91
15.45623910427094,2,3,3,1,-12.04,0.3,3.31,-2.6,8.74,-0.52
15.46623909473419,2,3,3,1,-11.31,0.6899999999999999,2.76,-0.83,10.6,-0.25
15.47623908519745,2,3,3,1,-10.5,0.79,2.24,1.16,11.93,-0.18
15.48623907566071,2,3,3,1,-9.789999999999999,1.18,1.37,2.8,13.32,-0.33
15.49623906612396,2,3,3,1,-9.119999999999999,1.71,1.53,3.91,14.38,-0.8
15.50623905658722,2,3,3,1,-8.220000000000001,2.07,2.22,4.53,14.44,-1.75
15.51623904705048,2,3,3,1,-7.42,2.82,2.57,5,14.28,-2.81
15.52623903751373,2,3,3,1,-7.25,3.41,2.06,5.88,13.39,-4.09
15.53623902797699,2,3,3,1,-7.98,3.22,1.46,6.43,12.06,-5.81
15.54623901844025,2,3,3,1,-8.69,3,1.64,5.53,9.880000000000001,-7.65
15.5562390089035,2,3,3,1,-9.19,2.94,1.79,4.69,6.66,-9.1
15.56623899936676,2,3,3,1,-9.81,2.71,1.78,4.7,3.57,-9.960000000000001
15.57623898983002,2,3,3,1,-11.73,1.77,1.54,4.85,1.32,-10.29
15.58623898029327,2,3,3,2,-13.07,1.22,1.92,4.85,-0.6,-10.53
15.59623897075653,2,3,3,2,-14.29,0.84,2.35,4.94,-2.51,-10.42
15.60623896121979,2,3,3,2,-15.18,0.71,2.46,5.64,-3.94,-9.640000000000001
15.61623895168304,2,3,3,2,-14.53,0.64,2.44,7.05,-4.64,-8.26
15.6262389421463,2,3,3,2,-13.58,0.62,2.35,8.77,-4.55,-6.56
15.63623893260956,2,3,3,2,-12.51,0.65,2.16,10.4,-4.05,-4.91
15.64623892307281,2,3,3,2,-11.74,0.59,1.8,11.56,-3.89,-3.56
15.65623891353607,2,3,3,2,-10.38,0.37,1.13,12.43,-4.53,-2.6
15.66623890399933,2,3,3,2,-9.640000000000001,0.45,1.15,13.07,-5.42,-1.95
15.67623913288116,2,3,3,2,-9.09,0.55,1.26,13.35,-6.46,-1.44
15.68623912334442,2,3,3,2,-7.36,1.03,1.5,13.42,-7.47,-0.88
15.69623911380768,2,3,3,2,-6.99,1.35,1.52,13.27,-7.87,-0.42
15.70623910427094,2,3,3,2,-6.54,1.49,1.63,12.59,-7.92,-0.29
15.71623909473419,2,3,3,2,-6.68,1.61,1.75,11.53,-7.94,-0.5
15.72623908519745,2,3,3,2,-6.47,1.53,1.91,10.47,-7.78,-0.93
15.73623907566071,2,3,3,2,-6.42,1.45,2.1,9.4,-7.71,-1.51
15.74623906612396,2,3,3,2,-6.33,1.4,2.11,8.52,-7.63,-1.97
15.75623905658722,2,3,3,2,-6.29,1.27,2.03,7.94,-7.58,-2.29
15.76623904705048,2,3,3,2,-5.82,0.71,2.17,7.35,-7.47,-2.37
15.77623903751373,2,3,3,2,-5.42,0.5600000000000001,2.47,6.88,-7.31,-2.08
15.78623902797699,2,3,3,2,-5.23,0.36,2.34,6.87,-6.67,-1.52
15.79623901844025,2,3,3,2,-5.14,0.22,2.18,6.89,-5.76,-0.9399999999999999
15.8062390089035,2,3,3,2,-5.11,-0.04,2.3,6.7,-4.38,-0.46
15.81623899936676,2,3,3,2,-5.24,-0.08,2.37,6.54,-3.1,-0.04
15.82623898983002,2,3,3,2,-5.35,-0.14,2.28,6.1,-2.11,0.27
15.83623898029327,2,3,3,2,-5.5,-0.12,2.21,5.56,-0.6899999999999999,0.63
15.84623897075653,2,3,3,2,-6.2,0.04,2.34,5.01,0.78,1.01
15.85623896121979,2,3,3,2,-6.78,0.16,2.18,4.29,1.87,1.29
15.86623895168304,2,3,3,2,-7.21,0.42,2.4,2.86,2.53,1.37
15.8762389421463,2,3,3,2,-8.01,1.1,2.6,1.45,3.22,1.36
15.88623893260956,2,3,3,2,-8.51,1.21,2.89,0.16,3.67,1.12
15.89623892307281,2,3,3,2,-8.859999999999999,1.36,3.19,-1.19,4.04,0.45
15.90623891353607,2,3,3,2,-9.32,1.3,3.21,-1.94,4.06,-0.36
15.91623890399933,2,3,3,2,-11.56,1.05,2.83,-1.77,3.32,-1.2
15.92623913288116,2,3,3,2,-12.53,0.57,2.72,-1.1,1.78,-2.16
15.93623912334442,2,3,3,2,-13,0.17,2.9,-0.64,0.33,-2.84
15.94623911380768,2,3,3,2,-13.55,-0.16,2.88,-0.09,-0.8100000000000001,-3.18
15.95623910427094,2,3,3,2,-13.19,-1.57,3.75,0.72,-2.19,-3.5
15.96623909473419,2,3,3,2,-12.2,-2.34,4.6,0.92,-2.94,-3.69
15.97623908519745,2,3,3,2,-11.3,-3.1,5.12,0.72,-2.92,-3.6
15.98623907566071,2,3,3,2,-10.76,-3.47,4.71,0.51,-2.84,-3.48
15.99623906612396,2,3,3,2,-10.09,-4.34,5.16,0.83,-2.62,-3.59
16.00623905658722,2,3,3,2,-10.05,-3.37,5.18,1.71,-2.35,-3.73
16.01623904705048,2,3,3,2,-10.45,-2.19,4.3,3.99,-2.34,-3.71
16.02623903751373,2,3,3,2,-11.43,-1.55,3.66,6.27,-2.02,-3.06
16.03623902797699,2,3,3,2,-13.79,1.15,3.85,6.63,-1.77,-1.41
16.0562390089035,2,3,3,2,-15.52,4.8,2.82,3.82,-2.57,1.9
16.06623899936676,2,3,3,2,-15.06,6.4,2.13,1.22,-2.44,3.44
16.07623898983002,2,3,3,2,-13.55,6.12,2.7,-2.57,-2.35,4.33
16.08623898029327,2,3,3,1,-11.82,6.01,2.76,-7.25,-2.16,4.11
16.09623897075653,2,3,3,1,-10.34,5.28,2.27,-10.95,-2,3.01
16.10623896121979,2,3,3,1,-7.79,2.76,1.37,-13.52,-2.02,1.76
16.11623895168304,2,3,3,1,-6.16,1.81,1.35,-14.9,-1.99,0.66
16.1262389421463,2,3,3,1,-4.81,1.43,1.66,-14.81,-1.26,0.02
16.13623893260956,2,3,3,1,-4.17,1.16,2.14,-13.64,-0.16,-0.12
16.14623892307281,2,3,3,1,-4.58,0.65,1.89,-12.17,0.85,0.1
16.15623891353607,2,3,3,1,-5.99,0.5,1.44,-10.97,1.96,0.26
16.16623890399933,2,3,3,1,-7.7,0.31,1.35,-9.529999999999999,2.63,0.17
16.17623913288116,2,3,3,1,-9.27,0.28,1.39,-7.49,2.72,0.39
16.18623912334442,2,3,3,1,-12,0.28,1.8,-5.04,2.21,1.17
16.19623911380768,2,3,3,1,-12.98,0.43,1.71,-2.81,1.77,2.05
16.20623910427094,2,3,3,1,-13.05,0.71,1.56,-1.29,1.67,2.87
16.21623909473419,2,3,3,1,-12.39,1.16,1.8,-0.6,2.34,3.64
16.22623908519745,2,3,3,1,-10.92,2.02,2.15,-0.74,3.15,4.35
16.23623907566071,2,3,3,1,-10.32,2.32,2.22,-1.75,3.94,4.8
16.24623906612396,2,3,3,1,-9.710000000000001,2.61,2.38,-3.33,4.52,4.88
16.25623905658722,2,3,3,1,-8.390000000000001,2.45,2.09,-5.13,4.85,4.75
16.26623904705048,2,3,3,1,-7.87,2.14,1.94,-7.02,5.14,4.3
16.27623903751373,2,3,3,1,-7.45,1.74,1.8,-8.56,5.29,3.82
16.28623902797699,2,3,3,1,-7.32,1.25,1.68,-9.42,5.03,3.48
16.297238945961,2,3,3,1,-7.43,0.43,1.38,-9.640000000000001,4.42,3.27
16.3062390089035,2,3,3,1,-7.82,0.25,1.27,-9.33,3.79,3.24
16.31623899936676,2,3,3,1,-8.16,0.17,1.33,-8.6,2.81,3.25
16.32723891735077,2,3,3,1,-8.449999999999999,0.04,1.03,-7.39,1.73,3.29
16.33623898029327,2,3,3,1,-8.619999999999999,-0.01,1.31,-6.29,0.76,3.51
16.34623897075653,2,3,3,1,-8.800000000000001,0.01,1.27,-5.3,-0.07000000000000001,3.67
16.35723912715912,2,3,3,1,-8.58,0.06,1.33,-4.53,-0.58,3.79
16.36623895168304,2,3,3,1,-8.66,0.19,1.37,-3.86,-0.97,3.9
16.3762389421463,2,3,3,1,-8.279999999999999,0.3,1.42,-3.55,-1.51,4
16.38723909854889,2,3,3,1,-8.27,0.28,1.53,-3.49,-1.83,4.24
16.41623890399933,2,3,3,1,-7.9,-0.23,1.64,-3.95,-2.84,5.39
16.42723906040192,2,3,3,1,-7.88,-0.51,1.94,-3.69,-3.28,5.72
16.43723905086517,2,3,3,1,-7.81,-0.66,1.98,-2.95,-3.68,5.93
16.44723904132843,2,3,3,1,-7.85,-0.74,1.88,-1.74,-3.79,6.13
16.45723903179169,2,3,3,1,-7.86,-0.87,1.8,-0.27,-3.9,6.26
16.46723902225494,2,3,3,1,-7.96,-0.78,1.77,1.34,-3.89,6.29
16.4772390127182,2,3,3,1,-8.18,-0.44,1.72,2.81,-3.84,6.19
16.48723900318146,2,3,3,1,-9.06,0.53,1.62,3.97,-3.86,6.01
16.49723899364471,2,3,3,1,-9.609999999999999,1.13,1.53,4.73,-4.08,5.66
16.50723898410797,2,3,3,1,-10.06,1.72,1.49,4.86,-4.45,4.96
16.51723897457123,2,3,3,1,-10.36,2.32,1.76,4.31,-4.65,4.03
16.52723896503448,2,3,3,1,-10.35,2.85,2.19,3.09,-4.53,2.97
16.53723895549774,2,3,3,1,-10.24,2.65,2.34,1.38,-4,1.76
16.547238945961,2,3,3,1,-10.13,2.46,2.74,-0.68,-3.34,0.59
16.55723893642426,2,3,3,1,-9.99,2.25,3.06,-2.6,-2.55,-0.29
16.56723892688751,2,3,3,1,-10.25,0.95,3.39,-4.12,-1.62,-0.8100000000000001
16.57723891735077,2,3,3,1,-10.71,-0.06,3.33,-5.13,-0.87,-1.3
16.58723890781403,2,3,3,1,-11.11,-1.01,3.19,-5.61,-0.37,-1.62
16.59723889827728,2,3,3,1,-11.43,-1.72,3.24,-6.06,0.39,-1.66
16.60723912715912,2,3,3,1,-11.86,-2.21,3.08,-6.59,1.42,-1.37
16.61723911762238,2,3,3,1,-12.11,-2.06,3.73,-7.42,2.47,-0.82
16.62723910808563,2,3,3,1,-12.28,-1.71,3.92,-7.42,3.53,-0.2
16.63723909854889,2,3,3,1,-12.18,-1.11,3.77,-6.56,4.91,0.32
16.64723908901215,2,3,3,1,-11.14,0.2,3.09,-5.17,6.92,0.87
16.6572390794754,2,3,3,1,-10.82,0.22,2.45,-3.54,9.09,1.12
16.66723906993866,2,3,3,1,-10.61,0.41,2.41,-2.09,10.9,0.82
16.67723906040192,2,3,3,1,-9.44,1.4,2.04,-0.01,12.44,0.05
16.68723905086517,2,3,3,1,-9.130000000000001,1.81,1.59,2.42,13.65,-0.92
16.69723904132843,2,3,3,1,-9.01,1.91,1.5,4.44,14.18,-2.18
16.70723903179169,2,3,3,1,-8.449999999999999,2.11,1.67,6.51,14.11,-3.66
16.71723902225494,2,3,3,1,-8.949999999999999,3.14,1.4,7.94,12.96,-5.42
16.7272390127182,2,3,3,1,-9.6,3.34,1.09,8.779999999999999,11.11,-7.29
16.73723900318146,2,3,3,1,-10.16,3.15,0.85,8.699999999999999,8.529999999999999,-9.17
16.74723899364471,2,3,3,1,-10.8,3.05,1.05,7.56,5.88,-10.42
16.75723898410797,2,3,3,1,-11.75,2.99,1.55,6.31,3.17,-10.95
16.76723897457123,2,3,3,1,-12.3,2.68,1.76,5.24,0.86,-10.97
16.77723896503448,2,3,3,1,-12.9,2.12,2.03,4.77,-1.14,-10.55
16.78723895549774,2,3,3,1,-13.46,1.71,2.57,4.45,-2.73,-9.83
16.797238945961,2,3,3,1,-13.27,1.63,2.97,4.11,-3.67,-8.81
16.80723893642426,2,3,3,1,-12.68,1.66,2.99,4.32,-3.9,-7.4
16.81723892688751,2,3,3,1,-11.99,1.54,2.97,5.06,-3.73,-6.04
16.82723891735077,2,3,3,1,-11.13,1.29,2.84,6.1,-3.25,-4.85
16.83723890781403,2,3,3,1,-10.07,0.6,2.02,7.21,-2.59,-3.89
16.84723889827728,2,3,3,1,-9.640000000000001,0.24,1.72,8.16,-2.4,-3.08
16.85723912715912,2,3,3,1,-9.17,0.01,1.43,8.83,-2.89,-2.46
16.86723911762238,2,3,3,1,-8.51,-0.08,1.33,9.609999999999999,-4.03,-2.08
16.87723910808563,2,3,3,1,-8.48,0.04,1.36,10.44,-5.22,-1.89
16.88723909854889,2,3,3,1,-8.02,0.34,1.42,11.28,-6.4,-1.78
16.89723908901215,2,3,3,1,-7.45,0.65,1.68,11.89,-7.02,-1.62
16.9072390794754,2,3,3,1,-6.97,1.07,1.84,12.14,-7.28,-1.54
16.91723906993866,2,3,3,1,-6.57,1.18,2,12,-7.33,-1.74
16.92723906040192,2,3,3,1,-6.3,1.24,2.2,11.44,-7.2,-2.12
16.93723905086517,2,3,3,1,-6.14,1.36,2.44,10.62,-6.92,-2.53
16.94723904132843,2,3,3,1,-6,1.66,2.85,9.85,-6.72,-2.91
16.95723903179169,2,3,3,1,-6.02,1.51,2.94,9.039999999999999,-6.49,-3.13
16.96723902225494,2,3,3,1,-5.97,1.21,2.95,8.039999999999999,-6.15,-3.12
16.9772390127182,2,3,3,1,-5.92,1.03,3,7.19,-5.8,-2.86
16.98723900318146,2,3,3,2,-5.87,0.49,2.57,6.35,-4.76,-2.26
16.99723899364471,2,3,3,2,-6,0.12,2.69,5.51,-3.54,-1.37
17.00723898410797,2,3,3,2,-6.15,-0.11,2.57,5.1,-2.52,-0.44
17.01723897457123,2,3,3,2,-6.43,-0.31,2.46,4.93,-1.72,0.18
17.02723896503448,2,3,3,2,-6.79,-0.46,2.24,4.72,-0.88,0.58
17.03723895549774,2,3,3,2,-6.88,-0.41,2.18,4.71,-0.16,0.93
17.047238945961,2,3,3,2,-6.96,-0.18,2.29,5.08,0.63,1.45
17.05723893642426,2,3,3,2,-7.24,0.12,2.57,5.48,0.93,1.99
17.06723892688751,2,3,3,2,-8.06,0.34,2.85,4.89,0.79,2.04
17.07723891735077,2,3,3,2,-8.07,0.3,3.27,3.07,1.04,1.45
17.08723890781403,2,3,3,2,-7.92,0.46,3.47,1.53,1.44,0.82
17.09723889827728,2,3,3,2,-8.76,0.74,2.42,1.04,1.58,0.25
17.10723912715912,2,3,3,2,-9.609999999999999,0.47,2.47,1.08,1.51,-0.2
17.11723911762238,2,3,3,2,-11,0.18,2.57,0.8100000000000001,1.24,-0.7
17.12723910808563,2,3,3,2,-11.9,-0.15,2.61,0.92,0.44,-1.25
17.13723909854889,2,3,3,2,-12.73,-0.51,3.05,1.46,-0.19,-1.61
17.14723908901215,2,3,3,2,-12.8,-0.79,3.48,2.54,-0.77,-1.95
17.16723906993866,2,3,3,2,-11.77,-1.87,4.29,3.31,-1.56,-2.16
17.17723906040192,2,3,3,2,-10.41,-3.54,4.36,3.34,-1.56,-2.18
17.18723905086517,2,3,3,2,-9.73,-4.45,4.62,3.4,-1.44,-2.3
17.19723904132843,2,3,3,2,-9.19,-4.77,5.11,4.16,-1.32,-2.6
17.20723903179169,2,3,3,2,-8.82,-4.44,4.88,5.76,-1.25,-3.15
17.21723902225494,2,3,3,2,-8.970000000000001,-3.28,5.06,7.37,-1.07,-3.82
17.2272390127182,2,3,3,2,-9.369999999999999,-2.11,4.92,9.31,-1.06,-4.1
17.23723900318146,2,3,3,2,-9.93,-1.15,4.6,10.53,-0.93,-3.74
17.24723899364471,2,3,3,2,-10.98,-0.12,4.31,10.36,-0.73,-2.71
17.25723898410797,2,3,3,2,-13.29,3.36,3.07,8.81,-1.08,-1.33
17.26723897457123,2,3,3,2,-14.71,5.59,2.53,7.26,-1.91,0.02
17.27723896503448,2,3,3,2,-16.11,7.09,1.43,5.58,-3.23,1.63
17.28723895549774,2,3,3,2,-15.27,7.38,1.38,2.3,-3.93,3.18
17.297238945961,2,3,3,2,-13.48,7.36,1.89,-2.39,-4.09,3.9
17.30723893642426,2,3,3,2,-12.14,7.77,1.94,-6.82,-4.18,3.38
17.31723892688751,2,3,3,2,-10.99,6.84,1.38,-10.3,-4.51,2.31
17.32723891735077,2,3,3,2,-8.24,3.14,0.64,-13.12,-4.6,1.09
17.33723890781403,2,3,3,3,-6.66,1.92,0.75,-14.47,-3.81,0.24
17.34723889827728,2,3,3,3,-5.11,1.25,1.11,-13.86,-2.14,-0.23
17.35723912715912,2,3,3,3,-4.52,0.76,1.5,-12.16,-0.01,-0.5600000000000001
17.36723911762238,2,3,3,3,-5.54,0.38,2.02,-10.15,1.64,-0.87
17.37723910808563,2,3,3,3,-6.65,0.5,2.15,-8.15,2.32,-1.39
17.38723909854889,2,3,3,3,-7.98,0.62,2.12,-6.35,2.2,-1.75
17.39723908901215,2,3,3,3,-9.039999999999999,0.89,1.98,-4.98,2.29,-1.81
17.4072390794754,2,3,3,3,-10.82,1.39,1.44,-4.03,2.59,-1.32
17.41723906993866,2,3,3,3,-11.8,1.54,1.42,-3.68,2.92,-0.25
17.42723906040192,2,3,3,3,-12.48,1.59,1.6,-3.87,3.15,0.97
17.43723905086517,2,3,3,3,-12.45,1.83,1.94,-4.64,3.59,2.28
17.44823896884918,2,3,3,3,-11.41,2.12,2.12,-5.54,3.96,3.45
17.45823895931244,2,3,3,3,-10.53,2.22,2.22,-6.73,4.4,4.49
17.4682389497757,2,3,3,3,-9.73,2.4,2.22,-8.07,4.85,5.13
17.47823894023895,2,3,3,3,-8.140000000000001,2.02,2.14,-9.27,5.2,5.32
17.48823893070221,2,3,3,3,-7.41,1.49,2,-10.23,5.38,5.31
17.49823892116547,2,3,3,3,-7.03,1.19,1.88,-10.74,5.32,5.13
17.50823891162872,2,3,3,3,-6.9,0.9,1.72,-10.79,5.04,4.84
17.51823890209198,2,3,3,3,-7.18,0.3,1.43,-10.37,4.65,4.59
17.52823913097382,2,3,3,3,-7.53,0.24,1.35,-9.640000000000001,4.2,4.32
17.53823912143707,2,3,3,3,-7.93,0.21,1.38,-8.800000000000001,3.6,4.11
17.54823911190033,2,3,3,3,-8.26,0.17,1.34,-7.9,2.88,3.94
17.55823910236359,2,3,3,3,-9.109999999999999,0.19,1.37,-7,2.01,3.85
17.56823909282684,2,3,3,3,-9.539999999999999,0.12,1.44,-6.24,1.29,3.75
17.5782390832901,2,3,3,3,-9.800000000000001,0.15,1.43,-5.66,0.55,3.62
17.58823907375336,2,3,3,3,-9.880000000000001,0.07000000000000001,1.4,-5.31,-0.08,3.57
17.59823906421661,2,3,3,3,-9.75,-0.02,1.5,-5.01,-0.67,3.6
17.60823905467987,2,3,3,3,-9.460000000000001,-0.23,1.41,-4.83,-1.12,3.76
17.61823904514313,2,3,3,3,-9.199999999999999,-0.39,1.5,-4.68,-1.41,3.98
17.62823903560638,2,3,3,3,-8.960000000000001,-0.62,1.6,-4.37,-1.63,4.19
17.6482390165329,2,3,3,3,-8.449999999999999,-1.12,1.9,-3,-2.39,4.75
17.65823900699615,2,3,3,3,-8.289999999999999,-1.27,1.78,-1.84,-2.76,4.99
17.66823899745941,2,3,3,3,-8.140000000000001,-1.13,1.9,-0.45,-2.95,5.27
17.67823898792267,2,3,3,3,-8.09,-0.93,1.97,1.07,-3.07,5.52
17.68823897838593,2,3,3,3,-8.109999999999999,-0.61,1.95,2.62,-3.13,5.65
17.69823896884918,2,3,3,3,-8.25,-0.21,1.86,4.03,-3.1,5.62
17.70823895931244,2,3,3,3,-8.93,0.5600000000000001,1.09,4.96,-2.91,5.46
17.7182389497757,2,3,3,3,-9.369999999999999,0.8100000000000001,1.01,5.25,-2.71,5.32
17.72823894023895,2,3,3,3,-9.75,0.98,1.16,4.82,-2.68,5.07
17.73823893070221,2,3,3,3,-9.98,1.11,1.62,3.56,-3.05,4.72
17.74823892116547,2,3,3,3,-9.66,1.85,2.21,2.2,-3.39,4.2
17.75823891162872,2,3,3,3,-9.619999999999999,1.77,2.24,0.6,-3.36,3.54
17.76823890209198,2,3,3,3,-9.640000000000001,1.54,2.47,-1.18,-3.26,2.77
17.77823913097382,2,3,3,3,-9.65,1.15,2.65,-2.76,-3.04,1.9
17.78823912143707,2,3,3,3,-9.73,0.28,2.74,-3.82,-2.57,1.02
17.79823911190033,2,3,3,3,-9.779999999999999,-0.16,2.89,-4.24,-1.93,0.21
17.80823910236359,2,3,3,3,-9.82,-0.44,2.77,-4.2,-1.23,-0.38
17.81823909282684,2,3,3,3,-9.98,-0.66,2.84,-4.2,-0.36,-0.55
17.8282390832901,2,3,3,3,-10.39,-0.24,3.07,-4.52,0.62,-0.27
17.83823907375336,2,3,3,3,-10.73,0.07000000000000001,3.18,-5.43,1.72,0.16
17.84823906421661,2,3,3,3,-11.12,0.19,3.62,-7.08,2.47,0.62
17.85823905467987,2,3,3,3,-11.39,0.47,3.76,-8.5,3.13,0.9
17.86823904514313,2,3,3,3,-11.22,1.07,3.51,-9.19,4.17,0.96
17.87823903560638,2,3,3,3,-10.99,0.96,3.36,-9.029999999999999,5.61,0.8100000000000001
17.88823902606964,2,3,3,3,-10.67,0.8,3.18,-7.74,7.32,0.44
17.8982390165329,2,3,3,3,-10.16,0.48,2.25,-5.35,9.15,-0.25
17.90823900699615,2,3,3,3,-10.01,0.43,2,-2.12,10.83,-1.14
17.91823899745941,2,3,3,3,-10.09,0.35,2.17,1.14,12.1,-2.17
17.92823898792267,2,3,3,3,-10.02,0.72,2.71,3.76,12.56,-3.41
17.93823897838593,2,3,3,3,-10.02,0.72,2.71,5.62,12.23,-4.57
17.94823896884918,2,3,3,3,-9.85,2.95,1.98,6.84,11.29,-5.57
17.95823895931244,2,3,3,3,-9.890000000000001,3.18,1.3,7.12,10.04,-6.43
17.9682389497757,2,3,3,3,-10.13,3.2,1.48,6.2,8.24,-7.05
17.97823894023895,2,3,3,3,-10.6,3.17,2.4,4.28,5.98,-7.51
17.98823893070221,2,3,3,3,-10.8,2.9,2.29,2.46,3.85,-7.77
17.99823892116547,2,3,3,3,-11,2.31,2.07,1.1,2.11,-7.81
18.00823891162872,2,3,3,3,-11.24,1.67,2.31,0.44,0.32,-7.76
18.01823890209198,2,3,3,3,-11.48,1.11,3.15,0.6899999999999999,-1.37,-7.64
18.02823913097382,2,3,3,3,-11.7,1.03,3.32,1.4,-2.6,-7.46
18.03823912143707,2,3,3,3,-11.82,0.91,3.65,2.21,-3.58,-7.21
18.04823911190033,2,3,3,3,-11.57,1.16,3.18,3.65,-4.23,-6.72
18.05823910236359,2,3,3,3,-10.88,1.14,2.11,5.46,-3.8,-5.97
18.06823909282684,2,3,3,3,-10.55,1.12,2.07,6.75,-3.14,-5.01
18.0782390832901,2,3,3,3,-10.12,1.01,1.93,7.64,-2.74,-3.88
18.08823907375336,2,3,3,3,-9.69,1.14,1.88,8.01,-2.89,-2.83
18.09823906421661,2,3,3,3,-9.69,1.14,1.88,8.02,-3.92,-2.01
18.10823905467987,2,3,3,3,-8.460000000000001,1.46,1.5,8.01,-4.73,-1.46
18.11823904514313,2,3,3,3,-8.369999999999999,1.44,1.51,7.76,-5.27,-1.17
18.12823903560638,2,3,3,3,-8.07,1.47,2.08,7.47,-5.67,-1.22
18.13823902606964,2,3,3,3,-8.07,1.47,2.08,7.31,-6.27,-1.4
18.1482390165329,2,3,3,3,-7.79,1.36,2.52,7.24,-6.61,-1.78
18.15823900699615,2,3,3,3,-7.58,1.34,2.4,7.12,-6.59,-2.41
18.16823899745941,2,3,3,3,-7.45,1.41,2.45,6.67,-6.4,-3.02
18.17823898792267,2,3,3,3,-7.2,1.47,2.46,6.1,-5.99,-3.29
18.18823897838593,2,3,3,3,-7.23,1.44,2.42,5.27,-5.14,-3.28
18.19823896884918,2,3,3,3,-7.32,1.38,2.54,4.36,-4.41,-3.05
18.20823895931244,2,3,3,3,-7.24,1,2.95,3.8,-3.82,-2.63
18.2182389497757,2,3,3,3,-7.21,0.73,2.8,3.68,-3.17,-2.04
18.23823893070221,2,3,3,3,-7,0.2,2.52,3.23,-1.31,-0.71
18.24823892116547,2,3,3,3,-7,0.2,2.52,2.78,-0.32,-0.11
18.25823891162872,2,3,3,3,-6.65,-0.46,2.53,2.06,0.6,0.19
18.26823890209198,2,3,3,3,-6.56,-0.49,2.64,1.15,1.26,0.24
18.27823913097382,2,3,3,3,-6.27,-0.32,2.65,0.54,1.82,0.13
18.28823912143707,2,3,3,3,-6.27,-0.32,2.65,0.24,2.51,-0.08
18.29823911190033,2,3,3,3,-6.23,-0.24,2.64,0.44,3.13,-0.35
18.30823910236359,2,3,3,3,-6.78,-0.15,2.11,0.93,3.3,-0.64
18.31823909282684,2,3,3,3,-7.68,-0.24,1.9,0.67,3.42,-0.83
18.3282390832901,2,3,3,3,-8.109999999999999,-0.08,1.7,0.71,3.6,-0.97
18.33823907375336,2,3,3,3,-8.109999999999999,-0.08,1.7,1,3.63,-1.09
18.34823906421661,2,3,3,3,-8.4,0,1.84,1.35,3.74,-1.03
18.35823905467987,2,3,3,3,-9.98,0.36,2.05,1.49,3.72,-1.18
18.36823904514313,2,3,3,3,-10.6,0,1.85,1.54,3.42,-1.5
18.37823903560638,2,3,3,3,-11.13,-0.31,1.87,1.88,3.04,-1.75
18.38823902606964,2,3,3,3,-11.19,-0.71,2.23,2.34,2.54,-1.89
18.3982390165329,2,3,3,3,-11.08,-1.71,3.09,2.34,2.11,-1.9
18.40823900699615,2,3,3,3,-11.02,-2.3,3.39,1.78,1.53,-1.93
18.41823899745941,2,3,3,3,-10.83,-2.83,3.6,1.17,0.86,-1.97
18.42823898792267,2,3,3,3,-10.43,-3.47,3.91,1.15,0.53,-2.17
18.43823897838593,2,3,3,3,-10.43,-3.47,3.91,1.47,0.32,-2.43
18.44823896884918,2,3,3,3,-9.82,-4.06,4.41,1.47,0.32,-2.43
18.45823895931244,2,3,3,3,-9.300000000000001,-4.04,4.1,4.4,0.19,-2.99
18.46923911571503,2,3,3,3,-9.42,-2.97,4.27,6.69,-0.26,-3.34
18.47923910617828,2,3,3,3,-9.65,-2.28,3.84,9.19,-0.8,-3.75
18.48923909664154,2,3,3,3,-9.65,-2.28,3.84,9.19,-0.8,-3.75
18.4992390871048,2,3,3,3,-10.46,-1.23,3.79,11.41,-1.02,-3.53
18.50923907756805,2,3,3,3,-15.24,3.42,2.29,11.66,-2.95,-2.51
18.51923906803131,2,3,3,3,-17.66,4.65,1.09,10.96,-4.06,-1.42
18.52923905849457,2,3,3,3,-19.34,5.13,1.15,9.789999999999999,-5.63,0.38
18.53923904895782,2,3,3,3,-19.34,5.13,1.15,9.789999999999999,-5.63,0.38
18.54923903942108,2,3,3,3,-18.69,5.65,1.42,6.62,-7.33,1.96
18.55923902988434,2,3,3,3,-12.12,5.72,1.54,-0.9399999999999999,-7.71,2.48
18.57923901081085,2,3,3,3,-8.619999999999999,3.41,1.16,-7.58,-6.19,0.72
18.58923900127411,2,3,3,3,-8.619999999999999,3.41,1.16,-7.58,-6.19,0.72
18.59923899173737,2,3,3,3,-5.73,1.68,1.47,-8.93,-5.03,-0.18
18.60923898220062,2,3,3,3,-4.35,1.1,1.57,-7.71,-1.55,-2.14
18.61923897266388,2,3,3,3,-4.56,0.8100000000000001,1.56,-6.25,0.15,-3.22
18.62923896312714,2,3,3,3,-6.2,0.42,1.42,-4.07,1.58,-4.05
18.63923895359039,2,3,3,3,-6.2,0.42,1.42,-1.89,2.55,-4.34
18.64923894405365,2,3,3,3,-7.58,0.51,1.34,-1.89,2.55,-4.34
18.65923893451691,2,3,3,3,-11.05,1.22,1.05,0.6,2.41,-3.7
18.66923892498016,2,3,3,3,-11.88,1.59,1.15,0.53,2.01,-2.75
18.67923891544342,2,3,3,3,-12.3,2.01,1.26,-0.28,1.62,-1.57
18.68923890590668,2,3,3,3,-12.3,2.01,1.26,-0.28,1.62,-1.57
18.69923889636993,2,3,3,3,-12.46,2.39,1.34,-3.22,1.14,0.32
18.70923912525177,2,3,3,3,-10.57,2.39,1.35,-4.9,1.42,0.89
18.71923911571503,2,3,3,3,-9.640000000000001,1.91,1.39,-6.41,1.63,1.57
18.72923910617828,2,3,3,3,-8.85,1.53,1.37,-7.48,1.84,2.39
18.73923909664154,2,3,3,3,-8.85,1.53,1.37,-7.48,1.84,2.39
18.7492390871048,2,3,3,3,-7.87,0.87,1.37,-8.130000000000001,1.91,3.13
18.75923907756805,2,3,3,3,-7.71,0.44,1.32,-7.86,1.36,4
18.76923906803131,2,3,3,3,-7.9,0.3,1.39,-7.11,1.02,4.02
18.77923905849457,2,3,3,3,-8.58,0.23,1.48,-6.07,0.68,3.87
18.78923904895782,2,3,3,3,-8.58,0.23,1.48,-4.97,0.2,3.54
18.79923903942108,2,3,3,3,-8.869999999999999,0.28,1.49,-4.97,0.2,3.54
18.80923902988434,2,3,3,3,-9.65,0.38,1.38,-2.82,-0.53,2.44
18.8192390203476,2,3,3,3,-10.06,0.71,1.87,-2.08,-0.84,1.88
18.82923901081085,2,3,3,3,-10.08,0.78,1.94,-1.59,-1.01,1.39
18.83923900127411,2,3,3,3,-10.08,0.78,1.94,-1.59,-1.01,1.39
18.84923899173737,2,3,3,3,-10.1,0.75,1.93,-1.27,-1.17,1.06
18.85923898220062,2,3,3,3,-9.91,0.62,1.89,-0.82,-1.46,0.5600000000000001
18.86923897266388,2,3,3,3,-9.890000000000001,0.51,1.83,-0.98,-1.68,0.37
18.87923896312714,2,3,3,3,-9.640000000000001,0.34,2.18,-1.48,-1.93,0.31
18.88923895359039,2,3,3,3,-9.640000000000001,0.34,2.18,-1.48,-1.93,0.31
18.89923894405365,2,3,3,3,-9.34,0.27,2.1,-2.05,-2.05,0.39
18.90923893451691,2,3,3,3,-9.27,0.23,1.93,-3.58,-2.4,0.45
18.91923892498016,2,3,3,3,-9.27,0.23,1.93,-4.32,-2.56,0.41
18.92923891544342,2,3,3,3,-9.32,0.09,1.89,-4.88,-2.65,0.42
18.93923890590668,2,3,3,3,-9.359999999999999,0.04,1.75,-4.88,-2.65,0.42
18.94923889636993,2,3,3,3,-9.32,0.03,1.77,-5.05,-2.72,0.41
18.95923912525177,2,3,3,3,-9.25,0.03,1.74,-4.44,-2.69,0.85
18.96923911571503,2,3,3,3,-9.300000000000001,0.08,1.73,-3.93,-2.86,1.24
18.97923910617828,2,3,3,3,-9.59,0.13,2.16,-3.61,-3.04,1.7
18.98923909664154,2,3,3,3,-9.619999999999999,0.21,2.15,-3.61,-3.04,1.7
18.9992390871048,2,3,3,3,-9.66,0.23,2.07,-3.48,-3,2.07
19.00923907756805,2,3,3,3,-9.720000000000001,0.16,2.1,-3.82,-3.28,2.51
19.01923906803131,2,3,3,3,-9.56,0.34,1.78,-3.87,-3.15,2.6
19.02923905849457,2,3,3,3,-9.51,0.34,1.89,-4.08,-3.12,2.73
19.03923904895782,2,3,3,3,-9.35,0.21,2.02,-4.08,-3.12,2.73
19.04923903942108,2,3,3,3,-9.130000000000001,-0.18,2.32,-4.3,-2.89,2.85
19.05923902988434,2,3,3,3,-9.06,-0.37,2.46,-4.02,-2.46,2.96
19.0692390203476,2,3,3,3,-8.970000000000001,-0.49,2.59,-3.47,-2.19,2.96
19.07923901081085,2,3,3,3,-8.970000000000001,-0.64,2.18,-2.86,-1.76,2.86
19.08923900127411,2,3,3,2,-9.26,-0.76,2.2,-2.86,-1.76,2.86
19.09923899173737,2,3,3,2,-9.210000000000001,-0.48,2.38,-2.53,-1.17,2.73
19.10923898220062,2,3,3,2,-9.24,-0.14,2.6,-2.88,0.51,2.47
