timestamp,magCalib,accCalib,gyrCalib,sysCalib,accX,accY,accZ,gyrX,gyrY,gyrZ
0.022239089012146,2,3,3,3,-9.640000000000001,0.95,-1.62,0.26,-0.37,-0.47
0.03223907947540283,2,3,3,3,-9.630000000000001,0.99,-1.59,0.29,-0.37,-0.52
0.04223906993865967,2,3,3,3,-9.66,1.03,-1.59,0.24,-0.33,-0.57
0.0522390604019165,2,3,3,3,-9.65,1.03,-1.55,0.08,-0.3,-0.54
0.06223905086517334,2,3,3,3,-9.630000000000001,1.01,-1.6,0.05,-0.25,-0.59
0.07223904132843018,2,3,3,3,-9.630000000000001,0.98,-1.69,0.04,-0.27,-0.57
0.08223903179168701,2,3,3,3,-9.619999999999999,0.96,-1.65,-0.04,-0.29,-0.58
0.09223902225494385,2,3,3,3,-9.6,0.95,-1.63,-0.08,-0.29,-0.62
0.1022390127182007,2,3,3,3,-9.630000000000001,0.95,-1.62,-0.15,-0.35,-0.59
0.1122390031814575,2,3,3,3,-9.630000000000001,0.98,-1.55,-0.1,-0.32,-0.61
0.1222389936447144,2,3,3,3,-9.6,1.01,-1.64,-0.08,-0.39,-0.63
0.1322389841079712,2,3,3,3,-9.59,1.03,-1.59,-0.09,-0.43,-0.62
0.142238974571228,2,3,3,3,-9.619999999999999,1.03,-1.59,-0.07000000000000001,-0.46,-0.6
0.1522389650344849,2,3,3,3,-9.619999999999999,1.01,-1.6,-0.08,-0.43,-0.65
0.1622389554977417,2,3,3,3,-9.640000000000001,0.97,-1.62,-0.13,-0.44,-0.68
0.1722389459609985,2,3,3,3,-9.630000000000001,0.99,-1.71,-0.14,-0.39,-0.66
0.1822389364242554,2,3,3,3,-9.6,0.96,-1.64,-0.21,-0.33,-0.64
0.1922389268875122,2,3,3,3,-9.609999999999999,0.92,-1.62,-0.17,-0.3,-0.6
0.202238917350769,2,3,3,3,-9.609999999999999,0.95,-1.59,-0.12,-0.22,-0.6
0.2122389078140259,2,3,3,3,-9.609999999999999,0.95,-1.62,-0.02,-0.2,-0.5600000000000001
0.2222388982772827,2,3,3,3,-9.609999999999999,0.98,-1.65,-0.01,-0.31,-0.54
0.2322391271591187,2,3,3,3,-9.56,0.97,-1.6,-0.1,-0.47,-0.49
0.2422391176223755,2,3,3,3,-9.59,1,-1.56,-0.08,-0.47,-0.53
0.2522391080856323,2,3,3,3,-9.6,0.99,-1.54,-0.02,-0.38,-0.48
0.2622390985488892,2,3,3,3,-9.609999999999999,0.97,-1.53,0,-0.34,-0.5
0.272239089012146,2,3,3,3,-9.609999999999999,0.92,-1.67,0.01,-0.31,-0.5
0.2822390794754028,2,3,3,3,-9.609999999999999,0.88,-1.59,-0.11,-0.28,-0.52
0.2922390699386597,2,3,3,3,-9.640000000000001,0.89,-1.57,-0.1,-0.27,-0.49
0.3022390604019165,2,3,3,3,-9.66,0.9,-1.55,-0.1,-0.32,-0.41
0.3122390508651733,2,3,3,3,-9.630000000000001,0.9,-1.53,-0.15,-0.37,-0.39
0.3222390413284302,2,3,3,3,-9.66,0.91,-1.59,-0.11,-0.37,-0.36
0.332239031791687,2,3,3,3,-9.630000000000001,0.92,-1.53,-0.11,-0.34,-0.39
0.3422390222549438,2,3,3,3,-9.609999999999999,0.93,-1.47,-0.15,-0.27,-0.39
0.3522390127182007,2,3,3,3,-9.630000000000001,0.88,-1.47,-0.16,-0.17,-0.39
0.3622390031814575,2,3,3,3,-9.65,0.86,-1.52,-0.2,-0.12,-0.37
0.3722389936447144,2,3,3,3,-9.65,0.86,-1.58,-0.21,-0.1,-0.36
0.3822389841079712,2,3,3,3,-9.68,0.87,-1.57,-0.15,-0.05,-0.37
0.392238974571228,2,3,3,3,-9.609999999999999,0.84,-1.51,-0.21,-0.07000000000000001,-0.34
0.4022389650344849,2,3,3,3,-9.609999999999999,0.83,-1.46,-0.23,-0.07000000000000001,-0.32
0.4122389554977417,2,3,3,3,-9.640000000000001,0.83,-1.45,-0.23,-0.06,-0.27
0.4222389459609985,2,3,3,3,-9.640000000000001,0.85,-1.53,-0.22,-0.05,-0.25
0.4322389364242554,2,3,3,3,-9.67,0.79,-1.47,-0.22,-0.05,-0.17
0.4422389268875122,2,3,3,3,-9.68,0.8,-1.46,-0.17,-0.02,-0.17
0.452238917350769,2,3,3,3,-9.68,0.8,-1.43,-0.1,0.02,-0.16
0.4622389078140259,2,3,3,3,-9.65,0.78,-1.41,-0.08,0.08,-0.15
0.4732390642166138,2,3,3,3,-9.65,0.78,-1.53,-0.07000000000000001,0.13,-0.15
0.4822391271591187,2,3,3,3,-9.66,0.78,-1.49,0,0.2,-0.14
0.5032390356063843,2,3,3,3,-9.68,0.78,-1.49,-0.05,0.13,-0.07000000000000001
0.5122390985488892,2,3,3,3,-9.69,0.84,-1.48,-0.02,0.17,-0.09
0.522239089012146,2,3,3,3,-9.65,0.84,-1.54,0,0.12,-0.04
0.5332390069961548,2,3,3,3,-9.619999999999999,0.87,-1.49,0,0.13,-0.02
0.5422390699386597,2,3,3,3,-9.619999999999999,0.82,-1.43,-0.07000000000000001,0.14,-0.01
0.5522390604019165,2,3,3,3,-9.65,0.8,-1.42,-0.1,0.14,-0.05
0.5632389783859253,2,3,3,3,-9.69,0.8100000000000001,-1.41,0,0.19,-0.05
0.5722390413284302,2,3,3,3,-9.710000000000001,0.78,-1.55,0,0.2,-0.05
0.582239031791687,2,3,3,3,-9.630000000000001,0.85,-1.49,0.01,0.09,-0.05
0.5932389497756958,2,3,3,3,-9.630000000000001,0.86,-1.46,0.04,0.11,-0.06
0.6032389402389526,2,3,3,3,-9.619999999999999,0.93,-1.44,-0.01,0.11,-0.05
0.6132389307022095,2,3,3,3,-9.630000000000001,0.9,-1.43,0.01,0.08,-0.03
0.6232389211654663,2,3,3,3,-9.640000000000001,0.88,-1.57,-0.02,0.07000000000000001,-0.07000000000000001
0.6332389116287231,2,3,3,3,-9.68,0.95,-1.51,-0.07000000000000001,0.06,-0.09
0.64323890209198,2,3,3,3,-9.66,0.95,-1.5,-0.1,0,-0.12
0.6532391309738159,2,3,3,3,-9.630000000000001,0.95,-1.48,-0.12,-0.04,-0.11
0.6632391214370728,2,3,3,3,-9.58,0.98,-1.51,-0.1,-0.09,-0.06
0.6732391119003296,2,3,3,3,-9.59,0.95,-1.58,-0.1,-0.06,-0.08
0.6832391023635864,2,3,3,3,-9.6,0.98,-1.56,-0.15,0.05,-0.08
0.6932390928268433,2,3,3,3,-9.630000000000001,0.97,-1.53,-0.14,0.13,-0.01
0.7032390832901001,2,3,3,3,-9.630000000000001,0.95,-1.5,-0.12,0.14,0.03
0.7132390737533569,2,3,3,3,-9.630000000000001,0.97,-1.53,-0.15,0.07000000000000001,0.01
0.7232390642166138,2,3,3,3,-9.609999999999999,1.02,-1.59,-0.17,0.02,0.03
0.7332390546798706,2,3,3,3,-9.619999999999999,1,-1.6,-0.18,0.06,0.03
0.7432390451431274,2,3,3,3,-9.630000000000001,1,-1.53,-0.22,0.13,0.05
0.7532390356063843,2,3,3,3,-9.609999999999999,0.98,-1.53,-0.27,0.18,0.08
0.7632390260696411,2,3,3,3,-9.619999999999999,0.96,-1.48,-0.27,0.15,0.13
0.7732390165328979,2,3,3,3,-9.6,0.96,-1.56,-0.26,0.18,0.15
0.7832390069961548,2,3,3,3,-9.609999999999999,0.97,-1.56,-0.26,0.19,0.17
0.7932389974594116,2,3,3,3,-9.59,0.92,-1.52,-0.19,0.2,0.2
0.8032389879226685,2,3,3,3,-9.640000000000001,0.9399999999999999,-1.52,-0.15,0.2,0.18
0.8132389783859253,2,3,3,3,-9.630000000000001,0.95,-1.49,-0.12,0.2,0.17
0.8232389688491821,2,3,3,3,-9.630000000000001,0.91,-1.63,-0.15,0.2,0.21
0.833238959312439,2,3,3,3,-9.6,0.89,-1.59,-0.18,0.15,0.23
0.8432389497756958,2,3,3,3,-9.640000000000001,0.9,-1.53,-0.16,0.16,0.24
0.8532389402389526,2,3,3,3,-9.67,0.9,-1.5,-0.2,0.17,0.23
0.8632389307022095,2,3,3,3,-9.67,0.95,-1.46,-0.22,0.1,0.19
0.8732389211654663,2,3,3,3,-9.630000000000001,0.9399999999999999,-1.53,-0.3,0.08,0.18
0.8832389116287231,2,3,3,3,-9.630000000000001,0.95,-1.49,-0.24,0.22,0.18
0.89323890209198,2,3,3,3,-9.65,0.88,-1.49,-0.25,0.34,0.17
0.9032391309738159,2,3,3,3,-9.630000000000001,0.87,-1.46,-0.33,0.4,0.15
0.9132391214370728,2,3,3,3,-9.640000000000001,0.85,-1.47,-0.34,0.33,0.17
0.9232391119003296,2,3,3,3,-9.640000000000001,0.86,-1.6,-0.3,0.32,0.18
0.9332391023635864,2,3,3,3,-9.630000000000001,0.92,-1.51,-0.27,0.21,0.21
0.9432390928268433,2,3,3,3,-9.630000000000001,0.89,-1.45,-0.23,0.21,0.24
0.9532390832901001,2,3,3,3,-9.65,0.9,-1.46,-0.22,0.25,0.23
0.9632390737533569,2,3,3,3,-9.630000000000001,0.91,-1.45,-0.18,0.35,0.22
0.9732390642166138,2,3,3,3,-9.630000000000001,0.9,-1.62,-0.2,0.36,0.22
0.9832390546798706,2,3,3,3,-9.630000000000001,0.93,-1.58,-0.28,0.36,0.21
0.9932390451431274,2,3,3,3,-9.66,0.9,-1.56,-0.32,0.35,0.22
1.003239035606384,2,3,3,3,-9.66,0.92,-1.56,-0.26,0.39,0.29
1.013239026069641,2,3,3,3,-9.65,0.95,-1.63,-0.24,0.45,0.33
1.023239016532898,2,3,3,3,-9.630000000000001,0.96,-1.69,-0.24,0.45,0.34
1.033239006996155,2,3,3,3,-9.59,1,-1.63,-0.2,0.48,0.37
1.043238997459412,2,3,3,3,-9.550000000000001,1.01,-1.62,-0.21,0.5,0.42
1.053238987922668,2,3,3,3,-9.58,1.03,-1.61,-0.22,0.55,0.43
1.063238978385925,2,3,3,3,-9.609999999999999,1,-1.67,-0.18,0.59,0.46
1.073238968849182,2,3,3,3,-9.619999999999999,0.98,-1.75,-0.14,0.64,0.45
1.083238959312439,2,3,3,3,-9.640000000000001,1.02,-1.68,-0.12,0.55,0.41
1.093238949775696,2,3,3,3,-9.56,1.03,-1.61,-0.19,0.52,0.36
1.103238940238953,2,3,3,3,-9.58,0.95,-1.62,-0.32,0.45,0.43
1.113238930702209,2,3,3,3,-9.630000000000001,0.91,-1.62,-0.24,0.53,0.47
1.123238921165466,2,3,3,3,-9.67,0.91,-1.72,-0.2,0.52,0.47
1.133238911628723,2,3,3,3,-9.619999999999999,0.91,-1.68,-0.18,0.42,0.47
1.14323890209198,2,3,3,3,-9.619999999999999,0.95,-1.65,-0.13,0.37,0.52
1.153239130973816,2,3,3,3,-9.619999999999999,0.95,-1.64,-0.07000000000000001,0.41,0.54
1.163239121437073,2,3,3,3,-9.619999999999999,0.9399999999999999,-1.64,-0.01,0.51,0.51
1.193239092826843,2,3,3,3,-9.630000000000001,0.9399999999999999,-1.65,0.08,0.41,0.52
1.2032390832901,2,3,3,3,-9.640000000000001,0.93,-1.64,0.15,0.31,0.53
1.213239073753357,2,3,3,3,-9.6,1.01,-1.68,0.23,0.27,0.5
1.223239064216614,2,3,3,3,-9.58,1.06,-1.74,0.29,0.25,0.49
1.233239054679871,2,3,3,3,-9.630000000000001,1.08,-1.7,0.23,0.19,0.53
1.243239045143127,2,3,3,3,-9.609999999999999,1.09,-1.64,0.2,0.23,0.48
1.253239035606384,2,3,3,3,-9.6,1.11,-1.65,0.26,0.28,0.46
1.263239026069641,2,3,3,3,-9.59,1.1,-1.66,0.18,0.28,0.37
1.273239016532898,2,3,3,3,-9.59,1.11,-1.79,0.06,0.24,0.35
1.283239006996155,2,3,3,3,-9.57,1.14,-1.78,0.05,0.23,0.33
1.293238997459412,2,3,3,3,-9.57,1.14,-1.74,0.05,0.23,0.34
1.303238987922668,2,3,3,3,-9.539999999999999,1.2,-1.74,0.08,0.29,0.32
1.313238978385925,2,3,3,3,-9.52,1.18,-1.73,0.09,0.26,0.33
1.323238968849182,2,3,3,3,-9.56,1.23,-1.81,0.1,0.32,0.35
1.333238959312439,2,3,3,3,-9.539999999999999,1.26,-1.77,0.17,0.28,0.36
1.343238949775696,2,3,3,3,-9.529999999999999,1.25,-1.79,0.21,0.28,0.35
1.353238940238953,2,3,3,3,-9.52,1.26,-1.75,0.23,0.31,0.38
1.363238930702209,2,3,3,3,-9.51,1.29,-1.84,0.29,0.26,0.35
1.373238921165466,2,3,3,3,-9.529999999999999,1.3,-1.88,0.39,0.32,0.41
1.383238911628723,2,3,3,3,-9.529999999999999,1.31,-1.85,0.46,0.28,0.45
1.39323890209198,2,3,3,3,-9.51,1.34,-1.83,0.51,0.26,0.52
1.403239130973816,2,3,3,3,-9.539999999999999,1.32,-1.76,0.55,0.25,0.59
1.413239121437073,2,3,3,3,-9.539999999999999,1.3,-1.78,0.58,0.32,0.63
1.42323911190033,2,3,3,3,-9.550000000000001,1.27,-1.87,0.58,0.47,0.64
1.433239102363586,2,3,3,3,-9.57,1.23,-1.86,0.61,0.46,0.66
1.443239092826843,2,3,3,3,-9.529999999999999,1.19,-1.81,0.6,0.47,0.67
1.4532390832901,2,3,3,3,-9.52,1.22,-1.8,0.59,0.41,0.68
1.463239073753357,2,3,3,3,-9.529999999999999,1.23,-1.76,0.63,0.41,0.73
1.473239064216614,2,3,3,3,-9.529999999999999,1.22,-1.85,0.72,0.4,0.73
1.483239054679871,2,3,3,3,-9.550000000000001,1.28,-1.79,0.74,0.43,0.76
1.493239045143127,2,3,3,3,-9.529999999999999,1.29,-1.78,0.77,0.38,0.75
1.503239035606384,2,3,3,3,-9.58,1.3,-1.78,0.73,0.41,0.73
1.513239026069641,2,3,3,3,-9.619999999999999,1.29,-1.74,0.7,0.42,0.73
1.523239016532898,2,3,3,3,-9.56,1.25,-1.83,0.68,0.41,0.68
1.533239006996155,2,3,3,3,-9.56,1.26,-1.77,0.67,0.4,0.62
1.543238997459412,2,3,3,3,-9.529999999999999,1.25,-1.75,0.65,0.39,0.59
1.553238987922668,2,3,3,3,-9.539999999999999,1.32,-1.76,0.68,0.39,0.54
1.563238978385925,2,3,3,3,-9.52,1.36,-1.81,0.65,0.41,0.52
1.573238968849182,2,3,3,3,-9.539999999999999,1.4,-1.87,0.57,0.43,0.49
1.583238959312439,2,3,3,3,-9.56,1.42,-1.83,0.54,0.48,0.44
1.593238949775696,2,3,3,3,-9.609999999999999,1.45,-1.85,0.54,0.57,0.39
1.603238940238953,2,3,3,3,-9.609999999999999,1.44,-1.82,0.48,0.5600000000000001,0.3
1.614239096641541,2,3,3,3,-9.57,1.46,-1.87,0.29,0.5600000000000001,0.22
1.624239087104797,2,3,3,3,-9.51,1.47,-1.98,0.18,0.58,0.12
1.634239077568054,2,3,3,3,-9.42,1.47,-2,0.06,0.55,0.07000000000000001
1.644239068031311,2,3,3,3,-9.43,1.46,-1.99,-0.06,0.49,0.02
1.654239058494568,2,3,3,3,-9.49,1.45,-1.95,-0.14,0.5,0.02
1.664239048957825,2,3,3,3,-9.51,1.43,-1.96,-0.25,0.53,0
1.674239039421082,2,3,3,3,-9.49,1.37,-2.01,-0.37,0.45,-0.06
1.684239029884338,2,3,3,3,-9.460000000000001,1.32,-1.98,-0.45,0.35,-0.11
1.694239020347595,2,3,3,3,-9.48,1.31,-1.94,-0.53,0.27,-0.16
1.704239010810852,2,3,3,3,-9.48,1.32,-1.95,-0.57,0.22,-0.19
1.714239001274109,2,3,3,3,-9.48,1.31,-1.96,-0.5600000000000001,0.18,-0.2
1.724238991737366,2,3,3,3,-9.49,1.3,-2.03,-0.51,0.2,-0.2
1.734238982200623,2,3,3,3,-9.5,1.28,-2.02,-0.45,0.14,-0.21
1.744238972663879,2,3,3,3,-9.5,1.28,-2,-0.39,0.1,-0.16
1.754238963127136,2,3,3,3,-9.470000000000001,1.24,-1.96,-0.3,0.06,-0.16
1.764238953590393,2,3,3,3,-9.470000000000001,1.25,-1.99,-0.26,0.07000000000000001,-0.14
1.77423894405365,2,3,3,3,-9.5,1.29,-2.08,-0.19,0.07000000000000001,-0.17
1.784238934516907,2,3,3,3,-9.52,1.29,-2.04,-0.14,0.04,-0.17
1.794238924980164,2,3,3,3,-9.49,1.3,-1.98,-0.09,-0.06,-0.13
1.80423891544342,2,3,3,3,-9.460000000000001,1.29,-1.96,0.06,-0.07000000000000001,-0.11
1.814238905906677,2,3,3,3,-9.48,1.28,-1.97,0.13,-0.04,-0.14
1.824238896369934,2,3,3,3,-9.49,1.26,-2.01,0.18,-0.05,-0.12
1.83423912525177,2,3,3,3,-9.48,1.31,-1.94,0.19,-0.07000000000000001,-0.11
1.844239115715027,2,3,3,3,-9.52,1.35,-1.92,0.2,-0.1,-0.1
1.854239106178284,2,3,3,3,-9.460000000000001,1.37,-1.94,0.29,-0.07000000000000001,-0.06
1.864239096641541,2,3,3,3,-9.44,1.39,-1.98,0.32,0,-0.07000000000000001
1.874239087104797,2,3,3,3,-9.52,1.37,-2.1,0.34,0.07000000000000001,-0.02
1.884239077568054,2,3,3,3,-9.539999999999999,1.36,-2.05,0.3,0.13,0.07000000000000001
1.894239068031311,2,3,3,3,-9.49,1.37,-1.97,0.31,0.06,0.11
1.904239058494568,2,3,3,3,-9.470000000000001,1.4,-1.94,0.29,0.04,0.17
1.914239048957825,2,3,3,3,-9.449999999999999,1.4,-1.98,0.24,0.06,0.2
1.924239039421082,2,3,3,3,-9.449999999999999,1.42,-2.04,0.18,0.12,0.24
1.934239029884338,2,3,3,3,-9.460000000000001,1.42,-2.01,0.21,0.11,0.28
1.944239020347595,2,3,3,3,-9.49,1.4,-1.93,0.28,0.12,0.33
1.954239010810852,2,3,3,3,-9.470000000000001,1.34,-1.9,0.39,0.06,0.35
1.964239001274109,2,3,3,3,-9.49,1.36,-1.87,0.42,0.06,0.34
1.974238991737366,2,3,3,3,-9.529999999999999,1.34,-1.91,0.37,0.07000000000000001,0.32
1.984238982200623,2,3,3,3,-9.56,1.36,-1.88,0.39,0.08,0.31
1.994238972663879,2,3,3,3,-9.529999999999999,1.37,-1.85,0.29,0.13,0.29
2.004238963127136,2,3,3,3,-9.529999999999999,1.34,-1.81,0.2,0.16,0.28
2.02423894405365,2,3,3,3,-9.529999999999999,1.31,-1.94,-0.04,0.18,0.24
2.034238934516907,2,3,3,3,-9.57,1.3,-1.88,-0.05,0.13,0.21
2.044238924980164,2,3,3,3,-9.57,1.27,-1.82,-0.15,0.22,0.19
2.05423891544342,2,3,3,3,-9.57,1.27,-1.85,-0.26,0.2,0.17
2.064238905906677,2,3,3,3,-9.58,1.16,-1.89,-0.42,0.23,0.15
2.074238896369934,2,3,3,3,-9.539999999999999,1.09,-1.91,-0.45,0.17,0.1
2.08423912525177,2,3,3,3,-9.5,1.1,-1.89,-0.36,0.09,0.06
2.094239115715027,2,3,3,3,-9.51,1.09,-1.83,-0.3,0.06,0
2.104239106178284,2,3,3,3,-9.58,1.17,-1.85,-0.13,0.09,-0.03
2.114239096641541,2,3,3,3,-9.65,1.18,-1.82,-0.03,0.15,0.05
2.124239087104797,2,3,3,3,-9.630000000000001,1.18,-1.93,0.07000000000000001,0.15,0.09
2.134239077568054,2,3,3,3,-9.609999999999999,1.18,-1.89,0.13,0.15,0.04
2.144239068031311,2,3,3,3,-9.529999999999999,1.2,-1.83,0.15,0.07000000000000001,0.03
2.154239058494568,2,3,3,3,-9.51,1.23,-1.81,0.15,0.07000000000000001,0.08
2.164239048957825,2,3,3,3,-9.57,1.22,-1.83,0.15,0.07000000000000001,0.08
2.174239039421082,2,3,3,3,-9.609999999999999,1.16,-1.92,0.25,0.13,0.04
2.184239029884338,2,3,3,3,-9.609999999999999,1.09,-1.89,0.28,0.04,-0.08
2.194239020347595,2,3,3,3,-9.58,1.08,-1.89,0.28,0.04,-0.08
2.204239010810852,2,3,3,3,-9.59,1.09,-1.88,0.34,-0.02,-0.15
2.214239001274109,2,3,3,3,-9.6,1.16,-1.84,0.14,-0.13,-0.28
2.224238991737366,2,3,3,3,-9.44,1.24,-1.98,0.32,-0.11,-0.2
2.234238982200623,2,3,3,3,-9.449999999999999,1.25,-1.95,0.51,-0.02,-0.14
2.244238972663879,2,3,3,3,-9.529999999999999,1.25,-1.94,0.51,-0.02,-0.14
2.254238963127136,2,3,3,3,-9.550000000000001,1.33,-1.96,0.58,-0.05,-0.12
2.264238953590393,2,3,3,3,-9.529999999999999,1.38,-1.98,0.61,-0.14,-0.19
2.27423894405365,2,3,3,3,-9.460000000000001,1.4,-2.04,0.67,-0.14,-0.18
2.284238934516907,2,3,3,3,-9.41,1.4,-2.09,0.82,-0.16,-0.08
2.294238924980164,2,3,3,3,-9.4,1.4,-2.03,0.82,-0.16,-0.08
2.30423891544342,2,3,3,3,-9.43,1.37,-2.02,0.98,-0.18,0.03
2.314238905906677,2,3,3,3,-9.460000000000001,1.39,-2.03,1.09,-0.18,0.08
2.324238896369934,2,3,3,3,-9.470000000000001,1.39,-2.12,1.29,-0.22,0.13
2.33423912525177,2,3,3,3,-9.470000000000001,1.42,-2.01,1.33,-0.25,0.11
2.344239115715027,2,3,3,3,-9.44,1.44,-1.97,1.33,-0.25,0.11
2.354239106178284,2,3,3,3,-9.4,1.4,-1.97,1.37,-0.33,0.19
2.364239096641541,2,3,3,3,-9.449999999999999,1.37,-1.92,1.51,-0.27,0.25
2.374239087104797,2,3,3,3,-9.529999999999999,1.36,-2.02,1.61,-0.36,0.32
2.384239077568054,2,3,3,3,-9.51,1.35,-1.97,1.61,-0.43,0.28
2.394239068031311,2,3,3,3,-9.529999999999999,1.32,-1.87,1.61,-0.43,0.28
2.404239058494568,2,3,3,3,-9.529999999999999,1.34,-1.83,1.65,-0.38,0.24
2.414239048957825,2,3,3,3,-9.48,1.31,-1.96,1.6,-0.34,0.26
2.425238966941833,2,3,3,3,-9.49,1.33,-2.04,1.57,-0.28,0.25
2.434239029884338,2,3,3,3,-9.49,1.29,-1.96,1.46,-0.27,0.19
2.454239010810852,2,3,3,3,-9.56,1.23,-1.86,1.33,-0.28,0.18
2.464239001274109,2,3,3,3,-9.550000000000001,1.24,-1.87,1.28,-0.33,0.08
2.474238991737366,2,3,3,3,-9.529999999999999,1.22,-1.98,1.24,-0.42,0.06
2.484238982200623,2,3,3,3,-9.529999999999999,1.24,-1.98,1.05,-0.35,-0.04
2.494238972663879,2,3,3,3,-9.51,1.24,-1.91,1.05,-0.35,-0.04
2.504238963127136,2,3,3,3,-9.51,1.24,-1.93,1.07,-0.4,0.02
2.514238953590393,2,3,3,3,-9.539999999999999,1.25,-1.93,1.05,-0.24,0.07000000000000001
2.52423894405365,2,3,3,3,-9.529999999999999,1.28,-1.97,0.92,-0.29,0.03
2.534238934516907,2,3,3,3,-9.460000000000001,1.29,-1.98,0.84,-0.27,0.03
2.544238924980164,2,3,3,3,-9.48,1.36,-1.96,0.84,-0.27,0.03
2.55423891544342,2,3,3,3,-9.470000000000001,1.35,-1.96,0.67,-0.16,0
2.564238905906677,2,3,3,3,-9.49,1.31,-1.96,0.37,-0.08,0.09
2.574238896369934,2,3,3,3,-9.5,1.34,-2.09,0.36,-0.07000000000000001,0.09
2.58423912525177,2,3,3,3,-9.529999999999999,1.31,-1.95,0.18,-0.08,0.09
2.594239115715027,2,3,3,3,-9.52,1.29,-1.89,0.18,-0.08,0.09
2.604239106178284,2,3,3,3,-9.52,1.25,-1.86,-0.07000000000000001,0.07000000000000001,0.08
2.614239096641541,2,3,3,3,-9.539999999999999,1.17,-1.87,-0.06,0.08,0.14
2.624239087104797,2,3,3,3,-9.6,1.09,-1.94,0.06,-0.01,0.09
2.634239077568054,2,3,3,3,-9.65,1.06,-1.88,0.12,-0.08,0.05
2.645238995552063,2,3,3,3,-9.66,0.99,-1.84,0.12,-0.08,0.05
2.65523898601532,2,3,3,3,-9.65,0.98,-1.8,-0.04,-0.14,-0.09
2.665238976478577,2,3,3,3,-9.69,0.97,-1.75,-0.15,-0.26,-0.3
2.675238966941833,2,3,3,3,-9.710000000000001,1.03,-1.76,-0.34,-0.3,-0.55
2.68523895740509,2,3,3,3,-9.869999999999999,0.7,-1.91,-0.09,-0.4,-1.05
2.695238947868347,2,3,3,3,-10.05,1.02,-1.75,-0.09,-0.4,-1.05
2.705238938331604,2,3,3,3,-10,1.13,-1.63,0.25,-0.42,-1.9
2.715238928794861,2,3,3,3,-9.84,1.04,-1.82,-0.08,-1.32,-2.84
2.725238919258118,2,3,3,3,-9.880000000000001,1.03,-1.95,-0.12,-1.64,-3.36
2.735238909721375,2,3,3,3,-9.960000000000001,1.01,-1.92,-0.12,-2.04,-3.96
2.745238900184631,2,3,3,3,-10,0.9399999999999999,-1.88,-0.12,-2.04,-3.96
2.755239129066467,2,3,3,3,-10,0.82,-1.82,0.19,-2.43,-4.57
2.765239119529724,2,3,3,3,-9.960000000000001,0.74,-1.64,0.55,-2.77,-5.5
2.775239109992981,2,3,3,3,-9.880000000000001,0.73,-1.63,-0.07000000000000001,-2.94,-5.73
2.785239100456238,2,3,3,3,-9.83,0.63,-1.65,-0.35,-3.26,-5.92
2.795239090919495,2,3,3,3,-9.81,0.65,-1.58,-0.35,-3.26,-5.92
2.805239081382751,2,3,3,3,-9.93,0.38,-1.57,-0.68,-3.3,-6.22
2.815239071846008,2,3,3,3,-10.08,0.09,-1.73,0,-4.36,-6.46
2.825239062309265,2,3,3,3,-9.92,-0.05,-1.58,0.36,-5.11,-6.36
2.835239052772522,2,3,3,3,-9.68,-0.29,-1.38,0.63,-4.79,-6.22
2.845239043235779,2,3,3,3,-9.6,-0.4,-0.98,0.63,-4.79,-6.22
2.855239033699036,2,3,3,3,-9.609999999999999,-0.52,-1.07,0.58,-4.51,-5.91
2.865239024162292,2,3,3,3,-9.74,-0.54,-1.03,-0.23,-4.59,-5.71
2.875239014625549,2,3,3,3,-10,-0.52,-0.83,-1.4,-5.86,-5.63
2.885239005088806,2,3,3,3,-9.33,0,-1.12,-1.75,-6.99,-4.17
2.895238995552063,2,3,3,3,-8.800000000000001,0.29,-0.6899999999999999,-1.75,-6.99,-4.17
2.90523898601532,2,3,3,3,-8.609999999999999,0.13,-0.66,-1.87,-7.26,-2.13
2.915238976478577,2,3,3,3,-8.76,0.11,-0.8100000000000001,-1.18,-3.12,-0.9
2.925238966941833,2,3,3,3,-9.84,0.47,-0.96,-0.88,-3.09,-0.96
2.93523895740509,2,3,3,3,-9.82,0.62,-0.88,-1.12,-3.11,-0.8100000000000001
2.945238947868347,2,3,3,3,-9.49,0.55,-1.06,-1.12,-3.11,-0.8100000000000001
2.955238938331604,2,3,3,3,-9.369999999999999,0.67,-0.92,-0.7,-2.13,-0.54
2.965238928794861,2,3,3,3,-9.390000000000001,0.65,-1.09,-0.34,-0.84,0.04
2.975238919258118,2,3,3,3,-9.49,0.73,-1.15,-0.57,-0.31,0.16
2.985238909721375,2,3,3,3,-9.58,0.72,-1.1,-0.61,0.08,0.12
2.995238900184631,2,3,3,3,-9.539999999999999,0.63,-1.01,-0.61,0.08,0.12
3.005239129066467,2,3,3,3,-9.66,0.58,-1.26,-0.6,0.59,0.09
3.015239119529724,2,3,3,3,-9.59,0.59,-1.01,-0.53,0.52,0.41
3.025239109992981,2,3,3,3,-9.619999999999999,0.55,-1.17,-0.77,0.78,0.48
3.035239100456238,2,3,3,3,-9.74,0.59,-1.11,-0.96,0.9399999999999999,0.52
3.045239090919495,2,3,3,3,-9.69,0.57,-1.08,-0.96,0.9399999999999999,0.52
3.055239081382751,2,3,3,3,-9.74,0.57,-1.02,-1.04,1.08,0.66
3.065239071846008,2,3,3,3,-9.74,0.53,-1.1,-1.6,1.36,0.7
3.075239062309265,2,3,3,3,-9.73,0.62,-1.26,-1.75,1.31,0.8100000000000001
3.085239052772522,2,3,3,3,-9.67,0.76,-1.19,-1.79,1.45,0.93
3.095239043235779,2,3,3,3,-9.69,0.83,-1.22,-1.79,1.45,0.93
3.105239033699036,2,3,3,3,-9.67,0.82,-1.18,-1.88,1.55,1.04
3.115239024162292,2,3,3,3,-9.699999999999999,0.72,-1.16,-2,1.65,1.33
3.125239014625549,2,3,3,3,-9.68,0.63,-1.19,-2.05,1.78,1.27
3.135239005088806,2,3,3,3,-9.640000000000001,0.59,-1.19,-1.89,1.92,1.26
3.145238995552063,2,3,3,3,-9.619999999999999,0.54,-1.08,-1.89,1.92,1.26
3.15523898601532,2,3,3,3,-9.6,0.44,-1.06,-1.79,1.96,1.32
3.165238976478577,2,3,3,3,-9.619999999999999,0.4,-1.07,-1.5,2.27,1.37
3.175238966941833,2,3,3,3,-9.74,0.42,-1.15,-1.42,2.34,1.32
3.18523895740509,2,3,3,3,-9.890000000000001,0.38,-1.2,-1.25,1.95,1.33
3.195238947868347,2,3,3,3,-9.91,0.37,-1.19,-1.25,1.95,1.33
3.205238938331604,2,3,3,3,-9.81,0.44,-1.08,-1.24,1.63,1.34
3.215238928794861,2,3,3,3,-9.73,0.45,-1.07,-1.29,1.64,1.28
3.225238919258118,2,3,3,3,-9.550000000000001,0.33,-1.32,-1.15,1.75,1.33
3.235238909721375,2,3,3,3,-9.58,0.28,-1.27,-1.04,1.83,1.45
3.245238900184631,2,3,3,3,-9.58,0.28,-1.27,-1.04,1.83,1.45
3.255239129066467,2,3,3,3,-9.67,0.24,-1.2,-1.03,1.95,1.62
3.265239119529724,2,3,3,3,-9.890000000000001,0.24,-1.3,-1.55,1.7,1.67
3.275239109992981,2,3,3,3,-9.869999999999999,0.27,-1.27,-1.77,1.4,1.51
3.285239100456238,2,3,3,3,-9.82,0.15,-1.19,-1.76,1.06,1.44
3.295239090919495,2,3,3,3,-9.82,0.15,-1.19,-1.59,0.76,1.41
3.305239081382751,2,3,3,3,-9.68,0,-1,-1.59,0.76,1.41
3.315239071846008,2,3,3,3,-9.619999999999999,-0.06,-1.11,-1.29,0.55,1.44
3.325239062309265,2,3,3,3,-9.699999999999999,0.01,-1.13,-1.04,0.76,1.47
3.335239052772522,2,3,3,3,-9.93,0.09,-1.14,-0.85,0.89,1.39
3.345239043235779,2,3,3,3,-9.93,0.09,-1.14,-0.85,0.89,1.39
3.355239033699036,2,3,3,3,-10.07,0.16,-1.19,-0.63,0.77,0.87
3.365239024162292,2,3,3,3,-9.890000000000001,0.21,-1.34,-0.44,0.46,0.48
3.375239014625549,2,3,3,3,-9.619999999999999,0.15,-1.31,-0.34,0.45,0.27
3.385239005088806,2,3,3,3,-9.539999999999999,0.17,-1.34,-0.29,0.4,0.29
3.395238995552063,2,3,3,3,-9.539999999999999,0.17,-1.34,-0.29,0.4,0.29
3.40523898601532,2,3,3,3,-9.57,0.3,-1.31,-0.34,0.54,0.47
3.415238976478577,2,3,3,3,-9.83,0.38,-1.37,-0.55,0.67,0.63
3.425238966941833,2,3,3,3,-9.76,0.29,-1.29,-0.4,0.34,0.53
3.43523895740509,2,3,3,3,-9.76,0.27,-1.16,-0.43,0.17,0.55
3.445238947868347,2,3,3,3,-9.76,0.27,-1.16,-0.43,0.17,0.55
3.455238938331604,2,3,3,3,-9.710000000000001,0.23,-1.17,-0.48,-0.05,0.54
3.465238928794861,2,3,3,3,-9.85,0.3,-1.36,-0.47,-0.33,0.07000000000000001
3.475238919258118,2,3,3,3,-9.779999999999999,0.34,-1.32,0.01,-0.39,-0.34
3.485238909721375,2,3,3,3,-9.65,0.27,-1.32,0.25,-0.46,-0.54
3.495238900184631,2,3,3,3,-9.65,0.27,-1.32,0.25,-0.46,-0.54
3.505239129066467,2,3,3,3,-9.5,0.18,-1.26,0.38,-0.43,-0.31
3.515239119529724,2,3,3,3,-9.58,0.22,-1.32,0.49,-0.48,-0.08
3.525239109992981,2,3,3,3,-9.67,0.22,-1.31,0.6,-0.53,0.15
3.535239100456238,2,3,3,3,-10.11,0.36,-1.33,0.54,-0.5600000000000001,0.1
3.545239090919495,2,3,3,3,-10.11,0.36,-1.33,0.54,-0.5600000000000001,0.1
3.555239081382751,2,3,3,3,-10.16,0.55,-1.34,0.16,-0.8,-0.38
3.565239071846008,2,3,3,3,-9.800000000000001,0.49,-1.41,0.48,-1.59,-0.77
3.575239062309265,2,3,3,3,-9.52,0.42,-1.26,0.82,-1.54,-0.55
3.585239052772522,2,3,3,3,-9.41,0.41,-1.28,1.05,-1.37,-0.27
3.595239043235779,2,3,3,3,-9.41,0.41,-1.28,1.26,-1.05,-0.1
3.605239033699036,2,3,3,3,-9.52,0.44,-1.33,1.26,-1.05,-0.1
3.615239024162292,2,3,3,3,-9.640000000000001,0.7,-1.43,0.85,-0.95,-0.32
3.625239014625549,2,3,3,3,-9.66,0.79,-1.3,0.87,-1.08,-0.23
3.635239005088806,2,3,3,3,-9.640000000000001,0.96,-1.23,1,-1.04,-0.1
3.645238995552063,2,3,3,3,-9.640000000000001,0.96,-1.23,1,-1.04,-0.1
3.65523898601532,2,3,3,3,-9.52,1.07,-1.35,0.97,-0.64,0.1
3.666238903999329,2,3,3,3,-9.529999999999999,0.99,-1.45,0.84,-0.44,0.25
3.676239132881165,2,3,3,3,-9.640000000000001,0.98,-1.32,0.72,-0.41,0.35
3.686239123344421,2,3,3,3,-9.630000000000001,0.89,-1.24,0.6,-0.57,0.37
3.696239113807678,2,3,3,3,-9.630000000000001,0.89,-1.24,0.6,-0.57,0.37
3.706239104270935,2,3,3,3,-9.65,0.73,-1.27,0.45,-0.7,0.4
3.716239094734192,2,3,3,3,-9.74,0.72,-1.32,0.15,-0.32,0.39
3.726239085197449,2,3,3,3,-9.81,0.57,-1.39,0.16,-0.49,0.54
3.736239075660706,2,3,3,3,-9.880000000000001,0.6,-1.39,0.33,-0.59,0.7
3.746239066123962,2,3,3,3,-9.880000000000001,0.6,-1.39,0.32,-0.39,0.78
3.756239056587219,2,3,3,3,-9.960000000000001,0.57,-1.44,0.42,-0.3,0.74
3.766239047050476,2,3,3,3,-10.2,1.02,-1.42,0.22,-0.65,0.42
3.776239037513733,2,3,3,3,-10.07,1.18,-1.35,-0.28,-1.05,0.18
3.78623902797699,2,3,3,3,-9.99,1.29,-1.42,-0.21,-1.19,0.05
3.796239018440247,2,3,3,3,-9.99,1.29,-1.42,-0.03,-1.23,-0.03
3.806239008903503,2,3,3,3,-9.49,1.3,-1.44,-0.14,-0.95,0.08
3.81623899936676,2,3,3,3,-9.369999999999999,1.14,-1.62,0.08,-0.64,0.24
3.826238989830017,2,3,3,3,-9.25,1.01,-1.51,0.15,-0.38,0.31
3.836238980293274,2,3,3,3,-9.24,0.95,-1.44,0.04,0.16,0.36
3.846238970756531,2,3,3,3,-9.24,0.95,-1.44,-0.04,0.54,0.38
3.856238961219788,2,3,3,3,-9.49,1.07,-1.64,-0.28,0.5600000000000001,0.4
3.866238951683044,2,3,3,3,-9.619999999999999,1.33,-1.44,-0.51,0.4,0.47
3.876238942146301,2,3,3,3,-9.539999999999999,1.24,-1.4,-0.45,0.2,0.64
3.886238932609558,2,3,3,3,-9.449999999999999,1.06,-1.27,-0.48,0.24,0.67
3.896238923072815,2,3,3,3,-9.460000000000001,1,-1.15,-0.58,0.34,0.65
3.906238913536072,2,3,3,3,-9.460000000000001,1,-1.15,-0.55,0.36,0.72
3.916238903999329,2,3,3,3,-9.42,0.8100000000000001,-1.3,-0.64,0.4,0.72
3.926239132881165,2,3,3,3,-9.49,0.8,-1.31,-0.49,0.47,0.79
3.936239123344421,2,3,3,3,-9.550000000000001,0.86,-1.41,-0.14,0.44,0.84
3.946239113807678,2,3,3,3,-9.619999999999999,0.9,-1.41,0.11,0.46,0.91
3.956239104270935,2,3,3,3,-9.76,1.18,-1.41,0.41,0.58,1.06
3.966239094734192,2,3,3,3,-9.76,1.31,-1.41,0.61,0.7,1.19
3.976239085197449,2,3,3,3,-9.74,1.42,-1.3,0.66,0.89,1.24
3.986239075660706,2,3,3,3,-9.76,1.47,-1.3,0.53,0.97,1.16
3.996239066123962,2,3,3,3,-9.66,1.6,-1.25,0.25,0.83,1
4.006239056587219,2,3,3,3,-9.57,1.49,-1.3,-0.22,0.72,0.86
4.016239047050476,2,3,3,3,-9.49,1.3,-1.38,-0.38,0.67,0.83
4.026239037513733,2,3,3,3,-9.470000000000001,1.08,-1.37,-0.3,0.9,0.87
4.03623902797699,2,3,3,3,-9.59,0.88,-1.3,-0.13,1.2,1
4.046239018440247,2,3,3,3,-9.619999999999999,0.88,-1.33,0.19,1.29,1.06
4.056239008903503,2,3,3,3,-9.68,0.91,-1.31,0.43,1.26,1.03
4.06623899936676,2,3,3,3,-9.710000000000001,0.99,-1.38,0.55,1.23,0.98
4.076238989830017,2,3,3,3,-9.75,1.21,-1.25,0.53,1.1,0.99
4.086238980293274,2,3,3,3,-9.74,1.28,-1.17,0.24,1.06,0.99
4.096238970756531,2,3,3,3,-9.73,1.29,-1.19,-0.02,0.84,0.98
4.106238961219788,2,3,3,3,-9.66,1.17,-1.19,-0.34,0.7,0.92
4.116238951683044,2,3,3,3,-9.630000000000001,0.82,-1.32,-0.57,0.72,0.87
4.126238942146301,2,3,3,3,-9.69,0.67,-1.26,-0.63,0.67,0.8100000000000001
4.136238932609558,2,3,3,3,-9.69,0.55,-1.23,-0.65,0.62,0.68
4.146238923072815,2,3,3,3,-9.720000000000001,0.47,-1.13,-0.46,0.52,0.64
4.156238913536072,2,3,3,3,-9.77,0.6,-1.19,-0.11,0.4,0.62
4.166238903999329,2,3,3,3,-9.75,0.75,-1.29,0.21,0.35,0.6
4.176239132881165,2,3,3,3,-9.77,0.95,-1.29,0.28,0.31,0.48
4.186239123344421,2,3,3,3,-9.779999999999999,1.15,-1.33,0.23,0.3,0.31
4.196239113807678,2,3,3,3,-9.710000000000001,1.3,-1.35,0.07000000000000001,0.19,0.13
4.206239104270935,2,3,3,3,-9.67,1.29,-1.42,-0.07000000000000001,0.16,0.05
4.216239094734192,2,3,3,3,-9.640000000000001,1.26,-1.5,-0.26,0.04,0.07000000000000001
4.226239085197449,2,3,3,3,-9.6,1.22,-1.46,-0.52,0.07000000000000001,0.19
4.236239075660706,2,3,3,3,-9.619999999999999,1.16,-1.41,-0.49,0.19,0.29
4.246239066123962,2,3,3,3,-9.630000000000001,1.09,-1.38,-0.33,0.32,0.3
4.256239056587219,2,3,3,3,-9.630000000000001,1.06,-1.41,-0.23,0.39,0.24
4.266239047050476,2,3,3,3,-9.640000000000001,1.06,-1.48,-0.18,0.38,0.18
4.276239037513733,2,3,3,3,-9.630000000000001,1.09,-1.46,-0.18,0.34,0.13
4.28623902797699,2,3,3,3,-9.58,1.13,-1.46,-0.12,0.26,0.1
4.296239018440247,2,3,3,3,-9.539999999999999,1.13,-1.46,-0.03,0.16,0.07000000000000001
4.306239008903503,2,3,3,3,-9.529999999999999,1.14,-1.45,-0.07000000000000001,0.17,0.14
4.31623899936676,2,3,3,3,-9.529999999999999,1.14,-1.55,-0.18,0.27,0.14
4.326238989830017,2,3,3,3,-9.529999999999999,1.15,-1.56,-0.13,0.28,0.16
4.336238980293274,2,3,3,3,-9.59,1.14,-1.54,-0.11,0.18,0.08
4.346238970756531,2,3,3,3,-9.56,1.15,-1.49,-0.06,0.06,0
4.356238961219788,2,3,3,3,-9.6,1.16,-1.56,-0.02,0.08,-0.04
4.366238951683044,2,3,3,3,-9.59,1.2,-1.64,0.04,0.14,-0.07000000000000001
4.376238942146301,2,3,3,3,-9.59,1.27,-1.56,0.1,0.15,-0.02
4.386238932609558,2,3,3,3,-9.609999999999999,1.27,-1.44,0.07000000000000001,0.1,0.04
4.396238923072815,2,3,3,3,-9.609999999999999,1.27,-1.41,0.05,0.09,0.15
4.406238913536072,2,3,3,3,-9.65,1.18,-1.4,-0.05,0.05,0.12
4.416238903999329,2,3,3,3,-9.69,1.2,-1.51,-0.07000000000000001,-0.04,0.09
4.426239132881165,2,3,3,3,-9.69,1.18,-1.41,-0.1,-0.11,0.01
4.436239123344421,2,3,3,3,-9.619999999999999,1.21,-1.36,-0.16,-0.07000000000000001,-0.02
4.446239113807678,2,3,3,3,-9.56,1.22,-1.4,-0.24,-0.06,-0.07000000000000001
4.456239104270935,2,3,3,3,-9.539999999999999,1.2,-1.4,-0.31,0.07000000000000001,-0.05
4.466239094734192,2,3,3,3,-9.66,1.11,-1.48,-0.35,0.22,-0.03
4.476239085197449,2,3,3,3,-9.69,1.09,-1.48,-0.38,0.28,-0.04
4.486239075660706,2,3,3,3,-9.66,1.06,-1.45,-0.32,0.17,-0.09
4.496239066123962,2,3,3,3,-9.67,1.03,-1.43,-0.31,0.11,-0.13
4.506239056587219,2,3,3,3,-9.69,1.04,-1.48,-0.22,0.09,-0.18
4.516239047050476,2,3,3,3,-9.640000000000001,1.07,-1.51,-0.11,0.04,-0.26
4.526239037513733,2,3,3,3,-9.640000000000001,1.08,-1.45,-0.07000000000000001,0.08,-0.18
4.53623902797699,2,3,3,3,-9.6,1.07,-1.46,-0.13,0.06,-0.13
4.546239018440247,2,3,3,3,-9.59,1.06,-1.42,-0.17,0.07000000000000001,-0.1
4.556239008903503,2,3,3,3,-9.619999999999999,1.04,-1.39,-0.16,0.12,-0.17
4.56623899936676,2,3,3,3,-9.59,0.98,-1.47,-0.19,0.09,-0.16
4.576238989830017,2,3,3,3,-9.58,0.93,-1.43,-0.21,0.1,-0.22
4.586238980293274,2,3,3,3,-9.65,0.98,-1.38,-0.19,0.09,-0.22
4.596238970756531,2,3,3,3,-9.68,1.01,-1.39,-0.26,0.09,-0.23
4.606238961219788,2,3,3,3,-9.67,1.03,-1.44,-0.32,0.14,-0.26
4.616238951683044,2,3,3,3,-9.65,1.11,-1.43,-0.22,0.14,-0.28
4.626238942146301,2,3,3,3,-9.58,1.18,-1.41,-0.27,0.1,-0.24
4.636238932609558,2,3,3,3,-9.550000000000001,1.18,-1.43,-0.3,0.13,-0.23
4.646238923072815,2,3,3,3,-9.58,1.18,-1.46,-0.3,0.19,-0.21
4.656238913536072,2,3,3,3,-9.6,1.09,-1.55,-0.32,0.19,-0.22
4.666238903999329,2,3,3,3,-9.56,1.05,-1.61,-0.29,0.16,-0.18
4.676239132881165,2,3,3,3,-9.6,1.06,-1.6,-0.22,0.18,-0.18
4.687239050865173,2,3,3,3,-9.609999999999999,1.1,-1.58,-0.15,0.29,-0.2
4.69723904132843,2,3,3,3,-9.539999999999999,1.14,-1.51,-0.07000000000000001,0.31,-0.14
4.707239031791687,2,3,3,3,-9.550000000000001,1.06,-1.54,-0.03,0.39,-0.14
4.717239022254944,2,3,3,3,-9.609999999999999,1.07,-1.61,-0.15,0.47,-0.2
4.727239012718201,2,3,3,3,-9.640000000000001,1.12,-1.53,-0.22,0.4,-0.22
4.737239003181458,2,3,3,3,-9.619999999999999,1.06,-1.41,-0.21,0.27,-0.16
4.747238993644714,2,3,3,3,-9.630000000000001,0.98,-1.39,-0.16,0.23,-0.18
4.757238984107971,2,3,3,3,-9.619999999999999,0.95,-1.44,-0.12,0.28,-0.22
4.767238974571228,2,3,3,3,-9.65,0.89,-1.57,-0.06,0.28,-0.23
4.777238965034485,2,3,3,3,-9.720000000000001,0.91,-1.58,-0.05,0.33,-0.26
4.787238955497742,2,3,3,3,-9.699999999999999,0.9399999999999999,-1.53,0.01,0.27,-0.26
4.797238945960999,2,3,3,3,-9.69,0.93,-1.53,0.1,0.27,-0.23
4.807238936424255,2,3,3,3,-9.69,0.92,-1.48,0.14,0.22,-0.24
4.817238926887512,2,3,3,3,-9.74,0.9399999999999999,-1.57,0.01,0.11,-0.25
4.827238917350769,2,3,3,3,-9.84,0.95,-1.56,-0.13,-0.04,-0.34
4.837238907814026,2,3,3,3,-9.82,0.97,-1.5,-0.24,-0.13,-0.44
4.847238898277283,2,3,3,3,-9.83,1.03,-1.49,-0.28,-0.18,-0.51
4.857239127159119,2,3,3,3,-9.75,0.99,-1.56,-0.33,-0.19,-0.58
4.867239117622375,2,3,3,3,-9.640000000000001,1.03,-1.58,-0.47,-0.21,-0.66
4.877239108085632,2,3,3,3,-9.5,1.12,-1.53,-0.6899999999999999,-0.23,-0.7
4.887239098548889,2,3,3,3,-9.369999999999999,1.11,-1.57,-0.63,-0.24,-0.54
4.897239089012146,2,3,3,3,-9.49,1.02,-1.52,-0.51,-0.19,-0.33
4.907239079475403,2,3,3,3,-9.56,1,-1.5,-0.58,-0.17,-0.27
4.91723906993866,2,3,3,3,-9.630000000000001,1.02,-1.53,-0.66,-0.13,-0.26
4.927239060401917,2,3,3,3,-9.720000000000001,0.97,-1.52,-0.59,-0.09,-0.24
4.937239050865173,2,3,3,3,-9.68,0.98,-1.47,-0.42,-0.23,-0.32
4.94723904132843,2,3,3,3,-9.59,1,-1.39,-0.3,-0.23,-0.28
4.957239031791687,2,3,3,3,-9.57,0.92,-1.41,-0.46,-0.03,-0.18
4.967239022254944,2,3,3,3,-9.67,1.03,-1.45,-0.34,0.13,-0.15
4.977239012718201,2,3,3,3,-9.59,1.02,-1.42,-0.34,0.11,-0.23
4.987239003181458,2,3,3,3,-9.58,0.92,-1.45,-0.28,0.12,-0.21
4.997238993644714,2,3,3,3,-9.640000000000001,0.87,-1.43,-0.13,0.15,-0.15
5.007238984107971,2,3,3,3,-9.640000000000001,0.78,-1.45,-0.16,0.08,-0.12
5.017238974571228,2,3,3,3,-9.66,0.78,-1.52,-0.04,0.14,-0.06
5.027238965034485,2,3,3,3,-9.65,0.75,-1.54,0.03,0.16,-0.02
5.037238955497742,2,3,3,3,-9.630000000000001,0.74,-1.47,0.04,0.18,-0.02
5.047238945960999,2,3,3,3,-9.59,0.7,-1.5,0.11,0.19,0
5.057238936424255,2,3,3,3,-9.609999999999999,0.73,-1.51,0.21,0.17,0
5.067238926887512,2,3,3,3,-9.6,0.95,-1.52,0.11,0.08,-0.13
5.077238917350769,2,3,3,3,-9.529999999999999,0.99,-1.5,0.01,0.05,-0.01
5.087238907814026,2,3,3,3,-9.65,0.95,-1.48,0.23,0.19,0.24
5.097238898277283,2,3,3,3,-9.69,0.96,-1.43,0.37,0.33,0.34
5.107239127159119,2,3,3,3,-9.720000000000001,0.99,-1.41,0.29,0.39,0.35
5.117239117622375,2,3,3,3,-9.73,1.03,-1.58,0.32,0.47,0.32
5.127239108085632,2,3,3,3,-9.699999999999999,1.01,-1.41,0.36,0.45,0.31
5.137239098548889,2,3,3,3,-9.710000000000001,1,-1.39,0.26,0.51,0.22
5.147239089012146,2,3,3,3,-9.66,0.95,-1.35,0.07000000000000001,0.51,0.14
5.157239079475403,2,3,3,3,-9.65,0.96,-1.38,0.08,0.47,0.09
5.16723906993866,2,3,3,3,-9.699999999999999,0.84,-1.54,0.22,0.53,0.05
5.177239060401917,2,3,3,3,-9.67,0.86,-1.51,0.35,0.47,-0.03
5.187239050865173,2,3,3,3,-9.58,0.98,-1.41,0.24,0.35,-0.07000000000000001
5.19723904132843,2,3,3,3,-9.49,0.98,-1.46,0.01,0.28,0.05
5.207239031791687,2,3,3,3,-9.539999999999999,1.03,-1.54,0.1,0.38,0.04
5.217239022254944,2,3,3,3,-9.539999999999999,1.05,-1.6,0.09,0.36,0.02
5.227239012718201,2,3,3,3,-9.52,1.04,-1.6,-0.03,0.32,0.02
5.237239003181458,2,3,3,3,-9.69,0.95,-1.61,-0.05,0.34,0.01
5.247238993644714,2,3,3,3,-9.81,1.03,-1.6,-0.18,0.4,-0.21
5.257238984107971,2,3,3,3,-9.75,1.26,-1.53,-0.3,0.2,-0.61
5.267238974571228,2,3,3,3,-9.609999999999999,1.17,-1.69,-0.4,-0.1,-0.71
5.277238965034485,2,3,3,3,-9.470000000000001,0.9,-1.51,-0.2,-0.27,-0.66
5.287238955497742,2,3,3,3,-9.359999999999999,0.77,-1.49,-0.12,-0.4,-0.59
5.297238945960999,2,3,3,3,-9.390000000000001,0.73,-1.47,-0.27,-0.35,-0.51
5.307238936424255,2,3,3,3,-9.58,0.73,-1.54,-0.24,-0.21,-0.41
5.317238926887512,2,3,3,3,-9.960000000000001,0.59,-1.53,-0.25,-0.36,-0.33
5.327238917350769,2,3,3,3,-10.07,0.48,-1.44,-0.14,-0.73,-0.38
5.337238907814026,2,3,3,3,-10.16,0.27,-1.45,0.28,-1.21,-0.71
5.347238898277283,2,3,3,3,-10.2,0.26,-1.22,1,-1.91,-1.39
5.357239127159119,2,3,3,3,-10.33,0.01,-1.58,1.08,-2.76,-2.19
5.367239117622375,2,3,3,3,-10.44,-0.13,-1.73,1.41,-3.88,-3.13
5.377239108085632,2,3,3,3,-10.26,-0.24,-1.47,1.77,-5.34,-3.77
5.387239098548889,2,3,3,3,-9.720000000000001,-0.38,-1.08,1.91,-6.29,-3.67
5.397239089012146,2,3,3,3,-9.050000000000001,-0.36,-1.07,2.11,-6.02,-3.15
5.407239079475403,2,3,3,3,-9.050000000000001,-0.15,-1.01,2.48,-4.94,-2.44
5.41723906993866,2,3,3,3,-9.19,0.2,-1.13,2.5,-3.94,-1.68
5.427239060401917,2,3,3,3,-9.460000000000001,0.59,-1.13,2.59,-2.94,-1.36
5.437239050865173,2,3,3,3,-9.73,1.34,-1.04,2.56,-2.38,-1.39
5.44723904132843,2,3,3,3,-9.550000000000001,1.52,-1.08,2.09,-2.25,-1.42
5.457239031791687,2,3,3,3,-9.289999999999999,1.6,-1.17,1.46,-1.89,-1.28
5.467239022254944,2,3,3,3,-9.16,1.5,-1.23,0.99,-1.44,-0.9399999999999999
5.477239012718201,2,3,3,3,-9.449999999999999,0.95,-1.13,0.73,-1.04,-0.7
5.487239003181458,2,3,3,3,-9.640000000000001,0.71,-0.86,0.35,-1.06,-0.51
5.497238993644714,2,3,3,3,-9.75,0.37,-0.76,0.03,-1.29,-0.42
5.507238984107971,2,3,3,3,-9.869999999999999,0.2,-0.64,-0.37,-1.4,-0.57
5.517238974571228,2,3,3,3,-9.619999999999999,-0.15,-0.34,-0.75,-1.56,-0.62
5.527238965034485,2,3,3,3,-9.57,-0.42,-0.17,-0.84,-1.55,-0.63
5.537238955497742,2,3,3,3,-9.609999999999999,-0.64,-0.1,-1.05,-1.49,-0.71
5.547238945960999,2,3,3,3,-9.699999999999999,-0.85,0,-1.23,-1.64,-0.88
5.557238936424255,2,3,3,3,-9.76,-1.25,0.36,-1.64,-1.96,-1.07
5.567238926887512,2,3,3,3,-9.710000000000001,-1.62,0.42,-1.84,-2.42,-1.16
5.577238917350769,2,3,3,3,-9.66,-1.79,0.54,-2.01,-2.61,-1.19
5.587238907814026,2,3,3,3,-9.66,-2.25,0.8,-1.94,-2.81,-1.24
5.597238898277283,2,3,3,3,-9.640000000000001,-2.46,1.07,-1.6,-3.56,-1.35
5.607239127159119,2,3,3,3,-9.550000000000001,-2.94,1.06,-1.71,-4.44,-1.39
5.617239117622375,2,3,3,3,-9.69,-3.32,1.23,-2.68,-5.4,-1.78
5.627239108085632,2,3,3,3,-9.210000000000001,-2.91,2.25,-5.72,-6.4,-2.29
5.637239098548889,2,3,3,3,-9.220000000000001,-3.11,2.37,-6.85,-6.97,-2.08
5.647239089012146,2,3,3,3,-9.41,-2.47,2.19,-7.08,-6.61,-2.44
5.657239079475403,2,3,3,3,-9.67,-2.14,1.96,-6.55,-6.36,-3.18
5.66723906993866,2,3,3,3,-9.300000000000001,-0.89,0.79,-6.14,-6.25,-4.17
5.677239060401917,2,3,3,3,-8.960000000000001,-0.23,0.01,-6.05,-5.5,-4.86
5.687239050865173,2,3,3,3,-8.92,-0.04,-0.11,-4.01,-4.64,-5.34
5.69723904132843,2,3,3,3,-8.33,0.17,-0.09,-3.72,-4.27,-5.55
5.707239031791687,2,3,3,3,-7.79,-0.57,0.5600000000000001,-3.72,-4.3,-4.13
5.718238949775696,2,3,3,3,-8.460000000000001,-1.28,0.92,-3.78,-3.32,-3.22
5.728238940238953,2,3,3,3,-9.19,-2.09,1.15,-4.43,-3.7,-2.58
5.738238930702209,2,3,3,3,-9.42,-2.5,1.03,-5.43,-5,-1.68
5.748238921165466,2,3,3,3,-9.43,-0.83,0,-5.69,-5.3,-1.19
5.758238911628723,2,3,3,3,-9.51,-0.97,-0.3,-4.57,-5.3,-1.55
5.76823890209198,2,3,3,3,-9.06,-0.5,-0.73,-2.41,-5.2,-3.26
5.778239130973816,2,3,3,3,-8.25,-0.16,-0.33,-0.92,-4.71,-4.95
5.788239121437073,2,3,3,3,-7.32,0.49,-0.72,0.38,-3.47,-6.17
5.79823911190033,2,3,3,3,-6.95,1.16,-0.83,0.37,-3.42,-5.53
5.808239102363586,2,3,3,3,-7.65,0.39,-0.98,0.28,-1.99,-4.74
5.818239092826843,2,3,3,3,-8.779999999999999,-0.64,-1.3,1.03,-1.44,-4.03
5.8282390832901,2,3,3,3,-9.970000000000001,-2.05,-0.9399999999999999,1.41,-2.15,-3.24
5.838239073753357,2,3,3,3,-10.53,-2.62,-0.8100000000000001,2.24,-1.93,-2.76
5.848239064216614,2,3,3,3,-10.87,-1.88,-0.6899999999999999,2.97,-3.04,-2.61
5.858239054679871,2,3,3,3,-10.77,-1.14,-0.96,3.1,-3.94,-3.31
5.868239045143127,2,3,3,3,-10.39,1.5,-0.7,3.69,-3.55,-4.39
5.878239035606384,2,3,3,3,-9.890000000000001,2.98,-0.84,3.77,-2.9,-5.3
5.888239026069641,2,3,3,3,-10.08,3.82,-0.96,3.2,-2.61,-5.42
5.898239016532898,2,3,3,3,-10,3.99,-1.25,2.34,-2.94,-4.48
5.908239006996155,2,3,3,3,-11.1,3.79,-0.86,1.88,-0.86,-3.46
5.918238997459412,2,3,3,3,-12.01,3.65,-0.45,0.97,0.62,-2.49
5.928238987922668,2,3,3,3,-12.77,4.04,-0.42,0.18,0.82,-1.59
5.938238978385925,2,3,3,3,-13.35,5.7,0.16,-0.71,0.44,-1.18
5.948238968849182,2,3,3,3,-13.45,7.01,0.07000000000000001,-2.03,-0.01,-0.83
5.958238959312439,2,3,3,3,-13.76,8.57,-0.09,-3.42,0.16,-0.51
5.968238949775696,2,3,3,3,-14.16,9.81,-0.39,-4.01,0.5600000000000001,-0.24
5.978238940238953,2,3,3,3,-14.91,10.07,-0.95,-4.7,0.66,0.79
5.988238930702209,2,3,3,3,-15.98,9.74,-1.06,-5.79,1.69,2.73
5.998238921165466,2,3,3,3,-17.56,9,-1.4,-6.79,3.33,5.02
6.008238911628723,2,3,3,3,-19.89,7.54,-2.34,-7.69,6.24,7.19
6.01823890209198,2,3,3,3,-26.73,4.31,-4.27,-7.8,10.28,8.16
6.028239130973816,2,3,3,3,-31.08,3.62,-4.1,-5.96,13.41,7.72
6.038239121437073,2,3,3,3,-34.29,3.31,-3.84,-3.63,11.02,6.04
6.04823911190033,2,3,3,3,-33.7,2.91,-3.46,-1.09,0.41,4.88
6.058239102363586,2,3,3,3,-23.73,-0.42,1.01,1.41,-8.83,6.33
6.068239092826843,2,3,3,3,-21.22,-2.15,2.28,3.13,-6.87,7.74
6.0782390832901,2,3,3,3,-20.06,-3.51,3.26,3.24,-3.24,7.67
6.088239073753357,2,3,3,3,-18.32,-4.29,3.67,3.7,-3.18,7.03
6.098239064216614,2,3,3,3,-10.85,-3.23,2.64,4.58,-3.26,6.24
6.108239054679871,2,3,3,3,-6.69,-1.88,1.39,4.64,0.82,5.31
6.118239045143127,2,3,3,3,-3.93,-0.62,0.86,2.16,10.51,3.73
6.128239035606384,2,3,3,3,-2.39,-1.39,0.55,-2.28,19.92,0.99
6.138239026069641,2,3,3,3,-1.22,-12.34,-0.82,-2.91,23.52,-0.66
6.148239016532898,2,3,3,3,-1.14,-14.99,0.15,-0.38,20.64,-0.71
6.158239006996155,2,3,3,3,-1.57,-18.45,-0.07000000000000001,-1.62,13.38,0.9
6.168238997459412,2,3,3,3,-0.97,-18.79,-2.52,4.35,5.45,1.34
6.178238987922668,2,3,3,3,0,-9.08,2.06,9.15,-3.44,1.96
6.188238978385925,2,3,3,3,1.37,-3.94,0.82,10.43,-6.52,0.65
6.198238968849182,2,3,3,3,1.26,2.51,4.86,12.16,-4.76,2.34
6.208238959312439,2,3,3,3,0.43,3.1,0.63,2.44,-2.42,2.69
6.218238949775696,2,3,3,3,-1.82,4.75,1.44,3.29,-0.5,-0.06
6.228238940238953,2,3,3,3,-1.75,4.58,0.18,-0.4,0.58,-3.51
6.238238930702209,2,3,3,3,-1.33,4.34,-0.33,-1.25,1,-4.88
6.248238921165466,2,3,3,3,0.02,2.65,-1.65,-1.83,1.62,-5.47
6.258238911628723,2,3,3,3,0.98,1.4,-2.32,-0.9399999999999999,1.98,-5.07
6.26823890209198,2,3,3,3,1.14,0.95,-2.21,0.83,1.62,-3.76
6.278239130973816,2,3,3,3,0.93,0.35,-2.13,1.53,1.09,-2.52
6.288239121437073,2,3,3,3,-0.19,0.15,-1.3,2.76,0.75,-1.59
6.29823911190033,2,3,3,3,-0.66,-0.09,-1.09,3.32,0.7,-1.47
6.308239102363586,2,3,3,3,-0.64,-0.91,-0.91,4.45,0.89,-1.87
6.318239092826843,2,3,3,3,-0.54,-1.33,-0.16,6.12,0.76,-1.83
6.3282390832901,2,3,3,3,-0.8,-2,1.56,6.16,0.46,-1.76
6.338239073753357,2,3,3,3,-1,-2.53,2.42,5.52,-0.03,-1.79
6.348239064216614,2,3,3,3,-1,-3.1,3.59,5.02,-0.67,-1.72
6.358239054679871,2,3,3,3,-0.76,-3.84,3.98,3.78,-1.46,-1.27
6.368239045143127,2,3,3,3,-0.8,-4.27,4.84,2.94,-2.42,-0.47
6.378239035606384,2,3,3,3,-0.95,-4.24,5.34,0.68,-3.49,-0.16
6.388239026069641,2,3,3,3,-1.25,-4.73,4.55,-2.75,-4.44,-0.18
6.398239016532898,2,3,3,3,-1.53,-5.27,2.82,-5.21,-5.53,-0.55
6.408239006996155,2,3,3,3,-1.31,-4.95,1.97,-6.7,-6.63,-0.32
6.418238997459412,2,3,3,3,-2.58,-8.75,4.28,-10.51,-7.51,0.52
6.428238987922668,2,3,3,3,-5.88,-10.47,8.68,-12.26,-9.17,1.13
6.438238978385925,2,3,3,3,-6.72,-9.449999999999999,3.86,-18.08,-12.11,-0.39
6.448238968849182,2,3,3,3,-12.89,20.33,-3.78,-5.55,-11.54,-0.85
6.458238959312439,2,3,3,3,-23.79,18.46,-0.37,-10.85,-1.14,-0.11
6.468238949775696,2,3,3,3,-36.45,3.1,-6.05,-27.99,16.52,-3.19
6.478238940238953,2,3,3,3,-39.25,-6.72,-11.04,-13.66,12.35,-6.04
6.488238930702209,2,3,3,3,-15.86,-1.63,-1.96,-4.72,-18.9,-5.14
6.498238921165466,2,3,3,3,-10.62,-7.18,5.36,-14.57,-19.19,-2.86
6.508238911628723,2,3,3,3,-16.81,-10.02,4.14,-14.52,3.26,-4.96
6.51823890209198,2,3,3,3,-26.19,-7.71,0.7,-2.96,1.65,-5.21
6.528239130973816,2,3,3,3,-26.34,15.99,-6.58,5.57,0.22,-0.16
6.539239048957825,2,3,3,3,-21.25,23.13,-8.67,5.81,0.72,0.55
6.54823911190033,2,3,3,3,-17.85,24.65,-6.92,3.27,-2.57,1.48
6.558239102363586,2,3,3,3,-15.15,20.16,-6.2,2.4,-4.09,2.44
6.568239092826843,2,3,3,3,-11.71,8.09,-0.83,1.35,-2.91,5.36
6.5782390832901,2,3,3,3,-12.57,4.35,-0.18,-2.74,2.03,4.88
6.588239073753357,2,3,3,3,-13.88,2.47,1,-4.29,2.77,4.32
6.598239064216614,2,3,3,3,-14.81,0.98,0.63,-5.24,0.47,5.43
6.608239054679871,2,3,3,3,-15.33,-0.42,0.45,-5.53,0.5,5.39
6.618239045143127,2,3,3,3,-13.79,-1.14,0.05,-5.46,-0.6,3.96
6.628239035606384,2,3,3,3,-11.36,-1.17,-0.27,-4.79,-0.8,4.12
6.638239026069641,2,3,3,3,-7.61,-1.7,-1.32,-3.48,1.69,4.43
6.648239016532898,2,3,3,3,-6.88,-2.69,-1.39,-2.36,3.65,4.05
6.658239006996155,2,3,3,3,-6.03,-3.12,-0.93,-0.89,3.52,2.45
6.668238997459412,2,3,3,3,-5.34,-2.74,-1.09,0.29,3.4,2.34
6.678238987922668,2,3,3,3,-5.63,-1.38,-0.48,1.5,3.74,3.01
6.688238978385925,2,3,3,3,-6.14,-0.48,-0.37,1.74,5.01,4.3
6.698238968849182,2,3,3,3,-6.73,-0.16,-0.63,1.48,5.83,5.33
6.708238959312439,2,3,3,3,-6.8,0.02,-0.16,1.69,5.85,5.36
6.718238949775696,2,3,3,3,-6.62,-0.6899999999999999,0.06,1.07,6.07,4.81
6.728238940238953,2,3,3,3,-6.82,-1.41,0.14,0.47,6.04,3.85
6.739239096641541,2,3,3,3,-7.09,-2.17,-0.02,0.99,5.5,2.66
6.749239087104797,2,3,3,3,-7.4,-2.66,-0.01,3.04,3.8,1.91
6.759239077568054,2,3,3,3,-7.89,-2.68,0.6,3.99,2.03,1.87
6.769239068031311,2,3,3,3,-8.640000000000001,-2.56,1.47,4.66,0.6899999999999999,2.74
6.779239058494568,2,3,3,3,-9.65,-2.16,2.53,5.11,-1.25,3.56
6.789239048957825,2,3,3,3,-10.82,-1.99,3.17,5.53,-2.9,3.88
6.799239039421082,2,3,3,3,-12.97,-1.9,2.96,4.43,-2.95,3.31
6.809239029884338,2,3,3,3,-13.59,-1.48,2.21,3.17,-1.25,2.73
6.819239020347595,2,3,3,3,-14.16,-0.61,1.55,3.11,1.57,1.74
6.829239010810852,2,3,3,3,-14.05,0.08,1.05,3.56,3.16,0.68
6.839239001274109,2,3,3,3,-10.54,1.6,0.41,3.42,2.89,-0.22
6.849238991737366,2,3,3,3,-9.119999999999999,1.58,0.05,2.22,2.92,-1.04
6.859238982200623,2,3,3,3,-8.460000000000001,1.44,-0.25,1.06,3.8,-0.82
6.869238972663879,2,3,3,3,-8.44,1.01,-0.74,0.11,3.98,0.45
6.879238963127136,2,3,3,3,-9.24,0.97,-0.73,-0.96,3.23,1.71
6.889238953590393,2,3,3,3,-9.48,0.87,-0.7,-1.68,2.36,1.99
6.89923894405365,2,3,3,3,-9.4,0.59,-0.78,-2.56,0.46,2.03
6.909238934516907,2,3,3,3,-9.390000000000001,1.18,-0.4,-3.04,-0.24,1.49
6.919238924980164,2,3,3,3,-9.26,1.37,-0.74,-2.87,0.07000000000000001,0.1
6.92923891544342,2,3,3,3,-8.800000000000001,1.38,-0.64,-3.06,-0.45,-0.77
6.939238905906677,2,3,3,3,-8.630000000000001,1.05,-0.83,-3.5,-0.59,-1.08
6.949238896369934,2,3,3,3,-9.119999999999999,-0.1,-0.63,-3.06,-0.4,-1.03
6.95923912525177,2,3,3,3,-9.470000000000001,-0.38,-0.52,-2.4,-0.59,-0.9399999999999999
6.969239115715027,2,3,3,3,-9.82,-0.33,-0.27,-1.26,-0.63,-0.89
6.979239106178284,2,3,3,3,-9.960000000000001,-0.25,-0.09,-0.23,-0.22,-0.87
6.989239096641541,2,3,3,3,-10.17,0.01,0.13,1.26,0.71,-0.92
6.999239087104797,2,3,3,3,-10.16,0.27,0.34,2.17,1.43,-1.03
7.009239077568054,2,3,3,3,-10.17,0.55,0.19,2.52,1.7,-1.01
7.019239068031311,2,3,3,3,-10.11,0.65,-0.01,2.65,1.72,-0.8100000000000001
7.029239058494568,2,3,3,3,-9.960000000000001,0.8,-0.15,2.34,1.47,-0.37
7.039239048957825,2,3,3,3,-9.92,1.05,-0.24,1.7,1.2,0.06
7.049239039421082,2,3,3,3,-9.85,1.11,-0.45,1.12,1.32,-0.13
7.059239029884338,2,3,3,3,-9.779999999999999,1.11,-0.54,0.82,1.57,-0.4
7.069239020347595,2,3,3,3,-9.56,0.83,-0.98,0.35,1.52,-0.55
7.079239010810852,2,3,3,3,-9.59,0.77,-1,0.46,1.45,-0.63
7.089239001274109,2,3,3,3,-9.74,0.61,-0.85,0.35,1.24,-0.63
7.099238991737366,2,3,3,3,-9.720000000000001,0.49,-0.6899999999999999,0.02,0.85,-0.47
7.109238982200623,2,3,3,3,-9.539999999999999,0.14,-0.7,0.49,0.89,-0.24
7.119238972663879,2,3,3,3,-9.640000000000001,0.29,-0.68,1.29,1.21,-0.26
7.129238963127136,2,3,3,3,-9.66,0.23,-0.66,1.17,1.26,-0.27
7.139238953590393,2,3,3,3,-9.720000000000001,0.22,-0.58,1.35,1.29,-0.32
7.14923894405365,2,3,3,3,-9.75,-0.06,-0.15,1.6,1.55,-0.4
7.159238934516907,2,3,3,3,-9.69,-0.29,-0.12,2.13,1.74,-0.44
7.169238924980164,2,3,3,3,-9.630000000000001,-0.52,-0.17,1.92,1.52,-0.32
7.17923891544342,2,3,3,3,-9.640000000000001,-0.68,-0.15,1.52,1.17,-0.12
7.189238905906677,2,3,3,3,-9.92,-0.67,-0.38,1.34,0.92,-0.08
7.199238896369934,2,3,3,3,-10.07,-0.72,-0.68,0.89,0.82,-0.11
7.20923912525177,2,3,3,3,-10,-0.05,-0.79,0.89,0.9,-0.3
7.219239115715027,2,3,3,3,-10.02,0.02,-1.14,0.99,0.76,-0.64
7.229239106178284,2,3,3,3,-9.74,0.04,-1.03,1.4,0.79,-0.85
7.239239096641541,2,3,3,3,-9.52,0.21,-0.9399999999999999,1.05,0.28,-0.57
7.249239087104797,2,3,3,3,-9.56,0.25,-0.97,0.15,0.07000000000000001,-0.29
7.259239077568054,2,3,3,3,-9.74,0.28,-1.1,0.04,0.28,-0.14
7.269239068031311,2,3,3,3,-9.880000000000001,0.58,-1.43,0.18,0.37,-0.12
7.279239058494568,2,3,3,3,-9.93,0.86,-1.35,0.6899999999999999,0.65,-0.23
7.289239048957825,2,3,3,3,-9.869999999999999,0.88,-1.31,0.59,0.66,-0.23
7.299239039421082,2,3,3,3,-9.539999999999999,0.64,-1.41,0.47,0.49,-0.06
7.309239029884338,2,3,3,3,-9.52,0.52,-1.22,0.26,0.6899999999999999,0.18
7.319239020347595,2,3,3,3,-9.630000000000001,0.45,-1.09,-0.1,0.79,0.4
7.329239010810852,2,3,3,3,-9.630000000000001,0.48,-0.99,-0.45,0.61,0.62
7.339239001274109,2,3,3,3,-9.68,0.09,-0.96,-0.54,0.77,0.6899999999999999
7.349238991737366,2,3,3,3,-9.77,0.01,-0.85,-0.33,1.07,0.59
7.359238982200623,2,3,3,3,-9.83,-0.15,-0.87,-0.43,0.99,0.7
7.369238972663879,2,3,3,3,-9.83,-0.28,-0.73,-0.34,0.95,0.88
7.379238963127136,2,3,3,3,-9.75,-0.8,-0.33,-0.58,0.71,1.03
7.389238953590393,2,3,3,3,-9.65,-0.89,-0.14,-0.77,0.51,1.16
7.39923894405365,2,3,3,3,-9.640000000000001,-1.17,-0.17,-0.57,0.5600000000000001,1.12
7.409238934516907,2,3,3,3,-9.65,-1.35,-0.04,-0.13,0.45,1.04
7.419238924980164,2,3,3,3,-9.550000000000001,-1.96,0.04,0.01,0.03,1.07
7.42923891544342,2,3,3,3,-9.67,-2.35,0.05,0.42,-0.41,0.98
7.439238905906677,2,3,3,3,-9.789999999999999,-2.45,0.39,0.8100000000000001,-1.44,0.76
7.449238896369934,2,3,3,3,-9.67,-2.66,0.58,1.48,-2.55,0.66
7.45923912525177,2,3,3,3,-9.52,-3.42,1.23,2.33,-3.11,0.44
7.469239115715027,2,3,3,3,-9.390000000000001,-3.91,1.72,3.01,-3.79,0.2
7.479239106178284,2,3,3,3,-9.289999999999999,-4.61,2.55,2.85,-4.43,-0.14
7.489239096641541,2,3,3,3,-9.19,-5.61,3.36,1.79,-4.85,-0.51
7.499239087104797,2,3,3,3,-10.07,-7.34,4.59,-1.04,-5.8,-1.7
7.509239077568054,2,3,3,3,-9.77,-6.36,4.67,-5.85,-7.96,-3.29
7.519239068031311,2,3,3,3,-8.69,-5,3.88,-6.14,-9.359999999999999,-3.16
7.529239058494568,2,3,3,3,-8.720000000000001,-4.19,3.96,-5.3,-7.89,-4.62
7.539239048957825,2,3,3,3,-7.86,-4.19,2.96,-4.8,-7.28,-6.81
7.549239039421082,2,3,3,3,-7.12,-3.2,1.26,-4.56,-6.95,-6.91
7.559239029884338,2,3,3,3,-6.65,-1.67,0.15,-3.27,-5.8,-6.38
7.569239020347595,2,3,3,3,-6.29,-0.93,-1.07,-1.05,-5.16,-5.47
7.579239010810852,2,3,3,3,-7.25,0.55,-3.92,0.86,-3.95,-5.81
7.589239001274109,2,3,3,3,-7.56,0.87,-4.15,1.63,-3.84,-6.5
7.599238991737366,2,3,3,3,-7.7,0.18,-3.69,4.19,-2.47,-7.41
7.609238982200623,2,3,3,3,-9.35,-0.1,-2.43,5.37,-1.54,-7.76
7.619238972663879,2,3,3,3,-9.01,1.86,-2.41,3.71,-5.04,-6.69
7.629238963127136,2,3,3,3,-8.91,2.31,-2.91,2.59,-5.89,-5.04
7.639238953590393,2,3,3,3,-9.34,2.26,-2.27,3.56,-4.84,-3.91
7.64923894405365,2,3,3,3,-10.23,1.74,-1.46,3.36,-5.1,-3.64
7.659238934516907,2,3,3,3,-10.74,2.48,-1.5,2.26,-4.61,-3.62
7.669238924980164,2,3,3,3,-11.2,3.85,-2.35,1.66,-3.03,-4
7.67923891544342,2,3,3,3,-11.62,4.46,-2.75,1.78,-2.45,-5.39
7.689238905906677,2,3,3,3,-11.57,5.02,-3,1.03,-3.23,-5.77
7.699238896369934,2,3,3,3,-11.89,5.34,-3.07,0.51,-2.54,-4.83
7.70923912525177,2,3,3,3,-12.4,5.94,-2.93,0.73,-1.47,-3.85
7.719239115715027,2,3,3,3,-12.49,6.37,-2.69,-0.01,-1.83,-2.36
7.729239106178284,2,3,3,3,-12.69,5.86,-2.18,-1.06,-1.67,-1.46
7.739239096641541,2,3,3,3,-12.94,6.4,-2.41,-1.06,-1.67,-1.46
7.749239087104797,2,3,3,3,-13.26,7.1,-1.9,-1.6,-1.36,-0.84
7.759239077568054,2,3,3,3,-13.51,7.69,-1.68,-3.13,0.73,-0.39
7.770238995552063,2,3,3,3,-15.39,9.9,-3.83,-3.22,2.6,0.27
7.78023898601532,2,3,3,3,-16.96,10.26,-3.93,-2.76,4.55,2.15
7.790238976478577,2,3,3,3,-18.49,9.44,-4.01,-2.76,4.55,2.15
7.800238966941833,2,3,3,3,-20.86,8.44,-4.27,-1.94,7.56,4.91
7.81023895740509,2,3,3,3,-27.5,6.02,-3.53,0.72,9.06,8.15
7.820238947868347,2,3,3,3,-30.16,6.08,-3.17,2.18,5.05,7.97
7.830238938331604,2,3,3,3,-31.05,7.09,-3.1,3.39,0.71,8.66
7.840238928794861,2,3,3,3,-29.95,7.45,-3.14,3.39,0.71,8.66
7.850238919258118,2,3,3,3,-26.56,2.98,-1.14,4.11,-1,10.54
7.860238909721375,2,3,3,3,-25.39,-1.1,1.2,3.8,-0.92,9.27
7.870238900184631,2,3,3,3,-24.9,-4.61,3.63,3.07,-1.69,7.96
7.880239129066467,2,3,3,3,-23.81,-7.03,5.5,3.58,-1.66,7.95
7.890239119529724,2,3,3,3,-16.08,-7.76,6.58,3.58,-1.66,7.95
7.900239109992981,2,3,3,3,-11.05,-4.03,5.4,4.12,2.16,7.82
7.910239100456238,2,3,3,3,-6.87,0.83,4.01,-0.03,19.3,0.9399999999999999
7.920239090919495,2,3,3,3,-3.48,3.18,2.66,-2.07,26.4,-1.75
7.930239081382751,2,3,3,3,0.06,-8.25,1.09,-7.5,23.49,-3.48
7.940239071846008,2,3,3,3,1.84,-17.67,0.85,-7.5,23.49,-3.48
7.950239062309265,2,3,3,2,0.59,-23.53,1.8,-8.5,13.52,-5.86
7.960239052772522,2,3,3,2,-0.37,-20.45,2.44,3.62,-8.220000000000001,0.83
7.970239043235779,2,3,3,2,2,-10.78,1.57,7.91,-8.57,4.54
7.980239033699036,2,3,3,2,1.81,-1.62,4.1,0.06,-6.32,5.94
7.990239024162292,2,3,3,2,0.45,2.4,2.67,0.06,-6.32,5.94
8.000239014625549,2,3,3,2,-3.02,3.58,2.18,-0.68,-4.94,4.42
8.010239005088806,2,3,3,2,-3.69,4.14,2.65,-0.68,-1.3,-6.94
8.020238995552063,2,3,3,2,-3.02,3.81,1.28,-0.45,0.41,-9.529999999999999
8.03023898601532,2,3,3,2,-1.61,3.1,0.13,-1.53,2.27,-9.48
8.040238976478577,2,3,3,2,0.92,2.23,-1.64,-1.53,2.27,-9.48
8.050238966941833,2,3,3,2,1.05,1.74,-2.51,-2.17,3.38,-6.45
8.06023895740509,2,3,3,2,0.66,0.99,-3.17,-2.69,2.88,-0.72
8.070238947868347,2,3,3,2,0.11,-0.2,-3.9,0.62,2.1,-1.28
8.080238938331604,2,3,3,2,0.07000000000000001,-0.32,-2.48,3.2,0.76,-1.77
8.090238928794861,2,3,3,2,0.47,-0.43,-2.03,3.2,0.76,-1.77
8.100238919258118,2,3,3,2,0.65,-0.54,-0.8100000000000001,5.73,0.07000000000000001,-1.45
8.110238909721375,2,3,3,2,0.18,-0.55,0.49,5.21,-0.19,-0.36
8.120238900184631,2,3,3,2,-0.8,-0.34,1.39,4.97,0.63,-0.74
8.130239129066467,2,3,3,2,-1.45,-0.26,1.75,4.05,0.89,-1.54
8.140239119529724,2,3,3,2,-1.58,-0.73,2.11,4.05,0.89,-1.54
8.150239109992981,2,3,3,2,-1.25,-1.42,2.64,3.18,0.77,-1.72
8.160239100456238,2,3,3,2,-1.15,-3.37,2.79,1.85,0.1,-1.31
8.170239090919495,2,3,3,2,-1.14,-4.37,2.76,1.39,-0.32,-0.68
8.180239081382751,2,3,3,2,-1.04,-5.4,2.61,1.07,-0.91,-0.11
8.190239071846008,2,3,3,2,-0.92,-6.02,2.65,1.07,-0.91,-0.11
8.200239062309265,2,3,3,2,-1.37,-6.53,2.24,0.24,-1.94,-0.48
8.210239052772522,2,3,3,2,-1.87,-6.99,0.48,-1,-7.61,-3.21
8.220239043235779,2,3,3,2,-1.53,-5.94,-0.96,-1.89,-11.06,-1.57
8.230239033699036,2,3,3,2,-0.7,-4.1,0.31,-8.710000000000001,-11.3,-0.15
8.240239024162292,2,3,3,2,-3.68,-9.140000000000001,9.35,-8.710000000000001,-11.3,-0.15
8.250239014625549,2,3,3,2,-6.59,-15.48,12.69,-16.29,-15.53,0.63
8.260239005088806,2,3,3,2,-6.96,-7.35,-0.66,-12.56,-6.47,1.84
8.270238995552063,2,3,3,2,-9.09,17.19,-6.71,-20.3,19.74,-0.08
8.28023898601532,2,3,3,2,-35.66,8.34,-1.24,-21.14,36.86,-11.21
8.290238976478577,2,3,3,2,-39.25,0.06,-14.1,-21.14,36.86,-11.21
8.300238966941833,2,3,3,2,-37.92,5.81,-14.27,-5.33,-8.9,-11.39
8.31023895740509,2,3,3,2,-5.9,-2.58,5.28,-14.23,-7.14,0.57
8.320238947868347,2,3,3,2,-7.21,-12.82,-2.37,-1.93,18.27,-6.76
8.330238938331604,2,3,3,2,-22.22,-11.91,2.47,2.51,1.54,-5.63
8.340238928794861,2,3,3,3,-32.63,-6.53,-2.62,2.51,1.54,-5.63
8.350238919258118,2,3,3,3,-29.4,17.78,-7.48,10.78,2.99,2.16
8.360238909721375,2,3,3,3,-20.72,25.61,-8.48,7.95,-10.52,8.24
8.370238900184631,2,3,3,3,-13.73,26.35,-6.84,8.539999999999999,-3.05,0.9
8.380239129066467,2,3,3,3,-12.13,25.45,-5.72,3.46,-0.68,4.48
8.390239119529724,2,3,3,3,-9.289999999999999,14.69,-0.64,3.46,-0.68,4.48
8.400239109992981,2,3,3,3,-10.19,6.35,0.66,0.3,3.46,3.44
8.410239100456238,2,3,3,3,-13.01,0.36,1.69,-3.75,3.2,7.38
8.420239090919495,2,3,3,3,-15.18,-1.42,2.86,-4.91,1.77,5.68
8.430239081382751,2,3,3,3,-17.32,-3.48,0.92,-3.34,1.24,3.73
8.440239071846008,2,3,3,3,-16.11,-4.91,-0.02,-3.34,1.24,3.73
8.450239062309265,2,3,3,3,-12.73,-2.52,0.25,-0.41,0.48,3.87
8.460239052772522,2,3,3,3,-8.59,-1.03,-0.57,2.25,4.18,3.98
8.470239043235779,2,3,3,3,-3.49,-0.17,-1.02,1.58,5.36,2.07
8.480239033699036,2,3,3,3,-3.72,-0.17,-2.2,-0.05,5.74,1.25
8.490239024162292,2,3,3,3,-3.91,-0.27,-0.89,-0.05,5.74,1.25
8.500239014625549,2,3,3,3,-4.55,-0.25,-2.02,1.38,4.76,2.15
8.510239005088806,2,3,3,3,-5.51,0.96,-1.43,1.83,7.32,6.29
8.520238995552063,2,3,3,3,-6.22,1.26,-1.85,3.39,9.18,6.11
8.53023898601532,2,3,3,3,-7.41,1.19,-1.46,3.6,9.539999999999999,5.1
8.540238976478577,2,3,3,3,-8.029999999999999,0.26,-0.98,3.6,9.539999999999999,5.1
8.550238966941833,2,3,3,3,-9.06,-3.38,0.37,4.16,8.609999999999999,4.09
8.56023895740509,2,3,3,3,-9.6,-4.81,1.53,4.92,2.62,1.43
8.570238947868347,2,3,3,3,-9.970000000000001,-6.16,1.51,6.09,0.45,0.61
8.580238938331604,2,3,3,3,-10.22,-5.66,2.39,5.56,-0.93,0.91
8.590238928794861,2,3,3,3,-10.89,-4.82,2.41,5.56,-0.93,0.91
8.600238919258118,2,3,3,3,-10.96,-3.7,2.94,6.35,-1.82,1.42
8.610238909721375,2,3,3,3,-10.81,-2.65,2.98,4.82,0.66,1.43
8.620238900184631,2,3,3,3,-10.48,-1.66,1.95,3.68,2.05,1.22
8.630239129066467,2,3,3,3,-10.4,-0.25,1.04,2.26,3.81,-0.41
8.640239119529724,2,3,3,3,-10.7,0.43,0.18,2.26,3.81,-0.41
8.650239109992981,2,3,3,3,-10.53,0.15,-0.8100000000000001,1.39,3.62,-1.55
8.660239100456238,2,3,3,3,-9.630000000000001,-0.5600000000000001,-2.51,1.08,2.89,-0.78
8.670239090919495,2,3,3,3,-9.609999999999999,0.22,-2.62,1.64,3.13,-0.12
8.680239081382751,2,3,3,3,-9.789999999999999,0.38,-2.57,2.33,3.1,0.87
8.690239071846008,2,3,3,2,-9.880000000000001,0.91,-2.58,2.33,3.1,0.87
8.700239062309265,2,3,3,2,-9.880000000000001,1.99,-2.38,2.49,3.16,1.31
8.710239052772522,2,3,3,2,-9.6,2.14,-2.01,2.58,3.03,1.77
8.720239043235779,2,3,3,2,-9.34,2.69,-1.31,1.26,3.51,1.09
8.730239033699036,2,3,3,2,-9.279999999999999,2.75,-1.31,0.85,3.56,0.45
8.740239024162292,2,3,3,2,-9.050000000000001,1.97,-1.33,0.85,3.56,0.45
8.750239014625549,2,3,3,2,-8.93,1.2,-1.15,-0.33,3.14,0.37
8.760239005088806,2,3,3,2,-9,0.38,-1.2,-1.69,1.65,0.72
8.770238995552063,2,3,3,2,-9.73,-0.64,-1.44,-1.5,1.22,0.41
8.78023898601532,2,3,3,2,-9.81,-0.6,-1.14,-0.95,0.77,0.2
8.791238903999329,2,3,3,2,-9.81,-0.6,-1.14,-0.95,0.77,0.2
8.801239132881165,2,3,3,2,-9.83,-0.49,-0.83,-0.54,0.62,0.09
8.811239123344421,2,3,3,2,-9.73,-0.38,-0.52,0.05,0.41,0.05
8.821239113807678,2,3,3,2,-9.859999999999999,-0.16,-0.37,-0.18,0.53,-0.13
8.831239104270935,2,3,3,2,-9.83,-0.23,-0.3,-0.63,0.8,-0.09
8.841239094734192,2,3,3,2,-9.83,-0.23,-0.3,-0.63,0.8,-0.09
8.851239085197449,2,3,3,2,-9.93,-0.68,-0.57,-0.63,1.22,0.21
8.861239075660706,2,3,3,2,-10.01,-0.76,-1.07,-0.25,1.05,0.46
8.871239066123962,2,3,3,2,-9.890000000000001,-0.45,-1.44,0.52,1.45,0.11
8.881239056587219,2,3,3,2,-9.75,-0.33,-1.58,1.25,1.45,-0.08
8.891239047050476,2,3,3,2,-9.75,-0.33,-1.58,1.25,1.45,-0.08
8.901239037513733,2,3,3,2,-9.42,0.18,-1.86,1.34,1.03,-0.14
8.91123902797699,2,3,3,2,-9.35,0.52,-1.98,1.48,0.7,-0.01
8.921239018440247,2,3,3,2,-9.59,0.63,-1.91,1.17,0.75,-0.02
8.931239008903503,2,3,3,2,-9.630000000000001,0.58,-1.84,0.73,0.55,-0.01
8.94123899936676,2,3,3,2,-9.630000000000001,0.58,-1.84,0.73,0.55,-0.01
8.951238989830017,2,3,3,2,-9.67,0.48,-1.84,0.22,0.49,0.07000000000000001
8.961238980293274,2,3,3,2,-9.59,0.06,-1.5,-0.06,0.26,0.21
8.971238970756531,2,3,3,2,-9.720000000000001,0.02,-1.38,-0.41,0.3,0.43
8.981238961219788,2,3,3,2,-9.800000000000001,0.3,-1.16,-0.58,0.47,0.51
8.991238951683044,2,3,3,2,-9.800000000000001,0.3,-1.16,-0.58,0.47,0.51
9.001238942146301,2,3,3,2,-9.82,0.43,-1.28,-1.3,0.32,0.62
9.011238932609558,2,3,3,2,-9.470000000000001,0.44,-1.28,-1.62,0.29,0.74
9.021238923072815,2,3,3,2,-9.52,0,-1.66,-1.59,0.36,0.91
9.031238913536072,2,3,3,2,-9.449999999999999,-0.02,-1.65,-2.13,0.5600000000000001,0.87
9.041238903999329,2,3,3,2,-9.449999999999999,-0.02,-1.65,-2.13,0.5600000000000001,0.87
9.051239132881165,2,3,3,2,-9.67,-0.05,-1.72,-1.39,0.46,1.08
9.061239123344421,2,3,3,2,-9.84,0,-2.02,-1.71,0.44,0.8
9.071239113807678,2,3,3,2,-9.69,0.17,-1.89,-1.02,0.19,0.53
9.081239104270935,2,3,3,2,-9.390000000000001,0.32,-1.67,-0.06,0.14,0.53
9.091239094734192,2,3,3,2,-9.390000000000001,0.32,-1.67,0.84,0.26,1.1
9.101239085197449,2,3,3,2,-9.470000000000001,0.47,-1.58,0.84,0.26,1.1
9.111239075660706,2,3,3,2,-9.630000000000001,0.61,-1.66,0.98,0.39,1.19
9.121239066123962,2,3,3,2,-9.619999999999999,0.5,-1.44,1.08,0.64,1.09
9.131239056587219,2,3,3,2,-9.56,0.39,-1.38,0.79,0.74,1.05
9.141239047050476,2,3,3,2,-9.56,0.39,-1.38,0.47,0.64,1.28
9.151239037513733,2,3,3,2,-9.529999999999999,0.27,-1.31,0.47,0.64,1.28
9.16123902797699,2,3,3,2,-9.65,0.03,-1.12,0.18,0.35,1.3
9.171239018440247,2,3,3,2,-9.710000000000001,-0.06,-1.07,-0.12,0.11,1.21
9.181239008903503,2,3,3,2,-9.69,-0.23,-0.92,-0.58,0,1.05
9.19123899936676,2,3,3,3,-9.609999999999999,-0.46,-0.72,-0.89,-0.3,0.9399999999999999
9.201238989830017,2,3,3,3,-9.529999999999999,-0.85,-0.18,-1.34,-0.76,0.88
9.211238980293274,2,3,3,3,-9.6,-1.25,-0.36,-1.98,-1.31,0.71
9.221238970756531,2,3,3,3,-9.9,-1.5,-0.47,-2.84,-1.63,0.47
9.231238961219788,2,3,3,3,-9.93,-1.17,-0.19,-3.18,-2.41,0.08
9.241238951683044,2,3,3,3,-9.720000000000001,-1.09,-0.05,-3.05,-3.53,-0.27
9.251238942146301,2,3,3,3,-9.59,-1.22,0.16,-2.49,-4.09,-0.44
9.261238932609558,2,3,3,3,-9.470000000000001,-1.45,0.24,-1.79,-4.09,-0.5600000000000001
9.271238923072815,2,3,3,3,-9.289999999999999,-2.1,0.98,-1.32,-4.12,-0.73
9.281238913536072,2,3,3,3,-9.24,-2.57,1.48,-1.27,-4.13,-0.95
9.291238903999329,2,3,3,3,-9.26,-3.33,1.91,-1.94,-4.18,-1.2
9.301239132881165,2,3,3,3,-9.4,-4.24,2.14,-3.38,-4.21,-1.7
9.311239123344421,2,3,3,3,-10.18,-4.15,2.84,-4.96,-4.33,-2.72
9.321239113807678,2,3,3,3,-9.91,-3.8,2.84,-6.43,-5.7,-4.67
9.331239104270935,2,3,3,3,-9.619999999999999,-4.3,2.26,-9.130000000000001,-7.95,-6.21
9.341239094734192,2,3,3,3,-9.25,-3.41,2.78,-7.77,-10.43,-6.44
9.351239085197449,2,3,3,3,-7.48,-3.35,2.57,-6.88,-12.67,-6.65
9.361239075660706,2,3,3,3,-6.97,-3.23,1.49,-6.6,-13.23,-6.25
9.371239066123962,2,3,3,3,-7.18,-2.97,-0.54,-6.32,-11.07,-5.3
9.381239056587219,2,3,3,3,-8.06,-1.36,-1.64,-7.03,-8.199999999999999,-4.62
9.391239047050476,2,3,3,3,-9.279999999999999,-1.28,-0.48,-4.88,-7.59,-4.27
9.401239037513733,2,3,3,3,-9.67,-0.6899999999999999,-1.02,-1.92,-6.96,-5.41
9.41123902797699,2,3,3,3,-10.49,0.27,-1.92,-0.3,-3.23,-6.5
9.421239018440247,2,3,3,3,-10.47,3.26,-2.83,0.12,-3.15,-6.54
9.431239008903503,2,3,3,3,-9.66,4.34,-4.52,-0.09,-4.99,-6.68
9.44123899936676,2,3,3,3,-9.33,3.52,-5.08,2.09,-3.46,-8.35
9.451238989830017,2,3,3,3,-8.83,1.87,-4.63,5.29,-1.41,-9.390000000000001
9.461238980293274,2,3,3,3,-8.210000000000001,0.57,-3.39,5.84,-3.9,-8.26
9.471238970756531,2,3,3,3,-8.18,1.22,-2.51,5.13,-5.96,-5.09
9.481238961219788,2,3,3,3,-8.77,1.15,-2.59,3.22,-6.85,-2.49
9.491238951683044,2,3,3,3,-9.539999999999999,2.28,-3.45,2.68,-6.16,-2.63
9.501238942146301,2,3,3,3,-10.7,3.18,-3.57,2.56,-4.17,-4.06
9.511238932609558,2,3,3,3,-11.45,3.59,-2.49,3.21,-2.74,-5.42
9.521238923072815,2,3,3,3,-11.5,4.05,-2.4,3.09,-3.65,-5.8
9.531238913536072,2,3,3,3,-11.78,4.83,-2.22,1.76,-4.18,-4.98
9.541238903999329,2,3,3,3,-12.27,5.58,-1.87,0.87,-3.59,-3.95
9.551239132881165,2,3,3,3,-12.78,7.83,-2.58,0.87,-2.32,-3.11
9.561239123344421,2,3,3,3,-12.72,9.06,-3.03,1.19,-1.71,-2.39
9.571239113807678,2,3,3,3,-13.02,9.92,-2.96,1.39,-0.9,-1.96
9.581239104270935,2,3,3,3,-15.06,10.77,-1.23,1.58,-0.13,-1.65
9.591239094734192,2,3,3,3,-16.58,10.58,-0.28,0.11,0.96,-0.13
9.601239085197449,2,3,3,3,-18.55,9.9,0.6899999999999999,-1.29,2.52,2.19
9.611239075660706,2,3,3,3,-21.16,9.68,1.39,-2.78,4.68,4.43
9.621239066123962,2,3,3,3,-27.22,9.720000000000001,1.79,-4.85,6.69,6.53
9.631239056587219,2,3,3,3,-29.66,8.66,1.06,-6.93,7.77,7.53
9.641239047050476,2,3,3,3,-31.62,7.35,1.04,-8.359999999999999,7.81,6.29
9.651239037513733,2,3,3,3,-32.69,4.94,1.07,-8.94,6.78,4.48
9.66123902797699,2,3,3,3,-30.45,-0.42,1.21,-8.66,2.36,5.25
9.671239018440247,2,3,3,3,-27.61,-3.03,1.25,-7.77,-1.18,7.97
9.681239008903503,2,3,3,3,-23.26,-5.75,0.88,-7.48,-4.76,9.16
9.69123899936676,2,3,3,3,-18.41,-7.77,-0.39,-8.01,-7.97,8.52
9.701238989830017,2,3,3,3,-10.89,-7.76,-3.91,-8.9,-6.67,7.77
9.711238980293274,2,3,3,3,-7.8,-6.37,-4.81,-8.56,-2.91,6.54
9.721238970756531,2,3,3,3,-5.06,-5.49,-4.39,-7.64,2.45,4.88
9.731238961219788,2,3,3,3,-4.01,-4.9,-4.53,-7.54,10.78,3.38
9.741238951683044,2,3,3,2,-4.38,-7.43,-3.61,-6.98,18.55,0.77
9.751238942146301,2,3,3,2,-3.05,-9.619999999999999,-0.77,-3.39,22.93,-1.57
9.761238932609558,2,3,3,2,-1.15,-15.06,1.86,2.82,22.94,-2.51
9.771238923072815,2,3,3,2,-1.43,-19.96,2.43,-0.19,16.76,-1.52
9.781238913536072,2,3,3,2,0.74,-15.41,5.33,-0.34,4.84,-3.94
9.791238903999329,2,3,3,2,2,-8.23,3.77,6,-9.119999999999999,-5.03
9.801239132881165,2,3,3,2,2.88,-2.26,1.73,13.85,-14.23,-3.34
9.812239050865173,2,3,3,2,2.43,1.86,1.6,14.7,-15.35,2.99
9.82223904132843,2,3,3,2,-0.79,4.14,2.02,11.08,-11.18,7.38
9.832239031791687,2,3,3,2,-2.37,3.72,0.8,6.24,-3.91,6.49
9.842239022254944,2,3,3,2,-2.68,3.59,-0.39,5.29,1.81,1.96
9.852239012718201,2,3,3,2,-1.9,3.98,-0.79,8.300000000000001,4.56,-3.25
9.862239003181458,2,3,3,2,-0.1,4.21,-1.63,10.06,4.73,-5.39
9.872238993644714,2,3,3,2,0.52,3.05,-1.94,7.98,4.04,-5.2
9.882238984107971,2,3,3,2,0.42,1.86,-1.56,6.64,4.02,-3.74
9.892238974571228,2,3,3,2,-0.01,-0.28,-1.31,5.49,3.54,-2.38
9.902238965034485,2,3,3,2,-0.16,-0.96,-1.08,3.67,2.02,-1.24
9.912238955497742,2,3,3,2,-0.14,-1.04,-0.85,2.98,0.82,-0.6899999999999999
9.922238945960999,2,3,3,2,-0.23,-0.88,-0.29,3.53,0.45,-0.96
9.932238936424255,2,3,3,2,-0.49,-0.89,0.78,3.87,0.37,-1.24
9.942238926887512,2,3,3,2,-0.53,-1.21,0.9399999999999999,3.17,0.07000000000000001,-1.03
9.952238917350769,2,3,3,2,-0.63,-1.98,1.05,1.95,0.11,-0.75
9.962238907814026,2,3,3,2,-0.66,-2.82,1.46,1.42,0.44,-0.98
9.972238898277283,2,3,3,2,-0.72,-4.51,2.23,1.81,0.76,-1.49
9.982239127159119,2,3,3,2,-0.59,-4.93,2.66,3.03,0.63,-1.78
9.992239117622375,2,3,3,2,-0.67,-5.33,3.24,5.35,-0.14,-1.48
10.00223910808563,2,3,3,2,-0.98,-5.83,3.6,6.59,-1.14,-1.01
10.01223909854889,2,3,3,2,-1.9,-6.26,3.77,5.8,-2.46,-1.01
10.02223908901215,2,3,3,2,-2.04,-6.94,2.33,4.36,-3.92,-1.58
10.0322390794754,2,3,3,2,-1.98,-7.31,-0.07000000000000001,3.11,-5.44,-2.48
10.04223906993866,2,3,3,2,-1.28,-4.79,0.05,3.84,-7.17,-3.73
10.05223906040192,2,3,3,2,-4.62,-9.24,8.279999999999999,3.51,-8.4,-3.56
10.06223905086517,2,3,3,2,-7.43,-11.28,17.42,-4.62,-9.609999999999999,-3.16
10.07223904132843,2,3,3,2,-6.47,-7.71,0.15,-11.41,-14.66,-1.44
10.08223903179169,2,3,3,2,-9.380000000000001,18.39,-2.28,-14.03,-13.93,-1.88
10.09223902225494,2,3,3,2,-35.39,18.85,3.52,-5.08,-13.91,-1.03
10.1022390127182,2,3,3,2,-39.25,2.62,-9.93,-21.14,14.11,1.41
10.11223900318146,2,3,3,2,-36.77,2.51,-11.73,-24.92,28.4,-5.75
10.12223899364471,2,3,3,2,-19.22,9.140000000000001,-4.7,-11.18,-25.96,-11.13
10.13223898410797,2,3,3,2,-7.13,-2.49,-3.49,-11.43,-34.15,-0.5
10.14223897457123,2,3,3,2,-14.62,-6.06,-1.21,-20.13,0.77,4.04
10.15223896503448,2,3,3,2,-18.12,-7.45,-3.45,-15.94,8.890000000000001,-5.02
10.16223895549774,2,3,3,2,-29.56,-3.78,-5.35,-9.07,0.99,-3.33
10.172238945961,2,3,3,2,-37.46,13.45,-8.93,1.59,17.08,0.9399999999999999
10.18223893642426,2,3,3,2,-24.37,16.11,-6.99,7.11,13.51,1.2
10.19223892688751,2,3,3,2,-11.56,14.48,-3.94,3.64,-24.94,3.69
10.20223891735077,2,3,3,2,-6.76,12.47,-2.77,6.85,-22.61,3.79
10.21223890781403,2,3,3,2,-14.62,7.57,1.59,7.3,4.63,3.03
10.22223889827728,2,3,3,2,-15.86,6.05,1.16,4.46,7.5,3.37
10.23223912715912,2,3,3,2,-16.74,5.14,0.76,1.77,3.54,4.37
10.24223911762238,2,3,3,2,-13.33,2.67,0.05,1.61,4.45,4.2
10.25223910808563,2,3,3,2,-11.05,1.95,-0.24,0.8100000000000001,0.37,4.49
10.26223909854889,2,3,3,2,-9.73,1.72,-0.39,0.76,0.58,4.67
10.27223908901215,2,3,3,2,-8.76,0.8100000000000001,-0.64,0.51,2.52,5.14
10.2822390794754,2,3,3,2,-7.04,-0.61,-0.9399999999999999,0.32,2.77,5.67
10.29223906993866,2,3,3,2,-6.83,-0.8,-0.87,-0.14,2.74,5.72
10.30223906040192,2,3,3,2,-6.2,-0.78,-0.86,0.01,4.33,5.53
10.31223905086517,2,3,3,2,-5.59,-0.78,-0.9399999999999999,0.15,3.75,4.12
10.32223904132843,2,3,3,2,-5.66,-1.24,-0.6899999999999999,0.41,4.13,3.05
10.33223903179169,2,3,3,2,-6.07,-1.3,-0.57,0.45,4.81,2.94
10.34223902225494,2,3,3,2,-6.4,-1.16,-0.22,0.22,5.85,3.3
10.3522390127182,2,3,3,2,-6.84,-1.03,0.07000000000000001,0.1,6.96,3.74
10.36223900318146,2,3,3,2,-7.15,-2.19,0.06,-0.8100000000000001,8.199999999999999,3.49
10.37223899364471,2,3,3,2,-7.48,-3.37,0.05,-1.9,8.890000000000001,2.85
10.38223898410797,2,3,3,2,-7.64,-4.22,0.41,-1.77,8.49,2.12
10.39223897457123,2,3,3,2,-7.82,-4.74,0.98,0.37,6.56,1.93
10.40223896503448,2,3,3,2,-9.52,-5.23,2.67,2.65,4.84,2.2
10.41223895549774,2,3,3,2,-10.52,-4.83,3.03,4.15,2.18,2.13
10.422238945961,2,3,3,2,-10.97,-4.24,3.1,3.86,-0.8,1.85
10.43223893642426,2,3,3,2,-11.17,-3.54,2.99,2.91,-2.26,1.37
10.44223892688751,2,3,3,2,-11.08,-2.52,2.83,2.6,-1.85,1.13
10.45223891735077,2,3,3,2,-10.78,-1.95,2.15,2.36,-0.5,1.01
10.46223890781403,2,3,3,2,-10.45,-1.51,1.38,2.76,0.73,0.9399999999999999
10.47223889827728,2,3,3,2,-10.27,-0.36,0.89,3.17,1.41,1.03
10.48223912715912,2,3,3,2,-10.02,-0.2,-0.6899999999999999,2.71,2.55,-0.05
10.49223911762238,2,3,3,2,-9.449999999999999,0.05,-0.83,1.7,2.46,-1.51
10.50223910808563,2,3,3,2,-9.23,0.41,-0.8100000000000001,1.63,1.38,-1.38
10.51223909854889,2,3,3,2,-9.789999999999999,0.71,-1,1.89,1.79,-0.21
10.52223908901215,2,3,3,2,-10.62,0.9,-1.4,1.4,2.54,0.29
10.5322390794754,2,3,3,2,-10.13,1.36,-1.48,0.7,1.53,0.52
10.54223906993866,2,3,3,2,-9.58,1.74,-1.53,-0.45,0.28,0.96
10.55223906040192,2,3,3,2,-9.23,1.96,-1.33,-0.82,-0.02,1.31
10.56223905086517,2,3,3,2,-9.15,1.92,-1.38,-1.2,-0.03,1.2
10.57223904132843,2,3,3,2,-9.19,1.49,-1.21,-1.57,-0.31,0.72
10.58223903179169,2,3,3,2,-9.25,1.15,-0.8100000000000001,-1.42,-0.39,0.12
10.59223902225494,2,3,3,2,-9.210000000000001,0.28,-0.52,-1.45,-0.18,-0.26
10.6022390127182,2,3,3,2,-9.460000000000001,0.11,-0.46,-1.24,0.31,-0.36
10.61223900318146,2,3,3,2,-9.73,0.32,-0.33,-0.58,0.82,-0.47
10.62223899364471,2,3,3,2,-9.869999999999999,0.17,-0.35,0.06,1.1,-0.57
10.63223898410797,2,3,3,2,-9.869999999999999,-0.34,-0.14,0.37,1.23,-0.48
10.64223897457123,2,3,3,2,-9.890000000000001,-0.16,-0.2,0.5,1.45,-0.26
10.65223896503448,2,3,3,2,-9.9,-0.1,-0.3,0.66,1.21,0
10.66223895549774,2,3,3,2,-9.92,-0.13,-0.59,0.79,1.45,-0.15
10.672238945961,2,3,3,2,-9.77,0.24,-0.51,1.28,1.64,-0.22
10.68223893642426,2,3,3,2,-9.68,-0.02,-0.66,1.29,1.45,-0.14
10.69223892688751,2,3,3,2,-9.779999999999999,0.27,-0.59,1.13,1.43,-0.1
10.70223891735077,2,3,3,2,-9.92,0.11,-0.72,0.93,1.66,-0.26
10.71223890781403,2,3,3,2,-9.859999999999999,0.1,-0.99,0.66,1.67,-0.31
10.72223889827728,2,3,3,2,-9.83,0.1,-1.03,0.71,1.42,-0.14
10.73223912715912,2,3,3,2,-9.82,0.02,-1.24,0.62,1.29,0.01
10.74223911762238,2,3,3,2,-9.68,0.13,-1.24,0.8100000000000001,0.97,0.13
10.75223910808563,2,3,3,2,-9.74,0.49,-1.24,1.1,0.51,0.37
10.76223909854889,2,3,3,2,-9.77,0.5600000000000001,-1.15,1.3,0.43,0.36
10.77223908901215,2,3,3,2,-9.76,0.58,-1.09,1.3,0.42,0.39
10.7822390794754,2,3,3,2,-9.69,0.72,-1.05,1.14,0.47,0.59
10.79223906993866,2,3,3,2,-9.859999999999999,0.6,-0.87,1.14,0.68,0.82
10.80223906040192,2,3,3,2,-9.83,0.68,-0.73,1.38,0.9,0.9
10.81223905086517,2,3,3,2,-9.789999999999999,0.9,-0.83,1.65,1.12,0.91
10.82223904132843,2,3,3,2,-9.76,0.88,-0.96,1.54,1.44,0.85
10.83223903179169,2,3,3,2,-9.65,0.7,-0.67,1.67,1.83,0.71
10.8432389497757,2,3,3,2,-9.640000000000001,0.46,-0.63,1.48,2.09,0.63
10.85323894023895,2,3,3,2,-9.56,0.58,-0.62,0.92,2.16,0.62
10.86323893070221,2,3,3,2,-9.699999999999999,0.41,-0.8,0.4,2.12,0.63
10.87323892116547,2,3,3,2,-9.84,-0.14,-0.87,0.15,2.17,0.43
10.88323891162872,2,3,3,2,-9.869999999999999,-0.02,-0.89,0.08,2.07,0.34
10.89323890209198,2,3,3,2,-9.960000000000001,0.01,-0.86,-0.05,1.83,0.34
10.90323913097382,2,3,3,2,-9.83,0.05,-1,-0.11,1.68,0.25
10.91323912143707,2,3,3,2,-9.720000000000001,0.19,-0.98,0.02,1.43,0.29
10.92323911190033,2,3,3,2,-9.65,0.19,-0.91,0.07000000000000001,1.21,0.27
10.93323910236359,2,3,3,2,-9.68,0.15,-1,-0.01,1.09,0.15
10.94323909282684,2,3,3,2,-9.69,0,-1.13,-0.33,0.8,0.18
10.9532390832901,2,3,3,2,-9.720000000000001,0.06,-1.1,-0.37,0.51,0.1
10.96323907375336,2,3,3,2,-9.68,0.1,-1.14,0.11,0.5,0.05
10.97323906421661,2,3,3,2,-9.69,0.19,-1.23,0.39,0.51,0.24
10.98323905467987,2,3,3,2,-9.68,0.45,-0.95,0.5600000000000001,0.49,0.26
10.99323904514313,2,3,3,2,-9.65,0.64,-0.89,0.39,0.2,0.1
11.00323903560638,2,3,3,2,-9.59,0.75,-0.91,0.03,-0.18,-0.1
11.01323902606964,2,3,3,2,-9.6,0.78,-1.15,-0.5,-0.19,-0.21
11.0232390165329,2,3,3,2,-9.74,0.72,-1.28,-0.88,-0.15,-0.18
11.03323900699615,2,3,3,2,-9.76,0.61,-1.25,-0.82,-0.09,-0.17
11.04323899745941,2,3,3,2,-9.69,0.71,-1.22,-0.68,0.11,-0.09
11.05323898792267,2,3,3,2,-9.67,0.72,-1.27,-0.53,0.28,-0.06
11.06323897838593,2,3,3,2,-9.699999999999999,0.59,-1.34,-0.47,0.4,-0.01
11.07323896884918,2,3,3,2,-9.699999999999999,0.41,-1.39,-0.37,0.52,-0.03
11.08323895931244,2,3,3,2,-9.67,0.38,-1.39,-0.57,0.57,-0.02
11.0932389497757,2,3,3,2,-9.6,0.25,-1.35,-0.57,0.53,-0.01
11.10323894023895,2,3,3,2,-9.69,0.27,-1.32,-0.35,0.6899999999999999,-0.05
11.11323893070221,2,3,3,2,-9.67,0.34,-1.47,0,0.64,-0.13
11.12323892116547,2,3,3,2,-9.74,0.39,-1.51,0.09,0.59,-0.19
11.13323891162872,2,3,3,2,-9.800000000000001,0.54,-1.41,0.45,0.49,-0.24
11.14323890209198,2,3,3,2,-9.640000000000001,0.8,-1.11,0.63,0.24,-0.33
11.15323913097382,2,3,3,2,-9.66,0.9,-1.17,0.41,0.16,-0.33
11.16323912143707,2,3,3,2,-9.68,0.89,-1.4,-0.08,0.27,-0.29
11.17323911190033,2,3,3,2,-9.74,0.8,-1.6,-0.39,0.5,-0.22
11.18323910236359,2,3,3,2,-9.76,0.66,-1.55,-0.36,0.6899999999999999,-0.2
11.19323909282684,2,3,3,2,-9.73,0.55,-1.61,-0.29,0.7,-0.14
11.2032390832901,2,3,3,2,-9.630000000000001,0.47,-1.53,-0.19,0.53,-0.05
11.21323907375336,2,3,3,2,-9.6,0.44,-1.53,-0.07000000000000001,0.44,0.07000000000000001
11.22323906421661,2,3,3,2,-9.619999999999999,0.42,-1.36,-0.09,0.2,0.13
11.23323905467987,2,3,3,2,-9.67,0.46,-1.27,0.01,0.19,0.12
11.24323904514313,2,3,3,2,-9.68,0.52,-1.22,0.03,0.08,0.02
11.25323903560638,2,3,3,2,-9.65,0.45,-1.34,-0.02,0.01,-0.06
11.26323902606964,2,3,3,2,-9.720000000000001,0.36,-1.45,0.1,0.01,-0.08
11.2732390165329,2,3,3,2,-9.82,0.28,-1.51,0.23,0.23,-0.07000000000000001
11.28323900699615,2,3,3,2,-9.85,0.23,-1.55,0.32,0.18,-0.07000000000000001
11.29323899745941,2,3,3,2,-9.67,0.26,-1.37,0.75,0.01,-0.01
11.30323898792267,2,3,3,2,-9.6,0.28,-1.47,1.08,-0.04,0.08
11.31323897838593,2,3,3,2,-9.6,0.4,-1.4,1.28,-0.08,0.12
11.32323896884918,2,3,3,2,-9.65,0.46,-1.31,1.12,-0.06,0.17
11.33323895931244,2,3,3,2,-9.85,0.72,-1.28,0.82,-0.12,0.16
11.3432389497757,2,3,3,2,-9.869999999999999,0.74,-1.34,0.38,-0.14,0.14
11.35323894023895,2,3,3,2,-9.859999999999999,0.68,-1.4,0.23,-0.16,0.05
11.36323893070221,2,3,3,2,-9.789999999999999,0.66,-1.45,0.06,-0.13,0
11.37323892116547,2,3,3,2,-9.65,0.55,-1.48,-0.01,-0.15,0.02
11.38323891162872,2,3,3,2,-9.68,0.5,-1.46,-0.08,-0.05,0.11
11.39323890209198,2,3,3,2,-9.69,0.48,-1.42,-0.02,0.13,0.17
11.40323913097382,2,3,3,2,-9.720000000000001,0.54,-1.18,0.26,0.24,0.24
11.41323912143707,2,3,3,2,-9.69,0.53,-1.31,0.24,0.29,0.3
11.42323911190033,2,3,3,2,-9.75,0.48,-1.32,0.12,0.26,0.3
11.43323910236359,2,3,3,2,-9.800000000000001,0.38,-1.22,0.09,0.26,0.3
11.44323909282684,2,3,3,2,-9.789999999999999,0.22,-1.13,0.06,0.19,0.3
11.4532390832901,2,3,3,2,-9.74,-0.03,-1.07,0.06,0.05,0.34
11.46323907375336,2,3,3,2,-9.74,-0.06,-1.21,0.08,-0.04,0.3
11.47323906421661,2,3,3,2,-9.73,-0.03,-1.17,0.11,-0.19,0.27
11.48323905467987,2,3,3,2,-9.73,-0.01,-1.13,0.37,-0.23,0.16
11.49323904514313,2,3,3,2,-9.73,0.21,-1,0.6899999999999999,-0.17,0.08
11.50323903560638,2,3,3,2,-9.710000000000001,0.38,-1.07,0.8100000000000001,-0.18,-0.01
11.51323902606964,2,3,3,2,-9.609999999999999,0.53,-1.17,0.75,-0.21,-0.02
11.5232390165329,2,3,3,2,-9.550000000000001,0.51,-1.26,0.57,-0.3,-0.05
11.53323900699615,2,3,3,2,-9.619999999999999,0.44,-1.32,0.34,-0.21,-0.03
11.54323899745941,2,3,3,2,-9.619999999999999,0.29,-1.35,0.06,-0.14,-0.02
11.55323898792267,2,3,3,2,-9.65,0.21,-1.36,-0.02,-0.1,0.05
11.56323897838593,2,3,3,2,-9.710000000000001,0.27,-1.42,0.1,-0.12,0.06
11.57323896884918,2,3,3,2,-9.699999999999999,0.33,-1.32,0.17,-0.22,0.04
11.58323895931244,2,3,3,2,-9.720000000000001,0.44,-1.24,0.42,-0.29,-0.02
11.5932389497757,2,3,3,2,-9.73,0.52,-1.21,0.59,-0.29,-0.03
11.60323894023895,2,3,3,2,-9.630000000000001,0.7,-1.07,0.55,-0.35,-0.06
11.61323893070221,2,3,3,2,-9.65,0.67,-1.19,0.54,-0.22,-0.04
11.62323892116547,2,3,3,2,-9.699999999999999,0.66,-1.16,0.46,-0.08,-0.04
11.63323891162872,2,3,3,2,-9.74,0.59,-1.13,0.39,-0.09,-0.05
11.64323890209198,2,3,3,2,-9.75,0.57,-1.14,0.14,-0.08,0.01
11.65323913097382,2,3,3,2,-9.73,0.63,-1.25,-0.16,-0.06,0.01
11.66323912143707,2,3,3,2,-9.74,0.5600000000000001,-1.4,-0.21,-0.02,0.04
11.67323911190033,2,3,3,2,-9.75,0.57,-1.35,-0.2,0.11,-0.01
11.68323910236359,2,3,3,2,-9.67,0.58,-1.33,-0.14,0.17,-0.04
11.69323909282684,2,3,3,2,-9.609999999999999,0.58,-1.3,-0.09,0.15,-0.04
11.7032390832901,2,3,3,2,-9.630000000000001,0.59,-1.27,-0.03,0.1,0.04
11.71323907375336,2,3,3,2,-9.66,0.63,-1.35,-0.03,0.11,0.09
11.72323906421661,2,3,3,2,-9.69,0.54,-1.38,0,0.2,0.08
11.73323905467987,2,3,3,2,-9.699999999999999,0.48,-1.35,0.11,0.28,0.08
11.74323904514313,2,3,3,2,-9.710000000000001,0.45,-1.35,0.22,0.27,0.11
11.75323903560638,2,3,3,2,-9.73,0.44,-1.31,0.36,0.32,0.15
11.76323902606964,2,3,3,2,-9.73,0.5,-1.31,0.45,0.27,0.12
11.7732390165329,2,3,3,2,-9.68,0.34,-1.35,0.5,0.27,0.11
11.78323900699615,2,3,3,2,-9.68,0.49,-1.31,0.45,0.29,0.12
11.79323899745941,2,3,3,2,-9.69,0.54,-1.26,0.49,0.26,0.15
11.80323898792267,2,3,3,2,-9.75,0.6899999999999999,-1.19,0.34,0.24,0.16
11.81323897838593,2,3,3,2,-9.710000000000001,0.58,-1.32,0.27,0.22,0.18
11.82323896884918,2,3,3,2,-9.710000000000001,0.54,-1.38,0.05,0.22,0.21
11.83323895931244,2,3,3,2,-9.699999999999999,0.61,-1.19,0.11,0.21,0.17
11.8432389497757,2,3,3,2,-9.75,0.5,-1.23,-0.14,0.12,0.2
11.85323894023895,2,3,3,2,-9.720000000000001,0.52,-1.17,0.16,0.09,0.19
11.86423909664154,2,3,3,2,-9.720000000000001,0.45,-1.24,0.12,0.08,0.15
11.8742390871048,2,3,3,2,-9.59,0.6,-1.21,-0.06,0.03,0.13
11.88423907756805,2,3,3,2,-9.619999999999999,0.5,-1.32,-0.05,0,0.15
11.89423906803131,2,3,3,2,-9.710000000000001,0.49,-1.22,-0.12,0.16,0.13
11.90423905849457,2,3,3,2,-9.74,0.41,-1.27,-0.14,0.08,0.15
11.91423904895782,2,3,3,2,-9.74,0.4,-1.32,-0.16,0.01,0.15
11.92423903942108,2,3,3,2,-9.699999999999999,0.38,-1.23,-0.04,-0.01,0.17
11.93423902988434,2,3,3,2,-9.74,0.37,-1.16,-0.04,-0.01,0.23
11.9442390203476,2,3,3,2,-9.75,0.42,-1.09,0.05,-0.06,0.17
11.95423901081085,2,3,3,2,-9.76,0.58,-0.96,-0.04,-0.16,0.13
11.96423900127411,2,3,3,2,-9.710000000000001,0.54,-1.06,-0.32,-0.27,0.08
11.97423899173737,2,3,3,2,-9.710000000000001,0.4,-1.14,-0.62,-0.25,0.02
11.98423898220062,2,3,3,2,-9.73,0.33,-1.27,-0.8100000000000001,-0.18,-0.03
11.99423897266388,2,3,3,2,-9.800000000000001,0.21,-1.23,-0.68,-0.25,-0.09
12.00423896312714,2,3,3,2,-9.74,0.16,-1.2,-0.68,-0.39,-0.08
12.01423895359039,2,3,3,2,-9.66,0.15,-1.42,-0.86,-0.58,0.02
12.02423894405365,2,3,3,2,-9.66,0.27,-1.43,-0.5600000000000001,-0.46,0.05
12.03423893451691,2,3,3,2,-9.630000000000001,0.43,-1.1,-0.24,-0.43,0.02
12.04423892498016,2,3,3,3,-9.67,0.38,-1.08,-0.21,-0.38,0.11
12.05423891544342,2,3,3,3,-9.710000000000001,0.43,-1.19,-0.08,-0.19,0.15
12.06423890590668,2,3,3,3,-9.75,0.52,-1.33,0.13,0.01,0.17
12.07423889636993,2,3,3,3,-9.74,0.58,-1.48,0.2,0.08,0.1
12.08423912525177,2,3,3,3,-9.699999999999999,0.5600000000000001,-1.45,0.18,0.09,0.03
12.09423911571503,2,3,3,3,-9.630000000000001,0.57,-1.47,0.32,0.07000000000000001,0.05
12.10423910617828,2,3,3,3,-9.57,0.5600000000000001,-1.56,0.41,0.02,0.14
12.11423909664154,2,3,3,3,-9.609999999999999,0.64,-1.57,0.5,0,0.29
12.1242390871048,2,3,3,3,-9.640000000000001,0.74,-1.54,0.44,-0.09,0.37
12.13423907756805,2,3,3,3,-9.609999999999999,0.84,-1.47,0.42,-0.1,0.43
12.14423906803131,2,3,3,3,-9.640000000000001,0.87,-1.5,0.58,0.08,0.39
12.15423905849457,2,3,3,3,-9.74,0.92,-1.49,0.6899999999999999,0.15,0.34
12.16423904895782,2,3,3,3,-9.720000000000001,0.97,-1.53,0.6899999999999999,0.19,0.38
12.17423903942108,2,3,3,3,-9.69,0.8100000000000001,-1.51,0.6899999999999999,0.24,0.44
12.18423902988434,2,3,3,3,-9.68,0.82,-1.51,0.79,0.36,0.51
12.1942390203476,2,3,3,3,-9.65,0.75,-1.27,0.78,0.3,0.58
12.20423901081085,2,3,3,3,-9.74,0.65,-1.11,0.75,0.27,0.6
12.21423900127411,2,3,3,3,-9.779999999999999,0.73,-1.13,0.63,0.21,0.53
12.22423899173737,2,3,3,3,-9.710000000000001,0.7,-1.14,0.4,-0.01,0.38
12.23423898220062,2,3,3,3,-9.699999999999999,0.7,-1.08,0.16,0,0.25
12.24423897266388,2,3,3,3,-9.710000000000001,0.62,-1.14,-0.04,0.02,0.13
12.25423896312714,2,3,3,3,-9.720000000000001,0.62,-1.19,-0.22,0.07000000000000001,0.12
12.26423895359039,2,3,3,3,-9.710000000000001,0.62,-1.43,-0.22,0.09,0.15
12.27423894405365,2,3,3,3,-9.67,0.61,-1.39,-0.23,0.09,0.15
12.28423893451691,2,3,3,3,-9.65,0.62,-1.43,-0.19,0.01,0.16
12.29423892498016,2,3,3,3,-9.619999999999999,0.73,-1.38,-0.2,-0.09,0.19
12.30423891544342,2,3,3,3,-9.69,0.84,-1.35,-0.12,-0.07000000000000001,0.18
12.31423890590668,2,3,3,3,-9.710000000000001,0.92,-1.46,-0.02,-0.08,0.15
12.32423889636993,2,3,3,3,-9.75,0.93,-1.39,-0.18,0,0.15
12.33423912525177,2,3,3,3,-9.74,0.95,-1.36,-0.28,0.05,0.09
12.34423911571503,2,3,3,3,-9.68,0.83,-1.51,-0.31,0.18,0.04
12.35423910617828,2,3,3,3,-9.630000000000001,0.93,-1.53,-0.26,0.2,-0.02
12.36423909664154,2,3,3,3,-9.56,0.82,-1.64,-0.22,0.06,0.05
12.3742390871048,2,3,3,3,-9.51,0.73,-1.58,-0.13,0.03,0.17
12.38423907756805,2,3,3,3,-9.550000000000001,0.82,-1.45,0.02,0.04,0.28
12.39423906803131,2,3,3,3,-9.630000000000001,0.95,-1.34,0.08,0.04,0.36
12.40423905849457,2,3,3,3,-9.68,1.06,-1.22,0.04,0.08,0.29
12.41423904895782,2,3,3,3,-9.74,1.07,-1.29,-0.12,0.2,0.21
12.42423903942108,2,3,3,3,-9.66,0.97,-1.28,-0.4,0.22,0.08
12.43423902988434,2,3,3,3,-9.66,0.8100000000000001,-1.35,-0.58,0.26,0.02
12.4442390203476,2,3,3,3,-9.68,0.74,-1.41,-0.72,0.28,0.08
12.45423901081085,2,3,3,3,-9.710000000000001,0.6899999999999999,-1.37,-0.6899999999999999,0.17,0.17
12.46423900127411,2,3,3,3,-9.69,0.5600000000000001,-1.45,-0.42,0.18,0.22
12.47423899173737,2,3,3,3,-9.640000000000001,0.51,-1.34,-0.18,0.15,0.26
12.48423898220062,2,3,3,3,-9.630000000000001,0.54,-1.23,-0.06,0.08,0.29
12.49423897266388,2,3,3,3,-9.65,0.55,-1.16,0.08,0.07000000000000001,0.37
12.50423896312714,2,3,3,3,-9.73,0.5600000000000001,-1.13,0.11,0.11,0.28
12.51423895359039,2,3,3,3,-9.77,0.51,-1.22,-0.1,0.02,0.18
12.52423894405365,2,3,3,3,-9.74,0.33,-1.26,-0.24,0.02,0.16
12.53423893451691,2,3,3,3,-9.800000000000001,0.17,-1.21,-0.24,0.01,0.09
12.54423892498016,2,3,3,3,-9.800000000000001,0.09,-1.23,-0.22,-0.08,0.11
12.55423891544342,2,3,3,3,-9.779999999999999,0.1,-1.32,-0.14,-0.19,0.17
12.56423890590668,2,3,3,3,-9.77,0.16,-1.31,0.09,-0.35,0.26
12.57423889636993,2,3,3,3,-9.69,0.24,-1.23,0.39,-0.37,0.28
12.58423912525177,2,3,3,3,-9.74,0.32,-1.15,0.72,-0.28,0.33
12.59423911571503,2,3,3,3,-9.76,0.47,-1.16,0.75,-0.3,0.23
12.60423910617828,2,3,3,3,-9.74,0.54,-1.25,0.4,-0.48,0.18
12.61423909664154,2,3,3,3,-9.699999999999999,0.47,-1.49,0.33,-0.46,0.19
12.6242390871048,2,3,3,3,-9.67,0.53,-1.44,0.36,-0.49,0.18
12.63423907756805,2,3,3,3,-9.58,0.5,-1.5,0.34,-0.49,0.21
12.64423906803131,2,3,3,3,-9.539999999999999,0.53,-1.6,0.2,-0.49,0.35
12.65423905849457,2,3,3,3,-9.73,0.68,-1.55,0.23,-0.49,0.57
12.66423904895782,2,3,3,3,-9.77,0.6899999999999999,-1.45,0.37,-0.45,0.63
12.67423903942108,2,3,3,3,-9.76,0.72,-1.38,0.5,-0.5,0.64
12.68423902988434,2,3,3,3,-9.74,0.8100000000000001,-1.36,0.4,-0.52,0.6
12.6942390203476,2,3,3,3,-9.65,0.73,-1.38,0.25,-0.48,0.57
12.70423901081085,2,3,3,3,-9.699999999999999,0.67,-1.49,-0.06,-0.37,0.64
12.71423900127411,2,3,3,3,-9.720000000000001,0.5600000000000001,-1.54,-0.06,-0.38,0.74
12.72423899173737,2,3,3,3,-9.710000000000001,0.45,-1.55,-0.12,-0.42,0.85
12.73423898220062,2,3,3,3,-9.67,0.55,-1.35,-0.3,-0.55,0.87
12.74423897266388,2,3,3,3,-9.59,0.51,-1.31,-0.37,-0.84,0.9
12.75423896312714,2,3,3,3,-9.619999999999999,0.51,-1.3,-0.3,-0.92,0.9
12.76423895359039,2,3,3,3,-9.67,0.65,-1.32,-0.43,-0.92,0.77
12.77423894405365,2,3,3,3,-9.73,0.8100000000000001,-1.26,-0.68,-1.08,0.75
12.78423893451691,2,3,3,3,-9.73,0.83,-1.24,-1.02,-1.01,0.72
12.79423892498016,2,3,3,3,-9.74,0.77,-1.26,-1.7,-1.1,0.73
12.80423891544342,2,3,3,3,-9.75,0.64,-1.28,-1.96,-1.06,0.78
12.81423890590668,2,3,3,3,-9.73,0.44,-1.46,-1.75,-0.91,0.91
12.82423889636993,2,3,3,3,-9.76,0.42,-1.37,-1.82,-0.79,1.05
12.83423912525177,2,3,3,3,-9.75,0.45,-1.17,-2.13,-0.83,1.15
12.84423911571503,2,3,3,3,-9.66,0.35,-1.15,-2.12,-0.93,1.45
12.85423910617828,2,3,3,3,-9.74,0.03,-1.13,-1.75,-0.68,1.58
12.86423909664154,2,3,3,3,-9.699999999999999,-0.06,-1.13,-1.55,-0.59,1.6
12.8742390871048,2,3,3,3,-9.65,-0.13,-1.01,-1.52,-0.79,1.68
12.88423907756805,2,3,3,3,-9.699999999999999,-0.24,-0.67,-1.38,-0.98,1.7
12.89523899555206,2,3,3,3,-9.640000000000001,-0.39,-0.63,-1.38,-1.2,1.7
12.90523898601532,2,3,3,3,-9.6,-0.52,-0.51,-1.42,-1.38,1.65
12.91523897647858,2,3,3,3,-9.59,-0.7,-0.5,-1.2,-1.44,1.61
12.92523896694183,2,3,3,3,-9.630000000000001,-1.15,-0.25,-0.73,-1.38,1.71
12.93523895740509,2,3,3,3,-9.68,-1.35,-0.14,-0.35,-1.25,1.78
12.94523894786835,2,3,3,3,-9.74,-1.51,-0.06,-0.23,-1.21,1.71
12.9552389383316,2,3,3,3,-9.83,-1.69,-0.02,-0.25,-1.2,1.72
12.96523892879486,2,3,3,3,-10.14,-2,-0.1,-0.2,-1.21,1.56
12.97523891925812,2,3,3,3,-10.24,-2.19,-0.06,-0.11,-1.33,1.23
12.98523890972137,2,3,3,3,-10.31,-2.33,0.01,-0.06,-1.68,0.79
12.99523890018463,2,3,3,3,-10.39,-2.5,0.04,0.13,-1.97,0.32
13.00523912906647,2,3,3,3,-10.59,-2.68,0.04,0.4,-2.28,-0.15
13.01523911952972,2,3,3,3,-10.56,-2.79,0.24,0.38,-2.93,-0.65
13.02523910999298,2,3,3,3,-10.53,-3.01,0.43,0.09,-3.78,-1.1
13.03523910045624,2,3,3,3,-10.65,-3.38,0.28,-0.04,-4.29,-1.44
13.04523909091949,2,3,3,3,-11.16,-4,1.1,0.16,-4.88,-1.69
13.05523908138275,2,3,3,3,-11.35,-3.91,1.22,0.62,-5.78,-1.48
13.06523907184601,2,3,3,3,-11.53,-3.85,0.75,2.49,-6.6,-0.92
13.07523906230927,2,3,3,3,-11.58,-3.56,0.07000000000000001,3.99,-7.05,-0.8
13.08523905277252,2,3,3,3,-11.55,-2.89,-0.05,4.35,-6.51,-1.18
13.09523904323578,2,3,3,3,-11.29,-2.9,-0.44,3.37,-5.33,-1.93
13.10523903369904,2,3,3,3,-11.44,-2.9,-1.07,3.17,-4.08,-2.09
13.11523902416229,2,3,3,3,-11.79,-2.58,-1.48,4.84,-4.11,-2.2
13.12523901462555,2,3,3,3,-11.76,-0.71,-1.32,6.26,-5.18,-2.78
13.13523900508881,2,3,3,3,-11.28,0.5,-1.16,6.51,-5.99,-3.61
13.14523899555206,2,3,3,3,-10.69,1.26,-1.24,5.77,-6.18,-4.5
13.15523898601532,2,3,3,3,-10.19,1.48,-0.5,5.21,-5.56,-5.43
13.16523897647858,2,3,3,3,-10.21,0.99,-0.8100000000000001,3.95,-3.9,-6.37
13.17523896694183,2,3,3,3,-11.11,2.41,-0.62,4,-2.09,-5.69
13.18523895740509,2,3,3,3,-11.36,2.55,-0.72,5.08,-1.7,-4.52
13.19523894786835,2,3,3,3,-10.94,3.18,-0.83,5.61,-1.07,-4.62
13.2052389383316,2,3,3,3,-10.62,3.73,-0.99,6.26,-1.06,-4.86
13.21523892879486,2,3,3,3,-10.26,4.07,-1.07,6.23,-1.63,-5.06
13.22523891925812,2,3,3,3,-9.76,3.99,-1.1,5.41,-2.22,-5.7
13.23523890972137,2,3,3,3,-9.029999999999999,3.07,-0.98,4.17,-1.75,-6.89
13.24523890018463,2,3,3,3,-8.67,3.06,-0.91,3.12,-1.3,-8.109999999999999
13.25523912906647,2,3,3,3,-8.42,2.91,-1.07,3.06,-1.35,-8.84
13.26523911952972,2,3,3,3,-8.32,2.63,-1.39,3.17,-1.26,-9.289999999999999
13.27523910999298,2,3,3,3,-8.300000000000001,1.67,-1.25,3.39,-1.17,-9.74
13.28523910045624,2,3,3,3,-8.43,1.27,-1.2,3.59,-1.17,-10.11
13.29523909091949,2,3,3,3,-8.609999999999999,0.82,-1.13,4.01,-1.16,-10.51
13.30523908138275,2,3,3,3,-8.710000000000001,0.55,-1.03,4.83,-1.35,-10.85
13.31523907184601,2,3,3,3,-8.73,0.17,-0.9,6.69,-1.41,-11.62
13.32523906230927,2,3,3,3,-8.74,0.11,-0.73,7.72,-1.48,-11.96
13.33523905277252,2,3,3,3,-8.69,0.2,-0.48,7.72,-1.48,-11.96
13.34523904323578,2,3,3,3,-8.66,0.22,-0.2,8.76,-1.62,-12.15
13.35523903369904,2,3,3,3,-8.720000000000001,0.25,-0.03,10.52,-0.8,-12.61
13.36523902416229,2,3,3,3,-8.630000000000001,0.38,0,10.75,-0.24,-12.76
13.37523901462555,2,3,3,3,-8.59,0.49,0.09,10.37,0.55,-12.82
13.38523900508881,2,3,3,3,-8.57,0.58,0.17,10.37,0.55,-12.82
13.39523899555206,2,3,3,3,-8.619999999999999,0.59,0.58,9.98,1.79,-12.92
13.40523898601532,2,3,3,3,-8.58,0.5,0.9399999999999999,8.98,3.89,-12.42
13.41523897647858,2,3,3,3,-8.49,0.45,0.99,8.76,4.86,-11.54
13.42523896694183,2,3,3,3,-8.300000000000001,0.58,1.09,8.77,5.75,-10.24
13.43523895740509,2,3,3,3,-7.98,0.25,0.9,8.77,5.75,-10.24
13.44523894786835,2,3,3,3,-7.75,-0.42,1.17,8.74,6.46,-8.81
13.4552389383316,2,3,3,3,-7.46,-1.59,1.45,4,7.38,-5.24
13.46523892879486,2,3,3,3,-7.58,-2.86,1.46,1.55,6.95,-3.66
13.47523891925812,2,3,3,3,-8.59,-3.73,2,0.62,4.43,-2.08
13.48523890972137,2,3,3,3,-8.6,-4.17,2.61,0.62,4.43,-2.08
13.49523890018463,2,3,3,3,-8.49,-4.89,3.01,-1.05,1.72,-0.71
13.50523912906647,2,3,3,3,-8.619999999999999,-6.3,3.23,-3.79,-0.19,0.27
13.51523911952972,2,3,3,3,-9.51,-7.27,3.45,-4.85,-0.1,-0.35
13.52523910999298,2,3,3,3,-10.15,-7.77,3.92,-4.52,0.5600000000000001,-1.63
13.53523910045624,2,3,3,3,-10.62,-8.33,4.07,-4.52,0.5600000000000001,-1.63
13.54523909091949,2,3,3,3,-10.69,-9.380000000000001,3.47,-2.16,0.76,-3.21
13.55523908138275,2,3,3,3,-10.37,-8.68,3.02,4.29,-0.62,-5.58
13.56523907184601,2,3,3,3,-9.82,-7.15,2.25,5.2,-1.72,-6.01
13.57523906230927,2,3,3,3,-9.119999999999999,-5.75,1.27,4.34,-3.07,-5.72
13.58523905277252,2,3,3,3,-8.17,-2.13,0.64,4.34,-3.07,-5.72
13.59523904323578,2,3,3,3,-7.47,0.6899999999999999,-0.34,-0.33,-5.74,-2.83
13.60523903369904,2,3,3,3,-8.630000000000001,1.33,-1.1,-2.86,-6.2,7.01
13.61523902416229,2,3,3,3,-11.75,-0.17,-0.07000000000000001,-2.02,-6.85,7.63
13.62523901462555,2,3,3,3,-14.89,-7.07,3.16,2.35,-12.58,7.52
13.63523900508881,2,3,3,3,-13.04,-5.81,2.54,2.35,-12.58,7.52
13.64523899555206,2,3,3,2,-10.48,-1.37,1.53,6.92,-11.28,6.4
13.65523898601532,2,3,3,2,-8.710000000000001,1.95,1.03,4.06,7.17,2.93
13.66523897647858,2,3,3,2,-8.34,2.51,-2.86,3.81,8.94,2.32
13.67523896694183,2,3,3,2,-8.25,2.47,-3.8,2.51,5.35,3.53
13.68523895740509,2,3,3,2,-8.18,2.55,-4.86,2.51,5.35,3.53
13.69523894786835,2,3,3,2,-9.01,3.51,-4.39,3.88,5.72,4.86
13.7052389383316,2,3,3,2,-10.36,3.22,-0.73,1.13,4.82,5.73
13.71523892879486,2,3,3,2,-9.789999999999999,2.28,-0.51,-1.96,4.33,7.4
13.72523891925812,2,3,3,2,-9.92,1.78,-1.17,-2.55,7.62,8.529999999999999
13.73623907566071,2,3,3,2,-10.94,2.2,-1.22,-2.55,7.62,8.529999999999999
13.74523890018463,2,3,3,2,-10.81,3.14,-0.67,-3.62,7.48,8.720000000000001
13.75523912906647,2,3,3,2,-9.93,2.02,-1,-7.17,5.78,7.25
13.76523911952972,2,3,3,2,-9.43,0.99,-0.7,-8.66,5.96,6.65
13.79523909091949,2,3,3,2,-9.73,-0.63,-2.95,-8.02,5.86,6.3
13.80523908138275,2,3,3,2,-9.81,-0.72,-3.09,-6.07,5.22,6.94
13.81523907184601,2,3,3,2,-9.85,-0.6,-3.51,-4.89,5.29,7.24
13.82523906230927,2,3,3,2,-9.82,-0.05,-3.29,-3.59,5.49,7.39
13.83523905277252,2,3,3,2,-9.869999999999999,0.32,-2.77,-3.59,5.49,7.39
13.84523904323578,2,3,3,2,-10.04,0.32,-2.8,-3.09,5.79,7.62
13.85523903369904,2,3,3,2,-10.31,0.44,-2.55,-1.42,6.41,7.9
13.86523902416229,2,3,3,2,-10.19,0.78,-1.92,-1.37,6.47,7.9
13.87523901462555,2,3,3,2,-9.960000000000001,0.55,-1.73,-1.1,6.85,8.15
13.88523900508881,2,3,3,2,-9.720000000000001,0.5,-1.43,-1.1,6.85,8.15
13.89523899555206,2,3,3,2,-9.52,0.05,-2,-1.45,7.21,8.56
13.90523898601532,2,3,3,2,-9.630000000000001,0.16,-2,-1.15,8.07,8.99
13.91623890399933,2,3,3,2,-9.76,0.33,-1.92,-1.7,8.24,8.94
13.92623913288116,2,3,3,2,-9.720000000000001,0.42,-1.94,-2.61,8.4,8.789999999999999
13.93623912334442,2,3,3,2,-9.390000000000001,0.26,-2.04,-2.61,8.4,8.789999999999999
13.94623911380768,2,3,3,2,-9.300000000000001,0.12,-2.12,-3.31,8.69,8.609999999999999
13.95623910427094,2,3,3,2,-9.34,-0.05,-2.31,-4.21,9.52,8.16
13.96623909473419,2,3,3,2,-9.48,-0.12,-2.37,-4.29,9.640000000000001,8
13.97623908519745,2,3,3,2,-9.640000000000001,-0.17,-2.25,-4.35,9.52,7.95
13.98623907566071,2,3,3,2,-9.67,-0.18,-2.29,-4.35,9.52,7.95
13.99623906612396,2,3,3,2,-9.56,0.12,-2.21,-4.07,9.15,8.19
14.00623905658722,2,3,3,2,-9.49,0.53,-2.19,-3.1,8.77,9.26
14.01623904705048,2,3,3,2,-9.41,0.95,-2.42,-3.17,8.68,9.67
14.02623903751373,2,3,3,2,-9.369999999999999,0.92,-2.56,-3.53,8.710000000000001,9.84
14.03623902797699,2,3,3,2,-9.359999999999999,0.8100000000000001,-2.49,-3.53,8.710000000000001,9.84
14.04623901844025,2,3,3,2,-9.359999999999999,0.59,-2.24,-4.3,8.67,10.19
14.0562390089035,2,3,3,2,-9.550000000000001,-0.07000000000000001,-2.03,-6.7,7.74,11.88
14.06623899936676,2,3,3,2,-9.960000000000001,-0.53,-1.94,-7.07,6.92,12.18
14.07623898983002,2,3,3,2,-10.14,-0.66,-1.51,-5.95,6.08,12.03
14.08623898029327,2,3,3,1,-9.92,-0.79,-1.12,-5.95,6.08,12.03
14.09623897075653,2,3,3,1,-9.58,-1.56,-1.15,-4.55,5.78,11.32
14.10623896121979,2,3,3,1,-9.58,-1.82,-0.92,-2.2,5,9.84
14.11623895168304,2,3,3,1,-9.779999999999999,-2.1,-0.75,-2.24,4.55,9.890000000000001
14.1262389421463,2,3,3,1,-10.12,-2.17,-0.64,-2.67,4.1,9.949999999999999
14.13623893260956,2,3,3,1,-10.59,-2.15,-0.28,-2.67,4.1,9.949999999999999
14.14623892307281,2,3,3,1,-10.63,-2.31,-0.29,-3.4,3.88,9.69
14.15623891353607,2,3,3,1,-10.61,-2.79,-0.59,-5.39,3.73,7.96
14.16623890399933,2,3,3,1,-10.67,-3.15,-1,-5.48,3.45,6.63
14.17623913288116,2,3,3,1,-10.67,-3.98,-1.39,-4.83,2.87,5.87
14.18623912334442,2,3,3,1,-10.68,-3.95,-1.64,-4.83,2.87,5.87
14.19623911380768,2,3,3,1,-10.51,-3.23,-1.82,-3.17,1.95,6
14.20623910427094,2,3,3,1,-10.57,-2.22,-1.77,-1.69,0.6899999999999999,6.84
14.21623909473419,2,3,3,1,-10.67,-1.22,-1.68,-2.06,0.19,7.27
14.22623908519745,2,3,3,1,-10.67,-1.22,-1.68,-2.6,-0.08,7.63
14.24623906612396,2,3,3,1,-12.21,-2.08,-1.28,-3.74,-0.23,7.57
14.25623905658722,2,3,3,1,-12.85,-3.04,-0.66,-6.8,-1.33,6.02
14.26623904705048,2,3,3,1,-13.32,-4.32,0.25,-7.64,-2.65,4.76
14.27623903751373,2,3,3,1,-13.09,-7.19,2.66,-8.17,-4.54,3.56
14.28623902797699,2,3,3,1,-13.09,-7.19,2.66,-8.17,-4.54,3.56
14.29623901844025,2,3,3,1,-14.3,-7.38,3.4,-7.84,-6.56,2.87
14.3062390089035,2,3,3,1,-13.76,-4.35,5.21,-10.08,-12.56,0.1
14.31623899936676,2,3,3,1,-12.8,-3.42,4.93,-10.23,-13.05,1.17
14.32623898983002,2,3,3,1,-11.19,-1.63,2.2,-10.64,-11.96,0.75
14.33623898029327,2,3,3,0,-10.67,-0.73,-0.48,-10.64,-11.96,0.75
14.34623897075653,2,3,3,0,-10.68,-0.55,-3.04,-8.59,-10.72,-0.16
14.35623896121979,2,3,3,0,-10.7,-1.11,-4.73,-4.56,-6.22,-5.25
14.36623895168304,3,3,3,0,-11.48,-1.74,-3.85,-4.9,-4.66,-7.35
14.3762389421463,3,3,3,0,-13.02,-0.26,-3.9,-3.51,-4.2,-7.94
14.38623893260956,3,3,3,0,-13.95,3.25,-3.79,-3.51,-4.2,-7.94
14.39623892307281,3,3,3,0,-14.33,4.54,-3.11,1.28,-4.19,-8.94
14.40623891353607,3,3,3,0,-13.98,4.15,-2.63,1.78,-3.61,-8.609999999999999
14.41623890399933,3,3,3,0,-14.54,5.31,-2.99,1.3,-4.79,-8.869999999999999
14.42623913288116,3,3,3,0,-14.4,6.35,-3.68,0.08,-6.88,-9.57
14.43623912334442,3,3,3,0,-14.4,6.35,-3.68,0.08,-6.88,-9.57
14.44623911380768,3,3,3,0,-13.16,6.12,-4.27,-1.16,-8.01,-10.6
14.45623910427094,3,3,3,0,-11.84,5.31,-4.17,-1.33,-7.09,-14.42
14.46623909473419,3,3,3,0,-11.31,5.53,-4.23,0.06,-6.9,-16.21
14.47623908519745,3,3,3,0,-10.37,6.18,-4.14,1.48,-7.18,-17.11
14.48623907566071,3,3,3,0,-10.37,6.18,-4.14,1.48,-7.18,-17.11
14.49623906612396,3,3,3,0,-10.09,6.37,-4.01,2.62,-7.36,-17.76
14.50623905658722,3,3,3,0,-8.91,6,-3.66,3.91,-8.18,-19.39
14.51623904705048,3,3,3,0,-8.66,5.89,-3.71,3.75,-8.48,-20.06
14.52623903751373,3,3,3,0,-8.300000000000001,5.79,-3.54,3.89,-8.460000000000001,-20.7
14.53623902797699,3,3,3,0,-8.300000000000001,5.79,-3.54,3.89,-8.460000000000001,-20.7
14.54623901844025,3,3,3,0,-7.8,5.59,-3.46,4.56,-8.41,-21.47
14.5562390089035,3,3,3,0,-6.79,5.63,-2.86,7.55,-7.99,-22.21
14.56623899936676,3,3,3,0,-6.5,5.54,-2.55,9.17,-8.029999999999999,-21.96
14.57623898983002,3,3,3,0,-6.25,5.57,-2.3,10.17,-7.72,-21.56
14.58623898029327,3,3,3,1,-6.25,5.57,-2.3,10.17,-7.72,-21.56
14.59623897075653,3,3,3,1,-5.66,5.67,-1.74,10.54,-7.21,-21.21
14.60623896121979,3,3,3,1,-4.88,5.88,-1.31,11.77,-5.09,-20.25
14.61623895168304,3,3,3,1,-4.5,5.87,-1.43,10.46,-2.92,-18.56
14.6262389421463,3,3,3,1,-4.36,5.45,-1.54,8.32,-0.88,-16.34
14.63623893260956,3,3,3,1,-4.36,5.45,-1.54,5.2,0.8100000000000001,-14.66
14.64623892307281,3,3,3,1,-4.67,4.34,-1.32,1.91,1.97,-13.85
14.65623891353607,3,3,3,1,-5.49,2.63,-1.89,0.31,2.66,-13.99
14.66623890399933,3,3,3,1,-5.44,1.47,-1.59,1.8,2.34,-14.96
14.67623913288116,3,3,3,1,-5.39,0.54,-0.48,4.6,2.7,-16.06
14.68623912334442,3,3,3,1,-5.39,0.54,-0.48,6.91,3.98,-16.11
14.69623911380768,3,3,3,1,-5.68,-0.5,0.43,9.49,5.1,-14.85
14.70623910427094,3,3,3,1,-8.630000000000001,-3.94,3.72,11.29,5.32,-13.04
14.71623909473419,3,3,3,1,-9.43,-5.39,4.23,10.2,4.42,-11.23
14.72623908519745,3,3,3,1,-10.13,-6.61,3.36,8.02,3.54,-8.92
14.73623907566071,3,3,3,1,-10.13,-6.61,3.36,6.62,1.67,-6.34
14.74623906612396,3,3,3,1,-10.65,-6.92,2.32,4.81,-2.63,-4.74
14.75623905658722,3,3,3,1,-12.68,-12.18,4.26,2.86,-7.75,-4.57
14.76623904705048,3,3,3,1,-12.56,-13.53,5.14,2.64,-10.75,-4.61
14.77623903751373,3,3,3,1,-11.79,-13.06,4.92,2.91,-9.539999999999999,-4.85
14.78623902797699,3,3,3,1,-9.94,-8.57,2.89,3.83,-6.06,-6.12
14.79623901844025,3,3,3,1,-9.94,-8.57,2.89,5.29,-5,-8
14.8062390089035,3,3,3,1,-8.550000000000001,-3.01,1.06,6.49,-5.82,-9.539999999999999
14.81623899936676,3,3,3,1,-9.029999999999999,0.34,0.16,4.25,-5.94,-8.76
14.82623898983002,3,3,3,1,-12.02,-3.25,-4.37,-0.25,-4.04,-7.4
14.83623898029327,3,3,3,1,-12.02,-3.25,-4.37,-3,-1.39,-8.130000000000001
14.84623897075653,3,3,3,1,-12.15,7,-2.78,-16.18,-11.46,2.13
14.85623896121979,3,3,3,1,-11.21,0.05,1.76,-11.1,-22.54,9.6
14.86623895168304,3,3,3,1,-10.82,-6.73,5.68,0.58,-18.22,12.15
14.8762389421463,3,3,3,1,-13.54,-7.25,3.65,9.27,-0.27,9.699999999999999
14.88623893260956,3,3,3,1,-13.37,-3.66,0.2,10.51,3.63,7.08
14.89623892307281,3,3,3,1,-11.1,4.47,0.32,5.91,6.89,4.31
14.90623891353607,3,3,3,1,-9.470000000000001,6.98,-0.96,5.31,11.36,2.78
14.91623890399933,3,3,3,1,-8.17,7.01,-1.36,3.02,7.99,2.64
14.92623913288116,3,3,3,1,-7.33,5.25,-2.58,0,4.94,4.05
14.93723905086517,3,3,3,1,-8.390000000000001,3.52,-4.46,-1.4,5.67,6.15
14.94723904132843,3,3,3,1,-9.68,4.17,-5.49,-2.27,10.51,7.15
14.95723903179169,3,3,3,1,-10.58,3.87,-5.94,-3.08,11.65,7.98
14.96723902225494,3,3,3,1,-10.56,3.07,-5.09,-3.65,5.36,9.16
14.9772390127182,3,3,3,1,-10.42,2.87,-4.29,-3.43,3.14,10.18
14.98723900318146,3,3,3,1,-11.27,2.94,-4.38,-3.07,8.52,10.39
14.99723899364471,3,3,3,1,-11.21,3,-3.58,-2.94,9.25,9.69
15.00723898410797,3,3,3,1,-10.21,1.79,-3.67,-4.45,6.51,8.52
15.01723897457123,3,3,3,1,-10.09,0.58,-3.32,-4.02,6.61,8.470000000000001
15.02723896503448,3,3,3,1,-10.87,0.71,-2.4,-2.51,8.550000000000001,8.550000000000001
15.03723895549774,3,3,3,1,-11.24,0.8100000000000001,-2.12,-2.72,8.199999999999999,8.91
15.047238945961,3,3,3,1,-11.11,0.64,-2.14,-2.94,6.95,9.84
15.05723893642426,3,3,3,1,-10.83,0.88,-2.71,-2.44,6.89,10.3
15.06723892688751,3,3,3,1,-10.42,1.16,-2.69,-1.4,6.61,10.39
15.07723891735077,3,3,3,1,-10.04,1.26,-2.81,-0.86,6.59,10.36
15.08723890781403,3,3,3,1,-9.949999999999999,1.47,-2.98,-0.71,7.22,10.58
15.09723889827728,3,3,3,1,-10.19,1.29,-3.1,-0.95,7.8,10.98
15.10723912715912,3,3,3,1,-10.01,1.23,-2.81,-1.23,8.220000000000001,11.5
15.11723911762238,3,3,3,1,-9.83,1.24,-2.43,-1.71,8.84,11.74
15.12723910808563,3,3,3,1,-9.619999999999999,0.95,-2.22,-2.42,9.619999999999999,11.7
15.13723909854889,3,3,3,1,-9.619999999999999,0.95,-2.22,-2.94,10.26,11.32
15.14723908901215,3,3,3,1,-9.69,0.55,-1.28,-4.58,10.5,10.68
15.1572390794754,3,3,3,1,-9.48,-0.02,-1.32,-6.34,10.6,10.36
15.16723906993866,3,3,3,1,-9.27,-0.24,-1.17,-6.81,10.61,10.53
15.17723906040192,3,3,3,1,-9.279999999999999,-0.17,-1.16,-6.77,10.56,10.47
15.18723905086517,3,3,3,1,-9.279999999999999,-0.17,-1.16,-6.77,10.39,10.12
15.19723904132843,3,3,3,1,-9.369999999999999,-0.22,-1.29,-6.14,10.25,10
15.20723903179169,3,3,3,1,-9.359999999999999,0.72,-1.56,-5.64,10.15,10.58
15.21723902225494,3,3,3,1,-9.359999999999999,0.3,-2.49,-7.11,10.86,10.43
15.2272390127182,3,3,3,1,-9.44,-0.19,-2.6,-7.74,10.87,10.24
15.23723900318146,3,3,3,1,-8.94,-1.33,-3.22,-7.88,10.05,11.22
15.24723899364471,3,3,3,1,-9.609999999999999,-0.3,-2.64,-8,9.1,13
15.25723898410797,3,3,3,1,-9.859999999999999,-0.72,-3.07,-9.619999999999999,8.68,13.21
15.26723897457123,3,3,3,1,-9.9,-0.71,-1.7,-7.01,7.37,14.15
15.27723896503448,3,3,3,1,-10.05,-1.31,-1.59,-5.44,6.87,14.67
15.28723895549774,3,3,3,1,-9.67,-1.73,-0.72,-2.48,6.72,13.97
15.297238945961,3,3,3,1,-9.5,-1.98,-0.9,-0.59,6.51,13.45
15.30723893642426,3,3,3,1,-9.32,-2.02,-0.87,0.29,5.83,13.35
15.31723892688751,3,3,3,1,-9.66,-2.55,-0.66,-0.15,5.11,13.41
15.32723891735077,3,3,3,1,-10.61,-3.04,-0.48,-0.48,4.5,13.26
15.33723890781403,3,3,3,1,-10.77,-3.15,-0.12,-0.41,3.95,12.76
15.34723889827728,3,3,3,1,-10.79,-3.53,-0.05,-0.73,3.72,11.68
15.35723912715912,3,3,3,1,-10.88,-4.11,-0.12,-1.13,4.16,10.22
15.36723911762238,3,3,3,1,-10.76,-4.81,-0.9399999999999999,-1.97,4.27,8.5
15.37723910808563,3,3,3,1,-10.46,-4.7,-1.03,-2.53,3.85,7.32
15.38723909854889,3,3,3,1,-10.57,-4.5,-1.04,-2.55,3.55,6.91
15.39723908901215,3,3,3,1,-10.8,-3.84,-1.15,-2.74,3.2,6.95
15.4072390794754,3,3,3,1,-11.03,-3.29,-1.87,-3.99,2.92,6.58
15.41723906993866,3,3,3,1,-11.45,-3.19,-1.92,-4.8,2.47,6.21
15.42723906040192,3,3,3,1,-11.59,-2.81,-1.89,-4.72,1.62,5.86
15.43723905086517,3,3,3,1,-11.85,-2.53,-1.44,-4.51,0.7,5.88
15.44723904132843,3,3,3,1,-13.25,-3.44,-1.1,-6.47,0.18,5.61
15.45723903179169,3,3,3,1,-13.82,-4.64,-0.66,-8.33,-0.52,5.1
15.46723902225494,3,3,3,1,-14.3,-5.46,1.25,-7.17,-2.11,5.29
15.4772390127182,3,3,3,1,-13.77,-7.05,2.49,-8.31,-4.78,4.51
15.48723900318146,3,3,3,1,-13.57,-7.32,3.44,-8.130000000000001,-6.74,3.72
15.49723899364471,3,3,3,1,-13.58,-7.08,4.85,-8.109999999999999,-8,3.34
15.50723898410797,3,3,3,1,-13.91,-7.45,4,-8.27,-10.04,3.2
15.51723897457123,3,3,3,1,-12.43,-0.47,5.52,-7.89,-14.03,0.44
15.52723896503448,3,3,3,1,-10.17,0.73,2.36,-10.1,-15.87,0.31
15.53723895549774,3,3,3,1,-9.289999999999999,1.5,-2.37,-9.08,-13.43,0.4
15.547238945961,3,3,3,1,-8.710000000000001,1.21,-5.38,-6.98,-8.99,-1.31
15.55723893642426,3,3,3,1,-10.71,-2,-4.67,-7.45,-5.48,-4.01
15.56723892688751,3,3,3,1,-12.57,-0.77,-4.87,-7.7,-4.24,-7.28
15.57723891735077,3,3,3,1,-13.29,3.87,-4.65,-4.44,-5.02,-8.15
15.58723890781403,3,3,3,2,-13.79,5.05,-3.67,0.01,-5.61,-7.94
15.59723889827728,3,3,3,2,-14.24,4.18,-2.6,3.34,-5.24,-9
15.60723912715912,3,3,3,2,-14.38,2.65,-2.32,2.91,-4.72,-9.1
15.61723911762238,3,3,3,2,-14.93,3.8,-2.85,1.3,-5,-8.289999999999999
15.62723910808563,3,3,3,2,-15.35,5.48,-4.02,-0.1,-5.71,-7.85
15.63723909854889,3,3,3,2,-13.86,7.9,-5.1,-1.05,-7.11,-8.75
15.64723908901215,3,3,3,2,-12.11,7.71,-5.06,-0.29,-8.33,-11.33
15.6572390794754,3,3,3,2,-10.84,7.05,-5.11,0.44,-7.47,-13.42
15.66723906993866,3,3,3,2,-10.18,6.83,-5.3,1.39,-6.47,-15
15.67723906040192,3,3,3,2,-9.48,7.15,-5.37,2.55,-6.26,-15.69
15.68723905086517,3,3,3,2,-9.35,7.11,-5.3,3.33,-6.48,-15.93
15.69723904132843,3,3,3,2,-9.289999999999999,6.99,-5.39,3.6,-6.76,-16.49
15.70723903179169,3,3,3,2,-9,6.64,-5.43,3.76,-7.39,-17.39
15.71723902225494,3,3,3,2,-7.88,5.29,-5.05,4.01,-8.130000000000001,-18.58
15.7272390127182,3,3,3,2,-7.43,4.63,-4.68,4.38,-8.24,-19.8
15.73723900318146,3,3,3,2,-7.17,4.29,-4.58,5.04,-8.029999999999999,-20.74
15.74723899364471,3,3,3,2,-7.01,4.43,-4.54,6.65,-8,-21.28
15.75723898410797,3,3,3,2,-6.8,5.14,-3.65,9.039999999999999,-8.27,-21.11
15.76723897457123,3,3,3,2,-6.58,5.2,-3.03,10.88,-8.84,-20.47
15.77823913097382,3,3,3,2,-6.29,5.14,-2.39,12.64,-9.23,-19.95
15.78723895549774,3,3,3,2,-5.48,5.57,-0.72,14.86,-9.26,-20
15.797238945961,3,3,3,2,-4.92,6.02,-0.15,17.17,-8.619999999999999,-20.31
15.80723893642426,3,3,3,2,-4.41,6.15,0.29,17.32,-6.52,-20.38
15.81723892688751,3,3,3,2,-4.03,6.12,-0.18,14.21,-3.89,-19.42
15.82723891735077,3,3,3,2,-4.33,5.9,-0.31,11.05,-1.78,-18.04
15.83823907375336,3,3,3,2,-4.63,5.31,-0.49,7.82,-0.44,-16.62
15.84723889827728,3,3,3,2,-5.07,4.67,-0.78,5.07,1.48,-15.44
15.85723912715912,3,3,3,2,-5.49,4.13,-1.22,2.43,3.27,-15.02
15.86723911762238,3,3,3,2,-6.14,3.21,-1.31,-0.24,3.64,-15.46
15.87723910808563,3,3,3,2,-6.44,2.48,-1.02,-2.53,2.52,-15.79
15.88723909854889,3,3,3,2,-6.69,1.43,-0.52,-3.59,1.03,-15.21
15.89723908901215,3,3,3,2,-6.52,-0.01,-0.8100000000000001,-3.83,0.82,-13.79
15.9072390794754,3,3,3,2,-6.75,-3.07,-0.93,-3.69,4.43,-12.35
15.91723906993866,3,3,3,2,-8.26,-5.46,1.59,-3.09,8.6,-11.63
15.92723906040192,3,3,3,2,-9.18,-6.4,1.83,-3.92,8.92,-11.75
15.93723905086517,3,3,3,2,-10.44,-7.07,1.9,-3.62,10.68,-11.29
15.94723904132843,3,3,3,2,-12.61,-10.79,1.66,-2.54,10.76,-9.710000000000001
15.95823895931244,3,3,3,2,-13.33,-13.19,1.62,-0.08,5.7,-8.33
15.9682389497757,3,3,3,2,-13.89,-14.54,2.48,4.44,-2.94,-7.4
15.97823894023895,3,3,3,2,-13.4,-14.32,3.12,7.99,-9.630000000000001,-6.4
15.98823893070221,3,3,3,2,-10.98,-10.65,3.33,9.710000000000001,-9.84,-6.51
15.99823892116547,3,3,3,2,-10.13,-8.35,2.45,11.02,-6.26,-7.75
16.00823891162872,3,3,3,2,-9.32,-6.48,1.04,12.57,-3.4,-8.859999999999999
16.01823890209198,3,3,3,2,-8.34,-3.43,0.01,12.68,-3.89,-8.23
16.02823913097382,3,3,3,2,-8.42,0.29,-1.78,9.859999999999999,-4.63,-7.28
16.03823912143707,3,3,3,1,-9.31,2.09,-3.95,6.92,-4.22,-6.13
16.04823911190033,3,3,3,1,-10.13,4.03,-6.1,3.84,-2.85,-3.45
16.05823910236359,3,3,3,1,-12.77,5.17,-5.71,-3.92,-2.21,0.59
16.06823909282684,3,3,3,1,-17.63,-0.95,6.22,-3.05,-13.41,6.96
16.0782390832901,3,3,3,1,-12.95,-6.61,8.210000000000001,6.88,-26.57,10.19
16.08823907375336,3,3,3,1,-11.95,-8.199999999999999,5.51,15.79,-12.37,8.119999999999999
16.09823906421661,3,3,3,1,-13.75,-1.74,5,15.91,0.92,7.61
16.10823905467987,3,3,3,1,-10.52,2.49,0.07000000000000001,11.29,3.68,8.83
16.11823904514313,3,3,3,1,-9.26,5.77,-1.64,8.039999999999999,11.42,6.19
16.12823903560638,3,3,3,1,-8.41,7.15,-4.26,2.72,11.48,4.71
16.13823902606964,3,3,3,1,-7.45,4.7,-6.06,-0.66,6.75,4.13
16.1482390165329,3,3,3,1,-7.27,3.29,-5.44,-2.11,5.53,4.63
16.15823900699615,3,3,3,1,-7.08,3.09,-4.42,-3.96,5.81,6.37
16.16823899745941,3,3,3,1,-6.95,2.61,-4.06,-5.97,5.35,8.65
16.17823898792267,3,3,3,1,-9.119999999999999,1.08,-5.15,-6.82,7.62,10.12
16.18823897838593,3,3,3,1,-10.38,2,-3.71,-5.15,8.85,11.17
16.19823896884918,3,3,3,1,-11.01,3.68,-2.93,-5.25,7.94,11.24
16.20823895931244,3,3,3,1,-10.93,4.14,-3.24,-6.21,7.23,9.859999999999999
16.2182389497757,3,3,3,1,-10.07,1.27,-2.69,-6.73,6.69,8.33
16.22823894023895,3,3,3,1,-10.4,0.16,-2.83,-7.07,7.12,8.050000000000001
16.23823893070221,3,3,3,1,-10.89,-0.11,-2.4,-5.64,7.38,8.67
16.24823892116547,3,3,3,1,-10.89,-0.02,-1.9,-4.7,6.04,9.69
16.25823891162872,3,3,3,1,-10.47,0.17,-3.01,-4.37,5.47,10.27
16.26823890209198,3,3,3,1,-10.37,0.46,-3.4,-2.82,5.95,10.38
16.27823913097382,3,3,3,1,-10.14,1.33,-3.5,-0.71,6.19,10.47
16.28823912143707,3,3,3,0,-9.74,1.85,-3.82,-0.54,6.34,10.82
16.29823911190033,3,3,3,0,-10.16,1.82,-4.13,-0.9399999999999999,7.35,11.43
16.30823910236359,3,3,3,0,-10.64,1.98,-3.34,-0.67,8.75,11.66
16.31823909282684,3,3,3,0,-10.45,1.91,-2.93,-1.67,8.92,11.54
16.3282390832901,3,3,3,0,-10.12,1.69,-2.47,-2.69,9.1,11.29
16.33823907375336,3,3,3,0,-9.74,1.16,-1.56,-4.44,9.92,10.92
16.34823906421661,3,3,3,0,-9.630000000000001,0.62,-1.55,-6.09,10.38,11.13
16.35823905467987,3,3,3,0,-9.699999999999999,0.22,-1.45,-6.34,10.61,11.12
16.36823904514313,3,3,3,0,-9.77,-0.01,-1.33,-6.39,10.52,10.62
16.37823903560638,3,3,3,0,-9.57,-0.38,-1.18,-6.1,10.16,10.44
16.38823902606964,3,3,3,0,-9.5,-0.48,-1.24,-5.46,9.890000000000001,10.52
16.3982390165329,3,3,3,0,-9.24,-1.38,-1.51,-5.03,9.6,10.93
16.40823900699615,3,3,3,0,-9.300000000000001,-0.39,-0.97,-5.04,9.369999999999999,11.88
16.41823899745941,3,3,3,0,-10.29,-0.51,-1.89,-7.18,9.49,11.24
16.42823898792267,3,3,3,0,-9.789999999999999,-1.3,-2.12,-7.33,8.77,10.86
16.43823897838593,3,3,3,0,-8.949999999999999,-1.52,-2.12,-6.61,7.75,12.07
16.45823895931244,3,3,3,0,-9.76,-0.9399999999999999,-2.44,-5.34,7.99,12.38
16.4682389497757,3,3,3,0,-9.630000000000001,-0.75,-2.05,-3.7,7.6,11.84
16.47823894023895,3,3,3,0,-9.52,-1.22,-1.23,-1.98,7.13,11.88
16.48823893070221,3,3,3,0,-8.869999999999999,-1.07,-0.91,-1.51,6.4,11.91
16.49823892116547,3,3,3,0,-8.69,-1.42,-1.17,-0.78,5.8,11.51
16.50823891162872,3,3,3,0,-8.48,-1.57,-1.24,-0.05,5.09,11.36
16.51823890209198,3,3,3,0,-8.67,-1.89,-1.17,-0.09,4.75,11.39
16.52823913097382,3,3,3,0,-9.67,-2.43,-0.51,-0.39,4.45,11.3
16.53823912143707,3,3,3,0,-10.11,-2.67,-0.19,-0.1,4.26,11.28
16.54823911190033,3,3,3,0,-10.48,-2.97,-0.27,-0.25,4.34,11.17
16.55823910236359,3,3,3,0,-10.78,-3.47,-0.16,-1.04,4.45,10.63
16.56823909282684,3,3,3,0,-10.4,-4.02,-0.19,-1.79,4.05,10.05
16.5782390832901,3,3,3,0,-10.32,-4.24,-0.46,-2.62,3.64,9.6
16.58823907375336,3,3,3,0,-10.61,-4.11,-1.07,-3.78,3.38,8.92
16.59823906421661,3,3,3,0,-11.07,-4.1,-1.27,-4.03,2.91,7.95
16.60823905467987,3,3,3,0,-11.71,-3,-1.25,-3.38,1.99,7.91
16.61823904514313,3,3,3,0,-11.83,-2.47,-1.01,-3.19,1.3,7.16
16.62823903560638,3,3,3,0,-11.77,-1.7,-0.59,-3.47,0.32,6.72
16.63823902606964,3,3,3,0,-12.01,-1.69,-0.78,-5.78,-0.26,6.46
16.6482390165329,3,3,3,0,-12.56,-3.54,-0.6,-7.69,-0.72,5.97
16.65823900699615,3,3,3,0,-13.22,-5.32,-0.14,-9.529999999999999,-1.42,5.55
16.66823899745941,3,3,3,0,-13.56,-6.72,1.1,-10.46,-2.65,5
16.67823898792267,3,3,3,0,-13.93,-7.65,2.2,-12.68,-4.52,4.3
16.68823897838593,3,3,3,0,-13.84,-6.71,3.12,-12.63,-6.53,4.32
16.69823896884918,3,3,3,0,-14.38,-5.04,4.17,-11.24,-8.859999999999999,3.14
16.70823895931244,3,3,3,0,-13.47,-2.09,4.16,-11.01,-10.79,0.77
16.7182389497757,3,3,3,0,-11.73,-1.46,3.68,-9.890000000000001,-12.02,1.04
16.72823894023895,3,3,3,0,-10.41,1.11,-0.76,-10.49,-11.96,0.47
16.73823893070221,3,3,3,0,-10.36,1.49,-2.86,-9.74,-11.33,-0.48
16.74823892116547,3,3,3,0,-10.84,0.74,-4.98,-8.15,-9.220000000000001,-2.68
16.75823891162872,3,3,3,0,-12.24,-1.04,-5.83,-7.31,-7.29,-5.36
16.76823890209198,3,3,3,0,-13.49,-0.06,-4.65,-7.09,-5.8,-7.36
16.77823913097382,3,3,3,0,-14.78,2.48,-4.56,-6.04,-4.58,-8.300000000000001
16.78823912143707,3,3,3,0,-14.56,4.43,-4.45,-2.45,-5.97,-8.220000000000001
16.79823911190033,3,3,3,0,-13.59,2.06,-3.02,0.02,-6.11,-7.88
16.80823910236359,3,3,3,0,-14.04,2.02,-2.52,-0.46,-5.87,-7.31
16.81823909282684,3,3,3,0,-14.42,4.06,-3.31,-0.47,-7.11,-7.23
16.8282390832901,3,3,3,0,-14.69,6.31,-4.21,-0.33,-7.5,-7.62
16.83823907375336,3,3,3,0,-12.26,8.109999999999999,-5.18,0.2,-7.93,-8.779999999999999
16.84823906421661,3,3,3,0,-10.62,7.38,-5.14,0.78,-7,-10.91
16.85823905467987,3,3,3,0,-9.859999999999999,6.79,-5.21,1.01,-5.5,-13.04
16.86823904514313,3,3,3,0,-9.92,6.66,-5.07,1.73,-4.74,-14.61
16.87823903560638,3,3,3,0,-9.49,6.61,-4.67,2.82,-5.53,-15.16
16.88823902606964,3,3,3,0,-9.029999999999999,6.52,-4.44,3.74,-6.24,-15.66
16.8982390165329,3,3,3,0,-8.460000000000001,6.34,-4.36,4.38,-6.93,-16.69
16.90823900699615,3,3,3,0,-7.91,6.08,-4.33,4.63,-7.42,-17.75
16.91823899745941,3,3,3,0,-7.25,5.54,-4.25,4.76,-7.64,-18.75
16.92823898792267,3,3,3,0,-7.05,5.32,-4.35,5.22,-7.51,-19.81
16.93823897838593,3,3,3,1,-6.88,5.29,-4.43,6.32,-7.34,-20.62
16.94823896884918,3,3,3,1,-6.68,5.55,-4.39,7.96,-7.28,-20.9
16.95823895931244,3,3,3,1,-6.49,5.15,-3.59,9.970000000000001,-7.31,-20.47
16.9682389497757,3,3,3,1,-6.49,4.95,-3.13,12.12,-7.16,-19.98
16.97823894023895,3,3,3,1,-6.5,4.78,-2.52,13.28,-7.35,-19.7
16.98923909664154,3,3,3,1,-6.27,4.88,-1.87,14.93,-8.050000000000001,-20.22
16.9992390871048,3,3,3,1,-5.6,5.93,-0.44,15.32,-7.81,-20.91
17.00923907756805,3,3,3,1,-4.95,5.76,-0.47,13.48,-6.4,-20.5
17.01923906803131,3,3,3,1,-4.73,5.74,-0.62,11.77,-3.97,-19.13
17.02923905849457,3,3,3,1,-4.88,5.67,-0.46,9.93,-2.52,-17.38
17.03923904895782,3,3,3,1,-5.53,5.1,-0.34,7.39,-1.57,-15.76
17.04923903942108,3,3,3,1,-6.01,4.31,-0.51,4.78,-0.24,-14.44
17.05923902988434,3,3,3,1,-6.59,3.7,-0.83,2.68,0.78,-14.09
17.0692390203476,3,3,3,1,-7.13,3.16,-0.6899999999999999,1.42,-0.06,-14.59
17.07923901081085,3,3,3,1,-6.68,2.94,-0.21,1.66,-2.15,-15.12
17.08923900127411,3,3,3,1,-5.8,2.32,-0.66,4.02,-2.16,-14.86
17.09923899173737,3,3,3,1,-5.01,0.95,-1.88,5.21,2.76,-14.08
17.10923898220062,3,3,3,1,-7.17,-2.69,-0.11,4.42,9.73,-13.49
17.11923897266388,3,3,3,1,-8.73,-4.07,1.34,2.13,13,-13.06
17.12923896312714,3,3,3,1,-10.21,-5.58,2.76,-0.82,13.89,-11.62
17.13923895359039,3,3,3,1,-11.67,-7.14,3.65,-1.55,13.07,-8.69
17.14923894405365,3,3,3,1,-12.03,-10.82,1.83,0.25,8.199999999999999,-5.26
17.15923893451691,3,3,3,1,-12.7,-12.17,1.52,2.22,1.74,-3.75
17.16923892498016,3,3,3,1,-13.48,-12.62,2.57,3.5,-4.37,-5.06
17.17923891544342,3,3,3,1,-13.12,-12.34,3.85,6.15,-9.07,-7.08
17.18923890590668,3,3,3,1,-10.14,-10.24,4.28,7.54,-8.49,-8.41
17.19923889636993,3,3,3,1,-9.720000000000001,-8.359999999999999,2.91,7.57,-3.81,-9.1
17.20923912525177,3,3,3,1,-9.75,-6.04,1.62,8.699999999999999,-1.74,-9.449999999999999
17.21923911571503,3,3,3,1,-9.48,-4.55,0.62,9.49,-3.43,-9.210000000000001
17.22923910617828,3,3,3,1,-7.27,-0.88,-0.66,9.17,-5.95,-6.92
17.23923909664154,3,3,3,2,-7.32,0.61,-2.1,7.21,-5.01,-5.4
17.2492390871048,3,3,3,2,-7.84,2.32,-3.23,6.39,-3.57,-4.61
17.25923907756805,3,3,3,2,-8.119999999999999,3.54,-4.08,4.08,-4.27,-1.64
17.26923906803131,3,3,3,2,-10.67,5.74,-3.34,2.66,-3.26,2.2
17.27923905849457,3,3,3,2,-12.95,1.85,-0.22,3.2,-6.08,7.38
17.28923904895782,3,3,3,2,-13.41,-3.36,3.07,8.25,-11.47,9.23
17.29923903942108,3,3,3,2,-12.47,-7.13,6.01,12.99,-10.02,8.890000000000001
17.30923902988434,3,3,3,2,-15.46,-4.22,2.74,17.74,-0.47,7.4
17.3192390203476,3,3,3,2,-16.59,-1.17,1.63,22.67,2.51,7.73
17.32923901081085,3,3,3,2,-15.58,0.68,1.54,22.18,5.61,8.09
17.33923900127411,3,3,3,2,-12.44,4.09,0.26,15.56,9.460000000000001,6.84
17.34923899173737,3,3,3,2,-7.28,2.38,-3.53,7.4,7.9,6.57
17.35923898220062,3,3,3,2,-7.22,-1.06,-5.68,2.09,6.62,5.33
17.36923897266388,3,3,3,2,-8.449999999999999,-1.34,-5.67,3.72,10.31,4.82
17.37923896312714,3,3,3,2,-9.460000000000001,2.27,-2.66,2.91,8.359999999999999,5.75
17.38923895359039,3,3,3,2,-7.74,5.33,-4.68,-4.56,4.34,6.86
17.39923894405365,3,3,3,2,-7.83,5.05,-5.89,-6.68,5.16,8.550000000000001
17.40923893451691,3,3,3,2,-8.92,5.48,-4.83,-7.23,7.6,9.59
17.41923892498016,3,3,3,2,-9.98,6.29,-4.6,-9.41,7.84,8.75
17.42923891544342,3,3,3,2,-9.789999999999999,4.44,-4,-9.449999999999999,7.12,6.92
17.43923890590668,3,3,3,2,-9.65,2.54,-3.45,-9.85,7.68,6.09
17.44923889636993,3,3,3,2,-10.01,0.75,-2.98,-9.960000000000001,7.55,7.11
17.45923912525177,3,3,3,2,-10.84,-0.61,-3.07,-9.1,6.06,8.75
17.46923911571503,3,3,3,2,-11.53,-0.25,-2.45,-6.13,5.91,9.279999999999999
17.47923910617828,3,3,3,2,-11.72,0.33,-1.97,-4.01,5.84,9.67
17.50923907756805,3,3,3,2,-9.41,2.58,-3.16,-1.84,6.42,9.33
17.51923906803131,3,3,3,2,-9.49,1.92,-3.48,-2.97,7.6,9.42
17.52923905849457,3,3,3,2,-9.9,1.25,-2.96,-3.19,8.539999999999999,9.73
17.53923904895782,3,3,3,2,-10.14,0.4,-1.69,-4.06,8.699999999999999,9.779999999999999
17.54923903942108,3,3,3,2,-10,-0.2,-1.64,-5.44,8.619999999999999,9.49
17.55923902988434,3,3,3,2,-9.890000000000001,-0.76,-1.63,-6.22,8.82,8.800000000000001
17.5692390203476,3,3,3,2,-9.65,-1.19,-1.51,-6.33,8.59,8.27
17.57923901081085,3,3,3,2,-8.970000000000001,-1.44,-1.77,-6.16,8.18,8.1
17.58923900127411,3,3,3,2,-8.890000000000001,-1.25,-1.42,-5.44,7.91,8.050000000000001
17.59923899173737,3,3,3,2,-9.16,-1,-1.34,-5.25,7.81,8.02
17.60923898220062,3,3,3,2,-9.56,-0.66,-1.49,-5.26,7.66,8.300000000000001
17.61923897266388,3,3,3,2,-10.02,0.06,-1.37,-5.26,7.5,8.82
17.62923896312714,3,3,3,2,-10.08,0.14,-1.69,-6,7.59,9.25
17.63923895359039,3,3,3,2,-10.11,0.24,-1.77,-6.22,7.84,9.390000000000001
17.64923894405365,3,3,3,2,-10.09,-0.03,-1.92,-6.37,8.220000000000001,9.130000000000001
17.65923893451691,3,3,3,2,-9.960000000000001,-0.31,-2.18,-6.5,8.470000000000001,8.56
17.66923892498016,3,3,3,2,-9.51,-0.39,-2.3,-6.73,7.84,9.07
17.67923891544342,3,3,3,2,-9.25,-0.41,-2,-5.78,7.73,9.369999999999999
17.68923890590668,3,3,3,3,-9.06,-0.8,-1.96,-5.07,7.62,9.859999999999999
17.69923889636993,3,3,3,3,-9.199999999999999,-0.75,-1.58,-3.83,7.39,9.92
17.70923912525177,3,3,3,3,-9.050000000000001,-0.79,-2,-3.52,6.88,10.22
17.71923911571503,3,3,3,3,-8.970000000000001,-1.01,-1.73,-2.61,6.37,10.62
17.72923910617828,3,3,3,3,-9.35,-0.8,-1.15,-2.22,5.98,10.63
17.73923909664154,3,3,3,3,-9.630000000000001,-1.38,-0.97,-1.61,5.74,10.11
17.7492390871048,3,3,3,3,-9.699999999999999,-1.87,-0.96,-1.54,5.21,9.81
17.75923907756805,3,3,3,3,-9.710000000000001,-2.05,-0.7,-1.57,4.71,10.11
17.76923906803131,3,3,3,3,-9.43,-2.64,-0.49,-2.04,4.41,10.37
17.77923905849457,3,3,3,3,-9.51,-2.87,-0.54,-2.53,4.35,10.51
17.78923904895782,3,3,3,3,-9.81,-2.47,-0.2,-3.21,4.21,10.36
17.79923903942108,3,3,3,3,-10.01,-2.63,-0.63,-4.37,3.78,10.03
17.80923902988434,3,3,3,3,-10.42,-2.48,-1.06,-4.88,3.37,9.51
17.8192390203476,3,3,3,3,-10.64,-2.41,-1.24,-5.54,2.67,9.140000000000001
17.82923901081085,3,3,3,3,-10.83,-2.49,-1.34,-5.28,2.04,8.65
17.83923900127411,3,3,3,3,-10.72,-2.54,-1.38,-4.76,1.32,8.15
17.84923899173737,3,3,3,3,-10.33,-2.55,-1.25,-3.97,0.72,7.96
17.85923898220062,3,3,3,3,-10.45,-2.6,-1.31,-3.25,0.35,7.97
17.86923897266388,3,3,3,3,-10.92,-2.77,-1.28,-3.46,-0.04,7.73
17.87923896312714,3,3,3,3,-11.44,-3,-1.19,-3.86,-1.04,7.22
17.88923895359039,3,3,3,3,-12.13,-3.68,-0.13,-4.59,-1.76,6.51
17.89923894405365,3,3,3,3,-12.82,-4.08,1.05,-5.48,-2,5.78
17.90923893451691,3,3,3,3,-13.18,-4.99,1.67,-7.79,-2.73,4.73
17.91923892498016,3,3,3,3,-13.19,-6.31,1.95,-10.4,-4.46,3.47
17.92923891544342,3,3,3,3,-12.86,-4.79,4.54,-13.39,-7.18,1.94
17.93923890590668,3,3,3,3,-12.64,-4.6,4.67,-15.91,-9.52,2.72
17.94923889636993,3,3,3,3,-12.75,-3.26,4.07,-15.72,-10.9,2.88
17.95923912525177,3,3,3,3,-12.52,-1.44,2.29,-14.22,-11.49,2.11
17.96923911571503,3,3,3,3,-11.79,2.8,-2.12,-10.49,-9.16,0.77
17.97923910617828,3,3,3,3,-11.88,1.87,-3.97,-6.98,-5.81,-2.38
17.98923909664154,3,3,3,3,-11.83,0.99,-3.87,-4.84,-4.52,-6.14
18.00023901462555,3,3,3,3,-11.61,-0.82,-4.07,-6.49,-5.64,-8.33
18.00923907756805,3,3,3,3,-12.34,0.67,-4.53,-5.88,-5.61,-7.49
18.02023899555206,3,3,3,3,-12.77,2.09,-4.05,-3.98,-5.88,-5.39
18.03023898601532,3,3,3,3,-13.22,2.92,-3.79,-2.09,-5.91,-4.48
18.04023897647858,3,3,3,3,-12.99,2.44,-2.15,-1.2,-5.97,-4.35
18.05023896694183,3,3,3,3,-12.97,3.33,-1.78,-0.72,-6.22,-4.8
18.06023895740509,3,3,3,3,-12.94,5.7,-2.77,-0.39,-6.12,-5.93
18.07023894786835,3,3,3,3,-12.66,7.51,-2.97,-1.37,-6.32,-6.78
18.0802389383316,3,3,3,3,-10.72,8.300000000000001,-3.63,-1.62,-6.56,-8.23
18.09023892879486,3,3,3,3,-9.92,7.58,-3.47,-1.43,-5.45,-10.21
18.10023891925812,3,3,3,3,-9.640000000000001,6.77,-3.25,-1.42,-4.31,-12.11
18.11023890972137,3,3,3,3,-9.57,6.35,-3.29,-0.98,-4.06,-13.31
18.12023890018463,3,3,3,3,-9.24,6.12,-3.11,-0.17,-4.45,-13.75
18.13023912906647,3,3,3,3,-8.84,6.25,-2.96,0.63,-4.98,-14.29
18.14023911952972,3,3,3,3,-8.380000000000001,6.37,-2.91,1.24,-5.4,-15.04
18.15023910999298,3,3,3,3,-7.99,6.28,-2.93,1.63,-5.82,-15.79
18.16023910045624,3,3,3,3,-7.79,5.78,-3.24,1.98,-6,-16.63
18.17023909091949,3,3,3,3,-7.85,5.41,-3.31,2.57,-5.96,-17.49
18.18023908138275,3,3,3,3,-7.93,5.26,-3.37,3.22,-5.89,-18.07
18.19023907184601,3,3,3,3,-7.95,5.26,-3.36,3.96,-6.23,-18.19
18.20023906230927,3,3,3,3,-7.6,5.41,-3.01,4.88,-6.77,-18.17
18.21023905277252,3,3,3,3,-7.43,5.42,-2.64,6.16,-6.87,-18.09
18.22023904323578,3,3,3,3,-7.23,5.33,-2.55,7.29,-6.1,-18.12
18.23023903369904,3,3,3,3,-7.08,5.64,-2.08,7.76,-5.41,-18.58
18.24023902416229,3,3,3,3,-6.06,6.67,-1.7,6.94,-4.72,-18.91
18.29023897647858,3,3,3,3,-5.53,4.13,-2.07,-1.03,2.19,-13.76
18.30023896694183,3,3,3,3,-5.92,3.29,-1.9,-2.78,3.18,-13.1
18.31023895740509,3,3,3,3,-6.28,2.39,-1.83,-3.2,3.87,-13.34
18.32023894786835,3,3,3,3,-7.15,1,-1.64,-1.66,4.48,-14.11
18.3302389383316,3,3,3,3,-7.6,0.4,-0.77,1.51,4.73,-14.75
18.34023892879486,3,3,3,3,-7.75,-0.16,0.27,4.74,4.74,-14.76
18.35023891925812,3,3,3,3,-7.76,-0.41,1.23,6.14,5.93,-14
18.36023890972137,3,3,3,3,-7.68,-1.61,2.15,5.09,8.68,-12.74
18.37023890018463,3,3,3,3,-8.029999999999999,-3.47,2.02,2.5,11.31,-11.23
18.38023912906647,3,3,3,3,-9,-6,1.96,1.21,11,-9.470000000000001
18.39023911952972,3,3,3,3,-11.51,-11.04,1.53,1.47,6.26,-8.029999999999999
18.40023910999298,3,3,3,3,-12.24,-12.5,1.07,2,0.09,-7.61
18.41023910045624,3,3,3,3,-13.11,-13.27,2.22,2.16,-6.52,-7.7
18.42023909091949,3,3,3,3,-12.9,-13.58,3.96,2.37,-14.19,-7.69
18.43023908138275,3,3,3,3,-9.960000000000001,-12.04,4.45,5.67,-15.16,-7.79
18.44023907184601,3,3,3,3,-9.01,-9.859999999999999,3.25,10.32,-8.9,-8.369999999999999
18.45023906230927,3,3,3,3,-9.01,-7.82,2.07,12.3,-3.65,-9.56
18.46023905277252,3,3,3,3,-8.94,-5.61,0.71,13.21,-2.54,-10.56
18.47023904323578,3,3,3,3,-8.24,-0.24,0.05,12.95,-3.19,-9.4
18.48023903369904,3,3,3,3,-9.029999999999999,0.4,-1.26,10.27,-2.45,-8.94
18.49023902416229,3,3,3,3,-9.24,2.53,-1.91,9.08,-1.54,-8.81
18.50023901462555,3,3,3,3,-9.44,1.02,-3.79,6.19,-4.27,-7.18
18.51023900508881,3,3,3,3,-8.41,8.199999999999999,-1.72,3.02,-9.210000000000001,-4.27
18.52023899555206,3,3,3,3,-8.460000000000001,6.7,-2.77,-7.76,-15.99,4.94
18.53023898601532,3,3,3,3,-8.619999999999999,5.61,-3.48,-0.71,-13.63,9.619999999999999
18.54023897647858,3,3,3,3,-10.89,0.86,0.9399999999999999,7.51,-5.13,8.83
18.55023896694183,3,3,3,3,-17.38,-7.88,8.15,14.33,-1.69,5.44
18.56023895740509,3,3,3,3,-17.78,-4.61,4.7,16.19,-4.38,2.77
18.57023894786835,3,3,3,3,-18.08,-1.4,2.79,16.02,2.09,4.41
18.5802389383316,3,3,3,3,-16.83,0.29,3.17,12.82,6.87,7.94
18.59023892879486,3,3,3,3,-9.970000000000001,2.63,-0.91,6.53,8.300000000000001,8.369999999999999
18.60023891925812,3,3,3,3,-8.76,2.01,-4.52,6.94,6.43,4.99
18.61023890972137,3,3,3,3,-7.67,0.6,-4.28,8.44,4.66,4.01
