timestamp,magCalib,accCalib,gyrCalib,sysCalib,accX,accY,accZ,gyrX,gyrY,gyrZ
0.07725214958190918,2,3,3,2,-9.67,1.66,0.61,0.15,2.22,-0.91
0.08725214004516602,2,3,3,2,-9.6,1.74,0.5,0.29,2.17,-0.84
0.09725213050842285,2,3,3,2,-9.56,1.78,0.47,0.3,2.25,-0.72
0.1072521209716797,2,3,3,2,-9.52,1.76,0.62,0.03,2.43,-0.6899999999999999
0.1172521114349365,2,3,3,2,-9.529999999999999,1.64,0.7,-0.17,2.47,-0.77
0.1272521018981934,2,3,3,2,-9.710000000000001,1.58,0.79,-0.32,2.3,-0.87
0.1372520923614502,2,3,3,2,-9.710000000000001,1.48,0.6899999999999999,-0.6,2.15,-0.86
0.147252082824707,2,3,3,2,-9.74,1.38,0.63,-0.78,2.11,-0.8
0.1572520732879639,2,3,3,2,-9.890000000000001,1.26,0.65,-0.97,1.96,-0.66
0.1672520637512207,2,3,3,2,-9.81,1.14,0.54,-1.03,1.7,-0.4
0.1772520542144775,2,3,3,2,-9.890000000000001,1.13,0.57,-0.93,1.65,-0.11
0.1872520446777344,2,3,3,2,-9.949999999999999,1.11,0.58,-0.8,1.37,0.16
0.1972520351409912,2,3,3,2,-9.98,1.15,0.5600000000000001,-0.49,1.08,0.5
0.207252025604248,2,3,3,2,-10.03,1.19,0.55,-0.16,1,0.84
0.2172520160675049,2,3,3,2,-9.98,1.19,0.5,0.12,0.9,1.29
0.2272520065307617,2,3,3,2,-9.859999999999999,1.18,0.49,0.38,0.86,1.75
0.2372519969940186,2,3,3,2,-9.82,1.12,0.55,0.59,0.88,2.2
0.2472519874572754,2,3,3,2,-9.789999999999999,1.13,0.55,0.73,0.85,2.6
0.2572519779205322,2,3,3,2,-9.75,1.14,0.6,0.83,0.84,2.9
0.2672519683837891,2,3,3,2,-9.73,1.18,0.59,0.95,0.82,3.09
0.2772519588470459,2,3,3,2,-9.640000000000001,1.25,0.5600000000000001,1.21,0.66,3.17
0.2872519493103027,2,3,3,2,-9.609999999999999,1.16,0.59,1.17,0.68,3.24
0.2972519397735596,2,3,3,2,-9.609999999999999,1.16,0.59,1.02,0.76,3.2
0.3072519302368164,2,3,3,2,-9.56,1.16,0.61,1.03,0.72,3.07
0.3172521591186523,2,3,3,2,-9.58,1.35,0.52,1.07,0.66,2.86
0.3272521495819092,2,3,3,2,-9.59,1.43,0.54,0.96,0.54,2.67
0.337252140045166,2,3,3,2,-9.619999999999999,1.47,0.5600000000000001,0.74,0.41,2.42
0.3472521305084229,2,3,3,2,-9.619999999999999,1.47,0.5600000000000001,0.46,0.27,2.12
0.3572521209716797,2,3,3,2,-9.699999999999999,1.48,0.55,0.28,0.24,1.89
0.3672521114349365,2,3,3,2,-9.76,1.42,0.49,0.25,0.22,1.71
0.3772521018981934,2,3,3,2,-9.81,1.41,0.53,0.31,0.11,1.56
0.3872520923614502,2,3,3,2,-9.83,1.43,0.57,0.37,0.06,1.35
0.397252082824707,2,3,3,2,-9.83,1.43,0.57,0.48,0.08,1.2
0.4072520732879639,2,3,3,2,-9.84,1.49,0.6,0.48,0.08,1.2
0.4172520637512207,2,3,3,2,-9.77,1.49,0.48,0.43,-0.14,1.02
0.4272520542144775,2,3,3,2,-9.65,1.51,0.51,0.28,-0.06,0.97
0.4372520446777344,2,3,3,2,-9.640000000000001,1.55,0.57,0.28,-0.02,0.93
0.4472520351409912,2,3,3,2,-9.640000000000001,1.55,0.57,0.28,-0.02,0.93
0.457252025604248,2,3,3,2,-9.65,1.53,0.62,0.26,0.05,0.93
0.4672520160675049,2,3,3,2,-9.67,1.57,0.51,0.22,0.11,0.9
0.4772520065307617,2,3,3,2,-9.67,1.62,0.54,0.27,0.14,0.87
0.4872519969940186,2,3,3,2,-9.710000000000001,1.6,0.5600000000000001,0.21,0.13,0.85
0.4972519874572754,2,3,3,2,-9.710000000000001,1.6,0.5600000000000001,0.13,0.04,0.72
0.5072519779205322,2,3,3,2,-9.720000000000001,1.58,0.5600000000000001,0.11,0.04,0.62
0.5172519683837891,2,3,3,2,-9.710000000000001,1.61,0.5,0.09,0.15,0.57
0.5272519588470459,2,3,3,2,-9.69,1.65,0.53,0.03,0.12,0.48
0.5372519493103027,2,3,3,2,-9.65,1.68,0.55,-0.03,0.07000000000000001,0.41
0.5472519397735596,2,3,3,2,-9.65,1.68,0.55,-0.03,0.07000000000000001,0.41
0.5572519302368164,2,3,3,2,-9.69,1.7,0.5600000000000001,-0.07000000000000001,0.09,0.33
0.5672521591186523,2,3,3,2,-9.68,1.71,0.5,-0.13,-0.01,0.14
0.5772521495819092,2,3,3,2,-9.65,1.71,0.51,-0.24,0.1,0.04
0.587252140045166,2,3,3,2,-9.65,1.71,0.51,-0.34,0.14,-0.04
0.5972521305084229,2,3,3,2,-9.640000000000001,1.74,0.53,-0.34,0.14,-0.04
0.6072521209716797,2,3,3,2,-9.630000000000001,1.77,0.55,-0.34,0.15,-0.04
0.6172521114349365,2,3,3,2,-9.67,1.77,0.52,-0.3,0.15,-0.03
0.6272521018981934,2,3,3,2,-9.67,1.75,0.5,-0.34,0.15,-0.01
0.6372520923614502,2,3,3,2,-9.720000000000001,1.75,0.53,-0.31,0.11,0.04
0.647252082824707,2,3,3,2,-9.67,1.78,0.54,-0.31,0.11,0.04
0.6572520732879639,2,3,3,2,-9.640000000000001,1.79,0.53,-0.21,0.13,-0.02
0.6682519912719727,2,3,3,2,-9.640000000000001,1.81,0.48,-0.17,0.04,-0.01
0.6782519817352295,2,3,3,2,-9.640000000000001,1.84,0.48,-0.27,0.01,0.01
0.6882519721984863,2,3,3,2,-9.640000000000001,1.86,0.53,-0.24,-0.06,0.02
0.6982519626617432,2,3,3,2,-9.66,1.86,0.5,-0.24,-0.06,0.02
0.708251953125,2,3,3,2,-9.699999999999999,1.88,0.55,-0.25,-0.11,0
0.7182519435882568,2,3,3,2,-9.640000000000001,1.87,0.5600000000000001,-0.26,-0.15,0.04
0.7282519340515137,2,3,3,2,-9.66,1.89,0.49,-0.22,-0.17,0.07000000000000001
0.7382521629333496,2,3,3,2,-9.630000000000001,1.91,0.53,-0.19,-0.21,0.04
0.7482521533966064,2,3,3,2,-9.6,1.92,0.54,-0.19,-0.21,0.04
0.7582521438598633,2,3,3,2,-9.59,1.93,0.5600000000000001,-0.24,-0.29,-0.03
0.7682521343231201,2,3,3,2,-9.6,1.92,0.5600000000000001,-0.37,-0.29,-0.1
0.778252124786377,2,3,3,2,-9.58,1.95,0.51,-0.4,-0.23,-0.09
0.7882521152496338,2,3,3,2,-9.57,1.93,0.47,-0.49,-0.11,-0.05
0.7982521057128906,2,3,3,2,-9.65,1.87,0.58,-0.49,-0.11,-0.05
0.8082520961761475,2,3,3,2,-9.65,1.88,0.59,-0.51,-0.03,-0.05
0.8182520866394043,2,3,3,2,-9.630000000000001,1.88,0.57,-0.31,0.01,-0.01
0.8282520771026611,2,3,3,2,-9.640000000000001,1.89,0.52,-0.3,0.02,0.01
0.838252067565918,2,3,3,2,-9.59,1.91,0.54,-0.3,-0.02,0.05
0.8482520580291748,2,3,3,2,-9.609999999999999,1.94,0.5600000000000001,-0.3,-0.02,0.05
0.8582520484924316,2,3,3,2,-9.630000000000001,1.96,0.5600000000000001,-0.32,0,0.05
0.8682520389556885,2,3,3,2,-9.640000000000001,1.92,0.5600000000000001,-0.36,-0.01,-0.04
0.8782520294189453,2,3,3,2,-9.619999999999999,1.93,0.51,-0.38,0.03,-0.11
0.8882520198822021,2,3,3,2,-9.630000000000001,1.91,0.51,-0.5,0.05,-0.19
0.898252010345459,2,3,3,2,-9.57,1.86,0.59,-0.5,0.05,-0.19
0.9082520008087158,2,3,3,2,-9.56,1.88,0.57,-0.53,0.07000000000000001,-0.25
0.9182519912719727,2,3,3,2,-9.57,1.89,0.57,-0.5,0.1,-0.28
0.9282519817352295,2,3,3,2,-9.619999999999999,1.88,0.53,-0.44,0.05,-0.29
0.9382519721984863,2,3,3,2,-9.640000000000001,1.85,0.55,-0.44,0.06,-0.29
0.9482519626617432,2,3,3,2,-9.66,1.82,0.58,-0.44,0.06,-0.29
0.958251953125,2,3,3,2,-9.65,1.8,0.58,-0.41,0.08,-0.33
0.9682519435882568,2,3,3,2,-9.630000000000001,1.79,0.57,-0.34,0.1,-0.29
0.9782519340515137,2,3,3,2,-9.59,1.81,0.49,-0.25,0.1,-0.24
0.9882521629333496,2,3,3,2,-9.609999999999999,1.8,0.53,-0.2,0.08,-0.22
0.9982521533966064,2,3,3,2,-9.65,1.81,0.5600000000000001,-0.2,0.08,-0.22
1.008252143859863,2,3,3,2,-9.710000000000001,1.82,0.59,-0.15,0.07000000000000001,-0.2
1.01825213432312,2,3,3,2,-9.59,1.85,0.53,-0.13,0.1,-0.21
1.028252124786377,2,3,3,2,-9.619999999999999,1.82,0.48,-0.13,0.1,-0.21
1.038252115249634,2,3,3,2,-9.630000000000001,1.82,0.51,-0.29,0.14,-0.27
1.048252105712891,2,3,3,2,-9.59,1.77,0.55,-0.31,0.17,-0.26
1.058252096176147,2,3,3,2,-9.65,1.78,0.5600000000000001,-0.27,0.24,-0.28
1.068252086639404,2,3,3,2,-9.630000000000001,1.78,0.58,-0.28,0.2,-0.3
1.078252077102661,2,3,3,2,-9.640000000000001,1.73,0.5,-0.29,0.12,-0.35
1.088252067565918,2,3,3,2,-9.710000000000001,1.79,0.51,-0.26,0.1,-0.37
1.108252048492432,2,3,3,2,-9.67,1.76,0.52,-0.14,0.1,-0.34
1.118252038955688,2,3,3,2,-9.67,1.77,0.54,-0.09,0.13,-0.27
1.128252029418945,2,3,3,2,-9.640000000000001,1.76,0.5,-0.1,0.08,-0.21
1.138252019882202,2,3,3,2,-9.6,1.77,0.5,-0.07000000000000001,-0.08,-0.17
1.148252010345459,2,3,3,2,-9.630000000000001,1.78,0.53,0,-0.18,-0.21
1.158252000808716,2,3,3,2,-9.640000000000001,1.76,0.55,0.01,-0.19,-0.24
1.168251991271973,2,3,3,2,-9.640000000000001,1.78,0.5,0.07000000000000001,-0.15,-0.25
1.178251981735229,2,3,3,2,-9.619999999999999,1.76,0.46,0.12,-0.05,-0.25
1.188251972198486,2,3,3,2,-9.609999999999999,1.74,0.48,0.17,0.01,-0.27
1.198251962661743,2,3,3,2,-9.66,1.77,0.52,0.16,0.01,-0.3
1.208251953125,2,3,3,2,-9.640000000000001,1.84,0.52,0.14,-0.07000000000000001,-0.28
1.218251943588257,2,3,3,2,-9.640000000000001,1.86,0.52,0.18,-0.12,-0.27
1.228251934051514,2,3,3,2,-9.65,1.81,0.44,0.18,-0.12,-0.21
1.23825216293335,2,3,3,2,-9.619999999999999,1.78,0.52,0.16,-0.16,-0.21
1.248252153396606,2,3,3,2,-9.609999999999999,1.76,0.54,0.16,-0.1,-0.27
1.258252143859863,2,3,3,2,-9.65,1.77,0.54,0.07000000000000001,-0.09,-0.25
1.26825213432312,2,3,3,2,-9.619999999999999,1.79,0.51,0.11,-0.1,-0.26
1.278252124786377,2,3,3,2,-9.640000000000001,1.76,0.44,0.2,-0.04,-0.27
1.288252115249634,2,3,3,2,-9.640000000000001,1.75,0.52,0.19,0.09,-0.31
1.298252105712891,2,3,3,2,-9.65,1.74,0.57,0.14,0.17,-0.25
1.308252096176147,2,3,3,2,-9.699999999999999,1.71,0.55,0.18,0.19,-0.24
1.318252086639404,2,3,3,2,-9.67,1.7,0.52,0.27,0.14,-0.19
1.328252077102661,2,3,3,2,-9.65,1.67,0.46,0.27,0.12,-0.19
1.338252067565918,2,3,3,2,-9.69,1.69,0.49,0.32,0.01,-0.2
1.348252058029175,2,3,3,2,-9.710000000000001,1.68,0.54,0.39,-0.05,-0.14
1.358252048492432,2,3,3,2,-9.73,1.67,0.57,0.38,-0.09,-0.13
1.368252038955688,2,3,3,2,-9.699999999999999,1.66,0.53,0.44,-0.12,-0.14
1.378252029418945,2,3,3,2,-9.65,1.64,0.49,0.43,-0.08,-0.16
1.388252019882202,2,3,3,2,-9.640000000000001,1.65,0.51,0.34,0.04,-0.2
1.398252010345459,2,3,3,2,-9.66,1.66,0.55,0.36,0.04,-0.2
1.408252000808716,2,3,3,2,-9.67,1.69,0.58,0.4,0.05,-0.24
1.418251991271973,2,3,3,2,-9.65,1.69,0.55,0.43,0.03,-0.27
1.428251981735229,2,3,3,2,-9.68,1.68,0.48,0.42,-0.05,-0.31
1.438251972198486,2,3,3,2,-9.710000000000001,1.66,0.54,0.43,-0.12,-0.35
1.448251962661743,2,3,3,2,-9.67,1.67,0.53,0.5,-0.12,-0.4
1.458251953125,2,3,3,2,-9.65,1.68,0.54,0.48,-0.08,-0.38
1.468251943588257,2,3,3,2,-9.640000000000001,1.69,0.51,0.37,0,-0.41
1.478251934051514,2,3,3,2,-9.630000000000001,1.71,0.46,0.35,-0.05,-0.41
1.48825216293335,2,3,3,2,-9.640000000000001,1.73,0.49,0.44,-0.07000000000000001,-0.42
1.498252153396606,2,3,3,2,-9.67,1.73,0.48,0.46,-0.06,-0.4
1.508252143859863,2,3,3,2,-9.630000000000001,1.76,0.55,0.38,-0.18,-0.38
1.51825213432312,2,3,3,2,-9.66,1.74,0.53,0.31,-0.19,-0.43
1.528252124786377,2,3,3,2,-9.67,1.76,0.45,0.27,-0.2,-0.49
1.538252115249634,2,3,3,2,-9.640000000000001,1.76,0.44,0.23,-0.27,-0.49
1.548252105712891,2,3,3,2,-9.640000000000001,1.76,0.53,0.18,-0.21,-0.45
1.558252096176147,2,3,3,2,-9.69,1.72,0.5600000000000001,0.08,-0.15,-0.4
1.568252086639404,2,3,3,2,-9.68,1.71,0.58,0.02,-0.17,-0.41
1.578252077102661,2,3,3,2,-9.69,1.69,0.49,0.08,-0.21,-0.36
1.588252067565918,2,3,3,2,-9.65,1.7,0.52,0.09,-0.14,-0.34
1.598252058029175,2,3,3,2,-9.66,1.68,0.53,0.06,-0.15,-0.27
1.608252048492432,2,3,3,2,-9.68,1.68,0.55,0.02,-0.15,-0.22
1.618252038955688,2,3,3,2,-9.75,1.61,0.58,0.08,-0.02,-0.18
1.628252029418945,2,3,3,2,-9.69,1.59,0.51,0.07000000000000001,0.09,-0.08
1.638252019882202,2,3,3,2,-9.699999999999999,1.63,0.5,0.14,0.12,-0.02
1.648252010345459,2,3,3,2,-9.699999999999999,1.64,0.54,0.23,0.12,0.02
1.658252000808716,2,3,3,2,-9.66,1.66,0.54,0.23,0.08,0.07000000000000001
1.668251991271973,2,3,3,2,-9.74,1.69,0.55,0.23,0.07000000000000001,0.12
1.678251981735229,2,3,3,2,-9.710000000000001,1.69,0.46,0.26,0.03,0.12
1.689252138137817,2,3,3,2,-9.710000000000001,1.75,0.49,0.3,-0.05,0.1
1.699252128601074,2,3,3,2,-9.66,1.76,0.52,0.37,-0.05,0.13
1.709252119064331,2,3,3,2,-9.630000000000001,1.8,0.52,0.34,-0.07000000000000001,0.16
1.719252109527588,2,3,3,2,-9.67,1.81,0.53,0.29,-0.15,0.15
1.729252099990845,2,3,3,2,-9.67,1.81,0.48,0.28,-0.16,0.1
1.739252090454102,2,3,3,2,-9.630000000000001,1.82,0.53,0.19,-0.21,0.06
1.749252080917358,2,3,3,2,-9.619999999999999,1.87,0.54,0.08,-0.24,0.05
1.759252071380615,2,3,3,2,-9.619999999999999,1.86,0.57,0.07000000000000001,-0.26,0
1.769252061843872,2,3,3,2,-9.609999999999999,1.81,0.5600000000000001,0.01,-0.18,-0.01
1.779252052307129,2,3,3,2,-9.57,1.78,0.54,-0.15,-0.14,-0.02
1.789252042770386,2,3,3,2,-9.609999999999999,1.74,0.5600000000000001,-0.24,-0.09,-0.03
1.799252033233643,2,3,3,2,-9.73,1.68,0.58,-0.32,0,-0.02
1.809252023696899,2,3,3,2,-9.720000000000001,1.68,0.59,-0.3,0.03,0.12
1.819252014160156,2,3,3,2,-9.75,1.63,0.54,-0.3,0.03,0.12
1.829252004623413,2,3,3,2,-9.789999999999999,1.6,0.46,-0.22,0.01,0.21
1.83925199508667,2,3,3,2,-9.77,1.63,0.53,-0.12,-0.06,0.39
1.849251985549927,2,3,3,2,-9.73,1.64,0.57,-0.05,-0.14,0.45
1.859251976013184,2,3,3,2,-9.75,1.64,0.5600000000000001,0.08,-0.28,0.51
1.86925196647644,2,3,3,2,-9.699999999999999,1.7,0.57,0.18,-0.42,0.5
1.879251956939697,2,3,3,2,-9.66,1.73,0.52,0.18,-0.54,0.57
1.889251947402954,2,3,3,2,-9.619999999999999,1.75,0.58,0.19,-0.6,0.6
1.899251937866211,2,3,3,2,-9.630000000000001,1.78,0.6,0.14,-0.66,0.57
1.909251928329468,2,3,3,2,-9.6,1.78,0.61,0.05,-0.71,0.53
1.919252157211304,2,3,3,2,-9.56,1.72,0.6,0.07000000000000001,-0.72,0.39
1.929252147674561,2,3,3,2,-9.65,1.71,0.57,-0.09,-0.71,0.22
1.939252138137817,2,3,3,2,-9.640000000000001,1.71,0.61,-0.29,-0.6899999999999999,0.15
1.949252128601074,2,3,3,2,-9.630000000000001,1.75,0.59,-0.23,-0.6899999999999999,0.15
1.959252119064331,2,3,3,2,-9.619999999999999,1.76,0.58,-0.15,-0.58,0.17
1.969252109527588,2,3,3,2,-9.68,1.69,0.6,-0.16,-0.46,0.22
1.979252099990845,2,3,3,2,-9.699999999999999,1.64,0.58,-0.18,-0.44,0.29
1.989252090454102,2,3,3,2,-9.68,1.64,0.67,-0.24,-0.52,0.28
1.999252080917358,2,3,3,2,-9.630000000000001,1.66,0.67,-0.32,-0.66,0.32
2.009252071380615,2,3,3,2,-9.640000000000001,1.65,0.71,-0.41,-0.78,0.34
2.019252061843872,2,3,3,2,-9.66,1.64,0.75,-0.47,-0.85,0.41
2.029252052307129,2,3,3,2,-9.699999999999999,1.61,0.7,-0.41,-0.96,0.45
2.039252042770386,2,3,3,2,-9.66,1.64,0.6899999999999999,-0.3,-1.14,0.44
2.049252033233643,2,3,3,2,-9.59,1.74,0.82,-0.25,-1.17,0.26
2.059252023696899,2,3,3,2,-9.859999999999999,1.77,1.24,-0.91,-1.35,-0.14
2.069252014160156,2,3,3,2,-10.08,1.65,1.34,-1.58,-2.5,-0.52
2.079252004623413,2,3,3,2,-9.43,1.63,0.37,-0.91,-3.37,-0.59
2.08925199508667,2,3,3,2,-9.539999999999999,1.7,0.49,-0.5600000000000001,-2.51,-0.58
2.099251985549927,2,3,3,2,-9.77,1.72,0.84,-1.24,-1.82,-0.64
2.109251976013184,2,3,3,2,-9.75,1.71,0.89,-1.3,-2.17,-0.58
2.11925196647644,2,3,3,2,-9.640000000000001,1.63,0.65,-0.6,-2.07,-0.46
2.129251956939697,2,3,3,2,-9.75,1.56,0.74,-0.47,-1.54,-0.54
2.139251947402954,2,3,3,2,-9.74,1.57,0.88,-0.71,-1.53,-0.6
2.149251937866211,2,3,3,2,-9.640000000000001,1.58,0.9399999999999999,-0.82,-1.78,-0.63
2.159251928329468,2,3,3,2,-9.609999999999999,1.64,1.05,-0.74,-1.82,-0.73
2.169252157211304,2,3,3,2,-9.58,1.72,1.05,-0.57,-1.73,-0.8
2.179252147674561,2,3,3,2,-9.52,1.72,0.97,-0.42,-1.66,-0.8
2.189252138137817,2,3,3,2,-9.48,1.74,0.96,-0.31,-1.61,-0.77
2.199252128601074,2,3,3,2,-9.48,1.7,0.9399999999999999,-0.28,-1.35,-0.87
2.209252119064331,2,3,3,2,-9.529999999999999,1.69,1.15,-0.46,-1,-1.03
2.219252109527588,2,3,3,2,-9.470000000000001,1.69,1.15,-0.39,-0.9399999999999999,-1.19
2.229252099990845,2,3,3,2,-9.449999999999999,1.71,0.92,-0.29,-0.85,-1.25
2.239252090454102,2,3,3,2,-9.59,1.68,0.93,-0.54,-0.59,-1.29
2.249252080917358,2,3,3,2,-9.59,1.63,0.98,-0.64,-0.38,-1.26
2.259252071380615,2,3,3,2,-9.67,1.64,1.12,-0.68,-0.16,-1.16
2.269252061843872,2,3,3,2,-9.73,1.59,1.22,-0.6,-0.15,-1.08
2.279252052307129,2,3,3,2,-9.73,1.61,1.09,-0.45,-0.19,-0.95
2.289252042770386,2,3,3,2,-9.69,1.64,1.03,-0.21,-0.25,-0.87
2.299252033233643,2,3,3,2,-9.66,1.69,1.01,0.01,-0.35,-0.75
2.309252023696899,2,3,3,2,-9.609999999999999,1.78,0.85,0.13,-0.41,-0.65
2.319252014160156,2,3,3,2,-9.59,1.79,0.89,0.13,-0.41,-0.58
2.329252004623413,2,3,3,2,-9.609999999999999,1.8,0.87,-0.05,-0.38,-0.53
2.33925199508667,2,3,3,2,-9.619999999999999,1.79,0.97,-0.19,-0.31,-0.53
2.349251985549927,2,3,3,2,-9.619999999999999,1.76,1.07,-0.13,-0.24,-0.49
2.359251976013184,2,3,3,2,-9.609999999999999,1.74,1.08,0.02,-0.11,-0.44
2.36925196647644,2,3,3,2,-9.609999999999999,1.74,1.11,0.07000000000000001,-0.05,-0.4
2.379251956939697,2,3,3,2,-9.6,1.76,1.02,-0.01,-0.06,-0.31
2.389251947402954,2,3,3,2,-9.56,1.76,1.16,-0.01,0.04,-0.27
2.399251937866211,2,3,3,2,-9.609999999999999,1.79,1.17,-0.07000000000000001,0.09,-0.21
2.409251928329468,2,3,3,2,-9.58,1.76,1.13,-0.03,0.06,-0.15
2.419252157211304,2,3,3,2,-9.550000000000001,1.71,1.09,0.03,0.1,-0.08
2.429252147674561,2,3,3,2,-9.57,1.64,0.97,-0.06,0.3,-0.06
2.439252138137817,2,3,3,2,-9.6,1.58,1.07,-0.2,0.5,-0.03
2.449252128601074,2,3,3,2,-9.630000000000001,1.55,1.16,-0.3,0.6,-0.06
2.459252119064331,2,3,3,2,-9.67,1.54,1.22,-0.32,0.65,-0.05
2.469252109527588,2,3,3,2,-9.69,1.56,1.19,-0.32,0.5600000000000001,-0.06
2.479252099990845,2,3,3,2,-9.68,1.53,1.12,-0.27,0.41,0
2.489252090454102,2,3,3,2,-9.68,1.57,1.11,-0.13,0.31,0.05
2.499252080917358,2,3,3,2,-9.710000000000001,1.56,1.07,0,0.26,0.11
2.509252071380615,2,3,3,2,-9.66,1.56,1.11,0.04,0.25,0.18
2.519252061843872,2,3,3,2,-9.66,1.55,1.13,0.03,0.24,0.23
2.529252052307129,2,3,3,2,-9.609999999999999,1.55,1.03,0.1,0.21,0.24
2.539252042770386,2,3,3,2,-9.66,1.52,1.05,0.15,0.26,0.19
2.549252033233643,2,3,3,2,-9.67,1.53,1.06,0.17,0.3,0.11
2.559252023696899,2,3,3,2,-9.68,1.53,1.11,0.04,0.37,0.07000000000000001
2.569252014160156,2,3,3,2,-9.65,1.51,1.2,-0.07000000000000001,0.36,0.07000000000000001
2.579252004623413,2,3,3,2,-9.6,1.5,1,-0.02,0.27,0.07000000000000001
2.58925199508667,2,3,3,2,-9.630000000000001,1.51,0.96,0.04,0.27,0
2.599251985549927,2,3,3,2,-9.640000000000001,1.45,1.1,-0.1,0.35,-0.08
2.610252141952515,2,3,3,2,-9.68,1.42,1.24,-0.15,0.38,-0.17
2.61925196647644,2,3,3,2,-9.68,1.42,1.24,-0.05,0.29,-0.15
2.629251956939697,2,3,3,2,-9.68,1.41,1.04,-0.04,0.21,-0.17
2.640252113342285,2,3,3,2,-9.68,1.39,1.05,-0.04,0.13,-0.15
2.649251937866211,2,3,3,2,-9.68,1.41,1.04,0,0.05,-0.14
2.659251928329468,2,3,3,2,-9.68,1.49,1.04,0.01,-0.03,-0.12
2.669252157211304,2,3,3,2,-9.699999999999999,1.5,1.07,-0.07000000000000001,-0.09,-0.07000000000000001
2.679252147674561,2,3,3,2,-9.69,1.51,0.99,-0.15,-0.15,-0.09
2.689252138137817,2,3,3,2,-9.68,1.52,1.03,-0.23,-0.23,-0.06
2.699252128601074,2,3,3,2,-9.640000000000001,1.52,1.04,-0.29,-0.25,-0.03
2.710252046585083,2,3,3,2,-9.640000000000001,1.52,1.04,-0.29,-0.25,-0.03
2.72025203704834,2,3,3,2,-9.630000000000001,1.51,1.03,-0.34,-0.28,-0.02
2.730252027511597,2,3,3,2,-9.640000000000001,1.53,1.01,-0.42,-0.22,-0.05
2.740252017974854,2,3,3,2,-9.609999999999999,1.53,1.01,-0.43,-0.23,-0.08
2.75025200843811,2,3,3,2,-9.630000000000001,1.52,1.03,-0.46,-0.2,-0.08
2.760251998901367,2,3,3,2,-9.630000000000001,1.52,1.03,-0.46,-0.2,-0.08
2.770251989364624,2,3,3,2,-9.640000000000001,1.53,1.03,-0.57,-0.06,-0.12
2.780251979827881,2,3,3,2,-9.74,1.47,1.13,-0.6899999999999999,-0.03,-0.19
2.790251970291138,2,3,3,2,-9.710000000000001,1.45,1.04,-0.53,-0.08,-0.16
2.800251960754395,2,3,3,2,-9.66,1.44,1.01,-0.42,-0.08,-0.1
2.810251951217651,2,3,3,2,-9.6,1.47,0.99,-0.42,-0.08,-0.1
2.820251941680908,2,3,3,2,-9.65,1.48,1.09,-0.45,-0.02,-0.07000000000000001
2.830251932144165,2,3,3,2,-9.66,1.47,1.05,-0.43,-0.07000000000000001,-0.01
2.840252161026001,2,3,3,2,-9.67,1.51,0.93,-0.45,-0.04,0.04
2.850252151489258,2,3,3,2,-9.66,1.47,0.95,-0.47,0.06,0.04
2.860252141952515,2,3,3,2,-9.69,1.5,1.07,-0.47,0.06,0.04
2.870252132415771,2,3,3,2,-9.66,1.49,1.09,-0.5,0.07000000000000001,0.03
2.880252122879028,2,3,3,2,-9.640000000000001,1.51,1.09,-0.53,0.09,-0.03
2.890252113342285,2,3,3,2,-9.65,1.46,1.05,-0.54,0.13,-0.06
2.900252103805542,2,3,3,2,-9.67,1.44,1.16,-0.47,0.08,-0.08
2.910252094268799,2,3,3,2,-9.65,1.46,1.16,-0.47,0.08,-0.08
2.920252084732056,2,3,3,2,-9.66,1.45,1.13,-0.37,0.09,-0.08
2.930252075195312,2,3,3,2,-9.66,1.48,1.04,-0.17,0.04,-0.11
2.940252065658569,2,3,3,2,-9.67,1.5,0.99,-0.14,-0.01,-0.1
2.950252056121826,2,3,3,2,-9.67,1.5,1.01,-0.14,0.06,-0.08
2.960252046585083,2,3,3,2,-9.67,1.48,1.02,-0.14,0.06,-0.08
2.97025203704834,2,3,3,2,-9.67,1.5,1.16,-0.26,0.16,-0.11
2.980252027511597,2,3,3,2,-9.67,1.49,1.15,-0.26,0.05,-0.01
2.990252017974854,2,3,3,2,-9.66,1.48,1.04,-0.2,0.02,0.04
3.00025200843811,2,3,3,2,-9.640000000000001,1.5,1.02,-0.17,0.04,0.1
3.010251998901367,2,3,3,2,-9.65,1.54,1.13,-0.17,0.04,0.1
3.020251989364624,2,3,3,2,-9.640000000000001,1.54,1.09,0,0.15,0.19
3.030251979827881,2,3,3,2,-9.66,1.57,1.07,0,0.2,0.22
3.040251970291138,2,3,3,2,-9.699999999999999,1.58,1.03,-0.11,0.22,0.3
3.050251960754395,2,3,3,2,-9.65,1.62,1.09,-0.12,0.17,0.37
3.060251951217651,2,3,3,2,-9.59,1.59,1.09,-0.12,0.17,0.37
3.070251941680908,2,3,3,2,-9.58,1.58,1.05,-0.09,0.19,0.41
3.080251932144165,2,3,3,2,-9.550000000000001,1.61,1.04,-0.17,0.43,0.52
3.090252161026001,2,3,3,2,-9.52,1.64,0.96,-0.22,0.59,0.6
3.100252151489258,2,3,3,2,-9.529999999999999,1.64,1.02,-0.26,0.85,0.65
3.110252141952515,2,3,3,2,-9.57,1.63,1.09,-0.26,0.85,0.65
3.120252132415771,2,3,3,2,-9.619999999999999,1.62,1.07,-0.25,1.15,0.7
3.130252122879028,2,3,3,2,-9.640000000000001,1.59,1.02,-0.03,1.43,0.75
3.140252113342285,2,3,3,2,-9.640000000000001,1.56,0.96,-0.06,1.36,0.88
3.150252103805542,2,3,3,2,-9.619999999999999,1.54,0.95,-0.14,1.23,0.95
3.160252094268799,2,3,3,2,-9.640000000000001,1.42,0.91,-0.14,1.23,0.95
3.170252084732056,2,3,3,2,-9.68,1.38,1,-0.14,1.24,1.02
3.180252075195312,2,3,3,2,-9.75,1.3,1.1,-0.19,1.36,1.03
3.190252065658569,2,3,3,2,-9.789999999999999,1.28,1.04,0.23,1.08,1.14
3.200252056121826,2,3,3,2,-9.76,1.32,0.9399999999999999,0.23,1.08,1.14
3.210252046585083,2,3,3,2,-9.75,1.37,0.88,0.6,0.9,1.31
3.22025203704834,2,3,3,2,-9.76,1.38,0.91,0.87,0.71,1.47
3.230252027511597,2,3,3,2,-9.789999999999999,1.37,0.82,0.98,0.59,1.67
3.240252017974854,2,3,3,2,-9.68,1.37,0.65,1.16,0.38,1.93
3.25025200843811,2,3,3,2,-9.630000000000001,1.43,0.71,1.18,0.14,2.12
3.260251998901367,2,3,3,2,-9.619999999999999,1.39,0.76,0.9399999999999999,0.2,2.13
3.270251989364624,2,3,3,2,-9.789999999999999,1.31,0.8100000000000001,0.71,-0.07000000000000001,2.45
3.280251979827881,2,3,3,2,-10.08,1.76,0.89,0.65,-0.58,2.83
3.290251970291138,2,3,3,2,-9.880000000000001,1.96,0.73,0.24,-1.4,3.09
3.300251960754395,2,3,3,2,-9.619999999999999,2.17,0.84,0,-2.71,2.56
3.310251951217651,2,3,3,2,-10.03,2.26,0.71,-0.4,-2.78,1.7
3.320251941680908,2,3,3,2,-9.43,1.81,0.85,-1.51,-3.59,0.96
3.330251932144165,2,3,3,2,-8.5,2.21,1.4,-1.96,-5.27,1.8
3.340252161026001,2,3,3,2,-8.1,2.34,1.54,-0.63,-3.59,1.64
3.350252151489258,2,3,3,2,-8.77,3.03,1.13,1.48,-2.58,1.98
3.360252141952515,2,3,3,2,-8.77,3.04,0.99,2.62,-3.16,0.93
3.370252132415771,2,3,3,2,-8.619999999999999,2.77,0.87,2.44,-1.93,0.53
3.380252122879028,2,3,3,2,-8.32,1.88,0.36,1.86,-1.58,-0.85
3.390252113342285,2,3,3,2,-7.41,3.11,1.31,3.31,-0.63,-0.84
3.400252103805542,2,3,3,2,-4.82,0.98,0.92,3.07,-2.25,-0.38
3.410252094268799,2,3,3,2,-4.96,1.97,0.71,2.46,-1.52,1.9
3.420252084732056,2,3,3,2,-7.73,3.19,0.55,4.08,0.72,2.83
3.430252075195312,2,3,3,2,-6.23,2.48,-0.05,3.79,0.96,3.54
3.440252065658569,2,3,3,2,-8.300000000000001,5.02,-0.57,2.23,0.55,6.76
3.450252056121826,2,3,3,2,-8,4.35,-0.6899999999999999,1.93,-4.75,4.68
3.460252046585083,2,3,3,2,-9.710000000000001,4.15,0.37,-0.41,-10.72,3.27
3.47025203704834,2,3,3,2,-1.06,0.24,2.34,-2.25,-4.76,1.13
3.480252027511597,2,3,3,2,-4.86,2.64,2.34,-3.94,11.33,3.21
3.490252017974854,2,3,3,2,-7.92,2.05,0.6,0.04,14.15,3.81
3.50025200843811,2,3,3,2,-8.1,2.43,-0.03,1.08,0.15,4.28
3.510251998901367,2,3,3,2,-7.57,2.52,0.7,-0.79,-6.45,4.44
3.520251989364624,2,3,3,3,-7.8,2.57,1.14,-3.68,-4.73,4.76
3.530251979827881,2,3,3,3,-8.289999999999999,2.38,1.25,-4.83,-2.97,4.68
3.540251970291138,2,3,3,3,-8.16,1.52,0.45,-4.63,-2.72,4.37
3.550251960754395,2,3,3,3,-7.45,0.95,0.24,-3,-1.96,4.43
3.560251951217651,2,3,3,3,-7.06,0.45,0.52,-1.09,0.15,4.8
3.570251941680908,2,3,3,3,-7.1,0.31,0.96,-0.41,2.21,5.4
3.580251932144165,2,3,3,3,-6.75,0.8,1.51,-0.78,2.49,5.62
3.590252161026001,2,3,3,3,-6.65,1.23,1.38,-1.03,1.52,5.17
3.600252151489258,2,3,3,3,-6.65,1.68,1.49,-0.85,0.5600000000000001,4.26
3.610252141952515,2,3,3,3,-7.07,2.16,1.77,-0.66,0.24,3.42
3.620252132415771,2,3,3,3,-8.66,2.26,2.02,-1,0.16,2.6
3.630252122879028,2,3,3,3,-9.56,2.33,2.28,-0.58,-0.13,1.85
3.640252113342285,2,3,3,3,-10.42,2.19,2.36,0.09,-0.36,1.13
3.650252103805542,2,3,3,3,-11.22,2.38,2.51,0.57,-0.58,0.66
3.660252094268799,2,3,3,3,-12.13,2.34,1.63,0.87,-0.36,0.19
3.670252084732056,2,3,3,3,-12.58,2.31,1.29,0.41,0.7,-0.01
3.680252075195312,2,3,3,3,-13.07,2.15,1.34,-0.92,2.13,-0.13
3.690252065658569,2,3,3,3,-13.5,1.79,1.22,-3.09,2.48,-0.1
3.700252056121826,2,3,3,3,-13.02,1.19,1.56,-4.48,0.59,-0.07000000000000001
3.710252046585083,2,3,3,3,-12.47,1.36,2.1,-3.8,-1.29,0
3.72025203704834,2,3,3,3,-12.23,1.4,2.33,-1.95,-2.26,0.22
3.730252027511597,2,3,3,3,-12.05,1.81,2.57,-0.43,-1.96,0.26
3.741251945495605,2,3,3,3,-11.83,2.22,2.52,0.74,-0.93,-0.05
3.751251935958862,2,3,3,3,-11.84,2.56,2.5,1.81,-0.31,-0.4
3.761252164840698,2,3,3,3,-11.99,2.84,2.17,3.01,0.27,-0.71
3.771252155303955,2,3,3,3,-11.97,3.23,1.27,3.67,0.52,-0.95
3.781252145767212,2,3,3,3,-12.13,3.21,1.36,3.22,0.74,-1.03
3.791252136230469,2,3,3,3,-12.26,3.15,1.63,1.28,0.77,-1.19
3.801252126693726,2,3,3,3,-12.28,3.2,1.94,-0.76,-0.09,-1.43
3.811252117156982,2,3,3,3,-12.32,3.19,2.41,-1.48,-1.27,-1.48
3.821252107620239,2,3,3,3,-12.36,3.12,2.4,-0.95,-1.86,-1.49
3.831252098083496,2,3,3,3,-12.22,2.97,2.28,-0.24,-1.6,-1.74
3.841252088546753,2,3,3,3,-12.19,2.91,2.11,0.31,-0.82,-1.83
3.85125207901001,2,3,3,3,-12.42,2.89,1.9,0.48,0.11,-1.7
3.861252069473267,2,3,3,3,-12.61,3.11,1.95,0.39,0.76,-1.44
3.871252059936523,2,3,3,3,-12.96,3.27,2.27,0.17,0.82,-1.1
3.88125205039978,2,3,3,3,-13.19,3.6,2.74,0.09,0.74,-0.87
3.891252040863037,2,3,3,3,-14.64,4.5,3.68,0.97,0.98,-0.6
3.901252031326294,2,3,3,3,-15.66,4.59,3.39,2.23,1.23,-0.26
3.911252021789551,2,3,3,3,-16.52,4.66,3.26,2.71,1.83,-0.35
3.921252012252808,2,3,3,3,-18.35,4.32,2.91,2.45,3.47,-1.22
3.931252002716064,2,3,3,3,-19.45,4.17,2.85,1.33,4.51,-2.03
3.941251993179321,2,3,3,3,-20.47,3.75,3.04,-0.11,4.09,-1.81
3.951251983642578,2,3,3,3,-21.54,3.33,3.71,-2.61,2.88,-1.68
3.961251974105835,2,3,3,3,-22.44,1.98,4.76,-4.68,2.19,-1.95
3.971251964569092,2,3,3,3,-22.78,1.39,5.41,-4.91,2.73,-3.15
3.981251955032349,2,3,3,3,-22.98,0.8,5.64,-4.54,4.82,-5.13
3.991251945495605,2,3,3,3,-23.34,0.26,6.04,-3.85,7.02,-7.18
4.001251935958862,2,3,3,3,-24.74,0.05,5.3,-2.67,7.8,-8.699999999999999
4.011252164840698,2,3,3,3,-25.29,-0.2,4.24,-0.35,7.19,-9.41
4.021252155303955,2,3,3,3,-25.61,-0.03,3.42,2.53,6.67,-9.68
4.031252145767212,2,3,3,3,-25.37,0.95,2.46,4.44,5.66,-9.34
4.041252136230469,2,3,3,3,-19.96,4.04,0.44,5.49,2.75,-7.89
4.051252126693726,2,3,3,3,-16.84,5.21,-0.28,6.16,-0.23,-4.53
4.061252117156982,2,3,3,3,-13.29,6.08,-1.36,6.96,-2.26,-0.26
4.071252107620239,2,3,3,3,-9.56,7.1,-2.33,9.59,-1.76,2.83
4.081252098083496,2,3,3,3,-4.43,7.45,-5.61,12.52,1.36,3.86
4.091252088546753,2,3,3,3,-1.83,7.07,-6.42,14.72,3.04,3.21
4.10125207901001,2,3,3,3,0.47,7.32,-4.79,14.47,2.77,2.18
4.111252069473267,2,3,3,3,4.02,11.19,-1.82,9.039999999999999,1.55,2.3
4.121252059936523,2,3,3,3,7.02,12.44,-3.07,2.47,-9.779999999999999,5.23
4.13125205039978,2,3,3,3,9.15,12.38,-5.79,2.47,-9.779999999999999,5.23
4.141252040863037,2,3,3,3,9.08,10.35,-8.529999999999999,5.2,-12.21,6.64
4.151252031326294,2,3,3,3,3.03,5.69,-5.44,-2.92,3.22,2.96
4.161252021789551,2,3,3,3,0.9399999999999999,3.05,-2.91,-15.68,8.710000000000001,1.07
4.171252012252808,2,3,3,3,0.96,1.79,-1.58,-21.76,6.36,-0.15
4.181252002716064,2,3,3,3,1.27,0.9,-0.6899999999999999,-22.95,3.82,-1.65
4.191251993179321,2,3,3,3,1.23,-0.64,0.98,-21.3,0.89,-3.62
4.201251983642578,2,3,3,3,1.39,-1.06,1.04,-18.21,-2.78,-5.21
4.211251974105835,2,3,3,3,1.53,-1.3,0.77,-15.32,-4.68,-6.06
4.221251964569092,2,3,3,3,1.33,-1.71,0.83,-13.37,-4.63,-6.08
4.231251955032349,2,3,3,3,-0.75,-2.67,0.98,-10.98,-3.13,-5.58
4.241251945495605,2,3,3,3,-1.89,-2.77,1.12,-8.199999999999999,-1.96,-4.61
4.251251935958862,2,3,3,3,-2.86,-2.63,1.43,-5.07,-1.9,-3.72
4.261252164840698,2,3,3,3,-3.31,-2.57,1.52,-1.87,-2.65,-3.02
4.271252155303955,2,3,3,2,-3.26,-2.69,0.54,0.31,-2.61,-2.38
4.281252145767212,2,3,3,2,-3.13,-2.63,0.38,0.67,-1.08,-1.5
4.291252136230469,2,3,3,2,-2.7,-2.44,0.15,0.8,-0.41,-0.09
4.301252126693726,2,3,3,2,-1.79,-2.03,0.18,0.9,-0.42,1.43
4.311252117156982,2,3,3,2,0.07000000000000001,-1.66,0.07000000000000001,0.84,-0.31,2.79
4.321252107620239,2,3,3,2,0.78,-1.75,0.12,0.76,0.17,3.98
4.331252098083496,2,3,3,2,1.19,-1.86,0.35,1.03,0.13,4.83
4.341252088546753,2,3,3,2,1.65,-2.04,0.43,2.6,0.02,5.52
4.35125207901001,2,3,3,2,1.48,-1.88,0.59,4.97,0.03,6.05
4.361252069473267,2,3,3,2,1.24,-1.59,0.59,7.13,-0.31,6.46
4.371252059936523,2,3,3,2,0.75,-1.39,0.6,8.52,-0.24,6.38
4.38125205039978,2,3,3,2,-0.14,-0.85,0.55,9.380000000000001,-0.23,5.74
4.391252040863037,2,3,3,2,-0.4,-0.3,0.51,10.39,-0.87,4.9
4.401252031326294,2,3,3,2,-0.53,0.18,0.44,11.37,-2.01,4.19
4.411252021789551,2,3,3,2,-0.39,0.6899999999999999,-0.09,12.88,-3.17,3.31
4.421252012252808,2,3,3,2,-0.52,1.9,-0.41,13.22,-3.97,2.46
4.431252002716064,2,3,3,2,-0.84,2.1,-0.49,11.1,-5.57,1.83
4.441251993179321,2,3,3,2,-0.07000000000000001,1.76,-1.45,9.140000000000001,-7.58,1.51
4.451251983642578,2,3,3,2,1.14,1.55,-2.25,7.52,-5.85,0.6899999999999999
4.461251974105835,2,3,3,2,-0.33,3.45,1.25,4.25,-3.03,-0.67
4.471251964569092,2,3,3,2,-1.04,4.96,1.95,3.76,-5.55,-1.59
4.481251955032349,2,3,3,2,0.71,6.5,-0.07000000000000001,10.91,-9.109999999999999,-1.88
4.491251945495605,2,3,3,2,1.13,8.67,-1.57,12.4,-3.72,-4.04
4.501251935958862,2,3,3,2,-8.4,15.97,-0.54,4.22,-2.06,-7.12
4.511252164840698,2,3,3,2,-12.9,17.33,0.9,-8.74,-3.96,-13.45
4.521252155303955,2,3,3,2,-23.98,19.59,4.26,-28.75,-8.640000000000001,-17.67
4.531252145767212,2,3,3,2,-35.31,17.87,-6.45,-43.89,-18.25,-28.72
4.541252136230469,2,3,3,2,-39.19,-0.4,-2.63,-55.52,-8.16,-31.45
4.551252126693726,2,3,3,2,-39.27,-20.88,1.1,-55.57,10.21,-14.37
4.561252117156982,2,3,3,2,-39.25,-28.2,8.619999999999999,-32.07,27.2,-4.21
4.571252107620239,2,3,3,2,-26.26,-8.140000000000001,10.09,-6.47,2.7,-9.119999999999999
4.581252098083496,2,3,3,2,-13.32,-4.25,8.68,14.58,-7.68,-4.8
4.591252088546753,2,3,3,2,-11.49,-4.73,7.5,15.41,-2.76,-6.11
4.60125207901001,2,3,3,2,-12.16,-5.48,5.77,17.76,0.66,-6.93
4.611252069473267,2,3,3,2,-20.52,-4.13,4.79,16.43,1.9,-5.43
4.621252059936523,2,3,3,2,-23.08,-2.65,3.11,14.79,0.73,-2.51
4.63125205039978,2,3,3,2,-23.39,-0.48,2.23,14.7,2.44,2.25
4.641252040863037,2,3,3,2,-20.81,1.81,1.9,12.55,2.28,7.38
4.651252031326294,2,3,3,2,-15.04,3.82,4.17,9.09,0.79,10.82
4.661252021789551,2,3,3,2,-14.35,4.73,4.11,6.26,0.96,11.34
4.671252012252808,2,3,3,2,-13.84,4.2,2.86,3.81,0.76,9.84
4.681252002716064,2,3,3,2,-13.07,3.15,2.06,1.58,0.8100000000000001,6.72
4.691251993179321,2,3,3,2,-13.39,1.54,2.73,-0.27,-0.61,3.82
4.701251983642578,2,3,3,2,-13.14,1.16,2.76,-0.44,-3.85,1.66
4.711251974105835,2,3,3,2,-12.09,1,2.32,1.2,-3.86,0.18
4.721251964569092,2,3,3,2,-10.91,1.06,1.84,2.48,-1.47,-0.9399999999999999
4.731251955032349,2,3,3,2,-8.58,0.85,1.39,2.99,1.91,-1.84
4.741251945495605,2,3,3,2,-7.73,0.8,0.99,3.26,5.49,-1.61
4.751251935958862,2,3,3,2,-7.6,0.76,0.6,2.88,6.92,-0.52
4.76225209236145,2,3,3,2,-8.17,0.97,0.16,1.61,5.93,0.84
4.772252082824707,2,3,3,2,-7.9,1.02,-0.01,0.64,4.05,2.14
4.782252073287964,2,3,3,2,-7.34,1.31,0,0.12,2.77,3
4.792252063751221,2,3,3,2,-6.34,1.44,0,-0.51,1.53,3.57
4.802252054214478,2,3,3,2,-4.59,1.63,0.37,-1.26,0.59,3.95
4.812252044677734,2,3,3,2,-3.94,1.82,0.13,-1.36,0.27,3.92
4.822252035140991,2,3,3,2,-4.35,1.44,0.07000000000000001,-1.41,0.6899999999999999,3.52
4.832252025604248,2,3,3,2,-4.75,1.07,0.18,-0.91,1.95,2.87
4.842252016067505,2,3,3,2,-5.85,0.7,-0.09,-0.55,1.86,1.63
4.852252006530762,2,3,3,2,-6.47,0.63,0.16,-0.91,0.13,0.28
4.862251996994019,2,3,3,2,-6.49,0.72,0.2,-0.88,-2.57,-1.21
4.872251987457275,2,3,3,2,-6.49,0.72,0.2,-0.8100000000000001,-4.6,-2.41
4.882251977920532,2,3,3,2,-6.55,1,0.48,-0.95,-5.63,-3.16
4.892251968383789,2,3,3,2,-7.52,2.16,1.38,-0.53,-5.78,-3.57
4.902251958847046,2,3,3,2,-7.8,2.41,1.28,0.41,-5.05,-3.79
4.912251949310303,2,3,3,2,-8.16,2.58,1.02,0.72,-3.58,-4.02
4.92225193977356,2,3,3,2,-8.16,2.58,1.02,0.72,-3.58,-4.02
4.932251930236816,2,3,3,2,-8.76,2.34,0.55,0.59,-1.44,-4.13
4.942252159118652,2,3,3,2,-9.029999999999999,1.74,0.4,-0.9399999999999999,1.66,-3.42
4.952252149581909,2,3,3,2,-9.83,1.3,1.09,-2.38,1.81,-2.77
4.962252140045166,2,3,3,2,-10,1.18,1.2,-3.37,0.95,-2
4.972252130508423,2,3,3,2,-10,1.18,1.2,-3.37,0.95,-2
4.98225212097168,2,3,3,2,-10.2,1.24,1.35,-3.4,-0.08,-1.35
4.992252111434937,2,3,3,2,-10.96,0.87,1.95,-3.15,-1.56,-1.34
5.002252101898193,2,3,3,2,-10.9,0.68,2.04,-2.69,-2.03,-1.75
5.01225209236145,2,3,3,2,-10.9,0.68,2.04,-2.06,-1.97,-2.2
5.022252082824707,2,3,3,2,-10.72,0.46,2.01,-2.06,-1.97,-2.2
5.032252073287964,2,3,3,2,-10.53,0.32,1.94,-1.43,-1.26,-2.44
5.042252063751221,2,3,3,2,-9.98,0.35,1.81,-0.6899999999999999,0.11,-2.05
5.052252054214478,2,3,3,2,-9.74,0.45,1.76,-0.63,0.43,-1.63
5.062252044677734,2,3,3,2,-9.51,0.5600000000000001,1.81,-0.73,0.62,-1.14
5.072252035140991,2,3,3,3,-9.35,0.65,1.92,-0.73,0.62,-1.14
5.082252025604248,2,3,3,3,-9.19,0.84,1.73,-0.67,0.67,-0.76
5.092252016067505,2,3,3,3,-9.23,0.95,1.59,-0.8100000000000001,1.02,-0.35
5.102252006530762,2,3,3,3,-9.26,1,1.48,-1.24,1.09,-0.17
5.112251996994019,2,3,3,3,-9.33,0.95,1.6,-1.36,0.88,-0.15
5.122251987457275,2,3,3,3,-9.5,0.76,1.74,-1.36,0.88,-0.15
5.132251977920532,2,3,3,3,-9.550000000000001,0.6,1.86,-1.04,0.6899999999999999,-0.25
5.142251968383789,2,3,3,3,-9.529999999999999,0.46,1.94,-0.11,0.45,-0.38
5.152251958847046,2,3,3,3,-9.390000000000001,0.3,1.83,0.5600000000000001,0.41,-0.2
5.162251949310303,2,3,3,3,-9.19,0.32,1.75,0.99,0.52,0.25
5.17225193977356,2,3,3,3,-9.09,0.51,1.66,0.99,0.52,0.25
5.182251930236816,2,3,3,3,-9.09,0.7,1.64,1.14,0.57,0.78
5.192252159118652,2,3,3,3,-9.380000000000001,1.21,1.71,1.22,0.54,1.25
5.202252149581909,2,3,3,3,-9.48,1.4,1.61,1.28,0.18,1.08
5.212252140045166,2,3,3,3,-9.5,1.52,1.61,1.04,-0.16,0.91
5.222252130508423,2,3,3,3,-9.460000000000001,1.57,1.58,1.04,-0.16,0.91
5.23225212097168,2,3,3,3,-9.289999999999999,1.52,1.7,0.39,-0.41,0.6899999999999999
5.242252111434937,2,3,3,3,-9.23,1.46,1.84,-1.43,-0.82,0.22
5.252252101898193,2,3,3,3,-9.24,1.4,1.9,-1.75,-1.2,-0.06
5.26225209236145,2,3,3,3,-9.24,1.36,1.93,-1.74,-1.33,-0.35
5.272252082824707,2,3,3,3,-9.16,1.19,1.96,-1.74,-1.33,-0.35
5.282252073287964,2,3,3,3,-9.130000000000001,1.1,1.96,-1.6,-1.13,-0.55
5.292252063751221,2,3,3,3,-9.09,0.96,1.95,-0.89,0.03,-0.53
5.302252054214478,2,3,3,3,-9.109999999999999,0.88,1.84,-0.61,0.63,-0.37
5.312252044677734,2,3,3,3,-9.41,0.78,1.9,-0.33,0.89,-0.24
5.322252035140991,2,3,3,3,-9.539999999999999,0.77,1.84,-0.33,0.89,-0.24
5.332252025604248,2,3,3,3,-9.630000000000001,0.8100000000000001,1.8,-0.15,0.89,-0.09
5.342252016067505,2,3,3,3,-9.720000000000001,0.79,1.77,-0.44,0.5,-0.04
5.352252006530762,2,3,3,3,-9.83,0.8100000000000001,1.76,-0.74,0.14,-0.17
5.362251996994019,2,3,3,3,-9.93,0.78,1.96,-0.8,-0.33,-0.35
5.372251987457275,2,3,3,3,-9.970000000000001,0.75,2.1,-0.8,-0.33,-0.35
5.382251977920532,2,3,3,3,-9.91,0.77,2.16,-0.42,-0.8,-0.44
5.392251968383789,2,3,3,3,-9.869999999999999,0.77,2.08,0.84,-0.84,-0.19
5.402251958847046,2,3,3,3,-9.84,0.8100000000000001,1.98,1.29,-0.51,0.06
5.412251949310303,2,3,3,3,-9.84,0.88,1.96,1.53,-0.27,0.36
5.42225193977356,2,3,3,3,-9.779999999999999,1.09,1.85,1.53,-0.27,0.36
5.432251930236816,2,3,3,3,-9.74,1.18,1.75,1.64,-0.11,0.65
5.442252159118652,2,3,3,3,-9.66,1.23,1.69,1.03,0.1,1.01
5.452252149581909,2,3,3,3,-9.6,1.23,1.61,1.03,0.1,1.01
5.462252140045166,2,3,3,3,-9.470000000000001,1.25,1.76,0.51,0.09,1.13
5.472252130508423,2,3,3,3,-9.44,1.27,1.92,0.07000000000000001,-0.05,1.18
5.48225212097168,2,3,3,3,-9.43,1.27,1.98,-0.06,-0.28,1.12
5.492252111434937,2,3,3,3,-9.43,1.32,1.96,0.22,-0.54,0.97
5.502252101898193,2,3,3,3,-9.369999999999999,1.3,1.64,0.72,-0.57,0.77
5.51225209236145,2,3,3,3,-9.44,1.3,1.69,1.08,-0.29,0.59
5.522252082824707,2,3,3,3,-9.529999999999999,1.32,1.8,1.04,-0.01,0.51
5.532252073287964,2,3,3,3,-9.6,1.34,1.85,0.75,0.05,0.49
5.542252063751221,2,3,3,3,-9.5,1.27,1.51,0.43,-0.16,0.49
5.552252054214478,2,3,3,3,-9.48,1.25,1.48,0.19,-0.2,0.47
5.562252044677734,2,3,3,3,-9.550000000000001,1.25,1.69,-0.29,-0.07000000000000001,0.4
5.572252035140991,2,3,3,3,-9.59,1.2,1.9,-0.51,-0.17,0.3
5.582252025604248,2,3,3,3,-9.58,1.16,1.85,-0.31,-0.35,0.23
5.592252016067505,2,3,3,3,-9.5,1.12,1.72,0.07000000000000001,-0.36,0.17
5.602252006530762,2,3,3,3,-9.49,1.13,1.57,0.37,-0.1,0.19
5.612251996994019,2,3,3,3,-9.57,1.12,1.66,0.44,0.21,0.32
5.622251987457275,2,3,3,3,-9.59,1.13,1.69,0.35,0.24,0.48
5.632251977920532,2,3,3,3,-9.550000000000001,1.14,1.68,0.29,0.35,0.6
5.642251968383789,2,3,3,3,-9.550000000000001,1.16,1.71,0.05,0.45,0.63
5.652251958847046,2,3,3,3,-9.52,1.15,1.63,-0.2,0.4,0.63
5.662251949310303,2,3,3,3,-9.56,1.16,1.79,-0.28,0.26,0.54
5.67225193977356,2,3,3,3,-9.619999999999999,1.16,1.86,-0.24,0.02,0.49
5.682251930236816,2,3,3,3,-9.67,1.12,1.84,-0.06,-0.06,0.34
5.692252159118652,2,3,3,3,-9.710000000000001,1.1,1.71,0.26,-0.01,0.25
5.702252149581909,2,3,3,3,-9.68,1.12,1.62,0.45,0.17,0.25
5.712252140045166,2,3,3,3,-9.640000000000001,1.14,1.64,0.5600000000000001,0.34,0.28
5.722252130508423,2,3,3,3,-9.619999999999999,1.16,1.68,0.63,0.4,0.44
5.73225212097168,2,3,3,3,-9.609999999999999,1.24,1.63,0.71,0.41,0.66
5.742252111434937,2,3,3,3,-9.640000000000001,1.29,1.65,0.6899999999999999,0.38,0.83
5.752252101898193,2,3,3,3,-9.66,1.32,1.64,0.52,0.35,0.88
5.76225209236145,2,3,3,3,-9.59,1.29,1.84,0.18,0.24,0.85
5.782252073287964,2,3,3,3,-9.41,1.35,1.75,0.15,-0.17,0.68
5.793251991271973,2,3,3,3,-9.380000000000001,1.36,1.76,0.42,-0.06,0.63
5.803251981735229,2,3,3,3,-9.41,1.38,1.64,0.52,0.17,0.64
5.813251972198486,2,3,3,3,-9.449999999999999,1.38,1.65,0.5600000000000001,0.37,0.68
5.823251962661743,2,3,3,3,-9.51,1.39,1.62,0.53,0.38,0.6899999999999999
5.833251953125,2,3,3,3,-9.56,1.42,1.69,0.41,0.47,0.6899999999999999
5.843251943588257,2,3,3,3,-9.56,1.44,1.66,0.23,0.43,0.71
5.853251934051514,2,3,3,3,-9.49,1.42,1.61,0.12,0.33,0.74
5.86325216293335,2,3,3,3,-9.449999999999999,1.37,1.68,0.03,0.3,0.73
5.873252153396606,2,3,3,3,-9.42,1.34,1.73,0.02,0.38,0.77
5.883252143859863,2,3,3,3,-9.51,1.29,1.83,0.06,0.47,0.79
5.89325213432312,2,3,3,3,-9.58,1.3,1.84,0.13,0.54,0.8100000000000001
5.903252124786377,2,3,3,3,-9.609999999999999,1.28,1.73,0.19,0.47,0.85
5.913252115249634,2,3,3,3,-9.59,1.26,1.67,0.32,0.34,0.9
5.923252105712891,2,3,3,3,-9.710000000000001,1.31,1.71,0.54,0.39,0.9399999999999999
5.933252096176147,2,3,3,3,-9.720000000000001,1.36,1.7,0.64,0.5,0.96
5.943252086639404,2,3,3,3,-9.75,1.37,1.67,0.73,0.42,1.07
5.953252077102661,2,3,3,3,-9.699999999999999,1.43,1.53,0.86,0.33,1.2
5.963252067565918,2,3,3,3,-9.59,1.63,1.51,0.92,0.26,1.35
5.973252058029175,2,3,3,3,-9.460000000000001,1.66,1.56,0.9399999999999999,0.3,1.53
5.983252048492432,2,3,3,3,-9.4,1.73,1.59,0.9399999999999999,0.24,1.71
5.993252038955688,2,3,3,3,-9.27,1.86,1.57,0.92,0.14,1.82
6.003252029418945,2,3,3,3,-9.16,1.92,1.48,0.89,0.03,1.87
6.013252019882202,2,3,3,3,-9.109999999999999,1.99,1.44,0.99,-0.02,1.94
6.023252010345459,2,3,3,3,-9.06,1.99,1.37,1.27,0.08,1.99
6.033252000808716,2,3,3,3,-9.01,1.93,1.25,1.47,0.3,2.06
6.043251991271973,2,3,3,3,-8.970000000000001,1.94,1.25,1.41,0.52,2.11
6.053251981735229,2,3,3,3,-8.960000000000001,1.97,1.28,1.17,0.58,2.21
6.063251972198486,2,3,3,3,-8.92,2.05,1.4,0.78,0.37,2.37
6.073251962661743,2,3,3,3,-8.75,2.29,1.36,0.63,0.08,2.46
6.083251953125,2,3,3,3,-8.67,2.47,1.22,0.95,-0.23,2.54
6.093251943588257,2,3,3,3,-8.449999999999999,2.5,0.95,1.46,-0.36,2.64
6.103251934051514,2,3,3,3,-8.08,2.4,0.68,1.89,-0.12,3
6.11325216293335,2,3,3,3,-7.86,2.16,1.1,1.8,0.6,3.49
6.123252153396606,2,3,3,3,-7.72,2.11,1.13,1.2,1.22,3.95
6.133252143859863,2,3,3,3,-7.55,2.19,1.15,1.07,1.09,4.41
6.14325213432312,2,3,3,3,-7.43,2.22,1.21,1.32,0.73,4.95
6.153252124786377,2,3,3,3,-7.69,2.44,1.29,1.88,0.52,5.34
6.163252115249634,2,3,3,3,-7.84,2.44,1.26,2.47,0.24,5.52
6.173252105712891,2,3,3,3,-7.84,2.51,1.14,3.18,-0.23,5.65
6.183252096176147,2,3,3,3,-7.73,2.55,0.58,3.79,-0.45,5.81
6.193252086639404,2,3,3,3,-7.61,2.55,0.61,4.12,-0.3,6.13
6.203252077102661,2,3,3,3,-7.65,2.62,0.66,3.84,0.17,6.76
6.213252067565918,2,3,3,3,-7.44,2.52,0.61,3.07,0.34,7.59
6.233252048492432,2,3,3,3,-6.46,2.43,0.52,3.18,0.74,8.960000000000001
6.243252038955688,2,3,3,3,-6.31,2.35,0.68,2.6,1.44,8.859999999999999
6.253252029418945,2,3,3,3,-6.25,2.33,0.84,1.47,1.72,8.27
6.263252019882202,2,3,3,3,-7.03,2.26,1.74,0.28,1.6,7.47
6.273252010345459,2,3,3,3,-7.45,2.36,2.04,-0.54,1.1,6.66
6.283252000808716,2,3,3,3,-7.63,2.29,2.09,-0.46,0.44,5.67
6.293251991271973,2,3,3,3,-7.75,2.21,1.94,0.49,0.48,4.77
6.303251981735229,2,3,3,3,-8.300000000000001,2,1.45,1.1,1.28,4.32
6.313251972198486,2,3,3,3,-8.369999999999999,1.87,1.32,0.84,1.94,4.37
6.323251962661743,2,3,3,3,-8.73,1.87,1.46,0.24,2.25,4.62
6.333251953125,2,3,3,2,-9.42,2.15,1.79,-0.09,2.53,4.59
6.343251943588257,2,3,3,2,-10.32,2.92,1.5,0.33,1.36,4.36
6.353251934051514,2,3,3,2,-10.62,3.21,1.27,1.47,-0.43,4.05
6.36325216293335,2,3,3,2,-10.93,3.19,1.02,1.8,-0.83,3.66
6.373252153396606,2,3,3,2,-10.61,2.79,0.57,0.9,-0.26,3.51
6.383252143859863,2,3,3,2,-10.23,2.38,0.58,-0.19,0.41,3.94
6.39325213432312,2,3,3,2,-9.9,2.26,0.86,-1.23,0.42,4.63
6.403252124786377,2,3,3,2,-9.529999999999999,2.27,1.48,-2.14,0.21,5.14
6.413252115249634,2,3,3,2,-8.99,2.66,2.54,-2.59,-0.5,5.09
6.423252105712891,2,3,3,2,-9.25,2.91,2.61,-2.07,-1.31,4.46
6.433252096176147,2,3,3,2,-9.75,3.12,2.38,-1.07,-1.75,3.21
6.443252086639404,2,3,3,2,-10.26,3.19,1.96,-0.5600000000000001,-1.93,1.75
6.453252077102661,2,3,3,2,-10.77,3.23,1.47,-0.64,-1.46,0.47
6.463252067565918,2,3,3,2,-10.92,3.11,1.29,-1.06,-0.55,-0.28
6.473252058029175,2,3,3,2,-11.13,2.88,1.33,-1.97,0.13,-0.42
6.483252048492432,2,3,3,2,-11.47,2.64,1.54,-4.34,-0.46,-0.66
6.493252038955688,2,3,3,2,-12.35,2.33,2.36,-4.34,-0.46,-0.66
6.503252029418945,2,3,3,2,-12.77,2.17,2.83,-4.83,-1.92,-1.2
6.513252019882202,2,3,3,2,-13.13,2.01,3.32,-3.7,-4.54,-3.12
6.523252010345459,2,3,3,2,-13.24,1.97,3.43,-2.25,-3.81,-4.11
6.533252000808716,2,3,3,2,-13.24,2.48,3.28,-0.7,-1.56,-4.57
6.543251991271973,2,3,3,2,-13.45,2.95,2.97,0.47,0.57,-4.56
6.553251981735229,2,3,3,2,-13.9,3.51,3,1.26,1.47,-4.19
6.563251972198486,2,3,3,2,-14.82,4.17,3.64,1.41,1,-3.79
6.573251962661743,2,3,3,2,-16.96,5.21,4.41,1.65,-0.02,-3.64
6.583251953125,2,3,3,2,-17.79,5.6,4.55,2.43,0.46,-3.41
6.593251943588257,2,3,3,2,-18.95,5.64,4.41,1.19,1.37,-3.23
6.603251934051514,2,3,3,2,-19.69,5.24,3.86,-1.24,1.8,-2.85
6.61325216293335,2,3,3,2,-19.98,4.49,3.79,-3.45,1.79,-2.45
6.623252153396606,2,3,3,2,-20.02,4.06,4.28,-4.67,1.07,-2.67
6.633252143859863,2,3,3,2,-19.9,3.71,5.22,-4.99,0.88,-3.57
6.64325213432312,2,3,3,2,-20.89,3.31,6.74,-4.11,1.65,-4.99
6.653252124786377,2,3,3,2,-21.91,3,6.51,-3.24,3.13,-7.03
6.663252115249634,2,3,3,2,-22.86,2.46,6.22,-2.83,4.73,-8.65
6.673252105712891,2,3,3,2,-23.84,1.87,5.96,-2.93,6.03,-9.77
6.683252096176147,2,3,3,2,-25.1,0.59,4.91,-2.93,6.73,-10.34
6.693252086639404,2,3,3,2,-25.24,0.48,4.54,-1.86,6.43,-10.68
6.703252077102661,2,3,3,2,-25.24,0.28,4.27,-0.84,4.69,-10.49
6.713252067565918,2,3,3,2,-24.45,0.25,4.06,0.4,2.02,-9.390000000000001
6.723252058029175,2,3,3,2,-21.52,1.94,3.52,1.57,0,-7.62
6.733252048492432,2,3,3,2,-19,2.66,2.67,3.29,-0.9,-5.68
6.743252038955688,2,3,3,2,-16.05,4.49,2.06,5.57,-1.81,-2.31
6.753252029418945,2,3,3,2,-13.38,6.22,1.47,7.98,-1.43,1.1
6.763252019882202,2,3,3,2,-7.39,7,-1.6,9.99,0.07000000000000001,3.13
6.773252010345459,2,3,3,2,-4.87,7.32,-3,10.35,0.73,3.61
6.783252000808716,2,3,3,2,-2.67,6.37,-4.13,8.130000000000001,0.43,3.27
6.793251991271973,2,3,3,2,3.91,6.62,-1.59,4.7,-0.43,3.43
6.803251981735229,2,3,3,2,5.5,8,-1.09,2.13,-0.31,3.96
6.814252138137817,2,3,3,2,6.53,10.13,-1.16,5.09,0.95,3.05
6.824252128601074,2,3,3,2,8.09,11.62,-2.37,9.52,-1.16,2.43
6.834252119064331,2,3,3,2,7.61,9.44,-7.52,10.18,-2.86,1.7
6.844252109527588,2,3,3,2,5.64,5.62,-7.03,3.92,0.6,-0.44
6.854252099990845,2,3,3,2,4.03,1.83,-4.42,-8.08,2.71,-3.33
6.864252090454102,2,3,3,2,3.09,0.21,-1.39,-16.67,2.28,-4.78
6.874252080917358,2,3,3,2,1.52,0,1.2,-19.92,0.16,-5.03
6.884252071380615,2,3,3,2,1.25,-0.34,1.3,-18.2,-2.73,-5.21
6.894252061843872,2,3,3,2,1.3,-0.44,0.71,-13.92,-3.23,-4.66
6.904252052307129,2,3,3,2,1.96,-0.48,0.11,-11.21,-2.53,-3.9
6.914252042770386,2,3,3,2,-0.18,-2.31,1.04,-9.84,-1.58,-3.83
6.924252033233643,2,3,3,2,-1.06,-2.13,1.56,-5.88,-0.07000000000000001,-4.79
6.934252023696899,2,3,3,2,-1.06,-2.13,1.56,0.07000000000000001,1.28,-6.13
6.944252014160156,2,3,3,2,-2.09,-1.21,0.92,3.91,2.33,-6.94
6.954252004623413,2,3,3,2,-3.76,-0.86,0.63,4.98,1.6,-6.62
6.96425199508667,2,3,3,2,-4.04,-1.07,0.14,5.26,0.22,-5.2
6.974251985549927,2,3,3,2,-4.47,-1,-0.27,4.51,0,-3.32
6.984251976013184,2,3,3,2,-4.47,-1,-0.27,2.87,-0.49,-1.23
6.99425196647644,2,3,3,2,-3.17,-0.09,-0.64,0.77,-2.7,0.48
7.004251956939697,2,3,3,2,-1.37,0.04,-0.73,-0.21,-4,1.88
7.014251947402954,2,3,3,2,0.31,-0.02,-0.57,0.48,-4.02,2.77
7.024251937866211,2,3,3,2,2.5,0.08,-0.85,2.53,-2.91,3.46
7.034251928329468,2,3,3,2,2.5,0.08,-0.85,3.97,-1.03,4.24
7.044252157211304,2,3,3,2,2.35,0,-0.33,5.04,-0.54,4.91
7.054252147674561,2,3,3,2,1.71,0.05,0.13,7.06,-1.03,4.94
7.064252138137817,2,3,3,2,1.26,0.64,0.18,9.029999999999999,-1.76,4.43
7.074252128601074,2,3,3,2,0.83,0.9399999999999999,0,9.69,-2.73,3.57
7.084252119064331,2,3,3,2,0.83,0.9399999999999999,0,9.69,-2.73,3.57
7.094252109527588,2,3,3,2,0.46,1.21,-0.32,7.95,-4.63,1.37
7.104252099990845,2,3,3,2,0.19,1.99,-1.27,6.28,-5.08,0.54
7.114252090454102,2,3,3,2,0.37,1.87,-1.57,4.43,-5.38,-0.27
7.124252080917358,2,3,3,2,0.52,1.74,-1.87,1.95,-4.74,-1.36
7.134252071380615,2,3,3,2,0.52,1.74,-1.87,-1.43,-3.54,-2.49
7.144252061843872,2,3,3,2,0.44,1.6,-1.49,-4.02,-3.63,-3.45
7.154252052307129,2,3,3,2,0.97,1.11,-0.38,-4.56,-4.08,-4.59
7.164252042770386,2,3,3,2,0.64,1.61,0.02,-4.75,-2.35,-5.96
7.174252033233643,2,3,3,2,-0.4,2.58,0.74,-4.48,-0.6,-6.91
7.184252023696899,2,3,3,2,-0.4,2.58,0.74,-4.48,-0.6,-6.91
7.194252014160156,2,3,3,2,-1.71,4.91,3.12,-4.79,-3.07,-6.89
7.224251985549927,2,3,3,2,-26.46,14.99,9.539999999999999,-24.3,-5.08,-23.38
7.234251976013184,2,3,3,3,-36.34,10.93,10.61,-24.3,-5.08,-23.38
7.24425196647644,2,3,3,3,-34.47,4.99,3.3,-28.44,-13.81,-32.16
7.254251956939697,2,3,3,3,-39.25,-10.39,0.75,-18.03,13.06,0
7.264251947402954,2,3,3,3,-39.25,-13.27,4.76,-3.96,-12.62,2.47
7.274251937866211,2,3,3,3,-36.74,-3.9,7.97,3.72,-6.45,3.99
7.284251928329468,2,3,3,3,-21.88,0.96,8.08,3.72,-6.45,3.99
7.294252157211304,2,3,3,3,-12.02,3.11,10.17,-0.68,2.7,4.42
7.304252147674561,2,3,3,3,-13.31,-4.94,6.45,0.48,1.72,-7.47
7.314252138137817,2,3,3,3,-17.68,-5.24,5.66,1.06,-1.39,-9.35
7.324252128601074,2,3,3,3,-19.47,-5.59,5.92,4.93,-4.11,-6.58
7.334252119064331,2,3,3,3,-19.56,-5.25,5.74,4.93,-4.11,-6.58
7.344252109527588,2,3,3,3,-18.9,-3.18,3.78,8.699999999999999,0.96,-0.89
7.354252099990845,2,3,3,3,-19.08,-1.58,4.21,11.07,7.97,7.12
7.364252090454102,2,3,3,3,-19.07,-0.21,3.93,9.9,5.47,9.029999999999999
7.374252080917358,2,3,3,3,-18.86,0.16,3.14,9.41,2.46,9.56
7.384252071380615,2,3,3,3,-17.61,1.63,2.59,9.41,2.46,9.56
7.394252061843872,2,3,3,3,-16.18,2.29,2.74,9.050000000000001,-0.45,8.93
7.404252052307129,2,3,3,3,-14.38,2.98,2.9,6.56,-3.9,5.76
7.414252042770386,2,3,3,3,-11.04,4.02,2.87,5.57,-0.91,3.8
7.434252023696899,2,3,3,3,-10.1,3.45,2.68,4.54,2.74,2.34
7.46425199508667,2,3,3,3,-11.36,2.25,0.82,-3.96,8.09,1.15
7.474251985549927,2,3,3,3,-11.53,1.94,0.83,-4.92,4.51,1.26
7.484251976013184,2,3,3,3,-11.07,1.52,1.03,-4.92,4.51,1.26
7.49425196647644,2,3,3,3,-8.85,0.55,1.19,-5.31,1.38,1.36
7.504251956939697,2,3,3,3,-7.52,0.19,1.12,-4.35,-0.61,2.61
7.514251947402954,2,3,3,3,-6.59,-0.17,1.04,-3.26,-0.12,3.32
7.524251937866211,2,3,3,3,-5.78,-0.53,1.1,-1.6,0.54,4.07
7.534251928329468,2,3,3,3,-4.22,-0.55,1.34,-1.6,0.54,4.07
7.544252157211304,2,3,3,3,-3.57,-0.35,1.18,0.26,0.82,4.69
7.554252147674561,2,3,3,3,-3.58,-0.29,1.29,3.94,1.89,4.94
7.564252138137817,2,3,3,3,-3.35,-0.1,1.19,5.32,1.89,4.55
7.574252128601074,2,3,3,3,-3.76,0.97,1.1,6.14,1.46,3.95
7.584252119064331,2,3,3,3,-4.01,1.69,1.08,6.14,1.46,3.95
7.594252109527588,2,3,3,3,-4.42,2.35,1.01,6.3,1.15,3.29
7.604252099990845,2,3,3,3,-5.02,2.64,0.9399999999999999,4.86,1.67,0.99
7.614252090454102,2,3,3,3,-6.34,2.86,0.63,3.99,1.52,-0.18
7.624252080917358,2,3,3,3,-6.81,2.95,0.59,2.68,1.23,-1.08
7.634252071380615,2,3,3,3,-7.21,2.93,0.59,2.68,1.23,-1.08
7.644252061843872,2,3,3,3,-7.95,2.81,0.78,0.93,1.02,-1.78
7.654252052307129,2,3,3,3,-8.17,2.81,0.75,-0.78,0.67,-2.1
7.664252042770386,2,3,3,3,-8.289999999999999,2.83,0.64,-2.12,0.32,-2.36
7.674252033233643,2,3,3,3,-8,2.62,0.6899999999999999,-3.42,0.2,-2.24
7.684252023696899,2,3,3,3,-9.130000000000001,2.14,1.35,-4.51,0.23,-2.17
7.694252014160156,2,3,3,3,-9.76,1.76,1.61,-4.86,-0.12,-2.51
7.704252004623413,2,3,3,3,-10.42,1.37,1.75,-4.2,-0.97,-2.87
7.71425199508667,2,3,3,3,-11.06,0.91,1.84,-3.22,-1.4,-3.25
7.724251985549927,2,3,3,3,-11.56,0.46,1.78,-2.32,-1.49,-3.52
7.734251976013184,2,3,3,3,-11.24,0.51,1.57,-1.57,-1.24,-3.51
7.74425196647644,2,3,3,2,-10.86,0.72,1.39,-1.06,-0.31,-3.14
7.754251956939697,2,3,3,2,-10.61,0.91,1.61,-1.27,0.49,-2.46
7.764251947402954,2,3,3,2,-10.28,0.84,1.8,-1.81,0.5600000000000001,-1.65
7.774251937866211,2,3,3,2,-9.76,0.79,1.79,-1.91,0.21,-0.82
7.784251928329468,2,3,3,2,-9.220000000000001,0.84,1.7,-1.85,0.23,0.02
7.794252157211304,2,3,3,2,-8.77,0.86,1.64,-1.93,0.7,0.76
7.804252147674561,2,3,3,2,-8.300000000000001,0.9399999999999999,1.56,-1.99,1.14,1.48
7.814252138137817,2,3,3,2,-8.359999999999999,0.98,1.49,-1.98,1.35,1.98
7.824252128601074,2,3,3,2,-8.539999999999999,1.01,1.58,-1.99,1.21,2.29
7.835252046585083,2,3,3,2,-8.789999999999999,1.11,1.57,-2.01,0.68,2.31
7.84525203704834,2,3,3,2,-8.81,1.14,1.47,-1.94,-0.13,2.13
7.855252027511597,2,3,3,2,-8.82,1.23,1.46,-1.73,-0.65,1.74
7.865252017974854,2,3,3,2,-8.789999999999999,1.29,1.32,-1.55,-1.02,1.3
7.87525200843811,2,3,3,2,-9.109999999999999,1.42,1.57,-1.31,-0.99,0.6899999999999999
7.885251998901367,2,3,3,2,-9.35,1.4,1.7,-1.37,-0.71,0.03
7.895251989364624,2,3,3,2,-9.470000000000001,1.38,1.77,-1.25,-0.78,-0.59
7.905251979827881,2,3,3,2,-9.49,1.38,1.76,-0.99,-1.24,-1.09
7.915251970291138,2,3,3,2,-9.56,1.31,1.72,-0.8,-1.45,-1.45
7.925251960754395,2,3,3,2,-9.699999999999999,1.28,1.76,-0.83,-1.29,-1.75
7.935251951217651,2,3,3,2,-9.800000000000001,1.25,1.67,-0.98,-1.28,-1.95
7.945251941680908,2,3,3,2,-9.9,1.21,1.47,-0.97,-1.53,-2.08
7.955251932144165,2,3,3,2,-10.12,1.11,1.18,-0.82,-1.81,-2.16
7.965252161026001,2,3,3,2,-10.15,1.04,1.27,-0.77,-2.12,-2.22
7.975252151489258,2,3,3,2,-10.08,1.04,1.56,-0.93,-2.47,-2.15
7.985252141952515,2,3,3,2,-9.9,1.03,1.74,-1.17,-2.83,-1.92
7.995252132415771,2,3,3,2,-9.289999999999999,1.02,1.75,-0.85,-2.96,-1.58
8.005252122879028,2,3,3,2,-9.210000000000001,1.05,1.8,-0.27,-2.51,-1.28
8.015252113342285,2,3,3,2,-9.210000000000001,1.08,1.81,0.32,-1.78,-1.06
8.025252103805542,2,3,3,2,-9.48,1.17,1.84,0.9,-1.22,-0.88
8.035252094268799,2,3,3,2,-9.640000000000001,1.2,1.77,1.43,-0.73,-0.8
8.045252084732056,2,3,3,2,-9.74,1.18,1.77,1.68,-0.26,-0.75
8.055252075195312,2,3,3,2,-9.75,1.13,1.81,1.49,0.05,-0.66
8.065252065658569,2,3,3,2,-9.529999999999999,1.12,1.79,1.01,-0.03,-0.51
8.075252056121826,2,3,3,2,-9.48,1.15,1.86,0.63,-0.12,-0.35
8.09525203704834,2,3,3,2,-9.68,1.15,2.15,0.15,-0.55,-0.41
8.105252027511597,2,3,3,2,-9.76,1.23,2.08,0.04,-1.01,-0.59
8.115252017974854,2,3,3,2,-9.66,1.18,1.83,0.1,-1.51,-0.78
8.12525200843811,2,3,3,2,-9.539999999999999,1.17,1.75,0.35,-1.67,-0.93
8.135251998901367,2,3,3,2,-9.539999999999999,1.17,1.78,0.45,-1.41,-0.99
8.145251989364624,2,3,3,2,-9.640000000000001,1.21,2.06,0.09,-1,-0.9399999999999999
8.155251979827881,2,3,3,2,-9.56,1.25,2.02,-0.3,-1,-0.76
8.165251970291138,2,3,3,2,-9.42,1.27,1.78,-0.24,-1.2,-0.49
8.175251960754395,2,3,3,2,-9.41,1.33,1.72,0,-1.02,-0.26
8.185251951217651,2,3,3,2,-9.41,1.25,1.74,0.03,-0.7,-0.11
8.195251941680908,2,3,3,2,-9.5,1.27,1.8,-0.01,-0.52,0.05
8.205251932144165,2,3,3,2,-9.609999999999999,1.26,1.81,-0.02,-0.3,0.12
8.215252161026001,2,3,3,2,-9.65,1.23,1.7,0.1,-0.08,0.16
8.225252151489258,2,3,3,2,-9.699999999999999,1.2,1.74,0.21,0.13,0.14
8.235252141952515,2,3,3,2,-9.630000000000001,1.18,1.73,0.09,0.15,0.13
8.245252132415771,2,3,3,2,-9.609999999999999,1.21,1.72,0,0.07000000000000001,0.16
8.255252122879028,2,3,3,2,-9.68,1.31,1.8,0.06,0.17,0.17
8.265252113342285,2,3,3,2,-9.65,1.25,1.73,-0.03,0.18,0.12
8.275252103805542,2,3,3,2,-9.58,1.2,1.8,-0.16,0.12,0.06
8.285252094268799,2,3,3,2,-9.529999999999999,1.16,1.88,-0.31,0.08,-0.05
8.295252084732056,2,3,3,2,-9.529999999999999,1.05,2.03,-0.46,-0.04,-0.23
8.305252075195312,2,3,3,2,-9.52,1.01,2.06,-0.39,-0.14,-0.45
8.315252065658569,2,3,3,2,-9.49,1.02,1.94,-0.12,-0.31,-0.61
8.325252056121826,2,3,3,2,-9.49,1.04,1.9,0.3,-0.29,-0.7
8.335252046585083,2,3,3,2,-9.609999999999999,1.06,1.95,0.64,-0.21,-0.61
8.34525203704834,2,3,3,2,-9.65,1.09,1.93,0.65,-0.03,-0.44
8.355252027511597,2,3,3,2,-9.6,1.17,1.89,0.65,0.05,-0.35
8.365252017974854,2,3,3,2,-9.58,1.19,1.75,0.73,0.03,-0.23
8.37525200843811,2,3,3,2,-9.619999999999999,1.3,1.79,0.6899999999999999,0.04,-0.16
8.385251998901367,2,3,3,2,-9.630000000000001,1.32,1.83,0.61,0.07000000000000001,-0.05
8.395251989364624,2,3,3,2,-9.640000000000001,1.37,1.81,0.54,0.11,0.05
8.405251979827881,2,3,3,2,-9.66,1.39,1.83,0.47,0.2,0.18
8.415251970291138,2,3,3,2,-9.66,1.45,1.69,0.36,0.24,0.31
8.425251960754395,2,3,3,2,-9.630000000000001,1.45,1.76,0.16,0.28,0.39
8.435251951217651,2,3,3,2,-9.550000000000001,1.43,1.79,-0.07000000000000001,0.31,0.38
8.445251941680908,2,3,3,2,-9.42,1.33,1.88,-0.3,0.32,0.25
8.455251932144165,2,3,3,2,-9.41,1.29,1.93,-0.53,0.32,0.09
8.465252161026001,2,3,3,2,-9.42,1.21,1.9,-0.72,0.29,-0.09
8.475252151489258,2,3,3,2,-9.449999999999999,1.19,1.93,-0.78,0.2,-0.17
8.485252141952515,2,3,3,2,-9.550000000000001,1.12,1.99,-0.64,0.12,-0.23
8.495252132415771,2,3,3,2,-9.6,1.11,2.02,-0.52,0.17,-0.28
8.505252122879028,2,3,3,2,-9.640000000000001,1.11,2,-0.49,0.18,-0.26
8.515252113342285,2,3,3,2,-9.640000000000001,1.08,1.92,-0.43,0.16,-0.22
8.525252103805542,2,3,3,2,-9.66,1.02,1.92,-0.28,0.14,-0.15
8.535252094268799,2,3,3,2,-9.66,0.98,1.95,-0.29,0.1,-0.11
8.545252084732056,2,3,3,2,-9.67,1.01,1.95,-0.27,-0.02,-0.09
8.555252075195312,2,3,3,2,-9.699999999999999,1.02,1.97,-0.27,0.03,-0.06
8.565252065658569,2,3,3,2,-9.68,1,1.94,-0.45,0.03,0.03
8.575252056121826,2,3,3,2,-9.609999999999999,1.02,2.01,-0.55,0.06,0.19
8.585252046585083,2,3,3,2,-9.539999999999999,1.06,2.05,-0.5,-0.01,0.31
8.59525203704834,2,3,3,2,-9.5,1.09,1.99,-0.27,-0.06,0.41
8.605252027511597,2,3,3,2,-9.5,1.1,1.99,-0.05,0.01,0.42
8.615252017974854,2,3,3,2,-9.550000000000001,1.11,1.88,-0.13,0.21,0.39
8.62525200843811,2,3,3,2,-9.58,1.13,1.88,-0.16,0.31,0.33
8.635251998901367,2,3,3,2,-9.640000000000001,1.15,2.03,-0.17,0.3,0.23
8.645251989364624,2,3,3,2,-9.640000000000001,1.2,2.13,-0.29,0.06,0.21
8.655251979827881,2,3,3,2,-9.49,1.1,2,-0.55,-0.4,0.28
8.665251970291138,2,3,3,2,-9.34,1.05,1.69,-0.49,-0.78,0.37
8.675251960754395,2,3,3,2,-9.640000000000001,1.07,1.89,-0.11,-0.33,0.41
8.685251951217651,2,3,3,2,-9.720000000000001,1.01,2.06,-0.25,0.27,0.28
8.695251941680908,2,3,3,2,-9.630000000000001,1,2.05,-0.58,0.29,0.16
8.705251932144165,2,3,3,2,-9.58,1,1.96,-0.47,0.08,0.09
8.715252161026001,2,3,3,2,-9.59,1,1.85,-0.24,0.13,0.06
8.725252151489258,2,3,3,2,-9.6,0.99,1.96,-0.23,0.27,0.1
8.735252141952515,2,3,3,2,-9.630000000000001,1.06,2.08,-0.32,0.27,0.17
8.745252132415771,2,3,3,2,-9.619999999999999,1.08,2.13,-0.36,0.1,0.27
8.755252122879028,2,3,3,2,-9.470000000000001,1.1,1.94,-0.26,-0.11,0.34
8.765252113342285,2,3,3,2,-9.44,1.12,1.86,0.02,-0.09,0.38
8.775252103805542,2,3,3,2,-9.48,1.12,1.92,0.2,0.07000000000000001,0.43
8.785252094268799,2,3,3,2,-9.539999999999999,1.16,1.95,0.25,0.36,0.4
8.795252084732056,2,3,3,2,-9.52,1.24,1.87,0.35,0.6,0.53
8.805252075195312,2,3,3,2,-9.529999999999999,1.29,1.86,0.35,0.6,0.53
8.815252065658569,2,3,3,2,-9.51,1.32,1.72,0.31,0.7,0.7
8.825252056121826,2,3,3,2,-9.470000000000001,1.41,1.75,0.18,0.86,0.91
8.835252046585083,2,3,3,2,-9.550000000000001,1.42,1.88,-0.01,0.84,0.95
8.84525203704834,2,3,3,2,-9.630000000000001,1.41,1.92,-0.19,0.62,0.89
8.855252027511597,2,3,3,2,-9.66,1.33,1.85,-0.21,0.55,0.75
8.866251945495605,2,3,3,2,-9.68,1.24,1.74,-0.28,0.74,0.7
8.876251935958862,2,3,3,2,-9.68,1.21,1.94,-0.63,0.83,0.65
8.886252164840698,2,3,3,2,-9.68,1.19,2.07,-0.75,0.4,0.77
8.896252155303955,2,3,3,2,-9.58,1.17,2.01,-0.21,-0.26,0.97
8.906252145767212,2,3,3,2,-9.34,1.12,1.63,0.58,-0.33,1.14
8.916252136230469,2,3,3,2,-9.43,1.13,1.58,0.95,0.12,1.21
8.926252126693726,2,3,3,2,-9.539999999999999,1.15,1.68,1.06,0.45,1.27
8.936252117156982,2,3,3,2,-9.609999999999999,1.2,1.72,1.19,0.43,1.37
8.946252107620239,2,3,3,2,-9.57,1.47,1.67,1.43,0.32,1.48
8.956252098083496,2,3,3,2,-9.51,1.56,1.52,1.68,0.27,1.68
8.966252088546753,2,3,3,2,-9.41,1.67,1.37,1.76,0.39,1.88
8.97625207901001,2,3,3,2,-9.4,1.76,1.38,1.58,0.54,2.03
8.986252069473267,2,3,3,2,-9.33,1.84,1.52,1.29,0.53,2.19
8.996252059936523,2,3,3,2,-9.300000000000001,1.9,1.6,1.02,0.42,2.36
9.00625205039978,2,3,3,2,-9.220000000000001,1.92,1.57,0.97,0.22,2.56
9.016252040863037,2,3,3,2,-9.119999999999999,1.99,1.38,1.21,0.15,2.83
9.026252031326294,2,3,3,2,-8.869999999999999,2,1.27,1.43,0.25,3.17
9.036252021789551,2,3,3,2,-8.76,2,1.34,1.64,0.48,3.57
9.046252012252808,2,3,3,2,-8.619999999999999,2.05,1.34,2.03,0.51,4.02
9.056252002716064,2,3,3,2,-8.279999999999999,2.3,1.2,2.64,0.24,4.62
9.066251993179321,2,3,3,2,-7.98,2.46,0.89,3.48,-0.23,5.48
9.076251983642578,2,3,3,2,-7.47,2.62,0.51,4.66,-0.51,6.6
9.086251974105835,2,3,3,2,-6.89,2.58,0.2,5.37,-0.06,7.81
9.096251964569092,2,3,3,2,-5.98,2.33,0.29,4.81,0.67,8.82
9.106251955032349,2,3,3,2,-5.57,2.24,0.51,3.85,0.7,9.380000000000001
9.116251945495605,2,3,3,2,-5.12,2.26,0.5600000000000001,3.38,-0.31,9.6
9.126251935958862,2,3,3,2,-4.54,2.27,0.38,3.95,-1.69,9.85
9.136252164840698,2,3,3,2,-3.14,2.21,0.03,4.54,-1.78,10.04
9.146252155303955,2,3,3,2,-2.69,2.08,0.35,3.74,0.58,10.25
9.156252145767212,2,3,3,2,-2.36,1.68,0.63,1.84,3.4,9.92
9.176252126693726,2,3,3,2,-3.46,0.96,2.57,-1.1,3.85,7.15
9.206252098083496,2,3,3,2,-4.83,2.22,1.79,6.53,0.18,3.87
9.216252088546753,2,3,3,2,-7.8,2.46,2.05,5.75,2.41,3.26
9.22625207901001,2,3,3,2,-9.44,2.63,2.46,4.09,2.72,2.94
9.236252069473267,2,3,3,2,-10.67,3.11,2.64,3.67,1.29,3.23
9.246252059936523,2,3,3,2,-12.9,3.89,1.6,3.89,0.31,3.03
9.25625205039978,2,3,3,2,-11.77,2.4,0.1,3.65,0.46,3.06
9.266252040863037,2,3,3,2,-11.89,2.09,-0.65,2.2,2.91,3.84
9.276252031326294,2,3,3,2,-12.02,1.77,-0.57,-1.39,4.99,4.48
9.286252021789551,2,3,3,2,-11.41,3,0.79,-4.3,3.43,4.93
9.296252012252808,2,3,3,2,-11.41,3,0.79,-4.38,0.34,4.83
9.306252002716064,2,3,3,2,-11.11,3.43,1.32,-3.48,-1.89,4
9.316251993179321,2,3,3,2,-12.33,3.34,2.49,-3.94,-3.22,2.26
9.326251983642578,2,3,3,2,-14.23,1.92,4.08,-3.84,-4.1,-0.46
9.336251974105835,2,3,3,2,-14.84,1.96,4.6,-2.06,-4.67,-3.09
9.346251964569092,2,3,3,2,-14.84,1.96,4.6,-2.06,-4.67,-3.09
9.356251955032349,2,3,3,2,-14.87,1.79,4.73,-0.08,-4.61,-4.6
9.366251945495605,2,3,3,2,-16.71,3.41,4.2,5.12,0.2,-5.1
9.376251935958862,2,3,3,2,-18.1,3.54,4.21,2.69,2.91,-4.96
9.386252164840698,2,3,3,2,-18.83,3.73,3.76,1.4,3.3,-4.36
9.396252155303955,2,3,3,2,-18.83,3.73,3.76,1.4,3.3,-4.36
9.406252145767212,2,3,3,2,-19.8,4.1,3.64,2.23,2.25,-3.11
9.416252136230469,2,3,3,2,-23.34,5.06,4.27,1.85,-0.23,-0.16
9.426252126693726,2,3,3,2,-23.78,5.04,4.24,0.2,0.08,0.6
9.436252117156982,2,3,3,2,-23.78,5.04,4.24,-2.02,1.6,0.25
9.446252107620239,2,3,3,2,-24.88,4.55,4.82,-2.02,1.6,0.25
9.456252098083496,2,3,3,2,-25.16,3.59,5.23,-4.89,3.04,-1.28
9.466252088546753,2,3,3,2,-24.62,2.53,5.87,-7.64,5.61,-7.27
9.47625207901001,2,3,3,2,-24.14,2.01,7.04,-7.55,6.29,-10.08
9.486252069473267,2,3,3,2,-23.44,0.74,7.44,-4.98,5.71,-11.8
9.496252059936523,2,3,3,2,-23.15,0.02,6.4,-4.98,5.71,-11.8
9.50625205039978,2,3,3,2,-23.55,-0.27,5.68,-1.61,5.5,-12.56
9.516252040863037,2,3,3,2,-24.24,-0.61,4.97,2.7,4.53,-11.45
9.526252031326294,2,3,3,2,-26.09,0.09,4.72,3.23,2.2,-9.210000000000001
9.536252021789551,2,3,3,2,-24.92,0.52,3.84,4.83,-0.8100000000000001,-5.89
9.546252012252808,2,3,3,2,-22.82,1.63,2.9,4.83,-0.8100000000000001,-5.89
9.556252002716064,2,3,3,2,-19.76,3.23,2.23,7.66,-1.61,-2.87
9.566251993179321,2,3,3,2,-13.13,8.01,-0.16,15.27,1.8,3.18
9.576251983642578,2,3,3,2,-10.2,9.24,-2.38,17.1,6.01,3.56
9.586251974105835,2,3,3,2,-7.27,9.09,-4.99,14.6,9.23,1.62
9.596251964569092,2,3,3,2,-3.65,8.550000000000001,-5.65,14.6,9.23,1.62
9.606251955032349,2,3,3,2,4.88,9.880000000000001,-3.82,9.050000000000001,5.03,0.88
9.616251945495605,2,3,3,2,8.92,12.77,-4.79,10.71,-5.06,5.63
9.626251935958862,2,3,3,2,10.38,14.81,-5.23,10.4,-1.9,5.65
9.636252164840698,2,3,3,2,9.15,15.88,-7.24,2.03,-0.12,3.28
9.646252155303955,2,3,3,2,6.85,11.08,-5.96,2.03,-0.12,3.28
9.656252145767212,2,3,3,2,6.89,6.68,-3.65,-12.76,-2.41,0.31
9.666252136230469,2,3,3,2,4.21,4.71,-1.95,-22.45,-1.24,-4.17
9.676252126693726,2,3,3,2,1.48,2.79,-0.32,-23.47,-3.3,-4.99
9.686252117156982,2,3,3,2,2.24,0.83,-0.26,-23.53,-3.34,-5.93
9.696252107620239,2,3,3,2,3.24,-1.92,-0.1,-23.53,-3.34,-5.93
9.706252098083496,2,3,3,2,2.56,-2.73,0.66,-20.96,-1.64,-6.14
9.716252088546753,2,3,3,2,0.98,-3.68,0.91,-12.23,0.88,-4.07
9.72625207901001,2,3,3,2,0.09,-3.79,0.03,-4.17,2.01,-3.26
9.736252069473267,2,3,3,2,-0.82,-3.4,-0.97,1.01,3.58,-2.87
9.746252059936523,2,3,3,2,-2.04,-2.64,-0.7,1.01,3.58,-2.87
9.75625205039978,2,3,3,2,-2.69,-2.46,-0.86,2.61,3.45,-1.71
9.766252040863037,2,3,3,2,-3.15,-2.2,-0.85,0.18,4.03,-0.76
9.776252031326294,2,3,3,2,-3.84,-2.1,-0.73,-2.6,2.79,-0.44
9.786252021789551,2,3,3,2,-4.34,-1.43,-0.07000000000000001,-4.51,-1.46,0.5600000000000001
9.796252012252808,2,3,3,2,-3.44,-0.43,0.91,-4.51,-1.46,0.5600000000000001
9.806252002716064,2,3,3,2,-2.02,-0.36,0.99,-4.42,-5.63,2.37
9.816251993179321,2,3,3,2,-1.15,-0.78,0.35,-0.01,-3.06,3.2
9.826251983642578,2,3,3,2,-1.12,-1.3,-0.22,0.06,-1.16,3.3
9.836251974105835,2,3,3,2,-1.06,-2.15,0.63,0.98,-1.46,4.23
9.846251964569092,2,3,3,2,-0.21,-2.03,0.96,0.98,-1.46,4.23
9.856251955032349,2,3,3,2,0.76,-1.87,1.1,3.07,-2.14,5.65
9.866251945495605,2,3,3,2,1.61,-1.49,0.87,6.7,-1.72,7.48
9.876251935958862,2,3,3,2,1.62,-1.1,0.7,6.7,-1.72,7.48
9.88725209236145,2,3,3,2,1.78,-0.72,0.55,7.95,-1.8,7.7
9.897252082824707,2,3,3,2,1.97,-0.58,0.24,8.42,-1.54,7.51
9.907252073287964,2,3,3,2,1.6,0,0.22,8.199999999999999,-0.52,6.78
9.917252063751221,2,3,3,2,0.84,0.25,0.41,6.97,0.8,5.67
9.927252054214478,2,3,3,2,0.32,0.4,0.47,5.6,0.88,4.23
9.937252044677734,2,3,3,2,0.09,0.19,0.39,4.23,0.23,2.61
9.947252035140991,2,3,3,2,-0.41,-0.76,0.17,2.8,0.19,0.87
9.957252025604248,2,3,3,2,-1.13,-0.99,0.57,1.58,0.65,-1.06
9.967252016067505,2,3,3,2,-1.53,-0.77,0.93,0.51,-0.84,-2.91
9.977252006530762,2,3,3,2,-1.08,-0.78,0.63,0.17,-4.94,-4.05
9.987251996994019,2,3,3,2,1.38,1.42,0.01,3.27,-7.36,-5.01
9.997251987457275,2,3,3,2,-0.23,3.92,0.74,5.57,-3.22,-5.85
10.00725197792053,2,3,3,2,-1.23,5.79,1.16,5.94,-2.19,-5.26
10.01725196838379,2,3,3,2,-2.13,9.01,1.48,7.73,-4.48,-4.04
10.02725195884705,2,3,3,2,-7.03,20.37,-2.58,11.05,-3.95,-2.5
10.0372519493103,2,3,3,2,-24.77,23.9,0.93,6.75,2.21,-7.44
10.04725193977356,2,3,3,2,-39.27,32.88,9.470000000000001,-18.16,-3.87,-22.8
10.05725193023682,2,3,3,2,-38.86,-5.44,-11.55,-52.21,-44.91,-45.11
10.06725215911865,2,3,3,2,-31.7,-25.48,-4.04,-52.75,-5.12,-11.07
10.07725214958191,2,3,3,2,-39.27,-18.33,17.98,-41.2,23.61,2.54
10.08725214004517,2,3,3,2,-39.1,-13.85,19.26,-16.38,14.9,-11.32
10.09725213050842,2,3,3,2,-15.35,-1.92,8.83,14.98,0.23,-5.42
10.10725212097168,2,3,3,2,-15.98,-2.65,6.3,16.25,0.23,-0.27
10.11725211143494,2,3,3,2,-19.24,-4.83,3.5,10.73,4.71,-1.98
10.12725210189819,2,3,3,2,-21.91,-4.29,2.8,6.88,9,-2.93
10.13725209236145,2,3,3,2,-23.12,-0.17,3.3,3.76,5.63,-1.47
10.14725208282471,2,3,3,2,-20.9,1.35,3.48,5.44,-4.01,1.78
10.15725207328796,2,3,3,2,-18.61,2.14,4.12,5.65,-6.14,6.16
10.16725206375122,2,3,3,2,-16.67,2.61,4.31,3.16,-1.76,8.630000000000001
10.17725205421448,2,3,3,2,-14.48,2.19,2.68,1.91,3.29,9.27
10.18725204467773,2,3,3,2,-13.18,1.53,1.88,2.15,5.02,8.539999999999999
10.19725203514099,2,3,3,2,-11.51,1.12,1.91,2.96,2.22,6.76
10.20725202560425,2,3,3,2,-10.44,0.82,2.16,3.98,-1.07,5.12
10.2172520160675,2,3,3,2,-8.76,1.42,1.65,5.36,-1.32,4.07
10.22725200653076,2,3,3,2,-8.34,1.91,1.15,5.99,-0.44,2.79
10.23725199699402,2,3,3,2,-7.85,2.53,0.78,6.5,0.07000000000000001,1.55
10.24725198745728,2,3,3,2,-5.95,2.89,-0.01,6.95,1.14,0.5600000000000001
10.25725197792053,2,3,3,2,-4.97,2.56,-0.32,6.35,3.26,-0.26
10.26725196838379,2,3,3,2,-4.35,2.09,-0.44,4.51,5.88,-0.29
10.27725195884705,2,3,3,2,-3.85,1.65,-0.59,2.78,7.27,0.02
10.2872519493103,2,3,3,2,-3.23,1.27,0.17,1.45,6.83,0.83
10.29725193977356,2,3,3,2,-2.99,1.2,0.36,0.07000000000000001,5.08,1.84
10.30725193023682,2,3,3,2,-2.64,1.25,0.5,-0.68,3.14,2.75
10.31725215911865,2,3,3,2,-2.31,1.29,0.29,-1.08,0.67,3.68
10.32725214958191,2,3,3,2,-1.47,1.23,0.07000000000000001,-0.35,-1.34,4.14
10.33725214004517,2,3,3,2,-1.91,1.78,0.14,0.42,-1.7,4.39
10.34725213050842,2,3,3,2,-3.09,2.41,0.39,1.05,-1.38,4.22
10.35725212097168,2,3,3,2,-3.77,2.66,0.05,1.99,-0.45,3.46
10.36725211143494,2,3,3,2,-6.58,3.62,0.23,2.57,-0.42,2.52
10.37725210189819,2,3,3,2,-8.27,3.95,0.45,1.59,-0.58,0.49
10.38725209236145,2,3,3,2,-9.77,4.32,0.65,-0.2,-1.92,-2.17
10.39725208282471,2,3,3,2,-11.23,4.51,0.68,-2.4,-3.5,-5.02
10.40725207328796,2,3,3,2,-12.69,3.05,0.37,-4.84,-3.81,-8.550000000000001
10.41725206375122,2,3,3,2,-11.79,2.18,0.3,-6.98,-3.99,-10.97
10.42725205421448,2,3,3,2,-10.99,0.74,0.41,-8.48,-3.81,-11.61
10.43725204467773,2,3,3,2,-11.04,-0.55,1.08,-8.32,-2.59,-11.08
10.44725203514099,2,3,3,2,-12.67,-2.96,3,-5.83,-1.87,-9.57
10.45725202560425,2,3,3,2,-12.97,-2.71,3.31,-1.25,-1.95,-6.68
10.4672520160675,2,3,3,2,-12.77,-2.08,2.76,3.76,-2.24,-4.48
10.47725200653076,2,3,3,2,-10.8,0.01,1.4,7.33,-2.42,-2.76
10.48725199699402,2,3,3,2,-9.960000000000001,0.89,1.4,9,-2.08,-1.07
10.49725198745728,2,3,3,2,-8.98,1.45,1.27,9.1,-1.74,0.65
10.50725197792053,2,3,3,2,-7.86,1.79,0.93,8.23,-0.78,2.5
10.51725196838379,2,3,3,2,-7.08,2.43,0.59,6.9,1.28,4.06
10.52725195884705,2,3,3,2,-7.45,2.96,0.46,5.29,3.14,5.05
10.5372519493103,2,3,3,2,-7.84,3.34,0.44,3.82,3.36,5.43
10.54725193977356,2,3,3,2,-8.220000000000001,3.68,0.46,2.41,3.38,5.04
10.55725193023682,2,3,3,2,-8.77,3.51,0.5600000000000001,1.1,3.06,3.8
10.56725215911865,2,3,3,2,-9.06,2.95,0.77,-0.2,2.44,2.04
10.57725214958191,2,3,3,2,-9.23,2.53,1.14,-1.24,1.54,0.46
10.58725214004517,2,3,3,2,-9.27,2.06,1.51,-1.81,0.55,-0.84
10.59725213050842,2,3,3,2,-9.49,1.23,1.71,-2.18,0.1,-1.87
10.60725212097168,2,3,3,2,-9.99,0.99,1.6,-2.03,-0.12,-2.45
10.61725211143494,2,3,3,2,-10.58,0.74,1.62,-1.74,-0.4,-2.9
10.62725210189819,2,3,3,2,-10.89,0.48,1.58,-1.35,-1.03,-3.24
10.63725209236145,2,3,3,2,-10.73,0.26,1.69,-0.57,-1.93,-3.25
10.64725208282471,2,3,3,2,-10.51,0.5,1.74,0.6899999999999999,-2.12,-2.87
10.65725207328796,2,3,3,2,-10.14,0.8,1.66,1.97,-1.67,-2.22
10.66725206375122,2,3,3,2,-9.81,1.29,1.59,2.83,-0.8100000000000001,-1.41
10.67725205421448,2,3,3,2,-9.49,2.06,1.05,3.25,0.37,-0.5
10.68725204467773,2,3,3,2,-9.470000000000001,2.37,1.04,3.3,1.24,0.32
10.69725203514099,2,3,3,2,-9.57,2.55,1.14,2.83,1.59,0.9399999999999999
10.70725202560425,2,3,3,2,-9.67,2.64,1.26,1.86,1.47,1.24
10.7172520160675,2,3,3,2,-9.59,2.55,1.32,0.5600000000000001,1,1.27
10.72725200653076,2,3,3,2,-9.369999999999999,2.32,1.29,-0.77,0.45,1.05
10.73725199699402,2,3,3,2,-9.15,2.1,1.36,-1.68,-0.06,0.74
10.74725198745728,2,3,3,2,-9.029999999999999,1.71,1.61,-2.27,-0.34,0.49
10.75725197792053,2,3,3,2,-9,1.56,1.68,-2.58,-0.72,0.3
10.76725196838379,2,3,3,2,-9.050000000000001,1.47,1.79,-2.5,-1,0.04
10.77725195884705,2,3,3,2,-9.119999999999999,1.36,1.75,-2.36,-1.01,-0.26
10.7872519493103,2,3,3,2,-9.199999999999999,1.19,1.81,-2.02,-1.03,-0.51
10.79725193977356,2,3,3,2,-9.33,1.2,1.88,-1.65,-0.86,-0.82
10.80725193023682,2,3,3,2,-9.51,1.25,1.95,-1.33,-0.59,-1.1
10.81725215911865,2,3,3,2,-9.65,1.32,1.84,-0.99,-0.48,-1.32
10.82725214958191,2,3,3,2,-10.01,1.35,1.48,-0.65,-0.59,-1.39
10.83725214004517,2,3,3,2,-10.2,1.4,1.42,-0.48,-0.6899999999999999,-1.35
10.84725213050842,2,3,3,2,-10.3,1.41,1.38,-0.49,-0.78,-1.25
10.85725212097168,2,3,3,2,-10.34,1.42,1.35,-0.53,-0.98,-1.14
10.86725211143494,2,3,3,2,-10.23,1.41,1.34,-0.54,-1.12,-1.01
10.87725210189819,2,3,3,2,-10.02,1.36,1.4,-0.65,-1.33,-0.85
10.88725209236145,2,3,3,2,-9.77,1.38,1.66,-0.86,-1.54,-0.64
10.89725208282471,2,3,3,2,-9.19,1.42,1.95,-1.01,-1.61,-0.43
10.90725207328796,2,3,3,2,-9.050000000000001,1.51,1.99,-0.95,-1.54,-0.2
10.91825199127197,2,3,3,2,-8.99,1.54,2,-0.71,-1.19,0.02
10.92825198173523,2,3,3,2,-9.029999999999999,1.58,1.84,-0.5,-0.75,0.17
10.93825197219849,2,3,3,2,-9.34,1.49,1.73,-0.22,-0.3,0.2
10.94825196266174,2,3,3,2,-9.550000000000001,1.44,1.77,-0.12,0.19,0.04
10.958251953125,2,3,3,2,-9.59,1.36,1.71,-0.2,0.36,-0.11
10.96825194358826,2,3,3,2,-9.529999999999999,1.29,1.65,-0.18,0.26,-0.13
10.97825193405151,2,3,3,2,-9.73,1.24,1.54,-0.08,0.33,-0.06
10.98825216293335,2,3,3,2,-9.85,1.24,1.62,-0.15,0.61,0.08
10.99825215339661,2,3,3,2,-9.9,1.29,1.59,-0.26,0.64,0.24
11.00825214385986,2,3,3,2,-9.880000000000001,1.33,1.59,-0.22,0.35,0.41
11.01825213432312,2,3,3,2,-9.73,1.42,1.65,-0.12,0.06,0.54
11.02825212478638,2,3,3,2,-9.619999999999999,1.5,1.59,0.02,-0.14,0.65
11.03825211524963,2,3,3,2,-9.49,1.48,1.44,0.38,-0.32,0.73
11.04825210571289,2,3,3,2,-9.539999999999999,1.46,1.4,0.8100000000000001,-0.17,0.58
11.0682520866394,2,3,3,2,-9.640000000000001,1.42,1.63,0.3,0.31,-0.06
11.07825207710266,2,3,3,2,-9.369999999999999,1.42,1.5,0.1,-0.01,-0.21
11.08825206756592,2,3,3,2,-9.19,1.38,1.69,-0.14,-0.01,-0.17
11.09825205802917,2,3,3,2,-9.25,1.4,1.68,-0.41,0.19,0.05
11.10825204849243,2,3,3,2,-9.380000000000001,1.42,1.61,-0.5,0.21,0.25
11.11825203895569,2,3,3,2,-9.51,1.45,1.48,-0.28,0.1,0.38
11.12825202941895,2,3,3,2,-9.69,1.41,1.27,-0.06,0.16,0.28
11.1382520198822,2,3,3,2,-9.74,1.34,1.31,-0.13,0.2,0.08
11.14825201034546,2,3,3,2,-9.77,1.29,1.38,-0.47,0.09,-0.11
11.15825200080872,2,3,3,2,-9.779999999999999,1.27,1.52,-1.25,-0.61,-0.34
11.16825199127197,2,3,3,2,-9.66,1.26,1.64,-1.25,-0.61,-0.34
11.17825198173523,2,3,3,2,-9.58,1.31,1.65,-1.19,-0.95,-0.38
11.18825197219849,2,3,3,2,-9.56,1.45,1.67,-0.53,-0.75,-0.47
11.19825196266174,2,3,3,2,-9.640000000000001,1.52,1.69,-0.29,-0.46,-0.46
11.208251953125,2,3,3,2,-9.77,1.42,1.68,-0.21,-0.38,-0.5
11.21825194358826,2,3,3,2,-9.720000000000001,1.39,1.69,-0.05,-0.33,-0.39
11.22825193405151,2,3,3,2,-9.6,1.32,1.63,0.01,-0.19,-0.25
11.23825216293335,2,3,3,2,-9.49,1.28,1.69,0.12,0.01,-0.01
11.24825215339661,2,3,3,2,-9.460000000000001,1.4,1.69,0.13,0.17,0.21
11.25825214385986,2,3,3,2,-9.52,1.46,1.66,-0.03,0.28,0.39
11.26825213432312,2,3,3,2,-9.59,1.52,1.62,-0.33,0.25,0.38
11.27825212478638,2,3,3,2,-9.619999999999999,1.52,1.55,-0.47,0.06,0.32
11.28825211524963,2,3,3,2,-9.550000000000001,1.53,1.64,-0.54,-0.08,0.22
11.29825210571289,2,3,3,2,-9.52,1.51,1.69,-0.57,-0.14,0.07000000000000001
11.30825209617615,2,3,3,2,-9.470000000000001,1.52,1.72,-0.52,-0.16,-0.03
11.3182520866394,2,3,3,2,-9.49,1.52,1.65,-0.43,-0.14,-0.15
11.33825206756592,2,3,3,2,-9.529999999999999,1.48,1.66,-0.58,-0.26,-0.44
11.34825205802917,2,3,3,2,-9.59,1.42,1.66,-0.74,-0.35,-0.53
11.35825204849243,2,3,3,2,-9.640000000000001,1.4,1.73,-0.8,-0.46,-0.58
11.36825203895569,2,3,3,2,-9.640000000000001,1.38,1.75,-0.84,-0.52,-0.57
11.37825202941895,2,3,3,2,-9.619999999999999,1.34,1.71,-0.75,-0.45,-0.5600000000000001
11.3882520198822,2,3,3,2,-9.619999999999999,1.33,1.75,-0.5600000000000001,-0.32,-0.5
11.39825201034546,2,3,3,2,-9.640000000000001,1.32,1.84,-0.38,-0.23,-0.38
11.40825200080872,2,3,3,2,-9.67,1.34,1.86,-0.29,-0.16,-0.32
11.41825199127197,2,3,3,2,-9.640000000000001,1.34,1.81,-0.16,-0.17,-0.18
11.42825198173523,2,3,3,2,-9.619999999999999,1.37,1.69,-0.2,-0.06,-0.07000000000000001
11.43825197219849,2,3,3,2,-9.59,1.37,1.7,-0.38,0.08,0.04
11.44825196266174,2,3,3,2,-9.59,1.35,1.76,-0.53,0.17,0.08
11.458251953125,2,3,3,2,-9.57,1.37,1.79,-0.5600000000000001,0.11,0.08
11.46825194358826,2,3,3,2,-9.57,1.37,1.79,-0.54,-0.05,0.12
11.47825193405151,2,3,3,2,-9.529999999999999,1.36,1.69,-0.36,-0.13,0.11
11.48825216293335,2,3,3,2,-9.529999999999999,1.34,1.7,-0.23,-0.01,0.09
11.49825215339661,2,3,3,2,-9.59,1.34,1.73,-0.3,0.17,0.08
11.50825214385986,2,3,3,2,-9.59,1.34,1.73,-0.45,0.22,0.04
11.51825213432312,2,3,3,2,-9.59,1.34,1.73,-0.51,0.07000000000000001,0.02
11.52825212478638,2,3,3,2,-9.56,1.33,1.65,-0.55,-0.07000000000000001,-0.02
11.53825211524963,2,3,3,2,-9.59,1.31,1.72,-0.59,-0.19,-0.1
11.54825210571289,2,3,3,2,-9.6,1.23,1.8,-0.55,-0.25,-0.18
11.55825209617615,2,3,3,2,-9.6,1.23,1.8,-0.55,-0.25,-0.18
11.5682520866394,2,3,3,2,-9.640000000000001,1.2,1.81,-0.43,-0.25,-0.23
11.57825207710266,2,3,3,2,-9.67,1.19,1.72,-0.25,-0.39,-0.33
11.58825206756592,2,3,3,2,-9.609999999999999,1.15,1.7,-0.14,-0.43,-0.31
11.59825205802917,2,3,3,2,-9.640000000000001,1.13,1.78,-0.09,-0.34,-0.3
11.60825204849243,2,3,3,2,-9.640000000000001,1.13,1.78,-0.09,-0.34,-0.3
11.61825203895569,2,3,3,2,-9.609999999999999,1.14,1.79,-0.04,-0.24,-0.25
11.62825202941895,2,3,3,2,-9.57,1.16,1.66,0.05,-0.13,-0.06
11.6382520198822,2,3,3,2,-9.56,1.17,1.73,0.08,-0.08,0.06
11.64825201034546,2,3,3,2,-9.58,1.18,1.73,0.1,-0.09,0.11
11.65825200080872,2,3,3,2,-9.58,1.18,1.73,0.1,-0.09,0.11
11.66825199127197,2,3,3,2,-9.65,1.21,1.72,0.14,-0.11,0.05
11.67825198173523,2,3,3,2,-9.65,1.21,1.72,0.25,-0.18,0.03
11.68825197219849,2,3,3,2,-9.640000000000001,1.19,1.64,0.31,-0.12,0.04
11.69825196266174,2,3,3,2,-9.640000000000001,1.18,1.64,0.4,-0.05,0.07000000000000001
11.708251953125,2,3,3,2,-9.630000000000001,1.22,1.68,0.4,-0.05,0.07000000000000001
11.71825194358826,2,3,3,2,-9.640000000000001,1.25,1.71,0.42,-0.01,0.14
11.72825193405151,2,3,3,2,-9.640000000000001,1.24,1.71,0.38,-0.03,0.25
11.73825216293335,2,3,3,2,-9.6,1.24,1.59,0.35,-0.02,0.22
11.74825215339661,2,3,3,2,-9.619999999999999,1.25,1.61,0.33,0.01,0.22
11.75825214385986,2,3,3,2,-9.56,1.26,1.64,0.33,0.01,0.22
11.76825213432312,2,3,3,2,-9.56,1.24,1.69,0.28,-0.02,0.16
11.77825212478638,2,3,3,2,-9.550000000000001,1.27,1.72,0.51,-0.02,0.17
11.78825211524963,2,3,3,2,-9.49,1.26,1.55,0.55,0.14,0.16
11.79825210571289,2,3,3,2,-9.529999999999999,1.27,1.62,0.4,0.31,0.13
11.80825209617615,2,3,3,2,-9.630000000000001,1.24,1.65,0.4,0.31,0.13
11.81925201416016,2,3,3,2,-9.640000000000001,1.22,1.72,0.22,0.31,0.12
11.82825207710266,2,3,3,2,-9.59,1.19,1.69,0.13,0.21,0.21
11.83825206756592,2,3,3,2,-9.58,1.17,1.62,0.23,0.21,0.21
11.84825205802917,2,3,3,2,-9.59,1.17,1.65,0.37,0.18,0.28
11.85825204849243,2,3,3,2,-9.640000000000001,1.18,1.67,0.37,0.18,0.28
11.86825203895569,2,3,3,2,-9.640000000000001,1.2,1.65,0.57,0.17,0.36
11.87825202941895,2,3,3,2,-9.66,1.19,1.64,0.6,0.2,0.39
11.8882520198822,2,3,3,2,-9.66,1.22,1.56,0.49,0.17,0.47
11.89825201034546,2,3,3,2,-9.640000000000001,1.26,1.59,0.51,0.16,0.47
11.90825200080872,2,3,3,2,-9.640000000000001,1.32,1.61,0.51,0.16,0.47
11.91825199127197,2,3,3,2,-9.65,1.34,1.63,0.52,0.15,0.43
11.92825198173523,2,3,3,2,-9.630000000000001,1.35,1.64,0.44,0.07000000000000001,0.37
11.93925213813782,2,3,3,2,-9.59,1.34,1.57,0.28,0.06,0.37
11.94925212860107,2,3,3,2,-9.57,1.36,1.69,0.23,0.02,0.34
11.95925211906433,2,3,3,2,-9.550000000000001,1.33,1.72,0.23,0.02,0.34
11.96925210952759,2,3,3,2,-9.529999999999999,1.34,1.74,0.31,-0.02,0.35
11.97925209999084,2,3,3,2,-9.48,1.36,1.68,0.41,0.01,0.33
11.9892520904541,2,3,3,2,-9.5,1.34,1.62,0.62,0.24,0.24
11.99925208091736,2,3,3,2,-9.57,1.34,1.67,0.62,0.28,0.22
12.00925207138062,2,3,3,2,-9.59,1.35,1.71,0.62,0.28,0.22
12.01925206184387,2,3,3,2,-9.640000000000001,1.39,1.67,0.53,0.24,0.19
12.02925205230713,2,3,3,2,-9.6,1.41,1.64,0.37,0.03,0.16
12.03925204277039,2,3,3,2,-9.6,1.42,1.55,0.38,0.01,0.13
12.04925203323364,2,3,3,2,-9.58,1.45,1.61,0.45,-0.07000000000000001,0.17
12.0592520236969,2,3,3,2,-9.640000000000001,1.47,1.63,0.45,-0.07000000000000001,0.17
12.06925201416016,2,3,3,2,-9.640000000000001,1.5,1.62,0.58,-0.04,0.2
12.07925200462341,2,3,3,2,-9.66,1.53,1.65,0.54,0.08,0.18
12.08925199508667,2,3,3,2,-9.640000000000001,1.51,1.55,0.29,0.1,0.2
12.09925198554993,2,3,3,2,-9.56,1.49,1.64,0.29,0.1,0.2
12.10925197601318,2,3,3,2,-9.539999999999999,1.51,1.68,0.13,0.05,0.21
12.11925196647644,2,3,3,2,-9.529999999999999,1.51,1.75,0.1,-0.07000000000000001,0.19
12.1292519569397,2,3,3,2,-9.470000000000001,1.55,1.71,0.1,-0.07000000000000001,0.19
12.13925194740295,2,3,3,2,-9.470000000000001,1.59,1.63,0.27,-0.09,0.2
12.14925193786621,2,3,3,2,-9.49,1.59,1.7,0.38,-0.04,0.15
12.15925192832947,2,3,3,2,-9.52,1.64,1.68,0.46,0.05,0.08
12.1692521572113,2,3,3,2,-9.619999999999999,1.6,1.62,0.52,0.08,-0.06
12.17925214767456,2,3,3,2,-9.699999999999999,1.61,1.58,0.48,0.05,-0.1
12.18925213813782,2,3,3,2,-9.720000000000001,1.61,1.51,0.32,0.06,-0.14
12.19925212860107,2,3,3,2,-9.74,1.61,1.55,0.19,0,-0.12
12.20925211906433,2,3,3,2,-9.710000000000001,1.6,1.64,0.04,-0.02,-0.05
12.21925210952759,2,3,3,2,-9.68,1.59,1.67,-0.08,0.01,0
12.22925209999084,2,3,3,2,-9.640000000000001,1.54,1.69,-0.24,-0.01,0.07000000000000001
12.2392520904541,2,3,3,2,-9.59,1.51,1.62,-0.33,-0.02,0.14
12.24925208091736,2,3,3,2,-9.51,1.52,1.74,-0.37,-0.02,0.18
12.25925207138062,2,3,3,2,-9.449999999999999,1.51,1.73,-0.24,-0.06,0.27
12.26925206184387,2,3,3,2,-9.43,1.53,1.67,0.05,-0.1,0.36
12.27925205230713,2,3,3,2,-9.460000000000001,1.56,1.71,0.32,0.08,0.41
12.28925204277039,2,3,3,2,-9.640000000000001,1.64,1.6,0.39,0.18,0.47
12.29925203323364,2,3,3,2,-9.640000000000001,1.62,1.57,0.4,0.16,0.48
12.3092520236969,2,3,3,2,-9.619999999999999,1.65,1.5,0.34,0.17,0.45
12.31925201416016,2,3,3,2,-9.630000000000001,1.64,1.58,0.13,0.24,0.37
12.32925200462341,2,3,3,2,-9.57,1.64,1.59,-0.15,0.25,0.34
12.33925199508667,2,3,3,2,-9.51,1.61,1.5,-0.26,0.19,0.29
12.34925198554993,2,3,3,2,-9.550000000000001,1.57,1.52,-0.36,0.23,0.25
12.35925197601318,2,3,3,2,-9.630000000000001,1.47,1.63,-0.4,0.29,0.22
12.36925196647644,2,3,3,2,-9.6,1.42,1.67,-0.4,0.3,0.22
12.3792519569397,2,3,3,2,-9.609999999999999,1.35,1.69,-0.29,0.31,0.23
12.38925194740295,2,3,3,2,-9.59,1.3,1.61,-0.18,0.38,0.3
12.39925193786621,2,3,3,2,-9.68,1.3,1.59,-0.16,0.48,0.41
12.40925192832947,2,3,3,2,-9.67,1.26,1.61,-0.17,0.54,0.53
12.4192521572113,2,3,3,2,-9.66,1.28,1.61,-0.07000000000000001,0.52,0.6899999999999999
12.42925214767456,2,3,3,2,-9.619999999999999,1.33,1.58,0.07000000000000001,0.57,0.85
12.43925213813782,2,3,3,2,-9.609999999999999,1.48,1.45,0.12,0.62,1.04
12.44925212860107,2,3,3,2,-9.640000000000001,1.55,1.53,0.13,0.5600000000000001,1.1
12.45925211906433,2,3,3,2,-9.65,1.63,1.56,0.2,0.46,1.09
12.46925210952759,2,3,3,2,-9.67,1.64,1.57,0.19,0.29,0.99
12.47925209999084,2,3,3,2,-9.640000000000001,1.64,1.47,0.07000000000000001,0.21,0.83
12.4892520904541,2,3,3,2,-9.56,1.63,1.41,-0.22,0.17,0.6899999999999999
12.49925208091736,2,3,3,2,-9.460000000000001,1.57,1.46,-0.5,0.14,0.6
12.50925207138062,2,3,3,2,-9.460000000000001,1.52,1.58,-0.61,0.12,0.5
12.51925206184387,2,3,3,2,-9.539999999999999,1.47,1.61,-0.73,0.19,0.44
12.52925205230713,2,3,3,2,-9.52,1.41,1.63,-0.8,0.14,0.34
12.53925204277039,2,3,3,2,-9.449999999999999,1.36,1.56,-0.77,0.11,0.24
12.54925203323364,2,3,3,2,-9.44,1.32,1.65,-0.7,0.19,0.16
12.5592520236969,2,3,3,2,-9.49,1.3,1.7,-0.65,0.21,0.18
12.56925201416016,2,3,3,2,-9.52,1.3,1.72,-0.45,0.19,0.22
12.57925200462341,2,3,3,2,-9.59,1.36,1.69,-0.17,0.12,0.29
12.58925199508667,2,3,3,2,-9.699999999999999,1.49,1.5,0.14,0.08,0.39
12.59925198554993,2,3,3,2,-9.779999999999999,1.52,1.5,0.35,0.17,0.45
12.60925197601318,2,3,3,2,-9.85,1.58,1.53,0.37,0.2,0.5
12.61925196647644,2,3,3,2,-9.85,1.59,1.54,0.25,0.27,0.59
12.6292519569397,2,3,3,2,-9.82,1.58,1.55,0.03,0.29,0.6
12.65925192832947,2,3,3,2,-9.58,1.64,1.72,-0.43,0.03,0.67
12.6692521572113,2,3,3,2,-9.43,1.58,1.8,-0.41,-0.04,0.59
12.67925214767456,2,3,3,2,-9.359999999999999,1.56,1.81,-0.28,-0.07000000000000001,0.49
12.68925213813782,2,3,3,2,-9.34,1.56,1.73,-0.13,-0.11,0.33
12.69925212860107,2,3,3,2,-9.390000000000001,1.57,1.73,-0.02,-0.23,0.26
12.70925211906433,2,3,3,2,-9.43,1.57,1.7,0.18,-0.24,0.11
12.71925210952759,2,3,3,2,-9.470000000000001,1.63,1.67,0.26,-0.15,0.05
12.72925209999084,2,3,3,2,-9.5,1.65,1.66,0.28,-0.07000000000000001,0.05
12.7392520904541,2,3,3,2,-9.56,1.63,1.59,0.29,-0.03,0.1
12.74925208091736,2,3,3,2,-9.57,1.67,1.66,0.27,0.06,0.13
12.75925207138062,2,3,3,2,-9.56,1.68,1.7,0.29,0.03,0.18
12.76925206184387,2,3,3,2,-9.529999999999999,1.69,1.72,0.33,-0.07000000000000001,0.17
12.77925205230713,2,3,3,2,-9.529999999999999,1.69,1.72,0.3,-0.08,0.09
12.78925204277039,2,3,3,2,-9.51,1.72,1.62,0.23,-0.15,0.03
12.79925203323364,2,3,3,2,-9.51,1.73,1.66,0.22,-0.29,-0.02
12.8092520236969,2,3,3,2,-9.49,1.75,1.71,0.25,-0.36,-0.03
12.81925201416016,2,3,3,2,-9.48,1.75,1.71,0.27,-0.37,-0.05
12.82925200462341,2,3,3,2,-9.449999999999999,1.77,1.73,0.39,-0.34,-0.01
12.840252161026,2,3,3,2,-9.449999999999999,1.79,1.61,0.48,-0.25,0.01
12.84925198554993,2,3,3,2,-9.449999999999999,1.83,1.64,0.5600000000000001,-0.13,0.01
12.85925197601318,2,3,3,2,-9.48,1.91,1.65,0.58,-0.03,-0.02
12.87025213241577,2,3,3,2,-9.48,1.93,1.62,0.51,-0.04,-0.05
12.8792519569397,2,3,3,2,-9.5,1.97,1.63,0.3,-0.05,-0.1
12.88925194740295,2,3,3,2,-9.539999999999999,1.98,1.58,0.02,-0.09,-0.15
12.90025210380554,2,3,3,2,-9.5,1.97,1.6,-0.21,-0.08,-0.18
12.90925192832947,2,3,3,2,-9.5,1.93,1.65,-0.38,-0.11,-0.18
12.9192521572113,2,3,3,2,-9.5,1.89,1.7,-0.54,-0.09,-0.14
12.93025207519531,2,3,3,2,-9.51,1.83,1.67,-0.61,-0.1,-0.08
12.93925213813782,2,3,3,2,-9.52,1.8,1.57,-0.58,-0.11,-0.02
12.94925212860107,2,3,3,2,-9.52,1.81,1.61,-0.49,-0.03,-0.03
12.96025204658508,2,3,3,2,-9.56,1.76,1.64,-0.44,0.06,-0.04
12.97025203704834,2,3,3,2,-9.720000000000001,1.72,1.72,-0.47,0.11,-0.04
12.9802520275116,2,3,3,2,-9.69,1.7,1.72,-0.48,0.09,-0.07000000000000001
12.99025201797485,2,3,3,2,-9.640000000000001,1.69,1.61,-0.39,0.02,-0.09
13.00025200843811,2,3,3,2,-9.529999999999999,1.67,1.58,-0.28,0.03,-0.06
13.01025199890137,2,3,3,2,-9.41,1.69,1.78,-0.3,0.14,0.03
13.02025198936462,2,3,3,2,-9.42,1.68,1.79,-0.3,0.13,0.14
13.03025197982788,2,3,3,2,-9.460000000000001,1.68,1.73,-0.08,0.02,0.21
13.04025197029114,2,3,3,2,-9.529999999999999,1.7,1.56,0.14,0.02,0.17
13.05025196075439,2,3,3,2,-9.56,1.71,1.6,0.14,0.15,0.09
13.06025195121765,2,3,3,2,-9.550000000000001,1.67,1.64,-0.09,0.17,0
13.07025194168091,2,3,3,2,-9.5,1.66,1.66,-0.25,0.13,-0.11
13.08025193214417,2,3,3,2,-9.52,1.65,1.75,-0.34,0.02,-0.14
13.090252161026,2,3,3,2,-9.5,1.62,1.61,-0.32,-0.02,-0.11
13.10025215148926,2,3,3,2,-9.48,1.63,1.72,-0.19,0,-0.06
13.11025214195251,2,3,3,2,-9.470000000000001,1.62,1.71,-0.08,0.09,-0.02
13.12025213241577,2,3,3,2,-9.58,1.61,1.73,-0.01,0.2,-0.01
13.13025212287903,2,3,3,2,-9.6,1.61,1.69,0,0.25,-0.08
13.14025211334229,2,3,3,2,-9.57,1.62,1.62,0.01,0.2,-0.17
13.15025210380554,2,3,3,2,-9.56,1.59,1.64,0.03,0.11,-0.21
13.1602520942688,2,3,3,2,-9.539999999999999,1.58,1.68,0.1,0.1,-0.22
13.17025208473206,2,3,3,2,-9.56,1.57,1.68,0.09,0.07000000000000001,-0.18
13.18025207519531,2,3,3,2,-9.57,1.59,1.67,0.1,0.12,-0.11
13.19025206565857,2,3,3,2,-9.57,1.61,1.59,0.09,0.08,-0.03
13.20025205612183,2,3,3,2,-9.6,1.61,1.64,0.14,0.06,-0.02
13.21025204658508,2,3,3,2,-9.619999999999999,1.6,1.68,0.22,0.1,-0.03
13.22025203704834,2,3,3,2,-9.58,1.59,1.71,0.25,0.14,-0.09
13.2302520275116,2,3,3,2,-9.56,1.58,1.69,0.26,0.16,-0.14
13.24025201797485,2,3,3,2,-9.58,1.59,1.61,0.31,0.13,-0.17
13.25025200843811,2,3,3,2,-9.58,1.6,1.64,0.32,0.06,-0.17
13.26025199890137,2,3,3,2,-9.539999999999999,1.6,1.67,0.31,0.02,-0.13
13.27025198936462,2,3,3,2,-9.51,1.65,1.65,0.37,-0.01,-0.11
13.28025197982788,2,3,3,2,-9.52,1.65,1.63,0.41,-0.04,-0.03
13.29025197029114,2,3,3,2,-9.58,1.67,1.6,0.39,0.01,0.01
13.30025196075439,2,3,3,2,-9.58,1.66,1.62,0.33,0.07000000000000001,-0.02
13.31025195121765,2,3,3,2,-9.56,1.68,1.65,0.29,0.04,-0.07000000000000001
13.32025194168091,2,3,3,2,-9.550000000000001,1.68,1.65,0.27,0.01,-0.11
13.33025193214417,2,3,3,2,-9.550000000000001,1.68,1.61,0.21,0,-0.15
13.340252161026,2,3,3,2,-9.550000000000001,1.65,1.59,0.15,0.03,-0.14
13.35025215148926,2,3,3,2,-9.56,1.62,1.63,0.08,0.03,-0.12
13.36025214195251,2,3,3,2,-9.56,1.61,1.68,0.13,0.01,-0.01
13.37025213241577,2,3,3,2,-9.57,1.62,1.7,0.22,0.01,0.01
13.38025212287903,2,3,3,2,-9.59,1.61,1.72,0.31,0.09,0.03
13.39025211334229,2,3,3,2,-9.6,1.63,1.54,0.39,0.13,0.01
13.40025210380554,2,3,3,2,-9.609999999999999,1.64,1.56,0.46,0.15,0.01
13.4102520942688,2,3,3,2,-9.59,1.65,1.61,0.43,0.13,-0.03
13.42025208473206,2,3,3,2,-9.619999999999999,1.69,1.62,0.3,0.02,-0.03
13.43025207519531,2,3,3,2,-9.56,1.7,1.61,0.17,-0.1,0.04
13.44025206565857,2,3,3,2,-9.550000000000001,1.7,1.56,0.12,-0.15,0.05
13.45025205612183,2,3,3,2,-9.539999999999999,1.71,1.61,0.05,-0.11,0.09
13.46025204658508,2,3,3,2,-9.539999999999999,1.72,1.67,0.04,0.02,0.09
13.47025203704834,2,3,3,2,-9.460000000000001,1.68,1.61,0.11,0.09,0.02
13.4802520275116,2,3,3,2,-9.49,1.67,1.6,0.11,0.09,0.02
13.49025201797485,2,3,3,2,-9.539999999999999,1.67,1.53,0.1,0.13,-0.01
13.50025200843811,2,3,3,2,-9.59,1.67,1.58,-0.09,0.05,-0.03
13.51025199890137,2,3,3,2,-9.57,1.7,1.69,-0.15,0.02,-0.05
13.52025198936462,2,3,3,2,-9.609999999999999,1.77,1.99,-0.47,-0.16,-0.1
13.53025197982788,2,3,3,2,-9.800000000000001,1.79,2.32,-1.05,-1.18,-0.19
13.54025197029114,2,3,3,2,-9.039999999999999,1.62,1.08,-0.96,-2.1,-0.27
13.55025196075439,2,3,3,2,-9.09,1.65,1.21,-0.63,-1.28,-0.18
13.56025195121765,2,3,3,2,-9.32,1.53,1.74,-1.39,-0.5,-0.11
13.57025194168091,2,3,3,2,-9.44,1.43,2.08,-1.95,-0.89,-0.19
13.58025193214417,2,3,3,2,-9.369999999999999,1.25,1.8,-1.17,-1.97,-0.2
13.590252161026,2,3,3,2,-9.18,1.28,1.51,0.04,-2.2,0
13.60025215148926,2,3,3,2,-9.18,1.17,1.33,0.9,-1.45,0.46
13.61025214195251,2,3,3,2,-9.19,1.07,1.05,1.58,-0.2,0.87
13.62025213241577,2,3,3,2,-9.970000000000001,1.13,1.25,1.62,0.75,1.19
13.63025212287903,2,3,3,2,-10.16,1.19,1.27,1.72,0.54,1.5
13.64025211334229,2,3,3,2,-10.26,1.3,1.02,2.18,0.01,1.76
13.65025210380554,2,3,3,2,-10.19,1.38,0.77,2.66,-0.35,2.02
13.6602520942688,2,3,3,2,-9.99,1.62,0.66,2.81,-0.32,2.08
13.67025208473206,2,3,3,2,-9.99,1.63,0.77,2.41,-0.37,1.93
13.68025207519531,2,3,3,2,-9.99,1.63,0.77,2.09,-0.72,1.56
13.69025206565857,2,3,3,2,-9.91,1.68,0.83,1.75,-0.9399999999999999,1.13
13.70025205612183,2,3,3,2,-9.76,1.72,0.95,1.31,-1,0.71
13.71025204658508,2,3,3,2,-9.66,1.7,1.04,0.75,-1.02,0.38
13.72025203704834,2,3,3,2,-9.66,1.7,1.04,0.25,-0.98,0.08
13.7302520275116,2,3,3,2,-9.529999999999999,1.7,1.13,-0.21,-1.06,-0.14
13.74025201797485,2,3,3,2,-9.369999999999999,1.53,1.3,-0.5,-1.12,-0.33
13.75025200843811,2,3,3,2,-9.449999999999999,1.39,1.35,-0.75,-1.02,-0.49
13.76025199890137,2,3,3,2,-9.539999999999999,1.3,1.38,-0.82,-0.9399999999999999,-0.59
13.77025198936462,2,3,3,2,-9.539999999999999,1.3,1.38,-0.82,-0.9399999999999999,-0.59
13.78025197982788,2,3,3,2,-9.710000000000001,1.19,1.28,-0.84,-0.86,-0.59
13.79025197029114,2,3,3,2,-9.9,1.12,1.13,-0.75,-0.44,-0.47
13.80025196075439,2,3,3,2,-9.970000000000001,1.14,1.17,-0.7,-0.4,-0.4
13.81025195121765,2,3,3,2,-9.98,1.25,1.18,-0.53,-0.48,-0.32
13.82025194168091,2,3,3,3,-9.98,1.25,1.18,-0.53,-0.48,-0.32
13.83025193214417,2,3,3,3,-9.94,1.35,1.15,-0.22,-0.59,-0.21
13.840252161026,2,3,3,3,-9.970000000000001,1.59,1.19,-0.12,-0.76,-0.24
13.85025215148926,2,3,3,3,-9.949999999999999,1.81,1.37,-0.22,-1.01,-0.34
13.86025214195251,2,3,3,3,-9.949999999999999,1.81,1.37,-0.43,-1.27,-0.47
13.87025213241577,2,3,3,3,-9.970000000000001,1.91,1.47,-0.43,-1.27,-0.47
13.88025212287903,2,3,3,3,-9.949999999999999,1.97,1.57,-0.84,-1.63,-0.6899999999999999
13.89025211334229,2,3,3,3,-9.859999999999999,2.02,1.63,-1.45,-2.34,-1.31
13.90025210380554,2,3,3,3,-9.82,2.09,1.89,-1.61,-2.79,-1.69
13.9102520942688,2,3,3,3,-9.869999999999999,2.11,2.03,-1.46,-3.16,-2.09
13.92025208473206,2,3,3,3,-9.960000000000001,2.12,2.12,-1.46,-3.16,-2.09
13.93025207519531,2,3,3,3,-10.08,2,2.07,-1.18,-3.3,-2.44
13.94025206565857,2,3,3,3,-10.07,1.94,2,-0.84,-2.76,-2.43
13.95025205612183,2,3,3,3,-10.06,1.88,1.93,-0.87,-2.5,-2.05
13.96025204658508,2,3,3,3,-9.949999999999999,1.8,1.93,-0.99,-2.34,-1.51
13.97025203704834,2,3,3,3,-9.6,1.81,2.11,-0.99,-2.34,-1.51
13.9802520275116,2,3,3,3,-9.35,1.8,2.22,-1.33,-2.38,-0.9399999999999999
13.99125194549561,2,3,3,3,-9.050000000000001,1.81,2.49,-2.04,-2.93,-0.31
14.00125193595886,2,3,3,3,-8.82,1.84,2.82,-2.08,-3.61,-0.18
14.0112521648407,2,3,3,3,-8.19,1.85,3.13,-1.71,-3.98,-0.14
14.02125215530396,2,3,3,3,-7.93,1.74,3.06,-1.71,-3.98,-0.14
14.03125214576721,2,3,3,3,-7.9,1.6,3.02,-1.35,-3.69,-0.32
14.04125213623047,2,3,3,3,-7.91,1.38,2.99,-2.07,-2.34,-0.88
14.05125212669373,2,3,3,3,-8.33,0.92,3.21,-3.36,-1.95,-1.36
14.06125211715698,2,3,3,3,-8.710000000000001,0.72,3.53,-4.3,-2.28,-1.91
14.07125210762024,2,3,3,3,-9.17,0.54,3.74,-4.3,-2.28,-1.91
14.0812520980835,2,3,3,3,-9.42,0.31,3.79,-4.41,-3.01,-2.43
14.09125208854675,2,3,3,3,-10,-0.01,3.68,-3.32,-2.81,-3.49
14.10125207901001,2,3,3,3,-10.43,-0.19,3.7,-2.5,-2.94,-3.7
14.11125206947327,2,3,3,3,-10.64,-0.41,3.63,-1.18,-2.98,-3.39
14.12125205993652,2,3,3,3,-10.74,-0.5,3.45,-1.18,-2.98,-3.39
14.13125205039978,2,3,3,3,-10.73,-0.41,3.4,-0.19,-3.08,-2.65
14.14125204086304,2,3,3,3,-10.5,-0.27,3.24,1.03,-3.55,-0.7
14.15125203132629,2,3,3,3,-10.15,-0.17,3.08,1.35,-3.48,-0.06
14.16125202178955,2,3,3,3,-9.44,0.11,3.22,1.49,-3.25,0.25
14.17125201225281,2,3,3,3,-9.140000000000001,0.09,3.32,1.49,-3.25,0.25
14.18125200271606,2,3,3,3,-8.869999999999999,0.25,3.53,1.7,-3.1,0.27
14.19125199317932,2,3,3,3,-8.75,0.27,3.71,2.15,-3.49,-0.27
14.20125198364258,2,3,3,3,-8.220000000000001,0.44,3.48,2.33,-3.27,-0.58
14.21125197410583,2,3,3,3,-8.08,0.43,3.47,2.03,-2.82,-0.92
14.22125196456909,2,3,3,3,-8.109999999999999,0.41,3.56,2.03,-2.82,-0.92
14.23125195503235,2,3,3,3,-8.140000000000001,0.43,3.57,1.77,-2.59,-1.23
14.24125194549561,2,3,3,3,-8.199999999999999,0.35,3.56,1.32,-2.5,-1.63
14.25125193595886,2,3,3,3,-8.25,0.26,3.44,1.17,-2.39,-1.69
14.2612521648407,2,3,3,3,-8.32,0.21,3.45,0.88,-2.26,-1.71
14.27125215530396,2,3,3,3,-8.449999999999999,0.15,3.48,0.88,-2.26,-1.71
14.28125214576721,2,3,3,3,-8.609999999999999,-0.03,3.5,0.75,-2.24,-1.77
14.29125213623047,2,3,3,3,-8.619999999999999,-0.1,3.44,0.88,-2.21,-1.82
14.30125212669373,2,3,3,3,-8.539999999999999,-0.26,3.38,1.06,-2.04,-1.84
14.31125211715698,2,3,3,3,-8.6,-0.46,3.6,1.24,-1.74,-1.9
14.32125210762024,2,3,3,3,-8.529999999999999,-0.55,3.63,1.46,-1.47,-1.92
14.3312520980835,2,3,3,3,-8.470000000000001,-0.63,3.62,1.86,-1.12,-1.87
14.34125208854675,2,3,3,3,-8.44,-0.59,3.69,2.23,-0.6,-1.72
14.35125207901001,2,3,3,3,-8.460000000000001,-0.54,3.58,2.53,-0.18,-1.52
14.36125206947327,2,3,3,3,-8.49,-0.44,3.63,2.78,0.23,-1.39
14.37125205993652,2,3,3,3,-8.5,-0.35,3.62,2.85,0.58,-1.38
14.38125205039978,2,3,3,3,-8.630000000000001,-0.29,3.65,2.74,0.85,-1.38
14.39125204086304,2,3,3,3,-8.77,-0.19,3.65,2.6,0.96,-1.39
14.40125203132629,2,3,3,3,-8.85,-0.12,3.65,2.37,1.05,-1.39
14.41125202178955,2,3,3,3,-8.84,-0.01,3.76,2.33,0.9399999999999999,-1.35
14.42125201225281,2,3,3,3,-8.869999999999999,-0.04,3.81,2.45,0.71,-1.24
14.43125200271606,2,3,3,3,-9.01,-0.05,3.95,2.68,0.65,-1.12
14.44125199317932,2,3,3,3,-9.16,-0.1,3.95,2.68,0.54,-0.99
14.45125198364258,2,3,3,3,-9.210000000000001,-0.16,3.83,2.5,0.34,-0.9
14.46125197410583,2,3,3,3,-9.18,-0.16,3.82,2.6,0.26,-0.77
14.47125196456909,2,3,3,3,-9.199999999999999,-0.1,4,2.92,0.28,-0.68
14.48125195503235,2,3,3,3,-9.199999999999999,-0.09,3.94,3.25,0,-0.65
14.49125194549561,2,3,3,3,-8.960000000000001,-0.05,3.81,3.71,-0.57,-0.68
14.50125193595886,2,3,3,3,-8.73,-0.05,3.69,4.09,-0.58,-0.72
14.5112521648407,2,3,3,3,-8.5,-0.12,3.9,4.17,-0.2,-0.76
14.52125215530396,2,3,3,3,-8.470000000000001,-0.22,4.04,4.01,0.12,-0.84
14.53125214576721,2,3,3,3,-8.41,-0.42,4.12,3.81,0.3,-0.97
14.54125213623047,2,3,3,3,-8.48,-0.97,4.4,3.52,0.6899999999999999,-1.23
14.55125212669373,2,3,3,3,-8.59,-1.18,4.52,3.31,1,-1.64
14.56125211715698,2,3,3,3,-8.75,-1.29,4.61,3.63,0.87,-2.1
14.57125210762024,2,3,3,3,-8.9,-1.39,4.73,4.4,0.49,-2.49
14.5812520980835,2,3,3,3,-9.539999999999999,-1.3,5.04,5.3,0.1,-2.81
14.59125208854675,2,3,3,3,-9.960000000000001,-1.06,5.01,6.41,-0.3,-3.01
14.60125207901001,2,3,3,3,-10.56,-0.77,4.75,7.67,-0.75,-3.04
14.61125206947327,2,3,3,3,-11.12,-0.42,4.57,8.539999999999999,-1.08,-2.8
14.62125205993652,2,3,3,3,-12.53,0.52,5.03,8.42,-0.84,-2.21
14.63125205039978,2,3,3,3,-12.89,1.53,4.92,7.77,-0.64,-1.57
14.64125204086304,2,3,3,3,-12.93,2.55,4.51,8.01,-2.01,-0.78
14.65125203132629,2,3,3,3,-13.03,3.37,4.14,8.42,-3.64,-0.2
14.66125202178955,2,3,3,3,-12.76,3.59,3.11,8.4,-3.89,0.35
14.67125201225281,2,3,3,3,-11.75,2.66,2.96,6.36,-3.42,0.91
14.68125200271606,2,3,3,3,-10.63,1.67,3.56,2.05,-1.6,1.32
14.69125199317932,2,3,3,3,-9.449999999999999,0.76,4.75,-2.25,-0.48,1.02
14.70125198364258,2,3,3,3,-7.94,-0.37,6.35,-4.38,-0.91,-0.04
14.71125197410583,2,3,3,3,-7.33,0.73,6.03,-3.12,-2.09,-1.4
14.72125196456909,2,3,3,3,-7.24,0.33,5.35,-0.58,-2.25,-3.52
14.73125195503235,2,3,3,3,-8.19,-0.61,5.4,0.96,-0.96,-4.53
14.74125194549561,2,3,3,3,-8.369999999999999,-0.5600000000000001,4.38,2.51,0.44,-4.68
14.75125193595886,2,3,3,3,-8.9,-0.37,3.42,4.22,2.06,-3.52
14.7612521648407,2,3,3,3,-9.69,0.01,3.03,4,4.13,-1.94
14.77125215530396,2,3,3,3,-10.98,1.64,2,2.94,5.2,0.1
14.78125214576721,2,3,3,3,-10.85,2.24,1.82,1.76,4.84,2.17
14.79125213623047,2,3,3,3,-10.66,2.64,1.72,0.71,3.78,3.66
14.80125212669373,2,3,3,3,-10.24,2.77,1.67,0.26,2.64,4.37
14.81125211715698,2,3,3,3,-8.949999999999999,2.65,2.02,-0.07000000000000001,1.91,4.42
14.82125210762024,2,3,3,3,-8.619999999999999,2.62,2.18,-0.09,1.86,4.02
14.8312520980835,2,3,3,3,-8.300000000000001,2.56,2.15,-0.21,1.76,3.43
14.84125208854675,2,3,3,3,-8.02,2.41,1.91,-0.1,1.83,3
14.85125207901001,2,3,3,3,-8.199999999999999,2.34,1.6,0.52,2.41,2.64
14.86125206947327,2,3,3,3,-8.34,2.39,1.46,1.06,2.82,2.25
14.87125205993652,2,3,3,3,-8.289999999999999,2.32,1.32,1.57,2.86,1.85
14.88125205039978,2,3,3,2,-8.23,2.41,1.17,2.22,2.85,1.46
14.89125204086304,2,3,3,2,-8.43,2.55,1,2.67,2.42,1.12
14.90125203132629,2,3,3,2,-8.56,2.65,0.88,2.77,1.95,0.84
14.91125202178955,2,3,3,2,-8.67,2.75,0.7,2.55,1.46,0.61
14.92125201225281,2,3,3,2,-8.83,2.9,1.25,2.31,0.66,0.39
14.93125200271606,2,3,3,2,-8.99,3,1.31,1.82,0.36,0.32
14.94125199317932,2,3,3,2,-8.84,2.9,1.32,1.37,0.32,0.28
14.95125198364258,2,3,3,2,-8.720000000000001,2.78,1.38,0.77,0.25,0.31
14.96125197410583,2,3,3,2,-8.43,2.58,1.58,0.01,0.68,0.5
14.97125196456909,2,3,3,2,-8.43,2.52,1.6,-0.6899999999999999,1.51,0.79
14.98125195503235,2,3,3,2,-8.380000000000001,2.36,1.67,-1.51,2.36,0.89
14.99125194549561,2,3,3,2,-8.41,2.22,1.71,-2.32,2.97,0.99
15.00125193595886,2,3,3,2,-8.48,2.02,1.42,-2.74,3.54,1.04
15.01225209236145,2,3,3,2,-8.57,2.07,1.56,-2.92,4.44,1
15.02225208282471,2,3,3,2,-8.84,1.98,1.56,-3.13,5.13,1.06
15.03225207328796,2,3,3,2,-9.039999999999999,2.01,1.37,-2.87,5.52,1.2
15.04225206375122,2,3,3,2,-9.380000000000001,2.26,1.13,-2.55,5.67,1.65
15.05225205421448,2,3,3,2,-9.58,2.59,0.98,-2.46,5.44,2.15
15.06225204467773,2,3,3,2,-9.68,2.63,0.83,-2.57,5.26,2.87
15.11225199699402,2,3,3,2,-8.529999999999999,1.14,1.96,-8.039999999999999,3.19,3.21
15.12225198745728,2,3,3,2,-8.92,0.37,2.08,-8.710000000000001,2.93,2.62
15.13225197792053,2,3,3,2,-9.08,0.21,2.42,-8.6,3.56,1.83
15.14225196838379,2,3,3,2,-9.300000000000001,-0.13,2.41,-7.78,2.88,1.14
15.15225195884705,2,3,3,2,-9.5,-0.49,2.08,-6.38,2.81,0.57
15.1622519493103,2,3,3,2,-9.57,-0.51,2.06,-4.89,2.98,0.29
15.17225193977356,2,3,3,2,-9.59,-0.37,2.12,-3.66,3.2,0.28
15.18225193023682,2,3,3,2,-9.640000000000001,-0.21,2.04,-2.66,3.18,0.65
15.19225215911865,2,3,3,2,-9.68,0.32,1.96,-1.83,3.27,1.17
15.20225214958191,2,3,3,2,-9.68,0.52,1.75,-1.15,3.22,1.77
15.21225214004517,2,3,3,2,-9.77,0.76,1.73,-0.66,3.01,2.39
15.22225213050842,2,3,3,2,-9.949999999999999,0.83,1.67,-0.72,2.86,2.9
15.23225212097168,2,3,3,2,-9.93,0.96,1.68,-0.78,2.51,3.24
15.24225211143494,2,3,3,2,-9.93,0.89,1.65,-1.25,2.21,3.42
15.25225210189819,2,3,3,2,-9.789999999999999,0.82,1.58,-1.9,1.95,3.44
15.26225209236145,2,3,3,2,-9.710000000000001,0.75,1.69,-2.49,1.58,3.34
15.27225208282471,2,3,3,2,-9.470000000000001,0.72,1.85,-2.96,1.33,3.18
15.28225207328796,2,3,3,2,-9.33,0.65,1.78,-3.26,1.06,2.97
15.29225206375122,2,3,3,2,-9.210000000000001,0.58,1.79,-3.33,0.76,2.76
15.30225205421448,2,3,3,2,-9.199999999999999,0.5600000000000001,1.73,-3.59,0.57,2.53
15.31225204467773,2,3,3,2,-9.32,0.51,1.58,-3.7,0.48,2.22
15.32225203514099,2,3,3,2,-9.380000000000001,0.5,1.55,-3.85,0.34,1.9
15.33225202560425,2,3,3,2,-9.42,0.47,1.43,-4.3,0.31,1.57
15.3422520160675,2,3,3,2,-9.56,0.49,1.41,-4.59,0.4,1.32
15.35225200653076,2,3,3,2,-9.57,0.46,1.56,-5.54,0.66,1.23
15.36225199699402,2,3,3,2,-9.65,0.45,1.71,-6.67,1.01,1.38
15.37225198745728,2,3,3,2,-9.75,0.44,1.78,-7.35,1.27,1.7
15.38225197792053,2,3,3,2,-10.24,0.2,2.01,-7.47,1.54,2.09
15.39225196838379,2,3,3,2,-10.52,0.05,2.04,-7.31,1.82,2.39
15.40225195884705,2,3,3,2,-10.79,-0.1,1.97,-7,2.12,2.54
15.4122519493103,2,3,3,2,-10.93,-0.1,2.06,-6.97,2.3,2.61
15.42225193977356,2,3,3,2,-11.08,0.01,2.44,-7.44,2.14,2.8
15.43225193023682,2,3,3,2,-10.93,0.03,2.76,-8.06,1.88,3.06
15.44225215911865,2,3,3,2,-10.96,0.22,2.78,-8.42,1.55,3.45
15.45225214958191,2,3,3,2,-11,0.3,2.88,-7.79,1.64,3.54
15.46225214004517,2,3,3,2,-11.47,0.46,3.24,-7.48,2.38,3.28
15.47225213050842,2,3,3,2,-11.49,0.3,2.79,-6.82,2.93,2.68
15.48225212097168,2,3,3,2,-11.41,0.05,2.42,-5.01,3.56,1.93
15.49225211143494,2,3,3,2,-11.51,-0.26,2.19,-3.65,4.87,1.07
15.50225210189819,2,3,3,2,-12.06,-0.35,1.82,-2.74,6.04,0.46
15.51225209236145,2,3,3,2,-12.17,-0.43,1.59,-1.98,6.34,-0.3
15.52225208282471,2,3,3,2,-12.12,-0.5,1.23,-1.19,5.77,-0.93
15.53225207328796,2,3,3,2,-11.64,1.43,0.5,0.35,4.89,-0.91
15.54225206375122,2,3,3,2,-11.47,1.22,0.44,2.43,4.22,-1.06
15.55225205421448,2,3,3,2,-11.21,2.27,0.5,3.82,3.3,-0.95
15.56225204467773,2,3,3,2,-10.99,3.7,0.84,5.99,3.63,-0.6
15.57225203514099,2,3,3,2,-10.02,5.9,0.6,6.11,4.2,-1
15.58225202560425,2,3,3,2,-9.17,6.78,-0.19,5.77,3.4,-1.41
15.5922520160675,2,3,3,2,-8.34,7.38,-0.66,6.14,2.26,-1.99
15.60225200653076,2,3,3,2,-7.94,7.63,-0.88,4.74,2.13,-3
15.61225199699402,2,3,3,2,-7.86,7.23,-0.43,1.03,2.36,-4.11
15.62225198745728,2,3,3,2,-7.96,7.04,0.42,-4.32,2.07,-4.9
15.63225197792053,2,3,3,2,-8.550000000000001,6.18,0.98,-9.76,3.31,-5.6
15.64225196838379,2,3,3,2,-9.07,5.26,1.7,-14.72,3.78,-6.74
15.65225195884705,2,3,3,2,-9.539999999999999,2.73,2.28,-17.09,3.16,-8.1
15.6622519493103,2,3,3,2,-9.75,1.31,2.51,-17.08,2.55,-9.6
15.67225193977356,2,3,3,2,-9.94,-0.04,2.87,-15.33,1.96,-10.99
15.68225193023682,2,3,3,2,-9.94,-0.04,2.87,-12.84,0.71,-11.91
15.69225215911865,2,3,3,2,-10.25,-1.08,3.28,-9.609999999999999,-1.34,-12.01
15.70225214958191,2,3,3,2,-10.89,-1.83,2.9,-5.79,-3.17,-11.22
15.71225214004517,2,3,3,2,-10.74,-1.4,2.44,-1.91,-4.74,-9.59
15.72225213050842,2,3,3,2,-11,-0.2,1.79,1.18,-5.95,-7.52
15.73225212097168,2,3,3,2,-11,-0.2,1.79,4.09,-7.11,-4.8
15.74225211143494,2,3,3,2,-11.19,-0.08,1.53,4.09,-7.11,-4.8
15.75225210189819,2,3,3,2,-10.97,0.35,1.39,5.11,-8.43,-3.75
15.76225209236145,2,3,3,2,-9.859999999999999,0.6,1.51,6.56,-9.66,-2.19
15.77225208282471,2,3,3,2,-8.960000000000001,0.5,1.5,6.76,-10,-1.67
15.78225207328796,2,3,3,2,-8.960000000000001,0.5,1.5,7.18,-10.14,-1.48
15.79225206375122,2,3,3,2,-8.19,0.52,1.57,7.5,-10.19,-1.64
15.80225205421448,2,3,3,2,-6.76,0.96,1.81,7.22,-9.26,-1.95
15.81225204467773,2,3,3,2,-6.59,1.2,2.17,6.62,-8.529999999999999,-2.24
15.82225203514099,2,3,3,2,-6.53,1.27,2.24,6.04,-8.06,-2.79
15.83225202560425,2,3,3,1,-6.53,1.27,2.24,6.04,-8.06,-2.79
15.8422520160675,2,3,3,1,-6.96,1.54,2.31,5,-7.64,-3.83
15.85225200653076,2,3,3,1,-7.16,1.41,2.19,4.29,-6.95,-3.97
15.86225199699402,2,3,3,1,-7.38,1.29,2.26,3.34,-5.64,-3.72
15.87225198745728,2,3,3,1,-7.53,1.13,2.29,2.27,-4.33,-3.23
15.88225197792053,2,3,3,1,-7.53,1.13,2.29,1.5,-2.84,-2.48
15.89225196838379,2,3,3,1,-8.23,0.45,2.48,1.21,-1.77,-1.58
15.90225195884705,2,3,3,1,-8.81,0.18,2.75,1.24,-1.89,-1.39
15.9122519493103,2,3,3,1,-8.68,-0.14,2.9,1.95,-2.22,-1.06
15.92225193977356,2,3,3,1,-8.65,-0.15,2.9,2.67,-2.06,-0.5600000000000001
15.98225212097168,2,3,3,1,-7.51,-0.61,2.96,1.28,1.89,1.57
15.99325203895569,2,3,3,1,-7.65,-0.68,3.39,0.25,1.81,1.36
16.00225210189819,2,3,3,1,-7.71,-0.95,3.28,-0.33,0.77,0.57
16.01225209236145,2,3,3,1,-7.59,-1.26,3.23,-0.03,1.34,0.14
16.02225208282471,2,3,3,1,-7.64,-1.58,3.23,0.53,2.08,-0.37
16.03225207328796,2,3,3,0,-7.83,-1.73,3.28,0.53,2.08,-0.37
16.04325199127197,2,3,3,0,-8.279999999999999,-2.42,3.67,1.16,2.62,-0.67
16.05325198173523,2,3,3,0,-8.68,-2.38,3.76,4.77,1.62,-1.05
16.06325197219849,2,3,3,0,-9.06,-2.29,3.88,7.52,0.96,-1.14
16.07325196266174,2,3,3,0,-9.34,-2.18,3.78,10.27,0.82,-1.01
16.083251953125,2,3,3,0,-9.880000000000001,-0.97,3.42,10.27,0.82,-1.01
16.09325194358826,2,3,3,0,-10.38,-0.12,3.46,12.35,0.91,-0.62
16.10325193405151,2,3,3,0,-10.68,0.71,3.03,14.37,0.55,0.66
16.11325216293335,2,3,3,0,-10.85,1.13,2.1,11.59,1.64,0.8
16.12325215339661,2,3,3,0,-11.37,0.42,2.4,6.72,2.02,0.25
16.13325214385986,2,3,3,0,-11.88,-0.34,3.58,6.72,2.02,0.25
16.14325213432312,2,3,3,0,-12.06,-0.9399999999999999,4.36,2.79,0.8,-0.9399999999999999
16.15325212478638,2,3,3,0,-11.69,-2.49,5.79,1.18,-3.31,-5.47
16.16325211524963,2,3,3,0,-11.63,-2.75,6.2,4.91,-7.06,-7.97
16.17325210571289,2,3,3,0,-11.27,-2.68,5.6,9.92,-8.98,-9.619999999999999
16.18325209617615,2,3,3,0,-11.09,-2.15,5.02,9.92,-8.98,-9.619999999999999
16.1932520866394,2,3,3,0,-13.94,-1,5.58,12.28,-7.95,-10.02
16.20325207710266,2,3,3,0,-15.39,-0.07000000000000001,4.66,13.32,-4.07,-5.84
16.21325206756592,2,3,3,0,-16.56,1.26,3.34,10.74,-1.37,-1.83
16.22325205802917,2,3,3,0,-17.26,2.61,2.36,6.78,-1.16,2.31
16.23325204849243,2,3,3,0,-15.49,3.55,1.25,6.78,-1.16,2.31
16.24325203895569,2,3,3,0,-11.97,4.04,2.71,2.17,-3.89,5.25
16.25325202941895,2,3,3,0,-9.25,4.54,4.7,-3.85,-5.72,5.83
16.2632520198822,2,3,3,0,-7.52,4.52,4.97,-3.97,-3.08,4.19
16.27325201034546,2,3,3,0,-6.57,3.13,4.47,-3.01,-0.42,2.39
16.28325200080872,2,3,3,0,-7.03,2.32,4.14,-3.01,-0.42,2.39
16.29325199127197,2,3,3,0,-7.67,1.74,3.4,-0.67,2.37,1.6
16.30325198173523,2,3,3,0,-8.33,1.51,2.37,2.87,7.7,2.74
16.31325197219849,2,3,3,0,-9.23,1.12,-0.19,3.62,8.460000000000001,4.11
16.32325196266174,2,3,3,0,-9.56,1.44,-0.58,3.5,7.33,5.67
16.333251953125,2,3,3,0,-9.68,1.96,-0.8,3.5,7.33,5.67
16.34325194358826,2,3,3,0,-9.050000000000001,3.26,-0.29,3.25,4.85,6.78
16.35325193405151,2,3,3,0,-8.529999999999999,3.59,0.28,2.13,-0.08,6.32
16.36325216293335,2,3,3,0,-8.07,3.72,0.87,1.78,-0.73,5.25
16.37325215339661,2,3,3,0,-7.63,3.57,1.29,1.94,-0.1,4.48
16.38325214385986,2,3,3,0,-7.04,3.43,1.61,1.94,-0.1,4.48
16.39325213432312,2,3,3,0,-6.86,3.12,1.5,2.02,1.22,4.07
16.40325212478638,2,3,3,0,-6.95,3.05,1.48,2.29,2.56,3.84
16.41325211524963,2,3,3,0,-7.05,2.83,1.39,2.32,2.7,3.42
16.42325210571289,2,3,3,0,-7.14,2.96,1.33,2.37,3.2,3.17
16.43325209617615,2,3,3,0,-7.16,3.22,1.16,2.05,3.97,2.96
16.4432520866394,2,3,3,0,-7.2,3.48,0.93,1.05,4.53,2.82
16.45325207710266,2,3,3,0,-7.5,3.67,0.91,-0.3,4.83,2.64
16.46325206756592,2,3,3,0,-8.16,3.96,0.85,-2.21,4.87,2.53
16.47325205802917,2,3,3,0,-8.49,3.94,0.76,-4.29,5.13,2.39
16.48325204849243,2,3,3,0,-8.81,3.96,0.74,-6.21,5.41,1.94
16.49325203895569,2,3,3,0,-8.83,3.44,0.63,-8.01,5.28,1.66
16.50325202941895,2,3,3,0,-8.720000000000001,2.63,0.7,-9.300000000000001,5.34,1.87
16.5132520198822,2,3,3,0,-8.81,2.08,0.9,-10.49,5.88,1.91
16.52325201034546,2,3,3,0,-9.06,1.57,1.02,-10.73,5.93,1.72
16.53325200080872,2,3,3,0,-9.43,0.98,1.16,-10.32,5.39,1.21
16.54325199127197,2,3,3,0,-9.41,0.59,1.23,-10.04,4.64,0.58
16.55325198173523,2,3,3,0,-9.24,0.38,1.23,-9.619999999999999,4.15,0.11
16.56325197219849,2,3,3,0,-9.31,0.08,1.32,-8.880000000000001,3.89,-0.02
16.57325196266174,2,3,3,0,-9.699999999999999,-0.23,1.45,-7.97,3.22,-0.21
16.583251953125,2,3,3,0,-9.82,-0.35,1.52,-6.77,2.81,-0.3
16.59325194358826,2,3,3,0,-9.73,-0.53,1.55,-5.57,2.59,-0.29
16.60325193405151,2,3,3,0,-9.76,-0.59,1.54,-4.49,2.17,-0.03
16.61325216293335,2,3,3,0,-9.640000000000001,-0.45,1.74,-3.66,1.94,0.3
16.62325215339661,2,3,3,0,-9.390000000000001,-0.36,1.63,-2.88,1.53,0.76
16.63325214385986,2,3,3,0,-9.210000000000001,-0.23,1.71,-2.25,1.3,1.31
16.64325213432312,2,3,3,0,-9.25,-0.3,1.86,-1.96,1.27,1.72
16.65325212478638,2,3,3,0,-9.609999999999999,0.07000000000000001,2.13,-1.38,0.89,1.98
16.66325211524963,2,3,3,0,-9.69,0.32,2.06,-0.46,0.66,2.14
16.67325210571289,2,3,3,0,-9.699999999999999,0.51,1.92,0.53,0.64,2.21
16.68325209617615,2,3,3,0,-9.65,0.62,1.72,1.01,0.83,2.34
16.6932520866394,2,3,3,0,-9.66,0.74,1.57,0.86,1.07,2.47
16.70325207710266,2,3,3,0,-9.75,0.73,1.62,0.24,1.04,2.64
16.71325206756592,2,3,3,0,-9.85,0.71,1.6,-0.47,0.55,2.86
16.72325205802917,2,3,3,0,-9.81,0.58,1.53,-0.95,-0.08,3.1
16.73325204849243,2,3,3,0,-9.619999999999999,0.43,1.6,-1.48,-0.42,3.25
16.74325203895569,2,3,3,0,-9.49,0.28,1.79,-2.33,-0.5,3.5
16.75325202941895,2,3,3,0,-9.41,0.16,1.8,-2.93,-0.47,3.61
16.7632520198822,2,3,3,0,-9.34,-0.03,1.72,-3.03,-0.45,3.57
16.77325201034546,2,3,3,0,-9.449999999999999,0,1.83,-3.28,-0.64,3.47
16.78325200080872,2,3,3,0,-9.460000000000001,0.11,1.93,-3.59,-0.97,3.3
16.79325199127197,2,3,3,0,-9.43,0.29,2.02,-3.84,-1.43,3.15
16.80325198173523,2,3,3,0,-9.449999999999999,0.75,1.95,-4.28,-1.83,3.01
16.81325197219849,2,3,3,0,-9.529999999999999,0.91,1.59,-4.58,-2.16,2.93
16.82325196266174,2,3,3,0,-9.460000000000001,0.84,1.41,-4.28,-1.95,2.88
16.833251953125,2,3,3,0,-9.41,0.73,1.78,-3.78,-1.31,2.93
16.84325194358826,2,3,3,1,-9.24,0.1,2.05,-2.68,-0.1,2.95
16.85325193405151,2,3,3,1,-9.380000000000001,-0.45,1.68,-1.16,1.4,2.66
16.86325216293335,2,3,3,1,-9.74,-0.84,1.26,-0.88,2.28,2.04
16.87325215339661,2,3,3,1,-10.07,-0.95,1.5,-2.28,2.36,1.65
16.88325214385986,2,3,3,1,-10.64,-0.09,3.39,-4.68,1.75,1.75
16.89325213432312,2,3,3,1,-10.92,0.35,3.59,-6.24,0.6899999999999999,2.04
16.90325212478638,2,3,3,1,-11.19,0.84,3.64,-5.36,-0.36,1.94
16.91325211524963,2,3,3,1,-11.35,1.02,3.52,-3.84,-0.36,1.29
16.92325210571289,2,3,3,1,-11.03,0.6899999999999999,3.07,-2.22,1.09,0.21
16.93325209617615,2,3,3,1,-11.03,0.22,2.31,-0.5,3.7,-0.78
16.9432520866394,2,3,3,2,-11.41,-0.03,1.96,0.88,6.83,-1.51
16.95325207710266,2,3,3,2,-12.9,-0.46,2.13,0.77,9.27,-1.79
16.96325206756592,2,3,3,2,-13.2,0.11,1.4,1.37,9.52,-1.41
16.97325205802917,2,3,3,2,-13.1,0.79,0.28,3.45,8.41,-0.68
16.98325204849243,2,3,3,2,-13.02,1.78,-0.58,5.54,7.35,0.08
16.99325203895569,2,3,3,2,-12.13,3.73,-0.04,6.01,5.99,0.44
17.00325202941895,2,3,3,2,-10.81,5.57,0.08,5.9,4.65,1.08
17.0132520198822,2,3,3,2,-10.27,8.720000000000001,-0.6899999999999999,6.62,3.43,0.97
17.02325201034546,2,3,3,2,-8.529999999999999,6.16,-1.13,5.5,-0.13,-1.65
17.03325200080872,2,3,3,2,-6.8,8.6,-1.15,5.89,2.31,-1.27
17.04325199127197,2,3,3,2,-7.16,8.42,-0.76,2.9,5.57,-4.27
17.05325198173523,2,3,3,2,-7.73,8.58,0.27,-3.79,5.37,-6.65
17.06425213813782,2,3,3,2,-8.84,8.380000000000001,1.17,-11.17,4.03,-8.890000000000001
17.07425212860107,2,3,3,2,-11.05,6.52,2.06,-16.79,2.28,-10.92
17.08425211906433,2,3,3,2,-11.3,5.01,2.14,-19.66,0.32,-12.45
17.09425210952759,2,3,3,2,-11.3,3.02,2.2,-20.72,-0.3,-13.15
17.10425209999084,2,3,3,2,-11.25,1.13,2.36,-19.69,0.2,-13.27
17.1142520904541,2,3,3,2,-11.25,-2.53,2.68,-16.86,1.27,-13.09
17.12425208091736,2,3,3,2,-11.52,-3.59,3.13,-13.47,1.58,-11.9
17.13425207138062,2,3,3,2,-11.82,-4.09,3.18,-8.99,0.34,-9.539999999999999
17.14425206184387,2,3,3,2,-11.53,-4.11,2.16,-3.85,-2.29,-7.09
17.15425205230713,2,3,3,2,-11.27,-2.25,1.78,1.3,-4.48,-4
17.16425204277039,2,3,3,2,-10.81,-1.52,1.54,5.47,-5.9,-2.55
17.17425203323364,2,3,3,2,-10.1,-0.78,1.61,7.56,-8.43,-2.13
17.1842520236969,2,3,3,2,-9.1,0.72,1.72,9.949999999999999,-10.48,-1.97
17.19425201416016,2,3,3,2,-8.58,1.08,1.58,11.52,-11.72,-1.77
17.20425200462341,2,3,3,2,-7.92,1.45,1.41,11.94,-12.74,-1.71
17.21425199508667,2,3,3,2,-7.1,1.58,1.35,11.74,-13.22,-1.77
17.22425198554993,2,3,3,2,-6.59,1.6,1.47,11.2,-11.93,-2.03
17.23425197601318,2,3,3,2,-6.54,1.59,1.92,9.99,-11.15,-2.4
17.24425196647644,2,3,3,2,-6.57,1.48,2.18,8.65,-10.42,-2.82
17.2542519569397,2,3,3,2,-6.63,1.43,2.44,7.81,-9.640000000000001,-3.27
17.27425193786621,2,3,3,2,-6.78,1.29,2.35,6.55,-7.88,-3.98
17.28425192832947,2,3,3,2,-7.12,1.15,2.46,5.9,-6.15,-3.96
17.2942521572113,2,3,3,2,-7.28,1.09,2.54,5.24,-4.56,-3.5
17.30425214767456,2,3,3,2,-7.72,0.97,2.63,4.59,-3.52,-2.81
17.31425213813782,2,3,3,2,-7.84,1.03,2.62,3.88,-2.57,-1.93
17.32425212860107,2,3,3,2,-7.95,0.96,2.64,3.32,-1.73,-1.01
17.33425211906433,2,3,3,2,-8.140000000000001,0.88,2.81,3.12,-1.13,-0.16
17.34425210952759,2,3,3,2,-8.09,0.7,2.86,2.94,-0.55,0.55
17.35425209999084,2,3,3,2,-8.15,0.44,2.82,2.95,0.1,1.12
17.3642520904541,2,3,3,2,-8.220000000000001,0.28,2.74,2.82,0.7,1.49
17.37425208091736,2,3,3,2,-7.99,0,2.8,2.58,1.08,1.64
17.38425207138062,2,3,3,2,-7.96,-0.25,2.73,2.32,1.06,1.71
17.39425206184387,2,3,3,2,-7.7,-0.49,2.37,1.96,0.87,1.56
17.40425205230713,2,3,3,2,-7.38,-0.8,2.23,1.89,0.93,1.41
17.41425204277039,2,3,3,2,-7.98,-1.19,2.83,1.87,2.28,1.13
17.42425203323364,2,3,3,2,-8.130000000000001,-1.52,2.96,1.51,3.15,0.55
17.4342520236969,2,3,3,2,-8.279999999999999,-1.7,3.02,1.53,2.87,0.19
17.44425201416016,2,3,3,2,-8.470000000000001,-1.85,3.12,2.03,2.89,-0.17
17.45425200462341,2,3,3,2,-8.800000000000001,-2.15,3.5,2.7,2.82,-0.45
17.46425199508667,2,3,3,2,-8.92,-2.2,3.55,3.66,2.66,-0.57
17.47425198554993,2,3,3,2,-9.210000000000001,-2.08,3.78,5.28,2.25,-0.54
17.48425197601318,2,3,3,2,-9.4,-1.76,3.61,7.46,1.69,-0.64
17.49425196647644,2,3,3,2,-9.94,-0.38,3.46,10.09,1.25,-0.68
17.5042519569397,2,3,3,2,-10.02,0.47,3.28,12.25,0.6899999999999999,-0.83
17.51425194740295,2,3,3,2,-9.82,1.31,2.58,14.54,-0.3,-0.34
17.52425193786621,2,3,3,2,-10.26,1.7,1.44,16.25,-0.96,0.59
17.53425192832947,2,3,3,2,-11.03,1.15,2.01,14.83,0.2,1.29
17.5442521572113,2,3,3,2,-11.96,0.47,3.29,9.9,1.89,1.39
17.55425214767456,2,3,3,2,-12.56,-0.04,4.47,3.76,1.77,0.75
17.56425213813782,2,3,3,2,-12.02,-1.23,5,-1.1,-0.62,-0.76
17.57425212860107,2,3,3,2,-11.92,-1.73,5.41,-3.78,-3.24,-3.33
17.58425211906433,2,3,3,2,-12.03,-1.99,5.65,-3.11,-5.27,-6.1
17.59425210952759,2,3,3,1,-11.38,-0.91,5.3,2.11,-6.88,-7.81
17.60425209999084,2,3,3,1,-13.61,-1.46,5.25,6.88,-8.92,-9.75
17.72425198554993,2,3,3,1,-8.199999999999999,-0.07000000000000001,0.66,2.53,2.73,-2.17
17.73425197601318,2,3,3,1,-9.130000000000001,0.19,-0.02,4.63,5.76,-1.28
17.74425196647644,2,3,3,1,-9.98,0.75,-0.83,5.19,7.32,0.58
17.7542519569397,2,3,3,1,-10.43,2.5,-0.76,5.14,6.99,2.93
17.76425194740295,2,3,3,1,-10.07,3.15,-0.21,4.6,4.43,5.08
17.77425193786621,2,3,3,1,-9.380000000000001,3.5,0.52,4.26,0.16,5.93
17.78425192832947,2,3,3,1,-8.75,3.69,1.18,4.14,-3.03,5.51
17.7942521572113,2,3,3,1,-7.66,3.68,1.87,4.25,-4.13,4.26
17.80425214767456,2,3,3,1,-7.38,3.45,1.91,4.42,-3.46,2.95
17.81425213813782,2,3,3,1,-7.12,3.3,1.82,4.41,-2.51,1.83
17.82425212860107,2,3,3,1,-6.76,3.11,1.71,4.38,-1.43,1
17.83425211906433,2,3,3,1,-6.31,3.09,1.59,4.37,-0.06,0.47
17.84425210952759,2,3,3,1,-6.31,3.09,1.59,4.21,1.9,0.42
17.85425209999084,2,3,3,1,-6.42,3.25,1.39,3.72,3.74,0.57
17.8642520904541,2,3,3,1,-6.85,3.76,0.99,2.45,5.35,1.08
17.87425208091736,2,3,3,1,-8.029999999999999,4.08,0.86,0.7,6.82,1.65
17.90425205230713,2,3,3,1,-8.789999999999999,3.89,0.6899999999999999,-5.77,8.52,3.03
17.91425204277039,2,3,3,1,-8.960000000000001,3.54,0.65,-8.029999999999999,8.289999999999999,3.05
17.92425203323364,2,3,3,1,-8.880000000000001,2.96,0.73,-9.970000000000001,8.08,3.41
17.9342520236969,2,3,3,1,-8.91,2.65,1.04,-11.43,7.81,3.7
17.94425201416016,2,3,3,1,-8.91,2.65,1.04,-11.43,7.81,3.7
17.95425200462341,2,3,3,1,-9.18,1.72,0.95,-12.13,6.89,3.61
17.96425199508667,2,3,3,1,-9.66,1.02,1.01,-12.03,6.75,3.37
17.97425198554993,2,3,3,1,-9.83,0.66,1.29,-11.69,6.17,2.4
17.98425197601318,2,3,3,1,-10.05,0.15,1.41,-11.1,5.38,2.14
17.99425196647644,2,3,3,1,-10.05,0.15,1.41,-11.1,5.38,2.14
18.0042519569397,2,3,3,1,-9.970000000000001,-0.07000000000000001,1.59,-11.23,4.45,1.76
18.01425194740295,2,3,3,1,-9.949999999999999,-0.68,1.63,-9.710000000000001,3.07,1.59
18.02425193786621,2,3,3,1,-9.800000000000001,-1.05,2.05,-8.859999999999999,2.76,1.71
18.03425192832947,2,3,3,1,-9.630000000000001,-1.02,2.15,-7.64,2.4,2.07
18.0442521572113,2,3,3,1,-9.630000000000001,-1.02,2.15,-7.64,2.4,2.07
18.05425214767456,2,3,3,1,-9.539999999999999,-0.96,2.21,-6.03,2.21,2.5
18.11525201797485,2,3,3,2,-9.83,0.85,1.66,-2.4,1.9,5.93
18.12525200843811,2,3,3,2,-9.859999999999999,0.86,1.58,-3.48,1.03,5.66
18.13525199890137,2,3,3,2,-9.83,0.76,1.66,-4.46,-0.03,5.21
18.14525198936462,2,3,3,2,-9.76,0.29,1.77,-4.46,-0.03,5.21
18.15525197982788,2,3,3,2,-9.779999999999999,0.06,1.83,-5.23,-0.86,4.66
18.16525197029114,2,3,3,2,-9.85,-0.15,1.88,-6.03,-2.13,3.5
18.17525196075439,2,3,3,2,-9.789999999999999,-0.3,1.85,-5.79,-2.35,2.9
18.18525195121765,2,3,3,2,-9.58,-0.5,1.99,-5.19,-2.35,2.52
18.19525194168091,2,3,3,2,-9.49,-0.44,1.93,-5.19,-2.35,2.52
18.20525193214417,2,3,3,2,-9.359999999999999,-0.34,1.99,-4.83,-2.22,2.37
18.215252161026,2,3,3,2,-9.300000000000001,-0.18,1.95,-4.56,-1.85,2.92
18.22525215148926,2,3,3,2,-9.130000000000001,0.09,1.21,-4.26,-1.31,3.41
18.23525214195251,2,3,3,2,-9.06,0.18,1.55,-3.32,-0.38,3.71
18.24525213241577,2,3,3,3,-9.119999999999999,0.16,2.04,-3.32,-0.38,3.71
18.25525212287903,2,3,3,3,-9.17,-0.06,2.13,-1.49,0.61,3.66
18.26525211334229,2,3,3,3,-9.56,-0.61,1.46,-1.28,2.03,3.01
18.27525210380554,2,3,3,3,-9.949999999999999,-0.7,1.44,-3.55,1.48,3.19
18.2852520942688,2,3,3,3,-10.32,-0.6,1.93,-5.53,0.55,3.65
18.29525208473206,2,3,3,3,-10.43,-0.26,2.41,-5.53,0.55,3.65
18.30525207519531,2,3,3,3,-10.18,0.8,3.77,-6.62,-0.04,4.05
18.31525206565857,2,3,3,3,-10.25,1.15,4.19,-5.23,0.14,3.19
18.32525205612183,2,3,3,3,-10.4,1.44,4.25,-3.17,2.18,1.75
18.33525204658508,2,3,3,3,-10.23,1.03,3.32,-1.12,5.98,0.04
18.34525203704834,2,3,3,3,-10.09,0.29,2.29,-1.12,5.98,0.04
18.3552520275116,2,3,3,3,-10.33,-0.34,1.9,-0.02,9.960000000000001,-1.18
18.36525201797485,2,3,3,3,-11.31,-0.68,2.07,1.55,11.99,-1.41
18.37525200843811,2,3,3,3,-12.91,-0.51,0.83,4.82,10.96,-0.77
18.38525199890137,2,3,3,3,-13.27,0.45,-0.05,7.55,9.449999999999999,-0.44
18.39525198936462,2,3,3,3,-13.58,1.5,-0.21,7.55,9.449999999999999,-0.44
18.40525197982788,2,3,3,3,-13.51,2.67,-0.01,9.56,6.97,-0.63
18.41525197029114,2,3,3,3,-11.33,5.75,-0.31,11.97,3.32,-1.21
18.42525196075439,2,3,3,3,-10.25,7.41,-1.05,10.19,1.88,-4.68
18.43525195121765,2,3,3,3,-10.35,10.69,-1.85,5.01,0.98,-4.65
18.44525194168091,2,3,3,3,-9.44,6.48,-2.15,5.01,0.98,-4.65
18.45525193214417,2,3,3,3,-9.640000000000001,9.59,-0.25,1.22,4.83,-5.25
18.465252161026,2,3,3,3,-10.05,8.970000000000001,0.49,-14.07,-1.68,-9.44
18.47525215148926,2,3,3,3,-10.07,8.210000000000001,1.34,-17.89,-2.46,-11.09
18.48525214195251,2,3,3,3,-10.33,7.22,2.06,-19.08,-1.06,-12.03
18.49525213241577,2,3,3,3,-10.67,4.17,2.43,-19.08,-1.06,-12.03
18.50525212287903,2,3,3,3,-10.41,2.54,2.38,-18.44,0.41,-12.16
18.51525211334229,2,3,3,3,-10.24,0.65,2.27,-16.57,1.99,-11.97
18.52525210380554,2,3,3,3,-10.48,-2.1,2.71,-13.84,2.56,-11.21
18.5352520942688,2,3,3,3,-10.78,-2.92,2.86,-10.4,0.62,-9.57
18.54525208473206,2,3,3,3,-10.89,-3.16,2.76,-5.7,-2.03,-7.66
18.55525207519531,2,3,3,3,-10.75,-2.91,2.45,-1.01,-4.42,-5.83
18.56525206565857,2,3,3,3,-10.28,-1.5,1.97,2.86,-7.01,-3.72
18.57525205612183,2,3,3,3,-9.84,-0.59,1.53,6.06,-8.84,-2.35
18.58525204658508,2,3,3,3,-9.300000000000001,-0.14,1.32,8.359999999999999,-10.56,-2
18.59525203704834,2,3,3,3,-8.710000000000001,0.55,1.32,10.01,-11.4,-1.82
18.6052520275116,2,3,3,3,-8.15,1.41,1.58,10.13,-11.48,-1.84
18.61525201797485,2,3,3,3,-7.87,1.53,1.51,9.4,-11.71,-1.98
18.62525200843811,2,3,3,3,-7.39,1.71,1.65,8.210000000000001,-11.97,-2.14
18.63525199890137,2,3,3,3,-7.42,1.73,1.89,6.69,-11.75,-2.33
18.64525198936462,2,3,3,3,-6.64,1.52,1.9,6.16,-11.73,-2.47
18.65525197982788,2,3,3,3,-6.5,1.51,2.06,6.07,-10.59,-2.72
18.66525197029114,2,3,3,3,-6.64,1.38,2.11,5.68,-8.52,-3.15
18.67525196075439,2,3,3,3,-6.92,1.37,2.17,5.16,-6.58,-3.25
18.68525195121765,2,3,3,3,-7.79,1.05,2.44,4.13,-5.64,-3.25
18.69525194168091,2,3,3,3,-7.86,0.91,2.4,3.12,-5.5,-3
18.70525193214417,2,3,3,3,-7.87,0.83,2.39,2.25,-5.26,-2.21
18.715252161026,2,3,3,3,-7.95,0.71,2.34,1.32,-4.48,-1.34
18.72525215148926,2,3,3,3,-7.83,0.64,2.28,1,-3.33,-0.38
18.73525214195251,2,3,3,3,-7.87,0.35,2.52,0.68,-2.34,0.46
18.74525213241577,2,3,3,3,-7.84,0.17,2.81,0.8100000000000001,-1.66,1.04
18.75525212287903,2,3,3,3,-7.89,-0.24,3.1,1.26,-1.22,1.32
18.76525211334229,2,3,3,3,-7.83,-0.37,3.16,1.79,-0.72,1.36
18.77525210380554,2,3,3,3,-7.92,-0.5,3.05,2.09,-0.28,1.39
18.7852520942688,2,3,3,3,-7.82,-0.54,2.98,2.27,-0.07000000000000001,1.51
18.79525208473206,2,3,3,3,-7.46,-0.6899999999999999,2.71,2.26,0.07000000000000001,1.57
18.80525207519531,2,3,3,3,-7.49,-0.79,2.79,2.22,0.49,1.41
18.81525206565857,2,3,3,3,-7.62,-0.96,2.85,2.15,1.2,1.13
18.82525205612183,2,3,3,3,-7.74,-1.18,2.84,2.41,1.59,0.64
18.83525204658508,2,3,3,3,-8.109999999999999,-1.56,3.29,2.84,1.62,0.2
18.84525203704834,2,3,3,3,-8.449999999999999,-1.65,3.59,2.69,1.57,-0.13
18.8552520275116,2,3,3,3,-8.77,-1.94,3.62,2.56,0.49,-0.54
18.86525201797485,2,3,3,3,-8.76,-2.16,3.59,3.91,-1.07,-1.24
18.87525200843811,2,3,3,3,-9.02,-1.47,3.87,6.15,-1.25,-1.62
18.88525199890137,2,3,3,3,-9.24,-0.9,3.77,7.97,-1.05,-1.97
18.89525198936462,2,3,3,3,-9.44,-0.38,3.51,9.970000000000001,-1.07,-2.22
18.90525197982788,2,3,3,3,-10.32,0.78,3.84,11.81,-0.9,-2.34
18.91525197029114,2,3,3,3,-10.42,1.53,3.33,13.86,-1.68,-1.94
18.92525196075439,2,3,3,3,-10.51,1.87,2.6,15.73,-1.77,-1.19
18.93525195121765,2,3,3,3,-10.77,1.6,2.43,15.19,-0.46,-0.46
18.94525194168091,2,3,3,3,-11.94,0.52,4.59,11.15,0.64,-0.24
18.95525193214417,2,3,3,3,-11.88,-0.23,4.81,4.72,0.14,-0.68
18.965252161026,2,3,3,3,-10.96,-0.9399999999999999,4.7,0.08,-1.13,-2.15
18.97525215148926,2,3,3,3,-10.29,-1.78,5.22,-1.92,-1.27,-4.1
18.98525214195251,2,3,3,3,-9.94,-1.67,6.1,-0.25,-1.87,-5.39
18.99525213241577,2,3,3,3,-9.800000000000001,-1.61,5.57,5,-4.86,-7.79
19.00525212287903,2,3,3,3,-10.4,-1.39,5.54,9.9,-6.84,-8.869999999999999
19.01525211334229,2,3,3,3,-12.39,-0.65,5.65,13.27,-5.54,-9.029999999999999
19.02525210380554,2,3,3,3,-16.88,1.65,2.74,15.14,-3.73,-7.62
19.0352520942688,2,3,3,3,-18.7,2.53,1.57,13.71,-0.8100000000000001,-4.03
19.04525208473206,2,3,3,3,-19.11,3.08,1.01,7.16,2.05,0.4
19.05525207519531,2,3,3,3,-16.94,2.57,1.47,-0.51,-1.19,3.93
19.06525206565857,2,3,3,3,-9.19,3.24,4.76,-4.73,-8.33,5.14
19.07525205612183,2,3,3,3,-6.69,2.82,5.76,-6.35,-11.88,4.58
19.08525204658508,2,3,3,3,-5.56,2.01,6.16,-6.06,-9.51,2.65
19.09525203704834,2,3,3,3,-5.23,0.89,5.71,-4.16,-5.19,0.19
19.1052520275116,2,3,3,3,-7.3,0.32,4.78,-0.96,-0.82,-1.87
19.11625194549561,2,3,3,3,-8.43,0.33,3.36,2.67,1.85,-2.44
19.12625193595886,2,3,3,3,-9.19,0.23,1.58,5.51,4.38,-1.55
19.1362521648407,2,3,3,3,-10.57,1.15,-0.8100000000000001,6.66,7.15,0.19
19.14625215530396,2,3,3,3,-10.78,2.15,-1.34,6.73,8.52,2.88
19.15625214576721,2,3,3,3,-10.21,3.08,-1.17,7.19,7.02,5.33
19.16625213623047,2,3,3,3,-9.550000000000001,3.99,-0.44,7.22,4.12,6.85
19.17625212669373,2,3,3,3,-8.32,4.65,0.53,6.45,1.28,7.05
19.18625211715698,2,3,3,3,-7.69,4.43,0.77,5.44,-0.55,6.06
19.19625210762024,2,3,3,3,-7.29,4.27,1.05,4.35,-0.95,4.58
19.2062520980835,2,3,3,3,-7.08,4.1,1.31,3.34,-0.88,3.14
19.21625208854675,2,3,3,3,-6.68,3.46,1.36,2.73,-0.63,2.01
19.22625207901001,2,3,3,3,-6.66,3.15,1.34,2.56,0.13,1.55
19.23625206947327,2,3,3,3,-6.75,2.99,1.38,2.73,1.51,1.08
19.24625205993652,2,3,3,3,-6.88,2.77,1.35,2.51,2.84,0.72
19.25625205039978,2,3,3,3,-7.21,3.05,1.16,2.3,3.87,0.55
19.26625204086304,2,3,3,3,-7.35,3.21,0.97,1.62,4.86,0.52
19.27625203132629,2,3,3,3,-7.72,3.34,0.84,0.36,5.47,0.78
19.28625202178955,2,3,3,3,-8.07,3.37,0.89,-1.01,5.93,1.13
19.29625201225281,2,3,3,3,-8.859999999999999,3.27,0.96,-2.24,6.18,1.48
19.30625200271606,2,3,3,3,-9.1,3.04,0.89,-3.39,6.41,1.75
19.31625199317932,2,3,3,3,-9.24,2.8,0.9,-4.3,6.84,2.13
19.32625198364258,2,3,3,3,-9.07,2.95,0.6899999999999999,-5.15,6.93,2.47
19.33625197410583,2,3,3,3,-8.710000000000001,1.78,0.9,-6.17,6.44,2.2
19.34625196456909,2,3,3,3,-8.65,1.88,1.28,-6.89,6.23,2.68
19.35625195503235,2,3,3,3,-8.869999999999999,2.12,1.32,-6.37,7.14,3.37
19.36625194549561,2,3,3,3,-9.050000000000001,1.96,1.17,-6.35,6.63,3.53
19.37625193595886,2,3,3,3,-9.32,1.83,1.32,-6.25,5.8,3.03
19.3862521648407,2,3,3,3,-9.32,1.23,1.39,-6.61,5.1,2.02
19.39625215530396,2,3,3,3,-9.550000000000001,1.25,1.5,-6.09,4.48,1.79
19.40625214576721,2,3,3,3,-10.22,0.99,1.21,-5.02,4.06,1.77
