timestamp,magCalib,accCalib,gyrCalib,sysCalib,accX,accY,accZ,gyrX,gyrY,gyrZ
-0.0007479190826416016,3,3,3,2,-9.66,-1.7,0.15,0.43,-0.19,1.06
0.009252071380615234,3,3,3,2,-9.699999999999999,-1.75,0.18,0.42,-0.17,1.16
0.01925206184387207,3,3,3,2,-9.630000000000001,-1.74,0.09,0.49,-0.18,1.14
0.02925205230712891,3,3,3,2,-9.609999999999999,-1.63,0.02,0.53,-0.24,1.09
0.03925204277038574,3,3,3,2,-9.59,-1.58,0.06,0.46,-0.26,1.09
0.04925203323364258,3,3,3,2,-9.640000000000001,-1.56,0.09,0.31,-0.31,1.18
0.05925202369689941,3,3,3,2,-9.73,-1.6,0.15,0.16,-0.27,1.23
0.06925201416015625,3,3,3,2,-9.699999999999999,-1.65,0.11,0.05,-0.3,1.28
0.07925200462341309,3,3,3,2,-9.68,-1.72,0.01,0.01,-0.24,1.38
0.08925199508666992,3,3,3,2,-9.69,-1.87,0.04,-0.02,-0.19,1.44
0.09925198554992676,3,3,3,2,-9.73,-1.86,0.09,0.11,-0.23,1.47
0.1092519760131836,3,3,3,2,-9.699999999999999,-1.79,0.04,0.23,-0.25,1.5
0.1192519664764404,3,3,3,2,-9.699999999999999,-1.71,0.08,0.27,-0.22,1.48
0.1292519569396973,3,3,3,2,-9.699999999999999,-1.67,0.04,0.22,-0.22,1.45
0.1392519474029541,3,3,3,2,-9.779999999999999,-1.65,0.1,0.33,-0.23,1.37
0.1492519378662109,3,3,3,2,-9.800000000000001,-1.57,0.1,0.48,-0.25,1.36
0.1592519283294678,3,3,3,2,-9.77,-1.4,0.18,0.68,-0.32,1.32
0.1692521572113037,3,3,3,2,-9.76,-1.32,0.24,0.8,-0.33,1.28
0.1792521476745605,3,3,3,2,-9.710000000000001,-1.05,0.12,0.8,-0.36,1.24
0.1892521381378174,3,3,3,2,-9.68,-1,0.22,0.72,-0.38,1.25
0.1992521286010742,3,3,3,2,-9.73,-0.95,0.26,0.59,-0.33,1.31
0.2092521190643311,3,3,3,2,-9.779999999999999,-0.93,0.3,0.49,-0.31,1.32
0.2192521095275879,3,3,3,2,-9.789999999999999,-0.77,0.39,0.44,-0.3,1.31
0.2292520999908447,3,3,3,2,-9.77,-0.77,0.33,0.3,-0.26,1.32
0.2392520904541016,3,3,3,2,-9.74,-0.74,0.35,0.23,-0.26,1.29
0.2492520809173584,3,3,3,2,-9.75,-0.7,0.41,0.22,-0.25,1.22
0.2592520713806152,3,3,3,2,-9.800000000000001,-0.74,0.39,0.16,-0.19,1.18
0.2692520618438721,3,3,3,2,-9.800000000000001,-0.63,0.35,0.23,-0.19,1.08
0.2792520523071289,3,3,3,2,-9.800000000000001,-0.6,0.28,0.2,-0.23,1.03
0.2892520427703857,3,3,3,2,-9.789999999999999,-0.52,0.25,0.13,-0.27,0.96
0.2992520332336426,3,3,3,2,-9.76,-0.5,0.36,0.07000000000000001,-0.24,0.9
0.3092520236968994,3,3,3,2,-9.779999999999999,-0.46,0.37,0.03,-0.2,0.8
0.3192520141601562,3,3,3,2,-9.77,-0.51,0.41,-0.01,-0.2,0.78
0.3292520046234131,3,3,3,2,-9.84,-0.51,0.26,-0.01,-0.21,0.74
0.3392519950866699,3,3,3,2,-9.84,-0.5,0.3,0,-0.19,0.73
0.3492519855499268,3,3,3,2,-9.800000000000001,-0.54,0.32,0.04,-0.17,0.6899999999999999
0.3592519760131836,3,3,3,2,-9.81,-0.51,0.36,0.06,-0.19,0.67
0.3692519664764404,3,3,3,2,-9.800000000000001,-0.55,0.24,0.03,-0.18,0.62
0.3792519569396973,3,3,3,2,-9.82,-0.61,0.18,-0.08,-0.15,0.58
0.3892519474029541,3,3,3,2,-9.81,-0.6,0.26,-0.2,-0.13,0.52
0.3992519378662109,3,3,3,2,-9.82,-0.6899999999999999,0.31,-0.33,-0.08,0.49
0.4092519283294678,3,3,3,2,-9.800000000000001,-0.75,0.4,-0.39,-0.07000000000000001,0.4
0.4192521572113037,3,3,3,2,-9.81,-0.8100000000000001,0.33,-0.55,-0.04,0.35
0.4292521476745605,3,3,3,2,-9.77,-0.8100000000000001,0.24,-0.6,-0.07000000000000001,0.28
0.4392521381378174,3,3,3,2,-9.77,-0.8,0.26,-0.57,-0.05,0.22
0.4492521286010742,3,3,3,2,-9.81,-0.8,0.31,-0.54,-0.05,0.11
0.4592521190643311,3,3,3,2,-9.83,-0.8100000000000001,0.26,-0.57,-0.08,0.08
0.4692521095275879,3,3,3,2,-9.779999999999999,-0.83,0.25,-0.57,-0.02,0.02
0.4792520999908447,3,3,3,2,-9.75,-0.76,0.18,-0.5600000000000001,-0.02,0
0.4892520904541016,3,3,3,2,-9.800000000000001,-0.9,0.18,-0.54,0.03,0.02
0.4992520809173584,3,3,3,2,-9.800000000000001,-0.86,0.21,-0.41,0.03,-0.07000000000000001
0.5092520713806152,3,3,3,2,-9.800000000000001,-0.85,0.28,-0.31,0.06,-0.11
0.5192520618438721,3,3,3,2,-9.81,-0.88,0.33,-0.25,0.07000000000000001,-0.12
0.5292520523071289,3,3,3,2,-9.76,-0.87,0.16,-0.19,0.08,-0.13
0.5392520427703857,3,3,3,2,-9.76,-0.86,0.25,-0.15,0.05,-0.15
0.5492520332336426,3,3,3,2,-9.81,-0.82,0.27,-0.2,0.07000000000000001,-0.18
0.5592520236968994,3,3,3,2,-9.789999999999999,-0.88,0.32,-0.29,0.11,-0.21
0.5692520141601562,3,3,3,2,-9.83,-0.87,0.22,-0.43,0.09,-0.17
0.5792520046234131,3,3,3,2,-9.76,-0.98,0.17,-0.51,0.12,-0.19
0.5892519950866699,3,3,3,2,-9.77,-1.03,0.15,-0.46,0.11,-0.24
0.5992519855499268,3,3,3,2,-9.75,-1.07,0.17,-0.39,0.1,-0.27
0.6092519760131836,3,3,3,3,-9.77,-1.06,0.26,-0.38,0.1,-0.32
0.6192519664764404,3,3,3,3,-9.77,-1.08,0.2,-0.32,0.1,-0.32
0.6292519569396973,3,3,3,3,-9.779999999999999,-1.08,0.14,-0.31,0.03,-0.37
0.6392519474029541,3,3,3,3,-9.75,-1.03,0.18,-0.27,0.09,-0.39
0.6492519378662109,3,3,3,3,-9.77,-1.07,0.21,-0.32,0.08,-0.43
0.6592519283294678,3,3,3,3,-9.800000000000001,-1,0.23,-0.3,0.02,-0.44
0.6692521572113037,3,3,3,3,-9.789999999999999,-1.01,0.25,-0.38,0.05,-0.42
0.6792521476745605,3,3,3,3,-9.76,-0.98,0.12,-0.42,0.03,-0.39
0.6892521381378174,3,3,3,3,-9.789999999999999,-1.07,0.15,-0.48,0.06,-0.37
0.6992521286010742,3,3,3,3,-9.77,-1.09,0.19,-0.49,0.06,-0.34
0.7092521190643311,3,3,3,3,-9.75,-1.1,0.24,-0.49,0.08,-0.36
0.7192521095275879,3,3,3,3,-9.779999999999999,-1.1,0.23,-0.52,0.08,-0.35
0.7292520999908447,3,3,3,3,-9.75,-1.1,0.08,-0.47,0.04,-0.29
0.7392520904541016,3,3,3,3,-9.789999999999999,-1.09,0.11,-0.47,0.06,-0.3
0.7492520809173584,3,3,3,3,-9.800000000000001,-1.14,0.15,-0.49,0.05,-0.3
0.7592520713806152,3,3,3,3,-9.74,-1.13,0.21,-0.42,0.06,-0.3
0.7692520618438721,3,3,3,3,-9.779999999999999,-1.13,0.16,-0.46,0.06,-0.27
0.7802519798278809,3,3,3,3,-9.779999999999999,-1.17,0.08,-0.45,0.05,-0.3
0.7902519702911377,3,3,3,3,-9.76,-1.19,0.12,-0.37,0.03,-0.27
0.8002519607543945,3,3,3,3,-9.779999999999999,-1.18,0.18,-0.35,0.05,-0.29
0.8102519512176514,3,3,3,3,-9.779999999999999,-1.19,0.17,-0.35,0.01,-0.26
0.8202519416809082,3,3,3,3,-9.76,-1.2,0.2,-0.35,0.01,-0.26
0.830251932144165,3,3,3,3,-9.74,-1.16,0.11,-0.27,0,-0.25
0.840252161026001,3,3,3,3,-9.75,-1.19,0.16,-0.18,0.01,-0.22
0.8502521514892578,3,3,3,3,-9.73,-1.22,0.16,-0.13,0.02,-0.22
0.8602521419525146,3,3,3,3,-9.76,-1.16,0.17,-0.1,0.04,-0.22
0.8702521324157715,3,3,3,3,-9.800000000000001,-1.19,0.22,-0.1,0.04,-0.22
0.8802521228790283,3,3,3,3,-9.74,-1.18,0.06,-0.08,0.03,-0.21
0.8902521133422852,3,3,3,3,-9.74,-1.14,0.13,-0.08,0.03,-0.21
0.900252103805542,3,3,3,3,-9.74,-1.11,0.18,-0.03,0,-0.18
0.9102520942687988,3,3,3,3,-9.779999999999999,-1.12,0.22,-0.05,0.02,-0.2
0.9202520847320557,3,3,3,3,-9.74,-1.14,0.2,-0.05,0.02,-0.2
0.9302520751953125,3,3,3,3,-9.75,-1.12,0.16,-0.06,-0.01,-0.18
0.9402520656585693,3,3,3,3,-9.76,-1.14,0.16,-0.04,0.03,-0.17
0.9502520561218262,3,3,3,3,-9.800000000000001,-1.19,0.18,-0.07000000000000001,0.07000000000000001,-0.15
0.960252046585083,3,3,3,3,-9.73,-1.25,0.23,-0.07000000000000001,0.06,-0.12
0.9702520370483398,3,3,3,3,-9.74,-1.2,0.19,-0.04,0.05,-0.12
0.9802520275115967,3,3,3,3,-9.76,-1.18,0.12,0.04,0.05,-0.12
0.9902520179748535,3,3,3,3,-9.75,-1.18,0.12,0.11,0.06,-0.13
1.00025200843811,3,3,3,3,-9.76,-1.22,0.23,0.15,0.05,-0.09
1.010251998901367,3,3,3,3,-9.800000000000001,-1.25,0.25,0.16,0.08,-0.09
1.020251989364624,3,3,3,3,-9.77,-1.29,0.24,0.16,0.02,-0.06
1.030251979827881,3,3,3,3,-9.75,-1.27,0.14,0.2,0.04,-0.1
1.040251970291138,3,3,3,3,-9.74,-1.25,0.18,0.25,0.04,-0.1
1.050251960754395,3,3,3,3,-9.710000000000001,-1.22,0.19,0.28,0.02,-0.11
1.060251951217651,3,3,3,3,-9.74,-1.22,0.26,0.34,0.04,-0.1
1.070251941680908,3,3,3,3,-9.74,-1.2,0.23,0.33,0.04,-0.11
1.080251932144165,3,3,3,3,-9.76,-1.17,0.14,0.35,0.04,-0.1
1.090252161026001,3,3,3,3,-9.76,-1.13,0.19,0.37,0.04,-0.11
1.100252151489258,3,3,3,3,-9.74,-1.12,0.2,0.39,0.05,-0.09
1.110252141952515,3,3,3,3,-9.76,-1.17,0.27,0.4,0.08,-0.07000000000000001
1.120252132415771,3,3,3,3,-9.75,-1.18,0.21,0.35,0.09,-0.06
1.130252122879028,3,3,3,3,-9.73,-1.19,0.17,0.35,0.06,-0.03
1.140252113342285,3,3,3,3,-9.779999999999999,-1.18,0.17,0.34,0.07000000000000001,-0.01
1.150252103805542,3,3,3,3,-9.75,-1.19,0.24,0.3,0.05,-0.03
1.160252094268799,3,3,3,3,-9.76,-1.18,0.22,0.35,0.07000000000000001,-0.03
1.170252084732056,3,3,3,3,-9.789999999999999,-1.22,0.26,0.31,0.06,-0.04
1.180252075195312,3,3,3,3,-9.76,-1.23,0.14,0.34,0.09,-0.03
1.190252065658569,3,3,3,3,-9.74,-1.13,0.2,0.39,0.08,-0.02
1.200252056121826,3,3,3,3,-9.75,-1.16,0.23,0.47,0.06,-0.03
1.210252046585083,3,3,3,3,-9.73,-1.2,0.24,0.47,0.1,-0.02
1.22025203704834,3,3,3,3,-9.73,-1.16,0.25,0.46,0.12,0
1.230252027511597,3,3,3,3,-9.76,-1.11,0.11,0.42,0.09,0
1.240252017974854,3,3,3,3,-9.75,-1.2,0.22,0.43,0.08,-0.01
1.25025200843811,3,3,3,3,-9.75,-1.18,0.24,0.41,0.12,0
1.260251998901367,3,3,3,3,-9.75,-1.26,0.21,0.33,0.16,-0.01
1.270251989364624,3,3,3,3,-9.74,-1.2,0.21,0.27,0.11,-0.02
1.280251979827881,3,3,3,3,-9.75,-1.19,0.13,0.32,0.14,-0.06
1.290251970291138,3,3,3,3,-9.789999999999999,-1.13,0.15,0.29,0.11,-0.09
1.300251960754395,3,3,3,3,-9.76,-1.16,0.18,0.29,0.15,-0.11
1.310251951217651,3,3,3,3,-9.710000000000001,-1.22,0.21,0.29,0.12,-0.11
1.320251941680908,3,3,3,3,-9.76,-1.15,0.26,0.25,0.12,-0.11
1.330251932144165,3,3,3,3,-9.77,-1.16,0.14,0.27,0.13,-0.17
1.340252161026001,3,3,3,3,-9.75,-1.2,0.19,0.21,0.1,-0.15
1.350252151489258,3,3,3,3,-9.74,-1.23,0.21,0.17,0.1,-0.17
1.360252141952515,3,3,3,3,-9.77,-1.17,0.21,0.22,0.16,-0.15
1.370252132415771,3,3,3,3,-9.779999999999999,-1.18,0.18,0.26,0.14,-0.19
1.380252122879028,3,3,3,3,-9.75,-1.14,0.11,0.24,0.12,-0.18
1.390252113342285,3,3,3,3,-9.77,-1.04,0.21,0.27,0.11,-0.18
1.400252103805542,3,3,3,3,-9.77,-1.08,0.25,0.28,0.13,-0.17
1.410252094268799,3,3,3,3,-9.77,-1.1,0.26,0.24,0.12,-0.2
1.420252084732056,3,3,3,3,-9.75,-1.04,0.25,0.22,0.12,-0.19
1.430252075195312,3,3,3,3,-9.75,-1.23,0.17,0.2,0.16,-0.22
1.440252065658569,3,3,3,3,-9.76,-1.18,0.13,0.16,0.19,-0.22
1.450252056121826,3,3,3,3,-9.73,-1.15,0.18,0.19,0.18,-0.23
1.460252046585083,3,3,3,3,-9.74,-1.22,0.18,0.1,0.14,-0.22
1.47025203704834,3,3,3,3,-9.73,-1.22,0.17,0.09,0.12,-0.23
1.480252027511597,3,3,3,3,-9.76,-1.25,0.12,0.06,0.13,-0.26
1.490252017974854,3,3,3,3,-9.74,-1.29,0.16,0.07000000000000001,0.13,-0.29
1.50025200843811,3,3,3,3,-9.74,-1.31,0.19,0.02,0.13,-0.28
1.510251998901367,3,3,3,3,-9.76,-1.3,0.22,0,0.14,-0.27
1.520251989364624,3,3,3,3,-9.73,-1.34,0.2,0.01,0.13,-0.27
1.530251979827881,3,3,3,3,-9.74,-1.31,0.1,0,0.11,-0.26
1.540251970291138,3,3,3,3,-9.73,-1.29,0.1,-0.01,0.14,-0.25
1.550251960754395,3,3,3,3,-9.75,-1.31,0.18,0.02,0.12,-0.26
1.560251951217651,3,3,3,3,-9.710000000000001,-1.31,0.2,0.02,0.12,-0.27
1.570251941680908,3,3,3,3,-9.73,-1.28,0.2,0.01,0.13,-0.3
1.580251932144165,3,3,3,3,-9.74,-1.27,0.12,0.04,0.13,-0.28
1.590252161026001,3,3,3,3,-9.74,-1.22,0.16,0,0.13,-0.27
1.600252151489258,3,3,3,3,-9.699999999999999,-1.23,0.23,-0.01,0.14,-0.25
1.610252141952515,3,3,3,3,-9.73,-1.18,0.24,0.03,0.14,-0.24
1.620252132415771,3,3,3,3,-9.73,-1.13,0.12,-0.01,0.15,-0.25
1.630252122879028,3,3,3,3,-9.75,-1.13,0.08,0.06,0.14,-0.25
1.640252113342285,3,3,3,3,-9.76,-1.16,0.12,0.02,0.14,-0.21
1.650252103805542,3,3,3,3,-9.77,-1.18,0.12,0.03,0.15,-0.22
1.660252094268799,3,3,3,3,-9.76,-1.31,0.19,0.03,0.13,-0.19
1.670252084732056,3,3,3,3,-9.67,-1.29,0.14,0.04,0.12,-0.19
1.680252075195312,3,3,3,3,-9.73,-1.34,0.05,0.16,0.14,-0.18
1.690252065658569,3,3,3,3,-9.720000000000001,-1.37,0.1,0.11,0.17,-0.18
1.700252056121826,3,3,3,3,-9.73,-1.39,0.12,0.12,0.15,-0.17
1.710252046585083,3,3,3,3,-9.720000000000001,-1.41,0.15,0.01,0.11,-0.22
1.72025203704834,3,3,3,3,-9.74,-1.45,0.13,-0.03,0.14,-0.24
1.730252027511597,3,3,3,3,-9.73,-1.43,0.04,-0.09,0.15,-0.21
1.740252017974854,3,3,3,3,-9.73,-1.41,0.06,-0.15,0.12,-0.23
1.75025200843811,3,3,3,3,-9.720000000000001,-1.39,0.13,-0.19,0.11,-0.28
1.760251998901367,3,3,3,3,-9.75,-1.34,0.13,-0.15,0.09,-0.29
1.770251989364624,3,3,3,3,-9.73,-1.3,0.15,-0.13,0.09,-0.31
1.780251979827881,3,3,3,3,-9.74,-1.27,0.05,-0.15,0.12,-0.32
1.790251970291138,3,3,3,3,-9.74,-1.22,0.12,-0.22,0.11,-0.29
1.801252126693726,3,3,3,3,-9.73,-1.23,0.2,-0.2,0.13,-0.3
1.811252117156982,3,3,3,3,-9.75,-1.25,0.19,-0.33,0.1,-0.27
1.821252107620239,3,3,3,3,-9.73,-1.35,0.15,-0.41,0.12,-0.29
1.841252088546753,3,3,3,3,-9.710000000000001,-1.28,0.14,-0.41,0.08,-0.3
1.85125207901001,3,3,3,3,-9.720000000000001,-1.31,0.12,-0.41,0.11,-0.28
1.861252069473267,3,3,3,3,-9.720000000000001,-1.28,0.14,-0.44,0.11,-0.25
1.871252059936523,3,3,3,3,-9.720000000000001,-1.34,0.13,-0.46,0.08,-0.31
1.88125205039978,3,3,3,3,-9.73,-1.28,0.03,-0.54,0.07000000000000001,-0.32
1.891252040863037,3,3,3,3,-9.77,-1.3,0.06,-0.55,0.06,-0.33
1.901252031326294,3,3,3,3,-9.710000000000001,-1.36,0.2,-0.58,0.05,-0.32
1.911252021789551,3,3,3,3,-9.73,-1.32,0.2,-0.63,0.06,-0.31
1.921252012252808,3,3,3,3,-9.73,-1.28,0.2,-0.64,0.06,-0.35
1.931252002716064,3,3,3,3,-9.74,-1.19,0.1,-0.73,-0.03,-0.37
1.941251993179321,3,3,3,3,-9.73,-1.2,0.1,-0.9399999999999999,-0.02,-0.38
1.951251983642578,3,3,3,3,-9.710000000000001,-1.2,0.11,-1.09,-0.02,-0.39
1.961251974105835,3,3,3,3,-9.73,-1.21,0.18,-1.26,0.01,-0.37
1.971251964569092,3,3,3,3,-9.710000000000001,-1.24,0.13,-1.41,0.04,-0.34
1.981251955032349,3,3,3,3,-9.73,-1.37,0,-1.48,0.05,-0.29
1.991251945495605,3,3,3,3,-9.75,-1.34,0.01,-1.4,0.05,-0.28
2.001251935958862,3,3,3,3,-9.800000000000001,-1.42,0.11,-1.32,0.09,-0.31
2.011252164840698,3,3,3,3,-9.77,-1.48,0.21,-1.27,0.02,-0.34
2.021252155303955,3,3,3,3,-9.74,-1.43,0.22,-1.2,-0.01,-0.4
2.031252145767212,3,3,3,3,-9.69,-1.4,0.1,-1.17,-0.04,-0.46
2.041252136230469,3,3,3,3,-9.699999999999999,-1.38,0.1,-1.31,-0.08,-0.49
2.051252126693726,3,3,3,3,-9.710000000000001,-1.45,0.12,-1.44,-0.08,-0.47
2.061252117156982,3,3,3,3,-9.69,-1.36,0.08,-1.61,-0.05,-0.48
2.071252107620239,3,3,3,3,-9.73,-1.39,0.06,-1.52,-0.07000000000000001,-0.53
2.081252098083496,3,3,3,3,-9.75,-1.35,0,-1.49,0,-0.55
2.091252088546753,3,3,3,3,-9.789999999999999,-1.18,0,-1.34,0,-0.57
2.10125207901001,3,3,3,3,-9.859999999999999,-1.16,0.04,-1.21,-0.04,-0.57
2.111252069473267,3,3,3,3,-9.76,-1.28,0.17,-1.26,0.05,-0.46
2.121252059936523,3,3,3,3,-9.640000000000001,-1.11,0.14,-1.19,0.03,-0.43
2.13125205039978,3,3,3,3,-9.74,-1.2,0,-1.34,0.03,-0.45
2.141252040863037,3,3,3,3,-9.74,-1.37,0.05,-1.45,0.1,-0.4
2.151252031326294,3,3,3,3,-9.69,-1.59,0.05,-1.44,0.17,-0.3
2.161252021789551,3,3,3,3,-9.67,-1.66,0.01,-1.1,0.28,-0.3
2.171252012252808,3,3,3,3,-9.73,-1.86,-0.02,-0.75,0.33,-0.3
2.181252002716064,3,3,3,3,-9.66,-1.77,-0.16,-0.38,0.28,-0.27
2.191251993179321,3,3,3,3,-9.68,-1.7,-0.06,-0.05,0.34,-0.28
2.201251983642578,3,3,3,3,-9.65,-1.66,-0.01,0.06,0.33,-0.27
2.211251974105835,3,3,3,3,-9.65,-1.67,0.12,0.03,0.33,-0.22
2.221251964569092,3,3,3,3,-9.69,-1.61,0.12,0.11,0.2,-0.19
2.231251955032349,3,3,3,3,-9.68,-1.52,0,-0.03,0.15,-0.23
2.241251945495605,3,3,3,3,-9.720000000000001,-1.36,0.01,-0.1,0.17,-0.21
2.251251935958862,3,3,3,3,-9.710000000000001,-1.38,0.04,-0.2,0.15,-0.19
2.261252164840698,3,3,3,3,-9.73,-1.4,0,-0.28,0.16,-0.11
2.271252155303955,3,3,3,3,-9.710000000000001,-1.45,0.02,-0.34,0.21,-0.02
2.281252145767212,3,3,3,3,-9.65,-1.46,-0.12,-0.32,0.25,0.07000000000000001
2.291252136230469,3,3,3,3,-9.65,-1.67,-0.11,-0.2,0.27,0.08
2.301252126693726,3,3,3,3,-9.69,-1.68,-0.06,-0.04,0.3,0.08
2.311252117156982,3,3,3,3,-9.68,-1.67,0,0.1,0.3,0.05
2.321252107620239,3,3,3,3,-9.68,-1.69,0,0.15,0.21,0.01
2.331252098083496,3,3,3,3,-9.699999999999999,-1.88,-0.03,0.1,0.22,-0.03
2.341252088546753,3,3,3,3,-9.710000000000001,-1.81,-0.07000000000000001,0.08,0.23,-0.08
2.35125207901001,3,3,3,3,-9.69,-1.72,-0.07000000000000001,0.1,0.13,-0.1
2.361252069473267,3,3,3,3,-9.710000000000001,-1.86,-0.02,0.08,0.13,-0.12
2.371252059936523,3,3,3,3,-9.699999999999999,-1.62,-0.12,0.2,0.08,-0.17
2.38125205039978,3,3,3,3,-9.68,-1.56,-0.11,0.22,0.06,-0.22
2.391252040863037,3,3,3,3,-9.67,-1.5,-0.09,0.17,0.08,-0.21
2.401252031326294,3,3,3,3,-9.69,-1.47,-0.06,0.03,0.08,-0.23
2.411252021789551,3,3,3,3,-9.710000000000001,-1.51,0,-0.11,0.1,-0.19
2.421252012252808,3,3,3,3,-9.74,-1.51,0,-0.18,0.11,-0.16
2.431252002716064,3,3,3,3,-9.720000000000001,-1.52,-0.06,-0.22,0.09,-0.13
2.441251993179321,3,3,3,3,-9.710000000000001,-1.6,-0.01,-0.19,0.1,-0.1
2.451251983642578,3,3,3,3,-9.710000000000001,-1.63,0.02,-0.14,0.08,-0.12
2.461251974105835,3,3,3,3,-9.69,-1.67,0.05,-0.05,0.09,-0.09
2.471251964569092,3,3,3,3,-9.66,-1.54,-0.01,0.01,0.03,-0.09
2.481251955032349,3,3,3,3,-9.68,-1.65,-0.14,-0.06,-0.01,-0.07000000000000001
2.491251945495605,3,3,3,3,-9.710000000000001,-1.66,-0.12,-0.05,0.06,-0.06
2.501251935958862,3,3,3,3,-9.69,-1.67,-0.08,0.01,0.06,-0.06
2.511252164840698,3,3,3,3,-9.68,-1.68,-0.07000000000000001,0.12,0.02,-0.06
2.521252155303955,3,3,3,3,-9.69,-1.68,-0.11,0.27,0.08,-0.13
2.531252145767212,3,3,3,3,-9.76,-1.64,-0.15,0.48,0.07000000000000001,-0.18
2.541252136230469,3,3,3,3,-9.74,-1.64,-0.04,0.6,0.1,-0.21
2.551252126693726,3,3,3,3,-9.73,-1.56,-0.01,0.73,0.1,-0.18
2.561252117156982,3,3,3,3,-9.69,-1.54,0.06,0.86,0.16,-0.16
2.571252107620239,3,3,3,3,-9.67,-1.46,0.02,0.9399999999999999,0.19,-0.17
2.581252098083496,3,3,3,3,-9.69,-1.45,-0.04,1.01,0.22,-0.18
2.591252088546753,3,3,3,3,-9.699999999999999,-1.45,0,1.05,0.17,-0.18
2.60125207901001,3,3,3,3,-9.73,-1.29,0.08,1.04,0.16,-0.21
2.611252069473267,3,3,3,3,-9.699999999999999,-1.32,0.12,0.95,0.09,-0.22
2.621252059936523,3,3,3,3,-9.74,-1.37,0.1,0.7,0.06,-0.23
2.63125205039978,3,3,3,3,-9.68,-1.3,0,0.48,0.05,-0.24
2.641252040863037,3,3,3,3,-9.73,-1.42,0.04,0.29,0.1,-0.26
2.651252031326294,3,3,3,3,-9.69,-1.5,0.01,0,0.09,-0.24
2.661252021789551,3,3,3,3,-9.699999999999999,-1.49,0.01,-0.13,0.07000000000000001,-0.26
2.671252012252808,3,3,3,3,-9.73,-1.53,0.01,-0.15,0.1,-0.27
2.681252002716064,3,3,3,3,-9.69,-1.63,-0.13,-0.17,0.11,-0.26
2.691251993179321,3,3,3,3,-9.710000000000001,-1.65,-0.02,-0.09,0.11,-0.3
2.701251983642578,3,3,3,3,-9.710000000000001,-1.69,0.03,-0.06,0.08,-0.28
2.711251974105835,3,3,3,3,-9.68,-1.66,0.06,-0.01,0.04,-0.35
2.721251964569092,3,3,3,3,-9.69,-1.54,0.04,-0.02,0.02,-0.37
2.731251955032349,3,3,3,3,-9.69,-1.58,0,-0.05,-0.03,-0.38
2.741251945495605,3,3,3,3,-9.68,-1.54,-0.01,-0.22,-0.01,-0.39
2.751251935958862,3,3,3,3,-9.720000000000001,-1.57,0.05,-0.22,-0.01,-0.39
2.761252164840698,3,3,3,3,-9.68,-1.63,-0.01,-0.31,0,-0.36
2.772252082824707,3,3,3,3,-9.65,-1.63,-0.03,-0.32,-0.01,-0.34
2.781252145767212,3,3,3,3,-9.67,-1.66,-0.1,-0.24,0.05,-0.33
2.791252136230469,3,3,3,3,-9.69,-1.67,-0.08,-0.16,0.06,-0.33
2.802252054214478,3,3,3,3,-9.68,-1.58,0.01,-0.05,0.03,-0.36
2.811252117156982,3,3,3,3,-9.69,-1.56,0.07000000000000001,-0.07000000000000001,0.02,-0.37
2.821252107620239,3,3,3,3,-9.699999999999999,-1.52,0.08,-0.08,0.02,-0.33
2.832252025604248,3,3,3,3,-9.69,-1.58,0,-0.22,0.07000000000000001,-0.26
2.842252016067505,3,3,3,3,-9.67,-1.69,0,-0.21,0.08,-0.28
2.852252006530762,3,3,3,3,-9.66,-1.71,0.02,-0.21,0.08,-0.28
2.862251996994019,3,3,3,3,-9.66,-1.73,0,-0.12,0.04,-0.26
2.872251987457275,3,3,3,3,-9.66,-1.67,-0.11,-0.02,0.02,-0.26
2.892251968383789,3,3,3,3,-9.73,-1.61,-0.06,-0.03,0.03,-0.27
2.902251958847046,3,3,3,3,-9.66,-1.64,-0.01,-0.03,0.03,-0.27
2.912251949310303,3,3,3,3,-9.68,-1.62,0.01,-0.03,0.09,-0.27
2.92225193977356,3,3,3,3,-9.65,-1.72,-0.01,-0.08,0.13,-0.15
2.932251930236816,3,3,3,3,-9.66,-1.71,-0.08,0.01,0.1,-0.16
2.942252159118652,3,3,3,3,-9.65,-1.59,-0.06,0.08,0.12,-0.14
2.952252149581909,3,3,3,3,-9.68,-1.62,0.02,0.08,0.12,-0.14
2.962252140045166,3,3,3,3,-9.68,-1.59,0.01,0.15,0.09,-0.07000000000000001
2.972252130508423,3,3,3,3,-9.699999999999999,-1.68,0.06,0.09,0.05,-0.03
2.98225212097168,3,3,3,3,-9.68,-1.59,-0.05,-0.04,0.06,0
2.992252111434937,3,3,3,3,-9.67,-1.62,0,-0.13,0.03,0.04
3.002252101898193,3,3,3,3,-9.66,-1.67,0,-0.13,0.03,0.04
3.01225209236145,3,3,3,3,-9.66,-1.56,-0.03,-0.26,0.03,0.1
3.022252082824707,3,3,3,3,-9.68,-1.54,0.01,-0.36,0.06,0.17
3.032252073287964,3,3,3,3,-9.619999999999999,-1.35,-0.12,-0.33,0.13,0.25
3.042252063751221,3,3,3,3,-9.619999999999999,-1.3,-0.04,-0.32,0.2,0.4
3.052252054214478,3,3,3,3,-9.65,-1.15,0,-0.32,0.2,0.4
3.072252035140991,3,3,3,3,-9.77,-1.13,0.02,-0.03,0.29,0.76
3.082252025604248,3,3,3,3,-9.82,-1.17,-0.04,0.25,0.33,0.8100000000000001
3.092252016067505,3,3,3,3,-9.81,-1.02,0,0.32,0.34,0.93
3.102252006530762,3,3,3,3,-9.73,-1.1,0.01,0.32,0.34,0.93
3.112251996994019,3,3,3,3,-9.619999999999999,-1.22,-0.05,0.42,0.42,1.07
3.122251987457275,3,3,3,3,-9.630000000000001,-1.18,-0.03,0.65,0.53,1.19
3.132251977920532,3,3,3,3,-9.640000000000001,-1.08,-0.17,1.16,0.52,1.32
3.142251968383789,3,3,3,3,-9.68,-1,-0.09,1.38,0.36,1.39
3.152251958847046,3,3,3,3,-9.66,-0.93,0.13,1.38,0.36,1.39
3.162251949310303,3,3,3,3,-9.73,-0.78,0.14,1.43,0.32,1.34
3.17225193977356,3,3,3,3,-9.69,-0.58,0.18,1.39,0.4,1.53
3.182251930236816,3,3,3,3,-9.66,-0.37,0.03,1.17,0.54,1.8
3.192252159118652,3,3,3,3,-9.630000000000001,-0.28,0.01,1.36,0.66,2.08
3.202252149581909,3,3,3,3,-9.6,0,0.01,1.36,0.66,2.08
3.212252140045166,3,3,3,3,-9.58,-0.04,0.15,1.24,0.73,2.47
3.222252130508423,3,3,3,3,-9.56,0.06,0.15,1.37,0.87,3.27
3.23225212097168,3,3,3,3,-9.449999999999999,0.3,0.21,1.39,0.99,3.79
3.252252101898193,3,3,3,3,-9.460000000000001,0.22,0.27,1.53,1.07,4.22
3.26225209236145,3,3,3,3,-9.42,0.04,0.58,1.79,0.91,4.62
3.272252082824707,3,3,3,3,-9.49,0.5,0.43,2.97,0.42,5.37
3.282252073287964,3,3,3,3,-9.49,0.99,0.48,3.08,0.29,5.87
3.292252063751221,3,3,3,3,-9.42,1.2,0.62,2.98,0.14,6.37
3.302252054214478,3,3,3,3,-9.06,1.95,0.48,2.98,0.14,6.37
3.312252044677734,3,3,3,3,-8.9,1.45,0.58,2.28,0.09,7.14
3.322252035140991,3,3,3,3,-8.859999999999999,1.23,0.36,0.67,0.05,8.49
3.332252025604248,3,3,3,3,-8.81,0.58,0.22,0.72,-0.06,8.49
3.342252016067505,3,3,3,3,-8.99,1.07,-0.22,1.81,-0.45,8.18
3.352252006530762,3,3,3,3,-9.16,1.76,0.09,1.81,-0.45,8.18
3.362251996994019,3,3,3,3,-9.1,2.24,0.52,2.54,-0.9,8.130000000000001
3.372251987457275,3,3,3,3,-8.91,2.94,0.65,3.25,-1.12,9.16
3.382251977920532,3,3,3,3,-8.380000000000001,1.25,0.55,1.79,-0.79,10
3.392251968383789,3,3,3,3,-8.24,-0.21,0.13,1.05,-0.2,10.34
3.402251958847046,3,3,3,3,-8.300000000000001,-0.26,-0.48,1.05,-0.2,10.34
3.412251949310303,3,3,3,3,-8.630000000000001,-0.32,-0.4,1.86,0.72,10.08
3.42225193977356,3,3,3,3,-9,-1.35,-1.51,4.3,0.11,9.460000000000001
3.432251930236816,3,3,3,3,-9,-0.82,-1.63,6.41,-0.68,9.19
3.442252159118652,3,3,3,3,-8.84,-0.18,-0.88,8.43,-0.41,9.06
3.452252149581909,3,3,3,3,-8.880000000000001,0.65,-0.34,8.43,-0.41,9.06
3.462252140045166,3,3,3,3,-8.92,0.32,-0.29,8.81,0.52,9.32
3.472252130508423,3,3,3,3,-8.699999999999999,0,-0.52,7.26,2.33,10.34
3.48225212097168,3,3,3,3,-8.720000000000001,-0.03,-0.57,6.63,2.75,10.44
3.492252111434937,3,3,3,3,-9.039999999999999,0.13,-0.63,5.86,2.58,10.39
3.502252101898193,3,3,3,3,-9.720000000000001,0.51,-0.57,5.86,2.58,10.39
3.51225209236145,3,3,3,3,-9.56,0.03,-0.39,4.46,2.1,10.17
3.522252082824707,3,3,3,3,-9.470000000000001,-0.27,-0.54,3.8,2.36,9.24
3.532252073287964,3,3,3,3,-9.800000000000001,0.12,-0.91,4.61,2.26,8.74
3.542252063751221,3,3,3,3,-10.37,0.9399999999999999,0.48,4.43,2.7,8.74
3.552252054214478,3,3,3,3,-10.42,1.22,0.41,4.43,2.7,8.74
3.562252044677734,3,3,3,3,-10.36,0.91,0.35,3.7,3.22,9.109999999999999
3.572252035140991,3,3,3,3,-9.960000000000001,0.46,0.13,2.68,3.53,9.449999999999999
3.582252025604248,3,3,3,3,-9.460000000000001,0.43,-0.32,2.68,3.03,9.06
3.592252016067505,3,3,3,3,-9.35,0.32,-0.45,3.46,2.59,8.199999999999999
3.602252006530762,3,3,3,3,-9.609999999999999,0.99,-0.75,3.46,2.59,8.199999999999999
3.612251996994019,3,3,3,3,-10.1,1.24,-0.51,3.61,2.45,7.19
3.622251987457275,3,3,3,3,-11.05,1.29,-1.16,2.85,2.21,5.68
3.632251977920532,3,3,3,3,-11.3,1.79,-1.31,2.17,2.45,5.52
3.642251968383789,3,3,3,3,-11.52,1.69,-1.25,0.87,2.4,5.72
3.652251958847046,3,3,3,3,-11.45,1.19,-1.22,0.87,2.4,5.72
3.662251949310303,3,3,3,3,-10.72,0.15,-1.47,0.15,2.31,5.97
3.67225193977356,3,3,3,3,-10.49,0.14,-1.77,0.09,2.17,5.44
3.682251930236816,3,3,3,3,-10.49,0.38,-1.65,0.02,1.91,4.6
3.692252159118652,3,3,3,3,-10.37,-0.03,-1.39,0.19,1.69,3.52
3.702252149581909,3,3,3,3,-10.44,0.24,-1.31,0.19,1.69,3.52
3.712252140045166,3,3,3,3,-10.72,0.57,-1.11,0.74,1.69,2.48
3.722252130508423,3,3,3,3,-11.01,0.98,-1.23,1.3,1.55,0.87
3.73225212097168,3,3,3,3,-11.47,2.05,-1.25,0.55,1.14,0.32
3.742252111434937,3,3,3,3,-11.57,1.93,-0.99,-0.65,0.77,-0.25
3.752252101898193,3,3,3,3,-11.47,1.58,-0.89,-0.65,0.77,-0.25
3.76225209236145,3,3,3,3,-11.28,1.18,-0.71,-1.98,0.52,-0.66
3.772252082824707,3,3,3,3,-11.05,-1.16,-0.63,-3.38,0.27,-1.79
3.782252073287964,3,3,3,3,-10.8,-1.71,-1.2,-3.29,0.16,-2.91
3.792252063751221,3,3,3,3,-12,-0.25,-1.81,-2.24,-0.35,-4.45
3.802252054214478,3,3,3,3,-12,-0.25,-1.81,-2.24,-0.35,-4.45
3.812252044677734,3,3,3,3,-14.12,1.41,-0.66,-1.37,-1.45,-5.76
3.822252035140991,3,3,3,3,-16.53,0.67,0.32,-1.77,-2.82,-6.76
3.832252025604248,3,3,3,3,-17.42,-0.55,1.14,-3.46,-3.08,-6.64
3.842252016067505,3,3,3,3,-16.92,-3.41,2.45,-4.61,-3.24,-6.26
3.853251934051514,3,3,3,3,-16.92,-3.41,2.45,-4.61,-3.24,-6.26
3.86325216293335,3,3,3,3,-16.63,-4.05,2.85,-4.41,-3.38,-6.17
3.873252153396606,3,3,3,3,-16.01,-5.16,3.89,-3.45,-5.87,-8.75
3.883252143859863,3,3,3,3,-17.25,-6.94,4.51,-3.63,-7.71,-11.1
3.89325213432312,3,3,3,3,-18.16,-8.57,4.42,-3.45,-9.279999999999999,-13.57
3.903252124786377,3,3,3,2,-18.16,-8.57,4.42,-3.45,-9.279999999999999,-13.57
3.913252115249634,3,3,3,2,-19.25,-9.6,3.99,-2.1,-10.37,-16.04
3.923252105712891,3,3,3,2,-23.01,-11.28,-0.14,1.21,-11.45,-19.79
3.943252086639404,3,3,3,2,-26.01,-11.1,-3.84,2.49,-10.89,-21.97
3.953252077102661,3,3,3,2,-26.01,-11.1,-3.84,2.49,-10.89,-21.97
3.963252067565918,3,3,3,2,-27.45,-10.49,-6.14,2.61,-9.859999999999999,-22.61
3.973252058029175,3,3,3,2,-27.59,-0.95,-12.07,4,-6.06,-24.46
3.983252048492432,3,3,3,2,-25.37,0.93,-11.26,1.28,-3.7,-24.54
3.993252038955688,3,3,3,2,-22.55,1.91,-9.029999999999999,2.28,-0.8,-24.79
4.003252029418945,3,3,3,2,-22.55,1.91,-9.029999999999999,6.36,0.5600000000000001,-26.22
4.013252019882202,3,3,3,2,-14.75,2.97,-3.89,12.27,1.4,-27.45
4.023252010345459,3,3,3,2,-5.15,11.24,4.2,29.84,-0.98,-27.34
4.033252000808716,3,3,3,2,-1.59,35.67,6.61,36.47,-6.17,-22.6
4.043251991271973,3,3,3,2,-0.75,39.14,16.46,9.699999999999999,-6.64,-7.25
4.053251981735229,3,3,3,1,-0.75,39.14,16.46,-3.61,-0.29,2.2
4.063251972198486,3,3,3,1,4.05,32.23,3.2,-2.71,8.15,8.460000000000001
4.073251962661743,3,3,3,1,-1.66,0.43,-2.54,0.26,9.24,11.35
4.083251953125,3,3,3,1,-7.31,-0.46,-0.57,6.29,8.17,8.380000000000001
4.093251943588257,3,3,3,1,-4.62,0.68,0.85,7.41,3.37,7.97
4.103251934051514,3,3,3,1,-4.62,0.68,0.85,5.64,1.28,9.140000000000001
4.11325216293335,3,3,3,1,-2.39,1.08,0.92,0.91,0.35,9.289999999999999
4.123252153396606,3,3,3,1,-1.38,-3.51,-2.14,-7.51,-1.14,9.529999999999999
4.133252143859863,3,3,3,1,-0.24,-6.14,-1.13,-11.27,-2.08,8.49
4.14325213432312,3,3,3,1,0.31,-6.11,-1.2,-8.869999999999999,-0.76,6.61
4.153252124786377,3,3,3,1,0.31,-6.11,-1.2,-5.29,1.3,4.98
4.163252115249634,3,3,3,1,-0.38,-5.94,-0.29,0.9399999999999999,1.2,3.5
4.173252105712891,3,3,3,1,0.13,-2.4,-1.6,5.14,-0.58,2.49
4.183252096176147,3,3,3,1,0.6,-2.08,-0.99,4.49,-2.64,2.32
4.193252086639404,3,3,3,1,1.53,-2.88,-0.9,2.73,-4.3,2.99
4.203252077102661,3,3,3,1,1.53,-2.88,-0.9,1.83,-4.45,3.93
4.213252067565918,3,3,3,1,0.95,-2.72,-0.1,2.37,-3.22,5
4.223252058029175,3,3,3,1,0.88,-2.08,-0.1,3.14,-1.24,6.04
4.233252048492432,3,3,3,1,0.41,-0.93,0.06,3.13,0.89,6.89
4.243252038955688,3,3,3,1,0.14,-0.52,-0.13,2.54,2.68,6.9
4.253252029418945,3,3,3,1,0.14,-0.52,-0.13,1.73,3.82,6.22
4.263252019882202,3,3,3,1,-0.24,-0.34,-0.35,1.39,4.29,5.02
4.273252010345459,3,3,3,1,-1.51,1.02,-0.54,1.14,4.21,4
4.283252000808716,3,3,3,1,-1.44,1.47,0.12,-0.4,3.34,3.72
4.293251991271973,3,3,3,1,-0.92,1.56,0.08,-3.45,1.97,4.33
4.303251981735229,3,3,3,1,-0.52,1.74,-0.47,-6.27,1.38,5.39
4.313251972198486,3,3,3,1,-0.76,1.13,-0.96,-9.19,1.3,6.4
4.323251962661743,3,3,3,1,-0.78,0.44,-1.18,-10.66,0.77,6.62
4.333251953125,3,3,3,1,-0.32,-0.51,-0.78,-10.31,-0.3,6.83
4.343251943588257,3,3,3,1,0.08,-0.75,-0.08,-9.140000000000001,-0.96,6.21
4.353251934051514,3,3,3,1,0.08,-0.75,-0.08,-6.53,-0.98,5.33
4.36325216293335,3,3,3,1,0.82,-1.22,0.54,-3.08,-0.85,4.15
4.373252153396606,3,3,3,1,0.68,-0.9399999999999999,-1.46,0.95,-0.86,3.29
4.383252143859863,3,3,3,1,0.59,0.15,-2.43,4.28,-0.78,2.87
4.39325213432312,3,3,3,1,-5.16,22.64,-0.64,12.97,-1.88,2.37
4.403252124786377,3,3,3,2,-5.16,22.64,-0.64,11.56,-5.07,1.34
4.413252115249634,3,3,3,2,-10.67,2.86,9.34,-18.39,-6.52,-2.18
4.423252105712891,3,3,3,2,-12.42,-23.62,-6.58,-27.21,-1.05,-7.62
4.433252096176147,3,3,3,2,-31.98,16.36,0.22,14.94,-2.47,-12.88
4.443252086639404,3,3,3,2,-32.62,10.45,-0.37,21.38,2.76,-1.26
4.453252077102661,3,3,3,2,-28.68,4.69,-13.24,5.26,12.58,13.94
4.463252067565918,3,3,3,2,-28.68,4.69,-13.24,24.54,11.27,17.72
4.473252058029175,3,3,3,2,-39.36,38.25,24.4,35.82,8.23,17.78
4.483252048492432,3,3,3,2,-38.99,-2.02,12.67,-56.9,3.48,29.05
4.493252038955688,3,3,3,2,-21.12,-14.36,8.039999999999999,-70.48999999999999,8.119999999999999,22.6
4.513252019882202,3,3,3,2,-4.7,-39.03,-0.8100000000000001,-14.69,7.18,13.87
4.523252010345459,3,3,3,2,-10.79,-31.58,-0.9,39.54,6.51,9.369999999999999
4.533252000808716,3,3,3,2,-11.17,-19.14,-3.54,56.56,4.01,3.62
4.543251991271973,3,3,3,2,-11.1,-5.22,-1.2,49.65,-1.06,-3.96
4.553251981735229,3,3,3,2,-12.83,-0.76,-0.25,34.22,-4.5,-8.77
4.563251972198486,3,3,3,2,-14.9,2.45,-0.7,18.1,-6.16,-10.75
4.573251962661743,3,3,3,2,-19.26,9.4,-3.65,8.57,-6.43,-10.81
4.583251953125,3,3,3,2,-31.35,16.97,3.55,-2.77,-5.54,-6.23
4.593251943588257,3,3,3,2,-25.86,4.67,4.57,-27.32,-3.9,4.18
4.603251934051514,3,3,3,2,-12.9,-1.1,1.9,-37.72,-1.22,7.33
4.61325216293335,3,3,3,2,-7.51,-4.23,0.03,-37.52,-0.38,4.78
4.623252153396606,3,3,3,2,-8.710000000000001,-9.69,-0.64,-32.36,-1.45,1.61
4.633252143859863,3,3,3,2,-9.52,-9.630000000000001,-1.1,-19.99,-1.15,-2.32
4.64325213432312,3,3,3,2,-10.12,-8.09,-0.73,-7.98,-0.24,-6.03
4.653252124786377,3,3,3,2,-10.48,-6.07,-0.58,0.01,-0.51,-8.699999999999999
4.663252115249634,3,3,3,2,-10.07,-3.64,-1.79,5.62,-1.56,-10.32
4.673252105712891,3,3,3,2,-9.92,-2.17,-1.75,10.77,-2.57,-11.49
4.683252096176147,3,3,3,2,-9.890000000000001,-0.28,-1.25,14.56,-3.38,-12.24
4.693252086639404,3,3,3,2,-9.81,1.47,-0.77,14.89,-3.89,-11.88
4.703252077102661,3,3,3,2,-9.81,3.73,-0.4,11.74,-3.61,-10.34
4.713252067565918,3,3,3,2,-9.9,4.34,-0.39,6.91,-2.64,-8.32
4.723252058029175,3,3,3,2,-9.52,4.61,-0.41,2.19,-1.59,-6.66
4.733252048492432,3,3,3,2,-8.69,4.83,-0.03,-2.21,-0.73,-5.78
4.743252038955688,3,3,3,2,-6.76,4.32,0.61,-5.33,0.06,-5.68
4.753252029418945,3,3,3,1,-6.19,3.93,1.13,-7.8,0.57,-5.71
4.763252019882202,3,3,3,1,-6.11,3.86,1.72,-9.16,0.7,-5.73
4.773252010345459,3,3,3,1,-6.29,3.45,1.98,-9.99,0.75,-5.78
4.783252000808716,3,3,3,1,-7.19,1.94,2.64,-10.02,0.9,-5.85
4.793251991271973,3,3,3,1,-7.77,1.62,2.93,-8.35,0.84,-5.54
4.803251981735229,3,3,3,1,-8.27,1.15,3.17,-5.64,0.51,-4.92
4.813251972198486,3,3,3,1,-8.65,0.68,2.95,-2.47,0.2,-4.13
4.823251962661743,3,3,3,1,-8.779999999999999,0.5600000000000001,1.59,0.89,-0.08,-3.45
4.833251953125,3,3,3,1,-8.720000000000001,0.86,0.92,3.24,-0.26,-2.89
4.843251943588257,3,3,3,1,-8.68,1.31,0.36,4.22,-0.38,-2.42
4.853251934051514,3,3,3,1,-8.75,1.48,0.09,4.36,-0.27,-2.02
4.86325216293335,3,3,3,1,-9.33,1.63,-0.58,3.58,0.14,-1.91
4.873252153396606,3,3,3,1,-9.69,1.88,-0.88,2.52,0.6,-1.96
4.884252071380615,3,3,3,1,-9.93,2.17,-0.72,1.39,1.05,-2.03
4.894252061843872,3,3,3,1,-10.07,2.54,-0.55,-0.4,1.38,-2.09
4.904252052307129,3,3,3,1,-9.92,1.68,0.2,-2.39,1.57,-2.02
4.914252042770386,3,3,3,1,-9.9,0.61,0.4,-4.32,1.63,-2.04
4.924252033233643,3,3,3,1,-10,-0.48,0.36,-5.37,1.48,-2.1
4.934252023696899,3,3,3,1,-10.27,-2.35,0.67,-4.92,1.23,-2.14
4.944252014160156,3,3,3,1,-10.31,-2.96,0.6899999999999999,-3.36,0.82,-2.2
4.954252004623413,3,3,3,1,-10.21,-3.29,0.72,-1.33,0.4,-2.39
4.96425199508667,3,3,3,1,-9.99,-3.21,0.77,0.84,0.23,-2.69
4.974251985549927,3,3,3,1,-9.74,-2.35,0.58,2.3,0.26,-2.99
4.984251976013184,3,3,3,1,-9.77,-1.6,0.47,2.85,0.27,-3.26
4.99425196647644,3,3,3,1,-9.73,-1.29,0.46,2.33,0.28,-3.31
5.004251956939697,3,3,3,1,-9.65,-0.88,0.45,1.45,0.52,-3.26
5.014251947402954,3,3,3,1,-9.609999999999999,0.2,0.26,0.62,0.72,-3.19
5.024251937866211,3,3,3,1,-9.58,0.48,0.24,-0.36,0.86,-2.98
5.034251928329468,3,3,3,1,-9.550000000000001,0.62,0.32,-1.32,0.96,-2.73
5.044252157211304,3,3,3,1,-9.550000000000001,0.66,0.41,-2.12,1.13,-2.44
5.054252147674561,3,3,3,1,-9.630000000000001,0.5,0.51,-2.51,1.24,-2.28
5.064252138137817,3,3,3,1,-9.550000000000001,0.19,0.4,-2.6,1.27,-2.2
5.074252128601074,3,3,3,1,-9.51,-0.22,0.31,-2.36,1.22,-2.2
5.084252119064331,3,3,3,1,-9.5,-0.31,0.24,-1.65,1.09,-2.3
5.094252109527588,3,3,3,1,-9.609999999999999,-0.31,0.19,-0.9,0.85,-2.36
5.104252099990845,3,3,3,1,-9.58,-0.21,0.23,-0.34,0.5600000000000001,-2.32
5.114252090454102,3,3,3,1,-9.59,-0.02,0.16,-0.13,0.38,-2.21
5.124252080917358,3,3,3,1,-9.59,-0.12,-0.02,-0.64,0.38,-2.07
5.134252071380615,3,3,3,1,-9.800000000000001,-0.97,0.2,-1.29,0.46,-1.96
5.144252061843872,3,3,3,1,-9.869999999999999,-1.07,0.11,-1.42,0.47,-1.89
5.154252052307129,3,3,3,2,-9.9,-1.08,0.11,-1.09,0.38,-1.82
5.164252042770386,3,3,3,2,-9.91,-1.4,0.28,-0.71,0.29,-1.8
5.174252033233643,3,3,3,2,-9.81,-1.4,0.42,-0.13,0.32,-1.8
5.184252023696899,3,3,3,2,-9.800000000000001,-1.39,0.41,0.32,0.29,-1.75
5.194252014160156,3,3,3,2,-9.73,-1.48,0.41,0.5600000000000001,0.17,-1.7
5.204252004623413,3,3,3,2,-9.65,-1.35,0.41,0.87,0.19,-1.57
5.21425199508667,3,3,3,2,-9.6,-0.92,0.26,1.04,0.13,-1.38
5.224251985549927,3,3,3,2,-9.630000000000001,-0.73,0.13,1.04,0.13,-1.38
5.234251976013184,3,3,3,2,-9.67,-0.74,0.15,0.71,0.2,-1.08
5.24425196647644,3,3,3,2,-9.710000000000001,-0.75,0.09,0.36,0.25,-1.01
5.254251956939697,3,3,3,2,-9.789999999999999,-0.85,0.08,-0.27,0.4,-0.95
5.264251947402954,3,3,3,2,-9.789999999999999,-1.01,0.02,-0.27,0.4,-0.95
5.294252157211304,3,3,3,2,-9.710000000000001,-0.83,-0.14,-0.8,0.45,-1.09
5.304252147674561,3,3,3,2,-9.67,-0.73,-0.05,-1.17,0.11,-1
5.314252138137817,3,3,3,2,-9.619999999999999,-0.57,-0.04,-1.17,0.11,-1
5.324252128601074,3,3,3,2,-9.69,-0.75,-0.11,-1.43,0.04,-0.88
5.334252119064331,3,3,3,2,-9.75,-1.03,0.04,-1.82,0.03,-0.8100000000000001
5.344252109527588,3,3,3,2,-9.76,-1.05,0.09,-1.81,0.04,-0.75
5.354252099990845,3,3,3,2,-9.76,-1.41,0.21,-1.67,0.15,-0.73
5.364252090454102,3,3,3,2,-9.710000000000001,-1.42,0.12,-1.44,0.15,-0.67
5.374252080917358,3,3,3,2,-9.67,-1.18,0.16,-0.92,0.2,-0.61
5.384252071380615,3,3,3,2,-9.630000000000001,-1.06,0.16,-0.25,0.16,-0.55
5.394252061843872,3,3,3,2,-9.65,-1,0.15,0.24,0.13,-0.5
5.404252052307129,3,3,3,2,-9.720000000000001,-0.91,0.08,0.52,0.1,-0.35
5.414252042770386,3,3,3,2,-9.75,-1.03,0.07000000000000001,0.73,0.04,-0.2
5.424252033233643,3,3,3,2,-9.779999999999999,-1.08,-0.03,0.82,0,-0.04
5.434252023696899,3,3,3,2,-9.82,-1.1,-0.01,0.85,-0.03,-0.03
5.444252014160156,3,3,3,2,-9.699999999999999,-1.34,0.09,0.74,-0.03,-0.05
5.454252004623413,3,3,3,2,-9.699999999999999,-1.44,0.14,0.49,-0.04,-0.04
5.46425199508667,3,3,3,2,-9.68,-1.42,0.13,0.44,-0.01,-0.03
5.474251985549927,3,3,3,2,-9.67,-1.43,0.07000000000000001,0.49,0.05,-0.07000000000000001
5.484251976013184,3,3,3,2,-9.66,-1.3,0.13,0.44,0.19,-0.06
5.49425196647644,3,3,3,2,-9.699999999999999,-1.26,0.21,0.47,0.16,-0.03
5.504251956939697,3,3,3,2,-9.779999999999999,-1.34,0.2,0.43,0.17,-0.01
5.514251947402954,3,3,3,2,-9.73,-1.43,0.24,0.3,0.08,0.04
5.524251937866211,3,3,3,2,-9.76,-1.2,0.07000000000000001,0.27,0,0.05
5.534251928329468,3,3,3,2,-9.73,-1.32,0.14,0.31,0.07000000000000001,0.08
5.544252157211304,3,3,3,2,-9.720000000000001,-1.41,0.19,-0.02,0.09,0.13
5.554252147674561,3,3,3,2,-9.69,-1.5,0.22,-0.32,0.14,0.16
5.564252138137817,3,3,3,2,-9.710000000000001,-1.36,0.19,-0.26,0.27,0.18
5.574252128601074,3,3,3,2,-9.68,-1.33,0.16,0,0.25,0.18
5.584252119064331,3,3,3,2,-9.67,-1.27,0.14,0.15,0.19,0.19
5.594252109527588,3,3,3,2,-9.73,-1.39,0.1,0.16,0.15,0.21
5.604252099990845,3,3,3,2,-9.710000000000001,-1.56,0.12,-0.15,0.21,0.24
5.614252090454102,3,3,3,2,-9.69,-1.47,0.09,0,0.15,0.32
5.624252080917358,3,3,3,2,-9.720000000000001,-1.42,0.02,0.27,0.15,0.3
5.634252071380615,3,3,3,2,-9.73,-1.39,0.03,0.48,0.14,0.27
5.644252061843872,3,3,3,2,-9.75,-1.44,0.1,0.39,0.12,0.27
5.654252052307129,3,3,3,2,-9.789999999999999,-1.47,0.11,0.27,0.14,0.24
5.664252042770386,3,3,3,2,-9.710000000000001,-1.42,0.18,0.21,0.14,0.24
5.674252033233643,3,3,3,2,-9.66,-1.38,0.09,0.25,0.11,0.26
5.71425199508667,3,3,3,2,-9.69,-1.16,0.12,0.4,0.16,0.34
5.724251985549927,3,3,3,2,-9.74,-1.23,0.04,0.35,0.07000000000000001,0.41
5.734251976013184,3,3,3,2,-9.76,-1.32,0.05,0.11,0.08,0.46
5.74425196647644,3,3,3,2,-9.73,-1.25,0.05,-0.03,0.11,0.57
5.754251956939697,3,3,3,2,-9.75,-1.34,0.13,0,0.17,0.6
5.764251947402954,3,3,3,2,-9.699999999999999,-1.34,0.07000000000000001,-0.07000000000000001,0.18,0.6
5.774251937866211,3,3,3,2,-9.68,-1.27,0,-0.08,0.16,0.61
5.784251928329468,3,3,3,2,-9.66,-1.25,0.04,-0.14,0.2,0.64
5.794252157211304,3,3,3,2,-9.710000000000001,-1.13,0.12,-0.09,0.22,0.7
5.805252075195312,3,3,3,2,-9.710000000000001,-1.06,0.13,-0.01,0.19,0.71
5.814252138137817,3,3,3,2,-9.720000000000001,-1.04,0.14,-0.04,0.14,0.75
5.824252128601074,3,3,3,2,-9.699999999999999,-1.04,0.07000000000000001,-0.17,0.08,0.84
5.854252099990845,3,3,3,2,-9.67,-1.24,0.13,-0.51,-0.02,1.04
5.895251989364624,3,3,3,2,-9.65,-0.53,0.11,0.41,0.02,1.28
5.905251979827881,3,3,3,2,-9.710000000000001,-0.64,0.25,0.37,-0.02,1.44
5.915251970291138,3,3,3,2,-9.699999999999999,-0.29,0.17,0.2,-0.09,1.59
5.925251960754395,3,3,3,2,-9.69,-0.05,0.15,0.25,-0.11,1.74
5.935251951217651,3,3,3,2,-9.65,0.02,0.2,0.25,-0.12,1.89
5.945251941680908,3,3,3,2,-9.59,0.04,0.24,-0.1,-0.15,2.18
5.955251932144165,3,3,3,2,-9.42,-0.36,0.34,-0.58,-0.16,2.53
5.965252161026001,3,3,3,2,-9.300000000000001,-0.24,0.29,-1.06,-0.1,2.86
5.975252151489258,3,3,3,2,-9.279999999999999,0,0.19,-0.93,-0.02,3.19
5.985252141952515,3,3,3,2,-9.27,0.25,0.29,-0.47,0,3.43
5.995252132415771,3,3,3,2,-9.52,0.71,0.55,0.13,-0.19,3.63
6.005252122879028,3,3,3,2,-9.66,0.8100000000000001,0.66,0.44,-0.31,3.79
6.015252113342285,3,3,3,2,-9.640000000000001,1.01,0.61,0.25,-0.35,4.26
6.025252103805542,3,3,3,2,-9.48,1.23,0.48,0,-0.35,4.82
6.035252094268799,3,3,3,2,-9.1,0.52,0.43,-0.66,-0.25,5.36
6.045252084732056,3,3,3,2,-8.859999999999999,0.13,0.63,-1.37,-0.4,5.91
6.055252075195312,3,3,3,2,-8.82,0.36,0.55,-1.23,-0.21,6.18
6.065252065658569,3,3,3,2,-8.859999999999999,0.75,0.6899999999999999,-0.41,0.07000000000000001,6.26
6.075252056121826,3,3,3,2,-8.880000000000001,1.07,0.92,0.44,0.06,6.49
6.085252046585083,3,3,3,2,-8.85,1.47,0.93,0.97,-0.17,6.9
6.09525203704834,3,3,3,2,-8.779999999999999,2.08,0.7,1.79,-0.36,7.3
6.105252027511597,3,3,3,2,-8.82,1.69,0.73,2.03,-0.31,7.79
6.115252017974854,3,3,3,2,-8.6,1.57,-0.06,1.79,-0.51,8.369999999999999
6.12525200843811,3,3,3,2,-8.630000000000001,1.23,-0.09,2.58,-0.55,8.76
6.135251998901367,3,3,3,2,-8.699999999999999,0.39,0,2.76,-0.19,9.08
6.145251989364624,3,3,3,2,-8.83,-1.31,-0.67,2.45,0.15,9.199999999999999
6.155251979827881,3,3,3,2,-8.94,-1.58,-0.58,2.06,-0.01,9.25
6.165251970291138,3,3,3,2,-9.4,-1.21,-0.71,3.13,0.28,8.81
6.175251960754395,3,3,3,2,-9.880000000000001,-0.36,-0.64,4.99,0.7,8.279999999999999
6.185251951217651,3,3,3,2,-9.619999999999999,0.58,0.16,6.3,0.55,7.87
6.195251941680908,3,3,3,2,-9.640000000000001,1.22,-0.05,6.58,0.67,8.08
6.205251932144165,3,3,3,2,-9.83,1.52,0.12,6.55,1.17,8.449999999999999
6.215252161026001,3,3,3,2,-9.859999999999999,1.39,0.64,6.2,1.45,9.029999999999999
6.225252151489258,3,3,3,2,-9.66,0.52,0.15,5.4,1.6,9.619999999999999
6.235252141952515,3,3,3,2,-9.859999999999999,0.92,-0.19,5.03,2.27,9.710000000000001
6.245252132415771,3,3,3,2,-9.93,0.77,0,5.14,2.56,9.68
6.255252122879028,3,3,3,2,-9.630000000000001,0.12,0.13,3.98,2.08,9.59
6.265252113342285,3,3,3,2,-9.32,0.95,-0.44,3.96,2.08,9.44
6.275252103805542,3,3,3,2,-9.34,0.5600000000000001,-0.51,4.38,2.55,9.369999999999999
6.285252094268799,3,3,3,2,-9.539999999999999,0.7,-0.6,3.5,2.75,9.32
6.295252084732056,3,3,3,2,-9.59,1.48,-1.06,3.43,2.54,8.890000000000001
6.305252075195312,3,3,3,2,-10.02,2.14,-0.26,3.44,2.51,8.32
6.315252065658569,3,3,3,2,-10.06,1.79,-0.4,3.01,2.88,7.82
6.335252046585083,3,3,3,2,-9.869999999999999,1.19,-0.41,2.12,3.79,8.08
6.34525203704834,3,3,3,2,-9.119999999999999,0.47,-0.12,2.47,4.2,8.31
6.355252027511597,3,3,3,1,-8.68,0.23,-0.77,2.22,4.37,8.65
6.365252017974854,3,3,3,1,-8.800000000000001,2.05,-1.99,2.59,3.76,8.48
6.37525200843811,3,3,3,1,-9.42,3.8,-1.8,4.41,3.3,7.84
6.385251998901367,3,3,3,1,-10.44,3.17,-1.29,3.22,2.95,7.03
6.395251989364624,3,3,3,1,-10.61,3.21,-1.39,1.27,2.37,6.2
6.405251979827881,3,3,3,1,-10.81,2.32,-1.37,-0.31,2.72,5.86
6.415251970291138,3,3,3,1,-10.62,1.11,-1.53,-1.88,3.01,5.45
6.425251960754395,3,3,3,1,-9.93,0.35,-1.7,-2.34,3.23,4.77
6.455251932144165,3,3,3,1,-9.869999999999999,0.46,-1.53,-0.78,3.15,2.12
6.465252161026001,3,3,3,1,-11.38,0.57,-1.37,-0.58,2.61,0.75
6.475252151489258,3,3,3,1,-12.25,1.12,-1.73,-0.49,1.61,-1.18
6.485252141952515,3,3,3,1,-13.24,1.65,-1.26,-0.18,0.99,-3.12
6.495252132415771,3,3,3,1,-14.11,1.29,-0.51,-0.68,0.32,-4.38
6.505252122879028,3,3,3,1,-14.98,-0.07000000000000001,0.62,-2.1,-0.37,-5.12
6.515252113342285,3,3,3,1,-15.21,-0.93,1.12,-3.13,-0.99,-5.48
6.525252103805542,3,3,3,1,-15.44,-2.09,1.82,-4,-1.41,-5.69
6.535252094268799,3,3,3,1,-15.61,-2.91,2.95,-3.62,-1.81,-6.33
6.545252084732056,3,3,3,1,-15.98,-3.38,3.55,-2.41,-2.97,-7.32
6.555252075195312,3,3,3,1,-16.43,-3.67,3.61,-1.26,-4.53,-8.75
6.565252065658569,3,3,3,1,-16.81,-3.95,3.18,-0.57,-6.42,-10.5
6.575252056121826,3,3,3,1,-18.51,-4.46,3.25,-0.35,-8.06,-12.33
6.586251974105835,3,3,3,1,-19.28,-5.23,2.56,-0.5,-9.380000000000001,-13.91
6.59525203704834,3,3,3,1,-20.02,-6.32,1.32,-0.52,-10.72,-15.3
6.605252027511597,3,3,3,1,-21.16,-7.37,0.6899999999999999,-0.61,-11.32,-16.6
6.616251945495605,3,3,3,1,-23.39,-10.18,-1.9,-0.83,-11.41,-17.74
6.62525200843811,3,3,3,1,-24.67,-11.25,-2.33,-1.09,-11.21,-18.69
6.635251998901367,3,3,3,1,-25.63,-12.6,-3.2,-1.12,-10.31,-19.82
6.646252155303955,3,3,3,1,-26.15,-13.15,-4.3,-0.72,-9.359999999999999,-21.52
6.655251979827881,3,3,3,1,-25.93,-11.6,-6.32,0.34,-8.19,-23.47
6.665251970291138,3,3,3,1,-25.65,-8.17,-7.43,2.96,-6.94,-25.6
6.676252126693726,3,3,3,1,-25.54,-2.06,-8.5,5.05,-6,-28.1
6.685251951217651,3,3,3,1,-23.72,-0.17,-7.71,3.69,-5.33,-28.8
6.695251941680908,3,3,3,1,-18,3.65,-4.43,3.89,-3.62,-27.52
6.705251932144165,3,3,3,1,-14.84,2.7,-2.77,6.89,-2.19,-26.71
6.715252161026001,3,3,3,1,-10.85,0.03,-1.96,8.94,-1.07,-26.79
6.725252151489258,3,3,3,1,-7.24,4.9,-1.59,18.85,-1.38,-26.96
6.735252141952515,3,3,3,1,-5.49,39.25,12.45,35.72,-3.93,-25.81
6.745252132415771,3,3,3,1,-0.13,39.11,21.2,19.17,-10.17,-14.47
6.755252122879028,3,3,3,0,5.66,36.5,6.75,-4.51,-5.84,-2.52
6.765252113342285,3,3,3,0,4.27,14.04,1.65,-19.84,10.53,5.4
6.775252103805542,3,3,3,0,-6.71,-12.23,0.25,-17.01,12.51,11.89
6.785252094268799,3,3,3,0,-10.08,-6.08,1.27,-2.9,10.78,7.72
6.795252084732056,3,3,3,0,-5.3,-3.31,3.81,11.4,5.19,1.78
6.805252075195312,3,3,3,0,-1.77,-2.48,2.55,16.19,0.27,3.2
6.815252065658569,3,3,3,0,0.96,-4.57,-2.01,12.85,0.45,5.71
6.825252056121826,3,3,3,0,1.77,-6.27,-4.37,5.51,-0.22,7.57
6.835252046585083,3,3,3,0,1.71,-5.8,-5.34,-0.18,-1.18,7.45
6.84525203704834,3,3,3,0,0.86,-4.72,-4.52,-2.1,-0.3,5.94
6.855252027511597,3,3,3,0,-0.32,-2.93,-0.5,-2.66,0.61,4.95
6.865252017974854,3,3,3,0,-1.24,-1.81,-1.29,-0.54,1.01,3.95
6.87525200843811,3,3,3,0,-0.71,0.76,-2.35,4.5,-1.04,2.97
6.885251998901367,3,3,3,0,0.4,1.88,-2.27,5.97,-3.61,3.62
6.895251989364624,3,3,3,0,0.82,1.35,-1.12,2.44,-4.95,4.61
6.905251979827881,3,3,3,1,0.39,0.57,-0.48,-1.8,-5.94,5.06
6.916252136230469,3,3,3,1,0.37,-0.74,0.17,-4.2,-5.91,5.47
6.926252126693726,3,3,3,1,0.79,-1.96,0.54,-3.78,-4.66,5.83
6.936252117156982,3,3,3,1,1.19,-1.7,0.5,-0.31,-2.58,5.85
6.946252107620239,3,3,3,1,0.73,-0.85,0.28,3.01,0.02,5.79
6.956252098083496,3,3,3,1,0.06,0.23,0.19,4.1,2.44,5.97
6.966252088546753,3,3,3,1,-0.55,1.11,0.24,3.38,4.11,6.13
6.97625207901001,3,3,3,1,-1,2.27,0.2,1.49,4.5,6.13
6.986252069473267,3,3,3,1,-0.9399999999999999,2.36,0.17,-1.39,3.97,5.87
6.996252059936523,3,3,3,1,-1.01,2.08,0.17,-5.21,3.27,5.55
7.00625205039978,3,3,3,1,-1.09,0.73,-0.4,-9.17,2.73,5.33
7.016252040863037,3,3,3,1,-0.48,0.18,-1.44,-12.03,2.44,5.33
7.026252031326294,3,3,3,1,-0.27,-0.54,-2.17,-12.96,2.68,5.74
7.036252021789551,3,3,3,1,-0.32,-1.12,-1.9,-12.73,2.7,6.32
7.046252012252808,3,3,3,1,-0.35,-2.03,-1.87,-11.92,2.18,6.65
7.056252002716064,3,3,3,1,-0.3,-1.9,-2.39,-8.81,1.29,6.53
7.066251993179321,3,3,3,1,-0.1,-1.45,-3.01,-5.24,0.49,5.87
7.076251983642578,3,3,3,1,-0.06,-1.52,-3.46,-4.13,0.05,5.44
7.086251974105835,3,3,3,1,-1.05,-1.9,-0.82,-3.98,-0.32,5.33
7.096251964569092,3,3,3,1,-2.48,8.109999999999999,3.07,0.67,-1.79,4.89
7.106251955032349,3,3,3,1,-4.04,18.03,6.6,16.33,-3.67,3.99
7.116251945495605,3,3,3,1,-7.57,13.88,7.79,18.51,-0.98,1.31
7.126251935958862,3,3,3,1,-19.69,-22.54,-8.300000000000001,-12.15,3.45,-2.36
7.136252164840698,3,3,3,1,-31.87,3.59,-4.14,-18.96,1.23,-6.6
7.146252155303955,3,3,3,1,-34.01,20.82,4.54,20,-3.1,-9.789999999999999
7.156252145767212,3,3,3,2,-29.56,7.09,-5.71,6.23,4.31,3.52
7.166252136230469,3,3,3,2,-36.66,38.96,-12.22,10.84,11.68,16.04
7.176252126693726,3,3,3,2,-39.36,38.54,23.37,45.44,10.37,16.32
7.186252117156982,3,3,3,2,-37.4,-0.34,15.42,-33.35,6.4,26.28
7.196252107620239,3,3,3,2,-18.06,-15.11,5.92,-69.27,7.06,28.13
7.206252098083496,3,3,3,2,-12.64,-39.19,-4.67,-86.79000000000001,8.800000000000001,25.25
7.216252088546753,3,3,3,2,-13.56,-39.1,-7.22,-52.76,7.39,18.89
7.22625207901001,3,3,3,2,-10.34,-34.77,-5.24,32.75,8.039999999999999,10.7
7.236252069473267,3,3,3,2,-8.1,-16.39,-5.67,80.47,7.06,2.06
7.246252059936523,3,3,3,2,-16.04,0.26,0.16,79.84999999999999,3.12,-6.27
7.25625205039978,3,3,3,2,-16.45,8.640000000000001,2.17,65.34,-3.19,-12.74
7.266252040863037,3,3,3,2,-19.79,12.53,1.26,35.92,-5.33,-12.19
7.276252031326294,3,3,3,2,-22.2,12.34,-1.23,6.68,-6.65,-5.81
7.286252021789551,3,3,3,2,-25.83,4.85,-0.73,-14.08,-2.89,3.26
7.296252012252808,3,3,3,2,-18.29,0.08,1.03,-27.83,0.09,9.779999999999999
7.306252002716064,3,3,3,2,-11.61,-3.07,0.41,-32.27,0.49,9.699999999999999
7.316251993179321,3,3,3,2,-10.45,-5.4,0.22,-32.06,-0.13,6.88
7.326251983642578,3,3,3,2,-11.21,-6.07,0.09,-28.89,-1.26,3.82
7.336251974105835,3,3,3,2,-12.23,-6.15,-0.66,-22.26,-1.7,-0.1
7.346251964569092,3,3,3,2,-13.65,-7.35,-1.19,-15.45,-1.41,-4.69
7.356251955032349,3,3,3,2,-14.21,-8.460000000000001,-1.48,-7.2,-1.47,-8.800000000000001
7.366251945495605,3,3,3,2,-10.98,-7.7,-1.64,2.58,-2.08,-11.1
7.376251935958862,3,3,3,2,-9.65,-6.06,-1.79,11.41,-2.63,-11.33
7.386252164840698,3,3,3,2,-9.550000000000001,-4.01,-1.84,17.04,-3.1,-10.67
7.396252155303955,3,3,3,2,-10.67,0.46,-1.63,18.92,-3.22,-9.56
7.406252145767212,3,3,3,1,-10.87,2.15,-1.13,16.59,-3.54,-8.119999999999999
7.416252136230469,3,3,3,1,-10.89,3.24,-0.97,10.9,-3.03,-6.78
7.426252126693726,3,3,3,1,-10.41,3.68,-0.88,3.75,-2.3,-5.63
7.436252117156982,3,3,3,1,-8.57,3.19,-0.4,-2.71,-1.27,-5.01
7.446252107620239,3,3,3,1,-7.84,2.84,-0.2,-7.51,-0.54,-5.02
7.456252098083496,3,3,3,1,-6.93,2.77,0.11,-10.37,-0.33,-5.82
7.466252088546753,3,3,3,1,-6.5,2.45,0.48,-11.97,-0.11,-6.64
7.47625207901001,3,3,3,1,-6.63,1.28,0.99,-12.87,0.07000000000000001,-7.22
7.486252069473267,3,3,3,1,-6.94,0.64,1.39,-12.96,0.15,-7.62
7.496252059936523,3,3,3,1,-7.31,0.21,1.22,-11.92,0.23,-7.78
7.50625205039978,3,3,3,1,-7.77,0.17,1.1,-9.27,0.39,-7.61
7.516252040863037,3,3,3,1,-7.93,0.26,0.92,-6.14,0.12,-7.09
7.526252031326294,3,3,3,1,-7.64,0.54,0.52,-3.28,-0.22,-6.27
7.536252021789551,3,3,3,1,-7.55,0.85,0.28,-0.72,-0.37,-5.36
7.546252012252808,3,3,3,1,-7.49,1.27,0.18,0.93,-0.37,-4.57
7.556252002716064,3,3,3,1,-8.1,2.66,-0.17,2.2,-0.32,-4.01
7.566251993179321,3,3,3,1,-8.699999999999999,3.25,-0.26,2.53,-0.4,-3.89
7.576251983642578,3,3,3,1,-9.06,3.32,-0.35,1.72,-0.62,-4.05
7.586251974105835,3,3,3,1,-9.26,3.42,-0.13,0.26,-0.61,-4.2
7.596251964569092,3,3,3,1,-9.56,3.79,0.32,-0.78,-0.13,-4.31
7.606251955032349,3,3,3,1,-9.77,3.18,0.42,-2.64,0.4,-4.19
7.616251945495605,3,3,3,1,-9.710000000000001,2.31,0.63,-4.78,0.52,-3.81
7.626251935958862,3,3,3,1,-9.59,0.79,0.76,-6.68,0.73,-3.49
7.636252164840698,3,3,3,1,-9.44,-1.45,0.35,-7.33,0.84,-3.47
7.646252155303955,3,3,3,1,-9.6,-2.09,0.49,-6.29,0.6899999999999999,-3.56
7.656252145767212,3,3,3,1,-9.77,-2.24,0.7,-3.56,0.49,-3.92
7.666252136230469,3,3,3,1,-9.890000000000001,-2.15,0.8,-0.78,0.27,-4.31
7.676252126693726,3,3,3,1,-10.03,-1.72,0.6,1.17,0.1,-4.55
7.686252117156982,3,3,3,1,-9.949999999999999,-1.76,0.51,2.18,-0.13,-4.66
7.696252107620239,3,3,3,1,-9.76,-1.95,0.37,2.48,-0.28,-4.63
7.706252098083496,3,3,3,1,-9.67,-1.67,0.14,2.87,-0.32,-4.74
7.716252088546753,3,3,3,1,-9.43,-1.57,0.05,2.93,-0.39,-4.78
7.72625207901001,3,3,3,1,-9.33,-1.22,-0.07000000000000001,3.12,-0.5,-4.86
7.736252069473267,3,3,3,1,-9.359999999999999,-0.86,-0.03,3.27,-0.61,-4.86
7.746252059936523,3,3,3,1,-9.449999999999999,-0.93,0.15,2.66,-0.58,-4.78
7.75625205039978,3,3,3,1,-9.42,-0.11,0.54,2.16,-0.71,-4.8
7.766252040863037,3,3,3,1,-9.470000000000001,0.29,0.46,-0.45,-1.02,-4.78
7.776252031326294,3,3,3,1,-9.51,-0.01,0.59,-1.73,-1.14,-4.65
7.786252021789551,3,3,3,1,-9.42,-0.11,0.83,-2.6,-1.17,-4.48
7.796252012252808,3,3,3,1,-9.279999999999999,0.55,0.79,-2.6,-1.17,-4.48
7.806252002716064,3,3,3,1,-9.380000000000001,0.61,0.66,-3.87,-1.16,-4.12
7.816251993179321,3,3,3,1,-9.470000000000001,0.26,0.72,-5.54,-1.08,-3.44
7.826251983642578,3,3,3,1,-9.449999999999999,0.28,0.5,-5.56,-0.9399999999999999,-3.01
7.836251974105835,3,3,3,1,-9.640000000000001,0.09,0.3,-6.17,-0.68,-2.48
7.846251964569092,3,3,3,1,-9.859999999999999,-0.54,0.41,-6.17,-0.68,-2.48
7.856251955032349,3,3,3,1,-9.91,-0.52,0.35,-5.54,-0.54,-2.1
7.866251945495605,3,3,3,1,-9.81,-0.67,0.37,-3.9,-0.25,-1.33
7.876251935958862,3,3,3,1,-9.74,-0.66,0.27,-3.13,-0.13,-1
7.886252164840698,3,3,3,1,-9.67,-0.99,0.48,-1.91,0,-0.76
7.896252155303955,3,3,3,1,-9.59,-0.85,0.52,-1.91,0,-0.76
7.906252145767212,3,3,3,1,-9.68,-1.01,0.53,-0.98,0.12,-0.49
7.916252136230469,3,3,3,1,-9.699999999999999,-1.38,0.57,0.32,0.22,0.13
7.926252126693726,3,3,3,1,-9.699999999999999,-1.58,0.52,1.37,0.16,0.27
7.936252117156982,3,3,3,1,-9.67,-1.56,0.36,2.26,0.06,0.33
7.946252107620239,3,3,3,1,-9.67,-1.71,0.28,2.26,0.06,0.33
7.957252025604248,3,3,3,2,-9.66,-1.76,0.22,2.91,0,0.28
7.967252016067505,3,3,3,2,-9.640000000000001,-1.68,0.11,3.56,0,0.22
7.977252006530762,3,3,3,2,-9.640000000000001,-1.67,0,3.78,-0.04,0.23
7.987251996994019,3,3,3,2,-9.58,-1.41,0.13,3.72,-0.08,0.15
7.997251987457275,3,3,3,2,-9.6,-1.34,0.29,3.72,-0.08,0.15
8.007251977920532,3,3,3,2,-9.640000000000001,-1.32,0.37,3.11,-0.07000000000000001,0.06
8.017251968383789,3,3,3,2,-9.73,-1.19,0.42,0.66,-0.03,0.09
8.027251958847046,3,3,3,2,-9.619999999999999,-1.86,0.53,-0.19,0.1,0.11
8.037251949310303,3,3,3,2,-9.59,-1.91,0.52,-0.74,0.14,0.02
8.04725193977356,3,3,3,2,-9.619999999999999,-1.86,0.51,-0.74,0.14,0.02
8.057251930236816,3,3,3,2,-9.67,-2,0.42,-1.55,0.05,-0.05
8.067252159118652,3,3,3,2,-9.630000000000001,-2.2,0.25,-2.21,-0.01,-0.2
8.077252149581909,3,3,3,2,-9.59,-2.32,0.23,-2.14,-0.02,-0.27
8.087252140045166,3,3,3,2,-9.619999999999999,-2.22,0.15,-1.84,-0.1,-0.32
8.097252130508423,3,3,3,2,-9.58,-2.2,0.22,-1.84,-0.1,-0.32
8.10725212097168,3,3,3,2,-9.609999999999999,-1.85,0.19,-1.31,-0.16,-0.38
8.117252111434937,3,3,3,2,-9.640000000000001,-1.89,0.22,-0.7,-0.11,-0.34
8.127252101898193,3,3,3,2,-9.68,-1.74,0.21,-0.19,-0.16,-0.28
8.13725209236145,3,3,3,2,-9.699999999999999,-1.43,0.23,0.04,-0.17,-0.22
8.147252082824707,3,3,3,2,-9.69,-1.38,0.45,0.04,-0.17,-0.22
8.157252073287964,3,3,3,2,-9.699999999999999,-1.44,0.51,0.25,-0.11,-0.17
8.167252063751221,3,3,3,2,-9.66,-1.57,0.58,0.57,-0.02,0.04
8.177252054214478,3,3,3,2,-9.640000000000001,-1.66,0.45,0.62,0.02,0.13
8.187252044677734,3,3,3,2,-9.6,-2.05,0.5,0.86,0.06,0.11
8.197252035140991,3,3,3,2,-9.619999999999999,-1.99,0.36,0.86,0.06,0.11
8.207252025604248,3,3,3,2,-9.65,-1.96,0.33,0.87,0.01,0.09
8.217252016067505,3,3,3,2,-9.630000000000001,-2.22,0.33,0.83,0.01,0.05
8.227252006530762,3,3,3,2,-9.65,-2.15,0.22,0.8100000000000001,0.01,0.01
8.237251996994019,3,3,3,2,-9.619999999999999,-2.11,0.33,0.93,-0.06,-0.06
8.247251987457275,3,3,3,2,-9.57,-1.97,0.4,0.93,-0.06,-0.06
8.257251977920532,3,3,3,2,-9.630000000000001,-1.9,0.47,0.75,-0.05,-0.08
8.267251968383789,3,3,3,2,-9.59,-1.96,0.45,0.11,-0.01,-0.02
8.277251958847046,3,3,3,2,-9.59,-1.82,0.24,-0.07000000000000001,0.02,-0.05
8.287251949310303,3,3,3,2,-9.65,-1.85,0.34,-0.12,-0.02,-0.09
8.29725193977356,3,3,3,2,-9.68,-1.8,0.35,-0.12,-0.02,-0.09
8.307251930236816,3,3,3,2,-9.68,-1.87,0.36,-0.37,-0.04,-0.09
8.317252159118652,3,3,3,2,-9.640000000000001,-1.97,0.37,-0.57,-0.02,-0.1
8.327252149581909,3,3,3,2,-9.609999999999999,-1.97,0.29,-0.46,-0.03,-0.12
8.337252140045166,3,3,3,2,-9.59,-1.88,0.33,-0.42,-0.08,-0.08
8.347252130508423,3,3,3,2,-9.640000000000001,-1.99,0.33,-0.42,-0.08,-0.08
8.35725212097168,3,3,3,2,-9.66,-2.05,0.38,-0.4,0.01,-0.03
8.367252111434937,3,3,3,2,-9.65,-1.93,0.4,0.15,-0.04,-0.07000000000000001
8.377252101898193,3,3,3,2,-9.66,-1.74,0.32,0.33,-0.09,-0.1
8.38725209236145,3,3,3,2,-9.710000000000001,-1.44,0.23,-0.11,-0.06,0.05
8.397252082824707,3,3,3,2,-9.69,-1.85,0.44,-0.04,0.05,0.06
8.407252073287964,3,3,3,2,-9.58,-1.95,0.45,-0.01,0.11,0.02
8.417252063751221,3,3,3,2,-9.65,-2.03,0.36,0.23,0.01,-0.05
8.427252054214478,3,3,3,2,-9.6,-1.99,0.29,0.3,-0.11,-0.09
8.437252044677734,3,3,3,2,-9.58,-1.92,0.26,0.31,-0.19,-0.14
8.447252035140991,3,3,3,2,-9.67,-1.68,0.21,0.31,-0.19,-0.14
8.457252025604248,3,3,3,2,-9.619999999999999,-1.77,0.4,-0.55,-0.04,-0.04
8.467252016067505,3,3,3,2,-9.619999999999999,-1.75,0.36,-0.74,-0.02,-0.04
8.477252006530762,3,3,3,2,-9.65,-1.83,0.34,-0.8,-0.04,-0.08
8.487251996994019,3,3,3,2,-9.609999999999999,-1.95,0.36,-0.78,-0.12,-0.13
8.497251987457275,3,3,3,2,-9.609999999999999,-1.93,0.3,-0.78,-0.12,-0.13
8.507251977920532,3,3,3,2,-9.65,-1.92,0.28,-0.78,-0.19,-0.15
8.517251968383789,3,3,3,2,-9.609999999999999,-2,0.35,-0.76,-0.07000000000000001,-0.13
8.527251958847046,3,3,3,2,-9.58,-1.77,0.23,-0.8100000000000001,-0.04,-0.07000000000000001
8.537251949310303,3,3,3,2,-9.68,-1.84,0.32,-0.74,0,-0.03
8.54725193977356,3,3,3,2,-9.68,-1.96,0.31,-0.74,0,-0.03
8.557251930236816,3,3,3,2,-9.66,-1.93,0.35,-0.48,0.01,-0.06
8.567252159118652,3,3,3,2,-9.66,-1.86,0.38,-0.1,-0.08,-0.11
8.577252149581909,3,3,3,2,-9.630000000000001,-1.8,0.27,-0.04,-0.07000000000000001,-0.07000000000000001
8.587252140045166,3,3,3,2,-9.65,-1.79,0.33,-0.02,-0.04,-0.01
8.597252130508423,3,3,3,2,-9.609999999999999,-1.7,0.38,-0.02,-0.04,-0.01
8.60725212097168,3,3,3,2,-9.65,-1.78,0.39,-0.11,0.04,0.02
8.617252111434937,3,3,3,2,-9.65,-1.85,0.33,-0.06,-0.04,0
8.627252101898193,3,3,3,2,-9.640000000000001,-1.8,0.32,-0.03,-0.07000000000000001,0
8.63725209236145,3,3,3,2,-9.630000000000001,-1.76,0.34,-0.08,-0.07000000000000001,-0.01
8.647252082824707,3,3,3,2,-9.609999999999999,-1.75,0.37,-0.08,-0.07000000000000001,-0.01
8.657252073287964,3,3,3,2,-9.609999999999999,-1.73,0.37,-0.19,-0.06,0.03
8.667252063751221,3,3,3,2,-9.65,-1.76,0.38,-0.32,-0.06,0.07000000000000001
8.677252054214478,3,3,3,2,-9.619999999999999,-1.73,0.25,-0.4,-0.01,0.13
8.687252044677734,3,3,3,2,-9.619999999999999,-1.67,0.3,-0.32,0,0.14
8.697252035140991,3,3,3,2,-9.619999999999999,-1.47,0.37,-0.32,0,0.14
8.707252025604248,3,3,3,2,-9.609999999999999,-1.54,0.39,-0.43,0,0.23
8.717252016067505,3,3,3,2,-9.640000000000001,-1.62,0.41,-0.34,0.01,0.31
8.727252006530762,3,3,3,2,-9.66,-1.54,0.25,-0.3,0.04,0.38
8.737251996994019,3,3,3,2,-9.67,-1.49,0.29,-0.26,0.1,0.49
8.747251987457275,3,3,3,2,-9.630000000000001,-1.49,0.35,-0.26,0.1,0.49
8.757251977920532,3,3,3,2,-9.630000000000001,-1.36,0.38,-0.05,0.11,0.55
8.767251968383789,3,3,3,2,-9.630000000000001,-1.22,0.36,0.14,0.14,0.74
8.777251958847046,3,3,3,2,-9.619999999999999,-0.99,0.36,0.36,0.09,0.9
8.787251949310303,3,3,3,2,-9.619999999999999,-0.8100000000000001,0.42,0.45,0.1,1.13
8.79725193977356,3,3,3,2,-9.619999999999999,-0.8100000000000001,0.42,0.45,0.1,1.13
8.807251930236816,3,3,3,2,-9.609999999999999,-0.7,0.48,0.39,0.14,1.37
8.817252159118652,3,3,3,2,-9.640000000000001,-0.82,0.39,0.44,0.41,1.81
8.827252149581909,3,3,3,2,-9.640000000000001,-0.84,0.42,0.55,0.49,2.02
8.838252067565918,3,3,3,2,-9.51,-0.83,0.5,0.86,0.55,2.26
8.847252130508423,3,3,3,2,-9.51,-0.83,0.5,0.86,0.55,2.26
8.85725212097168,3,3,3,2,-9.51,-0.75,0.51,1.2,0.5,2.31
8.867252111434937,3,3,3,2,-9.6,-0.67,0.47,1.51,0.31,2.6
8.877252101898193,3,3,3,2,-9.51,-0.54,0.54,1.54,0.37,2.84
8.88725209236145,3,3,3,2,-9.5,-0.27,0.64,1.69,0.36,3.09
8.897252082824707,3,3,3,3,-9.5,-0.27,0.64,1.69,0.36,3.09
8.907252073287964,3,3,3,3,-9.49,-0.1,0.8,1.92,0.39,3.36
8.917252063751221,3,3,3,3,-9.34,0.54,0.9399999999999999,2.25,0.13,4.28
8.927252054214478,3,3,3,3,-9.369999999999999,0.5600000000000001,0.97,2.15,0.07000000000000001,4.88
8.937252044677734,3,3,3,3,-9.300000000000001,0.92,0.96,2.32,-0.1,5.46
8.947252035140991,3,3,3,3,-9.300000000000001,0.92,0.96,2.32,-0.1,5.46
8.957252025604248,3,3,3,3,-9.19,1.39,1.13,2.62,-0.11,6.06
8.967252016067505,3,3,3,3,-8.83,1.56,1,1.74,-0.32,7.81
8.978251934051514,3,3,3,3,-8.720000000000001,1.51,1.23,2.1,-0.48,8.35
8.98825216293335,3,3,3,3,-8.74,1.95,1.49,2.89,-0.58,8.640000000000001
8.998252153396606,3,3,3,3,-8.74,1.95,1.49,3.51,-0.84,9.039999999999999
9.008252143859863,3,3,3,3,-8.74,1.95,1.64,3.58,-1.13,9.630000000000001
9.01825213432312,3,3,3,3,-8.289999999999999,0.83,0.99,3.89,-1.22,10.19
9.028252124786377,3,3,3,3,-7.87,0.53,0.8,4.36,-0.63,10.51
9.038252115249634,3,3,3,3,-8,0.07000000000000001,0.73,4.31,0.6899999999999999,10.7
9.048252105712891,3,3,3,3,-8,0.07000000000000001,0.73,4.62,1.33,10.91
9.058252096176147,3,3,3,3,-8.23,-0.27,0.44,5.15,1.13,11.12
9.068252086639404,3,3,3,3,-8.32,-0.63,-0.5600000000000001,5.64,0.79,11.24
9.078252077102661,3,3,3,3,-8.279999999999999,-0.72,-0.58,5.72,0.95,11.25
9.088252067565918,3,3,3,3,-8.460000000000001,-0.82,-0.26,5.26,1.5,11.26
9.098252058029175,3,3,3,3,-8.460000000000001,-0.82,-0.26,5.57,1.75,11.35
9.108252048492432,3,3,3,3,-8.890000000000001,-0.6,-0.17,6.91,2.03,11.18
9.118252038955688,3,3,3,3,-9.92,0.68,0.06,5.75,1.78,11.33
9.128252029418945,3,3,3,3,-9.289999999999999,0.68,0.06,3.96,2.08,11.77
9.138252019882202,3,3,3,3,-9.26,0.43,0.42,2.9,3.04,11.89
9.148252010345459,3,3,3,3,-9.26,0.43,0.42,2.59,2.86,11.64
9.158252000808716,3,3,3,3,-9.91,1,-0.02,2.91,2.52,11.25
9.168251991271973,3,3,3,3,-9.380000000000001,1.59,0.8,2.37,3.12,10.99
9.178251981735229,3,3,3,3,-9.470000000000001,1.95,0.02,2.13,3.56,11.12
9.188251972198486,3,3,3,3,-10.53,1.26,0.12,0.2,3.76,11.36
9.198251962661743,3,3,3,3,-10.53,1.26,0.12,-2.11,3.68,11.04
9.208251953125,3,3,3,3,-10.89,0,0.14,-2.93,3.46,10.25
9.218251943588257,3,3,3,3,-10.56,-1.72,-0.57,-1.71,3.74,9.539999999999999
9.228251934051514,3,3,3,3,-10.76,-2.12,-0.85,0.7,4.05,8.93
9.23825216293335,3,3,3,3,-10.75,-1.74,-0.97,3.62,4.14,8.49
9.248252153396606,3,3,3,3,-10.75,-1.74,-0.97,5.03,3.87,8.109999999999999
9.258252143859863,3,3,3,3,-10.5,-1.79,-1.04,5.97,3.41,7.36
9.26825213432312,3,3,3,3,-11.28,0.67,-1.72,6.29,2.85,6.34
9.278252124786377,3,3,3,3,-12.1,1.2,-1.15,5.52,1.84,4.94
9.288252115249634,3,3,3,3,-13.07,1.22,-0.83,3.39,1,3.2
9.298252105712891,3,3,3,3,-13.07,1.22,-0.83,0.63,0.23,1.37
9.308252096176147,3,3,3,3,-13.68,1.12,-1.12,-2.4,-0.26,-0.41
9.318252086639404,3,3,3,3,-15.74,-1.71,-0.78,-3.71,-0.63,-2.27
9.328252077102661,3,3,3,3,-16.59,-2.22,-0.47,-4.03,-0.98,-3.97
9.338252067565918,3,3,3,3,-17.24,-2.98,0.23,-4.36,-1.59,-5.11
9.348252058029175,3,3,3,3,-17.24,-2.98,0.23,-4.35,-2.43,-6.07
9.358252048492432,3,3,3,3,-17.82,-4.21,1.39,-4.13,-3.25,-7.27
9.368252038955688,3,3,3,3,-18.58,-5.94,2.71,-3.82,-4.42,-8.69
9.378252029418945,3,3,3,3,-18.97,-6.49,3.44,-3.14,-5.98,-10.17
9.388252019882202,3,3,3,3,-19.72,-7.78,5.26,-1.6,-7.13,-12.07
9.398252010345459,3,3,3,2,-19.72,-7.78,5.26,0.3,-7.81,-14.01
9.408252000808716,3,3,3,2,-20.36,-8.77,6.41,2.91,-9.029999999999999,-16.3
9.418251991271973,3,3,3,2,-22.92,-11.11,1.59,4.84,-10.1,-18.97
9.428251981735229,3,3,3,2,-24.84,-11.57,-0.6,6.2,-10.85,-21.55
9.438251972198486,3,3,3,2,-27.13,-11.97,-2.75,6.39,-11.11,-23.28
9.448251962661743,3,3,3,2,-27.13,-11.97,-2.75,6.04,-10.5,-23.91
9.458251953125,3,3,3,2,-29.22,-11.55,-4.33,4.69,-9.029999999999999,-23.42
9.468251943588257,3,3,3,2,-28.4,-4.14,-7.67,2.85,-7.11,-23.74
9.478251934051514,3,3,3,2,-25.63,-0.15,-7.99,-1.89,-5.45,-25.11
9.48825216293335,3,3,3,2,-23.06,0.15,-6.68,-4.82,-2.8,-26.29
9.498252153396606,3,3,3,2,-23.06,0.15,-6.68,-0.15,-0.68,-27.53
9.508252143859863,3,3,3,2,-17.55,-0.86,-5.03,7.55,-0.13,-28.83
9.51825213432312,3,3,3,2,-8.52,-0.52,-3.05,23.01,-2.71,-29.93
9.528252124786377,3,3,3,2,-7.17,22.24,-3.41,43.75,-9.77,-28.85
9.538252115249634,3,3,3,2,-3.12,39.2,22.1,26.95,-15.24,-15.2
9.548252105712891,3,3,3,1,3.18,38.72,8.24,-7.27,-2.28,-0.83
9.558252096176147,3,3,3,1,5.04,19.97,5.72,-16.9,7.42,6.36
9.568252086639404,3,3,3,1,1.44,-1.76,2.18,-10.61,5.81,9.43
9.578252077102661,3,3,3,1,-9.59,2.08,5.81,4.88,4.17,4.9
9.588252067565918,3,3,3,1,-4.59,5.67,2.39,10.6,0.76,6.31
9.598252058029175,3,3,3,1,-1.71,3.79,1.76,5.34,0.63,11.8
9.608252048492432,3,3,3,1,-0.71,-1.11,-0.13,-6.34,-0.37,14.08
9.618252038955688,3,3,3,1,-0.51,-8.25,-1.1,-15.57,-2.49,11.74
9.628252029418945,3,3,3,1,1.13,-6.87,-5.47,-16.52,-1.08,9.26
9.638252019882202,3,3,3,1,0.07000000000000001,-5.4,-7.24,-17.28,4.43,8.970000000000001
9.648252010345459,3,3,3,1,-0.96,-7.15,-5.2,-14.86,3.7,8.5
9.658252000808716,3,3,3,1,-1.46,-3.15,-4.74,-3.62,0.16,6.65
9.668251991271973,3,3,3,1,-1.54,-0.03,-5.5,2.63,-2.4,6.74
9.678251981735229,3,3,3,1,-1.17,0.91,-4.59,-0.47,-4.79,8.33
9.688251972198486,3,3,3,1,0.15,-0.44,-2.5,-4.94,-6.54,9.69
9.698251962661743,3,3,3,1,1.47,-5.15,-1.35,-6.33,-6.55,9.640000000000001
9.708251953125,3,3,3,1,2.1,-7.08,-1.72,-3.11,-4.78,8.74
9.718251943588257,3,3,3,1,2.61,-7.57,-1.78,3.45,-0.84,7.99
9.728251934051514,3,3,3,1,2.83,-6.85,-1.92,9.42,3.14,7.72
9.73825216293335,3,3,3,1,1.5,-3.13,-1.88,12.02,6.35,7.49
9.748252153396606,3,3,3,1,0.57,-2.02,-1.25,10.53,7.5,6.93
9.758252143859863,3,3,3,1,-0.21,-1.69,-0.82,7.66,6.69,5.95
9.76825213432312,3,3,3,1,-0.52,-1.05,-0.77,4.72,4.98,4.92
9.778252124786377,3,3,3,1,-0.51,1.18,-0.18,1.26,3.48,4.55
9.788252115249634,3,3,3,1,-0.97,2.08,1.12,-5.29,2.63,4.46
9.798252105712891,3,3,3,1,-1.32,1.86,1.57,-13.09,2.05,4.7
9.808252096176147,3,3,3,1,-1.14,1.07,0.72,-13.09,2.05,4.7
9.818252086639404,3,3,3,1,-0.07000000000000001,-0.47,-2.67,-17.45,1.22,5.04
9.828252077102661,3,3,3,1,-0.48,-1.57,-2.54,-18.86,1.73,4.64
9.838252067565918,3,3,3,1,-0.61,-2.8,-2.08,-18.79,2.41,3.65
9.848252058029175,3,3,3,1,-0.52,-2.33,-0.67,-11.89,2.19,1.75
9.858252048492432,3,3,3,1,0.37,-1.68,0.65,-11.89,2.19,1.75
9.868252038955688,3,3,3,1,1.48,-1.4,0.27,-8.640000000000001,2.17,2.01
9.878252029418945,3,3,3,1,1.99,-0.3,-0.32,-5.56,1.71,2.56
9.888252019882202,3,3,3,1,1.04,1.33,-1,-1.8,2.24,2.64
9.898252010345459,3,3,3,1,-0.41,1.8,-1.1,-0.46,2.59,0.51
9.908252000808716,3,3,3,1,-3.22,7.86,0.78,-0.46,2.59,0.51
9.918251991271973,3,3,3,1,-6.48,25.5,8.029999999999999,8.25,-0.47,-1.65
9.928251981735229,3,3,3,1,-13.91,-4.06,11.84,20.47,-4.83,-3.77
9.938251972198486,3,3,3,1,-19.82,-33.98,-8.17,-11.16,-4.12,-8.210000000000001
9.948251962661743,3,3,3,2,-33.03,-0.27,-7.9,-37.69,0.91,-12.37
9.958251953125,3,3,3,2,-38.86,30.22,5.71,19.38,-1.95,-17.64
9.968251943588257,3,3,3,2,-26.14,14.44,-10.24,31.08,-1.46,-2.68
9.978251934051514,3,3,3,2,-21.14,23.68,-7.54,7.12,9.789999999999999,16.7
9.98825216293335,3,3,3,2,-36.96,39.25,4.76,7.08,9.08,15.99
9.998252153396606,3,3,3,2,-39.36,20.81,20.61,10.14,6.6,14.92
10.01025199890137,3,3,3,2,-16.19,-27.79,1.72,-39.76,5.33,24.15
10.01925206184387,3,3,3,2,-12,-39.19,-5.8,-52.04,8.460000000000001,20.9
10.02925205230713,3,3,3,2,-7.1,-39.16,-3.02,-46.68,10.23,13.95
10.03925204277039,3,3,3,2,-7.9,-38.31,-1.27,3.65,7.32,5.47
10.04925203323364,3,3,3,2,-9.289999999999999,-11.97,-5.12,52.18,4.83,1.94
10.0592520236969,3,3,3,2,-10.3,-3.34,-5.02,62.48,1.94,-0.39
10.06925201416016,3,3,3,2,-14.45,6.96,-3.89,51.52,-2.62,-6.5
10.07925200462341,3,3,3,2,-19.81,17.92,-0.1,34.53,-7.54,-12.53
10.08925199508667,3,3,3,2,-32.06,12.61,4.82,9.56,-9.5,-14.78
10.09925198554993,3,3,3,2,-33.22,-4.39,0,-27.58,-6.46,-8.25
10.10925197601318,3,3,3,2,-17.96,-7.27,-0.05,-52.44,-0.83,2.53
10.11925196647644,3,3,3,2,-4.6,-9.65,0.09,-47.51,0.68,4.24
10.1292519569397,3,3,3,2,-6.11,-12.7,-1.75,-38.72,1.38,1.36
10.13925194740295,3,3,3,2,-8.75,-10.37,-0.76,-25.62,1.65,-3.43
10.14925193786621,3,3,3,2,-9.880000000000001,-7.41,-0.12,-11.78,2.44,-7.42
10.15925192832947,3,3,3,2,-9.619999999999999,-4.73,-0.27,-0.77,1.47,-10.49
10.1692521572113,3,3,3,2,-8.35,-2.08,-0.83,5.9,0.34,-12.62
10.17925214767456,3,3,3,2,-7.71,-1.62,-0.79,9.1,-0.76,-13.53
10.18925213813782,3,3,3,2,-7.27,-1.4,-0.61,9.68,-1.69,-13.39
10.19925212860107,3,3,3,1,-7.35,-1.4,-0.58,8.94,-1.75,-12.37
10.20925211906433,3,3,3,1,-8.01,-0.9399999999999999,-0.54,7.95,-1.27,-10.52
10.21925210952759,3,3,3,1,-7.02,-0.3,-0.82,7.28,-0.42,-8.779999999999999
10.22925209999084,3,3,3,1,-5.62,1.44,-0.83,6.87,-0.13,-8.130000000000001
10.2392520904541,3,3,3,1,-4.37,3.27,0.07000000000000001,5.95,-0.38,-8.98
10.24925208091736,3,3,3,1,-4.66,4.31,0.7,4.5,-0.86,-9.890000000000001
10.25925207138062,3,3,3,1,-5.59,5.45,1.15,2.36,-1.54,-10.26
10.26925206184387,3,3,3,1,-6.78,6.05,1.82,-0.64,-2.19,-9.84
10.27925205230713,3,3,3,1,-9.81,5.62,3,-3.94,-2.68,-9.17
10.28925204277039,3,3,3,1,-11.56,4.65,3.1,-6.95,-2.56,-8.52
10.29925203323364,3,3,3,1,-12.48,3.48,3.28,-10.15,-2.07,-7.53
10.3092520236969,3,3,3,1,-12.59,2.6,3.63,-11.24,-0.79,-6.14
10.31925201416016,3,3,3,1,-10.37,0.47,2.41,-9.699999999999999,1.08,-4.86
10.32925200462341,3,3,3,1,-8.24,-0.16,1.78,-7.62,1.72,-3.86
10.33925199508667,3,3,3,1,-7.56,0.33,1.28,-4.92,1.58,-3.53
10.34925198554993,3,3,3,1,-8.220000000000001,0.89,0.95,-1.98,1.45,-3.63
10.35925197601318,3,3,3,1,-9.48,1.49,-0.03,-0.51,1.09,-3.71
10.36925196647644,3,3,3,1,-9.91,1.13,-0.77,-0.53,0.72,-3.56
10.3792519569397,3,3,3,1,-10.31,0.33,-1.17,-2.49,0.54,-3.1
10.38925194740295,3,3,3,1,-10.72,-0.52,-1.13,-4.25,0.21,-2.94
10.39925193786621,3,3,3,1,-10.88,-2.5,-0.57,-4.78,-0.12,-3.34
10.40925192832947,3,3,3,1,-10.22,-3.04,-0.24,-4.41,-0.37,-3.76
10.4192521572113,3,3,3,1,-9.529999999999999,-3.43,0.09,-3.48,-0.67,-3.76
10.42925214767456,3,3,3,1,-9.09,-3.59,0.6,-1.79,-0.88,-3.56
10.43925213813782,3,3,3,1,-8.789999999999999,-2.58,1.81,0.13,-0.89,-3.3
10.44925212860107,3,3,3,1,-8.85,-1.76,2,2.12,-0.72,-2.99
10.45925211906433,3,3,3,1,-8.98,-1,1.9,3.57,-0.43,-2.71
10.46925210952759,3,3,3,1,-9.24,-0.11,1.57,3.92,-0.16,-2.36
10.47925209999084,3,3,3,1,-9.6,1.48,0.99,3.58,0.06,-1.95
10.4892520904541,3,3,3,1,-9.640000000000001,1.85,0.7,2.78,0.14,-1.43
10.49925208091736,3,3,3,1,-9.69,1.78,0.58,1.55,0.19,-0.97
10.50925207138062,3,3,3,1,-9.789999999999999,1.78,0.4,0.44,0.19,-0.59
10.51925206184387,3,3,3,1,-9.699999999999999,0.22,0.05,-1.02,0.2,-0.11
10.52925205230713,3,3,3,1,-9.56,-1,-0.09,-2.68,0.32,0.39
10.53925204277039,3,3,3,1,-9.66,-2.17,0,-3.43,0.32,0.65
10.54925203323364,3,3,3,1,-9.720000000000001,-3.03,0.04,-3.2,0.41,0.64
10.56925201416016,3,3,3,1,-9.94,-3.46,-0.03,-0.59,0.41,-0.19
10.57925200462341,3,3,3,1,-9.74,-3.14,0.04,0.83,0.45,-0.67
10.58925199508667,3,3,3,1,-9.630000000000001,-2.62,0.08,1.91,0.38,-1.09
10.59925198554993,3,3,3,1,-9.609999999999999,-1.59,0.45,2.03,0.36,-1.34
10.60925197601318,3,3,3,1,-9.58,-1.01,0.58,1.75,0.34,-1.29
10.61925196647644,3,3,3,1,-9.65,-0.76,0.64,1.04,0.31,-1.22
10.6292519569397,3,3,3,1,-9.640000000000001,-0.96,0.82,-0.03,0.39,-0.97
10.63925194740295,3,3,3,1,-9.619999999999999,-1.02,0.67,-0.82,0.39,-0.6899999999999999
10.64925193786621,3,3,3,1,-9.630000000000001,-1.56,0.66,-1.38,0.39,-0.47
10.65925192832947,3,3,3,1,-9.539999999999999,-1.76,0.5600000000000001,-1.91,0.49,-0.15
10.6692521572113,3,3,3,1,-9.460000000000001,-1.73,0.03,-1.54,0.42,-0.05
10.67925214767456,3,3,3,1,-9.41,-1.88,0.02,-1.52,0.32,0.07000000000000001
10.68925213813782,3,3,3,1,-9.42,-2.08,-0.1,-1.5,0.27,0.03
10.69925212860107,3,3,3,1,-9.58,-2.27,-0.19,-1.71,0.26,-0.12
10.70925211906433,3,3,3,1,-9.609999999999999,-2.3,-0.07000000000000001,-2.14,0.13,-0.19
10.71925210952759,3,3,3,1,-9.6,-2.29,-0.11,-1.94,0.02,-0.36
10.72925209999084,3,3,3,1,-9.58,-2.22,0.08,-1.96,-0.02,-0.51
10.7392520904541,3,3,3,1,-9.57,-1.96,0.23,-1.69,-0.03,-0.61
10.74925208091736,3,3,3,2,-9.67,-1.37,0.54,-1.34,-0.04,-0.68
10.75925207138062,3,3,3,2,-9.699999999999999,-1.43,0.55,-1.52,0.01,-0.47
10.76925206184387,3,3,3,2,-9.699999999999999,-1.47,0.46,-1.57,0.01,-0.19
10.77925205230713,3,3,3,2,-9.789999999999999,-1.6,0.35,-1.71,0.08,-0.01
10.78925204277039,3,3,3,2,-9.789999999999999,-2.33,0.12,-1.85,0.19,0.15
10.79925203323364,3,3,3,2,-9.710000000000001,-2.52,0.05,-1.95,0.23,0.27
10.8092520236969,3,3,3,2,-9.550000000000001,-2.41,-0.11,-1.54,0.16,0.28
10.81925201416016,3,3,3,2,-9.460000000000001,-2.46,-0.35,-1.09,0.16,0.15
10.82925200462341,3,3,3,2,-9.43,-2.52,-0.26,-1.03,0.2,0.09
10.83925199508667,3,3,3,2,-9.470000000000001,-2.62,-0.1,-0.67,0.17,-0.08
10.84925198554993,3,3,3,3,-9.529999999999999,-2.5,-0.04,-0.39,0.11,-0.16
10.85925197601318,3,3,3,3,-9.630000000000001,-2.63,0.12,-0.19,0.13,-0.16
10.86925196647644,3,3,3,3,-9.58,-2.37,0.25,0.11,0.11,-0.16
10.8792519569397,3,3,3,3,-9.609999999999999,-2.18,0.36,0.43,0.08,-0.11
10.88925194740295,3,3,3,3,-9.6,-1.92,0.4,0.62,-0.01,-0.14
10.89925193786621,3,3,3,3,-9.630000000000001,-1.55,0.35,0.64,-0.11,-0.14
10.90925192832947,3,3,3,3,-9.67,-1.95,0.35,0.07000000000000001,-0.08,-0.02
10.9192521572113,3,3,3,3,-9.66,-1.94,0.1,-0.48,0.04,0.07000000000000001
10.92925214767456,3,3,3,3,-9.619999999999999,-2.07,0.16,-0.68,0.12,0.1
10.93925213813782,3,3,3,3,-9.57,-2.17,0.12,-0.59,0.08,0.08
10.94925212860107,3,3,3,3,-9.51,-1.9,0.08,-0.34,0.03,0
10.95925211906433,3,3,3,3,-9.630000000000001,-1.63,-0.01,-0.13,-0.1,-0.11
10.96925210952759,3,3,3,3,-9.699999999999999,-2.03,0.07000000000000001,-0.48,0,-0.05
10.97925209999084,3,3,3,3,-9.640000000000001,-2.13,0.1,-0.76,0.16,0.13
10.9892520904541,3,3,3,3,-9.6,-2.26,0.26,-0.55,0.22,0.13
10.99925208091736,3,3,3,3,-9.58,-2.35,0.29,-0.23,0.2,0.04
11.00925207138062,3,3,3,3,-9.56,-2.24,0.27,0.23,0.11,-0.01
11.01925206184387,3,3,3,3,-9.529999999999999,-1.9,0.19,0.52,0.06,-0.08
11.03025197982788,3,3,3,3,-9.550000000000001,-1.82,0.35,0.34,0.04,-0.01
11.04025197029114,3,3,3,3,-9.59,-1.88,0.38,0.13,0.1,0.07000000000000001
11.05025196075439,3,3,3,3,-9.69,-1.94,0.45,-0.23,0.14,0.11
11.06025195121765,3,3,3,3,-9.69,-2.24,0.36,-0.3,0.18,0.12
11.07025194168091,3,3,3,3,-9.67,-2.16,0.22,-0.38,0.19,0.08
11.08025193214417,3,3,3,3,-9.58,-2.13,0.19,-0.26,0.15,0.07000000000000001
11.090252161026,3,3,3,3,-9.460000000000001,-2.13,0.21,-0.2,0.16,0.08
11.10025215148926,3,3,3,3,-9.550000000000001,-2.04,0.27,-0.16,0.14,0.08
11.11025214195251,3,3,3,3,-9.51,-2.13,0.26,-0.15,0.1,0.08
11.12025213241577,3,3,3,3,-9.58,-2.07,0.08,-0.22,0.05,0.08
11.13025212287903,3,3,3,3,-9.609999999999999,-2.01,0.13,-0.36,0.04,0.05
11.14025211334229,3,3,3,3,-9.65,-2.14,0.17,-0.47,0.01,0.02
11.15025210380554,3,3,3,3,-9.640000000000001,-2.09,0.14,-0.47,0.03,-0.03
11.1602520942688,3,3,3,3,-9.57,-2.11,0.1,-0.6,-0.02,-0.02
11.17025208473206,3,3,3,3,-9.57,-2.11,-0.01,-0.59,0.03,0
11.18025207519531,3,3,3,3,-9.609999999999999,-2.01,0.09,-0.57,0.08,-0.05
11.19025206565857,3,3,3,3,-9.609999999999999,-2.07,0.16,-0.51,0.07000000000000001,-0.01
11.20025205612183,3,3,3,3,-9.619999999999999,-2.06,0.15,-0.58,0.13,0.01
11.21025204658508,3,3,3,3,-9.65,-2.07,0.22,-0.5,0.12,0.03
11.22025203704834,3,3,3,3,-9.630000000000001,-2.15,0.07000000000000001,-0.39,0.15,0.04
11.2302520275116,3,3,3,3,-9.619999999999999,-2.11,0.16,-0.2,0.14,0.07000000000000001
11.24025201797485,3,3,3,3,-9.6,-2.02,0.15,-0.03,0.08,0.07000000000000001
11.25025200843811,3,3,3,3,-9.57,-2.12,0.2,0.06,0.08,0.09
11.26025199890137,3,3,3,3,-9.58,-1.91,0.11,0.1,0.12,0.1
11.27025198936462,3,3,3,3,-9.58,-2.05,0.07000000000000001,0.06,0.11,0.09
11.28025197982788,3,3,3,3,-9.6,-2.09,0.1,-0.02,0.14,0.13
11.29025197029114,3,3,3,3,-9.58,-2,0.14,0,0.14,0.14
11.30025196075439,3,3,3,3,-9.539999999999999,-1.94,0.18,0.02,0.11,0.13
11.31025195121765,3,3,3,3,-9.6,-1.98,0.15,-0.18,0.12,0.09
11.32025194168091,3,3,3,3,-9.619999999999999,-2.02,0.09,-0.41,0.09,0.1
11.33025193214417,3,3,3,3,-9.640000000000001,-2.06,0.1,-0.59,0.04,0.09
11.340252161026,3,3,3,3,-9.59,-2.16,0.13,-0.6899999999999999,0.04,0.09
11.35025215148926,3,3,3,3,-9.58,-2.22,0.08,-0.79,0.04,0.12
11.36025214195251,3,3,3,3,-9.58,-2.24,0.09,-0.79,0,0.13
11.37025213241577,3,3,3,3,-9.57,-2.21,0.01,-0.67,-0.04,0.1
11.38025212287903,3,3,3,3,-9.609999999999999,-2.02,0.02,-0.49,-0.05,0.1
11.39025211334229,3,3,3,3,-9.630000000000001,-1.91,0.03,-0.29,-0.11,0.03
11.40025210380554,3,3,3,3,-9.6,-2.07,0.12,-0.32,-0.07000000000000001,0.08
11.4102520942688,3,3,3,3,-9.59,-2.13,0.12,-0.36,0.03,0.1
11.42025208473206,3,3,3,3,-9.58,-2.22,0.11,-0.16,0.06,0.1
11.43025207519531,3,3,3,3,-9.58,-2.21,0.09,0.15,-0.01,0.07000000000000001
11.44025206565857,3,3,3,3,-9.59,-2.11,0.14,0.39,-0.08,0.07000000000000001
11.45025205612183,3,3,3,3,-9.609999999999999,-1.68,0.13,0.55,-0.16,0.02
11.46025204658508,3,3,3,3,-9.619999999999999,-1.79,0.14,0.37,-0.19,0.05
11.47025203704834,3,3,3,3,-9.65,-1.92,0.06,0.01,-0.08,0.08
11.4802520275116,3,3,3,3,-9.640000000000001,-2,0.12,-0.22,0.01,0.14
11.49025201797485,3,3,3,3,-9.6,-2.21,0.19,-0.18,0.03,0.15
11.50025200843811,3,3,3,3,-9.609999999999999,-2.13,0.18,-0.01,-0.01,0.1
11.51025199890137,3,3,3,3,-9.56,-1.95,0.16,0.19,-0.1,0.07000000000000001
11.52025198936462,3,3,3,3,-9.56,-1.88,0.08,0.24,-0.15,0
11.53025197982788,3,3,3,3,-9.640000000000001,-1.92,0.14,0.09,-0.17,0.05
11.54025197029114,3,3,3,3,-9.609999999999999,-2.01,0.17,-0.01,-0.14,0.06
11.56025195121765,3,3,3,3,-9.59,-2.14,0.24,0.03,-0.05,0.12
11.57025194168091,3,3,3,3,-9.57,-2.16,0.12,0.18,-0.06,0.07000000000000001
11.58025193214417,3,3,3,3,-9.56,-2.1,0.13,0.31,-0.08,0.06
11.590252161026,3,3,3,3,-9.57,-2.13,0.21,0.36,-0.11,0.06
11.60025215148926,3,3,3,3,-9.59,-2.13,0.2,0.31,-0.1,0.06
11.61025214195251,3,3,3,3,-9.609999999999999,-2.17,0.18,0.23,-0.1,0.03
11.62025213241577,3,3,3,3,-9.59,-2.16,0.11,0.29,-0.11,0.03
11.63025212287903,3,3,3,3,-9.58,-2.11,0.2,0.37,-0.13,-0.02
11.64025211334229,3,3,3,3,-9.57,-2.06,0.23,0.4,-0.12,-0.06
11.65025210380554,3,3,3,3,-9.58,-2.05,0.31,0.36,-0.13,-0.06
11.6602520942688,3,3,3,3,-9.59,-2,0.27,0.31,-0.13,-0.04
11.67025208473206,3,3,3,3,-9.619999999999999,-1.99,0.2,0.29,-0.09,-0.04
11.68025207519531,3,3,3,3,-9.609999999999999,-2.02,0.17,0.26,-0.08,-0.04
11.69025206565857,3,3,3,3,-9.58,-2.02,0.26,0.22,-0.1,-0.02
11.70025205612183,3,3,3,3,-9.550000000000001,-2.05,0.3,0.24,-0.08,-0.04
11.71025204658508,3,3,3,3,-9.59,-2.05,0.32,0.27,-0.1,-0.06
11.72025203704834,3,3,3,3,-9.58,-2.06,0.17,0.25,-0.09,-0.09
11.7302520275116,3,3,3,3,-9.609999999999999,-2.11,0.23,0.22,-0.1,-0.06
11.74025201797485,3,3,3,3,-9.619999999999999,-2.19,0.26,0.12,-0.04,-0.06
11.75025200843811,3,3,3,3,-9.58,-2.15,0.27,0.15,-0.02,-0.06
11.76025199890137,3,3,3,3,-9.58,-2.05,0.29,0.27,-0.03,-0.06
11.77025198936462,3,3,3,3,-9.609999999999999,-2.03,0.15,0.19,-0.01,-0.08
11.78025197982788,3,3,3,3,-9.58,-2.04,0.26,0.18,-0.02,-0.09
11.79025197029114,3,3,3,3,-9.609999999999999,-2.04,0.26,0.12,-0.03,-0.11
11.80025196075439,3,3,3,3,-9.640000000000001,-2.05,0.29,0.02,-0.04,-0.08
11.81025195121765,3,3,3,3,-9.57,-2.12,0.26,0.02,-0.01,-0.06
11.82025194168091,3,3,3,3,-9.56,-2.13,0.18,0.05,0.01,-0.09
11.83025193214417,3,3,3,3,-9.59,-2.13,0.24,0.09,0.02,-0.16
11.840252161026,3,3,3,3,-9.59,-2.18,0.28,0.13,-0.02,-0.18
11.85025215148926,3,3,3,3,-9.59,-2.1,0.26,0.16,0.02,-0.18
11.86025214195251,3,3,3,3,-9.57,-2.07,0.26,0.22,0.01,-0.18
11.87025213241577,3,3,3,3,-9.58,-2.06,0.17,0.23,-0.01,-0.2
11.88025212287903,3,3,3,3,-9.57,-2.15,0.25,0.17,0.02,-0.19
11.89025211334229,3,3,3,3,-9.59,-2.12,0.2,0.24,0.03,-0.18
11.90025210380554,3,3,3,3,-9.619999999999999,-2.06,0.28,0.3,0.07000000000000001,-0.17
11.9102520942688,3,3,3,3,-9.550000000000001,-2,0.28,0.41,0.06,-0.2
11.92025208473206,3,3,3,3,-9.59,-1.89,0.14,0.44,0.1,-0.2
11.93025207519531,3,3,3,3,-9.6,-1.98,0.23,0.34,0.1,-0.17
11.94025206565857,3,3,3,3,-9.609999999999999,-1.99,0.23,0.15,0.14,-0.11
11.95025205612183,3,3,3,3,-9.619999999999999,-2.05,0.21,0.04,0.15,-0.13
11.96025204658508,3,3,3,3,-9.619999999999999,-2.21,0.21,-0.06,0.15,-0.15
11.97025203704834,3,3,3,3,-9.58,-2.19,0.13,-0.01,0.1,-0.18
11.9802520275116,3,3,3,3,-9.56,-2.16,0.18,-0.08,0.09,-0.19
11.99025201797485,3,3,3,3,-9.550000000000001,-2.19,0.25,-0.16,0.13,-0.25
12.00025200843811,3,3,3,3,-9.59,-2.11,0.29,-0.13,0.13,-0.26
12.01025199890137,3,3,3,3,-9.58,-2.08,0.25,-0.16,0.11,-0.27
12.02025198936462,3,3,3,3,-9.58,-1.98,0.12,-0.06,0.13,-0.2
12.03025197982788,3,3,3,3,-9.52,-1.92,0.16,0.01,0.14,-0.17
12.04025197029114,3,3,3,3,-9.56,-1.94,0.19,0.03,0.13,-0.08
12.05125212669373,3,3,3,3,-9.59,-1.97,0.24,0.08,0.14,0
12.06125211715698,3,3,3,3,-9.6,-2,0.2,0.11,0.14,0.02
12.07125210762024,3,3,3,3,-9.67,-2.14,0.11,0.06,0.22,0.07000000000000001
12.0812520980835,3,3,3,3,-9.640000000000001,-2.21,0.13,0.14,0.2,0.02
12.09125208854675,3,3,3,3,-9.609999999999999,-2.28,0.16,0.08,0.19,-0.01
12.10125207901001,3,3,3,3,-9.57,-2.21,0.12,0.13,0.17,-0.06
12.11125206947327,3,3,3,3,-9.56,-2.15,0.17,0.16,0.1,-0.11
12.12125205993652,3,3,3,3,-9.539999999999999,-2.14,0.08,0.04,0.11,-0.12
12.13125205039978,3,3,3,3,-9.539999999999999,-2.12,0.18,-0.01,0.14,-0.1
12.14125204086304,3,3,3,3,-9.59,-2.11,0.22,-0.04,0.12,-0.11
12.15125203132629,3,3,3,3,-9.630000000000001,-2.13,0.22,-0.1,0.06,-0.11
12.16125202178955,3,3,3,3,-9.6,-2.13,0.2,-0.11,0.06,-0.08
12.17125201225281,3,3,3,3,-9.57,-2.24,0.14,-0.14,0.09,-0.03
12.18125200271606,3,3,3,3,-9.529999999999999,-2.15,0.11,-0.03,0.1,0.05
12.19125199317932,3,3,3,3,-9.5,-2.17,0.14,0,0.12,0.08
12.20125198364258,3,3,3,3,-9.529999999999999,-2.16,0.17,0.04,0.09,0.06
12.21125197410583,3,3,3,3,-9.58,-2.13,0.15,0.02,0.04,0.04
12.22125196456909,3,3,3,3,-9.609999999999999,-2.15,0.12,-0.08,0.06,0.04
12.23125195503235,3,3,3,3,-9.619999999999999,-2.14,0.15,-0.11,0.04,0.01
12.24125194549561,3,3,3,3,-9.609999999999999,-2.16,0.18,-0.22,0.06,0.03
12.25125193595886,3,3,3,3,-9.57,-2.14,0.22,-0.29,0.06,0.03
12.2612521648407,3,3,3,3,-9.550000000000001,-2.11,0.24,-0.26,0.08,0.01
12.27125215530396,3,3,3,3,-9.56,-2.12,0.13,-0.24,0.08,-0.03
12.28125214576721,3,3,3,3,-9.57,-2.08,0.13,-0.23,0.08,-0.03
12.29125213623047,3,3,3,3,-9.58,-2.13,0.22,-0.26,0.11,-0.03
12.30125212669373,3,3,3,3,-9.6,-2.13,0.24,-0.23,0.14,-0.01
12.31125211715698,3,3,3,3,-9.609999999999999,-2.27,0.21,-0.21,0.09,-0.03
12.32125210762024,3,3,3,3,-9.6,-2.29,0.11,-0.16,0.04,-0.04
12.3312520980835,3,3,3,3,-9.57,-2.29,0.13,-0.07000000000000001,0.02,-0.09
12.34125208854675,3,3,3,3,-9.52,-2.34,0.17,-0.06,0.07000000000000001,-0.09
12.35125207901001,3,3,3,3,-9.51,-2.19,0.12,0.01,0.04,-0.09
12.36125206947327,3,3,3,3,-9.529999999999999,-2.2,0.21,0.04,0.03,-0.12
12.37125205993652,3,3,3,3,-9.529999999999999,-2.24,0.15,-0.09,0.09,-0.13
12.38125205039978,3,3,3,3,-9.56,-2.22,0.17,-0.08,0.08,-0.16
12.39125204086304,3,3,3,3,-9.6,-2.15,0.31,-0.15,0.01,-0.21
12.40125203132629,3,3,3,3,-9.609999999999999,-2.1,0.32,-0.25,0,-0.25
12.41125202178955,3,3,3,3,-9.59,-2.11,0.3,-0.3,0.03,-0.27
12.42125201225281,3,3,3,3,-9.58,-2.04,0.19,-0.35,0.02,-0.27
12.43125200271606,3,3,3,3,-9.58,-1.89,0.15,-0.42,0.02,-0.25
12.44125199317932,3,3,3,3,-9.59,-1.88,0.22,-0.62,0.09,-0.22
12.45125198364258,3,3,3,3,-9.609999999999999,-1.92,0.23,-0.79,0.12,-0.14
12.46125197410583,3,3,3,3,-9.630000000000001,-1.93,0.2,-0.84,0.2,-0.05
12.47125196456909,3,3,3,3,-9.550000000000001,-1.99,0.12,-0.83,0.28,0.03
12.48125195503235,3,3,3,3,-9.550000000000001,-2.02,0.1,-0.68,0.3,0.02
12.49125194549561,3,3,3,3,-9.539999999999999,-2.09,0.15,-0.5,0.26,0.04
12.50125193595886,3,3,3,3,-9.57,-2.19,0.16,-0.4,0.21,0.03
12.5112521648407,3,3,3,3,-9.640000000000001,-2.4,0.13,-0.34,0.22,-0.03
12.52125215530396,3,3,3,3,-9.640000000000001,-2.43,0.09,-0.2,0.21,-0.12
12.53125214576721,3,3,3,3,-9.66,-2.39,0.12,-0.06,0.21,-0.25
12.54125213623047,3,3,3,3,-9.6,-2.5,0.15,-0.06,0.2,-0.3
12.55125212669373,3,3,3,3,-9.470000000000001,-2.23,0.2,0.15,0.14,-0.37
12.56125211715698,3,3,3,3,-9.460000000000001,-2.21,0.16,0.13,0.1,-0.34
12.57125210762024,3,3,3,3,-9.449999999999999,-2.14,0.04,0.12,0.13,-0.35
12.5812520980835,3,3,3,3,-9.529999999999999,-2.04,0.05,0.12,0.12,-0.38
12.59125208854675,3,3,3,3,-9.69,-2,0.1,0.02,0.12,-0.37
12.60125207901001,3,3,3,3,-9.69,-2.02,0.11,-0.27,0.1,-0.33
12.61125206947327,3,3,3,3,-9.68,-2.12,0.13,-0.47,0.13,-0.26
12.62125205993652,3,3,3,3,-9.66,-2.23,0.05,-0.55,0.19,-0.24
12.63125205039978,3,3,3,3,-9.539999999999999,-2.34,0.05,-0.61,0.15,-0.27
12.64125204086304,3,3,3,3,-9.52,-2.41,0.05,-0.6899999999999999,0.15,-0.34
12.65125203132629,3,3,3,3,-9.44,-2.41,0.11,-0.61,0.15,-0.4
12.66125202178955,3,3,3,3,-9.44,-2.44,0.08,-0.47,0.1,-0.45
12.67125201225281,3,3,3,3,-9.48,-2.34,-0.14,-0.33,0.08,-0.5
12.68125200271606,3,3,3,3,-9.56,-2.22,-0.11,-0.23,0.08,-0.5
12.69125199317932,3,3,3,3,-9.59,-2.18,-0.02,-0.19,0.08,-0.45
12.70125198364258,3,3,3,3,-9.609999999999999,-1.98,-0.02,0.03,0.14,-0.4
12.71125197410583,3,3,3,3,-9.609999999999999,-1.95,0,0.16,0.18,-0.32
12.72125196456909,3,3,3,3,-9.57,-1.97,0.03,0.21,0.22,-0.21
12.73125195503235,3,3,3,3,-9.57,-1.9,0.02,0.39,0.22,-0.15
12.74125194549561,3,3,3,3,-9.550000000000001,-2.03,0.1,0.42,0.18,-0.08
12.75125193595886,3,3,3,3,-9.609999999999999,-2.14,0.12,0.37,0.19,-0.05
12.7612521648407,3,3,3,3,-9.630000000000001,-2.22,0.02,0.36,0.21,-0.03
12.77125215530396,3,3,3,3,-9.640000000000001,-2.37,0,0.27,0.24,-0.04
12.78125214576721,3,3,3,3,-9.59,-2.5,-0.01,0.31,0.25,-0.05
12.79125213623047,3,3,3,3,-9.539999999999999,-2.53,0.03,0.3,0.23,-0.09
12.80125212669373,3,3,3,3,-9.49,-2.45,0.03,0.37,0.24,-0.13
12.81125211715698,3,3,3,3,-9.449999999999999,-2.42,0.08,0.35,0.17,-0.16
12.82125210762024,3,3,3,3,-9.5,-2.26,0,0.32,0.1,-0.2
12.8312520980835,3,3,3,3,-9.550000000000001,-2.17,0.03,0.22,0.06,-0.2
12.84125208854675,3,3,3,3,-9.58,-2.15,0,0.05,0.05,-0.21
12.85125207901001,3,3,3,3,-9.58,-2.19,0.01,-0.37,0.14,-0.15
12.86125206947327,3,3,3,3,-9.59,-2.33,-0.02,-0.34,0.11,-0.16
12.87125205993652,3,3,3,3,-9.57,-2.32,-0.04,-0.3,0.08,-0.17
12.88125205039978,3,3,3,3,-9.51,-2.35,0,-0.31,-0.01,-0.2
12.89125204086304,3,3,3,3,-9.48,-2.31,0.01,-0.31,-0.01,-0.2
12.90125203132629,3,3,3,3,-9.529999999999999,-2.44,0.09,-0.55,0.07000000000000001,-0.16
12.91125202178955,3,3,3,3,-9.550000000000001,-2.46,0.05,-0.36,0.07000000000000001,-0.13
12.92125201225281,3,3,3,3,-9.59,-2.43,-0.03,-0.2,-0.03,-0.14
12.93125200271606,3,3,3,3,-9.58,-2.39,0,-0.04,-0.05,-0.15
12.94125199317932,3,3,3,3,-9.529999999999999,-2.26,0,-0.04,-0.05,-0.15
12.95125198364258,3,3,3,3,-9.51,-2.22,0.01,-0.15,0.04,-0.01
12.96125197410583,3,3,3,3,-9.550000000000001,-2.34,0.14,-0.04,0.03,-0.01
12.97125196456909,3,3,3,3,-9.57,-2.25,0.01,-0.02,0.01,-0.02
12.98125195503235,3,3,3,3,-9.56,-2.21,0.01,0.08,-0.03,0.01
12.99125194549561,3,3,3,3,-9.529999999999999,-2.24,0.05,0.08,-0.03,0.01
13.00125193595886,3,3,3,3,-9.529999999999999,-2.23,0.04,-0.13,-0.04,0.02
13.0112521648407,3,3,3,3,-9.57,-2.18,0.02,-0.26,0.03,0.11
13.02125215530396,3,3,3,3,-9.6,-2.41,0.01,-0.12,0.07000000000000001,0.13
13.03125214576721,3,3,3,3,-9.59,-2.31,-0.01,-0.02,0.07000000000000001,0.1
13.04125213623047,3,3,3,3,-9.529999999999999,-2.32,0.05,-0.02,0.07000000000000001,0.1
13.05125212669373,3,3,3,3,-9.48,-2.33,0.11,0.15,-0.05,0.02
13.06125211715698,3,3,3,3,-9.52,-2.29,0.08,0.12,-0.08,0.04
13.07125210762024,3,3,3,3,-9.550000000000001,-2.18,-0.03,-0.07000000000000001,-0.03,0.06
13.08225202560425,3,3,3,3,-9.6,-2.16,0,-0.17,0.05,0.15
13.0922520160675,3,3,3,3,-9.58,-2.2,0.05,-0.17,0.05,0.15
13.10225200653076,3,3,3,3,-9.550000000000001,-2.24,0.08,-0.02,0.03,0.18
13.11225199699402,3,3,3,3,-9.529999999999999,-2.31,0.08,0.09,0.06,0.12
13.12225198745728,3,3,3,3,-9.539999999999999,-2.35,0.01,0.2,-0.02,0.11
13.13225197792053,3,3,3,3,-9.550000000000001,-2.32,0.01,0.22,-0.04,0.11
13.14225196838379,3,3,3,3,-9.52,-2.32,0.05,0.22,-0.04,0.11
13.15225195884705,3,3,3,3,-9.52,-2.26,0.08,0.25,-0.01,0.11
13.1622519493103,3,3,3,3,-9.56,-2.22,0.06,0.21,0.03,0.14
13.17225193977356,3,3,3,3,-9.57,-2.23,0,0.26,0.06,0.14
13.18225193023682,3,3,3,3,-9.57,-2.24,0.01,0.28,0.06,0.15
13.19225215911865,3,3,3,3,-9.539999999999999,-2.29,0.06,0.28,0.06,0.15
13.20225214958191,3,3,3,3,-9.539999999999999,-2.33,0.11,0.32,0.04,0.16
13.21225214004517,3,3,3,3,-9.529999999999999,-2.23,0.06,0.27,0.01,0.09
13.22225213050842,3,3,3,3,-9.529999999999999,-2.26,0,0.19,0.03,0.1
13.23225212097168,3,3,3,3,-9.58,-2.27,0,0.2,-0.01,0.16
13.24225211143494,3,3,3,3,-9.58,-2.24,0.05,0.2,-0.01,0.16
13.25225210189819,3,3,3,3,-9.539999999999999,-2.18,0.09,0.2,0.03,0.17
13.26225209236145,3,3,3,3,-9.529999999999999,-2.21,0.06,0.2,0.03,0.13
13.27225208282471,3,3,3,3,-9.52,-2.27,0.02,0.23,0,0.12
13.28225207328796,3,3,3,3,-9.550000000000001,-2.24,0,0.15,0.01,0.11
13.29225206375122,3,3,3,3,-9.58,-2.26,0.06,0.15,0.01,0.11
13.30225205421448,3,3,3,3,-9.56,-2.27,0.07000000000000001,0.2,0.06,0.14
13.31225204467773,3,3,3,3,-9.539999999999999,-2.25,0.09,0.24,0.01,0.1
13.32225203514099,3,3,3,3,-9.550000000000001,-2.31,0,0.33,-0.03,0.07000000000000001
13.33225202560425,3,3,3,3,-9.539999999999999,-2.36,0.07000000000000001,0.34,-0.05,0.03
13.3422520160675,3,3,3,3,-9.539999999999999,-2.35,0.1,0.34,-0.05,0.03
13.36225199699402,3,3,3,3,-9.56,-2.29,0.11,0.15,-0.07000000000000001,-0.07000000000000001
13.37225198745728,3,3,3,3,-9.58,-2.15,-0.02,-0.01,0,-0.03
13.38225197792053,3,3,3,3,-9.57,-2.14,0.07000000000000001,-0.09,-0.03,-0.07000000000000001
13.39225196838379,3,3,3,3,-9.57,-2.19,0.1,-0.09,-0.03,-0.07000000000000001
13.40225195884705,3,3,3,3,-9.539999999999999,-2.21,0.12,-0.18,-0.03,-0.04
13.4122519493103,3,3,3,3,-9.57,-2.27,0.12,-0.06,-0.07000000000000001,-0.02
13.42225193977356,3,3,3,3,-9.550000000000001,-2.25,0.04,-0.08,-0.02,0
13.43225193023682,3,3,3,3,-9.56,-2.25,0.04,-0.15,0,0.04
13.44225215911865,3,3,3,3,-9.59,-2.22,0.08,-0.15,0,0.04
13.45225214958191,3,3,3,3,-9.57,-2.11,0.1,-0.24,0,0.08
13.46225214004517,3,3,3,3,-9.58,-2.1,0.04,-0.43,0.16,0.21
13.48225212097168,3,3,3,3,-9.720000000000001,-1.9,-0.15,-0.34,0.32,0.47
13.49225211143494,3,3,3,3,-9.69,-1.78,-0.05,-0.34,0.32,0.47
13.50225210189819,3,3,3,3,-9.68,-1.71,0,-0.31,0.49,0.67
13.51225209236145,3,3,3,3,-9.619999999999999,-1.58,-0.03,-0.03,0.88,1.24
13.52225208282471,3,3,3,3,-9.460000000000001,-1.19,0.24,0.54,1.01,1.67
13.53225207328796,3,3,3,3,-9.359999999999999,-0.79,0.51,1.03,1.1,2.15
13.54225206375122,3,3,3,3,-9.24,-0.3,0.72,1.03,1.1,2.15
13.55225205421448,3,3,3,3,-9.18,0.07000000000000001,0.9,1.09,1.1,2.61
13.56225204467773,3,3,3,3,-9.359999999999999,-0.37,0.76,-0.02,1.03,3.31
13.57225203514099,3,3,3,3,-9.57,-0.66,0.5600000000000001,-0.4,1.04,3.6
13.58225202560425,3,3,3,3,-9.800000000000001,-1.03,0.44,-0.43,1.17,3.71
13.5922520160675,3,3,3,3,-9.960000000000001,-1.46,0.38,-0.43,1.17,3.71
13.60225200653076,3,3,3,3,-9.77,-2.4,0.23,-0.19,1.18,3.64
13.61225199699402,3,3,3,3,-9.6,-2.93,0.14,0.8100000000000001,1.21,2.95
13.62225198745728,3,3,3,3,-9.449999999999999,-3.21,0.01,1.5,1.09,2.41
13.63225197792053,3,3,3,3,-9.369999999999999,-3.4,0.09,2,0.91,1.83
13.64225196838379,3,3,3,3,-9.41,-3.46,0.23,2,0.91,1.83
13.65225195884705,3,3,3,3,-9.49,-3.32,0.29,2.18,0.71,1.27
13.6622519493103,3,3,3,3,-9.6,-3.13,0.39,1.34,0.57,0.48
13.67225193977356,3,3,3,3,-9.68,-2.99,0.33,0.5,0.65,0.23
13.68225193023682,3,3,3,3,-9.69,-2.86,0.47,-0.37,0.8,-0.01
13.69225215911865,3,3,3,3,-9.75,-2.84,0.5600000000000001,-0.37,0.8,-0.01
13.70225214958191,3,3,3,3,-9.67,-2.63,0.53,-1.1,0.85,-0.24
13.72225213050842,3,3,3,3,-9.6,-2.54,0.41,-3.04,0.9,-0.99
13.73225212097168,3,3,3,3,-9.68,-2.47,0.52,-3.85,0.75,-1.22
13.74225211143494,3,3,3,3,-9.68,-2.57,0.54,-3.85,0.75,-1.22
13.75225210189819,3,3,3,3,-9.630000000000001,-2.61,0.5,-4.51,0.6899999999999999,-1.4
13.76225209236145,3,3,3,3,-9.49,-2.61,0.22,-5.03,0.63,-1.82
13.77225208282471,3,3,3,3,-9.42,-2.65,0.17,-5.07,0.49,-2.04
13.78225207328796,3,3,3,3,-9.390000000000001,-2.8,0.24,-4.94,0.29,-2.33
13.79225206375122,3,3,3,3,-9.35,-2.9,0.3,-4.94,0.29,-2.33
13.80225205421448,3,3,3,3,-9.34,-2.92,0.36,-4.74,0.14,-2.52
13.81225204467773,3,3,3,3,-9.42,-2.43,-0.06,-4.37,0.02,-2.72
13.82225203514099,3,3,3,3,-9.4,-2.37,-0.12,-4.38,0.08,-2.7
13.8422520160675,3,3,3,3,-9.359999999999999,-2.17,-0.2,-4.18,0.11,-2.72
13.85225200653076,3,3,3,3,-9.32,-1.86,-0.27,-3.97,0.14,-2.74
13.86225199699402,3,3,3,3,-9.5,-1.58,-0.71,-4.18,0.43,-2.48
13.87225198745728,3,3,3,3,-9.67,-1.69,-0.7,-4.03,0.54,-2.34
13.90225195884705,3,3,3,3,-9.640000000000001,-1.44,-0.6,-3.29,0.6899999999999999,-2
13.9122519493103,3,3,3,3,-9.5,-1.33,-0.42,-2.61,0.89,-1.71
13.92225193977356,3,3,3,3,-9.56,-1.5,-0.36,-2.38,0.92,-1.53
13.96225214004517,3,3,3,3,-9.779999999999999,-2.53,-0.99,-1.24,0.98,-1.33
13.97225213050842,3,3,3,3,-9.710000000000001,-2.7,-1.08,-0.43,1.06,-1.51
13.98225212097168,3,3,3,3,-9.640000000000001,-2.75,-1.31,0.46,1.19,-1.75
13.99225211143494,3,3,3,3,-9.640000000000001,-2.75,-1.31,1.32,1.25,-1.99
14.00225210189819,3,3,3,3,-9.640000000000001,-2.77,-1.37,1.32,1.25,-1.99
14.01225209236145,3,3,3,3,-9.67,-1.84,-1.64,3.1,1.25,-2.43
14.02225208282471,3,3,3,3,-9.69,-1.26,-1.25,3.45,1.23,-2.52
14.03225207328796,3,3,3,3,-9.710000000000001,-1.06,-1.13,3.7,1.14,-2.67
14.04225206375122,3,3,3,2,-9.710000000000001,-1.06,-1.13,3.7,1.14,-2.67
14.05225205421448,3,3,3,2,-9.800000000000001,-1.09,-1.01,3.6,1,-2.8
14.06225204467773,3,3,3,2,-9.800000000000001,-1.17,-0.88,3.12,0.91,-2.88
14.07225203514099,3,3,3,2,-9.75,-1.21,-0.8,2.84,0.98,-2.92
14.08225202560425,3,3,3,2,-9.59,-1.22,-0.66,2.62,1.02,-2.85
14.0922520160675,3,3,3,2,-9.59,-1.22,-0.66,2.62,1.02,-2.85
14.10325193405151,3,3,3,2,-9.529999999999999,-1.64,-0.61,2.44,1.1,-2.78
14.11325216293335,3,3,3,2,-9.44,-2.22,-0.85,2.28,1.03,-2.93
14.12325215339661,3,3,3,2,-9.359999999999999,-2.44,-0.85,2.26,0.95,-3.07
14.14325213432312,3,3,3,2,-9.35,-2.63,-0.82,2.24,0.84,-3.3
14.15325212478638,3,3,3,2,-9.25,-2.64,-0.72,2.2,0.77,-3.49
14.16325211524963,3,3,3,2,-9.35,-2.57,-0.83,1.84,0.91,-3.44
14.17325210571289,3,3,3,2,-9.42,-2.55,-0.77,1.75,0.99,-3.19
14.18325209617615,3,3,3,2,-9.390000000000001,-2.47,-0.71,1.72,0.99,-3.03
14.1932520866394,3,3,3,2,-9.369999999999999,-2.47,-0.64,1.67,0.98,-3.01
14.20325207710266,3,3,3,2,-9.34,-2.47,-0.55,1.59,0.98,-3.13
14.21325206756592,3,3,3,2,-9.35,-2.45,-0.64,1.42,0.95,-3.18
14.22325205802917,3,3,3,2,-9.460000000000001,-2.29,-0.5600000000000001,1.25,0.97,-3.29
14.23325204849243,3,3,3,2,-9.449999999999999,-2.27,-0.46,1.22,0.95,-3.37
14.24325203895569,3,3,3,2,-9.48,-2.32,-0.47,1.3,1.03,-3.48
14.25325202941895,3,3,3,2,-9.49,-2.38,-0.43,1.3,1.03,-3.48
14.2632520198822,3,3,3,2,-9.529999999999999,-2.58,-0.46,1.38,1.09,-3.64
14.27325201034546,3,3,3,2,-9.460000000000001,-2.79,-0.5,1.6,1.13,-3.77
14.28325200080872,3,3,3,2,-9.449999999999999,-2.94,-0.5600000000000001,1.83,1.15,-3.83
14.29325199127197,3,3,3,2,-9.43,-2.96,-0.65,2.67,1.25,-3.96
14.32325196266174,3,3,3,2,-9.390000000000001,-3.01,-0.8100000000000001,3.5,1.4,-4.03
14.333251953125,3,3,3,2,-9.26,-2.99,-0.66,3.92,1.45,-4.08
14.34325194358826,3,3,3,2,-9.24,-2.96,-0.71,4.48,1.44,-4.17
14.35325193405151,3,3,3,2,-9.210000000000001,-2.76,-0.68,4.48,1.44,-4.17
14.36325216293335,3,3,3,2,-9.199999999999999,-2.55,-0.77,4.76,1.39,-4.18
14.37325215339661,3,3,3,2,-9.130000000000001,-2.3,-0.77,4.8,1.37,-4.21
14.38325214385986,3,3,3,2,-9.15,-2.39,-0.88,4.67,1.32,-4.15
14.39325213432312,3,3,3,2,-9.26,-2.62,-0.9,4.22,1.25,-4.14
14.40325212478638,3,3,3,2,-9.380000000000001,-2.97,-0.91,3.64,1.18,-4.22
14.41325211524963,3,3,3,2,-9.34,-3.45,-1.09,3.29,1.06,-4.44
14.42325210571289,3,3,3,2,-9.289999999999999,-3.55,-1.03,3.15,0.95,-4.64
14.43325209617615,3,3,3,2,-9.27,-3.51,-0.88,3.19,0.8100000000000001,-4.86
14.4432520866394,3,3,3,2,-9.27,-3.42,-0.82,3.46,0.7,-5.1
14.45325207710266,3,3,3,2,-9.56,-3.4,-0.6899999999999999,3.46,0.57,-5.33
14.46325206756592,3,3,3,2,-9.609999999999999,-3.48,-0.65,3.69,0.52,-5.5
14.47325205802917,3,3,3,2,-9.58,-3.65,-0.79,3.89,0.39,-5.57
14.48325204849243,3,3,3,2,-9.52,-3.53,-0.91,4.05,0.35,-5.66
14.49325203895569,3,3,3,2,-9.59,-3.22,-0.88,4.54,0.35,-5.67
14.50325202941895,3,3,3,2,-9.73,-3.21,-1,5.16,0.37,-5.68
14.5132520198822,3,3,3,2,-10.07,-3.31,-1.2,5.54,0.3,-5.74
14.52325201034546,3,3,3,2,-10.59,-3.31,-1.09,5.75,0.2,-5.92
14.53325200080872,3,3,3,2,-11.21,-3.2,-0.64,5.98,0.06,-6.2
14.54325199127197,3,3,3,2,-11.33,-3,-0.4,6.32,-0.11,-6.36
14.55325198173523,3,3,3,2,-11.42,-2.61,-0.59,6.85,-0.22,-6.48
14.56325197219849,3,3,3,2,-11.44,-2.08,-0.63,6.96,-0.44,-6.46
14.57325196266174,3,3,3,2,-11.48,-1.51,0.15,6.64,-0.73,-6.35
14.583251953125,3,3,3,2,-11.5,-1.48,0.46,6.12,-0.97,-6.11
14.59325194358826,3,3,3,2,-11.48,-1.41,0.64,5.41,-1.19,-5.6
14.60325193405151,3,3,3,2,-11.34,-1.23,0.73,4.88,-1.41,-4.91
14.61325216293335,3,3,3,2,-10.94,-1.43,0.68,4.53,-1.67,-4.2
14.62325215339661,3,3,3,2,-10.86,-1.56,0.63,4.3,-1.75,-3.48
14.63325214385986,3,3,3,2,-10.9,-1.7,0.47,4.34,-1.78,-2.88
14.64325213432312,3,3,3,2,-10.94,-1.78,0.2,4.55,-1.79,-2.36
14.65325212478638,3,3,3,2,-10.9,-1.8,0.43,4.83,-1.69,-1.87
14.66325211524963,3,3,3,2,-10.7,-1.89,0.32,5.53,-1.65,-1.37
14.68325209617615,3,3,3,2,-10.26,-1.31,0.24,7.01,-1.49,-0.21
14.6932520866394,3,3,3,2,-9.800000000000001,-0.11,0.25,8.42,-1.07,0.67
14.70325207710266,3,3,3,2,-9.69,-0.03,0.58,9.56,-0.5,1.95
14.71325206756592,3,3,3,2,-9.640000000000001,-0.07000000000000001,1.3,9.27,-0.09,3.22
14.72325205802917,3,3,3,2,-9.19,0.47,1.99,9.01,-0.26,4.49
14.73325204849243,3,3,3,2,-9.029999999999999,0.63,1.57,9.4,-1.13,5.61
14.74325203895569,3,3,3,1,-9.01,0.86,1.12,9.640000000000001,-2.3,6.41
14.77325201034546,3,3,3,1,-9.31,0.55,1.48,10.7,-4.51,9.93
14.78325200080872,3,3,3,1,-9.4,-0.1,0.9,11.48,-4.85,11.44
14.79325199127197,3,3,3,1,-9.51,-0.57,0.65,11.63,-4.51,12.2
14.80325198173523,3,3,3,1,-10.31,-1.01,0.14,11.09,-3.4,12.4
14.81325197219849,3,3,3,1,-10.9,-1.88,-0.1,9.9,-1.94,12.64
14.82325196266174,3,3,3,1,-11.39,-2.56,-0.3,8.130000000000001,-0.62,12.72
14.833251953125,3,3,3,1,-11.53,-3.37,-0.38,6.77,0.57,12.54
14.84325194358826,3,3,3,1,-11.55,-4.43,-0.38,5.43,1.52,12.57
14.85325193405151,3,3,3,1,-11.52,-4.13,-0.47,4.8,2.59,13.11
14.86325216293335,3,3,3,1,-11.43,-3.92,-0.53,5.24,3.42,13.82
14.87325215339661,3,3,3,1,-11.58,-4.65,0.07000000000000001,5.33,4.12,14.65
14.88325214385986,3,3,3,1,-10.62,-5.56,0.08,4.52,4.23,15.18
14.89325213432312,3,3,3,1,-10.58,-4.88,0.03,3.66,4.38,15.51
14.90325212478638,3,3,3,1,-10.73,-4.19,0.17,2.78,5.39,16.03
14.91325211524963,3,3,3,1,-10.92,-3.75,0.17,1.11,6.28,16.87
14.92325210571289,3,3,3,1,-10.77,-3.74,-0.34,-1.59,6.55,17.83
14.93325209617615,3,3,3,1,-10.6,-3.93,-0.57,-5.03,6.67,18.52
14.9432520866394,3,3,3,1,-10.69,-3.76,-0.58,-7.77,6.91,19.35
14.95325207710266,3,3,3,1,-10.76,-3.86,-0.54,-9.4,6.88,20.1
14.96325206756592,3,3,3,1,-10.74,-3.94,-0.67,-10.28,6.45,20.89
14.97325205802917,3,3,3,1,-10.33,-4.35,-0.47,-11.33,5.79,21.29
14.98325204849243,3,3,3,1,-10.01,-4.55,-0.5,-12.33,5.1,21.52
15.0132520198822,3,3,3,1,-9.51,-3.88,-0.55,-14.6,3.97,21.99
15.02325201034546,3,3,3,1,-9.48,-4.21,-0.57,-16.26,3.59,22.14
15.03325200080872,3,3,3,1,-9.640000000000001,-4.32,-0.24,-17.66,3.17,22.16
15.04325199127197,3,3,3,1,-9.27,-4.41,0.03,-18.31,2.52,22.21
15.05325198173523,3,3,3,1,-9.1,-4.42,0.22,-17.5,2.63,21.94
15.06325197219849,3,3,3,1,-8.91,-4.34,0.41,-16.99,2.08,21.45
15.07325196266174,3,3,3,1,-8.619999999999999,-4.45,0.57,-16.49,1.49,20.54
15.083251953125,3,3,3,1,-7.96,-4.93,0.79,-16.04,0.89,19.44
15.10325193405151,3,3,3,1,-7.46,-4.84,0.63,-14.31,0.12,16.82
15.11325216293335,3,3,3,1,-7.35,-4.73,0.4,-12.83,-0.17,15.63
15.12325215339661,3,3,3,1,-7.31,-3.94,0.4,-11.11,-0.45,14.34
15.13425207138062,3,3,3,1,-7.09,-3.56,0.43,-9.52,-0.78,13.12
15.14425206184387,3,3,3,1,-6.75,-3.26,0.42,-8.720000000000001,-1.29,12.15
15.15425205230713,3,3,3,1,-6.79,-3.14,0.21,-8.359999999999999,-1.53,11.28
15.16425204277039,3,3,3,1,-7.28,-2.85,0.05,-7.63,-1.28,10.31
15.17425203323364,3,3,3,1,-7.7,-2.34,0.19,-6.35,-0.46,8.9
15.1842520236969,3,3,3,1,-7.52,-1.57,0.36,-4.86,0.33,6.95
15.19425201416016,3,3,3,2,-6.74,-0.83,0.7,-3.87,0.42,5.01
15.20425200462341,3,3,3,2,-6.68,-0.85,1.11,-3.99,0.29,3.67
15.21425199508667,3,3,3,2,-6.86,-0.72,1.37,-4.84,0.05,2.62
15.22425198554993,3,3,3,2,-7.22,-0.36,1.28,-5.43,0.19,1.57
15.23425197601318,3,3,3,2,-8.890000000000001,2.42,0.24,-5.14,0.66,0.78
15.24425196647644,3,3,3,2,-9.51,4.48,0.18,-3.88,0.64,0.72
15.2542519569397,3,3,3,2,-10.26,6.18,0.83,-2.98,0.82,1
15.28425192832947,3,3,3,2,-11.87,13.16,1.93,-5.96,0.7,2.94
15.2942521572113,3,3,3,2,-12.03,14.33,1.36,-6.52,1.89,4.11
15.30425214767456,3,3,3,2,-11.89,14.13,0.54,-7.21,2.76,4.99
15.31425213813782,3,3,3,2,-10.78,8.83,0.9,-7.09,2.98,5.49
15.32425212860107,3,3,3,2,-10.14,5.68,1.12,-6.02,2.96,5.47
15.33425211906433,3,3,3,2,-9.460000000000001,3.44,0.91,-4.9,3.24,4.97
15.34425210952759,3,3,3,2,-9.19,2.37,0.88,-3.44,3.97,4.41
15.35425209999084,3,3,3,2,-9.42,2.41,-0.15,-3.29,4.59,3.61
15.3642520904541,3,3,3,2,-9.699999999999999,2.07,0.13,-4.4,4.74,2.81
15.37425208091736,3,3,3,2,-9.779999999999999,1.71,-0.47,-6.97,3.9,2.28
15.38425207138062,3,3,3,2,-10.58,2.83,-0.46,-10.43,3.12,1.6
15.39425206184387,3,3,3,2,-12.8,4.43,8.119999999999999,-15.22,1.12,0.86
15.40425205230713,3,3,3,2,-11.59,7.63,8.15,-18.93,-6.98,-0.71
15.41425204277039,3,3,3,2,-12.93,8.779999999999999,5.78,-20.1,-9.029999999999999,-2.67
15.42425203323364,3,3,3,2,-13,5.75,3.29,-22.96,-2.86,-3.27
15.4342520236969,3,3,3,2,-10.25,-1.66,-0.36,-23.29,0.58,-3.25
15.44425201416016,3,3,3,2,-10,-6.28,0.11,-22.07,1.78,-3.81
15.45425200462341,3,3,3,2,-9.42,-9.449999999999999,-1.2,-18.6,3.92,-4.39
15.46425199508667,3,3,3,2,-9.15,-8.800000000000001,-3.66,-12.37,6.35,-5.27
15.47425198554993,3,3,3,2,-8.449999999999999,-6.21,-5.77,-6.87,7.63,-6.88
15.48425197601318,3,3,3,2,-9.130000000000001,-4.04,-4.94,-4.22,7.57,-8.960000000000001
15.49425196647644,3,3,3,2,-10.89,-2.36,-1.17,-0.12,6.68,-11.68
15.5042519569397,3,3,3,2,-11.33,-3.76,1.78,3.03,5.6,-13.74
15.51425194740295,3,3,3,2,-10.39,-6.77,-1.92,2.35,5.13,-14.23
15.52425193786621,3,3,3,2,-10.1,-5.22,-1.15,3.41,5.04,-14.12
15.53425192832947,3,3,3,2,-10.02,-3.72,-0.42,6.97,4.57,-14.07
15.5442521572113,3,3,3,2,-10.43,-1.83,-0.07000000000000001,7.57,4.34,-13.8
15.55425214767456,3,3,3,2,-10.62,-0.62,0.6,5.05,4.48,-13.46
15.56425213813782,3,3,3,2,-10.48,-0.07000000000000001,1.01,2.13,4.73,-13.16
15.57425212860107,3,3,3,2,-10.14,-0.09,0.66,-1.04,4.95,-12.81
15.58425211906433,3,3,3,2,-9.65,-1,-0.95,-3.8,4.75,-12.72
15.59425210952759,3,3,3,1,-9.619999999999999,-1.52,-1.74,-5.12,4.43,-12.84
15.60425209999084,3,3,3,1,-9.550000000000001,-1.78,-2.37,-5.24,4.27,-12.91
15.6142520904541,3,3,3,1,-9.550000000000001,-1.92,-2.62,-4.44,4.27,-12.9
15.62425208091736,3,3,3,1,-9.67,-2.31,-1.82,-3.3,4.43,-13.09
15.63425207138062,3,3,3,1,-9.83,-2.54,-1.41,-2.05,4.6,-13.32
15.64425206184387,3,3,3,1,-9.949999999999999,-2.83,-0.99,-0.25,4.8,-13.71
15.65425205230713,3,3,3,1,-9.960000000000001,-2.61,-0.66,2,4.66,-14
15.66425204277039,3,3,3,1,-9.800000000000001,-1.26,-0.48,4.67,4.09,-14.18
15.67425203323364,3,3,3,1,-9.81,-1.04,-0.45,6.41,3.47,-14.17
15.6842520236969,3,3,3,1,-9.800000000000001,-0.63,-0.52,7.03,2.77,-13.99
15.69425201416016,3,3,3,1,-9.5,-0.34,-0.58,7.02,2.2,-13.74
15.70425200462341,3,3,3,1,-9.26,-0.12,-1.04,6.59,1.83,-13.47
15.71425199508667,3,3,3,1,-9.35,-0.15,-1.08,6.19,1.7,-13.32
15.72425198554993,3,3,3,1,-9.41,-0.28,-1.15,5.68,1.65,-13.27
15.73425197601318,3,3,3,1,-9.48,0.16,-1.21,5.52,1.5,-13.35
15.74425196647644,3,3,3,1,-9.6,1.02,-0.83,5.37,1.38,-13.57
15.76425194740295,3,3,3,1,-9.48,1.13,-0.85,4,1.73,-13.73
15.77425193786621,3,3,3,1,-9.470000000000001,0.76,-0.62,3.88,2.27,-13.3
15.78425192832947,3,3,3,1,-10.02,0.32,-0.92,4.31,2.78,-12.48
15.7942521572113,3,3,3,0,-10.22,-0.15,-0.98,4.4,3.03,-11.35
15.80425214767456,3,3,3,0,-10.31,-0.5,-1,4.1,3.07,-10.13
15.81425213813782,3,3,3,0,-10.21,-0.8,-0.95,3.55,3.01,-9.09
15.82425212860107,3,3,3,0,-9.869999999999999,-1.46,-0.62,2.99,3.03,-8.380000000000001
15.83425211906433,3,3,3,0,-9.720000000000001,-1.53,-0.5600000000000001,2.62,2.9,-8.08
15.84425210952759,3,3,3,0,-9.57,-1.45,-0.36,2.6,2.87,-8.07
15.85425209999084,3,3,3,0,-9.48,-1.35,-0.32,2.88,2.93,-8.1
15.8642520904541,3,3,3,0,-9.529999999999999,-1.43,-0.49,3.17,3.07,-8.16
15.87425208091736,3,3,3,0,-9.5,-1.48,-0.52,3.72,3.11,-8.17
15.88425207138062,3,3,3,0,-9.449999999999999,-1.63,-0.47,4.14,3.14,-8.16
15.89425206184387,3,3,3,0,-9.390000000000001,-1.9,-0.52,4.44,3.1,-8.17
15.90425205230713,3,3,3,0,-9.26,-2.32,-0.6,4.6,3.07,-8.15
15.91425204277039,3,3,3,0,-9.210000000000001,-2.57,-0.74,4.68,3.09,-8.119999999999999
15.92425203323364,3,3,3,0,-9.23,-2.74,-0.8100000000000001,4.66,3.01,-8.140000000000001
15.9342520236969,3,3,3,0,-9.33,-2.78,-0.75,4.86,3.04,-8.27
15.94425201416016,3,3,3,0,-9.52,-2.93,-0.6899999999999999,4.97,3.09,-8.49
15.95425200462341,3,3,3,0,-9.550000000000001,-3.04,-0.71,5.29,3.13,-8.539999999999999
15.96425199508667,3,3,3,0,-9.51,-3.24,-1.22,5.67,3.26,-8.550000000000001
15.97425198554993,3,3,3,0,-9.76,-2.73,-0.82,6.38,3.46,-8.550000000000001
15.98425197601318,3,3,3,0,-9.75,-2.6,-0.75,7.68,3.47,-8.6
15.99425196647644,3,3,3,0,-9.81,-2.37,-0.66,8.16,3.37,-8.710000000000001
16.0042519569397,3,3,3,0,-9.82,-1.94,-0.66,8.76,3.24,-8.720000000000001
16.01425194740295,3,3,3,0,-9.970000000000001,-1.46,-0.74,9.17,3.16,-8.779999999999999
16.02425193786621,3,3,3,0,-9.960000000000001,-1.36,-0.78,9.27,3.02,-8.720000000000001
16.03425192832947,3,3,3,0,-9.960000000000001,-1.19,-0.6899999999999999,9.23,2.87,-8.6
16.0442521572113,3,3,3,0,-9.949999999999999,-1.13,-0.85,9.109999999999999,2.67,-8.41
16.05425214767456,3,3,3,0,-10.14,-1.3,-1.17,8.720000000000001,2.5,-8.06
16.06425213813782,3,3,3,0,-10.29,-1.61,-1.31,8.68,2.47,-7.65
16.07425212860107,3,3,3,0,-10.55,-1.95,-1.24,9.09,2.56,-7.43
16.08425211906433,3,3,3,0,-10.85,-2.2,-1.27,10.11,2.74,-7.32
16.09425210952759,3,3,3,0,-11.68,-1.91,-1.7,11.16,2.74,-7.3
16.10425209999084,3,3,3,0,-12.24,-1.39,-1.21,12.2,2.69,-7.35
16.1142520904541,3,3,3,0,-12.69,-0.86,-0.54,13.3,2.58,-7.39
16.12425208091736,3,3,3,0,-12.95,-0.2,-0.02,14.06,2.28,-7.13
16.13425207138062,3,3,3,0,-12.99,1.37,0.75,14.26,1.79,-6.55
16.14425206184387,3,3,3,0,-12.97,1.93,1.27,14.11,1.41,-5.77
16.15525197982788,3,3,3,0,-13.17,2.47,1.64,14.38,1.03,-4.59
16.16525197029114,3,3,3,0,-13.61,3.06,1.81,14.84,0.71,-3.02
16.17525196075439,3,3,3,0,-14.27,4.27,3.08,15.9,0.33,-0.91
16.18525195121765,3,3,3,0,-14.21,3.22,3.83,16.09,-0.18,1.65
16.19525194168091,3,3,3,0,-13.39,2.42,3.56,14.71,-1.54,4.33
16.20525193214417,3,3,3,0,-12.51,2.25,3.39,13.71,-2.67,7.3
16.215252161026,3,3,3,0,-10.18,3.92,1.21,13.83,-3.87,10.23
16.22525215148926,3,3,3,0,-9.68,4.67,0.45,13.82,-4.96,12.32
16.23525214195251,3,3,3,0,-9.94,4.41,-0.02,12.32,-5.77,13.65
16.24525213241577,3,3,3,0,-10.53,2.84,-0.5,9.529999999999999,-6.18,14.68
16.25525212287903,3,3,3,0,-12.28,-1.4,-1.48,5.8,-5.64,15.5
16.26525211334229,3,3,3,0,-13.04,-1.91,-1.68,4.5,-3.97,15.61
16.27525210380554,3,3,3,0,-14,-2.9,-1.44,4.21,-2.09,15.75
16.2852520942688,3,3,3,0,-14.21,-3.67,-1.31,5.03,-0.62,15.96
16.29525208473206,3,3,3,0,-13,-5.07,-0.33,5.3,0.51,16.77
16.30525207519531,3,3,3,0,-12.23,-4.92,0.04,4.55,1.64,17.76
16.31525206565857,3,3,3,0,-11.5,-4.52,0.13,3.73,3.02,18.77
16.32525205612183,3,3,3,0,-11.52,-4.82,0.66,2.19,4.42,19.45
16.33525204658508,3,3,3,0,-10.97,-7.12,1.05,-0.58,4.52,19.73
16.34525203704834,3,3,3,0,-10.98,-7.11,0.4,-1.5,4.56,19.85
16.3552520275116,3,3,3,0,-10.96,-6.59,0.28,0.2,5.1,19.79
16.36525201797485,3,3,3,0,-11.03,-6.71,0.21,1.21,5.35,19.98
16.37525200843811,3,3,3,0,-10.71,-5.86,-0.26,1.74,5.02,20.32
16.38525199890137,3,3,3,0,-10.49,-5.31,-0.28,1.47,4.63,20.81
16.39525198936462,3,3,3,0,-10.36,-5.02,-0.09,0.55,4.29,21.36
16.40525197982788,3,3,3,0,-9.84,-4.35,-0.42,-1.13,3.88,21.97
16.41525197029114,3,3,3,0,-9.48,-4.38,-0.8,-3.08,3.68,22.64
16.42525196075439,3,3,3,0,-9.199999999999999,-4.38,-0.96,-4.8,3.73,22.94
16.43525195121765,3,3,3,0,-9,-4.28,-0.91,-6.59,3.97,22.75
16.44525194168091,3,3,3,0,-8.960000000000001,-4.68,-0.71,-8.699999999999999,4.05,22.43
16.45525193214417,3,3,3,0,-8.84,-4.34,-0.85,-10.56,3.83,22.22
16.465252161026,3,3,3,0,-8.84,-4.29,-1.02,-11.95,3.58,22.11
16.48525214195251,3,3,3,0,-8.779999999999999,-4.03,-0.85,-14.41,2.98,22.01
16.49525213241577,3,3,3,0,-8.69,-4.22,-0.55,-15.22,2.56,21.88
16.50525212287903,3,3,3,0,-8.640000000000001,-4.47,-0.31,-15.71,1.98,21.6
16.51525211334229,3,3,3,0,-8.48,-4.48,-0.32,-15.68,1.53,21.01
16.52525210380554,3,3,3,0,-7.98,-4.98,-0.04,-15.19,0.75,20.36
16.5352520942688,3,3,3,0,-7.79,-4.9,-0.02,-14.24,0,19.37
16.54525208473206,3,3,3,0,-7.79,-4.9,0.15,-13.06,-0.61,18.18
16.55525207519531,3,3,3,0,-7.62,-4.83,0.1,-12.39,-1.05,16.68
16.56525206565857,3,3,3,0,-7.01,-5.23,-0.12,-11.86,-1.32,15.36
16.57525205612183,3,3,3,0,-6.82,-5.3,-0.24,-10.93,-1.53,14.22
16.58525204658508,3,3,3,0,-6.62,-5.02,-0.34,-9.779999999999999,-1.47,13.21
16.59525203704834,3,3,3,1,-6.61,-4.71,-0.28,-8.789999999999999,-1.51,12.35
16.6052520275116,3,3,3,1,-6.6,-4.28,0.16,-8.470000000000001,-1.52,11.26
16.61525201797485,3,3,3,1,-6.47,-4.38,0.12,-8.800000000000001,-1.65,10.26
16.62525200843811,3,3,3,1,-6.05,-4.76,0.17,-9.48,-1.87,9.109999999999999
16.63525199890137,3,3,3,1,-5.66,-5.07,0.18,-9.35,-1.86,7.54
16.64525198936462,3,3,3,2,-5.51,-4.99,-0.04,-7.87,-1.52,5.69
16.65525197982788,3,3,3,2,-5.73,-4.72,-0.14,-5.97,-0.59,3.32
16.66525197029114,3,3,3,2,-5.83,-4.34,-0.24,-4.06,0.42,0.54
16.67525196075439,3,3,3,2,-5.82,-3.63,-0.32,-3.02,0.96,-2.09
16.68525195121765,3,3,3,2,-6.97,-2.33,-0.46,-2.9,1,-4.14
16.69525194168091,3,3,3,2,-8.140000000000001,-0.44,-0.3,-2.36,0.49,-5.88
16.70525193214417,3,3,3,2,-9.699999999999999,2.1,0.15,-1.18,-0.32,-6.2
16.715252161026,3,3,3,2,-11.05,4.64,0.64,1.21,-1.2,-5.22
16.72525215148926,3,3,3,2,-12.98,12.8,4.92,2.32,-1.42,-3.08
16.73525214195251,3,3,3,2,-12.44,17.76,6.93,1.18,-1.33,-1.49
16.74525213241577,3,3,3,3,-12.02,22.75,5.35,0.25,2.49,-0.24
16.75525212287903,3,3,3,3,-14.53,25.15,1.49,-3.45,8.369999999999999,2.62
16.76525211334229,3,3,3,3,-15.11,19.24,-2.47,-7.18,5.64,6.27
16.77525210380554,3,3,3,3,-11.54,11.86,0.53,-6.53,-1.67,7.1
16.7852520942688,3,3,3,3,-9.119999999999999,4.76,2.96,-3.69,-2,6.03
16.79525208473206,3,3,3,3,-8.289999999999999,0.55,3.22,-2.3,2.05,5.99
16.80525207519531,3,3,3,3,-8.82,-1.62,-0.22,-2.11,3.88,5.37
16.81525206565857,3,3,3,3,-10.02,-1.56,-0.95,-1.17,3.62,3.39
16.82525205612183,3,3,3,3,-11.29,-0.16,-1.3,-1.51,2.87,0.66
16.83525204658508,3,3,3,3,-12.96,12.39,2.48,-4.39,2.98,-0.09
16.84525203704834,3,3,3,3,-14.53,11.42,9.289999999999999,-13.73,0.65,1.55
16.8552520275116,3,3,3,3,-11.48,8.43,10.99,-23.14,-9.109999999999999,-0.07000000000000001
16.86525201797485,3,3,3,3,-11.09,4.68,7.96,-27.18,-8.880000000000001,-4.19
16.87525200843811,3,3,3,3,-10.77,-1.09,-1.78,-25.52,-0.09,-3.22
16.88525199890137,3,3,3,3,-10.73,-5.28,0.12,-21.34,3.42,-2.14
16.89525198936462,3,3,3,3,-10.31,-9.48,-1.47,-16.11,5.1,-3.66
16.93525195121765,3,3,3,3,-10.62,-2.77,-2.39,-3.48,6.29,-12.37
16.94525194168091,3,3,3,3,-12.46,-2.71,1.5,-0.22,6.53,-15.37
16.95525193214417,3,3,3,3,-11.13,-8.529999999999999,-3.05,-2.93,6.82,-15.95
16.965252161026,3,3,3,3,-10.13,-7.84,-3.02,-3.38,6.46,-15.62
16.97525215148926,3,3,3,3,-9.59,-6.35,-1.59,2.03,5.83,-15.64
16.98525214195251,3,3,3,3,-9.48,-4.2,-1.21,5.44,5.38,-15.55
16.99525213241577,3,3,3,3,-9.630000000000001,-0.12,0.31,5.42,5.07,-15.34
17.00525212287903,3,3,3,3,-9.75,0.67,0.89,3.25,5.1,-15
17.01525211334229,3,3,3,3,-9.869999999999999,0.78,0.65,-0.6,5.18,-14.2
17.02525210380554,3,3,3,3,-9.69,0.46,0.36,-3.88,5.11,-13.64
17.0352520942688,3,3,3,3,-9.300000000000001,-0.03,-0.73,-5.24,4.98,-13.41
17.04525208473206,3,3,3,3,-9.369999999999999,-0.71,-1.31,-5.8,4.77,-13.15
17.05525207519531,3,3,3,3,-9.49,-1.44,-1.6,-5.68,4.81,-12.97
17.06525206565857,3,3,3,3,-9.779999999999999,-2.04,-1.85,-4.54,5.01,-12.98
17.07525205612183,3,3,3,3,-10.11,-3.02,-1.78,-2.34,5.32,-13.15
17.08525204658508,3,3,3,3,-9.960000000000001,-3.6,-1.63,0.86,5.48,-13.39
17.09525203704834,3,3,3,3,-9.869999999999999,-3.43,-1.49,4.83,5.41,-13.68
17.1052520275116,3,3,3,3,-9.800000000000001,-2.85,-1.22,8.859999999999999,5.02,-13.98
17.11525201797485,3,3,3,3,-9.65,-2.17,-0.73,11.85,4.32,-14.15
17.12525200843811,3,3,3,3,-9.619999999999999,-1.66,-0.76,13.83,3.38,-14.33
17.13525199890137,3,3,3,3,-9.6,-0.83,-0.65,14.85,2.55,-14.38
17.14525198936462,3,3,3,3,-9.5,0,-0.62,14.36,2.02,-14.24
17.15525197982788,3,3,3,3,-9.4,0.96,-1,12.71,1.74,-14.03
17.16525197029114,3,3,3,3,-9.460000000000001,1.06,-1.29,10.37,1.65,-13.83
17.17625212669373,3,3,3,3,-9.630000000000001,1.3,-1.22,8.449999999999999,1.68,-13.89
17.18625211715698,3,3,3,3,-9.720000000000001,1.34,-1.36,6.78,1.74,-14.05
17.19625210762024,3,3,3,3,-9.800000000000001,0.59,-1.13,5.7,2.15,-14.12
17.2062520980835,3,3,3,3,-9.81,0.22,-1.03,5.92,2.64,-13.77
17.21625208854675,3,3,3,3,-9.890000000000001,-0.12,-1.05,6.73,3,-12.85
17.22625207901001,3,3,3,3,-10.2,-1.13,-1.02,6.66,3.21,-11.66
17.23625206947327,3,3,3,3,-10.25,-1.4,-0.84,5.87,3.07,-10.63
17.24625205993652,3,3,3,3,-10.08,-1.64,-0.76,4.96,2.7,-9.91
17.25625205039978,3,3,3,3,-9.9,-1.91,-0.73,3.91,2.48,-9.51
17.26625204086304,3,3,3,3,-9.640000000000001,-1.43,-0.74,3.29,2.29,-9.359999999999999
17.27625203132629,3,3,3,3,-9.640000000000001,-1.1,-0.61,3.01,2.18,-9.34
17.28625202178955,3,3,3,3,-9.609999999999999,-0.8100000000000001,-0.55,2.99,2.3,-9.26
17.29625201225281,3,3,3,3,-9.619999999999999,-0.78,-0.4,3.4,2.51,-9.109999999999999
17.30625200271606,3,3,3,3,-9.699999999999999,-1.11,-0.37,4.07,2.65,-8.91
17.31625199317932,3,3,3,3,-9.720000000000001,-1.53,-0.59,4.73,2.7,-8.619999999999999
17.32625198364258,3,3,3,3,-9.699999999999999,-1.83,-0.92,5.22,2.7,-8.380000000000001
17.33625197410583,3,3,3,3,-9.69,-2.12,-0.76,5.91,2.76,-8.300000000000001
17.34625196456909,3,3,3,3,-9.66,-2.58,-0.35,6.66,2.71,-8.300000000000001
17.35625195503235,3,3,3,3,-9.51,-2.67,-0.36,7.08,2.68,-8.390000000000001
17.36625194549561,3,3,3,3,-9.34,-2.57,-0.48,7.41,2.68,-8.5
17.37625193595886,3,3,3,3,-9.279999999999999,-2.53,-0.44,7.6,2.73,-8.529999999999999
17.3862521648407,3,3,3,3,-9.26,-2.69,-0.6,7.73,2.86,-8.57
17.39625215530396,3,3,3,3,-9.27,-2.67,-0.78,7.8,2.94,-8.640000000000001
17.40625214576721,3,3,3,3,-9.35,-2.51,-0.88,8.01,2.98,-8.73
17.41625213623047,3,3,3,3,-9.43,-2.19,-0.9399999999999999,8.35,2.87,-8.859999999999999
17.42625212669373,3,3,3,3,-9.640000000000001,-1.6,-0.8100000000000001,8.34,2.69,-8.98
17.43625211715698,3,3,3,3,-9.720000000000001,-1.34,-0.6899999999999999,8.130000000000001,2.42,-9.109999999999999
17.44625210762024,3,3,3,3,-9.77,-1.21,-0.61,7.54,2.07,-9.17
17.4562520980835,3,3,3,3,-9.710000000000001,-1.08,-0.52,7.02,1.78,-9.220000000000001
17.46625208854675,3,3,3,3,-9.869999999999999,-1.02,-0.95,6.37,1.5,-9.109999999999999
17.47625207901001,3,3,3,3,-10.11,-1.16,-0.87,5.91,1.41,-8.83
17.48625206947327,3,3,3,3,-10.36,-1.42,-0.8100000000000001,6.02,1.49,-8.48
17.49625205993652,3,3,3,3,-10.66,-1.71,-0.8100000000000001,6.69,1.65,-8.19
17.50625205039978,3,3,3,3,-11.18,-1.94,-1.43,7.78,1.84,-8.02
17.51625204086304,3,3,3,3,-11.59,-1.81,-1.68,8.880000000000001,1.93,-7.96
17.52625203132629,3,3,3,3,-12.18,-1.54,-1.22,10.14,1.94,-8.06
17.53625202178955,3,3,3,3,-12.66,-1.06,-0.48,11.52,1.73,-8.01
17.54625201225281,3,3,3,3,-12.94,0.44,0.17,12.46,1.26,-7.49
17.55625200271606,3,3,3,3,-12.88,1.45,0.42,12.76,0.84,-6.73
17.56625199317932,3,3,3,3,-12.81,2.28,0.8,12.93,0.46,-5.76
17.57625198364258,3,3,3,3,-12.93,2.92,1.33,13.18,0.06,-4.39
17.58625197410583,3,3,3,3,-13.7,4.23,2.03,13.7,-0.31,-2.45
17.59625196456909,3,3,3,3,-13.94,4.84,2.59,14.82,-0.63,0.26
17.60625195503235,3,3,3,3,-13.79,4.04,3.22,14.03,-1.33,3.26
17.61625194549561,3,3,3,3,-13.03,2.95,2.96,11.95,-2.37,5.97
17.62625193595886,3,3,3,3,-10.97,2.72,2.61,11.51,-3.41,8.9
17.6362521648407,3,3,3,3,-10.07,3.48,1.66,12.7,-4.97,11.03
17.64625215530396,3,3,3,2,-9.77,3.81,1.02,12.85,-6.32,12.44
17.65625214576721,3,3,3,2,-10.52,2.48,-0.04,12.22,-7.35,13.8
17.66625213623047,3,3,3,2,-11.2,0.4,-0.4,9.970000000000001,-7.34,14.83
17.67625212669373,3,3,3,2,-11.7,-1.06,-1.17,7.85,-6.22,15.33
17.68625211715698,3,3,3,2,-12.52,-1.86,-1.47,6.79,-3.76,15.34
17.69625210762024,3,3,3,2,-14.22,-3.39,-1.33,5.85,-1.45,15.26
17.7062520980835,3,3,3,2,-14.29,-4.52,-1.22,4.7,0.29,15.48
17.71625208854675,3,3,3,2,-13.81,-5.48,-1.09,4.42,1.33,16.25
17.72625207901001,3,3,3,2,-13.27,-5.42,-0.98,5.97,2.09,17.31
17.73625206947327,3,3,3,1,-12.39,-4.47,0.05,7.6,3.31,18.74
17.74625205993652,3,3,3,1,-12.29,-5.65,1.21,5.75,4.22,19.53
17.75625205039978,3,3,3,1,-11.57,-6.43,1.08,3.1,4.24,19.73
17.76625204086304,3,3,3,1,-11.06,-6.63,0.47,1.87,5.24,20.03
17.77625203132629,3,3,3,1,-11.64,-5.35,0.17,1.48,6.32,20.02
17.78625202178955,3,3,3,1,-11.81,-6.12,0.15,-0.05,6.68,20.26
17.79625201225281,3,3,3,1,-12.05,-5.6,-0.25,-1.61,6.23,20.62
17.80625200271606,3,3,3,1,-10.72,-5.68,-0.39,-3.13,5.6,21.54
17.81625199317932,3,3,3,1,-11.02,-5.08,-0.65,-3.9,5.36,22.53
17.82625198364258,3,3,3,1,-10.86,-4.75,-0.62,-5.36,4.99,23.4
17.83625197410583,3,3,3,0,-10.46,-5.06,-0.65,-7.2,4.39,23.89
17.84625196456909,3,3,3,0,-9.529999999999999,-5.35,-0.7,-8.56,4.08,24.02
17.85625195503235,3,3,3,0,-8.539999999999999,-5.23,-0.82,-11,4.19,23.63
17.86625194549561,3,3,3,0,-8.300000000000001,-4.84,-0.88,-13.63,4.02,23.4
17.87625193595886,3,3,3,0,-8.119999999999999,-4.62,-0.8,-16.82,3.6,23.01
17.8862521648407,3,3,3,0,-8.08,-4.77,-0.6899999999999999,-16.82,3.6,23.01
17.89625215530396,3,3,3,0,-8.1,-5.16,-0.77,-19.07,3.18,22.52
17.90625214576721,3,3,3,0,-8.109999999999999,-5.17,-0.77,-19.81,2.14,21.37
17.91625213623047,3,3,3,0,-8.15,-5.3,-0.79,-18.71,1.56,20.55
17.92625212669373,3,3,3,0,-8.19,-5.38,-0.61,-17.31,0.65,19.49
17.93625211715698,3,3,3,0,-7.57,-5.01,-0.22,-17.31,0.65,19.49
17.94625210762024,3,3,3,0,-7.49,-5.19,0.08,-16.41,-0.01,18.48
17.9562520980835,3,3,3,0,-7.35,-5.36,0.16,-14.59,-0.83,15.65
17.96625208854675,3,3,3,0,-7.01,-5.37,-0.03,-13.63,-0.85,14.45
17.97625207901001,3,3,3,0,-6.94,-5.11,-0.33,-12.81,-1.21,13.24
17.98625206947327,3,3,3,0,-7.06,-4.89,-0.33,-12.81,-1.21,13.24
17.99625205993652,3,3,3,0,-7.2,-4.72,-0.23,-12.14,-1.64,11.89
18.00625205039978,3,3,3,0,-7.07,-4.33,0.04,-12.6,-2.92,10.14
18.01625204086304,3,3,3,0,-6.34,-4.26,0.3,-12.77,-3.4,9.74
18.02625203132629,3,3,3,0,-5.93,-4.65,0.39,-11.72,-2.92,8.779999999999999
18.03625202178955,3,3,3,0,-5.9,-4.86,0.32,-11.72,-2.92,8.779999999999999
18.04625201225281,3,3,3,0,-6.6,-5.3,0.42,-9.529999999999999,-2.11,7.05
18.05625200271606,3,3,3,0,-6.63,-4.83,0.44,-4.45,-0.89,2.28
18.06625199317932,3,3,3,0,-6.42,-4.48,0.27,-2.97,-0.02,-0.33
18.07625198364258,3,3,3,0,-6.02,-3.97,0.03,-2.69,0.68,-2.24
18.08625197410583,3,3,3,0,-6.43,-3.16,0,-2.69,0.68,-2.24
18.09625196456909,3,3,3,0,-7.24,-2.01,0,-3.29,0.93,-3.63
18.10625195503235,3,3,3,0,-8.42,0.21,-0.22,0.9399999999999999,0.89,-3.22
18.11625194549561,3,3,3,0,-9.99,3.09,-0.24,2.73,-0.35,-1.64
18.12625193595886,3,3,3,0,-11.69,9.67,2.6,1.41,-0.8100000000000001,-0.53
18.13725209236145,3,3,3,0,-11.9,13.04,4.95,1.41,-0.8100000000000001,-0.53
18.14625215530396,3,3,3,0,-11.49,17.31,5.47,-0.03,0.98,0.15
18.15625214576721,3,3,3,0,-11.91,22.24,3.08,-4.53,7.53,6.9
18.16625213623047,3,3,3,0,-17.04,24,-1.08,-6.51,1.34,8.44
18.17625212669373,3,3,3,0,-14.8,16.73,-0.06,-5.34,-2.72,7.49
18.18625211715698,3,3,3,0,-10.49,8.16,2.02,-5.34,-2.72,7.49
18.19625210762024,3,3,3,0,-8.130000000000001,1.68,2.76,-4.04,-0.25,6.7
18.20725202560425,3,3,3,0,-7.27,-0.8,0.65,-1.22,4.21,5.21
18.2172520160675,3,3,3,0,-7.6,0.73,-0.18,-1.88,4.92,3.3
18.22725200653076,3,3,3,0,-8.51,0.71,-0.92,-6.74,4.81,0.19
18.23725199699402,3,3,3,0,-9.98,-0.44,-1.83,-6.74,4.81,0.19
18.24725198745728,3,3,3,0,-12.28,2.13,2.56,-15.07,1.91,-1.49
18.25725197792053,3,3,3,0,-12.53,5.88,9.67,-18.99,-12.69,-4.71
18.26725196838379,3,3,3,0,-12.95,11.29,13.23,-23.11,-6.57,-4.31
18.27725195884705,3,3,3,0,-15.4,12.6,9.52,-24.32,1.97,-2.54
18.2872519493103,3,3,3,0,-12.37,1.25,-0.5600000000000001,-24.32,1.97,-2.54
18.29725193977356,3,3,3,0,-10.61,-2.55,0.25,-21.35,4.33,-2.68
18.30725193023682,3,3,3,0,-10.89,-7.15,-0.15,-13.4,8.18,-3.04
18.31725215911865,3,3,3,0,-10.78,-9.15,-3.45,-12.38,9.140000000000001,-4.5
18.32725214958191,3,3,3,0,-9.17,-11.79,-7.63,-6.7,7.4,-8.42
18.33725214004517,3,3,3,0,-8.029999999999999,-8.699999999999999,-7.34,-6.7,7.4,-8.42
18.34725213050842,3,3,3,0,-8.609999999999999,-3.71,-2.59,2,6.15,-13.71
18.35725212097168,3,3,3,0,-10.75,-3.26,1.25,-0.75,6.36,-16.2
18.36725211143494,3,3,3,0,-11.05,-6.53,-3.58,0.22,5.29,-15.49
18.37725210189819,3,3,3,0,-9.960000000000001,-7.23,-3.15,5,4.98,-15.03
18.38725209236145,3,3,3,0,-9.699999999999999,-6.05,-2.1,5,4.98,-15.03
18.39725208282471,3,3,3,0,-9.970000000000001,-4.05,-1.46,6.22,4.62,-14.44
18.40725207328796,3,3,3,0,-10.16,-0.96,0.55,1.63,5,-13.32
18.41725206375122,3,3,3,0,-10.09,-0.29,0.63,-1.2,5.5,-12.74
18.42725205421448,3,3,3,0,-10.03,0.23,0.5,-3.3,5.44,-12.56
18.43725204467773,3,3,3,1,-9.609999999999999,0.82,0.51,-3.3,5.44,-12.56
18.44725203514099,3,3,3,1,-9.050000000000001,0.6,-0.12,-5.01,5.02,-12.45
18.45725202560425,3,3,3,1,-9.199999999999999,0.2,-0.71,-6.65,4.59,-12.29
18.4672520160675,3,3,3,1,-9.32,-0.65,-1.24,-5.96,4.71,-12.2
18.47725200653076,3,3,3,1,-9.970000000000001,-1.61,-1.52,-4.38,4.83,-12
18.48725199699402,3,3,3,1,-9.93,-2.35,-1.61,-4.38,4.83,-12
18.49725198745728,3,3,3,1,-9.93,-2.9,-1.49,-1.7,5.06,-12.02
18.50725197792053,3,3,3,1,-9.9,-2.93,-1.32,4.69,4.91,-12.72
18.51725196838379,3,3,3,1,-9.609999999999999,-2.95,-0.86,7.37,4.45,-13.19
18.52725195884705,3,3,3,1,-9.539999999999999,-2.55,-0.41,9.25,3.84,-13.6
18.5372519493103,3,3,3,1,-9.59,-1.86,-0.17,9.25,3.84,-13.6
18.54725193977356,3,3,3,1,-9.529999999999999,-1.51,-0.05,9.99,3.2,-13.7
18.55725193023682,3,3,3,1,-9.57,-1.03,-0.08,9.67,2.46,-13.12
18.56725215911865,3,3,3,1,-9.539999999999999,-0.5,-0.23,8.460000000000001,2.4,-12.72
18.57725214958191,3,3,3,1,-9.369999999999999,-0.25,-0.25,7.22,2.44,-12.39
18.58725214004517,3,3,3,1,-9.380000000000001,-0.19,-0.52,7.22,2.44,-12.39
18.59725213050842,3,3,3,1,-9.5,-0.01,-0.8,6.47,2.54,-12.39
18.60725212097168,3,3,3,1,-9.67,0.1,-1.01,5.45,2.4,-13.06
18.61725211143494,3,3,3,1,-9.789999999999999,0.4,-1.16,4.14,2.15,-13.45
18.62725210189819,3,3,3,1,-9.81,0.34,-1.09,2.77,1.99,-13.61
18.63725209236145,3,3,3,2,-9.359999999999999,-0.07000000000000001,-1.05,2.77,1.99,-13.61
18.64725208282471,3,3,3,2,-9.42,-0.62,-0.92,1.54,2.03,-13.61
18.65725207328796,3,3,3,2,-9.42,-0.97,-0.96,1.3,2.33,-12.99
18.66725206375122,3,3,3,2,-9.31,-1.22,-1.02,1.39,2.46,-12.39
18.67725205421448,3,3,3,2,-9.720000000000001,-1.3,-1.07,1.55,2.55,-11.72
18.68725204467773,3,3,3,2,-9.84,-1.21,-1.03,1.55,2.55,-11.72
18.69725203514099,3,3,3,2,-9.94,-1.28,-0.99,1.67,2.8,-11.13
18.70725202560425,3,3,3,2,-9.94,-1.42,-0.8100000000000001,2.94,3.06,-10.21
18.7172520160675,3,3,3,2,-9.869999999999999,-1.73,-0.67,4.04,3.2,-9.81
18.72725200653076,3,3,3,2,-9.75,-1.71,-0.5600000000000001,5.02,3.29,-9.539999999999999
18.73725199699402,3,3,3,3,-9.68,-1.63,-0.45,5.02,3.29,-9.539999999999999
18.74725198745728,3,3,3,3,-9.56,-1.64,-0.38,6,3.37,-9.33
18.75725197792053,3,3,3,3,-9.66,-1.98,-0.48,7.4,3.65,-9.01
18.76725196838379,3,3,3,3,-9.640000000000001,-2.17,-0.67,8.06,3.74,-8.92
18.77725195884705,3,3,3,3,-9.69,-2.31,-0.61,8.69,3.75,-8.94
18.7872519493103,3,3,3,3,-9.890000000000001,-2.42,-0.55,8.69,3.75,-8.94
18.79725193977356,3,3,3,3,-10,-2.53,-0.57,9.06,3.76,-8.94
18.80725193023682,3,3,3,3,-9.949999999999999,-2.42,-0.51,9.390000000000001,3.74,-9
18.81725215911865,3,3,3,3,-9.800000000000001,-2.42,-1.01,9.44,3.77,-9.1
18.82725214958191,3,3,3,3,-9.640000000000001,-2.36,-1.42,9.390000000000001,3.53,-9.27
18.83725214004517,3,3,3,3,-9.550000000000001,-1.95,-1.08,9.390000000000001,3.53,-9.27
18.84725213050842,3,3,3,3,-9.68,-1.81,-0.9,8.789999999999999,3.12,-9.52
18.85725212097168,3,3,3,3,-10.11,-1.59,-1.13,8.01,2.69,-9.6
18.86725211143494,3,3,3,3,-10.44,-1.59,-1.33,7.29,2.33,-9.619999999999999
18.87725210189819,3,3,3,3,-10.56,-1.65,-1.15,6.92,2.04,-9.470000000000001
18.88725209236145,3,3,3,3,-10.56,-1.65,-1.15,6.92,2.04,-9.470000000000001
18.89725208282471,3,3,3,3,-10.66,-1.79,-1.07,7.63,1.9,-9.18
