timestamp,magCalib,accCalib,gyrCalib,sysCalib,accX,accY,accZ,gyrX,gyrY,gyrZ
timestamp,magCalib,accCalib,gyrCalib,sysCalib,accX,accY,accZ,gyrX,gyrY,gyrZ
0.05125212669372559,3,3,3,3,-9.449999999999999,1.3,-2.28,0.51,-0.02,-0.27
0.05125212669372559,3,3,3,3,-9.449999999999999,1.3,-2.28,0.51,-0.02,-0.27
0.07125210762023926,3,3,3,3,-9.49,1.42,-2.17,0.35,-0.04,-0.45
0.07125210762023926,3,3,3,3,-9.49,1.42,-2.17,0.35,-0.04,-0.45
0.09125208854675293,3,3,3,3,-9.470000000000001,1.4,-2.19,0.3,-0.31,-0.44
0.09125208854675293,3,3,3,3,-9.470000000000001,1.4,-2.19,0.3,-0.31,-0.44
0.1112520694732666,3,3,3,3,-9.42,1.37,-2.22,0.31,-0.04,-0.49
0.1112520694732666,3,3,3,3,-9.42,1.37,-2.22,0.31,-0.04,-0.49
0.1322519779205322,3,3,3,3,-9.369999999999999,1.2,-2.23,0.31,0.08,-0.65
0.1322519779205322,3,3,3,3,-9.369999999999999,1.2,-2.23,0.31,0.08,-0.65
0.1522519588470459,3,3,3,3,-9.43,1.32,-2.26,0.4,-0.15,-0.8100000000000001
0.1522519588470459,3,3,3,3,-9.43,1.32,-2.26,0.4,-0.15,-0.8100000000000001
0.1722519397735596,3,3,3,3,-9.51,1.43,-2.22,0.59,-0.2,-0.79
0.1722519397735596,3,3,3,3,-9.51,1.43,-2.22,0.59,-0.2,-0.79
0.1922521591186523,3,3,3,3,-9.390000000000001,1.46,-2.24,0.61,-0.08,-0.78
0.1922521591186523,3,3,3,3,-9.390000000000001,1.46,-2.24,0.61,-0.08,-0.78
0.212252140045166,3,3,3,3,-9.34,1.38,-2.28,0.5,-0.18,-0.89
0.212252140045166,3,3,3,3,-9.34,1.38,-2.28,0.5,-0.18,-0.89
0.2322521209716797,3,3,3,3,-9.470000000000001,1.19,-2.12,0.47,0.01,-0.96
0.2322521209716797,3,3,3,3,-9.470000000000001,1.19,-2.12,0.47,0.01,-0.96
0.2522521018981934,3,3,3,3,-9.57,1,-2.23,0.15,-0.04,-1.15
0.2522521018981934,3,3,3,3,-9.57,1,-2.23,0.15,-0.04,-1.15
0.272252082824707,3,3,3,3,-9.51,0.91,-2.01,0.05,-0.2,-1.15
0.272252082824707,3,3,3,3,-9.51,0.91,-2.01,0.05,-0.2,-1.15
0.2922520637512207,3,3,3,3,-9.48,0.9,-1.97,-0.22,-0.07000000000000001,-1.14
0.2922520637512207,3,3,3,3,-9.48,0.9,-1.97,-0.22,-0.07000000000000001,-1.14
0.3122520446777344,3,3,3,3,-9.51,0.84,-2.12,-0.5,-0.15,-1.06
0.3122520446777344,3,3,3,3,-9.51,0.84,-2.12,-0.5,-0.15,-1.06
0.332252025604248,3,3,3,3,-9.470000000000001,0.68,-2.06,-0.5600000000000001,-0.25,-1.07
0.332252025604248,3,3,3,3,-9.470000000000001,0.68,-2.06,-0.5600000000000001,-0.25,-1.07
0.3522520065307617,3,3,3,3,-9.5,0.42,-2.18,-0.44,-0.26,-1.09
0.3522520065307617,3,3,3,3,-9.5,0.42,-2.18,-0.44,-0.26,-1.09
0.3722519874572754,3,3,3,3,-9.550000000000001,0.33,-2.04,-0.38,-0.33,-1.02
0.3722519874572754,3,3,3,3,-9.550000000000001,0.33,-2.04,-0.38,-0.33,-1.02
0.3922519683837891,3,3,3,3,-9.58,0.38,-2.01,0.11,-0.36,-0.85
0.3922519683837891,3,3,3,3,-9.58,0.38,-2.01,0.11,-0.36,-0.85
0.4122519493103027,3,3,3,3,-9.58,0.44,-1.98,0.14,-0.23,-0.82
0.4122519493103027,3,3,3,3,-9.58,0.44,-1.98,0.14,-0.23,-0.82
0.4322519302368164,3,3,3,3,-9.6,0.54,-1.98,0.18,-0.23,-0.82
0.4322519302368164,3,3,3,3,-9.6,0.54,-1.98,0.18,-0.23,-0.82
0.4522521495819092,3,3,3,3,-9.539999999999999,0.58,-2.1,0.02,-0.3,-0.68
0.4522521495819092,3,3,3,3,-9.539999999999999,0.58,-2.1,0.02,-0.3,-0.68
0.4722521305084229,3,3,3,3,-9.49,0.66,-2.06,-0.01,-0.1,-0.55
0.4722521305084229,3,3,3,3,-9.49,0.66,-2.06,-0.01,-0.1,-0.55
0.4922521114349365,3,3,3,3,-9.51,0.54,-2.04,-0.14,0.03,-0.42
0.4922521114349365,3,3,3,3,-9.51,0.54,-2.04,-0.14,0.03,-0.42
0.5122520923614502,3,3,3,3,-9.51,0.52,-1.97,-0.12,-0.18,-0.34
0.5122520923614502,3,3,3,3,-9.51,0.52,-1.97,-0.12,-0.18,-0.34
0.5322520732879639,3,3,3,3,-9.550000000000001,0.44,-1.97,-0.1,-0.15,-0.3
0.5322520732879639,3,3,3,3,-9.550000000000001,0.44,-1.97,-0.1,-0.15,-0.3
0.5522520542144775,3,3,3,3,-9.57,0.43,-2.1,-0.1,-0.13,-0.2
0.5522520542144775,3,3,3,3,-9.57,0.43,-2.1,-0.1,-0.13,-0.2
0.5722520351409912,3,3,3,3,-9.57,0.5,-2.07,0.01,-0.16,-0.18
0.5722520351409912,3,3,3,3,-9.57,0.5,-2.07,0.01,-0.16,-0.18
0.5922520160675049,3,3,3,3,-9.52,0.67,-1.98,0.1,-0.17,0.02
0.5922520160675049,3,3,3,3,-9.52,0.67,-1.98,0.1,-0.17,0.02
0.6122519969940186,3,3,3,3,-9.539999999999999,0.75,-2.09,-0.06,-0.03,0.12
0.6122519969940186,3,3,3,3,-9.539999999999999,0.75,-2.09,-0.06,-0.03,0.12
0.6322519779205322,3,3,3,3,-9.52,0.62,-1.99,-0.11,-0.1,0.13
0.6322519779205322,3,3,3,3,-9.52,0.62,-1.99,-0.11,-0.1,0.13
0.6522519588470459,3,3,3,3,-9.529999999999999,0.65,-2.04,-0.25,-0.26,0.16
0.6522519588470459,3,3,3,3,-9.529999999999999,0.65,-2.04,-0.25,-0.26,0.16
0.6722519397735596,3,3,3,3,-9.56,0.68,-1.96,-0.27,-0.26,0.19
0.6722519397735596,3,3,3,3,-9.56,0.68,-1.96,-0.27,-0.26,0.19
0.6922521591186523,3,3,3,3,-9.529999999999999,0.59,-2.01,-0.38,-0.22,0.09
0.6922521591186523,3,3,3,3,-9.529999999999999,0.59,-2.01,-0.38,-0.22,0.09
0.712252140045166,3,3,3,3,-9.52,0.57,-2.08,-0.22,-0.2,0.1
0.712252140045166,3,3,3,3,-9.52,0.57,-2.08,-0.22,-0.2,0.1
0.7322521209716797,3,3,3,3,-9.539999999999999,0.78,-1.99,-0.14,0.04,0.12
0.7322521209716797,3,3,3,3,-9.539999999999999,0.78,-1.99,-0.14,0.04,0.12
0.7522521018981934,3,3,3,3,-9.550000000000001,0.7,-2.09,-0.13,-0.02,0.2
0.7522521018981934,3,3,3,3,-9.550000000000001,0.7,-2.09,-0.13,-0.02,0.2
0.772252082824707,3,3,3,3,-9.630000000000001,0.8,-1.96,-0.08,-0.13,0.24
0.772252082824707,3,3,3,3,-9.630000000000001,0.8,-1.96,-0.08,-0.13,0.24
0.7922520637512207,3,3,3,3,-9.529999999999999,0.9,-2.02,-0.07000000000000001,-0.05,0.14
0.7922520637512207,3,3,3,3,-9.529999999999999,0.9,-2.02,-0.07000000000000001,-0.05,0.14
0.8122520446777344,3,3,3,3,-9.5,0.9399999999999999,-2.03,-0.16,-0.05,0.12
0.8122520446777344,3,3,3,3,-9.5,0.9399999999999999,-2.03,-0.16,-0.05,0.12
0.832252025604248,3,3,3,3,-9.52,0.91,-1.96,-0.29,0.04,0.15
0.832252025604248,3,3,3,3,-9.52,0.91,-1.96,-0.29,0.04,0.15
0.8522520065307617,3,3,3,3,-9.550000000000001,0.78,-2.07,-0.46,-0.02,0.12
0.8522520065307617,3,3,3,3,-9.550000000000001,0.78,-2.07,-0.46,-0.02,0.12
0.8722519874572754,3,3,3,3,-9.58,0.75,-1.98,-0.45,-0.01,0.1
0.8722519874572754,3,3,3,3,-9.58,0.75,-1.98,-0.45,-0.01,0.1
0.8922519683837891,3,3,3,3,-9.550000000000001,0.76,-1.95,-0.24,0.03,0.09
0.8922519683837891,3,3,3,3,-9.550000000000001,0.76,-1.95,-0.24,0.03,0.09
0.9122519493103027,3,3,3,3,-9.59,0.75,-1.98,-0.17,-0.03,0.23
0.9122519493103027,3,3,3,3,-9.59,0.75,-1.98,-0.17,-0.03,0.23
0.9322519302368164,3,3,3,3,-9.56,0.79,-1.95,-0.19,0.01,0.23
0.9322519302368164,3,3,3,3,-9.56,0.79,-1.95,-0.19,0.01,0.23
0.9522521495819092,3,3,3,3,-9.51,0.77,-2.01,-0.02,0.05,0.21
0.9522521495819092,3,3,3,3,-9.51,0.77,-2.01,-0.02,0.05,0.21
0.9722521305084229,3,3,3,3,-9.59,0.88,-1.95,-0.04,-0.17,0.34
0.9722521305084229,3,3,3,3,-9.59,0.88,-1.95,-0.04,-0.17,0.34
0.9922521114349365,3,3,3,3,-9.539999999999999,0.76,-1.95,-0.17,0.02,0.26
0.9922521114349365,3,3,3,3,-9.539999999999999,0.76,-1.95,-0.17,0.02,0.26
1.01225209236145,3,3,3,3,-9.52,0.73,-2.01,-0.31,-0.04,0.17
1.01225209236145,3,3,3,3,-9.52,0.73,-2.01,-0.31,-0.04,0.17
1.032252073287964,3,3,3,3,-9.550000000000001,0.73,-1.94,-0.28,-0.05,0.14
1.032252073287964,3,3,3,3,-9.550000000000001,0.73,-1.94,-0.28,-0.05,0.14
1.052252054214478,3,3,3,3,-9.5,0.8100000000000001,-2.09,-0.19,-0.09,0.22
1.052252054214478,3,3,3,3,-9.5,0.8100000000000001,-2.09,-0.19,-0.09,0.22
1.072252035140991,3,3,3,3,-9.52,0.87,-2.06,-0.29,-0.11,0.27
1.072252035140991,3,3,3,3,-9.52,0.87,-2.06,-0.29,-0.11,0.27
1.092252016067505,3,3,3,3,-9.529999999999999,0.8100000000000001,-1.98,-0.19,-0.08,0.32
1.092252016067505,3,3,3,3,-9.529999999999999,0.8100000000000001,-1.98,-0.19,-0.08,0.32
1.112251996994019,3,3,3,3,-9.529999999999999,0.83,-2.03,-0.11,-0.12,0.43
1.112251996994019,3,3,3,3,-9.529999999999999,0.83,-2.03,-0.11,-0.12,0.43
1.132251977920532,3,3,3,3,-9.59,0.76,-2.04,-0.14,-0.12,0.41
1.132251977920532,3,3,3,3,-9.59,0.76,-2.04,-0.14,-0.12,0.41
1.153252124786377,3,3,3,3,-9.49,0.76,-2.09,-0.02,-0.04,0.27
1.153252124786377,3,3,3,3,-9.49,0.76,-2.09,-0.02,-0.04,0.27
1.173252105712891,3,3,3,3,-9.539999999999999,0.85,-1.97,-0.02,-0.03,0.32
1.173252105712891,3,3,3,3,-9.539999999999999,0.85,-1.97,-0.02,-0.03,0.32
1.193252086639404,3,3,3,3,-9.57,0.8,-1.94,0.03,-0.06,0.29
1.193252086639404,3,3,3,3,-9.57,0.8,-1.94,0.03,-0.06,0.29
1.213252067565918,3,3,3,3,-9.539999999999999,0.75,-1.95,0.03,-0.07000000000000001,0.18
1.213252067565918,3,3,3,3,-9.539999999999999,0.75,-1.95,0.03,-0.07000000000000001,0.18
1.233252048492432,3,3,3,3,-9.51,0.74,-1.96,0.12,-0.18,0.22
1.233252048492432,3,3,3,3,-9.51,0.74,-1.96,0.12,-0.18,0.22
1.253252029418945,3,3,3,3,-9.529999999999999,0.85,-2.04,0.09,-0.18,0.25
1.253252029418945,3,3,3,3,-9.529999999999999,0.85,-2.04,0.09,-0.18,0.25
1.273252010345459,3,3,3,3,-9.59,0.86,-2.07,-0.12,0.02,0.12
1.273252010345459,3,3,3,3,-9.59,0.86,-2.07,-0.12,0.02,0.12
1.293251991271973,3,3,3,3,-9.48,0.9,-2.07,-0.15,-0.12,0.06
1.293251991271973,3,3,3,3,-9.48,0.9,-2.07,-0.15,-0.12,0.06
1.313251972198486,3,3,3,3,-9.51,0.91,-1.95,-0.13,-0.05,0.16
1.313251972198486,3,3,3,3,-9.51,0.91,-1.95,-0.13,-0.05,0.16
1.333251953125,3,3,3,3,-9.59,0.91,-2.03,-0.12,0.02,0.16
1.333251953125,3,3,3,3,-9.59,0.91,-2.03,-0.12,0.02,0.16
1.353251934051514,3,3,3,3,-9.539999999999999,0.78,-2.11,-0.1,-0.02,0.17
1.353251934051514,3,3,3,3,-9.539999999999999,0.78,-2.11,-0.1,-0.02,0.17
1.373252153396606,3,3,3,3,-9.5,0.83,-1.99,0.01,-0.07000000000000001,0.25
1.373252153396606,3,3,3,3,-9.5,0.83,-1.99,0.01,-0.07000000000000001,0.25
1.39325213432312,3,3,3,3,-9.52,0.86,-2.01,0.24,-0.01,0.46
1.39325213432312,3,3,3,3,-9.52,0.86,-2.01,0.24,-0.01,0.46
1.413252115249634,3,3,3,3,-9.6,0.87,-2,0.17,-0.03,0.4
1.413252115249634,3,3,3,3,-9.6,0.87,-2,0.17,-0.03,0.4
1.433252096176147,3,3,3,3,-9.539999999999999,0.76,-1.98,0.17,0.01,0.29
1.433252096176147,3,3,3,3,-9.539999999999999,0.76,-1.98,0.17,0.01,0.29
1.453252077102661,3,3,3,3,-9.49,0.86,-2.01,0.23,0.09,0.29
1.453252077102661,3,3,3,3,-9.49,0.86,-2.01,0.23,0.09,0.29
1.473252058029175,3,3,3,3,-9.529999999999999,0.91,-1.98,0.06,0,0.44
1.473252058029175,3,3,3,3,-9.529999999999999,0.91,-1.98,0.06,0,0.44
1.493252038955688,3,3,3,3,-9.529999999999999,0.82,-2.01,-0.03,-0.12,0.45
1.493252038955688,3,3,3,3,-9.529999999999999,0.82,-2.01,-0.03,-0.12,0.45
1.513252019882202,3,3,3,3,-9.56,0.78,-1.93,0.09,-0.06,0.36
1.513252019882202,3,3,3,3,-9.56,0.78,-1.93,0.09,-0.06,0.36
1.533252000808716,3,3,3,3,-9.49,0.85,-1.88,0.21,-0.06,0.4
1.533252000808716,3,3,3,3,-9.49,0.85,-1.88,0.21,-0.06,0.4
1.553251981735229,3,3,3,3,-9.56,0.89,-2.01,0.17,-0.08,0.46
1.553251981735229,3,3,3,3,-9.56,0.89,-2.01,0.17,-0.08,0.46
1.573251962661743,3,3,3,3,-9.51,0.85,-2.05,0.21,-0.01,0.33
1.573251962661743,3,3,3,3,-9.51,0.85,-2.05,0.21,-0.01,0.33
1.593251943588257,3,3,3,3,-9.5,1.03,-2.05,0.24,-0.02,0.34
1.593251943588257,3,3,3,3,-9.5,1.03,-2.05,0.24,-0.02,0.34
1.61325216293335,3,3,3,3,-9.56,1.05,-2.06,0.17,0.04,0.37
1.61325216293335,3,3,3,3,-9.56,1.05,-2.06,0.17,0.04,0.37
1.633252143859863,3,3,3,3,-9.52,1.07,-1.95,0.11,-0.01,0.36
1.633252143859863,3,3,3,3,-9.52,1.07,-1.95,0.11,-0.01,0.36
1.653252124786377,3,3,3,3,-9.529999999999999,1.02,-2.03,0.08,-0.04,0.32
1.653252124786377,3,3,3,3,-9.529999999999999,1.02,-2.03,0.08,-0.04,0.32
1.673252105712891,3,3,3,3,-9.52,0.96,-2.03,-0.25,-0.04,0.3
1.673252105712891,3,3,3,3,-9.52,0.96,-2.03,-0.25,-0.04,0.3
1.693252086639404,3,3,3,3,-9.52,0.96,-2.08,-0.1,-0.16,0.32
1.693252086639404,3,3,3,3,-9.52,0.96,-2.08,-0.1,-0.16,0.32
1.713252067565918,3,3,3,3,-9.52,1.03,-1.95,0.17,-0.06,0.38
1.713252067565918,3,3,3,3,-9.52,1.03,-1.95,0.17,-0.06,0.38
1.733252048492432,3,3,3,3,-9.57,0.98,-2,0.09,0.04,0.33
1.733252048492432,3,3,3,3,-9.57,0.98,-2,0.09,0.04,0.33
1.753252029418945,3,3,3,3,-9.550000000000001,1,-2,0.04,0.1,0.24
1.753252029418945,3,3,3,3,-9.550000000000001,1,-2,0.04,0.1,0.24
1.773252010345459,3,3,3,3,-9.52,0.98,-1.95,0.08,-0.04,0.21
1.773252010345459,3,3,3,3,-9.52,0.98,-1.95,0.08,-0.04,0.21
1.793251991271973,3,3,3,3,-9.470000000000001,1.07,-2.05,0.01,-0.05,0.21
1.793251991271973,3,3,3,3,-9.470000000000001,1.07,-2.05,0.01,-0.05,0.21
1.813251972198486,3,3,3,3,-9.52,1.07,-1.9,-0.05,0.05,0.21
1.813251972198486,3,3,3,3,-9.52,1.07,-1.9,-0.05,0.05,0.21
1.833251953125,3,3,3,3,-9.56,1.02,-1.92,-0.11,0.06,0.19
1.833251953125,3,3,3,3,-9.56,1.02,-1.92,-0.11,0.06,0.19
1.853251934051514,3,3,3,3,-9.51,0.88,-2,-0.18,0.02,0.2
1.853251934051514,3,3,3,3,-9.51,0.88,-2,-0.18,0.02,0.2
1.873252153396606,3,3,3,3,-9.51,0.89,-1.98,-0.14,0.04,0.14
1.873252153396606,3,3,3,3,-9.51,0.89,-1.98,-0.14,0.04,0.14
1.89325213432312,3,3,3,3,-9.51,0.9,-2.03,-0.09,0.12,0.12
1.89325213432312,3,3,3,3,-9.51,0.9,-2.03,-0.09,0.12,0.12
1.913252115249634,3,3,3,3,-9.56,0.87,-1.97,0.13,0.15,0.13
1.913252115249634,3,3,3,3,-9.56,0.87,-1.97,0.13,0.15,0.13
1.933252096176147,3,3,3,3,-9.609999999999999,0.9,-1.99,0.02,0.02,0.06
1.933252096176147,3,3,3,3,-9.609999999999999,0.9,-1.99,0.02,0.02,0.06
1.953252077102661,3,3,3,3,-9.44,0.95,-1.99,0.06,0.14,-0.06
1.953252077102661,3,3,3,3,-9.44,0.95,-1.99,0.06,0.14,-0.06
1.973252058029175,3,3,3,3,-9.52,0.96,-1.87,0.25,0.2,0.09
1.973252058029175,3,3,3,3,-9.52,0.96,-1.87,0.25,0.2,0.09
1.993252038955688,3,3,3,3,-9.539999999999999,1,-2.02,0.02,0.11,0.16
1.993252038955688,3,3,3,3,-9.539999999999999,1,-2.02,0.02,0.11,0.16
2.013252019882202,3,3,3,3,-9.449999999999999,0.92,-2.08,-0.18,0.09,0.02
2.013252019882202,3,3,3,3,-9.449999999999999,0.92,-2.08,-0.18,0.09,0.02
2.033252000808716,3,3,3,3,-9.44,0.98,-2,-0.04,0.22,0.03
2.033252000808716,3,3,3,3,-9.44,0.98,-2,-0.04,0.22,0.03
2.053251981735229,3,3,3,3,-9.49,0.92,-2.04,0.1,0.1,0.13
2.053251981735229,3,3,3,3,-9.49,0.92,-2.04,0.1,0.1,0.13
2.073251962661743,3,3,3,3,-9.52,0.92,-1.87,0.22,0.03,0.11
2.073251962661743,3,3,3,3,-9.52,0.92,-1.87,0.22,0.03,0.11
2.093251943588257,3,3,3,3,-9.59,0.79,-1.94,0.61,-0.02,0.42
2.093251943588257,3,3,3,3,-9.59,0.79,-1.94,0.61,-0.02,0.42
2.11325216293335,3,3,3,3,-9.539999999999999,0.67,-1.82,0.92,0.01,0.53
2.11325216293335,3,3,3,3,-9.539999999999999,0.67,-1.82,0.92,0.01,0.53
2.133252143859863,3,3,3,3,-9.550000000000001,0.71,-1.91,1.37,-0.14,0.6
2.133252143859863,3,3,3,3,-9.550000000000001,0.71,-1.91,1.37,-0.14,0.6
2.153252124786377,3,3,3,3,-9.539999999999999,0.89,-2.12,1.56,-0.21,0.49
2.153252124786377,3,3,3,3,-9.539999999999999,0.89,-2.12,1.56,-0.21,0.49
2.174252033233643,3,3,3,3,-9.710000000000001,1.22,-2.03,1.29,0.02,0.25
2.174252033233643,3,3,3,3,-9.710000000000001,1.22,-2.03,1.29,0.02,0.25
2.194252014160156,3,3,3,3,-9.51,1.07,-2.15,1.11,0.18,0.02
2.194252014160156,3,3,3,3,-9.51,1.07,-2.15,1.11,0.18,0.02
2.21425199508667,3,3,3,3,-9.539999999999999,0.97,-1.81,0.31,0.2,0.16
2.21425199508667,3,3,3,3,-9.539999999999999,0.97,-1.81,0.31,0.2,0.16
2.234251976013184,3,3,3,3,-9.529999999999999,1.14,-1.84,0.27,0.1,0.14
2.234251976013184,3,3,3,3,-9.529999999999999,1.14,-1.84,0.27,0.1,0.14
2.254251956939697,3,3,3,3,-9.48,1.08,-2.01,-0.16,-0.1,0.12
2.254251956939697,3,3,3,3,-9.48,1.08,-2.01,-0.16,-0.1,0.12
2.274251937866211,3,3,3,3,-9.41,1.13,-2.22,-0.27,0.06,0.14
2.274251937866211,3,3,3,3,-9.41,1.13,-2.22,-0.27,0.06,0.14
2.294252157211304,3,3,3,3,-9.4,1.19,-2.27,-0.13,0,0.2
2.294252157211304,3,3,3,3,-9.4,1.19,-2.27,-0.13,0,0.2
2.314252138137817,3,3,3,3,-9.43,1.16,-2,-0.05,0.02,0.2
2.314252138137817,3,3,3,3,-9.43,1.16,-2,-0.05,0.02,0.2
2.334252119064331,3,3,3,3,-9.460000000000001,0.96,-1.89,-0.09,-0.11,0.18
2.334252119064331,3,3,3,3,-9.460000000000001,0.96,-1.89,-0.09,-0.11,0.18
2.354252099990845,3,3,3,3,-9.57,1.04,-1.98,-0.09,-0.22,0.13
2.354252099990845,3,3,3,3,-9.57,1.04,-1.98,-0.09,-0.22,0.13
2.374252080917358,3,3,3,3,-9.449999999999999,1.07,-1.94,0.04,-0.07000000000000001,0.03
2.374252080917358,3,3,3,3,-9.449999999999999,1.07,-1.94,0.04,-0.07000000000000001,0.03
2.394252061843872,3,3,3,3,-9.449999999999999,1.22,-2.08,-0.03,-0.07000000000000001,-0.1
2.394252061843872,3,3,3,3,-9.449999999999999,1.22,-2.08,-0.03,-0.07000000000000001,-0.1
2.414252042770386,3,3,3,3,-9.52,1.22,-1.98,-0.14,-0.13,-0.04
2.414252042770386,3,3,3,3,-9.52,1.22,-1.98,-0.14,-0.13,-0.04
2.434252023696899,3,3,3,3,-9.51,1.32,-2.02,-0.33,-0.16,-0.04
2.434252023696899,3,3,3,3,-9.51,1.32,-2.02,-0.33,-0.16,-0.04
2.454252004623413,3,3,3,3,-9.51,1.51,-2.08,-0.57,0.05,-0.09
2.454252004623413,3,3,3,3,-9.51,1.51,-2.08,-0.57,0.05,-0.09
2.474251985549927,3,3,3,3,-9.49,1.33,-2.02,-0.72,0.03,-0.04
2.474251985549927,3,3,3,3,-9.49,1.33,-2.02,-0.72,0.03,-0.04
2.49425196647644,3,3,3,3,-9.470000000000001,1.29,-2.12,-0.75,-0.1,0.09
2.49425196647644,3,3,3,3,-9.470000000000001,1.29,-2.12,-0.75,-0.1,0.09
2.514251947402954,3,3,3,3,-9.449999999999999,1.09,-2.06,-0.5600000000000001,0.02,0.21
2.514251947402954,3,3,3,3,-9.449999999999999,1.09,-2.06,-0.5600000000000001,0.02,0.21
2.534251928329468,3,3,3,3,-9.49,1.03,-1.96,-0.4,0.1,0.2
2.534251928329468,3,3,3,3,-9.49,1.03,-1.96,-0.4,0.1,0.2
2.554252147674561,3,3,3,3,-9.529999999999999,1,-2.01,-0.26,0.19,0.13
2.554252147674561,3,3,3,3,-9.529999999999999,1,-2.01,-0.26,0.19,0.13
2.574252128601074,3,3,3,3,-9.6,0.96,-1.87,-0.07000000000000001,0.07000000000000001,0.25
2.574252128601074,3,3,3,3,-9.6,0.96,-1.87,-0.07000000000000001,0.07000000000000001,0.25
2.594252109527588,3,3,3,3,-9.48,1.05,-2.04,0,-0.07000000000000001,0.34
2.594252109527588,3,3,3,3,-9.48,1.05,-2.04,0,-0.07000000000000001,0.34
2.614252090454102,3,3,3,3,-9.529999999999999,1.12,-2.01,-0.02,0.08,0.4
2.614252090454102,3,3,3,3,-9.529999999999999,1.12,-2.01,-0.02,0.08,0.4
2.634252071380615,3,3,3,3,-9.550000000000001,1.06,-2.05,0,0,0.48
2.634252071380615,3,3,3,3,-9.550000000000001,1.06,-2.05,0,0,0.48
2.654252052307129,3,3,3,3,-9.51,1.02,-2.03,0.06,-0.01,0.52
2.654252052307129,3,3,3,3,-9.51,1.02,-2.03,0.06,-0.01,0.52
2.674252033233643,3,3,3,3,-9.57,0.93,-1.95,-0.04,0.02,0.49
2.674252033233643,3,3,3,3,-9.57,0.93,-1.95,-0.04,0.02,0.49
2.694252014160156,3,3,3,3,-9.539999999999999,0.86,-2.09,-0.04,0.11,0.52
2.694252014160156,3,3,3,3,-9.539999999999999,0.86,-2.09,-0.04,0.11,0.52
2.71425199508667,3,3,3,3,-9.470000000000001,1.15,-2,0.19,0.1,0.52
2.71425199508667,3,3,3,3,-9.470000000000001,1.15,-2,0.19,0.1,0.52
2.734251976013184,3,3,3,3,-9.470000000000001,1.16,-1.96,0.18,0.06,0.61
2.734251976013184,3,3,3,3,-9.470000000000001,1.16,-1.96,0.18,0.06,0.61
2.754251956939697,3,3,3,3,-9.51,1.03,-2,0.24,0.03,0.66
2.754251956939697,3,3,3,3,-9.51,1.03,-2,0.24,0.03,0.66
2.774251937866211,3,3,3,3,-9.58,0.99,-2.02,0.34,-0.04,0.65
2.774251937866211,3,3,3,3,-9.58,0.99,-2.02,0.34,-0.04,0.65
2.794252157211304,3,3,3,3,-9.48,1.05,-2.07,0.27,-0.06,0.55
2.794252157211304,3,3,3,3,-9.48,1.05,-2.07,0.27,-0.06,0.55
2.814252138137817,3,3,3,3,-9.49,1.19,-1.95,0.12,0.16,0.45
2.814252138137817,3,3,3,3,-9.49,1.19,-1.95,0.12,0.16,0.45
2.834252119064331,3,3,3,3,-9.5,1.08,-1.97,-0.19,0.12,0.34
2.834252119064331,3,3,3,3,-9.5,1.08,-1.97,-0.19,0.12,0.34
2.854252099990845,3,3,3,3,-9.56,0.99,-2.02,-0.35,0.04,0.27
2.854252099990845,3,3,3,3,-9.56,0.99,-2.02,-0.35,0.04,0.27
2.874252080917358,3,3,3,3,-9.539999999999999,1.03,-1.95,-0.29,0.02,0.26
2.874252080917358,3,3,3,3,-9.539999999999999,1.03,-1.95,-0.29,0.02,0.26
2.894252061843872,3,3,3,3,-9.48,1.12,-2.12,-0.17,-0.15,0.28
2.894252061843872,3,3,3,3,-9.48,1.12,-2.12,-0.17,-0.15,0.28
2.914252042770386,3,3,3,3,-9.49,1.16,-2,-0.02,0.11,0.25
2.914252042770386,3,3,3,3,-9.49,1.16,-2,-0.02,0.11,0.25
2.934252023696899,3,3,3,3,-9.49,1.11,-1.94,-0.09,0.09,0.22
2.934252023696899,3,3,3,3,-9.49,1.11,-1.94,-0.09,0.09,0.22
2.954252004623413,3,3,3,3,-9.52,1.25,-2.05,-0.19,0.03,0.23
2.954252004623413,3,3,3,3,-9.52,1.25,-2.05,-0.19,0.03,0.23
2.974251985549927,3,3,3,3,-9.49,1.21,-1.98,-0.15,-0.04,0.23
2.974251985549927,3,3,3,3,-9.49,1.21,-1.98,-0.15,-0.04,0.23
2.99425196647644,3,3,3,3,-9.48,1.16,-2.13,0.08,-0.1,0.22
2.99425196647644,3,3,3,3,-9.48,1.16,-2.13,0.08,-0.1,0.22
3.014251947402954,3,3,3,3,-9.49,1.21,-1.99,0.1,0.1,0.28
3.014251947402954,3,3,3,3,-9.49,1.21,-1.99,0.1,0.1,0.28
3.034251928329468,3,3,3,3,-9.49,1.1,-1.94,-0.01,0.1,0.18
3.034251928329468,3,3,3,3,-9.49,1.1,-1.94,-0.01,0.1,0.18
3.054252147674561,3,3,3,3,-9.550000000000001,0.99,-1.86,-0.21,-0.13,0.12
3.054252147674561,3,3,3,3,-9.550000000000001,0.99,-1.86,-0.21,-0.13,0.12
3.074252128601074,3,3,3,3,-9.550000000000001,0.95,-1.84,-0.3,0,-0.15
3.074252128601074,3,3,3,3,-9.550000000000001,0.95,-1.84,-0.3,0,-0.15
3.094252109527588,3,3,3,3,-9.5,0.63,-1.87,-0.21,-0.02,-0.36
3.094252109527588,3,3,3,3,-9.5,0.63,-1.87,-0.21,-0.02,-0.36
3.114252090454102,3,3,3,3,-9.52,0.52,-1.71,-0.28,-0.15,-0.65
3.114252090454102,3,3,3,3,-9.52,0.52,-1.71,-0.28,-0.15,-0.65
3.134252071380615,3,3,3,3,-9.58,0.62,-1.71,-0.5,-0.08,-1.05
3.134252071380615,3,3,3,3,-9.58,0.62,-1.71,-0.5,-0.08,-1.05
3.154252052307129,3,3,3,3,-9.51,0.89,-1.73,-0.88,-0.07000000000000001,-1.3
3.154252052307129,3,3,3,3,-9.51,0.89,-1.73,-0.88,-0.07000000000000001,-1.3
3.174252033233643,3,3,3,3,-9.529999999999999,1.05,-1.88,-1.08,0.14,-1.37
3.174252033233643,3,3,3,3,-9.529999999999999,1.05,-1.88,-1.08,0.14,-1.37
3.195251941680908,3,3,3,3,-9.390000000000001,1,-2.11,-1.14,0.01,-1.54
3.195251941680908,3,3,3,3,-9.390000000000001,1,-2.11,-1.14,0.01,-1.54
3.215252161026001,3,3,3,3,-9.51,0.35,-1.78,-0.84,-0.19,-1.34
3.215252161026001,3,3,3,3,-9.51,0.35,-1.78,-0.84,-0.19,-1.34
3.235252141952515,3,3,3,3,-9.56,0.27,-1.57,-0.23,-0.48,-1.3
3.235252141952515,3,3,3,3,-9.56,0.27,-1.57,-0.23,-0.48,-1.3
3.255252122879028,3,3,3,3,-9.57,0.31,-1.43,0.14,-0.58,-1.51
3.255252122879028,3,3,3,3,-9.57,0.31,-1.43,0.14,-0.58,-1.51
3.275252103805542,3,3,3,3,-9.5,0.42,-1.62,-0.26,-0.48,-1.67
3.275252103805542,3,3,3,3,-9.5,0.42,-1.62,-0.26,-0.48,-1.67
3.295252084732056,3,3,3,3,-9.460000000000001,-0.3,-1.61,-0.25,-0.52,-1.67
3.295252084732056,3,3,3,3,-9.460000000000001,-0.3,-1.61,-0.25,-0.52,-1.67
3.315252065658569,3,3,3,3,-9.56,-0.91,-1.28,0.67,-0.7,-1.7
3.315252065658569,3,3,3,3,-9.56,-0.91,-1.28,0.67,-0.7,-1.7
3.335252046585083,3,3,3,3,-9.31,-0.22,-1.31,1.22,-1.37,-2.15
3.335252046585083,3,3,3,3,-9.31,-0.22,-1.31,1.22,-1.37,-2.15
3.355252027511597,3,3,3,3,-9.52,-1.03,-0.75,2.21,-1.73,-2.57
3.355252027511597,3,3,3,3,-9.52,-1.03,-0.75,2.21,-1.73,-2.57
3.37525200843811,3,3,3,3,-9.050000000000001,-1.54,-0.37,1.15,-2.34,-3.54
3.37525200843811,3,3,3,3,-9.050000000000001,-1.54,-0.37,1.15,-2.34,-3.54
3.395251989364624,3,3,3,3,-8.99,-0.93,-0.14,0.26,-1.3,-4.55
3.395251989364624,3,3,3,3,-8.99,-0.93,-0.14,0.26,-1.3,-4.55
3.415251970291138,3,3,3,3,-9.16,-0.9,0.05,-0.31,-1.98,-5.68
3.415251970291138,3,3,3,3,-9.16,-0.9,0.05,-0.31,-1.98,-5.68
3.435251951217651,3,3,3,3,-9.029999999999999,-1.58,0.3,-0.23,-2.57,-6.84
3.435251951217651,3,3,3,3,-9.029999999999999,-1.58,0.3,-0.23,-2.57,-6.84
3.455251932144165,3,3,3,3,-8.48,-0.95,-0.2,-1.02,-3.45,-8.029999999999999
3.455251932144165,3,3,3,3,-8.48,-0.95,-0.2,-1.02,-3.45,-8.029999999999999
3.475252151489258,3,3,3,3,-8.41,0.02,-0.48,-2.03,-3.46,-8.720000000000001
3.475252151489258,3,3,3,3,-8.41,0.02,-0.48,-2.03,-3.46,-8.720000000000001
3.495252132415771,3,3,3,3,-9.199999999999999,0.39,-2.11,-1.54,-3.02,-9.19
3.495252132415771,3,3,3,3,-9.199999999999999,0.39,-2.11,-1.54,-3.02,-9.19
3.515252113342285,3,3,3,3,-9.130000000000001,1.43,-1.8,-1.07,-2.74,-9.710000000000001
3.515252113342285,3,3,3,3,-9.130000000000001,1.43,-1.8,-1.07,-2.74,-9.710000000000001
3.535252094268799,3,3,3,3,-9.16,0.77,-1.59,-2.18,-2.53,-9.73
3.535252094268799,3,3,3,3,-9.16,0.77,-1.59,-2.18,-2.53,-9.73
3.555252075195312,3,3,3,3,-9.380000000000001,-0.84,-0.77,-5.09,-2.94,-9.76
3.555252075195312,3,3,3,3,-9.380000000000001,-0.84,-0.77,-5.09,-2.94,-9.76
3.575252056121826,3,3,3,3,-8.970000000000001,-1.57,-0.76,-4.37,-2.42,-10.94
3.575252056121826,3,3,3,3,-8.970000000000001,-1.57,-0.76,-4.37,-2.42,-10.94
3.59525203704834,3,3,3,3,-8.16,-0.48,-1.25,-1.42,-0.38,-12.09
3.59525203704834,3,3,3,3,-8.16,-0.48,-1.25,-1.42,-0.38,-12.09
3.615252017974854,3,3,3,3,-8.56,-2.03,-1.25,-2.62,-2.17,-12.36
3.615252017974854,3,3,3,3,-8.56,-2.03,-1.25,-2.62,-2.17,-12.36
3.635251998901367,3,3,3,3,-9.52,-2.24,-2.56,-1.8,-3.6,-11.69
3.635251998901367,3,3,3,3,-9.52,-2.24,-2.56,-1.8,-3.6,-11.69
3.655251979827881,3,3,3,3,-9.640000000000001,-0.64,-3.22,2.12,-3.52,-10.53
3.655251979827881,3,3,3,3,-9.640000000000001,-0.64,-3.22,2.12,-3.52,-10.53
3.675251960754395,3,3,3,3,-9.779999999999999,-0.36,-2.68,3.84,-0.78,-9.75
3.675251960754395,3,3,3,3,-9.779999999999999,-0.36,-2.68,3.84,-0.78,-9.75
3.695251941680908,3,3,3,3,-10.6,-1.57,-2.34,0.98,0.06,-8.77
3.695251941680908,3,3,3,3,-10.6,-1.57,-2.34,0.98,0.06,-8.77
3.715252161026001,3,3,3,3,-10.08,-1.44,-1.46,-0.07000000000000001,0.57,-7.79
3.715252161026001,3,3,3,3,-10.08,-1.44,-1.46,-0.07000000000000001,0.57,-7.79
3.735252141952515,3,3,3,3,-10.3,-2.09,-1.6,-1.26,1.28,-7.11
3.735252141952515,3,3,3,3,-10.3,-2.09,-1.6,-1.26,1.28,-7.11
3.755252122879028,3,3,3,3,-10.61,-2.12,-2.03,-2.01,0.71,-6.42
3.755252122879028,3,3,3,3,-10.61,-2.12,-2.03,-2.01,0.71,-6.42
3.775252103805542,3,3,3,3,-10.77,-2.77,-2.25,-1.77,0.67,-5.44
3.775252103805542,3,3,3,3,-10.77,-2.77,-2.25,-1.77,0.67,-5.44
3.795252084732056,3,3,3,3,-10.99,-3.36,-2.36,-0.89,0.37,-4.12
3.795252084732056,3,3,3,3,-10.99,-3.36,-2.36,-0.89,0.37,-4.12
3.815252065658569,3,3,3,3,-10.48,-1.76,-2.16,0.9,0.57,-3.01
3.815252065658569,3,3,3,3,-10.48,-1.76,-2.16,0.9,0.57,-3.01
3.835252046585083,3,3,3,3,-10.83,-2.07,-2.27,1.33,0.74,-1.4
3.835252046585083,3,3,3,3,-10.83,-2.07,-2.27,1.33,0.74,-1.4
3.855252027511597,3,3,3,3,-11.53,-2.72,-1.92,1.22,0.38,-0.09
3.855252027511597,3,3,3,3,-11.53,-2.72,-1.92,1.22,0.38,-0.09
3.87525200843811,3,3,3,3,-11.32,-1.39,-1.86,1.45,0.5600000000000001,0.58
3.87525200843811,3,3,3,3,-11.32,-1.39,-1.86,1.45,0.5600000000000001,0.58
3.895251989364624,3,3,3,3,-10.95,1.24,-2.24,0.8,1.61,1.44
3.895251989364624,3,3,3,3,-10.95,1.24,-2.24,0.8,1.61,1.44
3.915251970291138,3,3,3,3,-11.84,3.29,-3.24,-1.73,2.95,3.89
3.915251970291138,3,3,3,3,-11.84,3.29,-3.24,-1.73,2.95,3.89
3.935251951217651,3,3,3,3,-14.01,-0.54,-3.94,-6.86,1.81,7.13
3.935251951217651,3,3,3,3,-14.01,-0.54,-3.94,-6.86,1.81,7.13
3.955251932144165,3,3,3,3,-17.98,-0.05,-2.67,-5.91,-0.66,9.050000000000001
3.955251932144165,3,3,3,3,-17.98,-0.05,-2.67,-5.91,-0.66,9.050000000000001
3.975252151489258,3,3,3,3,-18.48,4.14,-1.18,-1.97,-1.5,10.84
3.975252151489258,3,3,3,3,-18.48,4.14,-1.18,-1.97,-1.5,10.84
3.995252132415771,3,3,3,3,-17.4,7.81,-0.5,-4.38,-2.02,13.72
3.995252132415771,3,3,3,3,-17.4,7.81,-0.5,-4.38,-2.02,13.72
4.015252113342285,3,3,3,3,-20.17,8,-2.78,-10.89,-5.14,19.34
4.015252113342285,3,3,3,3,-20.17,8,-2.78,-10.89,-5.14,19.34
4.035252094268799,3,3,3,3,-28.14,6.57,-8.51,-15.39,-6.77,24.9
4.035252094268799,3,3,3,3,-28.14,6.57,-8.51,-15.39,-6.77,24.9
4.055252075195312,3,3,3,3,-28.89,1.86,-11.08,-12.67,0.9399999999999999,24.35
4.055252075195312,3,3,3,3,-28.89,1.86,-11.08,-12.67,0.9399999999999999,24.35
4.075252056121826,3,3,3,2,-22.69,-6.55,-8.869999999999999,-4.02,7.38,23.61
4.075252056121826,3,3,3,2,-22.69,-6.55,-8.869999999999999,-4.02,7.38,23.61
4.09525203704834,3,3,3,2,-18.52,-7.19,-4.75,7.99,8.9,23.06
4.09525203704834,3,3,3,2,-18.52,-7.19,-4.75,7.99,8.9,23.06
4.115252017974854,3,3,3,2,-6.33,-2.66,3.19,6.98,9.57,22.96
4.115252017974854,3,3,3,2,-6.33,-2.66,3.19,6.98,9.57,22.96
4.135251998901367,3,3,3,2,-0.43,-16.77,7.12,-4.59,0.72,18.04
4.135251998901367,3,3,3,2,-0.43,-16.77,7.12,-4.59,0.72,18.04
4.155251979827881,3,3,3,2,-3.77,-31.59,15.04,-1.9,-3.89,3.19
4.155251979827881,3,3,3,2,-3.77,-31.59,15.04,-1.9,-3.89,3.19
4.175251960754395,3,3,3,2,-6.33,-9.08,5.1,7.74,1.34,-5.09
4.175251960754395,3,3,3,2,-6.33,-9.08,5.1,7.74,1.34,-5.09
4.195251941680908,3,3,3,2,-2.52,5.58,-2.23,-4.9,1.68,-8.210000000000001
4.195251941680908,3,3,3,2,-2.52,5.58,-2.23,-4.9,1.68,-8.210000000000001
4.216252088546753,3,3,3,2,-1.52,0.2,-1.15,-9.65,-2.39,-11.8
4.216252088546753,3,3,3,2,-1.52,0.2,-1.15,-9.65,-2.39,-11.8
4.236252069473267,3,3,3,2,1.89,1.04,-2.28,-0.04,-7.16,-11.35
4.236252069473267,3,3,3,2,1.89,1.04,-2.28,-0.04,-7.16,-11.35
4.25625205039978,3,3,3,2,1.45,3.92,-2.78,4,-3.46,-7.86
4.25625205039978,3,3,3,2,1.45,3.92,-2.78,4,-3.46,-7.86
4.276252031326294,3,3,3,2,0.52,2.78,-1.54,1.11,-4.86,-5.24
4.276252031326294,3,3,3,2,0.52,2.78,-1.54,1.11,-4.86,-5.24
4.296252012252808,3,3,3,2,-0.01,-0.06,-1.9,-3.75,-5.79,-3.66
4.296252012252808,3,3,3,2,-0.01,-0.06,-1.9,-3.75,-5.79,-3.66
4.316251993179321,3,3,3,2,0.48,-1.19,-1.17,-2.18,-5.18,-3.76
4.316251993179321,3,3,3,2,0.48,-1.19,-1.17,-2.18,-5.18,-3.76
4.336251974105835,3,3,3,2,0.58,0.64,-0.91,4.51,-4.07,-2.24
4.336251974105835,3,3,3,2,0.58,0.64,-0.91,4.51,-4.07,-2.24
4.356251955032349,3,3,3,2,0.57,1.2,-0.47,10.06,-2.71,-1.27
4.356251955032349,3,3,3,2,0.57,1.2,-0.47,10.06,-2.71,-1.27
4.376251935958862,3,3,3,2,1.38,2.1,-1.67,12.57,-1.03,-0.93
4.376251935958862,3,3,3,2,1.38,2.1,-1.67,12.57,-1.03,-0.93
4.396252155303955,3,3,3,2,-0.05,3.8,-0.51,12.33,2.17,-0.05
4.396252155303955,3,3,3,2,-0.05,3.8,-0.51,12.33,2.17,-0.05
4.416252136230469,3,3,3,2,0.78,4.06,0.23,7.75,-1.22,1.58
4.416252136230469,3,3,3,2,0.78,4.06,0.23,7.75,-1.22,1.58
4.436252117156982,3,3,3,2,0.86,1.72,0.16,5.57,-1.7,1.14
4.436252117156982,3,3,3,2,0.86,1.72,0.16,5.57,-1.7,1.14
4.456252098083496,3,3,3,2,-0.55,-1.18,1.85,5.21,-2.22,-0.01
4.456252098083496,3,3,3,2,-0.55,-1.18,1.85,5.21,-2.22,-0.01
4.47625207901001,3,3,3,2,-1.82,-5.18,2.4,2.73,0.78,-0.29
4.47625207901001,3,3,3,2,-1.82,-5.18,2.4,2.73,0.78,-0.29
4.496252059936523,3,3,3,2,-8.31,-31.27,5.53,-16.79,2.42,-5.48
4.496252059936523,3,3,3,2,-8.31,-31.27,5.53,-16.79,2.42,-5.48
4.516252040863037,3,3,3,2,-17.7,14.04,-12.22,-4.92,-6.78,-2.56
4.516252040863037,3,3,3,2,-17.7,14.04,-12.22,-4.92,-6.78,-2.56
4.536252021789551,3,3,3,2,-37.78,-5.13,-9.699999999999999,-18.76,-2.34,-14.83
4.536252021789551,3,3,3,2,-37.78,-5.13,-9.699999999999999,-18.76,-2.34,-14.83
4.556252002716064,3,3,3,2,-12.27,-24.52,5.82,-17.98,2.81,-15.53
4.556252002716064,3,3,3,2,-12.27,-24.52,5.82,-17.98,2.81,-15.53
4.576251983642578,3,3,3,2,-36.59,2.38,-4.15,8.35,-0.86,-25.29
4.576251983642578,3,3,3,2,-36.59,2.38,-4.15,8.35,-0.86,-25.29
4.596251964569092,3,3,3,2,-2.39,39.35,-13.88,56.71,8.93,-19.35
4.596251964569092,3,3,3,2,-2.39,39.35,-13.88,56.71,8.93,-19.35
4.616251945495605,3,3,3,2,-10.94,9.380000000000001,-1.75,-14.62,7,-11.44
4.616251945495605,3,3,3,2,-10.94,9.380000000000001,-1.75,-14.62,7,-11.44
4.636252164840698,3,3,3,2,-17.17,-7.7,-2.5,-34.21,-1.54,-3.26
4.636252164840698,3,3,3,2,-17.17,-7.7,-2.5,-34.21,-1.54,-3.26
4.656252145767212,3,3,3,2,-23.25,-2.02,-0.84,-2.94,-4.31,3.29
4.656252145767212,3,3,3,2,-23.25,-2.02,-0.84,-2.94,-4.31,3.29
4.676252126693726,3,3,3,2,-18.82,3.09,-2.52,11.46,-0.5,0.47
4.676252126693726,3,3,3,2,-18.82,3.09,-2.52,11.46,-0.5,0.47
4.696252107620239,3,3,3,2,-9.57,3.74,-3.51,8.460000000000001,0.92,2.57
4.696252107620239,3,3,3,2,-9.57,3.74,-3.51,8.460000000000001,0.92,2.57
4.716252088546753,3,3,3,2,-12.79,-1.32,-2.39,4.01,0.17,5.37
4.716252088546753,3,3,3,2,-12.79,-1.32,-2.39,4.01,0.17,5.37
4.736252069473267,3,3,3,2,-11.96,1.55,-3.68,8.9,0.98,9.859999999999999
4.736252069473267,3,3,3,2,-11.96,1.55,-3.68,8.9,0.98,9.859999999999999
4.75625205039978,3,3,3,2,-7.62,3.71,-3.98,6.48,2.37,11.3
4.75625205039978,3,3,3,2,-7.62,3.71,-3.98,6.48,2.37,11.3
4.776252031326294,3,3,3,2,-9.34,1.22,-3.08,-2.25,3.4,8.460000000000001
4.776252031326294,3,3,3,2,-9.34,1.22,-3.08,-2.25,3.4,8.460000000000001
4.796252012252808,3,3,3,2,-9.32,-0.89,-2.57,-6.37,4.85,7.35
4.796252012252808,3,3,3,2,-9.32,-0.89,-2.57,-6.37,4.85,7.35
4.816251993179321,3,3,3,2,-8.17,-3.01,-1.27,-6.7,5.75,7.14
4.816251993179321,3,3,3,2,-8.17,-3.01,-1.27,-6.7,5.75,7.14
4.836251974105835,3,3,3,2,-7.81,-3.62,-0.4,-3.81,5.23,7.3
4.836251974105835,3,3,3,2,-7.81,-3.62,-0.4,-3.81,5.23,7.3
4.856251955032349,3,3,3,2,-8.140000000000001,-4.18,0.64,0.25,4,7.24
4.856251955032349,3,3,3,2,-8.140000000000001,-4.18,0.64,0.25,4,7.24
4.876251935958862,3,3,3,2,-8.1,-3.43,0.99,2.9,2.85,6.67
4.876251935958862,3,3,3,2,-8.1,-3.43,0.99,2.9,2.85,6.67
4.896252155303955,3,3,3,2,-8.48,-1.78,0.47,3.62,1.24,5.82
4.896252155303955,3,3,3,2,-8.48,-1.78,0.47,3.62,1.24,5.82
4.916252136230469,3,3,3,2,-8.73,-1.09,-0.58,1.61,1.37,4.49
4.916252136230469,3,3,3,2,-8.73,-1.09,-0.58,1.61,1.37,4.49
4.936252117156982,3,3,3,2,-8.51,-2.05,-1.27,-0.08,1.39,2.82
4.936252117156982,3,3,3,2,-8.51,-2.05,-1.27,-0.08,1.39,2.82
4.956252098083496,3,3,3,2,-8.59,-2.83,-1.26,-0.35,0.96,1.66
4.956252098083496,3,3,3,2,-8.59,-2.83,-1.26,-0.35,0.96,1.66
4.97625207901001,3,3,3,2,-8.83,-1.94,-1.58,-0.15,0.62,1.54
4.97625207901001,3,3,3,2,-8.83,-1.94,-1.58,-0.15,0.62,1.54
4.996252059936523,3,3,3,2,-9.630000000000001,-0.48,-2.05,0.29,-0.08,1.07
4.996252059936523,3,3,3,2,-9.630000000000001,-0.48,-2.05,0.29,-0.08,1.07
5.016252040863037,3,3,3,2,-10.14,0.64,-2.24,0.32,-0.05,1.18
5.016252040863037,3,3,3,2,-10.14,0.64,-2.24,0.32,-0.05,1.18
5.036252021789551,3,3,3,2,-10.34,1.5,-2.15,0.19,0.31,1.7
5.036252021789551,3,3,3,2,-10.34,1.5,-2.15,0.19,0.31,1.7
5.056252002716064,3,3,3,2,-10.04,1.18,-2,-1.01,0.39,2.3
5.056252002716064,3,3,3,2,-10.04,1.18,-2,-1.01,0.39,2.3
5.076251983642578,3,3,3,2,-9.369999999999999,0.6899999999999999,-1.81,-1.81,0.45,2.59
5.076251983642578,3,3,3,2,-9.369999999999999,0.6899999999999999,-1.81,-1.81,0.45,2.59
5.096251964569092,3,3,3,2,-9.18,0,-1.94,-2.64,0.71,2.48
5.096251964569092,3,3,3,2,-9.18,0,-1.94,-2.64,0.71,2.48
5.116251945495605,3,3,3,2,-9.56,-0.57,-1.59,-2.37,1.1,2.26
5.116251945495605,3,3,3,2,-9.56,-0.57,-1.59,-2.37,1.1,2.26
5.136252164840698,3,3,3,2,-9.550000000000001,-0.54,-1.45,-0.89,0.8100000000000001,2.42
5.136252164840698,3,3,3,2,-9.550000000000001,-0.54,-1.45,-0.89,0.8100000000000001,2.42
5.156252145767212,3,3,3,2,-9.630000000000001,-0.36,-1.33,0.82,0.71,2.76
5.156252145767212,3,3,3,2,-9.630000000000001,-0.36,-1.33,0.82,0.71,2.76
5.176252126693726,3,3,3,2,-9.470000000000001,-0.27,-1.28,1.87,0.82,2.9
5.176252126693726,3,3,3,2,-9.470000000000001,-0.27,-1.28,1.87,0.82,2.9
5.196252107620239,3,3,3,2,-9.51,0.1,-1.53,2.28,0.48,2.75
5.196252107620239,3,3,3,2,-9.51,0.1,-1.53,2.28,0.48,2.75
5.216252088546753,3,3,3,2,-9.51,0.1,-1.33,1.73,0.05,2.29
5.216252088546753,3,3,3,2,-9.51,0.1,-1.33,1.73,0.05,2.29
5.236252069473267,3,3,3,2,-9.49,-0.34,-1.35,0.95,-0.24,2.16
5.236252069473267,3,3,3,2,-9.49,-0.34,-1.35,0.95,-0.24,2.16
5.257251977920532,3,3,3,2,-9.380000000000001,-0.05,-1.37,0.11,-0.05,1.67
5.257251977920532,3,3,3,2,-9.380000000000001,-0.05,-1.37,0.11,-0.05,1.67
5.277251958847046,3,3,3,2,-9.449999999999999,-0.19,-1.39,0,0.2,1.27
5.277251958847046,3,3,3,2,-9.449999999999999,-0.19,-1.39,0,0.2,1.27
5.29725193977356,3,3,3,2,-9.65,-0.49,-1.12,-0.36,-0.09,1.19
5.29725193977356,3,3,3,2,-9.65,-0.49,-1.12,-0.36,-0.09,1.19
5.317252159118652,3,3,3,2,-9.470000000000001,-0.21,-0.96,-0.12,-0.32,0.83
5.317252159118652,3,3,3,2,-9.470000000000001,-0.21,-0.96,-0.12,-0.32,0.83
5.337252140045166,3,3,3,2,-9.57,0.15,-1.28,0.02,-0.05,0.54
5.337252140045166,3,3,3,2,-9.57,0.15,-1.28,0.02,-0.05,0.54
5.35725212097168,3,3,3,2,-9.59,0.61,-1.83,-0.3,0.02,0.39
5.35725212097168,3,3,3,2,-9.59,0.61,-1.83,-0.3,0.02,0.39
5.377252101898193,3,3,3,3,-9.68,1.13,-2.12,0.05,0.02,0.5
5.377252101898193,3,3,3,3,-9.68,1.13,-2.12,0.05,0.02,0.5
5.397252082824707,3,3,3,3,-9.619999999999999,0.98,-2.12,0.62,-0.14,0.9
5.397252082824707,3,3,3,3,-9.619999999999999,0.98,-2.12,0.62,-0.14,0.9
5.417252063751221,3,3,3,3,-9.640000000000001,0.64,-1.91,0.92,-0.16,1.01
5.417252063751221,3,3,3,3,-9.640000000000001,0.64,-1.91,0.92,-0.16,1.01
5.437252044677734,3,3,3,3,-9.710000000000001,1.14,-1.57,1.52,0,1.19
5.437252044677734,3,3,3,3,-9.710000000000001,1.14,-1.57,1.52,0,1.19
5.457252025604248,3,3,3,3,-9.710000000000001,0.9399999999999999,-1.65,1.06,0.08,1.2
5.457252025604248,3,3,3,3,-9.710000000000001,0.9399999999999999,-1.65,1.06,0.08,1.2
5.477252006530762,3,3,3,3,-9.59,1.36,-1.63,0.87,0.13,1.26
5.477252006530762,3,3,3,3,-9.59,1.36,-1.63,0.87,0.13,1.26
5.497251987457275,3,3,3,3,-9.6,1.26,-1.77,0.36,0.11,1.17
5.497251987457275,3,3,3,3,-9.6,1.26,-1.77,0.36,0.11,1.17
5.517251968383789,3,3,3,3,-9.640000000000001,0.67,-1.53,0.16,-0.13,1.08
5.517251968383789,3,3,3,3,-9.640000000000001,0.67,-1.53,0.16,-0.13,1.08
5.537251949310303,3,3,3,3,-9.609999999999999,0.68,-1.53,-0.22,0.07000000000000001,0.92
5.537251949310303,3,3,3,3,-9.609999999999999,0.68,-1.53,-0.22,0.07000000000000001,0.92
5.557251930236816,3,3,3,3,-9.52,0.32,-1.59,-0.42,0.1,0.6899999999999999
5.557251930236816,3,3,3,3,-9.52,0.32,-1.59,-0.42,0.1,0.6899999999999999
5.577252149581909,3,3,3,3,-9.539999999999999,0.7,-1.73,-0.33,0.27,0.7
5.577252149581909,3,3,3,3,-9.539999999999999,0.7,-1.73,-0.33,0.27,0.7
5.597252130508423,3,3,3,3,-9.619999999999999,0.44,-1.76,-0.11,-0.1,0.78
5.597252130508423,3,3,3,3,-9.619999999999999,0.44,-1.76,-0.11,-0.1,0.78
5.617252111434937,3,3,3,3,-9.49,0.25,-1.6,-0.2,-0.28,0.6
5.617252111434937,3,3,3,3,-9.49,0.25,-1.6,-0.2,-0.28,0.6
5.63725209236145,3,3,3,3,-9.65,0.39,-1.58,0.15,-0.28,0.26
5.63725209236145,3,3,3,3,-9.65,0.39,-1.58,0.15,-0.28,0.26
5.657252073287964,3,3,3,3,-9.51,0.62,-1.67,0.15,0.05,0.2
5.657252073287964,3,3,3,3,-9.51,0.62,-1.67,0.15,0.05,0.2
5.677252054214478,3,3,3,3,-9.57,0.78,-1.81,0.15,0.04,0.21
5.677252054214478,3,3,3,3,-9.57,0.78,-1.81,0.15,0.04,0.21
5.697252035140991,3,3,3,3,-9.65,1.27,-2.01,-0.04,-0.35,0.24
5.697252035140991,3,3,3,3,-9.65,1.27,-2.01,-0.04,-0.35,0.24
5.717252016067505,3,3,3,3,-9.58,1.05,-1.9,0.13,-0.31,0.33
5.717252016067505,3,3,3,3,-9.58,1.05,-1.9,0.13,-0.31,0.33
5.737251996994019,3,3,3,3,-9.51,0.78,-1.8,-0.03,-0.31,0.42
5.737251996994019,3,3,3,3,-9.51,0.78,-1.8,-0.03,-0.31,0.42
5.757251977920532,3,3,3,3,-9.57,0.59,-1.8,0.27,-0.08,0.11
5.757251977920532,3,3,3,3,-9.57,0.59,-1.8,0.27,-0.08,0.11
5.777251958847046,3,3,3,3,-9.619999999999999,0.73,-1.57,0.21,0.05,0.04
5.777251958847046,3,3,3,3,-9.619999999999999,0.73,-1.57,0.21,0.05,0.04
5.79725193977356,3,3,3,3,-9.59,0.6,-1.59,0.29,-0.11,0.03
5.79725193977356,3,3,3,3,-9.59,0.6,-1.59,0.29,-0.11,0.03
5.817252159118652,3,3,3,3,-9.49,0.51,-1.53,0.21,-0.19,-0.04
5.817252159118652,3,3,3,3,-9.49,0.51,-1.53,0.21,-0.19,-0.04
5.837252140045166,3,3,3,3,-9.57,0.52,-1.62,0.26,-0.23,-0.24
5.837252140045166,3,3,3,3,-9.57,0.52,-1.62,0.26,-0.23,-0.24
5.85725212097168,3,3,3,3,-9.56,0.47,-1.59,0.5600000000000001,-0.2,-0.32
5.85725212097168,3,3,3,3,-9.56,0.47,-1.59,0.5600000000000001,-0.2,-0.32
5.877252101898193,3,3,3,3,-9.51,0.41,-1.56,0.5,-0.3,-0.46
5.877252101898193,3,3,3,3,-9.51,0.41,-1.56,0.5,-0.3,-0.46
5.897252082824707,3,3,3,3,-9.49,0.6899999999999999,-1.75,0.09,0.05,-0.76
5.897252082824707,3,3,3,3,-9.49,0.6899999999999999,-1.75,0.09,0.05,-0.76
5.917252063751221,3,3,3,3,-9.67,0.87,-1.67,0,0.28,-0.72
5.917252063751221,3,3,3,3,-9.67,0.87,-1.67,0,0.28,-0.72
5.937252044677734,3,3,3,3,-9.720000000000001,0.96,-1.61,0.05,-0.34,-0.67
5.937252044677734,3,3,3,3,-9.720000000000001,0.96,-1.61,0.05,-0.34,-0.67
5.957252025604248,3,3,3,3,-9.6,0.8,-1.54,-0.01,-0.46,-0.78
5.957252025604248,3,3,3,3,-9.6,0.8,-1.54,-0.01,-0.46,-0.78
5.977252006530762,3,3,3,3,-9.529999999999999,0.45,-1.44,-0.1,-0.5,-0.92
5.977252006530762,3,3,3,3,-9.529999999999999,0.45,-1.44,-0.1,-0.5,-0.92
5.997251987457275,3,3,3,3,-9.59,0.02,-1.44,-0.3,-0.68,-1.31
5.997251987457275,3,3,3,3,-9.59,0.02,-1.44,-0.3,-0.68,-1.31
6.017251968383789,3,3,3,3,-9.550000000000001,0.02,-1.36,-0.04,-0.67,-1.4
6.017251968383789,3,3,3,3,-9.550000000000001,0.02,-1.36,-0.04,-0.67,-1.4
6.037251949310303,3,3,3,3,-9.56,-0.57,-0.95,0.45,-1.27,-1.94
6.037251949310303,3,3,3,3,-9.56,-0.57,-0.95,0.45,-1.27,-1.94
6.057251930236816,3,3,3,3,-9.390000000000001,-0.61,-1.33,1.22,-0.85,-2.66
6.057251930236816,3,3,3,3,-9.390000000000001,-0.61,-1.33,1.22,-0.85,-2.66
6.077252149581909,3,3,3,3,-9.140000000000001,0.18,-1.17,1.15,-0.3,-2.86
6.077252149581909,3,3,3,3,-9.140000000000001,0.18,-1.17,1.15,-0.3,-2.86
6.097252130508423,3,3,3,3,-9.48,-0.72,-0.73,-0.52,-1.84,-3.33
6.097252130508423,3,3,3,3,-9.48,-0.72,-0.73,-0.52,-1.84,-3.33
6.117252111434937,3,3,3,3,-9.449999999999999,-2.75,-0.09,-1.1,-2.28,-3.84
6.117252111434937,3,3,3,3,-9.449999999999999,-2.75,-0.09,-1.1,-2.28,-3.84
6.13725209236145,3,3,3,3,-8.76,-1.66,-0.47,1.52,-1.63,-5.88
6.13725209236145,3,3,3,3,-8.76,-1.66,-0.47,1.52,-1.63,-5.88
6.157252073287964,3,3,3,3,-9,-0.91,-0.53,1.5,-2.88,-6.55
6.157252073287964,3,3,3,3,-9,-0.91,-0.53,1.5,-2.88,-6.55
6.177252054214478,3,3,3,3,-9.210000000000001,-0.27,-0.99,-0.4,-2.82,-6.68
6.177252054214478,3,3,3,3,-9.210000000000001,-0.27,-0.99,-0.4,-2.82,-6.68
6.197252035140991,3,3,3,3,-9.33,-0.88,-1.26,-1.18,-3.17,-6.42
6.197252035140991,3,3,3,3,-9.33,-0.88,-1.26,-1.18,-3.17,-6.42
6.217252016067505,3,3,3,3,-9.4,-0.9,-0.99,-0.13,-2.92,-6.99
6.217252016067505,3,3,3,3,-9.4,-0.9,-0.99,-0.13,-2.92,-6.99
6.237251996994019,3,3,3,3,-9.08,-1.21,-0.99,0.39,-3.64,-9.58
6.237251996994019,3,3,3,3,-9.08,-1.21,-0.99,0.39,-3.64,-9.58
6.257251977920532,3,3,3,3,-8.83,0.51,-0.67,-0.36,-2.22,-9.869999999999999
6.257251977920532,3,3,3,3,-8.83,0.51,-0.67,-0.36,-2.22,-9.869999999999999
6.278252124786377,3,3,3,3,-8.640000000000001,0.66,-1.18,-1.67,-3,-9.6
6.278252124786377,3,3,3,3,-8.640000000000001,0.66,-1.18,-1.67,-3,-9.6
6.298252105712891,3,3,3,3,-9.52,-1.93,-0.85,-2.82,-3.08,-9.539999999999999
6.298252105712891,3,3,3,3,-9.52,-1.93,-0.85,-2.82,-3.08,-9.539999999999999
6.318252086639404,3,3,3,3,-9.859999999999999,-0.91,-1.09,-0.99,-2.68,-10.02
6.318252086639404,3,3,3,3,-9.859999999999999,-0.91,-1.09,-0.99,-2.68,-10.02
6.338252067565918,3,3,3,3,-8.619999999999999,-0.7,-1.42,1.93,-1.35,-11.36
6.338252067565918,3,3,3,3,-8.619999999999999,-0.7,-1.42,1.93,-1.35,-11.36
6.358252048492432,3,3,3,3,-10.38,-2.5,-1.23,0.34,-2.14,-10.25
6.358252048492432,3,3,3,3,-10.38,-2.5,-1.23,0.34,-2.14,-10.25
6.378252029418945,3,3,3,3,-10.79,-1.44,-1.18,1.36,-2.37,-9.369999999999999
6.378252029418945,3,3,3,3,-10.79,-1.44,-1.18,1.36,-2.37,-9.369999999999999
6.398252010345459,3,3,3,3,-10.32,-1.6,-1.34,2.95,-2.2,-8.470000000000001
6.398252010345459,3,3,3,3,-10.32,-1.6,-1.34,2.95,-2.2,-8.470000000000001
6.418251991271973,3,3,3,3,-9.640000000000001,-1.27,-1.46,2.53,-1.67,-9.25
6.418251991271973,3,3,3,3,-9.640000000000001,-1.27,-1.46,2.53,-1.67,-9.25
6.438251972198486,3,3,3,3,-8.27,-1,-1.35,-0.02,-0.16,-9.800000000000001
6.438251972198486,3,3,3,3,-8.27,-1,-1.35,-0.02,-0.16,-9.800000000000001
6.458251953125,3,3,3,3,-9.710000000000001,-3.77,-0.92,-2.92,0.4,-9.07
6.458251953125,3,3,3,3,-9.710000000000001,-3.77,-0.92,-2.92,0.4,-9.07
6.478251934051514,3,3,3,3,-10.83,-4.73,-0.71,-2.82,-0.02,-8.470000000000001
6.478251934051514,3,3,3,3,-10.83,-4.73,-0.71,-2.82,-0.02,-8.470000000000001
6.498252153396606,3,3,3,3,-10.17,-4.12,-1.28,1.92,-2.24,-7.79
6.498252153396606,3,3,3,3,-10.17,-4.12,-1.28,1.92,-2.24,-7.79
6.51825213432312,3,3,3,3,-9.27,-1.64,-1.54,3.07,-1.69,-6.4
6.51825213432312,3,3,3,3,-9.27,-1.64,-1.54,3.07,-1.69,-6.4
6.538252115249634,3,3,3,3,-8.44,-0.58,-2.18,0.02,-0.73,-3.88
6.538252115249634,3,3,3,3,-8.44,-0.58,-2.18,0.02,-0.73,-3.88
6.558252096176147,3,3,3,3,-9.99,-3.38,-2.08,-2.17,0.63,-1.31
6.558252096176147,3,3,3,3,-9.99,-3.38,-2.08,-2.17,0.63,-1.31
6.578252077102661,3,3,3,3,-11.2,-4.26,-2.2,-1.57,0.5600000000000001,0.8
6.578252077102661,3,3,3,3,-11.2,-4.26,-2.2,-1.57,0.5600000000000001,0.8
6.598252058029175,3,3,3,3,-14.16,-0.23,-3.12,-0.27,0.75,3.42
6.598252058029175,3,3,3,3,-14.16,-0.23,-3.12,-0.27,0.75,3.42
6.618252038955688,3,3,3,3,-14.16,1.19,-3.06,-0.71,1.93,4.75
6.618252038955688,3,3,3,3,-14.16,1.19,-3.06,-0.71,1.93,4.75
6.638252019882202,3,3,3,3,-14.34,3.5,-1.44,-4.19,2.91,9.57
6.638252019882202,3,3,3,3,-14.34,3.5,-1.44,-4.19,2.91,9.57
6.658252000808716,3,3,3,3,-17.97,1.99,0.48,-7.39,0.18,13.7
6.658252000808716,3,3,3,3,-17.97,1.99,0.48,-7.39,0.18,13.7
6.678251981735229,3,3,3,3,-19.63,2.63,0.36,-8.49,-3.93,17.88
6.678251981735229,3,3,3,3,-19.63,2.63,0.36,-8.49,-3.93,17.88
6.698251962661743,3,3,3,3,-23.87,6.22,-1.72,-8.220000000000001,-5.4,21.28
6.698251962661743,3,3,3,3,-23.87,6.22,-1.72,-8.220000000000001,-5.4,21.28
6.718251943588257,3,3,3,3,-24.62,7.18,-3.07,-9.19,-4.7,24.38
6.718251943588257,3,3,3,3,-24.62,7.18,-3.07,-9.19,-4.7,24.38
6.73825216293335,3,3,3,3,-26.8,5.43,-8.4,-12.67,0.68,26.64
6.73825216293335,3,3,3,3,-26.8,5.43,-8.4,-12.67,0.68,26.64
6.758252143859863,3,3,3,3,-25.19,-4.08,-9.57,-12.85,5.71,25.27
6.758252143859863,3,3,3,3,-25.19,-4.08,-9.57,-12.85,5.71,25.27
6.778252124786377,3,3,3,3,-24.43,-7.97,-8.369999999999999,-0.82,9.75,22.65
6.778252124786377,3,3,3,3,-24.43,-7.97,-8.369999999999999,-0.82,9.75,22.65
6.798252105712891,3,3,3,3,-9.77,-4.68,-3.54,1.43,11.45,22.43
6.798252105712891,3,3,3,3,-9.77,-4.68,-3.54,1.43,11.45,22.43
6.818252086639404,3,3,3,2,-2,-25.25,13.07,-2.97,2.61,19.26
6.818252086639404,3,3,3,2,-2,-25.25,13.07,-2.97,2.61,19.26
6.838252067565918,3,3,3,2,-2.36,-39.08,20.28,6.24,-2.13,7.5
6.838252067565918,3,3,3,2,-2.36,-39.08,20.28,6.24,-2.13,7.5
6.858252048492432,3,3,3,2,-4.41,8.300000000000001,4.53,15.8,3.26,2.53
6.858252048492432,3,3,3,2,-4.41,8.300000000000001,4.53,15.8,3.26,2.53
6.878252029418945,3,3,3,2,-2,9.91,-1.17,-7.33,5.68,-2.57
6.878252029418945,3,3,3,2,-2,9.91,-1.17,-7.33,5.68,-2.57
6.898252010345459,3,3,3,2,2.64,-3.59,-4.12,-10.28,-6.55,-9.67
6.898252010345459,3,3,3,2,2.64,-3.59,-4.12,-10.28,-6.55,-9.67
6.918251991271973,3,3,3,2,3.02,0.92,-4.61,0.89,-6.36,-8.06
6.918251991271973,3,3,3,2,3.02,0.92,-4.61,0.89,-6.36,-8.06
6.938251972198486,3,3,3,2,1.34,6.32,-2.27,4.7,-2.92,-3.43
6.938251972198486,3,3,3,2,1.34,6.32,-2.27,4.7,-2.92,-3.43
6.958251953125,3,3,3,2,0.35,5.93,-1.38,3.18,-3.33,-0.57
6.958251953125,3,3,3,2,0.35,5.93,-1.38,3.18,-3.33,-0.57
6.978251934051514,3,3,3,2,-0.3,0.85,-0.79,-2.87,-5.51,0.31
6.978251934051514,3,3,3,2,-0.3,0.85,-0.79,-2.87,-5.51,0.31
6.998252153396606,3,3,3,2,-0.29,-1.36,0.18,-3.65,-5.3,-1.07
6.998252153396606,3,3,3,2,-0.29,-1.36,0.18,-3.65,-5.3,-1.07
7.01825213432312,3,3,3,2,-0.49,-1.75,0.42,-1.56,-3.8,-2.28
7.01825213432312,3,3,3,2,-0.49,-1.75,0.42,-1.56,-3.8,-2.28
7.038252115249634,3,3,3,2,-0.4,-2.08,0.16,0.91,-2.54,-2.86
7.038252115249634,3,3,3,2,-0.4,-2.08,0.16,0.91,-2.54,-2.86
7.058252096176147,3,3,3,2,0.46,-4.41,0.38,6.18,-1.51,-3.38
7.058252096176147,3,3,3,2,0.46,-4.41,0.38,6.18,-1.51,-3.38
7.078252077102661,3,3,3,2,0.3,-3.97,-0.11,11.68,-0.42,-3.28
7.078252077102661,3,3,3,2,0.3,-3.97,-0.11,11.68,-0.42,-3.28
7.098252058029175,3,3,3,2,-0.79,-1.48,-0.87,14.46,-0.61,-2.15
7.098252058029175,3,3,3,2,-0.79,-1.48,-0.87,14.46,-0.61,-2.15
7.118252038955688,3,3,3,2,-0.91,-0.27,-1.1,13.68,-1.13,-1.29
7.118252038955688,3,3,3,2,-0.91,-0.27,-1.1,13.68,-1.13,-1.29
7.138252019882202,3,3,3,2,-0.8,0.11,0.32,13.3,-1.44,-2.49
7.138252019882202,3,3,3,2,-0.8,0.11,0.32,13.3,-1.44,-2.49
7.158252000808716,3,3,3,2,-0.8,1.2,1.16,11.54,-2.05,-3.6
7.158252000808716,3,3,3,2,-0.8,1.2,1.16,11.54,-2.05,-3.6
7.178251981735229,3,3,3,2,-1.87,-7.41,5.59,2.61,-1.92,-5.35
7.178251981735229,3,3,3,2,-1.87,-7.41,5.59,2.61,-1.92,-5.35
7.198251962661743,3,3,3,2,-6.24,-19.42,12.13,-24.67,-0.12,-8.75
7.198251962661743,3,3,3,2,-6.24,-19.42,12.13,-24.67,-0.12,-8.75
7.218251943588257,3,3,3,2,-22.41,12.83,5.18,-0.09,-21.55,-8.17
7.218251943588257,3,3,3,2,-22.41,12.83,5.18,-0.09,-21.55,-8.17
7.23825216293335,3,3,3,2,-38.8,-6.37,-9.06,-8.199999999999999,7.28,-11.21
7.23825216293335,3,3,3,2,-38.8,-6.37,-9.06,-8.199999999999999,7.28,-11.21
7.258252143859863,3,3,3,2,-10.59,-15.2,-2.55,-16.26,4.56,-18.32
7.258252143859863,3,3,3,2,-10.59,-15.2,-2.55,-16.26,4.56,-18.32
7.278252124786377,3,3,3,2,-39.24,-37.27,-4.15,5.87,-1.79,-21.67
7.278252124786377,3,3,3,2,-39.24,-37.27,-4.15,5.87,-1.79,-21.67
7.299252033233643,3,3,3,2,-1.44,39.21,-6.61,52.23,11.37,-15
7.299252033233643,3,3,3,2,-1.44,39.21,-6.61,52.23,11.37,-15
7.319252014160156,3,3,3,2,-13.78,15.25,0.6,-10.31,4.08,-10.17
7.319252014160156,3,3,3,2,-13.78,15.25,0.6,-10.31,4.08,-10.17
7.33925199508667,3,3,3,2,-16.08,-2.58,-0.54,-38.72,-1.54,-3.71
7.33925199508667,3,3,3,2,-16.08,-2.58,-0.54,-38.72,-1.54,-3.71
7.359251976013184,3,3,3,2,-21.28,-5.46,-4.34,-13.06,-3.15,1.37
7.359251976013184,3,3,3,2,-21.28,-5.46,-4.34,-13.06,-3.15,1.37
7.379251956939697,3,3,3,2,-16.73,4.26,-5.49,10.21,-1.76,1.25
7.379251956939697,3,3,3,2,-16.73,4.26,-5.49,10.21,-1.76,1.25
7.399251937866211,3,3,3,2,-12.05,2.56,-3.38,8.050000000000001,-0.6,1.87
7.399251937866211,3,3,3,2,-12.05,2.56,-3.38,8.050000000000001,-0.6,1.87
7.419252157211304,3,3,3,2,-13.17,-1.53,-2.35,5.42,-0.76,5.25
7.419252157211304,3,3,3,2,-13.17,-1.53,-2.35,5.42,-0.76,5.25
7.439252138137817,3,3,3,2,-13.23,2.18,-2.91,10,-0.68,8.470000000000001
7.439252138137817,3,3,3,2,-13.23,2.18,-2.91,10,-0.68,8.470000000000001
7.459252119064331,3,3,3,2,-10.07,4.9,-3.07,7.89,0.07000000000000001,10.34
7.459252119064331,3,3,3,2,-10.07,4.9,-3.07,7.89,0.07000000000000001,10.34
7.479252099990845,3,3,3,2,-9.960000000000001,4.08,-2.38,-0.04,1.27,8.51
7.479252099990845,3,3,3,2,-9.960000000000001,4.08,-2.38,-0.04,1.27,8.51
7.499252080917358,3,3,3,2,-9.69,2.51,-2.19,-6.16,3.45,7.76
7.499252080917358,3,3,3,2,-9.69,2.51,-2.19,-6.16,3.45,7.76
7.519252061843872,3,3,3,2,-8.82,-1.04,-1.3,-7.79,5.46,8.199999999999999
7.519252061843872,3,3,3,2,-8.82,-1.04,-1.3,-7.79,5.46,8.199999999999999
7.539252042770386,3,3,3,2,-8.34,-3.02,-0.49,-4.13,5.79,8.960000000000001
7.539252042770386,3,3,3,2,-8.34,-3.02,-0.49,-4.13,5.79,8.960000000000001
7.559252023696899,3,3,3,2,-6.97,-3.39,0.78,0.77,5.36,9.4
7.559252023696899,3,3,3,2,-6.97,-3.39,0.78,0.77,5.36,9.4
7.579252004623413,3,3,3,2,-6.71,-2.8,0.8,3.5,5.27,9.06
7.579252004623413,3,3,3,2,-6.71,-2.8,0.8,3.5,5.27,9.06
7.599251985549927,3,3,3,2,-7.81,-1.83,1.21,2.96,3.78,7.52
7.599251985549927,3,3,3,2,-7.81,-1.83,1.21,2.96,3.78,7.52
7.61925196647644,3,3,3,2,-7.87,-1.41,0.93,0.72,2.83,5.64
7.61925196647644,3,3,3,2,-7.87,-1.41,0.93,0.72,2.83,5.64
7.639251947402954,3,3,3,2,-8.27,-3.18,0.32,-2.36,2.48,3.61
7.639251947402954,3,3,3,2,-8.27,-3.18,0.32,-2.36,2.48,3.61
7.659251928329468,3,3,3,2,-8.68,-3.31,-0.88,-3.67,3.26,2.4
7.659251928329468,3,3,3,2,-8.68,-3.31,-0.88,-3.67,3.26,2.4
7.679252147674561,3,3,3,2,-8.119999999999999,-3.75,-1.35,-2.61,2.38,2.49
7.679252147674561,3,3,3,2,-8.119999999999999,-3.75,-1.35,-2.61,2.38,2.49
7.699252128601074,3,3,3,2,-9.199999999999999,-3.31,-1.87,3,1.64,1.86
7.699252128601074,3,3,3,2,-9.199999999999999,-3.31,-1.87,3,1.64,1.86
7.719252109527588,3,3,3,2,-10.26,-0.2,-1.34,5.5,1.05,2.52
7.719252109527588,3,3,3,2,-10.26,-0.2,-1.34,5.5,1.05,2.52
7.739252090454102,3,3,3,2,-10.13,2.14,-1.22,5.14,1.01,3.42
7.739252090454102,3,3,3,2,-10.13,2.14,-1.22,5.14,1.01,3.42
7.759252071380615,3,3,3,2,-10.08,2.97,-0.66,2.93,0.6,3.61
7.759252071380615,3,3,3,2,-10.08,2.97,-0.66,2.93,0.6,3.61
7.779252052307129,3,3,3,2,-9.880000000000001,2.62,-0.82,-0.35,1.27,3.58
7.779252052307129,3,3,3,2,-9.880000000000001,2.62,-0.82,-0.35,1.27,3.58
7.799252033233643,3,3,3,2,-9.279999999999999,1.62,-1.34,-3.03,1.63,3.19
7.799252033233643,3,3,3,2,-9.279999999999999,1.62,-1.34,-3.03,1.63,3.19
7.819252014160156,3,3,3,2,-9.01,0.39,-1.42,-5.91,1.56,2.59
7.819252014160156,3,3,3,2,-9.01,0.39,-1.42,-5.91,1.56,2.59
7.83925199508667,3,3,3,2,-9.16,-0.73,-1.3,-6.98,1.43,2.15
7.83925199508667,3,3,3,2,-9.16,-0.73,-1.3,-6.98,1.43,2.15
7.859251976013184,3,3,3,2,-9.15,-1.93,-1.28,-4.14,1.32,2.23
7.859251976013184,3,3,3,2,-9.15,-1.93,-1.28,-4.14,1.32,2.23
7.879251956939697,3,3,3,2,-9.390000000000001,-1.99,-0.91,0.66,1.1,2.45
7.879251956939697,3,3,3,2,-9.390000000000001,-1.99,-0.91,0.66,1.1,2.45
7.899251937866211,3,3,3,2,-9.529999999999999,-1.44,-0.79,5.03,0.36,2.82
7.899251937866211,3,3,3,2,-9.529999999999999,-1.44,-0.79,5.03,0.36,2.82
7.919252157211304,3,3,3,2,-9.960000000000001,-0.26,-1.4,6.01,-0.21,3.03
7.919252157211304,3,3,3,2,-9.960000000000001,-0.26,-1.4,6.01,-0.21,3.03
7.939252138137817,3,3,3,2,-10.07,1.07,-0.98,4.39,-0.28,2.87
7.939252138137817,3,3,3,2,-10.07,1.07,-0.98,4.39,-0.28,2.87
7.959252119064331,3,3,3,2,-9.73,0.89,-1.3,2.71,0.59,2.66
7.959252119064331,3,3,3,2,-9.73,0.89,-1.3,2.71,0.59,2.66
7.979252099990845,3,3,3,2,-9.779999999999999,0.88,-1.48,0.8100000000000001,0.71,1.85
7.979252099990845,3,3,3,2,-9.779999999999999,0.88,-1.48,0.8100000000000001,0.71,1.85
7.999252080917358,3,3,3,2,-9.449999999999999,1.37,-1.28,0.72,0.9399999999999999,1.51
7.999252080917358,3,3,3,2,-9.449999999999999,1.37,-1.28,0.72,0.9399999999999999,1.51
8.019252061843872,3,3,3,2,-9.52,0.68,-1.35,-0.96,0.68,0.83
8.019252061843872,3,3,3,2,-9.52,0.68,-1.35,-0.96,0.68,0.83
8.039252042770386,3,3,3,2,-9.69,0.73,-1.66,-1.09,0.48,0.6899999999999999
8.039252042770386,3,3,3,2,-9.69,0.73,-1.66,-1.09,0.48,0.6899999999999999
8.059252023696899,3,3,3,2,-9.76,0.72,-1.73,-0.68,0.67,0.95
8.059252023696899,3,3,3,2,-9.76,0.72,-1.73,-0.68,0.67,0.95
8.079252004623413,3,3,3,2,-9.550000000000001,0.8,-1.8,0.42,0.13,1.01
8.079252004623413,3,3,3,2,-9.550000000000001,0.8,-1.8,0.42,0.13,1.01
8.099251985549927,3,3,3,2,-9.460000000000001,1.07,-1.83,1.52,-0.5,1.18
8.099251985549927,3,3,3,2,-9.460000000000001,1.07,-1.83,1.52,-0.5,1.18
8.11925196647644,3,3,3,2,-9.550000000000001,1.36,-1.62,2.33,-0.36,1.51
8.11925196647644,3,3,3,2,-9.550000000000001,1.36,-1.62,2.33,-0.36,1.51
8.139251947402954,3,3,3,2,-9.539999999999999,1.59,-1.87,2.95,0.14,1.66
8.139251947402954,3,3,3,2,-9.539999999999999,1.59,-1.87,2.95,0.14,1.66
8.159251928329468,3,3,3,2,-9.539999999999999,1.8,-1.65,2.11,0.14,1.61
8.159251928329468,3,3,3,2,-9.539999999999999,1.8,-1.65,2.11,0.14,1.61
8.179252147674561,3,3,3,2,-9.43,1.06,-1.59,1.82,0.3,1.56
8.179252147674561,3,3,3,2,-9.43,1.06,-1.59,1.82,0.3,1.56
8.199252128601074,3,3,3,2,-9.51,0.79,-1.67,1.03,0.22,1.05
8.199252128601074,3,3,3,2,-9.51,0.79,-1.67,1.03,0.22,1.05
8.219252109527588,3,3,3,2,-9.630000000000001,1,-1.47,0.58,0.12,0.66
8.219252109527588,3,3,3,2,-9.630000000000001,1,-1.47,0.58,0.12,0.66
8.239252090454102,3,3,3,2,-9.56,1.09,-1.71,0.03,0.1,0.45
8.239252090454102,3,3,3,2,-9.56,1.09,-1.71,0.03,0.1,0.45
8.259252071380615,3,3,3,2,-9.58,1.2,-1.59,-0.19,-0.04,0.34
8.259252071380615,3,3,3,2,-9.58,1.2,-1.59,-0.19,-0.04,0.34
8.279252052307129,3,3,3,2,-9.699999999999999,0.92,-1.79,-0.34,-0.12,0.12
8.279252052307129,3,3,3,2,-9.699999999999999,0.92,-1.79,-0.34,-0.12,0.12
8.299252033233643,3,3,3,2,-9.59,1.62,-1.88,-0.11,0.25,0.07000000000000001
8.299252033233643,3,3,3,2,-9.59,1.62,-1.88,-0.11,0.25,0.07000000000000001
8.320251941680908,3,3,3,3,-9.470000000000001,1.74,-1.78,0.03,0.09,0.38
8.320251941680908,3,3,3,3,-9.470000000000001,1.74,-1.78,0.03,0.09,0.38
8.340252161026001,3,3,3,3,-9.449999999999999,1.15,-2.19,0.16,-0.13,0.65
8.340252161026001,3,3,3,3,-9.449999999999999,1.15,-2.19,0.16,-0.13,0.65
8.360252141952515,3,3,3,3,-9.449999999999999,1.15,-1.68,0.12,-0.08,0.37
8.360252141952515,3,3,3,3,-9.449999999999999,1.15,-1.68,0.12,-0.08,0.37
8.380252122879028,3,3,3,3,-9.619999999999999,1.48,-1.66,0.88,0.11,0.39
8.380252122879028,3,3,3,3,-9.619999999999999,1.48,-1.66,0.88,0.11,0.39
8.400252103805542,3,3,3,3,-9.44,1.51,-1.72,0.73,-0.15,0.51
8.400252103805542,3,3,3,3,-9.44,1.51,-1.72,0.73,-0.15,0.51
8.420252084732056,3,3,3,3,-9.49,1.13,-1.66,0.46,-0.28,0.36
8.420252084732056,3,3,3,3,-9.49,1.13,-1.66,0.46,-0.28,0.36
8.440252065658569,3,3,3,3,-9.619999999999999,1.14,-1.7,0.15,-0.18,0.02
8.440252065658569,3,3,3,3,-9.619999999999999,1.14,-1.7,0.15,-0.18,0.02
8.460252046585083,3,3,3,3,-9.59,1.6,-1.87,0.09,0.24,-0.1
8.460252046585083,3,3,3,3,-9.59,1.6,-1.87,0.09,0.24,-0.1
8.480252027511597,3,3,3,3,-9.460000000000001,1.66,-1.69,-0.36,0.17,-0.09
8.480252027511597,3,3,3,3,-9.460000000000001,1.66,-1.69,-0.36,0.17,-0.09
8.50025200843811,3,3,3,3,-9.470000000000001,1.4,-1.83,-0.54,0.21,-0.2
8.50025200843811,3,3,3,3,-9.470000000000001,1.4,-1.83,-0.54,0.21,-0.2
8.520251989364624,3,3,3,3,-9.51,1.32,-1.75,-0.31,0,-0.11
8.520251989364624,3,3,3,3,-9.51,1.32,-1.75,-0.31,0,-0.11
8.540251970291138,3,3,3,3,-9.550000000000001,1.4,-1.83,-0.15,0.06,-0.08
8.540251970291138,3,3,3,3,-9.550000000000001,1.4,-1.83,-0.15,0.06,-0.08
8.560251951217651,3,3,3,3,-9.529999999999999,1.44,-1.78,0.23,0.12,-0.07000000000000001
8.560251951217651,3,3,3,3,-9.529999999999999,1.44,-1.78,0.23,0.12,-0.07000000000000001
8.580251932144165,3,3,3,3,-9.5,1.5,-1.64,0.38,0.02,0.11
8.580251932144165,3,3,3,3,-9.5,1.5,-1.64,0.38,0.02,0.11
8.600252151489258,3,3,3,3,-9.52,1.5,-1.76,0.58,-0.06,0.2
8.600252151489258,3,3,3,3,-9.52,1.5,-1.76,0.58,-0.06,0.2
8.620252132415771,3,3,3,3,-9.630000000000001,1.39,-1.76,0.15,-0.03,0.04
8.620252132415771,3,3,3,3,-9.630000000000001,1.39,-1.76,0.15,-0.03,0.04
8.640252113342285,3,3,3,3,-9.51,1.52,-1.78,0.18,0.16,0.06
8.640252113342285,3,3,3,3,-9.51,1.52,-1.78,0.18,0.16,0.06
8.660252094268799,3,3,3,3,-9.460000000000001,1.36,-1.7,-0.26,-0.03,0.15
8.660252094268799,3,3,3,3,-9.460000000000001,1.36,-1.7,-0.26,-0.03,0.15
8.680252075195312,3,3,3,3,-9.539999999999999,1.04,-1.67,-0.52,0.01,0
8.680252075195312,3,3,3,3,-9.539999999999999,1.04,-1.67,-0.52,0.01,0
8.700252056121826,3,3,3,3,-9.67,1.09,-1.65,-0.15,-0.01,-0.07000000000000001
8.700252056121826,3,3,3,3,-9.67,1.09,-1.65,-0.15,-0.01,-0.07000000000000001
8.72025203704834,3,3,3,3,-9.5,1.38,-1.81,-0.14,0.16,0.04
8.72025203704834,3,3,3,3,-9.5,1.38,-1.81,-0.14,0.16,0.04
8.740252017974854,3,3,3,3,-9.5,1.54,-1.87,-0.54,0.21,-0.06
8.740252017974854,3,3,3,3,-9.5,1.54,-1.87,-0.54,0.21,-0.06
8.760251998901367,3,3,3,3,-9.619999999999999,1.18,-1.84,-0.13,0.23,-0.11
8.760251998901367,3,3,3,3,-9.619999999999999,1.18,-1.84,-0.13,0.23,-0.11
8.780251979827881,3,3,3,3,-9.51,1,-1.66,0.13,0.05,-0.02
8.780251979827881,3,3,3,3,-9.51,1,-1.66,0.13,0.05,-0.02
8.800251960754395,3,3,3,3,-9.470000000000001,1,-1.43,0.04,-0.07000000000000001,-0.22
8.800251960754395,3,3,3,3,-9.470000000000001,1,-1.43,0.04,-0.07000000000000001,-0.22
8.820251941680908,3,3,3,3,-9.57,0.86,-1.38,-0.15,0.19,-0.5600000000000001
8.820251941680908,3,3,3,3,-9.57,0.86,-1.38,-0.15,0.19,-0.5600000000000001
8.840252161026001,3,3,3,3,-9.44,0.45,-1.37,-0.71,-0.18,-0.99
8.840252161026001,3,3,3,3,-9.44,0.45,-1.37,-0.71,-0.18,-0.99
8.860252141952515,3,3,3,3,-9.81,0.61,-1.56,-0.7,-0.33,-1.31
8.860252141952515,3,3,3,3,-9.81,0.61,-1.56,-0.7,-0.33,-1.31
8.880252122879028,3,3,3,3,-9.67,1.01,-1.8,-0.66,-0.01,-1.35
8.880252122879028,3,3,3,3,-9.67,1.01,-1.8,-0.66,-0.01,-1.35
8.900252103805542,3,3,3,3,-9.4,1.53,-1.88,0,0.06,-1.16
8.900252103805542,3,3,3,3,-9.4,1.53,-1.88,0,0.06,-1.16
8.920252084732056,3,3,3,3,-9.42,1.51,-1.8,0.34,-0.06,-0.88
8.920252084732056,3,3,3,3,-9.42,1.51,-1.8,0.34,-0.06,-0.88
8.940252065658569,3,3,3,3,-9.42,1,-1.87,0.41,-0.19,-0.78
8.940252065658569,3,3,3,3,-9.42,1,-1.87,0.41,-0.19,-0.78
8.960252046585083,3,3,3,3,-9.539999999999999,0.22,-1.44,0.65,-0.46,-1.17
8.960252046585083,3,3,3,3,-9.539999999999999,0.22,-1.44,0.65,-0.46,-1.17
8.980252027511597,3,3,3,3,-9.56,-0.07000000000000001,-1.12,0.9,-0.44,-1.4
8.980252027511597,3,3,3,3,-9.56,-0.07000000000000001,-1.12,0.9,-0.44,-1.4
9.00025200843811,3,3,3,3,-9.619999999999999,-0.26,-1.09,0.73,-0.85,-2.28
9.00025200843811,3,3,3,3,-9.619999999999999,-0.26,-1.09,0.73,-0.85,-2.28
9.020251989364624,3,3,3,3,-9.609999999999999,-0.48,-0.8,1.73,-1.24,-2.67
9.020251989364624,3,3,3,3,-9.609999999999999,-0.48,-0.8,1.73,-1.24,-2.67
9.040251970291138,3,3,3,3,-9.59,-1.26,-0.28,1.89,-1.55,-2.93
9.040251970291138,3,3,3,3,-9.59,-1.26,-0.28,1.89,-1.55,-2.93
9.060251951217651,3,3,3,3,-9.4,-1.64,-0.16,1.68,-1.63,-4.53
9.060251951217651,3,3,3,3,-9.4,-1.64,-0.16,1.68,-1.63,-4.53
9.080251932144165,3,3,3,3,-9.35,-3.16,0.84,1.97,-1.66,-5.14
9.080251932144165,3,3,3,3,-9.35,-3.16,0.84,1.97,-1.66,-5.14
9.100252151489258,3,3,3,3,-9.41,-5.17,1.89,1.52,-3.7,-6.97
9.100252151489258,3,3,3,3,-9.41,-5.17,1.89,1.52,-3.7,-6.97
9.120252132415771,3,3,3,3,-7.9,-1.61,0.8100000000000001,0.46,-3.04,-10.33
9.120252132415771,3,3,3,3,-7.9,-1.61,0.8100000000000001,0.46,-3.04,-10.33
9.140252113342285,3,3,3,3,-7.93,-0.14,-0.12,0.87,-2.6,-10.55
9.140252113342285,3,3,3,3,-7.93,-0.14,-0.12,0.87,-2.6,-10.55
9.160252094268799,3,3,3,3,-8.949999999999999,-1.79,0.95,1.04,-6.61,-10.74
9.160252094268799,3,3,3,3,-8.949999999999999,-1.79,0.95,1.04,-6.61,-10.74
9.180252075195312,3,3,3,2,-8.34,-1.26,0.12,-3.09,-8.390000000000001,-12.26
9.180252075195312,3,3,3,2,-8.34,-1.26,0.12,-3.09,-8.390000000000001,-12.26
9.200252056121826,3,3,3,2,-7.27,2.56,-2.88,-4.38,-3.06,-13.57
9.200252056121826,3,3,3,2,-7.27,2.56,-2.88,-4.38,-3.06,-13.57
9.22025203704834,3,3,3,2,-7.44,0.61,-0.97,-4.34,-5.86,-13.98
9.22025203704834,3,3,3,2,-7.44,0.61,-0.97,-4.34,-5.86,-13.98
9.240252017974854,3,3,3,2,-9.82,1.11,-3.08,-5.41,-5.9,-14.73
9.240252017974854,3,3,3,2,-9.82,1.11,-3.08,-5.41,-5.9,-14.73
9.260251998901367,3,3,3,2,-10.68,0.17,-2.45,-4.84,-3.93,-13.85
9.260251998901367,3,3,3,2,-10.68,0.17,-2.45,-4.84,-3.93,-13.85
9.280251979827881,3,3,3,2,-12.02,-4.74,-1.3,-3.52,-3.01,-13.07
9.280251979827881,3,3,3,2,-12.02,-4.74,-1.3,-3.52,-3.01,-13.07
9.300251960754395,3,3,3,2,-12.48,-2.18,-0.27,2.43,-1.06,-12.36
9.300251960754395,3,3,3,2,-12.48,-2.18,-0.27,2.43,-1.06,-12.36
9.320251941680908,3,3,3,2,-10.43,2.02,-0.64,5.85,0.13,-12.47
9.320251941680908,3,3,3,2,-10.43,2.02,-0.64,5.85,0.13,-12.47
9.341252088546753,3,3,3,2,-10.7,0.65,-1.14,2.78,-0.31,-12.85
9.341252088546753,3,3,3,2,-10.7,0.65,-1.14,2.78,-0.31,-12.85
9.361252069473267,3,3,3,2,-11.23,0.26,-1.53,-2.33,-1.4,-11.24
9.361252069473267,3,3,3,2,-11.23,0.26,-1.53,-2.33,-1.4,-11.24
9.38125205039978,3,3,3,2,-10.41,-0.37,-3.5,-3,-0.99,-8.41
9.38125205039978,3,3,3,2,-10.41,-0.37,-3.5,-3,-0.99,-8.41
9.401252031326294,3,3,3,2,-10.7,1,-4.48,-0.96,0.08,-4.35
9.401252031326294,3,3,3,2,-10.7,1,-4.48,-0.96,0.08,-4.35
9.421252012252808,3,3,3,2,-14.11,-1.19,-5.38,-0.51,0.42,1.07
9.421252012252808,3,3,3,2,-14.11,-1.19,-5.38,-0.51,0.42,1.07
9.441251993179321,3,3,3,2,-17.74,-2.3,-4.98,-2.79,-0.29,5.1
9.441251993179321,3,3,3,2,-17.74,-2.3,-4.98,-2.79,-0.29,5.1
9.461251974105835,3,3,3,2,-19.95,2.69,-1.92,-1.98,-0.46,7.79
9.461251974105835,3,3,3,2,-19.95,2.69,-1.92,-1.98,-0.46,7.79
9.481251955032349,3,3,3,2,-18.4,6.1,0.02,-2.63,0.62,10.18
9.481251955032349,3,3,3,2,-18.4,6.1,0.02,-2.63,0.62,10.18
9.501251935958862,3,3,3,2,-18.5,7.16,-1.21,-7.33,-0.3,14.49
9.501251935958862,3,3,3,2,-18.5,7.16,-1.21,-7.33,-0.3,14.49
9.521252155303955,3,3,3,2,-23.14,6.48,-3.65,-12,-3.8,21.36
9.521252155303955,3,3,3,2,-23.14,6.48,-3.65,-12,-3.8,21.36
9.541252136230469,3,3,3,2,-30.77,7.06,-6.16,-10.04,-4.88,27.3
9.541252136230469,3,3,3,2,-30.77,7.06,-6.16,-10.04,-4.88,27.3
9.561252117156982,3,3,3,2,-29.35,6,-7.18,-3.41,2.21,27.73
9.561252117156982,3,3,3,2,-29.35,6,-7.18,-3.41,2.21,27.73
9.581252098083496,3,3,3,2,-26.16,-1.82,-5.56,-0.17,7.08,29
9.581252098083496,3,3,3,2,-26.16,-1.82,-5.56,-0.17,7.08,29
9.60125207901001,3,3,3,2,-17.43,-2.88,-1.31,1.32,10.18,28.11
9.60125207901001,3,3,3,2,-17.43,-2.88,-1.31,1.32,10.18,28.11
9.621252059936523,3,3,3,2,-4.21,-29.1,5.07,-17.63,10.74,31.89
9.621252059936523,3,3,3,2,-4.21,-29.1,5.07,-17.63,10.74,31.89
9.641252040863037,3,3,3,2,-4.34,-39.08,27.02,-12.52,0.14,12.5
9.641252040863037,3,3,3,2,-4.34,-39.08,27.02,-12.52,0.14,12.5
9.661252021789551,3,3,3,2,-6.76,10.59,3.8,17.87,3.02,0.38
9.661252021789551,3,3,3,2,-6.76,10.59,3.8,17.87,3.02,0.38
9.681252002716064,3,3,3,2,-5.56,15.07,2.01,0.12,0.68,-4.43
9.681252002716064,3,3,3,2,-5.56,15.07,2.01,0.12,0.68,-4.43
9.701251983642578,3,3,3,2,3.23,-3.85,-4.85,-18.68,-6.6,-11.88
9.701251983642578,3,3,3,2,3.23,-3.85,-4.85,-18.68,-6.6,-11.88
9.721251964569092,3,3,3,2,2.29,-3.81,-8.550000000000001,-16.74,-6.51,-15.56
9.721251964569092,3,3,3,2,2.29,-3.81,-8.550000000000001,-16.74,-6.51,-15.56
9.741251945495605,3,3,3,2,1.6,4.44,-2.53,3.77,-3.72,-10.85
9.741251945495605,3,3,3,2,1.6,4.44,-2.53,3.77,-3.72,-10.85
9.761252164840698,3,3,3,2,-0.68,5.39,-0.44,9.09,-2.91,-8.16
9.761252164840698,3,3,3,2,-0.68,5.39,-0.44,9.09,-2.91,-8.16
9.781252145767212,3,3,3,2,0.9,3.1,-4.24,-0.28,-4.02,-6.84
9.781252145767212,3,3,3,2,0.9,3.1,-4.24,-0.28,-4.02,-6.84
9.801252126693726,3,3,3,2,-0.16,4.24,-3.51,-6.39,-3.85,-7.5
9.801252126693726,3,3,3,2,-0.16,4.24,-3.51,-6.39,-3.85,-7.5
9.821252107620239,3,3,3,1,0.61,3.72,-3.25,-9.49,-3.79,-6.91
9.821252107620239,3,3,3,1,0.61,3.72,-3.25,-9.49,-3.79,-6.91
9.841252088546753,3,3,3,1,0.1,0.75,-2.59,-7.53,-0.6,-7.3
9.841252088546753,3,3,3,1,0.1,0.75,-2.59,-7.53,-0.6,-7.3
9.861252069473267,3,3,3,1,1.34,-1.78,-1.69,-0.52,0.25,-7.52
9.861252069473267,3,3,3,1,1.34,-1.78,-1.69,-0.52,0.25,-7.52
9.88125205039978,3,3,3,1,1.14,-1.55,-2.08,6.9,1.86,-4.41
9.88125205039978,3,3,3,1,1.14,-1.55,-2.08,6.9,1.86,-4.41
9.901252031326294,3,3,3,1,1.28,-0.12,-2.01,14.62,2.05,-0.49
9.901252031326294,3,3,3,1,1.28,-0.12,-2.01,14.62,2.05,-0.49
9.921252012252808,3,3,3,1,0.67,0.29,-0.55,17.83,1.1,2.54
9.921252012252808,3,3,3,1,0.67,0.29,-0.55,17.83,1.1,2.54
9.941251993179321,3,3,3,1,0.45,1.77,1.15,20.68,-1.57,2.68
9.941251993179321,3,3,3,1,0.45,1.77,1.15,20.68,-1.57,2.68
9.961251974105835,3,3,3,1,1.24,1.62,-0.44,15.39,1.49,0.8
9.961251974105835,3,3,3,1,1.24,1.62,-0.44,15.39,1.49,0.8
9.981251955032349,3,3,3,1,1.38,2.95,0.92,3.71,6.37,0.03
9.981251955032349,3,3,3,1,1.38,2.95,0.92,3.71,6.37,0.03
10.00125193595886,3,3,3,1,-2.01,0.1,3.08,-0.89,6.9,1.81
10.00125193595886,3,3,3,1,-2.01,0.1,3.08,-0.89,6.9,1.81
10.02125215530396,3,3,3,1,-9.119999999999999,-34.2,6.36,-14.93,1.93,-4.61
10.02125215530396,3,3,3,1,-9.119999999999999,-34.2,6.36,-14.93,1.93,-4.61
10.04125213623047,3,3,3,1,-35.08,3.01,10.45,3.27,-9.130000000000001,-0.83
10.04125213623047,3,3,3,1,-35.08,3.01,10.45,3.27,-9.130000000000001,-0.83
10.06125211715698,3,3,3,1,-38.53,-4.8,-6.97,-24.96,-2.13,-6.05
10.06125211715698,3,3,3,1,-38.53,-4.8,-6.97,-24.96,-2.13,-6.05
10.0812520980835,3,3,3,1,-27.6,-8.210000000000001,-2.06,-3.14,0.95,-15.39
10.0812520980835,3,3,3,1,-27.6,-8.210000000000001,-2.06,-3.14,0.95,-15.39
10.10125207901001,3,3,3,1,-39.24,3.75,-3.17,0.72,-1.22,-16.14
10.10125207901001,3,3,3,1,-39.24,3.75,-3.17,0.72,-1.22,-16.14
10.12125205993652,3,3,3,1,-13.52,31.16,-4.49,14.34,3.57,-9.359999999999999
10.12125205993652,3,3,3,1,-13.52,31.16,-4.49,14.34,3.57,-9.359999999999999
10.14125204086304,3,3,3,1,-12.4,14.39,-4.3,-3.39,8.24,-4.74
10.14125204086304,3,3,3,1,-12.4,14.39,-4.3,-3.39,8.24,-4.74
10.16125202178955,3,3,3,1,-21.06,-12.48,-3.11,-19.3,2,0.75
10.16125202178955,3,3,3,1,-21.06,-12.48,-3.11,-19.3,2,0.75
10.18125200271606,3,3,3,1,-21.15,0.25,-4.1,0.8,-2.81,7
10.18125200271606,3,3,3,1,-21.15,0.25,-4.1,0.8,-2.81,7
10.20125198364258,3,3,3,1,-11.66,6.3,-2.98,15.91,0.72,7.94
10.20125198364258,3,3,3,1,-11.66,6.3,-2.98,15.91,0.72,7.94
10.22125196456909,3,3,3,1,-10.67,3.61,-1.7,11.05,3.83,7.32
10.22125196456909,3,3,3,1,-10.67,3.61,-1.7,11.05,3.83,7.32
10.24125194549561,3,3,3,1,-11.09,1.64,-1.55,6.9,3.52,9.99
10.24125194549561,3,3,3,1,-11.09,1.64,-1.55,6.9,3.52,9.99
10.2612521648407,3,3,3,1,-8.529999999999999,2.63,-1.7,6.54,4.25,12.24
10.2612521648407,3,3,3,1,-8.529999999999999,2.63,-1.7,6.54,4.25,12.24
10.28125214576721,3,3,3,1,-6.67,4.76,-2.6,3.87,5.16,11.91
10.28125214576721,3,3,3,1,-6.67,4.76,-2.6,3.87,5.16,11.91
10.30125212669373,3,3,3,1,-6.38,4.22,-3.53,-1.55,7.31,10.64
10.30125212669373,3,3,3,1,-6.38,4.22,-3.53,-1.55,7.31,10.64
10.32125210762024,3,3,3,1,-4.73,1.48,-2.6,-4.66,8.75,9.85
10.32125210762024,3,3,3,1,-4.73,1.48,-2.6,-4.66,8.75,9.85
10.34125208854675,3,3,3,1,-5.16,-1.81,-1.44,-7.39,6.82,10.17
10.34125208854675,3,3,3,1,-5.16,-1.81,-1.44,-7.39,6.82,10.17
10.36125206947327,3,3,3,1,-7.01,-6.86,0.89,-6.65,3.37,10.06
10.36125206947327,3,3,3,1,-7.01,-6.86,0.89,-6.65,3.37,10.06
10.38225197792053,3,3,3,1,-11.02,-8.65,2.9,0.29,0.57,8.58
10.38225197792053,3,3,3,1,-11.02,-8.65,2.9,0.29,0.57,8.58
10.40225195884705,3,3,3,1,-12.4,-4.82,1.33,8.18,0.84,7.47
10.40225195884705,3,3,3,1,-12.4,-4.82,1.33,8.18,0.84,7.47
10.42225193977356,3,3,3,1,-10.34,-2,-0.5600000000000001,9.279999999999999,3.19,7.37
10.42225193977356,3,3,3,1,-10.34,-2,-0.5600000000000001,9.279999999999999,3.19,7.37
10.44225215911865,3,3,3,1,-8.6,-0.44,-1.05,3.39,2.04,4.46
10.44225215911865,3,3,3,1,-8.6,-0.44,-1.05,3.39,2.04,4.46
10.46225214004517,3,3,3,1,-8.75,-1.38,-1.73,1.5,2.16,5.04
10.46225214004517,3,3,3,1,-8.75,-1.38,-1.73,1.5,2.16,5.04
10.48225212097168,3,3,3,1,-10.03,0.92,-2.37,6.38,0.16,5.49
10.48225212097168,3,3,3,1,-10.03,0.92,-2.37,6.38,0.16,5.49
10.50225210189819,3,3,3,1,-10.12,3.56,-2.92,4.82,-0.57,5.79
10.50225210189819,3,3,3,1,-10.12,3.56,-2.92,4.82,-0.57,5.79
10.52225208282471,3,3,3,1,-8.76,2.65,-1.44,3.68,-0.02,5.57
10.52225208282471,3,3,3,1,-8.76,2.65,-1.44,3.68,-0.02,5.57
10.54225206375122,3,3,3,1,-9.08,0.76,-0.87,-0.34,0.09,3.94
10.54225206375122,3,3,3,1,-9.08,0.76,-0.87,-0.34,0.09,3.94
10.56225204467773,3,3,3,1,-9.69,-1.2,0.16,-1.62,0.29,2.97
10.56225204467773,3,3,3,1,-9.69,-1.2,0.16,-1.62,0.29,2.97
10.58225202560425,3,3,3,1,-10.06,-1.91,-0.11,-2.24,0.06,0.36
10.58225202560425,3,3,3,1,-10.06,-1.91,-0.11,-2.24,0.06,0.36
10.60225200653076,3,3,3,1,-9.92,-0.76,-1.97,0.32,-1.13,0.35
10.60225200653076,3,3,3,1,-9.92,-0.76,-1.97,0.32,-1.13,0.35
10.62225198745728,3,3,3,1,-9.35,0.8100000000000001,-2.6,1.49,-1.13,0.32
10.62225198745728,3,3,3,1,-9.35,0.8100000000000001,-2.6,1.49,-1.13,0.32
10.64225196838379,3,3,3,1,-9.130000000000001,3.22,-3.2,3.93,-1.22,1.07
10.64225196838379,3,3,3,1,-9.130000000000001,3.22,-3.2,3.93,-1.22,1.07
10.6622519493103,3,3,3,1,-9.25,3.47,-2.58,3.53,-1.18,1.44
10.6622519493103,3,3,3,1,-9.25,3.47,-2.58,3.53,-1.18,1.44
10.68225193023682,3,3,3,2,-9.4,2.46,-1.76,1.21,-0.76,1.41
10.68225193023682,3,3,3,2,-9.4,2.46,-1.76,1.21,-0.76,1.41
10.70225214958191,3,3,3,2,-9.609999999999999,0.5600000000000001,-0.84,0.72,-0.47,0.98
10.70225214958191,3,3,3,2,-9.609999999999999,0.5600000000000001,-0.84,0.72,-0.47,0.98
10.72225213050842,3,3,3,2,-10,0.55,-0.93,0.75,-0.49,0.79
10.72225213050842,3,3,3,2,-10,0.55,-0.93,0.75,-0.49,0.79
10.74225211143494,3,3,3,2,-9.720000000000001,1.43,-1.57,0.74,-0.31,-0.07000000000000001
10.74225211143494,3,3,3,2,-9.720000000000001,1.43,-1.57,0.74,-0.31,-0.07000000000000001
10.76225209236145,3,3,3,2,-9.23,1.83,-1.88,0.46,-0.07000000000000001,-0.19
10.76225209236145,3,3,3,2,-9.23,1.83,-1.88,0.46,-0.07000000000000001,-0.19
10.78225207328796,3,3,3,2,-9.06,1.98,-2.11,-0.04,-0.23,-0.38
10.78225207328796,3,3,3,2,-9.06,1.98,-2.11,-0.04,-0.23,-0.38
10.80225205421448,3,3,3,2,-9.16,1.86,-2.37,0.28,-0.13,-0.35
10.80225205421448,3,3,3,2,-9.16,1.86,-2.37,0.28,-0.13,-0.35
10.82225203514099,3,3,3,2,-9.43,2.05,-1.85,0.45,0.11,-0.36
10.82225203514099,3,3,3,2,-9.43,2.05,-1.85,0.45,0.11,-0.36
10.8422520160675,3,3,3,2,-9.41,1.79,-1.73,0.77,-0.08,-0.04
10.8422520160675,3,3,3,2,-9.41,1.79,-1.73,0.77,-0.08,-0.04
10.86225199699402,3,3,3,2,-9.630000000000001,1.62,-1.58,0.91,-0.19,-0.03
10.86225199699402,3,3,3,2,-9.630000000000001,1.62,-1.58,0.91,-0.19,-0.03
10.88225197792053,3,3,3,2,-9.68,1.53,-1.44,1.51,-0.22,0.23
10.88225197792053,3,3,3,2,-9.68,1.53,-1.44,1.51,-0.22,0.23
10.90225195884705,3,3,3,2,-9.56,1.53,-1.89,1.58,-0.02,0.13
10.90225195884705,3,3,3,2,-9.56,1.53,-1.89,1.58,-0.02,0.13
10.92225193977356,3,3,3,2,-9.300000000000001,1.65,-1.94,1.41,0.04,0.03
10.92225193977356,3,3,3,2,-9.300000000000001,1.65,-1.94,1.41,0.04,0.03
10.94225215911865,3,3,3,2,-9.19,2.06,-2.15,0.37,0,-0.22
10.94225215911865,3,3,3,2,-9.19,2.06,-2.15,0.37,0,-0.22
10.96225214004517,3,3,3,2,-9.300000000000001,2.35,-1.81,-0.11,0.05,-0.23
10.96225214004517,3,3,3,2,-9.300000000000001,2.35,-1.81,-0.11,0.05,-0.23
10.98225212097168,3,3,3,2,-9.449999999999999,2.19,-1.83,-0.67,-0.05,-0.02
10.98225212097168,3,3,3,2,-9.449999999999999,2.19,-1.83,-0.67,-0.05,-0.02
11.00225210189819,3,3,3,2,-9.43,2,-1.89,-1.01,0.22,-0.16
11.00225210189819,3,3,3,2,-9.43,2,-1.89,-1.01,0.22,-0.16
11.02225208282471,3,3,3,2,-9.48,1.71,-1.87,-0.73,0.37,-0.2
11.02225208282471,3,3,3,2,-9.48,1.71,-1.87,-0.73,0.37,-0.2
11.04225206375122,3,3,3,2,-9.4,1.51,-1.96,-0.24,-0.2,0.15
11.04225206375122,3,3,3,2,-9.4,1.51,-1.96,-0.24,-0.2,0.15
11.06225204467773,3,3,3,2,-9.56,1.44,-2.06,-0.1,-0.45,0.21
11.06225204467773,3,3,3,2,-9.56,1.44,-2.06,-0.1,-0.45,0.21
11.08225202560425,3,3,3,2,-9.57,1.85,-1.85,0.05,0.12,-0.01
11.08225202560425,3,3,3,2,-9.57,1.85,-1.85,0.05,0.12,-0.01
11.10225200653076,3,3,3,2,-9.34,1.92,-2.1,-0.78,0.16,0.02
11.10225200653076,3,3,3,2,-9.34,1.92,-2.1,-0.78,0.16,0.02
11.12225198745728,3,3,3,2,-9.23,1.56,-1.92,-1.01,0,0.03
11.12225198745728,3,3,3,2,-9.23,1.56,-1.92,-1.01,0,0.03
11.14225196838379,3,3,3,2,-9.539999999999999,1.47,-1.93,-0.8100000000000001,-0.14,-0.12
11.14225196838379,3,3,3,2,-9.539999999999999,1.47,-1.93,-0.8100000000000001,-0.14,-0.12
11.1622519493103,3,3,3,2,-9.49,1.35,-1.89,-0.57,0.01,-0.1
11.1622519493103,3,3,3,2,-9.49,1.35,-1.89,-0.57,0.01,-0.1
11.18225193023682,3,3,3,2,-9.43,1.52,-1.92,0.07000000000000001,-0.06,-0.04
11.18225193023682,3,3,3,2,-9.43,1.52,-1.92,0.07000000000000001,-0.06,-0.04
11.20225214958191,3,3,3,2,-9.44,1.63,-2.04,0.55,-0.1,0.08
11.20225214958191,3,3,3,2,-9.44,1.63,-2.04,0.55,-0.1,0.08
11.22225213050842,3,3,3,2,-9.43,1.73,-1.92,0.73,-0.16,0.1
11.22225213050842,3,3,3,2,-9.43,1.73,-1.92,0.73,-0.16,0.1
11.24225211143494,3,3,3,2,-9.51,1.75,-1.98,0.55,0.02,0.08
11.24225211143494,3,3,3,2,-9.51,1.75,-1.98,0.55,0.02,0.08
11.26225209236145,3,3,3,2,-9.31,1.8,-1.84,0.5600000000000001,-0.04,0.12
11.26225209236145,3,3,3,2,-9.31,1.8,-1.84,0.5600000000000001,-0.04,0.12
11.28225207328796,3,3,3,2,-9.4,1.94,-1.89,0.31,-0.15,0.07000000000000001
11.28225207328796,3,3,3,2,-9.4,1.94,-1.89,0.31,-0.15,0.07000000000000001
11.30225205421448,3,3,3,2,-9.41,1.94,-1.96,0.02,0.06,0.07000000000000001
11.30225205421448,3,3,3,2,-9.41,1.94,-1.96,0.02,0.06,0.07000000000000001
11.32225203514099,3,3,3,2,-9.43,1.85,-1.85,-0.22,0.15,0
11.32225203514099,3,3,3,2,-9.43,1.85,-1.85,-0.22,0.15,0
11.3422520160675,3,3,3,2,-9.41,1.46,-1.95,-0.51,0.05,-0.04
11.3422520160675,3,3,3,2,-9.41,1.46,-1.95,-0.51,0.05,-0.04
11.36225199699402,3,3,3,2,-9.5,1.53,-1.83,-0.4,0.18,-0.13
11.36225199699402,3,3,3,2,-9.5,1.53,-1.83,-0.4,0.18,-0.13
11.38225197792053,3,3,3,2,-9.48,1.59,-1.8,0.32,-0.05,-0.13
11.38225197792053,3,3,3,2,-9.48,1.59,-1.8,0.32,-0.05,-0.13
11.40325212478638,3,3,3,2,-9.449999999999999,1.69,-1.9,0.3,0.06,-0.08
11.40325212478638,3,3,3,2,-9.449999999999999,1.69,-1.9,0.3,0.06,-0.08
11.42325210571289,3,3,3,2,-9.4,1.69,-1.78,0.15,0.15,0
11.42325210571289,3,3,3,2,-9.4,1.69,-1.78,0.15,0.15,0
11.4432520866394,3,3,3,2,-9.51,1.67,-2,0.13,-0.01,-0.05
11.4432520866394,3,3,3,2,-9.51,1.67,-2,0.13,-0.01,-0.05
11.46325206756592,3,3,3,2,-9.41,1.78,-1.89,0.1,0.18,-0.16
11.46325206756592,3,3,3,2,-9.41,1.78,-1.89,0.1,0.18,-0.16
11.48325204849243,3,3,3,2,-9.42,1.71,-1.89,-0.05,0.21,-0.12
11.48325204849243,3,3,3,2,-9.42,1.71,-1.89,-0.05,0.21,-0.12
11.50325202941895,3,3,3,2,-9.41,1.58,-1.9,-0.23,0.08,-0.01
11.50325202941895,3,3,3,2,-9.41,1.58,-1.9,-0.23,0.08,-0.01
11.52325201034546,3,3,3,2,-9.449999999999999,1.59,-1.83,-0.33,0.09,-0.03
11.52325201034546,3,3,3,2,-9.449999999999999,1.59,-1.83,-0.33,0.09,-0.03
11.54325199127197,3,3,3,2,-9.4,1.47,-1.95,-0.12,0.09,-0.07000000000000001
11.54325199127197,3,3,3,2,-9.4,1.47,-1.95,-0.12,0.09,-0.07000000000000001
11.56325197219849,3,3,3,2,-9.449999999999999,1.57,-1.88,0,0.18,0.02
11.56325197219849,3,3,3,2,-9.449999999999999,1.57,-1.88,0,0.18,0.02
11.583251953125,3,3,3,2,-9.52,1.56,-2.03,0.14,0.14,0.07000000000000001
11.583251953125,3,3,3,2,-9.52,1.56,-2.03,0.14,0.14,0.07000000000000001
11.60325193405151,3,3,3,2,-9.43,1.68,-1.94,0.29,0.04,0.1
11.60325193405151,3,3,3,2,-9.43,1.68,-1.94,0.29,0.04,0.1
11.62325215339661,3,3,3,2,-9.42,1.72,-1.93,0.26,0.02,0.14
11.62325215339661,3,3,3,2,-9.42,1.72,-1.93,0.26,0.02,0.14
11.64325213432312,3,3,3,2,-9.34,1.58,-2.01,0.2,0,0.16
11.64325213432312,3,3,3,2,-9.34,1.58,-2.01,0.2,0,0.16
11.66325211524963,3,3,3,2,-9.35,1.6,-1.85,0.16,0.02,0.24
11.66325211524963,3,3,3,2,-9.35,1.6,-1.85,0.16,0.02,0.24
11.68325209617615,3,3,3,2,-9.5,1.65,-2.05,0.15,0.05,0.31
11.68325209617615,3,3,3,2,-9.5,1.65,-2.05,0.15,0.05,0.31
11.70325207710266,3,3,3,2,-9.41,1.58,-1.95,0.3,0.07000000000000001,0.37
11.70325207710266,3,3,3,2,-9.41,1.58,-1.95,0.3,0.07000000000000001,0.37
11.72325205802917,3,3,3,2,-9.390000000000001,1.59,-1.91,0.35,-0.02,0.43
11.72325205802917,3,3,3,2,-9.390000000000001,1.59,-1.91,0.35,-0.02,0.43
11.74325203895569,3,3,3,2,-9.449999999999999,1.68,-1.95,0.46,-0.33,0.51
11.74325203895569,3,3,3,2,-9.449999999999999,1.68,-1.95,0.46,-0.33,0.51
11.7632520198822,3,3,3,2,-9.43,1.59,-1.99,0.51,-0.28,0.5600000000000001
11.7632520198822,3,3,3,2,-9.43,1.59,-1.99,0.51,-0.28,0.5600000000000001
11.78325200080872,3,3,3,2,-9.42,1.54,-1.99,0.25,-0.39,0.5
11.78325200080872,3,3,3,2,-9.42,1.54,-1.99,0.25,-0.39,0.5
11.80325198173523,3,3,3,2,-9.460000000000001,1.54,-1.94,0.42,-0.44,0.53
11.80325198173523,3,3,3,2,-9.460000000000001,1.54,-1.94,0.42,-0.44,0.53
11.82325196266174,3,3,3,2,-9.48,1.7,-1.97,0.31,-0.35,0.4
11.82325196266174,3,3,3,2,-9.48,1.7,-1.97,0.31,-0.35,0.4
11.84325194358826,3,3,3,2,-9.390000000000001,1.69,-2.02,0.01,-0.21,0.44
11.84325194358826,3,3,3,2,-9.390000000000001,1.69,-2.02,0.01,-0.21,0.44
11.86325216293335,3,3,3,2,-9.41,1.68,-1.89,0.05,-0.28,0.48
11.86325216293335,3,3,3,2,-9.41,1.68,-1.89,0.05,-0.28,0.48
11.88325214385986,3,3,3,2,-9.4,1.57,-2.06,0.05,-0.26,0.45
11.88325214385986,3,3,3,2,-9.4,1.57,-2.06,0.05,-0.26,0.45
11.90325212478638,3,3,3,2,-9.4,1.57,-1.85,0.06,-0.11,0.37
11.90325212478638,3,3,3,2,-9.4,1.57,-1.85,0.06,-0.11,0.37
11.92325210571289,3,3,3,2,-9.51,1.53,-1.96,0.3,-0.07000000000000001,0.44
11.92325210571289,3,3,3,2,-9.51,1.53,-1.96,0.3,-0.07000000000000001,0.44
11.9432520866394,3,3,3,2,-9.369999999999999,1.65,-1.99,0.17,-0.25,0.4
11.9432520866394,3,3,3,2,-9.369999999999999,1.65,-1.99,0.17,-0.25,0.4
11.96325206756592,3,3,3,2,-9.41,1.68,-1.92,0.19,0.03,0.35
11.96325206756592,3,3,3,2,-9.41,1.68,-1.92,0.19,0.03,0.35
11.98325204849243,3,3,3,2,-9.43,1.65,-1.94,0.15,-0.13,0.4
11.98325204849243,3,3,3,2,-9.43,1.65,-1.94,0.15,-0.13,0.4
12.00325202941895,3,3,3,2,-9.41,1.74,-1.88,-0.05,-0.02,0.36
12.00325202941895,3,3,3,2,-9.41,1.74,-1.88,-0.05,-0.02,0.36
12.02325201034546,3,3,3,2,-9.470000000000001,1.82,-1.9,0.06,-0.12,0.4
12.02325201034546,3,3,3,2,-9.470000000000001,1.82,-1.9,0.06,-0.12,0.4
12.04325199127197,3,3,3,2,-9.4,1.78,-1.99,0.09,-0.15,0.47
12.04325199127197,3,3,3,2,-9.4,1.78,-1.99,0.09,-0.15,0.47
12.06325197219849,3,3,3,2,-9.369999999999999,1.62,-1.78,0.29,-0.18,0.52
12.06325197219849,3,3,3,2,-9.369999999999999,1.62,-1.78,0.29,-0.18,0.52
12.083251953125,3,3,3,2,-9.5,1.6,-2.07,0.48,-0.11,0.52
12.083251953125,3,3,3,2,-9.5,1.6,-2.07,0.48,-0.11,0.52
12.10325193405151,3,3,3,2,-9.449999999999999,1.7,-1.85,0.37,-0.09,0.36
12.10325193405151,3,3,3,2,-9.449999999999999,1.7,-1.85,0.37,-0.09,0.36
12.12325215339661,3,3,3,2,-9.41,1.79,-1.83,0.28,0.09,0.26
12.12325215339661,3,3,3,2,-9.41,1.79,-1.83,0.28,0.09,0.26
12.14325213432312,3,3,3,2,-9.41,1.83,-1.94,0.17,0.13,0.26
12.14325213432312,3,3,3,2,-9.41,1.83,-1.94,0.17,0.13,0.26
12.16325211524963,3,3,3,2,-9.4,1.94,-1.77,-0.03,0,0.2
12.16325211524963,3,3,3,2,-9.4,1.94,-1.77,-0.03,0,0.2
12.18325209617615,3,3,3,2,-9.48,1.85,-2.02,0.09,-0.04,0.36
12.18325209617615,3,3,3,2,-9.48,1.85,-2.02,0.09,-0.04,0.36
12.20325207710266,3,3,3,2,-9.48,1.88,-1.93,0.12,-0.25,0.49
12.20325207710266,3,3,3,2,-9.48,1.88,-1.93,0.12,-0.25,0.49
12.22325205802917,3,3,3,2,-9.529999999999999,1.86,-1.96,0.22,-0.36,0.42
12.22325205802917,3,3,3,2,-9.529999999999999,1.86,-1.96,0.22,-0.36,0.42
12.24325203895569,3,3,3,2,-9.359999999999999,1.83,-1.95,0.01,-0.06,0.16
12.24325203895569,3,3,3,2,-9.359999999999999,1.83,-1.95,0.01,-0.06,0.16
12.2632520198822,3,3,3,2,-9.27,2.06,-1.78,-0.24,0.21,-0.1
12.2632520198822,3,3,3,2,-9.27,2.06,-1.78,-0.24,0.21,-0.1
12.28325200080872,3,3,3,2,-9.300000000000001,2.05,-1.89,-0.31,0.17,-0.04
12.28325200080872,3,3,3,2,-9.300000000000001,2.05,-1.89,-0.31,0.17,-0.04
12.30325198173523,3,3,3,2,-9.4,1.88,-1.96,-0.41,-0.18,0.1
12.30325198173523,3,3,3,2,-9.4,1.88,-1.96,-0.41,-0.18,0.1
12.32325196266174,3,3,3,2,-9.44,1.81,-1.9,-0.36,-0.24,0.12
12.32325196266174,3,3,3,2,-9.44,1.81,-1.9,-0.36,-0.24,0.12
12.34325194358826,3,3,3,2,-9.42,1.82,-1.91,-0.17,-0.2,0.07000000000000001
12.34325194358826,3,3,3,2,-9.42,1.82,-1.91,-0.17,-0.2,0.07000000000000001
12.36325216293335,3,3,3,2,-9.5,1.79,-1.89,-0.2,-0.08,0.11
12.36325216293335,3,3,3,2,-9.5,1.79,-1.89,-0.2,-0.08,0.11
12.38325214385986,3,3,3,2,-9.380000000000001,1.86,-1.93,-0.5,-0.14,-0.07000000000000001
12.38325214385986,3,3,3,2,-9.380000000000001,1.86,-1.93,-0.5,-0.14,-0.07000000000000001
12.40325212478638,3,3,3,2,-9.390000000000001,1.92,-1.95,-0.49,-0.04,-0.1
12.40325212478638,3,3,3,2,-9.390000000000001,1.92,-1.95,-0.49,-0.04,-0.1
12.42425203323364,3,3,3,2,-9.43,1.95,-1.97,-0.41,-0.04,0.06
12.42425203323364,3,3,3,2,-9.43,1.95,-1.97,-0.41,-0.04,0.06
12.44425201416016,3,3,3,2,-9.27,1.73,-2.01,-0.42,-0.11,0.08
12.44425201416016,3,3,3,2,-9.27,1.73,-2.01,-0.42,-0.11,0.08
12.46425199508667,3,3,3,2,-9.44,1.61,-1.82,-0.23,-0.28,0.18
12.46425199508667,3,3,3,2,-9.44,1.61,-1.82,-0.23,-0.28,0.18
12.48425197601318,3,3,3,2,-9.65,1.4,-1.89,-0.31,-0.32,0.13
12.48425197601318,3,3,3,2,-9.65,1.4,-1.89,-0.31,-0.32,0.13
12.5042519569397,3,3,3,2,-9.56,1.48,-1.74,-0.39,-0.15,-0.23
12.5042519569397,3,3,3,2,-9.56,1.48,-1.74,-0.39,-0.15,-0.23
12.52425193786621,3,3,3,2,-9.48,1.72,-1.81,-0.08,-0.1,-0.23
12.52425193786621,3,3,3,2,-9.48,1.72,-1.81,-0.08,-0.1,-0.23
12.5442521572113,3,3,3,2,-9.359999999999999,1.92,-1.93,-0.19,-0.07000000000000001,-0.16
12.5442521572113,3,3,3,2,-9.359999999999999,1.92,-1.93,-0.19,-0.07000000000000001,-0.16
12.56425213813782,3,3,3,2,-9.31,2.21,-1.97,0,-0.25,0.08
12.56425213813782,3,3,3,2,-9.31,2.21,-1.97,0,-0.25,0.08
12.58425211906433,3,3,3,2,-9.25,2.09,-2.06,0.03,-0.25,0.37
12.58425211906433,3,3,3,2,-9.25,2.09,-2.06,0.03,-0.25,0.37
12.60425209999084,3,3,3,2,-9.56,1.47,-1.92,-0.35,-0.44,0.41
12.60425209999084,3,3,3,2,-9.56,1.47,-1.92,-0.35,-0.44,0.41
12.62425208091736,3,3,3,2,-9.66,1.24,-1.71,-0.54,-0.44,0.11
12.62425208091736,3,3,3,2,-9.66,1.24,-1.71,-0.54,-0.44,0.11
12.64425206184387,3,3,3,2,-9.6,1.6,-1.77,-0.2,-0.21,0
12.64425206184387,3,3,3,2,-9.6,1.6,-1.77,-0.2,-0.21,0
12.66425204277039,3,3,3,2,-9.51,1.77,-1.83,0.01,-0.15,0.12
12.66425204277039,3,3,3,2,-9.51,1.77,-1.83,0.01,-0.15,0.12
12.6842520236969,3,3,3,2,-9.43,1.97,-1.89,0.13,-0.14,0.16
12.6842520236969,3,3,3,2,-9.43,1.97,-1.89,0.13,-0.14,0.16
12.70425200462341,3,3,3,2,-9.279999999999999,1.99,-1.83,0.27,-0.14,0.21
12.70425200462341,3,3,3,2,-9.279999999999999,1.99,-1.83,0.27,-0.14,0.21
12.72425198554993,3,3,3,2,-9.359999999999999,1.84,-1.66,0.05,-0.15,0.34
12.72425198554993,3,3,3,2,-9.359999999999999,1.84,-1.66,0.05,-0.15,0.34
12.74425196647644,3,3,3,2,-9.4,1.73,-1.64,0.17,-0.23,0.39
12.74425196647644,3,3,3,2,-9.4,1.73,-1.64,0.17,-0.23,0.39
12.76425194740295,3,3,3,2,-9.5,1.76,-1.54,0.13,-0.23,0.35
12.76425194740295,3,3,3,2,-9.5,1.76,-1.54,0.13,-0.23,0.35
12.78425192832947,3,3,3,2,-9.460000000000001,1.85,-1.72,0.42,-0.24,0.39
12.78425192832947,3,3,3,2,-9.460000000000001,1.85,-1.72,0.42,-0.24,0.39
12.80425214767456,3,3,3,2,-9.41,1.91,-1.73,0.41,-0.18,0.46
12.80425214767456,3,3,3,2,-9.41,1.91,-1.73,0.41,-0.18,0.46
12.82425212860107,3,3,3,2,-9.35,2,-1.69,0.42,-0.29,0.45
12.82425212860107,3,3,3,2,-9.35,2,-1.69,0.42,-0.29,0.45
12.84425210952759,3,3,3,2,-9.4,1.96,-1.81,0.42,-0.28,0.57
12.84425210952759,3,3,3,2,-9.4,1.96,-1.81,0.42,-0.28,0.57
12.8642520904541,3,3,3,2,-9.49,2.03,-1.75,0.2,-0.22,0.42
12.8642520904541,3,3,3,2,-9.49,2.03,-1.75,0.2,-0.22,0.42
12.88425207138062,3,3,3,2,-9.390000000000001,1.91,-1.85,0.17,-0.13,0.32
12.88425207138062,3,3,3,2,-9.390000000000001,1.91,-1.85,0.17,-0.13,0.32
12.90425205230713,3,3,3,2,-9.48,1.89,-1.65,0.03,-0.13,0.26
12.90425205230713,3,3,3,2,-9.48,1.89,-1.65,0.03,-0.13,0.26
12.92425203323364,3,3,3,2,-9.380000000000001,2,-1.69,0.15,-0.08,0.24
12.92425203323364,3,3,3,2,-9.380000000000001,2,-1.69,0.15,-0.08,0.24
12.94425201416016,3,3,3,2,-9.43,2.06,-1.71,-0.12,-0.03,0.18
12.94425201416016,3,3,3,2,-9.43,2.06,-1.71,-0.12,-0.03,0.18
12.96425199508667,3,3,3,2,-9.4,1.97,-1.68,-0.13,-0.02,0.22
12.96425199508667,3,3,3,2,-9.4,1.97,-1.68,-0.13,-0.02,0.22
12.98425197601318,3,3,3,2,-9.449999999999999,1.85,-2.06,-0.1,-0.02,0.12
12.98425197601318,3,3,3,2,-9.449999999999999,1.85,-2.06,-0.1,-0.02,0.12
13.0042519569397,3,3,3,2,-9.49,2.11,-1.69,-0.07000000000000001,0.01,0.01
13.0042519569397,3,3,3,2,-9.49,2.11,-1.69,-0.07000000000000001,0.01,0.01
13.02425193786621,3,3,3,2,-9.279999999999999,1.99,-1.73,-0.19,0.06,0.06
13.02425193786621,3,3,3,2,-9.279999999999999,1.99,-1.73,-0.19,0.06,0.06
13.0442521572113,3,3,3,2,-9.369999999999999,1.68,-1.8,-0.3,-0.12,0.15
13.0442521572113,3,3,3,2,-9.369999999999999,1.68,-1.8,-0.3,-0.12,0.15
13.06425213813782,3,3,3,2,-9.51,1.83,-1.62,-0.01,0.07000000000000001,-0.06
13.06425213813782,3,3,3,2,-9.51,1.83,-1.62,-0.01,0.07000000000000001,-0.06
13.08425211906433,3,3,3,2,-9.4,1.96,-1.74,0.17,0.03,0.1
13.08425211906433,3,3,3,2,-9.4,1.96,-1.74,0.17,0.03,0.1
13.10425209999084,3,3,3,2,-9.34,1.79,-1.63,-0.04,-0.02,0.07000000000000001
13.10425209999084,3,3,3,2,-9.34,1.79,-1.63,-0.04,-0.02,0.07000000000000001
13.12425208091736,3,3,3,2,-9.44,1.74,-1.66,0.11,0.02,0.06
13.12425208091736,3,3,3,2,-9.44,1.74,-1.66,0.11,0.02,0.06
13.14425206184387,3,3,3,2,-9.42,1.97,-1.75,0.14,0,-0.02
13.14425206184387,3,3,3,2,-9.42,1.97,-1.75,0.14,0,-0.02
13.16425204277039,3,3,3,2,-9.449999999999999,2.04,-1.71,0.17,0.01,0
13.16425204277039,3,3,3,2,-9.449999999999999,2.04,-1.71,0.17,0.01,0
13.1842520236969,3,3,3,2,-9.390000000000001,1.92,-1.85,-0.06,-0.01,0.04
13.1842520236969,3,3,3,2,-9.390000000000001,1.92,-1.85,-0.06,-0.01,0.04
13.20425200462341,3,3,3,2,-9.43,1.85,-1.8,-0.06,-0.1,0.21
13.20425200462341,3,3,3,2,-9.43,1.85,-1.8,-0.06,-0.1,0.21
13.22425198554993,3,3,3,2,-9.550000000000001,1.73,-1.79,0.19,-0.04,0.18
13.22425198554993,3,3,3,2,-9.550000000000001,1.73,-1.79,0.19,-0.04,0.18
13.24425196647644,3,3,3,2,-9.43,1.87,-1.72,0.4,-0.07000000000000001,0.11
13.24425196647644,3,3,3,2,-9.43,1.87,-1.72,0.4,-0.07000000000000001,0.11
13.26425194740295,3,3,3,2,-9.4,1.96,-1.65,0.39,0.07000000000000001,0.11
13.26425194740295,3,3,3,2,-9.4,1.96,-1.65,0.39,0.07000000000000001,0.11
13.28425192832947,3,3,3,2,-9.380000000000001,1.9,-1.77,0.28,-0.06,0.17
13.28425192832947,3,3,3,2,-9.380000000000001,1.9,-1.77,0.28,-0.06,0.17
13.30425214767456,3,3,3,2,-9.460000000000001,1.84,-1.82,0.19,-0.01,0.26
13.30425214767456,3,3,3,2,-9.460000000000001,1.84,-1.82,0.19,-0.01,0.26
13.32425212860107,3,3,3,2,-9.44,1.9,-1.6,0.25,-0.04,0.17
13.32425212860107,3,3,3,2,-9.44,1.9,-1.6,0.25,-0.04,0.17
13.34425210952759,3,3,3,2,-9.41,2,-1.79,0.31,0.03,0.22
13.34425210952759,3,3,3,2,-9.41,2,-1.79,0.31,0.03,0.22
13.3642520904541,3,3,3,2,-9.35,1.93,-1.72,0.07000000000000001,-0.07000000000000001,0.33
13.3642520904541,3,3,3,2,-9.35,1.93,-1.72,0.07000000000000001,-0.07000000000000001,0.33
13.38425207138062,3,3,3,2,-9.460000000000001,1.71,-1.85,0.25,-0.14,0.4
13.38425207138062,3,3,3,2,-9.460000000000001,1.71,-1.85,0.25,-0.14,0.4
13.40425205230713,3,3,3,2,-9.51,1.9,-1.72,0.13,0.04,0.16
13.40425205230713,3,3,3,2,-9.51,1.9,-1.72,0.13,0.04,0.16
13.42425203323364,3,3,3,2,-9.42,2,-1.75,0.24,0.15,0.19
13.42425203323364,3,3,3,2,-9.42,2,-1.75,0.24,0.15,0.19
13.44525194168091,3,3,3,2,-9.41,1.99,-1.85,-0.13,0.03,0.31
13.44525194168091,3,3,3,2,-9.41,1.99,-1.85,-0.13,0.03,0.31
13.465252161026,3,3,3,2,-9.48,1.79,-1.75,0.18,0.07000000000000001,0.29
13.465252161026,3,3,3,2,-9.48,1.79,-1.75,0.18,0.07000000000000001,0.29
13.48525214195251,3,3,3,2,-9.390000000000001,1.79,-1.74,0.12,0.2,0.1
13.48525214195251,3,3,3,2,-9.390000000000001,1.79,-1.74,0.12,0.2,0.1
13.50525212287903,3,3,3,2,-9.41,1.98,-1.77,0.15,0.22,0.02
13.50525212287903,3,3,3,2,-9.41,1.98,-1.77,0.15,0.22,0.02
13.52525210380554,3,3,3,2,-9.49,2.01,-1.72,0.1,0.2,-0.15
13.52525210380554,3,3,3,2,-9.49,2.01,-1.72,0.1,0.2,-0.15
13.54525208473206,3,3,3,2,-9.35,2.03,-1.78,-0.21,0.29,-0.29
13.54525208473206,3,3,3,2,-9.35,2.03,-1.78,-0.21,0.29,-0.29
13.56525206565857,3,3,3,2,-9.19,1.99,-1.67,-0.35,0.14,-0.24
13.56525206565857,3,3,3,2,-9.19,1.99,-1.67,-0.35,0.14,-0.24
13.58525204658508,3,3,3,2,-9.19,2.23,-1.87,-0.45,0.39,-0.24
13.58525204658508,3,3,3,2,-9.19,2.23,-1.87,-0.45,0.39,-0.24
13.6052520275116,3,3,3,2,-9.24,2.58,-1.43,-1.26,0.71,-0.62
13.6052520275116,3,3,3,2,-9.24,2.58,-1.43,-1.26,0.71,-0.62
13.62525200843811,3,3,3,2,-9.279999999999999,2.43,-1.71,-1.23,0.59,-0.05
13.62525200843811,3,3,3,2,-9.279999999999999,2.43,-1.71,-1.23,0.59,-0.05
13.64525198936462,3,3,3,2,-9.41,2.02,-1.89,-0.72,-0.39,0.84
13.64525198936462,3,3,3,2,-9.41,2.02,-1.89,-0.72,-0.39,0.84
13.66525197029114,3,3,3,2,-9.57,1.36,-2.05,0.22,-0.96,1.19
13.66525197029114,3,3,3,2,-9.57,1.36,-2.05,0.22,-0.96,1.19
13.68525195121765,3,3,3,2,-9.56,0.99,-2.3,0.92,-1.12,1.26
13.68525195121765,3,3,3,2,-9.56,0.99,-2.3,0.92,-1.12,1.26
13.70525193214417,3,3,3,2,-9.720000000000001,0.6899999999999999,-2.09,1.19,-1.55,1.3
13.70525193214417,3,3,3,2,-9.720000000000001,0.6899999999999999,-2.09,1.19,-1.55,1.3
13.72525215148926,3,3,3,2,-9.630000000000001,1.01,-1.65,1.19,-1.95,1.36
13.72525215148926,3,3,3,2,-9.630000000000001,1.01,-1.65,1.19,-1.95,1.36
13.74525213241577,3,3,3,2,-9.44,1.17,-1.57,0.73,-2.14,1.54
13.74525213241577,3,3,3,2,-9.44,1.17,-1.57,0.73,-2.14,1.54
13.76525211334229,3,3,3,2,-9.460000000000001,0.87,-1.72,-0.24,-1.82,1.8
13.76525211334229,3,3,3,2,-9.460000000000001,0.87,-1.72,-0.24,-1.82,1.8
13.7852520942688,3,3,3,2,-9.57,0.49,-1.79,-0.79,-1.09,1.88
13.7852520942688,3,3,3,2,-9.57,0.49,-1.79,-0.79,-1.09,1.88
13.80525207519531,3,3,3,2,-9.75,0.39,-1.58,-0.49,-0.55,1.48
13.80525207519531,3,3,3,2,-9.75,0.39,-1.58,-0.49,-0.55,1.48
13.82525205612183,3,3,3,2,-9.960000000000001,0.35,-1.62,0,-0.23,0.55
13.82525205612183,3,3,3,2,-9.960000000000001,0.35,-1.62,0,-0.23,0.55
13.84525203704834,3,3,3,2,-10.12,-0.01,-1.36,0.82,-0.71,-0.83
13.84525203704834,3,3,3,2,-10.12,-0.01,-1.36,0.82,-0.71,-0.83
13.86525201797485,3,3,3,2,-10.16,-0.03,-1.5,1.65,-1.39,-2.04
13.86525201797485,3,3,3,2,-10.16,-0.03,-1.5,1.65,-1.39,-2.04
13.88525199890137,3,3,3,2,-10.08,-0.18,-1.71,2.23,-2.32,-3.07
13.88525199890137,3,3,3,2,-10.08,-0.18,-1.71,2.23,-2.32,-3.07
13.90525197982788,3,3,3,2,-10.27,-0.38,-1.54,3.4,-3.15,-3.85
13.90525197982788,3,3,3,2,-10.27,-0.38,-1.54,3.4,-3.15,-3.85
13.92525196075439,3,3,3,2,-10.8,-0.52,-1.06,5.18,-4,-4.33
13.92525196075439,3,3,3,2,-10.8,-0.52,-1.06,5.18,-4,-4.33
13.94525194168091,3,3,3,2,-11.24,-0.87,-0.55,6.42,-4.87,-5.44
13.94525194168091,3,3,3,2,-11.24,-0.87,-0.55,6.42,-4.87,-5.44
13.965252161026,3,3,3,2,-11.32,-2.15,0.37,6.76,-6.21,-7.18
13.965252161026,3,3,3,2,-11.32,-2.15,0.37,6.76,-6.21,-7.18
13.98525214195251,3,3,3,2,-11.18,-3.04,0.62,4.96,-6.6,-9.93
13.98525214195251,3,3,3,2,-11.18,-3.04,0.62,4.96,-6.6,-9.93
14.00525212287903,3,3,3,2,-10.26,-1.68,1.1,1.11,-6.78,-10.57
14.00525212287903,3,3,3,2,-10.26,-1.68,1.1,1.11,-6.78,-10.57
14.02525210380554,3,3,3,2,-10.43,-1.42,-0.15,-0.07000000000000001,-4.67,-9.5
14.02525210380554,3,3,3,2,-10.43,-1.42,-0.15,-0.07000000000000001,-4.67,-9.5
14.04525208473206,3,3,3,2,-11.27,-0.66,-2.02,-0.5600000000000001,-2.81,-9.65
14.04525208473206,3,3,3,2,-11.27,-0.66,-2.02,-0.5600000000000001,-2.81,-9.65
14.06525206565857,3,3,3,2,-11.45,0.9399999999999999,-1.3,-0.11,-4.48,-9.68
14.06525206565857,3,3,3,2,-11.45,0.9399999999999999,-1.3,-0.11,-4.48,-9.68
14.08525204658508,3,3,3,2,-10.82,3.52,-0.06,0.03,-6.05,-9.529999999999999
14.08525204658508,3,3,3,2,-10.82,3.52,-0.06,0.03,-6.05,-9.529999999999999
14.1052520275116,3,3,3,2,-10.34,3.2,-0.57,-3.3,-4.64,-9.9
14.1052520275116,3,3,3,2,-10.34,3.2,-0.57,-3.3,-4.64,-9.9
14.12525200843811,3,3,3,2,-9.890000000000001,1.82,-1.52,-5.47,-2.54,-10.38
14.12525200843811,3,3,3,2,-9.890000000000001,1.82,-1.52,-5.47,-2.54,-10.38
14.14525198936462,3,3,3,2,-9.800000000000001,0.23,-1.83,-5.86,-1.81,-11.5
14.14525198936462,3,3,3,2,-9.800000000000001,0.23,-1.83,-5.86,-1.81,-11.5
14.16525197029114,3,3,3,2,-9.85,0.23,-1.95,-3.5,-0.96,-11.24
14.16525197029114,3,3,3,2,-9.85,0.23,-1.95,-3.5,-0.96,-11.24
14.18525195121765,3,3,3,2,-9.279999999999999,0.5,-2.03,-0.29,-1.03,-11.14
14.18525195121765,3,3,3,2,-9.279999999999999,0.5,-2.03,-0.29,-1.03,-11.14
14.20525193214417,3,3,3,2,-8.92,0.19,-1.6,1.83,-0.85,-10.51
14.20525193214417,3,3,3,2,-8.92,0.19,-1.6,1.83,-0.85,-10.51
14.22525215148926,3,3,3,2,-8.81,-0.11,-1.5,4.29,-0.42,-9.82
14.22525215148926,3,3,3,2,-8.81,-0.11,-1.5,4.29,-0.42,-9.82
14.24525213241577,3,3,3,2,-8.67,-0.4,-1.15,6.85,-0.41,-8.630000000000001
14.24525213241577,3,3,3,2,-8.67,-0.4,-1.15,6.85,-0.41,-8.630000000000001
14.26525211334229,3,3,3,2,-8.369999999999999,-0.72,-0.83,8.85,-0.34,-7.67
14.26525211334229,3,3,3,2,-8.369999999999999,-0.72,-0.83,8.85,-0.34,-7.67
14.2852520942688,3,3,3,2,-8.210000000000001,-0.67,-0.75,10.84,0.3,-6.87
14.2852520942688,3,3,3,2,-8.210000000000001,-0.67,-0.75,10.84,0.3,-6.87
14.30525207519531,3,3,3,2,-8.199999999999999,-0.5600000000000001,-0.5,12.42,0.57,-6.25
14.30525207519531,3,3,3,2,-8.199999999999999,-0.5600000000000001,-0.5,12.42,0.57,-6.25
14.32525205612183,3,3,3,2,-8.26,-0.38,-0.31,12.76,0.66,-5.93
14.32525205612183,3,3,3,2,-8.26,-0.38,-0.31,12.76,0.66,-5.93
14.34525203704834,3,3,3,2,-8.210000000000001,0.09,-0.31,11.06,0.64,-5.76
14.34525203704834,3,3,3,2,-8.210000000000001,0.09,-0.31,11.06,0.64,-5.76
14.36525201797485,3,3,3,2,-7.93,-0.07000000000000001,-0.06,8.800000000000001,1.39,-5.11
14.36525201797485,3,3,3,2,-7.93,-0.07000000000000001,-0.06,8.800000000000001,1.39,-5.11
14.38525199890137,3,3,3,2,-7.95,-0.87,-0.25,6.07,1.82,-4.83
14.38525199890137,3,3,3,2,-7.95,-0.87,-0.25,6.07,1.82,-4.83
14.40525197982788,3,3,3,2,-8.73,-2.48,0.13,3.69,1.21,-4.45
14.40525197982788,3,3,3,2,-8.73,-2.48,0.13,3.69,1.21,-4.45
14.42525196075439,3,3,3,2,-9.039999999999999,-3.12,1.66,3.37,1.01,-4
14.42525196075439,3,3,3,2,-9.039999999999999,-3.12,1.66,3.37,1.01,-4
14.44525194168091,3,3,3,2,-9.4,-3.9,1.84,4.59,0.71,-2.33
14.44525194168091,3,3,3,2,-9.4,-3.9,1.84,4.59,0.71,-2.33
14.46625208854675,3,3,3,2,-9.83,-4.19,2.25,3.32,0.29,-0.99
14.46625208854675,3,3,3,2,-9.83,-4.19,2.25,3.32,0.29,-0.99
14.48625206947327,3,3,3,2,-9.220000000000001,-4.6,2.68,1.96,-0.92,-0.44
14.48625206947327,3,3,3,2,-9.220000000000001,-4.6,2.68,1.96,-0.92,-0.44
14.50625205039978,3,3,3,2,-9.31,-6.41,2.29,3.41,-0.09,-0.25
14.50625205039978,3,3,3,2,-9.31,-6.41,2.29,3.41,-0.09,-0.25
14.52625203132629,3,3,3,2,-9.119999999999999,-7.08,1.86,3.53,0.68,-0.52
14.52625203132629,3,3,3,2,-9.119999999999999,-7.08,1.86,3.53,0.68,-0.52
14.54625201225281,3,3,3,2,-8.66,-5.76,1.29,5.87,0.83,0.33
14.54625201225281,3,3,3,2,-8.66,-5.76,1.29,5.87,0.83,0.33
14.56625199317932,3,3,3,2,-8.710000000000001,-3.94,0.57,8.130000000000001,2.21,0.52
14.56625199317932,3,3,3,2,-8.710000000000001,-3.94,0.57,8.130000000000001,2.21,0.52
14.58625197410583,3,3,3,2,-8.24,-1.34,0,5.81,3.42,-0.28
14.58625197410583,3,3,3,2,-8.24,-1.34,0,5.81,3.42,-0.28
14.60625195503235,3,3,3,2,-7.59,0.38,-0.37,1.99,3.34,1.8
14.60625195503235,3,3,3,2,-7.59,0.38,-0.37,1.99,3.34,1.8
14.62625193595886,3,3,3,2,-11.57,-1.74,-0.16,2.7,3.46,3.07
14.62625193595886,3,3,3,2,-11.57,-1.74,-0.16,2.7,3.46,3.07
14.64625215530396,3,3,3,2,-12.51,-6.07,2.79,-1.31,4.31,0.29
14.64625215530396,3,3,3,2,-12.51,-6.07,2.79,-1.31,4.31,0.29
14.66625213623047,3,3,3,2,-14.4,-8.31,4.34,-0.64,3.85,0.36
14.66625213623047,3,3,3,2,-14.4,-8.31,4.34,-0.64,3.85,0.36
14.68625211715698,3,3,3,2,-13.03,-4.16,2.01,1.45,4.64,3.07
14.68625211715698,3,3,3,2,-13.03,-4.16,2.01,1.45,4.64,3.07
14.7062520980835,3,3,3,2,-8.01,4.87,-0.79,0.54,7.64,5.83
14.7062520980835,3,3,3,2,-8.01,4.87,-0.79,0.54,7.64,5.83
14.72625207901001,3,3,3,2,-6.5,4.33,-3.91,0.12,10.09,6.42
14.72625207901001,3,3,3,2,-6.5,4.33,-3.91,0.12,10.09,6.42
14.74625205993652,3,3,3,2,-8.16,-0.61,-4.06,-2,6.21,5.57
14.74625205993652,3,3,3,2,-8.16,-0.61,-4.06,-2,6.21,5.57
14.76625204086304,3,3,3,2,-8.49,-0.35,-4,1.85,5.47,7.41
14.76625204086304,3,3,3,2,-8.49,-0.35,-4,1.85,5.47,7.41
14.78625202178955,3,3,3,2,-10.62,2.96,-2.67,3.81,4.86,8.359999999999999
14.78625202178955,3,3,3,2,-10.62,2.96,-2.67,3.81,4.86,8.359999999999999
14.80625200271606,3,3,3,2,-10.87,2.52,-1.8,1.81,6.12,8.49
14.80625200271606,3,3,3,2,-10.87,2.52,-1.8,1.81,6.12,8.49
14.82625198364258,3,3,3,2,-10.36,1.14,-1.19,0.85,6.25,9.369999999999999
14.82625198364258,3,3,3,2,-10.36,1.14,-1.19,0.85,6.25,9.369999999999999
14.84625196456909,3,3,3,2,-10.08,1.52,-1.68,0.8,6.96,10.15
14.84625196456909,3,3,3,2,-10.08,1.52,-1.68,0.8,6.96,10.15
14.86625194549561,3,3,3,2,-9.41,1.36,-2.96,0.88,6.99,10.52
14.86625194549561,3,3,3,2,-9.41,1.36,-2.96,0.88,6.99,10.52
14.8862521648407,3,3,3,2,-9.17,1.31,-3.51,1.3,6.84,10.79
14.8862521648407,3,3,3,2,-9.17,1.31,-3.51,1.3,6.84,10.79
14.90625214576721,3,3,3,2,-9.18,0.99,-3.38,1.67,6.26,11.09
14.90625214576721,3,3,3,2,-9.18,0.99,-3.38,1.67,6.26,11.09
14.92625212669373,3,3,3,2,-9.4,0.75,-2.86,1.68,5.88,10.61
14.92625212669373,3,3,3,2,-9.4,0.75,-2.86,1.68,5.88,10.61
14.94625210762024,3,3,3,2,-9.550000000000001,1.23,-2.73,0.97,5.63,10.31
14.94625210762024,3,3,3,2,-9.550000000000001,1.23,-2.73,0.97,5.63,10.31
14.96625208854675,3,3,3,2,-9.1,0.82,-3.79,0.23,5.86,9.960000000000001
14.96625208854675,3,3,3,2,-9.1,0.82,-3.79,0.23,5.86,9.960000000000001
14.98625206947327,3,3,3,2,-9.140000000000001,0.57,-3.67,1.01,5.4,9.890000000000001
14.98625206947327,3,3,3,2,-9.140000000000001,0.57,-3.67,1.01,5.4,9.890000000000001
15.00625205039978,3,3,3,2,-9.119999999999999,1.23,-3.62,0.86,5.09,10.67
15.00625205039978,3,3,3,2,-9.119999999999999,1.23,-3.62,0.86,5.09,10.67
15.02625203132629,3,3,3,2,-9.119999999999999,0.41,-2.82,-0.96,5.03,10.77
15.02625203132629,3,3,3,2,-9.119999999999999,0.41,-2.82,-0.96,5.03,10.77
15.04625201225281,3,3,3,2,-9.66,-1.8,-2.19,-1.33,5.66,9.16
15.04625201225281,3,3,3,2,-9.66,-1.8,-2.19,-1.33,5.66,9.16
15.06625199317932,3,3,3,2,-10.09,-3.44,-1.81,0.3,5.3,7.26
15.06625199317932,3,3,3,2,-10.09,-3.44,-1.81,0.3,5.3,7.26
15.08625197410583,3,3,3,2,-9.859999999999999,-2.17,-1.53,0.1,4.43,4.93
15.08625197410583,3,3,3,2,-9.859999999999999,-2.17,-1.53,0.1,4.43,4.93
15.10625195503235,3,3,3,2,-9.49,-0.25,-2.28,-1.57,3.67,3.63
15.10625195503235,3,3,3,2,-9.49,-0.25,-2.28,-1.57,3.67,3.63
15.12625193595886,3,3,3,2,-8.710000000000001,0.86,-3.17,-3.71,3.44,3.03
15.12625193595886,3,3,3,2,-8.710000000000001,0.86,-3.17,-3.71,3.44,3.03
15.14625215530396,3,3,3,2,-8.85,1.16,-3.26,-4.45,3.59,3.11
15.14625215530396,3,3,3,2,-8.85,1.16,-3.26,-4.45,3.59,3.11
15.16625213623047,3,3,3,2,-9.17,1.62,-2.89,-4.75,3.58,3.74
15.16625213623047,3,3,3,2,-9.17,1.62,-2.89,-4.75,3.58,3.74
15.18625211715698,3,3,3,2,-9.1,1.75,-2.92,-5.33,3.46,4.45
15.18625211715698,3,3,3,2,-9.1,1.75,-2.92,-5.33,3.46,4.45
15.2062520980835,3,3,3,2,-9.15,1.11,-2.68,-6.11,3.13,5.14
15.2062520980835,3,3,3,2,-9.15,1.11,-2.68,-6.11,3.13,5.14
15.22625207901001,3,3,3,2,-9.15,0.33,-2.49,-6.78,2.48,5.66
15.22625207901001,3,3,3,2,-9.15,0.33,-2.49,-6.78,2.48,5.66
15.24625205993652,3,3,3,2,-9.32,0.57,-2.6,-7.02,1.77,6.5
15.24625205993652,3,3,3,2,-9.32,0.57,-2.6,-7.02,1.77,6.5
15.26625204086304,3,3,3,2,-9.109999999999999,0.79,-2.89,-9.07,2.92,7.29
15.26625204086304,3,3,3,2,-9.109999999999999,0.79,-2.89,-9.07,2.92,7.29
15.28625202178955,3,3,3,2,-9.02,1.78,-3.16,-10.52,4.52,6.98
15.28625202178955,3,3,3,2,-9.02,1.78,-3.16,-10.52,4.52,6.98
15.30625200271606,3,3,3,2,-9.279999999999999,1.95,-3.6,-11.03,4.99,5.78
15.30625200271606,3,3,3,2,-9.279999999999999,1.95,-3.6,-11.03,4.99,5.78
15.32625198364258,3,3,3,2,-9.460000000000001,1.99,-3.43,-10.4,3.41,4.81
15.32625198364258,3,3,3,2,-9.460000000000001,1.99,-3.43,-10.4,3.41,4.81
15.34625196456909,3,3,3,2,-9.5,1.92,-3.21,-9.630000000000001,2.53,4.39
15.34625196456909,3,3,3,2,-9.5,1.92,-3.21,-9.630000000000001,2.53,4.39
15.36625194549561,3,3,3,2,-9.359999999999999,1.31,-2.65,-9.57,2.48,4.5
15.36625194549561,3,3,3,2,-9.359999999999999,1.31,-2.65,-9.57,2.48,4.5
15.3862521648407,3,3,3,2,-9.369999999999999,1.15,-2.48,-8.23,2.64,4.79
15.3862521648407,3,3,3,2,-9.369999999999999,1.15,-2.48,-8.23,2.64,4.79
15.40625214576721,3,3,3,2,-9.9,1.05,-2.7,-7.74,2.46,5.01
15.40625214576721,3,3,3,2,-9.9,1.05,-2.7,-7.74,2.46,5.01
15.42625212669373,3,3,3,2,-10.51,1.33,-2.98,-6.77,1.33,4.43
15.42625212669373,3,3,3,2,-10.51,1.33,-2.98,-6.77,1.33,4.43
15.44625210762024,3,3,3,2,-10.58,1.31,-3,-7.55,1,3.38
15.44625210762024,3,3,3,2,-10.58,1.31,-3,-7.55,1,3.38
15.46625208854675,3,3,3,2,-10.81,1.21,-2.77,-8.460000000000001,1.19,2.91
15.46625208854675,3,3,3,2,-10.81,1.21,-2.77,-8.460000000000001,1.19,2.91
15.48625206947327,3,3,3,2,-11.76,0.34,-2.19,-11.51,1.45,2.06
15.48625206947327,3,3,3,2,-11.76,0.34,-2.19,-11.51,1.45,2.06
15.50725197792053,3,3,3,2,-12.38,-0.64,-1.31,-11.81,0.87,1.75
15.50725197792053,3,3,3,2,-12.38,-0.64,-1.31,-11.81,0.87,1.75
15.52725195884705,3,3,3,2,-12.73,-2.41,-0.32,-9.720000000000001,-2.63,0.08
15.52725195884705,3,3,3,2,-12.73,-2.41,-0.32,-9.720000000000001,-2.63,0.08
15.54725193977356,3,3,3,2,-13.1,-3.71,0.08,-6.11,-5.85,-2.45
15.54725193977356,3,3,3,2,-13.1,-3.71,0.08,-6.11,-5.85,-2.45
15.56725215911865,3,3,3,2,-12.6,-5.52,1.35,-4.69,-7.15,-4.35
15.56725215911865,3,3,3,2,-12.6,-5.52,1.35,-4.69,-7.15,-4.35
15.58725214004517,3,3,3,2,-12.71,-3.52,2.58,-5.01,-10.66,-7.58
15.58725214004517,3,3,3,2,-12.71,-3.52,2.58,-5.01,-10.66,-7.58
15.60725212097168,3,3,3,2,-9.82,-1.78,1.1,-9.94,-11.08,-9.08
15.60725212097168,3,3,3,2,-9.82,-1.78,1.1,-9.94,-11.08,-9.08
15.62725210189819,3,3,3,2,-9.94,-4.02,-1.2,-9.06,-8.789999999999999,-14.94
15.62725210189819,3,3,3,2,-9.94,-4.02,-1.2,-9.06,-8.789999999999999,-14.94
15.64725208282471,3,3,3,2,-12.86,0.61,-2.82,-4.62,-9.17,-15.85
15.64725208282471,3,3,3,2,-12.86,0.61,-2.82,-4.62,-9.17,-15.85
15.66725206375122,3,3,3,2,-14.01,3.4,-3.27,-4.03,-8.52,-15.7
15.66725206375122,3,3,3,2,-14.01,3.4,-3.27,-4.03,-8.52,-15.7
15.68725204467773,3,3,3,2,-13.41,5.3,-3.85,-3.28,-6.23,-17.76
15.68725204467773,3,3,3,2,-13.41,5.3,-3.85,-3.28,-6.23,-17.76
15.70725202560425,3,3,3,2,-11.45,4.05,-3.39,-2.35,-5.48,-18.91
15.70725202560425,3,3,3,2,-11.45,4.05,-3.39,-2.35,-5.48,-18.91
15.72725200653076,3,3,3,2,-11.21,3.56,-2.63,1.48,-4.28,-19.89
15.72725200653076,3,3,3,2,-11.21,3.56,-2.63,1.48,-4.28,-19.89
15.74725198745728,3,3,3,2,-12.05,4.42,-3.43,4.02,-3.62,-18.95
15.74725198745728,3,3,3,2,-12.05,4.42,-3.43,4.02,-3.62,-18.95
15.76725196838379,3,3,3,2,-10.87,5.42,-3.52,4.04,-3.39,-19.11
15.76725196838379,3,3,3,2,-10.87,5.42,-3.52,4.04,-3.39,-19.11
15.7872519493103,3,3,3,2,-9.859999999999999,4.5,-3.42,5.14,-2.72,-21.16
15.7872519493103,3,3,3,2,-9.859999999999999,4.5,-3.42,5.14,-2.72,-21.16
15.80725193023682,3,3,3,2,-9.43,3.5,-3.28,5.19,-2.56,-21.58
15.80725193023682,3,3,3,2,-9.43,3.5,-3.28,5.19,-2.56,-21.58
15.82725214958191,3,3,3,2,-8.83,3.23,-2.85,8.08,-2.64,-20.51
15.82725214958191,3,3,3,2,-8.83,3.23,-2.85,8.08,-2.64,-20.51
15.84725213050842,3,3,3,2,-8.59,3.06,-2.66,12.85,-2.57,-18.83
15.84725213050842,3,3,3,2,-8.59,3.06,-2.66,12.85,-2.57,-18.83
15.86725211143494,3,3,3,2,-7.77,4.17,-2.29,14.14,-2.63,-18.13
15.86725211143494,3,3,3,2,-7.77,4.17,-2.29,14.14,-2.63,-18.13
15.88725209236145,3,3,3,2,-7.45,4.81,-2.02,13.74,-2.55,-16.31
15.88725209236145,3,3,3,2,-7.45,4.81,-2.02,13.74,-2.55,-16.31
15.90725207328796,3,3,3,2,-6.83,4.74,-2.09,12.52,-2.26,-15.13
15.90725207328796,3,3,3,2,-6.83,4.74,-2.09,12.52,-2.26,-15.13
15.92725205421448,3,3,3,2,-6.72,4.47,-2.33,8.59,-0.29,-10.36
15.92725205421448,3,3,3,2,-6.72,4.47,-2.33,8.59,-0.29,-10.36
15.94725203514099,3,3,3,2,-6.21,3.59,-2.57,6.94,1.34,-9.050000000000001
15.94725203514099,3,3,3,2,-6.21,3.59,-2.57,6.94,1.34,-9.050000000000001
15.9672520160675,3,3,3,2,-6.44,3.34,-2.02,6.3,1.43,-8.539999999999999
15.9672520160675,3,3,3,2,-6.44,3.34,-2.02,6.3,1.43,-8.539999999999999
15.98725199699402,3,3,3,2,-5.68,3.03,-1.44,4.67,2.38,-6.51
15.98725199699402,3,3,3,2,-5.68,3.03,-1.44,4.67,2.38,-6.51
16.00725197792053,3,3,3,2,-5.27,2.65,-1.24,3.42,3.6,-5.4
16.00725197792053,3,3,3,2,-5.27,2.65,-1.24,3.42,3.6,-5.4
16.02725195884705,3,3,3,2,-5.82,0.07000000000000001,-1.3,1.67,7.4,-0.72
16.02725195884705,3,3,3,2,-5.82,0.07000000000000001,-1.3,1.67,7.4,-0.72
16.04725193977356,3,3,3,2,-6.74,-1.38,-1.77,0.8,8.44,0.28
16.04725193977356,3,3,3,2,-6.74,-1.38,-1.77,0.8,8.44,0.28
16.06725215911865,3,3,3,2,-9.85,-3.78,0.23,3.02,6.92,-0.09
16.06725215911865,3,3,3,2,-9.85,-3.78,0.23,3.02,6.92,-0.09
16.08725214004517,3,3,3,2,-10.84,-8.18,1.72,10.96,1.58,-2.12
16.08725214004517,3,3,3,2,-10.84,-8.18,1.72,10.96,1.58,-2.12
16.10725212097168,3,3,3,2,-13.45,-13.61,5.13,12.86,-0.32,-2.38
16.10725212097168,3,3,3,2,-13.45,-13.61,5.13,12.86,-0.32,-2.38
16.12725210189819,3,3,3,2,-14.84,-16.46,3.99,9.869999999999999,-6.99,-4.98
16.12725210189819,3,3,3,2,-14.84,-16.46,3.99,9.869999999999999,-6.99,-4.98
16.14725208282471,3,3,3,2,-11.38,-5.71,2.19,5.73,-3.62,-4.51
16.14725208282471,3,3,3,2,-11.38,-5.71,2.19,5.73,-3.62,-4.51
16.16725206375122,3,3,3,2,-9.789999999999999,-0.92,0.05,4.34,-2.81,-5.31
16.16725206375122,3,3,3,2,-9.789999999999999,-0.92,0.05,4.34,-2.81,-5.31
16.18725204467773,3,3,3,2,-6.53,2.83,-1.67,-15.03,5.02,1.98
16.18725204467773,3,3,3,2,-6.53,2.83,-1.67,-15.03,5.02,1.98
16.20725202560425,3,3,3,2,-8.57,1.14,1.1,-12.41,7.44,6.53
16.20725202560425,3,3,3,2,-8.57,1.14,1.1,-12.41,7.44,6.53
16.22725200653076,3,3,3,2,-16.12,-11.46,4.06,5.33,3.91,5.84
16.22725200653076,3,3,3,2,-16.12,-11.46,4.06,5.33,3.91,5.84
16.24725198745728,3,3,3,2,-13.96,1.21,-0.28,10.21,4.63,9.460000000000001
16.24725198745728,3,3,3,2,-13.96,1.21,-0.28,10.21,4.63,9.460000000000001
16.26725196838379,3,3,3,2,-9.449999999999999,10.21,-4,6.05,6.68,8.93
16.26725196838379,3,3,3,2,-9.449999999999999,10.21,-4,6.05,6.68,8.93
16.2872519493103,3,3,3,2,-7.08,5.62,-8.279999999999999,-1.7,10.34,10.35
16.2872519493103,3,3,3,2,-7.08,5.62,-8.279999999999999,-1.7,10.34,10.35
16.30725193023682,3,3,3,1,-9.859999999999999,1.92,-5.06,-1.54,8.76,12.48
16.30725193023682,3,3,3,1,-9.859999999999999,1.92,-5.06,-1.54,8.76,12.48
16.32725214958191,3,3,3,1,-9.67,5.74,-3.89,1.78,8.17,14.67
16.32725214958191,3,3,3,1,-9.67,5.74,-3.89,1.78,8.17,14.67
16.34725213050842,3,3,3,1,-9.85,3.24,-2.87,-2.43,7.69,13.5
16.34725213050842,3,3,3,1,-9.85,3.24,-2.87,-2.43,7.69,13.5
16.36725211143494,3,3,3,1,-9.98,2.11,-2.36,-3.33,7.14,13.18
16.36725211143494,3,3,3,1,-9.98,2.11,-2.36,-3.33,7.14,13.18
16.38725209236145,3,3,3,1,-9.6,1.42,-2.5,-3.16,6.32,13.47
16.38725209236145,3,3,3,1,-9.6,1.42,-2.5,-3.16,6.32,13.47
16.40725207328796,3,3,3,1,-9.220000000000001,0.78,-2.68,-3.03,6.21,13.49
16.40725207328796,3,3,3,1,-9.220000000000001,0.78,-2.68,-3.03,6.21,13.49
16.42725205421448,3,3,3,1,-8.65,-0.08,-3.5,-1.66,5.52,12.74
16.42725205421448,3,3,3,1,-8.65,-0.08,-3.5,-1.66,5.52,12.74
16.44725203514099,3,3,3,1,-8.970000000000001,-0.41,-3.25,-2.36,5.3,11.75
16.44725203514099,3,3,3,1,-8.970000000000001,-0.41,-3.25,-2.36,5.3,11.75
16.4672520160675,3,3,3,1,-9.18,-0.58,-2.99,-3.6,4.28,11.2
16.4672520160675,3,3,3,1,-9.18,-0.58,-2.99,-3.6,4.28,11.2
16.48725199699402,3,3,3,1,-9.699999999999999,-1.01,-1.97,-5.81,3.83,11.42
16.48725199699402,3,3,3,1,-9.699999999999999,-1.01,-1.97,-5.81,3.83,11.42
16.50725197792053,3,3,3,1,-9.19,-0.41,-2.23,-8.5,3.18,11.12
16.50725197792053,3,3,3,1,-9.19,-0.41,-2.23,-8.5,3.18,11.12
16.52825212478638,3,3,3,1,-9.300000000000001,-2.07,-2.39,-9.75,2.77,10.59
16.52825212478638,3,3,3,1,-9.300000000000001,-2.07,-2.39,-9.75,2.77,10.59
16.54825210571289,3,3,3,1,-9.18,-3.57,-2.42,-12.46,2.48,10.27
16.54825210571289,3,3,3,1,-9.18,-3.57,-2.42,-12.46,2.48,10.27
16.5682520866394,3,3,3,1,-9.710000000000001,-2.86,-1.86,-10.55,4.53,9.09
16.5682520866394,3,3,3,1,-9.710000000000001,-2.86,-1.86,-10.55,4.53,9.09
16.58825206756592,3,3,3,1,-9.51,-0.79,-2.79,-7.94,4.78,7.57
16.58825206756592,3,3,3,1,-9.51,-0.79,-2.79,-7.94,4.78,7.57
16.60825204849243,3,3,3,1,-9.52,0.51,-3.3,-5.1,3.67,6.57
16.60825204849243,3,3,3,1,-9.52,0.51,-3.3,-5.1,3.67,6.57
16.62825202941895,3,3,3,1,-9.41,2.33,-3.23,-3.66,2.04,6.57
16.62825202941895,3,3,3,1,-9.41,2.33,-3.23,-3.66,2.04,6.57
16.64825201034546,3,3,3,1,-8.52,0.6,-2.6,-3.83,1.72,6.53
16.64825201034546,3,3,3,1,-8.52,0.6,-2.6,-3.83,1.72,6.53
16.66825199127197,3,3,3,1,-9.289999999999999,1.19,-2.18,-1.8,2,7.28
16.66825199127197,3,3,3,1,-9.289999999999999,1.19,-2.18,-1.8,2,7.28
16.68825197219849,3,3,3,1,-9.470000000000001,3.01,-2,-2.55,2.39,7.73
16.68825197219849,3,3,3,1,-9.470000000000001,3.01,-2,-2.55,2.39,7.73
16.708251953125,3,3,3,1,-9.300000000000001,2.75,-2.23,-4.58,2.24,7.44
16.708251953125,3,3,3,1,-9.300000000000001,2.75,-2.23,-4.58,2.24,7.44
16.72825193405151,3,3,3,1,-9.359999999999999,2.13,-3.01,-4.99,2.6,7.2
16.72825193405151,3,3,3,1,-9.359999999999999,2.13,-3.01,-4.99,2.6,7.2
16.74825215339661,3,3,3,1,-9.41,2.08,-2.91,-4.67,2.73,7.23
16.74825215339661,3,3,3,1,-9.41,2.08,-2.91,-4.67,2.73,7.23
16.76825213432312,3,3,3,1,-9.33,1.9,-2.34,-3.86,2.22,7.31
16.76825213432312,3,3,3,1,-9.33,1.9,-2.34,-3.86,2.22,7.31
16.78825211524963,3,3,3,1,-9.74,1.35,-2.46,-4.03,2.04,7.45
16.78825211524963,3,3,3,1,-9.74,1.35,-2.46,-4.03,2.04,7.45
16.80825209617615,3,3,3,1,-9.890000000000001,0.86,-2.32,-4.85,2.21,7.43
16.80825209617615,3,3,3,1,-9.890000000000001,0.86,-2.32,-4.85,2.21,7.43
16.82825207710266,3,3,3,1,-10.12,0.44,-1.9,-5.35,2.22,7.08
16.82825207710266,3,3,3,1,-10.12,0.44,-1.9,-5.35,2.22,7.08
16.84825205802917,3,3,3,1,-9.539999999999999,0.39,-1.68,-6,2.14,6.58
16.84825205802917,3,3,3,1,-9.539999999999999,0.39,-1.68,-6,2.14,6.58
16.86825203895569,3,3,3,1,-9.5,0.35,-2.17,-6.59,1.39,6.13
16.86825203895569,3,3,3,1,-9.5,0.35,-2.17,-6.59,1.39,6.13
16.8882520198822,3,3,3,1,-10.53,0.48,-2.02,-5.5,-0.17,5.37
16.8882520198822,3,3,3,1,-10.53,0.48,-2.02,-5.5,-0.17,5.37
16.90825200080872,3,3,3,2,-11.19,0.34,-2.6,-5.82,0.02,4.54
16.90825200080872,3,3,3,2,-11.19,0.34,-2.6,-5.82,0.02,4.54
16.92825198173523,3,3,3,2,-12.59,-0.14,-2.02,-6.56,0.38,3.52
16.92825198173523,3,3,3,2,-12.59,-0.14,-2.02,-6.56,0.38,3.52
16.94825196266174,3,3,3,2,-12.24,-2.13,-0.8,-7,-1.18,2.22
16.94825196266174,3,3,3,2,-12.24,-2.13,-0.8,-7,-1.18,2.22
16.96825194358826,3,3,3,2,-12.67,-3.84,0.19,-7.41,-2.83,0.3
16.96825194358826,3,3,3,2,-12.67,-3.84,0.19,-7.41,-2.83,0.3
16.98825216293335,3,3,3,2,-14.47,-7.11,1.46,-6.37,-6.11,-3.66
16.98825216293335,3,3,3,2,-14.47,-7.11,1.46,-6.37,-6.11,-3.66
17.00825214385986,3,3,3,2,-14.3,-3.77,4.11,-4.4,-11.02,-7.58
17.00825214385986,3,3,3,2,-14.3,-3.77,4.11,-4.4,-11.02,-7.58
17.02825212478638,3,3,3,2,-9.83,-4.44,0.98,-11.03,-10.74,-11.05
17.02825212478638,3,3,3,2,-9.83,-4.44,0.98,-11.03,-10.74,-11.05
17.04825210571289,3,3,3,2,-9.960000000000001,-4.13,-2.79,-10.17,-8.93,-15.63
17.04825210571289,3,3,3,2,-9.960000000000001,-4.13,-2.79,-10.17,-8.93,-15.63
17.0682520866394,3,3,3,2,-14.18,1.04,-3.98,-2.04,-9.109999999999999,-17.15
17.0682520866394,3,3,3,2,-14.18,1.04,-3.98,-2.04,-9.109999999999999,-17.15
17.08825206756592,3,3,3,2,-16.09,4.02,-3.78,1.85,-8.449999999999999,-16.55
17.08825206756592,3,3,3,2,-16.09,4.02,-3.78,1.85,-8.449999999999999,-16.55
17.10825204849243,3,3,3,2,-15.02,7.4,-3.63,1.51,-6.93,-17.73
17.10825204849243,3,3,3,2,-15.02,7.4,-3.63,1.51,-6.93,-17.73
17.12825202941895,3,3,3,2,-11.98,5.82,-2.89,-2.06,-5.67,-21.02
17.12825202941895,3,3,3,2,-11.98,5.82,-2.89,-2.06,-5.67,-21.02
17.14825201034546,3,3,3,2,-11.89,4.33,-1.84,-1.48,-4.61,-22.88
17.14825201034546,3,3,3,2,-11.89,4.33,-1.84,-1.48,-4.61,-22.88
17.16825199127197,3,3,3,2,-11.66,5.3,-2.28,1.95,-3.27,-21.37
17.16825199127197,3,3,3,2,-11.66,5.3,-2.28,1.95,-3.27,-21.37
17.18825197219849,3,3,3,2,-10.23,5.94,-2.81,3.83,-2.27,-21.4
17.18825197219849,3,3,3,2,-10.23,5.94,-2.81,3.83,-2.27,-21.4
17.208251953125,3,3,3,2,-10.17,5.06,-2.85,4.13,-2.17,-22.07
17.208251953125,3,3,3,2,-10.17,5.06,-2.85,4.13,-2.17,-22.07
17.22825193405151,3,3,3,2,-9.380000000000001,4.34,-3.11,5.52,-2.43,-21.71
17.22825193405151,3,3,3,2,-9.380000000000001,4.34,-3.11,5.52,-2.43,-21.71
17.24825215339661,3,3,3,2,-8.17,3.73,-3,8.119999999999999,-2.6,-20.88
17.24825215339661,3,3,3,2,-8.17,3.73,-3,8.119999999999999,-2.6,-20.88
17.26825213432312,3,3,3,2,-7.24,4.05,-3.03,11.83,-2.4,-19.36
17.26825213432312,3,3,3,2,-7.24,4.05,-3.03,11.83,-2.4,-19.36
17.28825211524963,3,3,3,2,-7.18,4.64,-2.98,14.03,-2.58,-17.61
17.28825211524963,3,3,3,2,-7.18,4.64,-2.98,14.03,-2.58,-17.61
17.30825209617615,3,3,3,2,-6.66,4.44,-2.76,14.97,-1.87,-16.19
17.30825209617615,3,3,3,2,-6.66,4.44,-2.76,14.97,-1.87,-16.19
17.32825207710266,3,3,3,2,-6.55,4.36,-3.27,13.4,-0.91,-14.18
17.32825207710266,3,3,3,2,-6.55,4.36,-3.27,13.4,-0.91,-14.18
17.34825205802917,3,3,3,2,-6.09,4.12,-3.24,11.46,0.52,-11.33
17.34825205802917,3,3,3,2,-6.09,4.12,-3.24,11.46,0.52,-11.33
17.36825203895569,3,3,3,2,-5.98,4.45,-3.09,8.69,1.98,-9.94
17.36825203895569,3,3,3,2,-5.98,4.45,-3.09,8.69,1.98,-9.94
17.3882520198822,3,3,3,2,-5.87,4.27,-1.98,6.85,1.98,-8.199999999999999
17.3882520198822,3,3,3,2,-5.87,4.27,-1.98,6.85,1.98,-8.199999999999999
17.40825200080872,3,3,3,2,-5.11,4.38,-1.42,5.29,3,-6.19
17.40825200080872,3,3,3,2,-5.11,4.38,-1.42,5.29,3,-6.19
17.42825198173523,3,3,3,2,-5.59,2.31,-0.99,2.64,5.11,-3.1
17.42825198173523,3,3,3,2,-5.59,2.31,-0.99,2.64,5.11,-3.1
17.44825196266174,3,3,3,2,-6.26,0.97,-0.64,0.66,5.63,0.12
17.44825196266174,3,3,3,2,-6.26,0.97,-0.64,0.66,5.63,0.12
17.46825194358826,3,3,3,2,-8.039999999999999,-0.96,-0.64,1.16,7.06,1.71
17.46825194358826,3,3,3,2,-8.039999999999999,-0.96,-0.64,1.16,7.06,1.71
17.48825216293335,3,3,3,2,-10.86,-7.89,0.6899999999999999,4.05,7.24,0.72
17.48825216293335,3,3,3,2,-10.86,-7.89,0.6899999999999999,4.05,7.24,0.72
17.50825214385986,3,3,3,1,-12.59,-12.47,2.95,8.859999999999999,7.97,-2.83
17.50825214385986,3,3,3,1,-12.59,-12.47,2.95,8.859999999999999,7.97,-2.83
17.52825212478638,3,3,3,1,-15.95,-18.5,4.42,13.7,-1.98,-3.83
17.52825212478638,3,3,3,1,-15.95,-18.5,4.42,13.7,-1.98,-3.83
17.54925203323364,3,3,3,1,-13.15,-14.14,5,8.56,-8.99,-4.53
17.54925203323364,3,3,3,1,-13.15,-14.14,5,8.56,-8.99,-4.53
17.56925201416016,3,3,3,1,-9.67,1.56,0.49,6.95,-3.68,-3.99
17.56925201416016,3,3,3,1,-9.67,1.56,0.49,6.95,-3.68,-3.99
17.58925199508667,3,3,3,1,-6.8,-0.26,-2.95,2.72,3.52,-6.9
17.58925199508667,3,3,3,1,-6.8,-0.26,-2.95,2.72,3.52,-6.9
17.60925197601318,3,3,3,1,-7.57,0.25,-0.13,-14.73,6.24,5.93
17.60925197601318,3,3,3,1,-7.57,0.25,-0.13,-14.73,6.24,5.93
17.6292519569397,3,3,3,1,-16.72,-12.07,7.29,1.51,1.22,4.53
17.6292519569397,3,3,3,1,-16.72,-12.07,7.29,1.51,1.22,4.53
17.64925193786621,3,3,3,1,-15.27,-4.04,1.4,9.449999999999999,3.98,6.84
17.64925193786621,3,3,3,1,-15.27,-4.04,1.4,9.449999999999999,3.98,6.84
17.6692521572113,3,3,3,1,-9.710000000000001,9.67,-3.08,14.33,4.32,9.9
17.6692521572113,3,3,3,1,-9.710000000000001,9.67,-3.08,14.33,4.32,9.9
17.68925213813782,3,3,3,1,-6.54,8.23,-8.34,3.8,10.64,10
17.68925213813782,3,3,3,1,-6.54,8.23,-8.34,3.8,10.64,10
17.70925211906433,3,3,3,1,-7.02,0.68,-9.49,-1.95,10.49,10.36
17.70925211906433,3,3,3,1,-7.02,0.68,-9.49,-1.95,10.49,10.36
17.72925209999084,3,3,3,1,-9.359999999999999,0.98,-5.1,1.45,8.210000000000001,13.31
17.72925209999084,3,3,3,1,-9.359999999999999,0.98,-5.1,1.45,8.210000000000001,13.31
17.74925208091736,3,3,3,1,-9.59,5.13,-4.06,11.24,8.630000000000001,16.28
17.74925208091736,3,3,3,1,-9.59,5.13,-4.06,11.24,8.630000000000001,16.28
17.76925206184387,3,3,3,1,-10.02,3.06,-1.35,9.859999999999999,8.65,15.61
17.76925206184387,3,3,3,1,-10.02,3.06,-1.35,9.859999999999999,8.65,15.61
17.78925204277039,3,3,3,1,-10.63,2.52,-0.41,6.39,7.73,15
17.78925204277039,3,3,3,1,-10.63,2.52,-0.41,6.39,7.73,15
17.8092520236969,3,3,3,1,-9.32,2.65,-2.21,3.44,7.45,14.17
17.8092520236969,3,3,3,1,-9.32,2.65,-2.21,3.44,7.45,14.17
17.82925200462341,3,3,3,1,-8.94,2.11,-3.78,2.74,7.5,13.81
17.82925200462341,3,3,3,1,-8.94,2.11,-3.78,2.74,7.5,13.81
17.84925198554993,3,3,3,1,-8.68,0.73,-3.92,2.27,6.62,13.32
17.84925198554993,3,3,3,1,-8.68,0.73,-3.92,2.27,6.62,13.32
17.86925196647644,3,3,3,1,-8.67,1.39,-3.71,1.97,6.53,13.12
17.86925196647644,3,3,3,1,-8.67,1.39,-3.71,1.97,6.53,13.12
17.88925194740295,3,3,3,1,-9.42,0.98,-2.69,-0.16,6.15,12.6
17.88925194740295,3,3,3,1,-9.42,0.98,-2.69,-0.16,6.15,12.6
17.90925192832947,3,3,3,1,-9.720000000000001,0.37,-2.12,-6.51,5.63,11.84
17.90925192832947,3,3,3,1,-9.720000000000001,0.37,-2.12,-6.51,5.63,11.84
17.92925214767456,3,3,3,1,-9.41,-1.78,-2.52,-8.59,5.56,11.15
17.92925214767456,3,3,3,1,-9.41,-1.78,-2.52,-8.59,5.56,11.15
17.94925212860107,3,3,3,1,-9.31,-3,-2.68,-11.28,4.94,9.84
17.94925212860107,3,3,3,1,-9.31,-3,-2.68,-11.28,4.94,9.84
17.96925210952759,3,3,3,1,-10.47,-2.34,-1.23,-12.44,4,8.84
17.96925210952759,3,3,3,1,-10.47,-2.34,-1.23,-12.44,4,8.84
17.9892520904541,3,3,3,1,-9.949999999999999,-1.45,-1.82,-12.81,4.2,8.210000000000001
17.9892520904541,3,3,3,1,-9.949999999999999,-1.45,-1.82,-12.81,4.2,8.210000000000001
18.00925207138062,3,3,3,1,-9.23,0.63,-2.72,-13.44,5.4,7.47
18.00925207138062,3,3,3,1,-9.23,0.63,-2.72,-13.44,5.4,7.47
18.02925205230713,3,3,3,1,-9.550000000000001,1.97,-3.46,-13.04,5.76,6.55
18.02925205230713,3,3,3,1,-9.550000000000001,1.97,-3.46,-13.04,5.76,6.55
18.04925203323364,3,3,3,1,-9.19,2.96,-3.77,-11.78,4.66,5.19
18.04925203323364,3,3,3,1,-9.19,2.96,-3.77,-11.78,4.66,5.19
18.06925201416016,3,3,3,1,-9.02,1.95,-2.95,-10.73,3.81,4.6
18.06925201416016,3,3,3,1,-9.02,1.95,-2.95,-10.73,3.81,4.6
18.08925199508667,3,3,3,1,-9.210000000000001,1.15,-2.7,-9.890000000000001,3.82,5.28
18.08925199508667,3,3,3,1,-9.210000000000001,1.15,-2.7,-9.890000000000001,3.82,5.28
18.10925197601318,3,3,3,1,-9.42,1.11,-2.21,-8.460000000000001,3.48,5.73
18.10925197601318,3,3,3,1,-9.42,1.11,-2.21,-8.460000000000001,3.48,5.73
18.1292519569397,3,3,3,1,-9.57,1.34,-2.39,-7.71,2.91,5.92
18.1292519569397,3,3,3,1,-9.57,1.34,-2.39,-7.71,2.91,5.92
18.14925193786621,3,3,3,1,-9.640000000000001,1.62,-2.51,-6.6,2.51,6.05
18.14925193786621,3,3,3,1,-9.640000000000001,1.62,-2.51,-6.6,2.51,6.05
18.1692521572113,3,3,3,1,-9.550000000000001,1.97,-2.37,-6.05,2.68,6.02
18.1692521572113,3,3,3,1,-9.550000000000001,1.97,-2.37,-6.05,2.68,6.02
18.18925213813782,3,3,3,1,-9.93,2.43,-2.1,-6.31,2.97,6.35
18.18925213813782,3,3,3,1,-9.93,2.43,-2.1,-6.31,2.97,6.35
18.20925211906433,3,3,3,1,-9.67,1.73,-2.38,-6.99,2.8,6.45
18.20925211906433,3,3,3,1,-9.67,1.73,-2.38,-6.99,2.8,6.45
18.22925209999084,3,3,3,1,-9.619999999999999,0.08,-2.36,-8.449999999999999,2.53,6.61
18.22925209999084,3,3,3,1,-9.619999999999999,0.08,-2.36,-8.449999999999999,2.53,6.61
18.24925208091736,3,3,3,1,-9.35,-0.06,-2.22,-7.61,2.16,6.46
18.24925208091736,3,3,3,1,-9.35,-0.06,-2.22,-7.61,2.16,6.46
18.26925206184387,3,3,3,1,-9.289999999999999,0.17,-2.5,-6.41,1.83,6.42
18.26925206184387,3,3,3,1,-9.289999999999999,0.17,-2.5,-6.41,1.83,6.42
18.28925204277039,3,3,3,1,-10.05,0.53,-2.35,-6.09,0.79,5.87
18.28925204277039,3,3,3,1,-10.05,0.53,-2.35,-6.09,0.79,5.87
18.3092520236969,3,3,3,1,-10.71,0.77,-1.59,-5.39,-0.35,4.78
18.3092520236969,3,3,3,1,-10.71,0.77,-1.59,-5.39,-0.35,4.78
18.32925200462341,3,3,3,1,-10.87,0.06,-2.44,-7.37,0.17,3.68
18.32925200462341,3,3,3,1,-10.87,0.06,-2.44,-7.37,0.17,3.68
18.34925198554993,3,3,3,1,-12.64,-1.57,-1.32,-10.21,1.55,2.94
18.34925198554993,3,3,3,1,-12.64,-1.57,-1.32,-10.21,1.55,2.94
18.36925196647644,3,3,3,1,-12.05,-3.41,-1,-9.720000000000001,-0.45,1.62
18.36925196647644,3,3,3,1,-12.05,-3.41,-1,-9.720000000000001,-0.45,1.62
18.38925194740295,3,3,3,1,-13.39,-5.81,1.21,-8.34,-2.76,0.03
18.38925194740295,3,3,3,1,-13.39,-5.81,1.21,-8.34,-2.76,0.03
18.40925192832947,3,3,3,1,-14.52,-6.35,1.83,-6.41,-5.75,-3.99
18.40925192832947,3,3,3,1,-14.52,-6.35,1.83,-6.41,-5.75,-3.99
18.42925214767456,3,3,3,1,-12.88,-2.72,2.67,-3.93,-10.34,-7.46
18.42925214767456,3,3,3,1,-12.88,-2.72,2.67,-3.93,-10.34,-7.46
18.44925212860107,3,3,3,1,-10.26,-4.25,-1.23,-10.25,-10,-10.71
18.44925212860107,3,3,3,1,-10.26,-4.25,-1.23,-10.25,-10,-10.71
18.46925210952759,3,3,3,1,-13.03,-0.41,-4.52,-7.97,-8.15,-15.41
18.46925210952759,3,3,3,1,-13.03,-0.41,-4.52,-7.97,-8.15,-15.41
18.49025201797485,3,3,3,1,-15.08,2.68,-4.31,0.36,-8.880000000000001,-17.03
18.49025201797485,3,3,3,1,-15.08,2.68,-4.31,0.36,-8.880000000000001,-17.03
18.50925207138062,3,3,3,1,-15.69,6.54,-4.27,3.11,-7.81,-17
18.50925207138062,3,3,3,1,-15.69,6.54,-4.27,3.11,-7.81,-17
18.52925205230713,3,3,3,1,-12.79,6.34,-3.32,1.46,-6.49,-19.08
18.52925205230713,3,3,3,1,-12.79,6.34,-3.32,1.46,-6.49,-19.08
18.55025196075439,3,3,3,1,-11.3,5.07,-1.65,0.9,-5.39,-21.86
18.55025196075439,3,3,3,1,-11.3,5.07,-1.65,0.9,-5.39,-21.86
18.57025194168091,3,3,3,1,-11.71,5.57,-1.78,2.31,-3.85,-22.4
18.57025194168091,3,3,3,1,-11.71,5.57,-1.78,2.31,-3.85,-22.4
18.590252161026,3,3,3,1,-10.43,6.5,-2.09,3.33,-2.79,-20.9
18.590252161026,3,3,3,1,-10.43,6.5,-2.09,3.33,-2.79,-20.9
18.61025214195251,3,3,3,1,-10.82,5.73,-2.1,2.3,-2.26,-20.92
18.61025214195251,3,3,3,1,-10.82,5.73,-2.1,2.3,-2.26,-20.92
18.63025212287903,3,3,3,1,-9.640000000000001,4.43,-2.6,2.32,-2.57,-21.71
18.63025212287903,3,3,3,1,-9.640000000000001,4.43,-2.6,2.32,-2.57,-21.71
18.65025210380554,3,3,3,1,-9,4.1,-2.55,3.18,-3.2,-21.46
18.65025210380554,3,3,3,1,-9,4.1,-2.55,3.18,-3.2,-21.46
18.67025208473206,3,3,3,0,-7.89,3.43,-3.01,5.87,-2.89,-20.5
18.67025208473206,3,3,3,0,-7.89,3.43,-3.01,5.87,-2.89,-20.5
