timestamp,magCalib,accCalib,gyrCalib,sysCalib,accX,accY,accZ,gyrX,gyrY,gyrZ
0.01725196838378906,2,3,3,3,-9.31,-1.35,2.14,1.17,0.08,-0.1
0.0272519588470459,2,3,3,3,-9.449999999999999,-1.3,2.19,1.3,0.14,-0.13
0.03725194931030273,2,3,3,3,-9.619999999999999,-1.23,2.21,1.43,0.12,-0.17
0.04725193977355957,2,3,3,3,-9.75,-1.18,2.27,1.44,0.04,-0.23
0.05725193023681641,2,3,3,3,-9.67,-1.2,2.22,1.15,-0.01,-0.26
0.06725215911865234,2,3,3,3,-9.44,-1.26,2.06,0.75,-0.04,-0.35
0.07725214958190918,2,3,3,3,-9.26,-1.29,2.07,0.59,0.03,-0.43
0.08725214004516602,2,3,3,3,-9.15,-1.3,2.12,0.75,0.35,-0.41
0.09725213050842285,2,3,3,3,-9.24,-1.24,2.27,0.9,0.88,-0.38
0.1082520484924316,2,3,3,3,-9.35,-1.18,2.35,1.01,1.44,-0.44
0.1182520389556885,2,3,3,3,-9.43,-1.14,2.37,1.08,1.71,-0.52
0.1282520294189453,2,3,3,3,-9.529999999999999,-0.96,2.19,0.91,2.04,-0.6
0.1382520198822021,2,3,3,3,-9.720000000000001,-0.77,2.22,0.48,2.53,-0.65
0.148252010345459,2,3,3,3,-9.960000000000001,-0.48,2.36,0.4,2.84,-0.88
0.1582520008087158,2,3,3,3,-9.949999999999999,-0.22,2.37,0.41,2.65,-1.31
0.1682519912719727,2,3,3,3,-9.529999999999999,-0.41,2.05,0.21,2.08,-1.73
0.1782519817352295,2,3,3,3,-9.52,-0.73,2.13,0.15,1.46,-1.82
0.1882519721984863,2,3,3,3,-9.49,-0.9399999999999999,2.24,0.17,1.35,-1.84
0.1982519626617432,2,3,3,3,-9.57,-0.88,2.21,-0.1,1.57,-1.97
0.208251953125,2,3,3,3,-9.68,-0.67,1.98,-0.23,1.45,-2.3
0.2182519435882568,2,3,3,3,-9.619999999999999,-0.66,1.93,-0.11,1.09,-2.69
0.2282519340515137,2,3,3,3,-9.51,-0.79,2.04,0.02,0.93,-2.88
0.2382521629333496,2,3,3,3,-9.449999999999999,-0.89,2.08,-0.04,0.97,-2.9
0.2482521533966064,2,3,3,3,-9.48,-0.88,2.19,-0.12,1.09,-2.85
0.2582521438598633,2,3,3,3,-9.41,-0.85,2.16,-0.21,1.03,-2.88
0.2682521343231201,2,3,3,3,-9.32,-0.87,2.15,-0.21,0.97,-2.87
0.278252124786377,2,3,3,3,-9.279999999999999,-0.9399999999999999,2.25,-0.14,0.95,-2.76
0.2882521152496338,2,3,3,3,-9.32,-1,2.15,-0.31,0.95,-2.55
0.2982521057128906,2,3,3,3,-9.35,-0.96,2.09,-0.37,0.97,-2.46
0.3082520961761475,2,3,3,3,-9.390000000000001,-0.9,2.18,-0.16,0.95,-2.4
0.3182520866394043,2,3,3,3,-9.42,-0.96,2.04,0,0.87,-2.26
0.3282520771026611,2,3,3,3,-9.43,-1.03,2.1,0.02,0.82,-2.06
0.338252067565918,2,3,3,3,-9.49,-0.99,2.14,0.1,0.84,-1.93
0.3482520580291748,2,3,3,3,-9.529999999999999,-0.95,2.12,0.19,0.84,-1.78
0.3582520484924316,2,3,3,3,-9.550000000000001,-0.84,2.06,0.26,0.68,-1.59
0.3682520389556885,2,3,3,3,-9.539999999999999,-0.86,1.96,0.26,0.57,-1.44
0.3782520294189453,2,3,3,3,-9.57,-0.96,1.94,0.12,0.47,-1.29
0.3882520198822021,2,3,3,3,-9.57,-1.02,1.98,0.08,0.35,-1.12
0.398252010345459,2,3,3,3,-9.550000000000001,-1.05,1.97,0.09,0.31,-0.95
0.4082520008087158,2,3,3,3,-9.51,-1.05,2.05,0.06,0.29,-0.83
0.4182519912719727,2,3,3,3,-9.51,-1.05,2.06,0.07000000000000001,0.3,-0.68
0.4282519817352295,2,3,3,3,-9.529999999999999,-1,2.04,-0.03,0.3,-0.54
0.4382519721984863,2,3,3,3,-9.56,-0.95,2.08,-0.14,0.27,-0.49
0.4482519626617432,2,3,3,3,-9.51,-1,2.12,-0.18,0.17,-0.4
0.458251953125,2,3,3,3,-9.449999999999999,-1.06,2.12,-0.17,0.1,-0.25
0.4682519435882568,2,3,3,3,-9.48,-1.1,1.98,-0.26,0.02,-0.2
0.4782519340515137,2,3,3,3,-9.6,-1.13,1.96,-0.36,0.14,-0.15
0.4882521629333496,2,3,3,3,-9.609999999999999,-1.15,2,-0.37,0.23,-0.2
0.4982521533966064,2,3,3,3,-9.57,-1.16,1.98,-0.48,0.21,-0.21
0.5082521438598633,2,3,3,3,-9.52,-1.21,1.91,-0.48,0.21,-0.18
0.5182521343231201,2,3,3,3,-9.49,-1.24,1.82,-0.5,0.21,-0.09
0.528252124786377,2,3,3,3,-9.52,-1.29,1.87,-0.49,0.14,0.01
0.5382521152496338,2,3,3,3,-9.52,-1.29,1.93,-0.41,0.16,0.11
0.5482521057128906,2,3,3,3,-9.51,-1.32,1.94,-0.4,0.17,0.17
0.5582520961761475,2,3,3,3,-9.48,-1.3,1.92,-0.4,0.21,0.2
0.5682520866394043,2,3,3,3,-9.49,-1.3,1.82,-0.39,0.24,0.2
0.5782520771026611,2,3,3,3,-9.52,-1.29,1.82,-0.38,0.25,0.24
0.588252067565918,2,3,3,3,-9.56,-1.34,1.89,-0.39,0.19,0.28
0.5982520580291748,2,3,3,3,-9.539999999999999,-1.36,1.93,-0.38,0.14,0.31
0.6082520484924316,2,3,3,3,-9.52,-1.38,1.89,-0.38,0.14,0.36
0.6182520389556885,2,3,3,3,-9.52,-1.4,1.76,-0.41,0.13,0.41
0.6282520294189453,2,3,3,3,-9.539999999999999,-1.32,1.88,-0.42,0.2,0.45
0.6382520198822021,2,3,3,3,-9.529999999999999,-1.28,1.98,-0.41,0.3,0.44
0.648252010345459,2,3,3,3,-9.529999999999999,-1.28,1.96,-0.46,0.18,0.48
0.6582520008087158,2,3,3,3,-9.52,-1.31,1.92,-0.49,0.04,0.51
0.6682519912719727,2,3,3,3,-9.52,-1.35,1.71,-0.47,-0.01,0.55
0.6782519817352295,2,3,3,3,-9.550000000000001,-1.38,1.78,-0.38,0.08,0.5600000000000001
0.6882519721984863,2,3,3,3,-9.57,-1.43,1.74,-0.45,-0.07000000000000001,0.54
0.6982519626617432,2,3,3,3,-9.51,-1.53,1.72,-0.44,-0.1,0.6
0.708251953125,2,3,3,3,-9.529999999999999,-1.48,1.75,-0.38,-0.03,0.6
0.7182519435882568,2,3,3,3,-9.539999999999999,-1.47,1.65,-0.35,0.03,0.5600000000000001
0.7282519340515137,2,3,3,3,-9.51,-1.5,1.65,-0.34,0.03,0.55
0.7382521629333496,2,3,3,3,-9.5,-1.44,1.75,-0.26,0.08,0.53
0.7482521533966064,2,3,3,3,-9.539999999999999,-1.44,1.81,-0.24,0.07000000000000001,0.54
0.7582521438598633,2,3,3,3,-9.57,-1.44,1.81,-0.37,0.07000000000000001,0.51
0.7682521343231201,2,3,3,3,-9.619999999999999,-1.43,1.64,-0.46,0.1,0.48
0.778252124786377,2,3,3,3,-9.630000000000001,-1.44,1.74,-0.37,0.07000000000000001,0.44
0.7882521152496338,2,3,3,3,-9.59,-1.44,1.76,-0.36,0.04,0.43
0.7982521057128906,2,3,3,3,-9.56,-1.45,1.76,-0.42,0.01,0.39
0.8082520961761475,2,3,3,3,-9.550000000000001,-1.44,1.74,-0.49,0.04,0.36
0.8182520866394043,2,3,3,3,-9.56,-1.44,1.61,-0.5,0.04,0.34
0.8282520771026611,2,3,3,3,-9.58,-1.44,1.7,-0.45,0.07000000000000001,0.36
0.838252067565918,2,3,3,3,-9.59,-1.42,1.74,-0.44,0.06,0.35
0.8482520580291748,2,3,3,3,-9.58,-1.45,1.79,-0.51,0.06,0.3
0.8582520484924316,2,3,3,3,-9.550000000000001,-1.44,1.72,-0.53,0.09,0.29
0.8682520389556885,2,3,3,3,-9.550000000000001,-1.44,1.62,-0.55,0.13,0.25
0.8782520294189453,2,3,3,3,-9.5,-1.41,1.63,-0.5600000000000001,0.13,0.27
0.8882520198822021,2,3,3,3,-9.539999999999999,-1.43,1.7,-0.51,0.09,0.29
0.898252010345459,2,3,3,3,-9.539999999999999,-1.42,1.74,-0.36,0.07000000000000001,0.32
0.9082520008087158,2,3,3,3,-9.57,-1.44,1.72,-0.28,0.04,0.32
0.9182519912719727,2,3,3,3,-9.57,-1.45,1.62,-0.32,0.05,0.3
0.9282519817352295,2,3,3,3,-9.56,-1.45,1.7,-0.28,0.16,0.29
0.9382519721984863,2,3,3,3,-9.57,-1.45,1.71,-0.31,0.22,0.26
0.9482519626617432,2,3,3,3,-9.59,-1.45,1.75,-0.39,0.21,0.22
0.958251953125,2,3,3,3,-9.6,-1.44,1.76,-0.39,0.22,0.21
0.9682519435882568,2,3,3,3,-9.6,-1.41,1.59,-0.38,0.23,0.17
0.9782519340515137,2,3,3,3,-9.56,-1.39,1.67,-0.39,0.17,0.16
0.9882521629333496,2,3,3,3,-9.529999999999999,-1.41,1.71,-0.28,0.13,0.18
0.9982521533966064,2,3,3,3,-9.529999999999999,-1.44,1.71,-0.16,0.17,0.18
1.008252143859863,2,3,3,3,-9.56,-1.42,1.74,-0.14,0.12,0.19
1.01825213432312,2,3,3,3,-9.550000000000001,-1.43,1.64,-0.16,0.13,0.15
1.028252124786377,2,3,3,3,-9.550000000000001,-1.44,1.71,-0.18,0.16,0.15
1.038252115249634,2,3,3,3,-9.56,-1.41,1.78,-0.21,0.15,0.12
1.048252105712891,2,3,3,3,-9.58,-1.42,1.8,-0.15,0.14,0.11
1.058252096176147,2,3,3,3,-9.57,-1.37,1.79,-0.08,0.03,0.13
1.068252086639404,2,3,3,3,-9.550000000000001,-1.39,1.64,-0.07000000000000001,-0.01,0.13
1.078252077102661,2,3,3,3,-9.529999999999999,-1.43,1.66,-0.01,0.02,0.14
1.088252067565918,2,3,3,3,-9.529999999999999,-1.44,1.74,0.1,0.07000000000000001,0.19
1.098252058029175,2,3,3,3,-9.529999999999999,-1.44,1.79,0.08,0.04,0.17
1.108252048492432,2,3,3,3,-9.56,-1.45,1.78,0.13,0.03,0.15
1.118252038955688,2,3,3,3,-9.57,-1.41,1.64,0.17,0.04,0.12
1.129251956939697,2,3,3,3,-9.529999999999999,-1.38,1.73,0.21,0.06,0.08
1.139251947402954,2,3,3,3,-9.51,-1.4,1.74,0.19,0.09,0.07000000000000001
1.149251937866211,2,3,3,3,-9.539999999999999,-1.4,1.73,0.21,0.06,0.08
1.159251928329468,2,3,3,3,-9.539999999999999,-1.41,1.77,0.23,0.03,0.09
1.169252157211304,2,3,3,3,-9.539999999999999,-1.4,1.67,0.29,0.06,0.11
1.179252147674561,2,3,3,3,-9.550000000000001,-1.4,1.71,0.25,0,0.14
1.189252138137817,2,3,3,3,-9.58,-1.4,1.77,0.24,-0.02,0.18
1.199252128601074,2,3,3,3,-9.550000000000001,-1.37,1.81,0.28,0.07000000000000001,0.18
1.209252119064331,2,3,3,3,-9.51,-1.37,1.81,0.37,0.11,0.17
1.219252109527588,2,3,3,3,-9.5,-1.37,1.66,0.37,0.08,0.22
1.229252099990845,2,3,3,3,-9.56,-1.33,1.72,0.35,0.06,0.23
1.239252090454102,2,3,3,3,-9.59,-1.32,1.76,0.39,0.13,0.23
1.249252080917358,2,3,3,3,-9.59,-1.3,1.81,0.38,0.13,0.17
1.259252071380615,2,3,3,3,-9.609999999999999,-1.29,1.86,0.37,0.1,0.15
1.269252061843872,2,3,3,3,-9.59,-1.23,1.67,0.37,0.1,0.12
1.279252052307129,2,3,3,3,-9.51,-1.22,1.75,0.3,0.08,0.11
1.289252042770386,2,3,3,3,-9.52,-1.27,1.82,0.28,0.05,0.15
1.299252033233643,2,3,3,3,-9.550000000000001,-1.3,1.82,0.27,-0.01,0.2
1.309252023696899,2,3,3,3,-9.59,-1.24,1.76,0.33,-0.03,0.21
1.319252014160156,2,3,3,3,-9.58,-1.22,1.68,0.34,0.03,0.21
1.329252004623413,2,3,3,3,-9.550000000000001,-1.24,1.68,0.35,-0.02,0.2
1.33925199508667,2,3,3,3,-9.5,-1.28,1.75,0.34,0.03,0.18
1.349251985549927,2,3,3,3,-9.56,-1.24,1.85,0.34,0.07000000000000001,0.18
1.359251976013184,2,3,3,3,-9.539999999999999,-1.22,1.8,0.34,-0.04,0.19
1.36925196647644,2,3,3,3,-9.550000000000001,-1.22,1.7,0.34,-0.07000000000000001,0.23
1.379251956939697,2,3,3,3,-9.539999999999999,-1.19,1.75,0.38,-0.09,0.27
1.389251947402954,2,3,3,3,-9.56,-1.24,1.76,0.39,-0.18,0.34
1.399251937866211,2,3,3,3,-9.550000000000001,-1.24,1.78,0.38,-0.2,0.35
1.409251928329468,2,3,3,3,-9.539999999999999,-1.29,1.85,0.44,-0.12,0.37
1.419252157211304,2,3,3,3,-9.58,-1.23,1.73,0.44,-0.14,0.36
1.429252147674561,2,3,3,3,-9.57,-1.2,1.74,0.36,-0.17,0.37
1.439252138137817,2,3,3,3,-9.57,-1.19,1.8,0.36,-0.17,0.36
1.449252128601074,2,3,3,3,-9.56,-1.16,1.82,0.34,-0.16,0.39
1.459252119064331,2,3,3,3,-9.49,-1.21,1.74,0.33,-0.19,0.46
1.469252109527588,2,3,3,3,-9.470000000000001,-1.24,1.67,0.37,-0.18,0.5600000000000001
1.479252099990845,2,3,3,3,-9.51,-1.25,1.74,0.41,-0.09,0.5600000000000001
1.489252090454102,2,3,3,3,-9.5,-1.22,1.82,0.49,-0.06,0.58
1.499252080917358,2,3,3,3,-9.550000000000001,-1.19,1.87,0.5,-0.03,0.61
1.509252071380615,2,3,3,3,-9.58,-1.14,1.84,0.4,0,0.5600000000000001
1.519252061843872,2,3,3,3,-9.619999999999999,-1.14,1.69,0.31,0.01,0.54
1.529252052307129,2,3,3,3,-9.609999999999999,-1.14,1.77,0.25,0,0.52
1.539252042770386,2,3,3,3,-9.619999999999999,-1.17,1.81,0.18,-0.01,0.49
1.549252033233643,2,3,3,3,-9.609999999999999,-1.14,1.81,0.13,-0.05,0.46
1.559252023696899,2,3,3,3,-9.6,-1.12,1.8,0.15,-0.04,0.4
1.569252014160156,2,3,3,3,-9.630000000000001,-1.13,1.71,0.11,-0.06,0.37
1.579252004623413,2,3,3,3,-9.630000000000001,-1.15,1.74,0.03,-0.09,0.27
1.58925199508667,2,3,3,3,-9.65,-1.16,1.8,0.02,-0.05,0.21
1.599251985549927,2,3,3,3,-9.609999999999999,-1.14,1.88,-0.01,-0.05,0.13
1.609251976013184,2,3,3,3,-9.5,-1.24,1.75,-0.05,-0.11,0.1
1.61925196647644,2,3,3,3,-9.49,-1.26,1.66,-0.08,-0.07000000000000001,0.1
1.629251956939697,2,3,3,3,-9.460000000000001,-1.29,1.74,0,0.03,0.1
1.639251947402954,2,3,3,3,-9.48,-1.28,1.77,-0.02,0.07000000000000001,0.07000000000000001
1.649251937866211,2,3,3,3,-9.57,-1.17,1.77,-0.02,0.09,0
1.659251928329468,2,3,3,3,-9.58,-1.23,1.7,0.01,0,-0.07000000000000001
1.669252157211304,2,3,3,3,-9.539999999999999,-1.19,1.67,0.08,0.03,-0.06
1.679252147674561,2,3,3,3,-9.5,-1.21,1.68,0.01,0.08,-0.05
1.689252138137817,2,3,3,3,-9.619999999999999,-1.09,1.77,0,0.14,-0.02
1.699252128601074,2,3,3,3,-9.609999999999999,-1.09,1.81,0,0.06,0.01
1.709252119064331,2,3,3,3,-9.550000000000001,-1.14,1.81,-0.04,-0.09,0.08
1.719252109527588,2,3,3,3,-9.539999999999999,-1.19,1.73,-0.06,-0.04,0.18
1.729252099990845,2,3,3,3,-9.550000000000001,-1.16,1.76,-0.06,0.07000000000000001,0.2
1.739252090454102,2,3,3,3,-9.56,-1.14,1.77,-0.14,0.06,0.17
1.749252080917358,2,3,3,3,-9.550000000000001,-1.1,1.8,-0.21,0.08,0.18
1.759252071380615,2,3,3,3,-9.59,-1.1,1.83,-0.17,0.16,0.19
1.769252061843872,2,3,3,3,-9.640000000000001,-1.05,1.71,-0.18,0.11,0.16
1.779252052307129,2,3,3,3,-9.67,-1.05,1.79,-0.23,0.04,0.11
1.789252042770386,2,3,3,3,-9.630000000000001,-1.08,1.76,-0.33,-0.02,0.07000000000000001
1.799252033233643,2,3,3,3,-9.6,-1.13,1.78,-0.43,-0.05,0.04
1.809252023696899,2,3,3,3,-9.58,-1.15,1.76,-0.42,-0.06,-0.01
1.819252014160156,2,3,3,3,-9.550000000000001,-1.18,1.69,-0.38,-0.1,-0.02
1.829252004623413,2,3,3,3,-9.550000000000001,-1.23,1.67,-0.33,-0.22,0.01
1.83925199508667,2,3,3,3,-9.51,-1.24,1.77,-0.3,-0.17,0.06
1.849251985549927,2,3,3,3,-9.539999999999999,-1.22,1.81,-0.23,-0.08,0.05
1.859251976013184,2,3,3,3,-9.52,-1.17,1.84,-0.14,-0.09,0.09
1.86925196647644,2,3,3,3,-9.51,-1.19,1.7,-0.01,-0.12,0.09
1.879251956939697,2,3,3,3,-9.59,-1.15,1.75,0.17,-0.25,0.16
1.889251947402954,2,3,3,3,-9.59,-1.12,1.89,0.35,-0.45,0.21
1.899251937866211,2,3,3,3,-9.529999999999999,-1.1,1.95,0.47,-0.6899999999999999,0.25
1.909251928329468,2,3,3,3,-9.529999999999999,-1.1,1.94,0.32,-0.8,0.25
1.919252157211304,2,3,3,3,-9.67,-1.11,1.67,0.19,-0.79,0.25
1.929252147674561,2,3,3,3,-9.76,-1.1,1.81,0.21,-0.8100000000000001,0.23
1.939252138137817,2,3,3,3,-9.779999999999999,-1.05,1.99,0.5600000000000001,-1.1,0.22
1.949252128601074,2,3,3,3,-9.6,-1,1.97,0.46,-1.65,0.25
1.959252119064331,2,3,3,3,-9.42,-1.1,1.84,0.31,-1.62,0.3
1.969252109527588,2,3,3,3,-9.51,-1.13,1.76,0.3,-1.42,0.38
1.979252099990845,2,3,3,3,-9.6,-1.12,1.8,0.26,-1.38,0.38
1.989252090454102,2,3,3,3,-9.59,-1.07,1.94,0.33,-1.42,0.35
1.999252080917358,2,3,3,3,-9.58,-1.09,1.97,0.29,-1.36,0.3
2.009252071380615,2,3,3,3,-9.58,-1.1,1.93,0.22,-1.34,0.28
2.019252061843872,2,3,3,3,-9.59,-1.13,1.88,0.24,-1.36,0.3
2.029252052307129,2,3,3,3,-9.550000000000001,-1.07,2.01,0.45,-1.41,0.29
2.039252042770386,2,3,3,3,-9.550000000000001,-1.04,2.05,0.54,-1.56,0.33
2.049252033233643,2,3,3,3,-9.58,-0.95,2.04,0.62,-1.65,0.35
2.059252023696899,2,3,3,3,-9.56,-0.85,1.97,0.46,-1.74,0.42
2.069252014160156,2,3,3,3,-9.42,-0.89,1.97,0.23,-1.66,0.45
2.079252004623413,2,3,3,3,-9.359999999999999,-0.95,2.03,0.19,-1.43,0.55
2.08925199508667,2,3,3,3,-9.4,-0.99,2.07,0.09,-1.3,0.61
2.099251985549927,2,3,3,3,-9.460000000000001,-1.01,2.13,0.13,-1.26,0.66
2.109251976013184,2,3,3,3,-9.539999999999999,-1.05,2.1,0.3,-1.33,0.76
2.11925196647644,2,3,3,3,-9.529999999999999,-1.04,1.93,0.33,-1.63,0.84
2.129251956939697,2,3,3,3,-9.550000000000001,-1.11,1.95,0.2,-1.68,0.97
2.139251947402954,2,3,3,3,-9.630000000000001,-1.13,2.06,0.39,-1.5,1.07
2.149251937866211,2,3,3,3,-9.630000000000001,-1.16,2.02,0.33,-1.5,1.13
2.160252094268799,2,3,3,3,-9.56,-1.16,1.99,0.14,-1.45,1.12
2.170252084732056,2,3,3,3,-9.51,-1.16,1.9,0.15,-1.15,1.15
2.180252075195312,2,3,3,3,-9.43,-1.22,2.17,0.27,-0.82,1.24
2.190252065658569,2,3,3,3,-9.470000000000001,-1.2,2.34,0.59,-0.72,1.31
2.200252056121826,2,3,3,3,-9.41,-1.11,2.24,0.78,-0.93,1.31
2.210252046585083,2,3,3,3,-9.43,-1.11,2.2,0.64,-0.9,1.27
2.22025203704834,2,3,3,3,-9.57,-0.97,2.12,0.68,-0.6899999999999999,1.2
2.230252027511597,2,3,3,3,-9.619999999999999,-0.95,2.25,0.65,-0.67,1.07
2.240252017974854,2,3,3,3,-9.640000000000001,-0.97,2.2,0.66,-0.86,0.92
2.25025200843811,2,3,3,3,-9.529999999999999,-1.01,2.04,0.4,-0.93,0.8
2.260251998901367,2,3,3,3,-9.5,-1.12,2.09,0.32,-0.72,0.72
2.270251989364624,2,3,3,3,-9.57,-1.19,2.03,0.21,-0.37,0.65
2.280251979827881,2,3,3,3,-9.65,-1.1,2.04,0.18,-0.17,0.54
2.290251970291138,2,3,3,3,-9.59,-1.07,2.01,0.15,-0.08,0.4
2.300251960754395,2,3,3,3,-9.470000000000001,-1,2.19,0.28,0.06,0.36
2.310251951217651,2,3,3,3,-9.5,-0.98,2.2,0.3,0.16,0.35
2.320251941680908,2,3,3,3,-9.52,-0.96,2.1,0.31,0.06,0.34
2.330251932144165,2,3,3,3,-9.56,-0.91,2.19,0.32,-0.1,0.32
2.340252161026001,2,3,3,3,-9.48,-0.91,2.16,0.29,-0.25,0.33
2.350252151489258,2,3,3,3,-9.41,-0.89,2.12,0.06,-0.33,0.4
2.360252141952515,2,3,3,3,-9.380000000000001,-0.84,2.19,0.07000000000000001,-0.19,0.42
2.370252132415771,2,3,3,3,-9.57,-0.83,2.15,0,-0.05,0.48
2.380252122879028,2,3,3,3,-9.619999999999999,-0.79,2.3,-0.01,-0.04,0.47
2.390252113342285,2,3,3,3,-9.550000000000001,-0.73,2.24,-0.03,-0.29,0.44
2.400252103805542,2,3,3,3,-9.529999999999999,-0.76,2.15,-0.32,-0.36,0.41
2.410252094268799,2,3,3,3,-9.56,-0.79,2.18,-0.33,-0.16,0.42
2.420252084732056,2,3,3,3,-9.550000000000001,-0.85,2.06,-0.45,-0.12,0.35
2.430252075195312,2,3,3,3,-9.529999999999999,-0.9,2.12,-0.53,-0.18,0.3
2.440252065658569,2,3,3,3,-9.51,-0.89,2.12,-0.57,-0.04,0.23
2.450252056121826,2,3,3,3,-9.57,-0.9,2.23,-0.58,0.14,0.18
2.460252046585083,2,3,3,3,-9.6,-0.91,2.26,-0.46,0.12,0.12
2.47025203704834,2,3,3,3,-9.58,-0.93,2.08,-0.47,0.01,0.03
2.480252027511597,2,3,3,3,-9.6,-0.91,2.13,-0.47,-0.07000000000000001,-0.09
2.490252017974854,2,3,3,3,-9.44,-0.9,2.09,-0.51,-0.17,-0.16
2.50025200843811,2,3,3,3,-9.42,-0.93,2.07,-0.5600000000000001,-0.1,-0.21
2.510251998901367,2,3,3,3,-9.380000000000001,-0.82,2.16,-0.43,0.04,-0.28
2.520251989364624,2,3,3,3,-9.460000000000001,-1,2.07,-0.32,0.1,-0.28
2.530251979827881,2,3,3,3,-9.49,-0.89,2.28,-0.25,0.22,-0.25
2.540251970291138,2,3,3,3,-9.5,-0.87,2.22,-0.43,0.44,-0.21
2.550251960754395,2,3,3,3,-9.539999999999999,-0.79,2.18,-0.63,0.42,-0.2
2.560251951217651,2,3,3,3,-9.6,-0.75,2.17,-0.62,0.41,-0.22
2.570251941680908,2,3,3,3,-9.57,-0.73,2.12,-0.52,0.4,-0.24
2.580251932144165,2,3,3,3,-9.51,-0.72,2.18,-0.46,0.42,-0.25
2.590252161026001,2,3,3,3,-9.460000000000001,-0.74,2.26,-0.39,0.43,-0.23
2.600252151489258,2,3,3,3,-9.42,-0.78,2.29,-0.41,0.41,-0.21
2.610252141952515,2,3,3,3,-9.460000000000001,-0.76,2.25,-0.49,0.51,-0.16
2.620252132415771,2,3,3,3,-9.5,-0.78,2.28,-0.36,0.55,-0.16
2.630252122879028,2,3,3,3,-9.5,-0.75,2.35,-0.13,0.4,-0.18
2.640252113342285,2,3,3,3,-9.470000000000001,-0.76,2.2,-0.23,0.17,-0.13
2.650252103805542,2,3,3,3,-9.5,-0.78,2.23,-0.38,0.09,-0.09
2.660252094268799,2,3,3,3,-9.550000000000001,-0.77,2.29,-0.25,0.18,-0.01
2.670252084732056,2,3,3,3,-9.56,-0.74,2.15,-0.36,0.19,0.03
2.680252075195312,2,3,3,3,-9.550000000000001,-0.76,2.2,-0.47,0.19,0.05
2.690252065658569,2,3,3,3,-9.539999999999999,-0.79,2.2,-0.44,0.16,0.11
2.700252056121826,2,3,3,3,-9.539999999999999,-0.79,2.26,-0.41,0.15,0.13
2.710252046585083,2,3,3,3,-9.51,-0.85,2.28,-0.32,0.16,0.2
2.72025203704834,2,3,3,3,-9.539999999999999,-0.83,2.24,-0.24,0.04,0.24
2.730252027511597,2,3,3,3,-9.5,-0.8100000000000001,2.22,-0.22,-0.21,0.18
2.740252017974854,2,3,3,3,-9.51,-0.78,2.15,-0.26,-0.27,0.17
2.75025200843811,2,3,3,3,-9.550000000000001,-0.82,2.23,-0.38,-0.2,0.17
2.760251998901367,2,3,3,3,-9.56,-0.87,2.27,-0.38,-0.11,0.13
2.770251989364624,2,3,3,3,-9.56,-0.89,2.17,-0.39,-0.15,0.07000000000000001
2.780251979827881,2,3,3,3,-9.52,-0.88,2.13,-0.45,-0.23,0.04
2.790251970291138,2,3,3,3,-9.51,-0.88,2.16,-0.52,-0.18,0.02
2.800251960754395,2,3,3,3,-9.52,-0.89,2.25,-0.5,-0.04,0
2.810251951217651,2,3,3,3,-9.49,-0.91,2.23,-0.51,-0.01,0
2.820251941680908,2,3,3,3,-9.48,-0.97,2.09,-0.51,-0.04,-0.03
2.830251932144165,2,3,3,3,-9.56,-0.95,2.15,-0.34,-0.13,0.01
2.840252161026001,2,3,3,3,-9.48,-0.9399999999999999,2.1,-0.4,-0.29,0
2.850252151489258,2,3,3,3,-9.48,-0.9399999999999999,2.14,-0.41,-0.2,0.04
2.860252141952515,2,3,3,3,-9.52,-0.95,2.19,-0.27,-0.15,0.06
2.870252132415771,2,3,3,3,-9.51,-1,2.08,-0.3,-0.17,0.06
2.880252122879028,2,3,3,3,-9.539999999999999,-0.99,2.18,-0.28,-0.15,0.05
2.890252113342285,2,3,3,3,-9.56,-0.98,2.24,-0.11,-0.12,-0.02
2.900252103805542,2,3,3,3,-9.51,-0.97,2.13,-0.16,-0.19,-0.06
2.910252094268799,2,3,3,3,-9.5,-0.9399999999999999,2.15,-0.21,-0.19,-0.08
2.920252084732056,2,3,3,3,-9.49,-0.92,2.13,-0.08,-0.1,-0.05
2.930252075195312,2,3,3,3,-9.5,-0.89,2.07,-0.22,-0.11,-0.05
2.940252065658569,2,3,3,3,-9.49,-0.9,2.18,-0.28,-0.02,-0.04
2.950252056121826,2,3,3,3,-9.51,-0.9,2.2,-0.25,0.12,-0.04
2.960252046585083,2,3,3,3,-9.52,-0.92,2.2,-0.25,0.15,-0.06
2.97025203704834,2,3,3,3,-9.550000000000001,-0.96,2.14,-0.29,0.11,-0.08
2.980252027511597,2,3,3,3,-9.550000000000001,-0.97,2.07,-0.23,-0.03,-0.11
2.990252017974854,2,3,3,3,-9.52,-1.01,2.14,-0.35,-0.08,-0.15
3.00025200843811,2,3,3,3,-9.52,-0.98,2.22,-0.17,-0.08,-0.16
3.010251998901367,2,3,3,3,-9.49,-0.96,2.23,0.01,-0.19,-0.13
3.020251989364624,2,3,3,3,-9.42,-0.9399999999999999,2.03,0.01,-0.24,-0.13
3.030251979827881,2,3,3,3,-9.43,-0.91,2.11,0.01,-0.13,-0.17
3.040251970291138,2,3,3,3,-9.470000000000001,-0.9,2.13,-0.08,0.07000000000000001,-0.19
3.050251960754395,2,3,3,3,-9.550000000000001,-0.89,2.15,-0.12,0.12,-0.22
3.060251951217651,2,3,3,3,-9.57,-0.93,2.17,-0.11,0.04,-0.28
3.070251941680908,2,3,3,3,-9.59,-0.98,2.01,-0.17,-0.03,-0.38
3.080251932144165,2,3,3,3,-9.6,-1,1.93,-0.3,-0.08,-0.5
3.090252161026001,2,3,3,3,-9.58,-1.06,1.98,-0.36,-0.19,-0.57
3.100252151489258,2,3,3,3,-9.58,-1.06,1.98,-0.27,-0.21,-0.6
3.110252141952515,2,3,3,3,-9.58,-1.1,1.99,-0.36,-0.24,-0.59
3.120252132415771,2,3,3,3,-9.67,-1.11,1.88,-0.28,-0.25,-0.64
3.130252122879028,2,3,3,3,-9.49,-0.89,2.06,0,-0.09,-0.82
3.140252113342285,2,3,3,3,-9.44,-0.9,2.05,-0.05,0.04,-0.98
3.150252103805542,2,3,3,3,-9.44,-0.9,2.05,-0.02,0.02,-1.04
3.160252094268799,2,3,3,3,-9.449999999999999,-0.97,2.1,0.45,-0.12,-1.05
3.170252084732056,2,3,3,3,-9.800000000000001,-1.32,2.04,1.02,-0.62,-0.88
3.181252002716064,2,3,3,3,-9.56,-1.1,1.94,0.61,-0.82,-0.6899999999999999
3.191251993179321,2,3,3,3,-9.359999999999999,-1.15,2.07,0.45,-0.86,-0.95
3.201251983642578,2,3,3,3,-9.42,-1.11,2.07,0.5600000000000001,-1.08,-1.24
3.211251974105835,2,3,3,3,-9.66,-1.44,1.81,0.59,-1,-1.65
3.221251964569092,2,3,3,3,-9.58,-1.6,1.71,0.88,-1.08,-2.07
3.231251955032349,2,3,3,3,-9.630000000000001,-1.56,1.69,1.05,-0.89,-2.42
3.241251945495605,2,3,3,3,-9.65,-1.11,1.85,1.42,-0.6899999999999999,-2.61
3.251251935958862,2,3,3,3,-8.869999999999999,-1.14,2.15,1.32,-0.27,-2.81
3.261252164840698,2,3,3,3,-8.369999999999999,-1.51,2.15,0.97,0.74,-3.3
3.271252155303955,2,3,3,3,-8.369999999999999,-1.91,1.85,0.8,1.72,-3.51
3.281252145767212,2,3,3,3,-9.300000000000001,-1.22,2.07,0.7,2.14,-3.15
3.291252136230469,2,3,3,3,-9.59,-1.87,2.11,-0.23,3.13,-2.19
3.301252126693726,2,3,3,3,-9.75,-2.27,2.08,-0.35,3.58,-1.27
3.311252117156982,2,3,3,3,-9.66,-2.25,1.54,-0.24,1.97,-1.31
3.321252107620239,2,3,3,3,-8.970000000000001,-2.29,0.68,-0.84,-1.63,-2.06
3.331252098083496,2,3,3,3,-8.56,-2.17,0.62,-0.76,-3.13,-2.03
3.341252088546753,2,3,3,3,-8.1,-1.91,0.76,0.39,-1.35,-0.89
3.35125207901001,2,3,3,3,-7.38,-1.61,1,0.93,-0.12,-0.82
3.361252069473267,2,3,3,3,-5.87,-0.89,1.9,1.47,-0.44,-2.72
3.371252059936523,2,3,3,3,-6.32,-1.05,1.55,1.34,-0.5,-4.84
3.38125205039978,2,3,3,3,-7.84,-0.91,1.27,1.38,-0.29,-4.72
3.391252040863037,2,3,3,3,-9.08,-2.08,1.08,0.78,-1.82,-4.53
3.401252031326294,2,3,3,3,-9.08,-2.08,1.08,0.78,-1.82,-4.53
3.411252021789551,2,3,3,3,-8.84,-1.11,1.49,1.9,-4.32,-5.72
3.421252012252808,2,3,3,3,-3.57,-1.76,2.39,-1.9,-0.5,-4.25
3.431252002716064,2,3,3,3,-2.49,-0.99,1.66,-0.91,7.68,-4.55
3.441251993179321,2,3,3,3,-6.25,-0.25,0.75,-0.66,7.75,-4.83
3.451251983642578,2,3,3,3,-6.25,-0.25,0.75,-0.66,7.75,-4.83
3.461251974105835,2,3,3,3,-7.8,-0.43,0.62,-3.45,-1.96,-4.4
3.471251964569092,2,3,3,3,-7.23,-1.15,2.66,-1.64,-6.29,-1.75
3.481251955032349,2,3,3,3,-6.85,-1.2,2.66,-0.47,-3.91,-1.59
3.491251945495605,2,3,3,3,-6.83,-1.23,2.56,-0.9,-1.69,-1.82
3.501251935958862,2,3,3,3,-6.83,-1.23,2.56,-0.9,-1.69,-1.82
3.511252164840698,2,3,3,3,-7.38,-1.17,2.62,-1.91,1.05,-2.07
3.521252155303955,2,3,3,3,-8.69,-1.03,1.99,-4.94,1.93,-3.1
3.531252145767212,2,3,3,3,-8.390000000000001,-1.07,2.12,-6.04,0.21,-3.48
3.541252136230469,2,3,3,3,-8.51,-1.14,2.42,-5.77,-0.62,-3.31
3.551252126693726,2,3,3,3,-8.51,-1.14,2.42,-5.77,-0.62,-3.31
3.561252117156982,2,3,3,3,-9.31,-1.84,2.56,-4.75,-1.79,-2.71
3.571252107620239,2,3,3,3,-9.91,-2.36,2.49,-2.35,-3.67,-2.1
3.581252098083496,2,3,3,3,-10.21,-2.26,2.41,-1.28,-3.61,-2.24
3.591252088546753,2,3,3,3,-10.01,-1.35,2.43,-0.63,-3.37,-2.59
3.60125207901001,2,3,3,3,-10.01,-1.35,2.43,-0.63,-3.37,-2.59
3.611252069473267,2,3,3,3,-9.52,-1.07,2.73,-0.84,-3.48,-2.73
3.621252059936523,2,3,3,3,-8.83,-0.88,3.34,-1.4,-4.03,-1.02
3.63125205039978,2,3,3,3,-9.609999999999999,-1.58,3.93,-1.82,-4.21,0.43
3.641252040863037,2,3,3,3,-10.53,-1.9,4.06,-1.86,-3.87,1.43
3.651252031326294,2,3,3,3,-10.53,-1.9,4.06,-1.86,-3.87,1.43
3.661252021789551,2,3,3,3,-11.49,-2.12,4.13,-1.76,-3.06,1.82
3.671252012252808,2,3,3,3,-12.66,-2.12,3.65,-1.45,-2.5,1.26
3.681252002716064,2,3,3,3,-12.34,-2.05,3.74,-0.96,-2.26,0.8100000000000001
3.691251993179321,2,3,3,3,-12.08,-2.09,3.72,-0.44,-1.96,0.86
3.701251983642578,2,3,3,3,-12.08,-2.09,3.72,-0.44,-1.96,0.86
3.711251974105835,2,3,3,3,-11.74,-2.57,3.52,-0.09,-1.86,0.99
3.721251964569092,2,3,3,3,-12.03,-2.39,3.5,1.26,-0.7,1.39
3.731251955032349,2,3,3,3,-12.03,-2.39,3.5,1.85,-0.46,1.64
3.741251945495605,2,3,3,3,-12.17,-2.14,3.77,1.98,-0.22,1.85
3.751251935958862,2,3,3,3,-12.12,-1.58,4.43,1.98,-0.22,1.85
3.761252164840698,2,3,3,3,-11.87,-1.4,4.41,1.33,-0.05,1.73
3.771252155303955,2,3,3,3,-11.78,-1.62,4.25,-0.84,0.11,1.3
3.781252145767212,2,3,3,3,-11.94,-1.82,3.98,-1.43,-0.63,1.32
3.791252136230469,2,3,3,3,-12.07,-2.32,3.9,-1.76,-1.01,1.27
3.801252126693726,2,3,3,3,-12.27,-2.52,4.01,-1.76,-1.01,1.27
3.811252117156982,2,3,3,3,-12.49,-2.54,4.13,-1.75,-1.03,0.88
3.821252107620239,2,3,3,3,-13.25,-2.28,4.78,-1.77,0.88,0.38
3.831252098083496,2,3,3,3,-13.73,-2.39,5.22,-2.73,0.78,0.29
3.841252088546753,2,3,3,3,-14.07,-2.5,5.16,-4.35,0.71,0.29
3.85125207901001,2,3,3,3,-14.47,-2.99,4.76,-4.35,0.71,0.29
3.861252069473267,2,3,3,3,-16.52,-4.27,4.55,-4.55,1.38,0.25
3.871252059936523,2,3,3,3,-17.75,-4.7,4.18,-2.06,0.6899999999999999,-1.32
3.88125205039978,2,3,3,3,-18.92,-4.81,4.21,0.58,0.84,-2.13
3.891252040863037,2,3,3,3,-19.89,-4.16,4.3,2.77,1.61,-2.31
3.901252031326294,2,3,3,3,-20.13,-2.3,5.46,2.77,1.61,-2.31
3.911252021789551,2,3,3,3,-19.94,-1.56,5.95,3.73,1.89,-1.31
3.921252012252808,2,3,3,3,-19.62,-0.98,6.27,3.3,1.6,2.2
3.931252002716064,2,3,3,3,-19.37,-0.63,6.33,4.05,3.89,3.92
3.941251993179321,2,3,3,3,-20.35,-0.68,6.64,5.14,5.85,5.2
3.951251983642578,2,3,3,3,-21.31,-0.79,6.32,5.14,5.85,5.2
3.961251974105835,2,3,3,3,-21.98,-0.61,5.91,5.85,6.16,6.01
3.971251964569092,2,3,3,3,-22.12,-0.31,5.88,6.64,7.12,7.93
3.981251955032349,2,3,3,3,-21.16,-0.3,5.64,5.83,7.81,8.699999999999999
3.991251945495605,2,3,3,3,-20.62,-0.16,5.47,4.43,7.78,8.970000000000001
4.001251935958862,2,3,3,3,-19.86,-0.31,5.35,4.43,7.78,8.970000000000001
4.011252164840698,2,3,3,3,-17.58,-3.23,4.66,2.83,7.01,8.01
4.021252155303955,2,3,3,3,-16.14,-5.29,3.85,1.97,4.58,2.37
4.031252145767212,2,3,3,3,-14,-6.31,3.08,2.22,1.52,-0.48
4.041252136230469,2,3,3,3,-11.21,-6.91,1.65,1.65,-0.14,-3.24
4.051252126693726,2,3,3,3,-4.05,-5.08,-1.68,1.65,-0.14,-3.24
4.061252117156982,2,3,3,3,-0.86,-3.7,-2.36,-0.18,1.47,-5.45
4.071252107620239,2,3,3,3,1.92,-4.49,-2.09,-13.63,2.65,-8.880000000000001
4.081252098083496,2,3,3,3,3.76,-6.02,-1.95,-23.89,-1.72,-11.71
4.091252088546753,2,3,3,3,4.39,-10.92,-6.62,-27.6,-1.75,-11.46
4.10125207901001,2,3,3,3,4.23,-11.23,-7.8,-27.6,-1.75,-11.46
4.111252069473267,2,3,3,3,4.35,-10.76,-6.56,-18.07,4.89,-9.49
4.121252059936523,2,3,3,3,4.66,-10.19,-3.84,7.84,3.26,-7.44
4.13125205039978,2,3,3,3,4.37,-7.02,-0.18,13.08,-1.44,-1.19
4.141252040863037,2,3,3,3,3.94,-4.51,0.74,15.9,-3.9,5.58
4.151252031326294,2,3,3,3,3.61,-1.35,1.18,15.9,-3.9,5.58
4.161252021789551,2,3,3,3,3.63,1.41,1.25,16.93,-5.6,9.4
4.171252012252808,2,3,3,3,3.26,4.18,1.26,18.89,-2.16,10.74
4.181252002716064,2,3,3,3,2.85,4.64,1.31,15.51,0.04,10.08
4.191251993179321,2,3,3,3,1.78,4.63,1.24,9.720000000000001,0.78,9.59
4.201251983642578,2,3,3,3,-1.58,4.45,1.55,9.720000000000001,0.78,9.59
4.212252140045166,2,3,3,3,-3.17,4.03,1.61,3.93,-0.46,9.210000000000001
4.222252130508423,2,3,3,3,-4.08,3.68,1.33,-6.21,-1.31,6.76
4.23225212097168,2,3,3,3,-4.52,2.77,0.99,-9.949999999999999,-0.76,4.58
4.242252111434937,2,3,3,3,-5.24,1.64,0.88,-12.69,-1.79,2.27
4.252252101898193,2,3,3,3,-5.12,0.97,0.66,-12.69,-1.79,2.27
4.26225209236145,2,3,3,3,-4.49,0.65,0.2,-14.73,-3.95,0.11
4.272252082824707,2,3,3,3,-3.61,0.11,-0.57,-14.28,-4.16,-3.48
4.282252073287964,2,3,3,3,-1.72,-1.1,-1.7,-11.11,-2.03,-4.89
4.292252063751221,2,3,3,3,-0.92,-1.56,-1.79,-7,0.38,-6.32
4.302252054214478,2,3,3,3,-0.3,-1.79,-1.74,-7,0.38,-6.32
4.312252044677734,2,3,3,3,0.09,-1.93,-1.63,-3.44,1.76,-7.92
4.322252035140991,2,3,3,3,0.78,-1.72,-1.32,2.02,-0.38,-10.74
4.332252025604248,2,3,3,3,1.52,-1.44,-1.23,3.94,-1.24,-11.05
4.342252016067505,2,3,3,3,2.19,-1.19,-1.38,6.05,-0.11,-10.35
4.352252006530762,2,3,3,3,2.59,-0.91,-1.51,6.05,-0.11,-10.35
4.362251996994019,2,3,3,3,2.68,-0.03,-0.66,9.109999999999999,1.84,-8.73
4.372251987457275,2,3,3,3,2.36,0.36,-0.22,11.46,2.37,-3.93
4.382251977920532,2,3,3,3,1.94,0.65,-0.05,10.58,0.4,-1.43
4.392251968383789,2,3,3,3,0.63,1.4,0.68,9.27,-2.15,0.77
4.402251958847046,2,3,3,3,0.21,1.57,0.75,9.27,-2.15,0.77
4.412251949310303,2,3,3,3,0.2,1.58,1.02,7.84,-4.2,2.41
4.42225193977356,2,3,3,3,0.51,1.17,2.17,5.8,-2.07,4.94
4.432251930236816,2,3,3,3,-0.26,-0.45,1.77,2.18,-1.68,6.59
4.442252159118652,2,3,3,3,-0.87,-1.62,1.91,-0.17,-2.07,8.52
4.452252149581909,2,3,3,3,-1.74,-3.26,4.01,-0.17,-2.07,8.52
4.462252140045166,2,3,3,3,-2.95,-5.43,5.26,-1.3,-1.74,11.07
4.472252130508423,2,3,3,3,-4.73,-10.94,0.44,-8.960000000000001,10.9,19.1
4.48225212097168,2,3,3,3,-11.34,-6.91,1.67,-8.9,35.55,25.12
4.492252111434937,2,3,3,3,-29.53,-7.07,6.69,3.42,4.26,29.79
4.502252101898193,2,3,3,3,-39.11,-5.76,20.76,3.42,4.26,29.79
4.51225209236145,2,3,3,3,-39.1,-14.78,-13.98,13.39,-7.06,14.97
4.522252082824707,2,3,3,3,-29.75,22.36,-4.43,14.23,-39.87,-26.43
4.532252073287964,2,3,3,3,-10.98,26.51,8.56,-8.75,-15.51,-3.11
4.542252063751221,2,3,3,3,-9.380000000000001,-0.99,16.79,-4.13,-10.29,16.53
4.552252054214478,2,3,3,3,-7.54,-4.98,10.25,-4.13,-10.29,16.53
4.562252044677734,2,3,3,3,-8.880000000000001,-6.93,7.91,-4.25,-11.8,22.6
4.572252035140991,2,3,3,3,-13.22,-4.56,8.26,7.52,3.28,13.87
4.582252025604248,2,3,3,3,-21.7,3.68,6.66,1.9,10.41,9.09
4.592252016067505,2,3,3,3,-25.57,8.84,4.04,-0.02,19.6,4.41
4.602252006530762,2,3,3,3,-27.72,9.550000000000001,-0.11,-0.02,19.6,4.41
4.612251996994019,2,3,3,3,-27.81,6.97,-0.23,6.2,18.64,-3.29
4.622251987457275,2,3,3,3,-18.7,0.52,3.48,-1.61,-14.17,-14.76
4.632251977920532,2,3,3,3,-12.65,-0.01,4.45,-3.79,-14.73,-13.94
4.642251968383789,2,3,3,3,-8.699999999999999,0.09,5.63,-1.91,-6.6,-10.54
4.652251958847046,2,3,3,3,-7.28,-0.44,6.44,-1.91,-6.6,-10.54
4.662251949310303,2,3,3,3,-10.06,-1.47,6.45,-0.95,1.57,-6.63
4.67225193977356,2,3,3,3,-11.74,-1.84,5.49,-3.99,-0.66,-1.78
4.682251930236816,2,3,3,3,-12.03,-1.78,4,-3.92,-3.25,0.28
4.692252159118652,2,3,3,3,-11.39,-1.55,2.68,-3.92,-3.25,0.28
4.702252149581909,2,3,3,3,-8.5,-0.44,1.49,-2.55,-1.7,2.31
4.712252140045166,2,3,3,3,-7.74,-0.19,1.72,-1.27,2.4,3.8
4.722252130508423,2,3,3,3,-7.69,-0.07000000000000001,2.26,-0.58,5.23,4.33
4.73225212097168,2,3,3,3,-8.1,-0.03,2.65,-0.15,4.31,3.71
4.742252111434937,2,3,3,3,-7.86,-0.12,2.75,-0.45,0.54,2.04
4.752252101898193,2,3,3,3,-7.19,-0.3,2.72,-1.2,-3.3,0.04
4.76225209236145,2,3,3,3,-6.24,-0.48,2.45,-1.88,-5.29,-1.6
4.772252082824707,2,3,3,3,-4.22,-1.34,1.66,-2.46,-5.04,-2.58
4.782252073287964,2,3,3,3,-3.41,-1.61,1.49,-2.59,-2.72,-3.56
4.792252063751221,2,3,3,3,-2.97,-1.78,1.7,-2.17,0.25,-4.36
4.802252054214478,2,3,3,3,-3.09,-1.99,2.03,-1.61,2.51,-4.41
4.812252044677734,2,3,3,3,-3.62,-2.24,2.45,-1.23,3.52,-3.58
4.822252035140991,2,3,3,3,-3.83,-2.4,2.24,-1.14,3.61,-2.03
4.832252025604248,2,3,3,3,-4.27,-2.46,1.93,-0.87,3.68,-0.66
4.842252016067505,2,3,3,3,-4.94,-2.44,1.78,-0.21,3.7,0.47
4.852252006530762,2,3,3,3,-6.67,-2.12,1.87,0.6899999999999999,3.14,1.44
4.862251996994019,2,3,3,3,-7.24,-1.67,1.88,1.69,2.19,2.53
4.872251987457275,2,3,3,3,-7.74,-1.35,2.01,2.6,1.32,3.68
4.882251977920532,2,3,3,3,-8.23,-1.13,2.14,3.12,0.8,4.43
4.892251968383789,2,3,3,3,-9.550000000000001,-1,2.84,3.16,0.05,4.82
4.902251958847046,2,3,3,3,-10.2,-1.15,2.98,2.59,-1.42,4.76
4.912251949310303,2,3,3,3,-10.72,-1.2,2.84,1.72,-2.47,4.22
4.92225193977356,2,3,3,3,-11.53,-0.8100000000000001,2.04,1.1,-1.81,3.46
4.932251930236816,2,3,3,3,-11.66,-0.32,1.97,0.83,-0.09,2.44
4.942252159118652,2,3,3,3,-11.33,-0.05,2.31,0.6899999999999999,0.18,1.41
4.952252149581909,2,3,3,3,-10.85,-0.01,2.66,0.43,-0.9,0.62
4.962252140045166,2,3,3,3,-9.960000000000001,0.21,3.19,0.27,-1.53,0.15
4.972252130508423,2,3,3,3,-9.720000000000001,0.23,3.35,0.21,-1.41,0.04
4.98225212097168,2,3,3,3,-9.49,0.16,3.39,-0.16,-0.96,0.25
5.002252101898193,2,3,3,3,-8.94,-0.35,3.24,-1.5,-0.2,1.05
5.01225209236145,2,3,3,3,-8.789999999999999,-0.29,2.86,-2.16,0.44,1.39
5.022252082824707,2,3,3,3,-8.789999999999999,-0.21,2.69,-2.46,1.49,1.56
5.032252073287964,2,3,3,3,-8.91,-0.09,2.57,-2.08,2.05,1.53
5.042252063751221,2,3,3,3,-9.08,-0.09,2.49,-1.51,1.6,1.36
5.052252054214478,2,3,3,3,-9.1,-0.24,2.22,-1.43,0.93,1.1
5.062252044677734,2,3,3,3,-9.199999999999999,-0.47,2.08,-1.68,0.61,0.65
5.072252035140991,2,3,3,3,-9.33,-0.67,2.13,-1.71,0.55,0.15
5.082252025604248,2,3,3,3,-9.619999999999999,-1.02,2.09,-1.56,0.26,-0.33
5.092252016067505,2,3,3,3,-9.539999999999999,-1.1,2.11,-1.57,-0.3,-0.7
5.102252006530762,2,3,3,3,-9.27,-1.14,2.08,-1.61,-0.9,-0.9
5.112251996994019,2,3,3,3,-8.869999999999999,-1.17,2.44,-1.23,-0.99,-0.87
5.122251987457275,2,3,3,3,-8.74,-1.14,2.61,-0.45,-0.79,-0.7
5.132251977920532,2,3,3,3,-8.609999999999999,-1.14,2.57,0.11,-0.67,-0.37
5.142251968383789,2,3,3,3,-8.630000000000001,-1.1,2.59,0.39,-0.41,0.08
5.152251958847046,2,3,3,3,-8.779999999999999,-0.9,2.21,0.54,0.01,0.5600000000000001
5.162251949310303,2,3,3,3,-8.869999999999999,-0.85,2.08,0.15,0.36,0.89
5.17225193977356,2,3,3,3,-9.17,-0.7,2.23,0.34,0.95,1.06
5.182251930236816,2,3,3,3,-9.57,-0.51,2.29,1.01,1.01,1.18
5.192252159118652,2,3,3,3,-9.94,-0.38,2.39,1.16,0.24,1.14
5.202252149581909,2,3,3,3,-9.99,-0.34,2.36,0.93,-0.54,0.93
5.212252140045166,2,3,3,3,-10.04,-0.29,2.34,0.59,-0.96,0.7
5.222252130508423,2,3,3,3,-9.960000000000001,-0.21,2.27,0.43,-1.01,0.38
5.233252048492432,2,3,3,3,-9.74,-0.39,2.09,0.08,-0.84,-0.01
5.243252038955688,2,3,3,3,-9.69,-0.53,2.29,-0.19,-0.57,-0.4
5.253252029418945,2,3,3,3,-9.66,-0.66,2.52,-0.36,-0.52,-0.7
5.263252019882202,2,3,3,3,-9.550000000000001,-0.8100000000000001,2.39,-0.58,-0.6899999999999999,-0.9
5.273252010345459,2,3,3,3,-9.33,-0.8100000000000001,2.11,-0.96,-1.02,-0.98
5.283252000808716,2,3,3,3,-9.19,-0.83,2.02,-1.27,-0.98,-0.88
5.293251991271973,2,3,3,3,-9.18,-0.83,2.25,-0.93,-0.68,-0.72
5.303251981735229,2,3,3,3,-9.15,-0.85,2.48,-0.44,-0.64,-0.49
5.313251972198486,2,3,3,3,-9.23,-0.78,2.51,0.07000000000000001,-0.63,-0.26
5.323251962661743,2,3,3,3,-9.210000000000001,-0.71,2.45,0.5600000000000001,-0.68,-0.09
5.333251953125,2,3,3,3,-9.220000000000001,-0.71,2.45,0.9399999999999999,-0.57,0.06
5.343251943588257,2,3,3,3,-9.279999999999999,-0.6,2.63,1.23,-0.48,0.05
5.353251934051514,2,3,3,3,-9.31,-0.54,2.61,1.01,-0.47,0.01
5.36325216293335,2,3,3,3,-9.369999999999999,-0.48,2.54,0.75,-0.21,-0.06
5.373252153396606,2,3,3,3,-9.48,-0.43,2.48,0.44,0.14,-0.15
5.383252143859863,2,3,3,3,-9.65,-0.42,2.38,0.22,0.58,-0.31
5.39325213432312,2,3,3,3,-9.66,-0.44,2.35,0.09,0.77,-0.46
5.403252124786377,2,3,3,3,-9.619999999999999,-0.49,2.34,-0.17,0.93,-0.58
5.413252115249634,2,3,3,3,-9.6,-0.5600000000000001,2.33,-0.3,1.06,-0.68
5.423252105712891,2,3,3,3,-9.449999999999999,-0.64,2.28,-0.32,1.07,-0.85
5.433252096176147,2,3,3,3,-9.380000000000001,-0.75,2.22,-0.38,0.97,-0.98
5.443252086639404,2,3,3,3,-9.380000000000001,-0.86,2.36,-0.36,0.93,-0.99
5.453252077102661,2,3,3,3,-9.32,-0.9,2.49,-0.14,0.78,-0.88
5.463252067565918,2,3,3,3,-9.27,-0.91,2.42,-0.09,0.64,-0.6899999999999999
5.473252058029175,2,3,3,3,-9.300000000000001,-0.89,2.38,-0.14,0.77,-0.51
5.483252048492432,2,3,3,3,-9.33,-0.84,2.27,-0.09,0.92,-0.35
5.493252038955688,2,3,3,3,-9.359999999999999,-0.73,2.39,0.03,0.97,-0.24
5.503252029418945,2,3,3,3,-9.390000000000001,-0.71,2.44,0.08,0.9399999999999999,-0.17
5.513252019882202,2,3,3,3,-9.380000000000001,-0.68,2.42,0.1,0.87,-0.15
5.523252010345459,2,3,3,3,-9.449999999999999,-0.65,2.46,0.16,0.87,-0.17
5.533252000808716,2,3,3,3,-9.539999999999999,-0.75,2.46,0.21,0.79,-0.21
5.543251991271973,2,3,3,3,-9.57,-0.75,2.53,0.18,0.68,-0.2
5.553251981735229,2,3,3,3,-9.58,-0.78,2.59,0.05,0.57,-0.15
5.563251972198486,2,3,3,3,-9.57,-0.76,2.55,-0.22,0.55,-0.13
5.573251962661743,2,3,3,3,-9.550000000000001,-0.74,2.41,-0.46,0.6,-0.15
5.583251953125,2,3,3,3,-9.529999999999999,-0.75,2.38,-0.47,0.71,-0.24
5.593251943588257,2,3,3,3,-9.51,-0.79,2.42,-0.38,0.83,-0.29
5.603251934051514,2,3,3,3,-9.5,-0.84,2.45,-0.42,0.83,-0.4
5.61325216293335,2,3,3,3,-9.460000000000001,-0.9,2.42,-0.44,0.8,-0.48
5.623252153396606,2,3,3,3,-9.44,-0.92,2.38,-0.42,0.66,-0.61
5.633252143859863,2,3,3,3,-9.41,-0.89,2.3,-0.19,0.5600000000000001,-0.6899999999999999
5.64325213432312,2,3,3,3,-9.41,-0.96,2.41,0.04,0.44,-0.76
5.653252124786377,2,3,3,3,-9.4,-1.01,2.45,0.14,0.4,-0.72
5.663252115249634,2,3,3,3,-9.43,-1,2.48,0.16,0.38,-0.62
5.673252105712891,2,3,3,3,-9.5,-0.99,2.42,0.09,0.4,-0.51
5.683252096176147,2,3,3,3,-9.5,-0.9,2.25,0.05,0.45,-0.42
5.693252086639404,2,3,3,3,-9.48,-0.85,2.35,0.1,0.45,-0.41
5.703252077102661,2,3,3,3,-9.5,-0.82,2.41,0.27,0.41,-0.39
5.713252067565918,2,3,3,3,-9.470000000000001,-0.8100000000000001,2.44,0.36,0.36,-0.39
5.723252058029175,2,3,3,3,-9.48,-0.76,2.36,0.28,0.38,-0.41
5.733252048492432,2,3,3,3,-9.48,-0.79,2.28,0.16,0.43,-0.48
5.753252029418945,2,3,3,3,-9.48,-0.8100000000000001,2.28,-0.16,0.58,-0.66
5.763252019882202,2,3,3,3,-9.539999999999999,-0.89,2.28,-0.31,0.63,-0.77
5.773252010345459,2,3,3,3,-9.539999999999999,-0.92,2.27,-0.36,0.65,-0.83
5.783252000808716,2,3,3,3,-9.550000000000001,-0.98,2.15,-0.38,0.61,-0.87
5.793251991271973,2,3,3,3,-9.539999999999999,-1.03,2.19,-0.36,0.43,-0.85
5.803251981735229,2,3,3,3,-9.449999999999999,-1.09,2.26,-0.33,0.27,-0.87
5.813251972198486,2,3,3,3,-9.44,-1.09,2.26,-0.25,0.17,-0.86
5.823251962661743,2,3,3,3,-9.43,-1.03,2.25,-0.19,0.15,-0.86
5.833251953125,2,3,3,3,-9.52,-0.9399999999999999,2.22,-0.09,0.26,-0.87
5.843251943588257,2,3,3,3,-9.51,-0.87,2.26,-0.12,0.21,-0.9
5.853251934051514,2,3,3,3,-9.43,-0.84,2.27,-0.19,0.11,-0.97
5.86325216293335,2,3,3,3,-9.359999999999999,-0.86,2.26,-0.18,0.12,-0.99
5.873252153396606,2,3,3,3,-9.300000000000001,-0.97,2.29,-0.07000000000000001,0.22,-1.01
5.883252143859863,2,3,3,3,-9.34,-1.03,2.16,0.02,0.33,-1.04
5.89325213432312,2,3,3,3,-9.390000000000001,-1.1,2.17,-0.01,0.46,-1.04
5.903252124786377,2,3,3,3,-9.380000000000001,-1.13,2.19,-0.04,0.53,-1
5.913252115249634,2,3,3,3,-9.380000000000001,-1.15,2.19,-0.1,0.55,-0.99
5.923252105712891,2,3,3,3,-9.369999999999999,-1.15,2.12,-0.1,0.61,-1.03
5.933252096176147,2,3,3,3,-9.35,-1.19,1.99,-0.16,0.61,-1.14
5.943252086639404,2,3,3,3,-9.359999999999999,-1.24,2.04,-0.18,0.64,-1.3
5.953252077102661,2,3,3,3,-9.369999999999999,-1.36,2.13,-0.14,0.62,-1.4
5.963252067565918,2,3,3,3,-9.34,-1.42,2.08,-0.12,0.53,-1.5
5.973252058029175,2,3,3,3,-9.27,-1.49,1.99,-0.13,0.45,-1.65
5.983252048492432,2,3,3,3,-9.210000000000001,-1.55,1.85,-0.08,0.47,-1.79
5.993252038955688,2,3,3,3,-9.01,-1.5,1.94,-0.01,0.62,-1.91
6.003252029418945,2,3,3,3,-8.93,-1.46,1.96,-0.05,0.76,-1.97
6.013252019882202,2,3,3,3,-8.82,-1.46,1.95,-0.2,0.6899999999999999,-2.07
6.023252010345459,2,3,3,3,-8.699999999999999,-1.58,2,-0.41,0.55,-2.17
6.033252000808716,2,3,3,3,-8.710000000000001,-1.73,1.88,-0.64,0.31,-2.18
6.053251981735229,2,3,3,3,-8.76,-2.06,1.71,-1.18,0.03,-2.27
6.063251972198486,2,3,3,3,-8.67,-2.05,1.57,-1.15,-0.02,-2.67
6.073251962661743,2,3,3,3,-8.59,-1.91,1.48,-1.12,0.05,-3.23
6.083251953125,2,3,3,3,-8.5,-1.8,1.43,-1.21,0.12,-3.81
6.093251943588257,2,3,3,3,-8.33,-1.73,1.49,-1.27,-0.15,-4.36
6.103251934051514,2,3,3,3,-7.8,-1.82,1.62,-1.42,-0.67,-4.96
6.11325216293335,2,3,3,3,-7.54,-1.86,1.64,-1.73,-1.01,-5.56
6.123252153396606,2,3,3,3,-7.28,-1.93,1.49,-1.89,-1.12,-6.02
6.133252143859863,2,3,3,3,-7,-1.93,1.14,-1.97,-1.08,-6.14
6.14325213432312,2,3,3,3,-6.47,-1.92,1.12,-2.06,-0.89,-6.23
6.153252124786377,2,3,3,3,-6.3,-1.94,1.24,-1.95,-0.68,-6.34
6.163252115249634,2,3,3,3,-6.11,-1.85,1.25,-1.99,-0.52,-6.57
6.173252105712891,2,3,3,3,-6.08,-1.8,1.33,-2.12,-0.24,-6.63
6.183252096176147,2,3,3,3,-6.52,-1.67,1.82,-1.77,0.03,-6.49
6.193252086639404,2,3,3,3,-6.96,-1.7,2.02,-1.42,-0.01,-5.93
6.203252077102661,2,3,3,3,-7.32,-1.71,1.99,-1.36,-0.46,-5.12
6.213252067565918,2,3,3,3,-7.93,-1.56,2.16,-1.77,-0.76,-4.64
6.223252058029175,2,3,3,3,-8.34,-1.51,2.28,-2.03,-0.71,-4.57
6.233252048492432,2,3,3,3,-8.710000000000001,-1.54,2.16,-1.94,-0.65,-4.7
6.243252038955688,2,3,3,3,-9.01,-1.52,1.94,-2.04,-0.72,-4.85
6.254251956939697,2,3,3,3,-8.789999999999999,-1.29,2.08,-2.34,-0.63,-5.27
6.264251947402954,2,3,3,3,-8.949999999999999,-1.37,2.28,-2.75,-0.02,-5.56
6.274251937866211,2,3,3,3,-9.01,-1.4,2.3,-2.99,-0.04,-5.66
6.284251928329468,2,3,3,3,-8.970000000000001,-1.52,2.32,-3.22,-0.66,-5.62
6.294252157211304,2,3,3,3,-9,-1.74,2.6,-3.38,-0.98,-5.41
6.304252147674561,2,3,3,3,-8.970000000000001,-1.87,2.56,-3.19,-1.38,-5.17
6.314252138137817,2,3,3,3,-9.02,-2.03,2.68,-2.65,-1.72,-4.66
6.324252128601074,2,3,3,3,-9.140000000000001,-2.17,2.85,-2.03,-2.12,-3.63
6.334252119064331,2,3,3,3,-9.16,-2.3,2.58,-2.09,-2.83,-2.73
6.344252109527588,2,3,3,3,-9.08,-2.27,2.6,-2.39,-2.96,-2.32
6.354252099990845,2,3,3,3,-9.140000000000001,-2.2,2.83,-2.19,-2.03,-2.33
6.364252090454102,2,3,3,3,-9.25,-1.98,3.01,-1.61,-1.04,-2.48
6.374252080917358,2,3,3,3,-9.01,-1.71,3,-1.59,-0.76,-2.47
6.384252071380615,2,3,3,3,-9.06,-1.62,3.17,-1.69,-0.59,-2.44
6.394252061843872,2,3,3,3,-9.359999999999999,-1.78,3.59,-1.4,-0.79,-1.87
6.404252052307129,2,3,3,3,-9.949999999999999,-2.2,3.92,-1.52,-2.09,-0.85
6.414252042770386,2,3,3,3,-10.22,-2.28,3.82,-2.28,-3.32,0.17
6.424252033233643,2,3,3,3,-10.76,-2.43,3.75,-2.87,-3.39,1.03
6.434252023696899,2,3,3,3,-11.28,-2.58,3.72,-2.93,-2.46,1.52
6.444252014160156,2,3,3,3,-12.14,-2.61,4.14,-2.6,-1.68,1.81
6.454252004623413,2,3,3,3,-12.58,-2.61,4.1,-2.27,-1.36,1.83
6.46425199508667,2,3,3,3,-12.92,-2.76,4.05,-1.94,-1.12,1.65
6.474251985549927,2,3,3,3,-13.27,-2.79,4.02,-1.53,-1.25,1.64
6.484251976013184,2,3,3,3,-13.33,-2.49,4.08,-1.1,-2.44,2.04
6.49425196647644,2,3,3,3,-13.48,-2.7,4.8,-1.22,-3.6,2.83
6.504251956939697,2,3,3,3,-13.7,-3.02,5.45,-1.37,-4.08,3.33
6.514251947402954,2,3,3,3,-14.21,-3.4,5.36,-1.44,-3.59,3.13
6.524251937866211,2,3,3,3,-15.77,-3.72,5.14,-1.45,-1.53,2.77
6.534251928329468,2,3,3,3,-16.5,-3.56,4.55,-1.49,0.68,2.32
6.544252157211304,2,3,3,3,-17.05,-3.04,4.26,-0.98,1.42,1.79
6.554252147674561,2,3,3,3,-18.28,-2.62,4.49,-0.77,1.97,1.6
6.564252138137817,2,3,3,3,-18.62,-2.68,5.08,-0.34,1.14,1.57
6.574252128601074,2,3,3,3,-19.08,-2.81,6.11,-0.2,0.18,1.64
6.584252119064331,2,3,3,3,-19.48,-2.9,6.31,0.78,0.14,2
6.594252109527588,2,3,3,3,-20.04,-2.99,5.83,1.42,1.07,2.21
6.604252099990845,2,3,3,3,-20.56,-2.92,5.82,1.76,3.17,2.55
6.614252090454102,2,3,3,3,-20.94,-2.88,5.87,2.18,4.7,3.21
6.624252080917358,2,3,3,3,-21.03,-2.77,5.91,2.23,5.14,4.15
6.634252071380615,2,3,3,3,-21.25,-2.96,5.83,2.17,5.46,5.48
6.644252061843872,2,3,3,3,-21.74,-2.9,5.77,2.66,6.12,6.99
6.654252052307129,2,3,3,3,-22.12,-2.89,5.9,3.41,6.89,8.050000000000001
6.664252042770386,2,3,3,3,-22.41,-2.79,5.66,4.98,7.95,8.720000000000001
6.674252033233643,2,3,3,3,-21.75,-1.98,4.72,6.33,9.49,9.31
6.684252023696899,2,3,3,3,-20.71,-1.33,4.46,7.22,10.19,9.82
6.694252014160156,2,3,3,3,-18.94,-1.08,4.41,7.58,9.84,9.44
6.704252004623413,2,3,3,3,-16.7,-1.09,4.33,6.66,8.710000000000001,8.640000000000001
6.71425199508667,2,3,3,3,-11.68,-2.96,2.28,4.29,7.99,6.63
6.724251985549927,2,3,3,3,-9.77,-3.17,1.37,1.92,9.76,3.66
6.734251976013184,2,3,3,3,-8.199999999999999,-2.91,0.25,-0.25,9.789999999999999,1.05
6.74425196647644,2,3,3,3,-4.33,-2.26,-0.21,-2.43,8.93,-0.97
6.754251956939697,2,3,3,3,-2.74,-2.64,-0.57,-4.21,7.82,-2.74
6.764251947402954,2,3,3,3,-1,-4.61,-0.44,-9.94,3.21,-4.41
6.774251937866211,2,3,3,3,1.8,-8.42,-1.69,-21.37,-7,-7.82
6.784251928329468,2,3,3,3,5.13,-13.71,-14.44,-35.55,-14.3,-12.39
6.794252157211304,2,3,3,3,2.43,-12.67,-13.59,-36.36,-5.25,-12.26
6.804252147674561,2,3,3,3,1.46,-11.03,-8.23,-15.33,7.37,-9.369999999999999
6.814252138137817,2,3,3,3,3.69,-9.76,-1.96,10.61,7.25,-8.19
6.824252128601074,2,3,3,3,5.46,-5.58,1.12,21.98,-0.3,-5.51
6.834252119064331,2,3,3,3,4.6,-2.81,1.07,21.3,-4.12,1.01
6.844252109527588,2,3,3,3,3.87,-0.39,1.22,20.01,-5.7,6.73
6.854252099990845,2,3,3,3,3.61,1.83,1.38,19.78,-6.29,9.460000000000001
6.864252090454102,2,3,3,3,3.55,3.91,0.41,18.59,-5.77,11.14
6.874252080917358,2,3,3,3,2.93,3.41,0.08,16.69,-3.45,12.68
6.884252071380615,2,3,3,3,1.77,2.93,-0.15,14.22,-0.31,13.34
6.894252061843872,2,3,3,3,0.9399999999999999,2.53,-0.33,9.84,0.58,12.46
6.904252052307129,2,3,3,3,-2.39,1.88,0.5,5.85,0.59,11.29
6.914252042770386,2,3,3,3,-4.14,1.87,1.18,3.82,0.21,10.28
6.924252033233643,2,3,3,3,-4.92,1.97,0.91,1.76,-1.04,8.99
6.934252023696899,2,3,3,3,-4.67,2.13,0.05,-0.9,-0.8100000000000001,7.21
6.944252014160156,2,3,3,3,-4.51,1.74,0.52,-2.11,0.75,5.26
6.954252004623413,2,3,3,3,-3.98,1.21,0.84,-2.78,0.38,3.03
6.96425199508667,2,3,3,3,-3.04,0.65,0.67,-3.87,-1.99,0.6
6.974251985549927,2,3,3,3,-0.5,-0.23,-0.37,-5.14,-3.81,-1.38
6.984251976013184,2,3,3,3,0.31,-0.71,-0.61,-5.67,-3.1,-2.65
6.99425196647644,2,3,3,3,0.65,-1.1,-0.58,-5.44,-1.1,-4.1
7.004251956939697,2,3,3,3,0.6899999999999999,-1.48,-0.55,-4.95,0.39,-5.76
7.014251947402954,2,3,3,3,0.52,-1.87,-0.45,-4.61,0.41,-7.18
7.024251937866211,2,3,3,3,0.65,-2.12,-0.58,-4.24,-0.92,-8.1
7.034251928329468,2,3,3,3,1.03,-2.11,-1,-3.62,-2.38,-8.44
7.044252157211304,2,3,3,3,1.42,-1.97,-1.34,-2.32,-2.36,-8.08
7.054252147674561,2,3,3,3,1.41,-1.45,-1.06,-0.1,-0.78,-7.05
7.064252138137817,2,3,3,3,1.44,-0.87,-0.61,2.44,-0.2,-5.56
7.074252128601074,2,3,3,3,1.59,-0.13,-0.33,4.87,-1.32,-3.67
7.084252119064331,2,3,3,3,1.68,0.29,-0.27,6.6,-3.02,-1.37
7.094252109527588,2,3,3,3,1.45,0.64,0.25,7.44,-4.06,1.02
7.104252099990845,2,3,3,3,1.2,0.5,0.77,7.51,-4.55,3.26
7.114252090454102,2,3,3,3,1.03,0.08,1.8,7.71,-5.09,5.11
7.124252080917358,2,3,3,3,0.39,-1.39,1.14,6.74,-5.63,7.26
7.134252071380615,2,3,3,3,-0.77,-2.2,2.72,4.08,-5.73,9.49
7.144252061843872,2,3,3,3,-2.07,-3.89,5.8,3.48,-6.35,11.51
7.154252052307129,2,3,3,3,-2.65,-6.62,6.03,1.91,-8.720000000000001,13.13
7.164252042770386,2,3,3,3,-5.11,-10.3,-0.27,-4.01,-8.85,15.11
7.174252033233643,2,3,3,3,-12.06,-7.18,3.62,-4.54,4.07,19.48
7.184252023696899,2,3,3,3,-28.41,-9.06,6.36,-0.22,25.3,23.56
7.194252014160156,2,3,3,3,-39.11,-12.4,11.43,9.9,18.48,25.9
7.204252004623413,2,3,3,3,-37.43,7.15,-13.54,31.12,27.24,6.56
7.21425199508667,2,3,3,3,-16.11,29.24,2.21,45.25,-1.25,-33.73
7.224251985549927,2,3,3,3,-10.58,18.36,14.77,23.86,-52,-28.36
7.234251976013184,2,3,3,3,-15.26,8.539999999999999,19.48,-0.6,-6.48,5.07
7.24425196647644,2,3,3,3,-10.86,0.67,12.39,-5.44,-3.46,24.78
7.254251956939697,2,3,3,3,-9.76,-1.88,10.21,-9.960000000000001,-25.52,27.52
7.264251947402954,2,3,3,3,-12.69,-0.22,9.58,-11.01,-19.67,20.03
7.274251937866211,2,3,3,3,-18.73,3.96,8.539999999999999,-13.05,5.98,13.91
7.285252094268799,2,3,3,3,-31.25,3.86,-0.33,-16.22,28.15,5.77
7.295252084732056,2,3,3,3,-31.57,1.94,-3.15,-8.359999999999999,31.25,-5.38
7.305252075195312,2,3,3,3,-26.2,-0.55,-0.6899999999999999,2.5,9.02,-13.76
7.315252065658569,2,3,3,3,-12.57,-5.31,4.36,1.1,-15.56,-16.3
7.325252056121826,2,3,3,3,-9.6,-4.19,5.11,0.43,-18.06,-14.04
7.335252046585083,2,3,3,3,-9.65,-1.8,6.05,4.11,-7.36,-9.890000000000001
7.34525203704834,2,3,3,3,-11.45,0.93,7.16,7.48,2.31,-6.42
7.355252027511597,2,3,3,3,-15.88,1.91,7.06,5.86,4.58,-4.32
7.365252017974854,2,3,3,3,-16.23,1.62,5.6,2.18,2.71,-3.31
7.37525200843811,2,3,3,3,-15.67,1.26,4.08,-0.84,0.45,-2.11
7.385251998901367,2,3,3,3,-14.17,0.99,3.04,-2.63,-0.87,-0.9
7.395251989364624,2,3,3,3,-10.2,0.42,2.45,-3.71,-1.08,0.2
7.405251979827881,2,3,3,3,-9.1,0.07000000000000001,2.85,-5.03,0.7,1.06
7.415251970291138,2,3,3,3,-8.9,-0.28,3.02,-6.02,2.97,0.99
7.425251960754395,2,3,3,3,-9.09,-0.47,2.67,-6.18,2.99,-0.12
7.435251951217651,2,3,3,3,-8.84,-1.01,1.4,-5.95,0.84,-1.66
7.445251941680908,2,3,3,3,-8.300000000000001,-1.16,1.14,-5.18,-1.35,-3.44
7.455251932144165,2,3,3,3,-7.49,-1.29,0.96,-4.74,-2.1,-4.31
7.465252161026001,2,3,3,2,-6.53,-1.39,1.03,-4.17,-1.14,-4.54
7.475252151489258,2,3,3,2,-4.85,-1.6,0.99,-3.39,0.76,-4.61
7.485252141952515,2,3,3,2,-4.49,-1.62,0.92,-2.38,2.95,-4.72
7.495252132415771,2,3,3,2,-4.31,-1.5,1.06,-1.34,5.01,-4.83
7.505252122879028,2,3,3,2,-4.01,-1.85,1.19,-1.04,5.63,-4.61
7.515252113342285,2,3,3,2,-4.02,-2.17,1.24,-1.08,4.93,-4.05
7.525252103805542,2,3,3,2,-4.44,-2.27,1.31,-0.72,3.76,-3.25
7.535252094268799,2,3,3,2,-5.05,-2.3,1.21,0.08,2.97,-2.71
7.545252084732056,2,3,3,2,-5.66,-1.51,0.75,1.14,2.37,-2.2
7.555252075195312,2,3,3,2,-5.77,-1.36,0.88,1.9,2.16,-1.62
7.565252065658569,2,3,3,2,-5.87,-1.25,1.45,2.66,1.88,-1.15
7.575252056121826,2,3,3,2,-6.08,-1.25,1.92,3,0.21,-0.8
7.585252046585083,2,3,3,2,-6.2,-1.35,1.6,2.11,-1.98,-0.2
7.59525203704834,2,3,3,2,-6.77,-1.32,1.83,1.22,-2.27,0.8100000000000001
7.605252027511597,2,3,3,2,-7.66,-1.14,2.04,1.61,-1.64,1.92
7.615252017974854,2,3,3,2,-8.369999999999999,-0.97,1.77,2.31,-1.94,2.78
7.62525200843811,2,3,3,2,-9.119999999999999,-0.89,1.42,2.18,-2.2,3.24
7.635251998901367,2,3,3,2,-9.44,-0.83,1.6,2.08,-1.64,3.43
7.645251989364624,2,3,3,2,-9.869999999999999,-0.82,1.84,2.16,-1.56,3.54
7.655251979827881,2,3,3,2,-10.18,-0.77,1.92,2.37,-1.41,3.38
7.665251970291138,2,3,3,2,-10.79,-0.3,2.55,2.5,-0.33,2.95
7.675251960754395,2,3,3,2,-11.14,0.04,2.8,2.41,0.28,2.45
7.685251951217651,2,3,3,2,-11.24,0.32,2.65,1.61,-0.29,2.03
7.695251941680908,2,3,3,2,-10.72,0.7,2.78,0.38,-0.6899999999999999,1.49
7.705251932144165,2,3,3,2,-10.39,0.6899999999999999,2.83,-0.53,-0.85,0.91
7.715252161026001,2,3,3,2,-9.960000000000001,0.5600000000000001,2.74,-1.21,-0.9,0.49
7.725252151489258,2,3,3,2,-9.49,0.48,2.59,-1.95,-0.97,0.25
7.735252141952515,2,3,3,2,-8.720000000000001,0.21,2.27,-2.72,-0.9,0.02
7.745252132415771,2,3,3,2,-8.449999999999999,0,2.26,-3.12,-0.74,-0.13
7.755252122879028,2,3,3,2,-8.220000000000001,-0.2,2.27,-3.54,-0.53,-0.3
7.765252113342285,2,3,3,2,-8.19,-0.44,2.27,-3.8,-0.12,-0.48
7.775252103805542,2,3,3,2,-8.470000000000001,-0.99,2.36,-3.82,0.16,-0.54
7.785252094268799,2,3,3,2,-8.640000000000001,-1.16,2.26,-3.64,0.09,-0.53
7.795252084732056,2,3,3,2,-8.75,-1.31,2.15,-3.55,-0.09,-0.46
7.805252075195312,2,3,3,2,-8.779999999999999,-1.39,2.15,-3.28,-0.18,-0.31
7.815252065658569,2,3,3,2,-8.74,-1.51,1.95,-2.88,-0.43,-0.1
7.825252056121826,2,3,3,2,-8.74,-1.56,1.79,-2.82,-0.65,0.09
7.835252046585083,2,3,3,2,-8.83,-1.59,1.65,-2.43,-0.52,0.2
7.84525203704834,2,3,3,2,-8.98,-1.66,1.71,-1.86,-0.44,0.21
7.855252027511597,2,3,3,2,-9.31,-1.75,1.87,-1.27,-0.51,0.27
7.865252017974854,2,3,3,2,-9.51,-1.8,1.8,-0.9399999999999999,-0.47,0.31
7.87525200843811,2,3,3,2,-9.81,-1.81,1.95,-0.51,-0.28,0.46
7.885251998901367,2,3,3,2,-9.99,-1.77,2.06,-0.15,-0.45,0.55
7.895251989364624,2,3,3,2,-9.890000000000001,-1.73,2.18,-0.03,-0.73,0.63
7.905251979827881,2,3,3,2,-9.74,-1.69,2.21,0.01,-0.65,0.78
7.915251970291138,2,3,3,2,-9.57,-1.67,2.22,-0.05,-0.46,0.9
7.925251960754395,2,3,3,2,-9.460000000000001,-1.42,2.04,-0.12,-0.26,0.9399999999999999
7.935251951217651,2,3,3,2,-9.529999999999999,-1.36,1.93,-0.1,-0.02,0.78
7.945251941680908,2,3,3,2,-9.609999999999999,-1.27,2.06,0.21,0.26,0.57
7.955251932144165,2,3,3,2,-9.630000000000001,-1.26,2.23,0.83,0.28,0.42
7.965252161026001,2,3,3,2,-9.279999999999999,-1.15,2.17,1.39,0.08,0.31
7.975252151489258,2,3,3,2,-9.26,-1.04,2.24,1.62,0.08,0.28
7.985252141952515,2,3,3,2,-9.210000000000001,-0.89,2.25,2.01,0.17,0.24
7.995252132415771,2,3,3,2,-9.17,-0.73,2.27,2.22,0.12,0.24
8.005252122879028,2,3,3,2,-9.210000000000001,-0.47,2.53,2.38,0.12,0.37
8.015252113342285,2,3,3,2,-9.220000000000001,-0.39,2.63,2.3,0.14,0.52
8.025252103805542,2,3,3,2,-9.32,-0.35,2.65,1.89,0.15,0.66
8.035252094268799,2,3,3,2,-9.470000000000001,-0.3,2.56,1.4,0.21,0.76
8.045252084732056,2,3,3,2,-9.699999999999999,-0.24,2.44,0.84,0.19,0.72
8.055252075195312,2,3,3,2,-9.800000000000001,-0.22,2.5,0.52,0.12,0.5600000000000001
8.065252065658569,2,3,3,2,-9.81,-0.26,2.61,0.42,-0.11,0.42
8.075252056121826,2,3,3,2,-9.640000000000001,-0.51,2.43,0.21,-0.37,0.25
8.085252046585083,2,3,3,2,-9.59,-0.61,2.4,-0.14,-0.4,0.08
8.09525203704834,2,3,3,2,-9.640000000000001,-0.63,2.44,-0.32,-0.25,-0.06
8.105252027511597,2,3,3,2,-9.640000000000001,-0.68,2.49,-0.58,-0.22,-0.18
8.115252017974854,2,3,3,2,-9.5,-0.82,2.42,-0.85,-0.23,-0.27
8.12525200843811,2,3,3,2,-9.44,-0.91,2.38,-0.76,-0.17,-0.28
8.135251998901367,2,3,3,2,-9.35,-1.05,2.29,-0.71,-0.2,-0.29
8.145251989364624,2,3,3,2,-9.33,-1.16,2.33,-0.61,-0.26,-0.29
8.155251979827881,2,3,3,2,-9.369999999999999,-1.31,2.31,-0.51,-0.34,-0.27
8.165251970291138,2,3,3,2,-9.380000000000001,-1.36,2.26,-0.42,-0.38,-0.24
8.175251960754395,2,3,3,2,-9.42,-1.35,2.25,-0.3,-0.37,-0.19
8.185251951217651,2,3,3,2,-9.42,-1.33,2.17,-0.07000000000000001,-0.3,-0.15
8.195251941680908,2,3,3,2,-9.359999999999999,-1.27,2.15,0.14,-0.16,-0.14
8.205251932144165,2,3,3,2,-9.369999999999999,-1.19,2.23,0.3,0.01,-0.15
8.215252161026001,2,3,3,2,-9.369999999999999,-1.19,2.23,0.46,0.17,-0.11
8.225252151489258,2,3,3,2,-9.390000000000001,-1.15,2.32,0.7,0.15,-0.04
8.235252141952515,2,3,3,2,-9.44,-0.95,2.31,0.8,0,0.05
8.245252132415771,2,3,3,2,-9.470000000000001,-0.9399999999999999,2.38,0.76,-0.11,0.13
8.255252122879028,2,3,3,2,-9.5,-0.92,2.49,0.8100000000000001,-0.14,0.2
8.265252113342285,2,3,3,2,-9.5,-0.92,2.49,0.86,-0.26,0.32
8.275252103805542,2,3,3,2,-9.49,-0.91,2.61,0.71,-0.39,0.37
8.285252094268799,2,3,3,2,-9.49,-0.88,2.36,0.49,-0.36,0.32
8.295252084732056,2,3,3,2,-9.470000000000001,-0.83,2.42,0.42,-0.3,0.27
8.306252002716064,2,3,3,2,-9.52,-0.76,2.49,0.41,-0.23,0.22
8.316251993179321,2,3,3,2,-9.52,-0.76,2.49,0.29,-0.17,0.13
8.326251983642578,2,3,3,2,-9.51,-0.79,2.47,0.27,-0.05,0.03
8.336251974105835,2,3,3,2,-9.539999999999999,-0.84,2.38,0.27,-0.05,-0.07000000000000001
8.346251964569092,2,3,3,2,-9.449999999999999,-0.88,2.42,0.26,-0.13,-0.18
8.356251955032349,2,3,3,2,-9.44,-0.9,2.43,0.11,-0.17,-0.27
8.366251945495605,2,3,3,2,-9.4,-0.92,2.41,-0.09,-0.1,-0.26
8.376251935958862,2,3,3,2,-9.4,-0.92,2.41,-0.3,0.03,-0.26
8.386252164840698,2,3,3,2,-9.43,-0.96,2.3,-0.43,0.1,-0.17
8.396252155303955,2,3,3,2,-9.49,-0.99,2.33,-0.47,0.12,-0.09
8.406252145767212,2,3,3,2,-9.5,-0.96,2.3,-0.5,0.08,-0.03
8.416252136230469,2,3,3,2,-9.5,-0.96,2.3,-0.45,0.03,0.06
8.426252126693726,2,3,3,2,-9.49,-0.95,2.45,-0.06,-0.08,0.12
8.436252117156982,2,3,3,2,-9.470000000000001,-0.87,2.35,0.44,-0.34,0.22
8.446252107620239,2,3,3,2,-9.43,-0.82,2.39,0.54,-0.64,0.36
8.456252098083496,2,3,3,2,-9.32,-0.8,2.47,0.41,-0.6899999999999999,0.45
8.466252088546753,2,3,3,2,-9.32,-0.8,2.47,0.06,-0.6,0.47
8.47625207901001,2,3,3,2,-9.34,-0.82,2.48,-0.11,-0.34,0.4
8.486252069473267,2,3,3,2,-9.57,-0.74,2.38,0.09,-0.12,0.32
8.496252059936523,2,3,3,2,-9.699999999999999,-0.68,2.64,0.51,-0.26,0.39
8.50625205039978,2,3,3,2,-9.550000000000001,-0.7,2.58,0.65,-0.85,0.33
8.516252040863037,2,3,3,2,-9.550000000000001,-0.7,2.58,0.05,-1.26,0.23
8.526252031326294,2,3,3,2,-9.380000000000001,-0.75,2.38,-0.64,-0.82,0.1
8.536252021789551,2,3,3,2,-9.52,-0.78,2.27,-0.65,-0.01,-0.01
8.546252012252808,2,3,3,2,-9.57,-0.76,2.41,-0.5,0.37,-0.06
8.556252002716064,2,3,3,2,-9.59,-0.82,2.5,-0.46,0.26,-0.13
8.566251993179321,2,3,3,2,-9.59,-0.82,2.5,-0.5600000000000001,0.02,-0.13
8.576251983642578,2,3,3,2,-9.51,-0.88,2.48,-0.6899999999999999,-0.04,-0.14
8.586251974105835,2,3,3,2,-9.34,-0.98,2.23,-0.79,0.03,-0.12
8.596251964569092,2,3,3,2,-9.380000000000001,-0.98,2.27,-0.75,0.15,-0.1
8.606251955032349,2,3,3,2,-9.460000000000001,-0.9,2.39,-0.57,0.23,-0.14
8.616251945495605,2,3,3,2,-9.460000000000001,-0.9,2.39,-0.57,0.23,-0.14
8.626251935958862,2,3,3,2,-9.49,-0.9,2.45,-0.22,0.16,-0.18
8.636252164840698,2,3,3,2,-9.539999999999999,-0.87,2.48,-0.05,0.03,-0.21
8.646252155303955,2,3,3,2,-9.460000000000001,-0.84,2.45,0.15,-0.15,-0.22
8.656252145767212,2,3,3,2,-9.44,-0.83,2.4,0.02,-0.29,-0.25
8.666252136230469,2,3,3,2,-9.44,-0.83,2.4,-0.11,-0.27,-0.18
8.676252126693726,2,3,3,2,-9.4,-0.82,2.43,-0.11,-0.27,-0.18
8.686252117156982,2,3,3,2,-9.43,-0.89,2.32,-0.22,-0.05,-0.06
8.696252107620239,2,3,3,2,-9.49,-0.9,2.34,-0.27,0,-0.05
8.706252098083496,2,3,3,2,-9.470000000000001,-0.88,2.36,-0.29,-0.01,-0.07000000000000001
8.716252088546753,2,3,3,2,-9.470000000000001,-0.88,2.36,-0.29,-0.01,-0.07000000000000001
8.72625207901001,2,3,3,2,-9.5,-0.95,2.38,-0.25,0.06,-0.13
8.736252069473267,2,3,3,2,-9.449999999999999,-0.9399999999999999,2.29,-0.09,0.08,-0.29
8.746252059936523,2,3,3,2,-9.41,-0.98,2.31,-0.13,0.19,-0.4
8.75625205039978,2,3,3,2,-9.460000000000001,-0.98,2.32,-0.18,0.34,-0.46
8.766252040863037,2,3,3,2,-9.460000000000001,-0.98,2.32,-0.18,0.34,-0.46
8.776252031326294,2,3,3,2,-9.48,-0.98,2.35,-0.25,0.48,-0.48
8.786252021789551,2,3,3,2,-9.48,-1.03,2.36,-0.17,0.6,-0.57
8.796252012252808,2,3,3,2,-9.41,-1.08,2.32,-0.08,0.55,-0.66
8.806252002716064,2,3,3,2,-9.4,-1.1,2.32,-0.21,0.51,-0.8
8.816251993179321,2,3,3,2,-9.4,-1.1,2.32,-0.21,0.51,-0.8
8.826251983642578,2,3,3,2,-9.380000000000001,-1.17,2.28,-0.39,0.6,-0.84
8.836251974105835,2,3,3,2,-9.35,-1.21,2.04,-0.7,0.92,-0.83
8.846251964569092,2,3,3,2,-9.359999999999999,-1.22,2.09,-0.61,1.08,-0.82
8.856251955032349,2,3,3,2,-9.359999999999999,-1.22,2.09,-0.38,1.2,-0.8100000000000001
8.866251945495605,2,3,3,2,-9.35,-1.28,2.13,-0.38,1.2,-0.8100000000000001
8.876251935958862,2,3,3,2,-9.32,-1.3,2.23,0.48,1.4,-0.8100000000000001
8.886252164840698,2,3,3,2,-9.23,-1.25,2.28,0.77,1.44,-0.84
8.896252155303955,2,3,3,2,-9.19,-1.26,2.28,0.77,1.42,-0.85
8.906252145767212,2,3,3,2,-9.109999999999999,-1.21,2.29,0.58,1.52,-0.87
8.916252136230469,2,3,3,2,-9.109999999999999,-1.21,2.29,0.58,1.52,-0.87
8.926252126693726,2,3,3,2,-9.17,-1.2,2.26,0.29,1.79,-0.9399999999999999
8.936252117156982,2,3,3,2,-9.199999999999999,-1.25,1.98,-0.14,2.22,-1.12
8.946252107620239,2,3,3,2,-9.199999999999999,-1.25,1.98,-0.39,2.21,-1.36
8.956252098083496,2,3,3,2,-9.1,-1.35,1.83,-0.63,2.33,-1.71
8.966252088546753,2,3,3,2,-8.83,-1.48,1.65,-0.63,2.33,-1.71
8.97625207901001,2,3,3,2,-8.73,-1.62,1.71,-0.68,2.54,-2.05
8.986252069473267,2,3,3,2,-8.619999999999999,-1.78,1.76,-0.53,2.54,-2.6
8.996252059936523,2,3,3,2,-8.26,-2,1.41,-0.59,2.66,-3.01
9.00625205039978,2,3,3,2,-8.01,-2.06,1.36,-0.67,2.85,-3.39
9.016252040863037,2,3,3,2,-7.82,-2.18,1.4,-0.67,2.85,-3.39
9.026252031326294,2,3,3,2,-7.65,-2.17,1.42,-0.6,2.82,-3.75
9.036252021789551,2,3,3,2,-7.19,-2.42,1.15,-1.31,2.08,-4.76
9.046252012252808,2,3,3,2,-6.96,-2.43,0.86,-1.76,1.76,-5.47
9.056252002716064,2,3,3,2,-6.72,-2.37,0.82,-1.97,1.87,-6.13
9.066251993179321,2,3,3,2,-6.44,-2.33,0.8,-1.97,1.87,-6.13
9.076251983642578,2,3,3,2,-6.04,-2.07,0.46,-2.28,1.9,-6.56
9.086251974105835,2,3,3,2,-5.9,-1.99,0.2,-2.8,1.42,-7.31
9.096251964569092,2,3,3,2,-5.71,-1.92,-0.09,-2.42,0.51,-7.81
9.106251955032349,2,3,3,2,-5.59,-1.99,0.01,-1.24,-0.48,-8.31
9.116251945495605,2,3,3,2,-5.64,-1.89,0.93,-1.24,-0.48,-8.31
9.126251935958862,2,3,3,2,-5.67,-1.78,1.15,-0.04,-1.72,-8.68
9.136252164840698,2,3,3,2,-5.82,-1.41,1.11,0.88,-2.67,-8.02
9.146252155303955,2,3,3,2,-5.94,-0.99,1.26,0.61,-2.34,-7.42
9.156252145767212,2,3,3,2,-6.85,-1.12,1.82,-0.8,-3.07,-7.17
9.166252136230469,2,3,3,2,-7.33,-1.2,1.57,-0.8,-3.07,-7.17
9.176252126693726,2,3,3,2,-7.69,-1.15,1.49,-1.91,-4.82,-7.2
9.186252117156982,2,3,3,2,-8.15,-0.65,2.05,-0.78,-4.85,-6.08
9.196252107620239,2,3,3,2,-8.789999999999999,-0.97,2.08,-0.79,-3.53,-5.29
9.206252098083496,2,3,3,2,-8.960000000000001,-1.26,2.27,-0.87,-3.09,-4.61
9.216252088546753,2,3,3,2,-8.9,-1.43,2.39,-0.87,-3.09,-4.61
9.22625207901001,2,3,3,2,-8.720000000000001,-2.13,3.35,-0.86,-3.14,-4.66
9.236252069473267,2,3,3,2,-9,-2.43,3.79,-2.38,-4.46,-4.63
9.246252059936523,2,3,3,2,-9.380000000000001,-2.68,3.85,-3.26,-5.15,-3.56
9.25625205039978,2,3,3,2,-10.06,-2.71,4,-3.11,-5.72,-1.81
9.266252040863037,2,3,3,2,-11.43,-2.2,4.27,-3.11,-5.72,-1.81
9.276252031326294,2,3,3,2,-11.81,-2.27,4.2,-2.16,-5.95,-0.18
9.286252021789551,2,3,3,2,-12.52,-2.15,4.28,1.25,-2.75,1.54
9.29725193977356,2,3,3,2,-13.52,-2.02,4.71,1.81,-1.83,2.03
9.306252002716064,2,3,3,2,-15.22,-1.79,5.08,1.31,-2.39,2.01
9.316251993179321,2,3,3,2,-15.56,-1.43,5.08,1.31,-2.39,2.01
9.327252149581909,2,3,3,2,-15.86,-1.26,5.15,0.38,-2.78,1.94
9.337252140045166,2,3,3,2,-16.39,-1.38,5.61,-0.26,-2.25,1.89
9.347252130508423,2,3,3,2,-18.28,-2.23,6.71,-0.6899999999999999,-1.63,2.11
9.35725212097168,2,3,3,2,-19.48,-2.68,7.1,-1.83,-1.42,2.12
9.367252111434937,2,3,3,2,-20.72,-3.24,7.16,-1.83,-1.42,2.12
9.377252101898193,2,3,3,2,-22.98,-3.34,7.05,-2.28,-0.83,2.08
9.38725209236145,2,3,3,2,-23.36,-3.13,6.69,-2.05,0.96,0.4
9.397252082824707,2,3,3,2,-23.34,-3.05,6.16,-1.69,2.04,0.04
9.407252073287964,2,3,3,2,-23,-2.82,6.26,-1.39,2.89,0.74
9.417252063751221,2,3,3,2,-21.8,-3.18,6.62,-1.39,2.89,0.74
9.427252054214478,2,3,3,2,-21.27,-3.38,6.4,-0.87,2.83,1.93
9.437252044677734,2,3,3,2,-20.95,-3.52,6.33,2.56,3.38,4.62
9.447252035140991,2,3,3,2,-20.77,-3.39,6.85,5.65,4.37,6.06
9.457252025604248,2,3,3,2,-21.6,-2.8,7.4,7.99,6.38,7.77
9.467252016067505,2,3,3,2,-22.24,-2.23,7.04,7.99,6.38,7.77
9.477252006530762,2,3,3,2,-23.11,-2.01,6.96,8.9,8.869999999999999,9.16
9.487251996994019,2,3,3,2,-23.66,-1.48,6.36,8.48,10.3,9.130000000000001
9.497251987457275,2,3,3,2,-22.48,-1.7,4.36,7.82,8.41,7.45
9.507251977920532,2,3,3,2,-20.55,-2.02,3.52,6.81,6.22,5.64
9.517251968383789,2,3,3,2,-18.1,-2.71,2.82,6.81,6.22,5.64
9.527251958847046,2,3,3,2,-15.44,-3.8,2.06,5.14,4.54,4.15
9.537251949310303,2,3,3,2,-8.859999999999999,-4.57,0.39,4.11,6.25,0.82
9.54725193977356,2,3,3,2,-6.02,-3.32,-0.52,3.3,6.31,-0.07000000000000001
9.557251930236816,2,3,3,2,-3.5,-1.76,0,-0.44,3.85,-0.89
9.567252159118652,2,3,3,2,1.12,-4.34,1.63,-0.44,3.85,-0.89
9.577252149581909,2,3,3,2,3.42,-9.59,0.09,-10.55,-2.07,-2.96
9.587252140045166,2,3,3,2,5.63,-13.17,-6.93,-36.16,-8.449999999999999,-10.24
9.597252130508423,2,3,3,2,4.15,-14.4,-12.9,-30.55,3,-7.81
9.60725212097168,2,3,3,2,-0.5600000000000001,-10.19,-10.43,-13.37,3.81,-6.45
9.617252111434937,2,3,3,2,2.16,-8.380000000000001,-4.89,-13.37,3.81,-6.45
9.627252101898193,2,3,3,2,5.1,-7.1,-1.23,2.58,-5.7,-8.08
9.63725209236145,2,3,3,2,5.57,-5.94,-0.05,9.949999999999999,-5.21,-2.55
9.647252082824707,2,3,3,2,4.95,-1.96,1.45,13.31,-2.05,2.4
9.657252073287964,2,3,3,2,4.7,0.02,2.18,15.41,-0.35,7.76
9.667252063751221,2,3,3,2,4,2.14,2.28,15.41,-0.35,7.76
9.677252054214478,2,3,3,2,2.77,3.07,1.97,14.2,-1.32,12.8
9.687252044677734,2,3,3,2,1.36,2.36,1.01,6.75,-7.63,12.18
9.697252035140991,2,3,3,2,0.73,1.33,0.27,4.97,-6.95,9.779999999999999
9.707252025604248,2,3,3,2,0.21,1.04,0.01,5.23,-3.73,9.289999999999999
9.717252016067505,2,3,3,2,-0.85,0.7,0.33,5.23,-3.73,9.289999999999999
9.727252006530762,2,3,3,2,-3.03,1.09,1.42,5.56,-0.21,9.02
9.737251996994019,2,3,3,2,-3.43,1.65,1.64,4.18,2.8,6.88
9.747251987457275,2,3,3,2,-3.41,1.96,1.43,0.97,2.05,4.91
9.757251977920532,2,3,3,2,-2.31,1.57,0.89,-2.37,0.89,2.72
9.767251968383789,2,3,3,2,-1.68,1.22,0.47,-2.37,0.89,2.72
9.777251958847046,2,3,3,2,-1.51,1.02,0.09,-5.2,0.5,0.27
9.787251949310303,2,3,3,2,-1.64,0.87,-0.24,-9.029999999999999,2.33,-5.67
9.79725193977356,2,3,3,2,-1.88,0.66,-1,-9.19,2.86,-8.17
9.807251930236816,2,3,3,2,-1.52,0.43,-1.12,-8.01,2.49,-10.21
9.817252159118652,2,3,3,2,-0.96,0.3,-0.86,-8.01,2.49,-10.21
9.827252149581909,2,3,3,2,-0.51,0.32,-0.33,-5.81,1.91,-11.8
9.837252140045166,2,3,3,2,0.08,0.41,-0.09,-1.96,1.86,-12.15
9.847252130508423,2,3,3,2,0.03,0.32,-0.23,-0.8,1.9,-11.15
9.85725212097168,2,3,3,2,-0.05,0.08,-0.17,0.55,1.52,-9.83
9.867252111434937,2,3,3,2,0,0.02,-0.45,0.55,1.52,-9.83
9.877252101898193,2,3,3,2,0.82,0.74,-0.34,2,0.84,-8.369999999999999
9.88725209236145,2,3,3,2,1.15,1.24,-0.09,3.05,-0.05,-6.94
9.897252082824707,2,3,3,2,1.3,1.57,-0.17,2.29,-2.58,-3.6
9.907252073287964,2,3,3,2,1.82,1.42,-0.55,2.29,-2.58,-3.6
9.917252063751221,2,3,3,2,1.75,1.64,-0.13,2.7,-2.54,-2.01
9.927252054214478,2,3,3,2,1.26,1.9,0.85,3.78,-0.64,0.06
9.937252044677734,2,3,3,2,0.84,1.86,2.66,4.89,0.06,2.89
9.947252035140991,2,3,3,2,-0.37,-0.43,2.39,5.01,-1.21,6.15
9.957252025604248,2,3,3,2,-1.5,-2.93,3.3,-1.17,-6.43,13.61
9.967252016067505,2,3,3,2,-1.66,-5.05,5.92,-1.17,-6.43,13.61
9.977252006530762,2,3,3,2,-0.88,-8.51,5.67,-4.11,-8.07,15.36
9.987251996994019,2,3,3,2,-2.69,-15.2,1.42,-10.93,-5.99,17.5
9.997251987457275,2,3,3,2,-12.69,-13.41,-1.73,-14.04,8.69,21.49
10.00725197792053,2,3,3,2,-38.27,-22.03,7.57,-9.41,44,29.06
10.01725196838379,2,3,3,2,-39.11,-30.13,5.96,23.14,7.93,34.52
10.02725195884705,2,3,3,2,-32.8,26.7,-4.06,45.25,5.54,2.39
10.0372519493103,2,3,3,2,-15.12,28.28,10.41,44.16,-31.01,-26.69
10.04725193977356,2,3,3,2,-13.76,11.75,17.37,13.99,-31.21,-20.42
10.05725193023682,2,3,3,2,-18.66,3.07,15.96,-2.26,11.62,0.44
10.06725215911865,2,3,3,2,-12.44,0.75,7.31,-8.050000000000001,-0.49,19.2
10.07725214958191,2,3,3,2,-13.06,1.67,9,-5.43,-13.26,22.19
10.08725214004517,2,3,3,2,-16.21,5.11,10.4,-0.59,-6.15,16.79
10.09725213050842,2,3,3,2,-26.8,6,4.85,-4.33,10.39,13.04
10.10725212097168,2,3,3,2,-30.92,4.32,-1.49,-9.199999999999999,23.9,6.57
10.11725211143494,2,3,3,2,-30.83,2.58,-3.97,-4.6,25.26,-2.22
10.12725210189819,2,3,3,2,-25.86,0.09,-1.62,-1.39,7.16,-9.32
10.13725209236145,2,3,3,2,-12.8,-2.81,4.75,-4.84,-12.3,-14.29
10.14725208282471,2,3,3,2,-9.41,-3.23,5.42,-5.08,-16.44,-14.91
10.15725207328796,2,3,3,2,-7.16,-3.68,4.64,-4.4,-11.91,-11.91
10.16725206375122,2,3,3,2,-6.47,-2.95,4.41,-4.4,-5.35,-7.87
10.17725205421448,2,3,3,2,-8.65,-2.27,3.99,-4.05,0.59,-6.49
10.18725204467773,2,3,3,2,-9.720000000000001,-2.71,2.94,-3.43,4.06,-5.7
10.19725203514099,2,3,3,2,-9.859999999999999,-2.73,1.4,-3.69,2.64,-3.99
10.20725202560425,2,3,3,2,-8.91,-2.43,0.4,-3.61,-0.6899999999999999,-1.85
10.2172520160675,2,3,3,2,-5.51,-1.65,-0.13,-3.19,-2.21,0.16
10.22725200653076,2,3,3,2,-3.99,-1.23,0.07000000000000001,-2.85,-1.3,1.53
10.23725199699402,2,3,3,2,-2.84,-0.68,0.27,-2.5,0.49,1.8
10.24725198745728,2,3,3,2,-1.88,-0.2,0.35,-2.19,2.06,1.03
10.25725197792053,2,3,3,2,-1.1,-0.72,1.18,-1.96,2.82,-0.18
10.26725196838379,2,3,3,2,-1.18,-0.85,1.66,-1.41,2.54,-1.41
10.27725195884705,2,3,3,2,-1.25,-0.83,1.83,-1.07,0.79,-2.19
10.2872519493103,2,3,3,2,-1.36,-1.36,1.94,-1.86,-1.59,-3.01
10.29725193977356,2,3,3,2,-1.64,-1.82,2.04,-2.65,-2.94,-3.81
10.30725193023682,2,3,3,2,-2.13,-2.41,2.16,-3.37,-2.73,-4.3
10.31725215911865,2,3,3,2,-2.97,-3.14,2.04,-4.15,-1.16,-4.04
10.32725214958191,2,3,3,2,-4.4,-4.7,1.13,-4.72,0.68,-2.68
10.33725214004517,2,3,3,2,-5.55,-5.36,0.67,-4.8,2.81,-0.58
10.34725213050842,2,3,3,2,-7.56,-5.52,0.63,-2.86,5.39,2.12
10.35825204849243,2,3,3,2,-10.03,-5.2,1.11,1.26,6.4,5.39
10.36825203895569,2,3,3,2,-13.68,-3.62,1.53,5.88,3.83,8.109999999999999
10.37825202941895,2,3,3,2,-13.66,-2.45,1.06,9.35,-0.28,9.470000000000001
10.3882520198822,2,3,3,2,-13.17,-1.56,0.97,9.94,-1.91,9.5
10.39825201034546,2,3,3,2,-13.03,-0.85,1.67,9.300000000000001,-0.73,7.68
10.40825200080872,2,3,3,2,-13.2,0.1,2.78,8.32,-1.64,4.38
10.41825199127197,2,3,3,2,-13.85,0.96,3.19,6.85,-4.21,1.47
10.42825198173523,2,3,3,2,-14.31,1.81,3.58,5.49,-5.93,-0.24
10.43825197219849,2,3,3,2,-13.74,2.25,3.36,3.49,-6.53,-0.77
10.44825196266174,2,3,3,2,-10.46,1.55,2.54,1.29,-5.72,-0.34
10.458251953125,2,3,3,2,-8.65,0.64,2.6,0.67,-3.89,-0.03
10.46825194358826,2,3,3,2,-7.21,-0.33,2.64,0.57,-1.15,-0.59
10.47825193405151,2,3,3,2,-6.05,-1.58,2.4,0.06,1.64,-1.46
10.48825216293335,2,3,3,2,-6.47,-1.84,2.29,-0.53,3.27,-2.27
10.49825215339661,2,3,3,2,-7.24,-1.87,2.26,-0.97,3.21,-2.47
10.50825214385986,2,3,3,2,-7.85,-1.78,2.46,-1.6,2.05,-2.52
10.51825213432312,2,3,3,2,-7.75,-1.89,2.16,-2.42,0.65,-2.51
10.52825212478638,2,3,3,2,-7.58,-2.01,1.89,-3.22,0.35,-2.21
10.53825211524963,2,3,3,2,-7.78,-2.09,1.84,-3.33,1.41,-1.64
10.54825210571289,2,3,3,2,-8.109999999999999,-2.11,1.8,-2.29,2.41,-0.88
10.55825209617615,2,3,3,2,-8.92,-1.95,1.82,-0.89,2.34,-0.31
10.5682520866394,2,3,3,2,-9.48,-1.78,2.18,0.67,1.84,-0.09
10.57825207710266,2,3,3,2,-10.07,-1.59,2.39,2.16,1.01,-0.05
10.58825206756592,2,3,3,2,-10.51,-1.32,2.39,2.84,-0.16,-0.07000000000000001
10.59825205802917,2,3,3,2,-11.16,-0.76,2.31,3.09,-0.7,0.09
10.60825204849243,2,3,3,2,-11.24,-0.57,2.4,3.45,-0.75,0.36
10.61825203895569,2,3,3,2,-11.02,-0.32,2.42,3.72,-0.72,0.68
10.62825202941895,2,3,3,2,-10.72,-0.22,2.35,3.15,-0.52,0.98
10.6382520198822,2,3,3,2,-10.03,-0.28,2.13,2.36,-0.17,1.14
10.64825201034546,2,3,3,2,-9.720000000000001,-0.29,1.9,1.55,0.35,1.1
10.65825200080872,2,3,3,2,-9.470000000000001,-0.32,1.87,0.75,0.66,1.16
10.66825199127197,2,3,3,2,-9.24,-0.59,2.18,0.33,0.65,1.2
10.67825198173523,2,3,3,2,-9.220000000000001,-0.76,2.21,-0.11,0.33,1.22
10.68825197219849,2,3,3,2,-9.109999999999999,-0.88,2.09,-0.71,-0.23,1.01
10.69825196266174,2,3,3,2,-9.07,-1.01,2.02,-1.22,-0.73,0.63
10.708251953125,2,3,3,2,-9.050000000000001,-1.28,2.24,-1.52,-1.08,0.16
10.71825194358826,2,3,3,2,-9.029999999999999,-1.27,2.2,-1.41,-1.48,-0.27
10.72825193405151,2,3,3,2,-8.960000000000001,-1.31,1.95,-1.51,-1.89,-0.39
10.73825216293335,2,3,3,2,-8.890000000000001,-1.42,1.81,-1.87,-1.96,-0.42
10.74825215339661,2,3,3,2,-9.029999999999999,-1.65,1.65,-1.68,-1.64,-0.31
10.75825214385986,2,3,3,2,-9.140000000000001,-1.7,1.67,-1.12,-1.37,-0.07000000000000001
10.76825213432312,2,3,3,2,-9.25,-1.72,1.73,-0.27,-1.05,0.38
10.77825212478638,2,3,3,2,-9.369999999999999,-1.72,1.81,0.62,-1.02,0.9
10.78825211524963,2,3,3,2,-9.619999999999999,-1.53,1.98,1.45,-1.14,1.43
10.79825210571289,2,3,3,2,-9.800000000000001,-1.44,2.02,1.94,-1.3,1.91
10.80825209617615,2,3,3,2,-9.92,-1.31,2.1,1.85,-1.44,2.24
10.8182520866394,2,3,3,2,-10.01,-1.18,2.16,1.51,-1.22,2.31
10.82825207710266,2,3,3,2,-10.27,-0.76,2.35,1.18,-0.67,2.2
10.83825206756592,2,3,3,2,-10.2,-0.6,2.35,0.99,-0.28,1.93
10.84825205802917,2,3,3,2,-10.01,-0.51,2.11,0.64,-0.08,1.52
10.85825204849243,2,3,3,2,-9.529999999999999,-0.48,2.16,0.38,0.04,0.97
10.86825203895569,2,3,3,2,-9.31,-0.63,2.16,0.25,0.02,0.37
10.87825202941895,2,3,3,2,-9.15,-0.76,2.16,-0.08,-0.08,-0.2
10.8882520198822,2,3,3,2,-9.1,-0.95,2.27,-0.35,-0.02,-0.49
10.89825201034546,2,3,3,2,-9.15,-1.19,2.28,-0.47,0,-0.44
10.90825200080872,2,3,3,2,-9.17,-1.27,2.28,-0.59,-0.17,-0.21
10.91825199127197,2,3,3,2,-9.210000000000001,-1.32,2.16,-0.83,-0.21,-0.02
10.92825198173523,2,3,3,2,-9.359999999999999,-1.4,2.19,-0.83,0.02,0.18
10.93825197219849,2,3,3,2,-9.65,-1.21,2.06,-0.51,0.2,0.31
10.94825196266174,2,3,3,2,-9.75,-1.09,2.11,-0.07000000000000001,0.2,0.39
10.958251953125,2,3,3,2,-9.81,-0.96,2.19,0.28,0.03,0.37
10.96825194358826,2,3,3,2,-9.76,-0.91,2.24,0.4,-0.05,0.3
10.97825193405151,2,3,3,2,-9.57,-0.78,2.29,0.35,0.05,0.16
10.98825216293335,2,3,3,2,-9.5,-0.8,2.31,0.17,0.24,0.04
10.99825215339661,2,3,3,2,-9.49,-0.82,2.25,-0.11,0.33,-0.1
11.00825214385986,2,3,3,2,-9.5,-0.87,2.36,-0.34,0.4,-0.17
11.01825213432312,2,3,3,2,-9.49,-0.99,2.35,-0.42,0.44,-0.13
11.02825212478638,2,3,3,2,-9.43,-1.05,2.26,-0.46,0.47,-0.09
11.03825211524963,2,3,3,2,-9.380000000000001,-1.07,2.32,-0.55,0.52,-0.01
11.04825210571289,2,3,3,2,-9.31,-1.13,2.16,-0.48,0.5,0.1
11.05825209617615,2,3,3,2,-9.33,-1.13,2.23,-0.54,0.35,0.19
11.0682520866394,2,3,3,2,-9.359999999999999,-1.15,2.35,-0.5,0.09,0.24
11.07825207710266,2,3,3,2,-9.460000000000001,-1.17,2.46,-0.34,-0.07000000000000001,0.31
11.08825206756592,2,3,3,2,-9.66,-1.17,2.34,-0.17,-0.2,0.34
11.09825205802917,2,3,3,2,-9.640000000000001,-1.07,2.19,-0.12,-0.24,0.33
11.10825204849243,2,3,3,2,-9.58,-0.99,2.24,0.02,-0.08,0.25
11.11825203895569,2,3,3,2,-9.48,-0.9,2.33,0.15,0.19,0.13
11.12825202941895,2,3,3,2,-9.529999999999999,-0.95,2.73,0.37,0.33,0.08
11.1382520198822,2,3,3,2,-9.57,-0.8100000000000001,2.69,0.97,0.19,0.11
11.14825201034546,2,3,3,2,-9.41,-0.82,2.26,1.08,-0.55,0.21
11.15825200080872,2,3,3,2,-9.33,-0.9,2.07,0.24,-0.9,0.23
11.16825199127197,2,3,3,2,-9.41,-0.99,2.2,0.03,-0.7,0.26
11.17825198173523,2,3,3,2,-9.49,-0.99,2.21,0.03,-0.51,0.31
11.18825197219849,2,3,3,2,-9.52,-0.97,2.27,0,-0.25,0.38
11.19825196266174,2,3,3,2,-9.57,-0.92,2.18,0.05,-0.15,0.38
11.208251953125,2,3,3,2,-9.58,-0.97,2.19,-0.01,-0.21,0.35
11.21825194358826,2,3,3,2,-9.529999999999999,-0.97,2.16,-0.18,-0.35,0.29
11.22825193405151,2,3,3,2,-9.52,-1,2.18,-0.31,-0.27,0.17
11.23825216293335,2,3,3,2,-9.57,-0.96,2.28,-0.32,0.01,0.06
11.24825215339661,2,3,3,2,-9.57,-0.95,2.22,-0.36,0.24,-0.06
11.25825214385986,2,3,3,2,-9.56,-0.92,2.23,-0.48,0.35,-0.13
11.26825213432312,2,3,3,2,-9.470000000000001,-0.98,2.26,-0.57,0.41,-0.12
11.27825212478638,2,3,3,2,-9.41,-1.04,2.21,-0.7,0.49,-0.13
11.28825211524963,2,3,3,2,-9.460000000000001,-1.06,2.17,-0.77,0.4,-0.08
11.29825210571289,2,3,3,2,-9.470000000000001,-1.07,2.04,-0.73,0.29,-0.06
11.30825209617615,2,3,3,2,-9.529999999999999,-1.04,2.11,-0.45,0.14,-0.01
11.3182520866394,2,3,3,2,-9.5,-0.9399999999999999,2.32,-0.02,-0.18,0.06
11.32825207710266,2,3,3,2,-9.380000000000001,-0.92,2.39,0.1,-0.68,0.14
11.33825206756592,2,3,3,2,-9.27,-0.9399999999999999,2.33,-0.05,-0.91,0.19
11.34825205802917,2,3,3,2,-9.25,-0.9399999999999999,2.14,-0.34,-0.71,0.32
11.35825204849243,2,3,3,2,-9.609999999999999,-0.93,2.32,-0.38,-0.32,0.44
11.36825203895569,2,3,3,2,-9.65,-0.92,2.29,-0.19,-0.29,0.44
11.3792519569397,2,3,3,2,-9.630000000000001,-0.86,2.22,-0.12,-0.32,0.43
11.38925194740295,2,3,3,2,-9.56,-0.84,2.26,-0.23,-0.25,0.34
11.39925193786621,2,3,3,2,-9.57,-0.86,2.17,-0.31,-0.18,0.16
11.40925192832947,2,3,3,2,-9.59,-0.89,2.21,-0.43,-0.19,0.02
11.4192521572113,2,3,3,2,-9.609999999999999,-0.93,2.21,-0.53,-0.16,-0.05
11.42925214767456,2,3,3,2,-9.539999999999999,-0.96,2.18,-0.46,-0.2,-0.1
11.43925213813782,2,3,3,2,-9.49,-0.93,2.27,-0.38,-0.35,-0.14
11.44925212860107,2,3,3,2,-9.449999999999999,-0.95,2.25,-0.28,-0.41,-0.12
11.45925211906433,2,3,3,2,-9.42,-0.97,2.27,-0.37,-0.46,-0.05
11.46925210952759,2,3,3,2,-9.380000000000001,-0.96,2.27,-0.57,-0.46,-0.03
11.47925209999084,2,3,3,2,-9.369999999999999,-0.99,2.24,-0.71,-0.4,0.02
11.4892520904541,2,3,3,2,-9.359999999999999,-1,2.23,-0.77,-0.31,0.05
11.49925208091736,2,3,3,2,-9.43,-0.98,2.15,-0.7,-0.12,0.08
11.50925207138062,2,3,3,2,-9.550000000000001,-0.9399999999999999,2.34,-0.52,-0.05,0.05
11.51925206184387,2,3,3,2,-9.5,-0.99,2.34,-0.5,-0.23,0.08
11.52925205230713,2,3,3,2,-9.449999999999999,-1.01,2.36,-0.54,-0.33,0.12
11.53925204277039,2,3,3,2,-9.44,-1.02,2.37,-0.51,-0.28,0.15
11.54925203323364,2,3,3,2,-9.449999999999999,-1.02,2.23,-0.45,-0.22,0.16
11.5592520236969,2,3,3,2,-9.51,-1.01,2.28,-0.35,-0.14,0.13
11.56925201416016,2,3,3,2,-9.56,-0.99,2.34,-0.25,-0.16,0.07000000000000001
11.57925200462341,2,3,3,2,-9.6,-1,2.39,-0.14,-0.3,0.03
11.58925199508667,2,3,3,2,-9.52,-0.96,2.36,-0.1,-0.42,0.05
11.59925198554993,2,3,3,2,-9.470000000000001,-0.93,2.31,-0.08,-0.44,-0.01
11.60925197601318,2,3,3,2,-9.380000000000001,-0.93,2.36,-0.05,-0.32,-0.04
11.61925196647644,2,3,3,2,-9.4,-0.92,2.48,-0.02,-0.19,-0.11
11.6292519569397,2,3,3,2,-9.43,-0.93,2.51,0.05,-0.07000000000000001,-0.16
11.63925194740295,2,3,3,2,-9.449999999999999,-0.9399999999999999,2.54,0.09,0,-0.13
11.64925193786621,2,3,3,2,-9.44,-0.99,2.48,0.08,-0.05,-0.12
11.65925192832947,2,3,3,2,-9.35,-1.05,2.38,0.02,-0.08,-0.06
11.6692521572113,2,3,3,2,-9.390000000000001,-0.99,2.33,-0.12,0.05,-0.08
11.67925214767456,2,3,3,2,-9.470000000000001,-0.98,2.41,-0.16,0.38,-0.04
11.68925213813782,2,3,3,2,-9.550000000000001,-0.95,2.49,-0.03,0.55,-0.06
11.69925212860107,2,3,3,2,-9.52,-0.95,2.33,0.12,0.42,-0.08
11.70925211906433,2,3,3,2,-9.48,-0.97,2.39,0.13,0.24,-0.1
11.71925210952759,2,3,3,2,-9.44,-0.99,2.45,0.16,0.12,-0.16
11.72925209999084,2,3,3,2,-9.44,-0.99,2.49,0.21,0.11,-0.17
11.7392520904541,2,3,3,2,-9.470000000000001,-0.99,2.45,0.16,0.11,-0.17
11.74925208091736,2,3,3,2,-9.48,-0.99,2.35,0.12,0.1,-0.2
11.75925207138062,2,3,3,2,-9.460000000000001,-0.9399999999999999,2.41,0.05,0.04,-0.17
11.76925206184387,2,3,3,2,-9.44,-0.92,2.47,0.06,0,-0.19
11.77925205230713,2,3,3,2,-9.4,-0.92,2.51,0.08,-0.04,-0.21
11.78925204277039,2,3,3,2,-9.4,-0.92,2.54,0.13,-0.03,-0.24
11.79925203323364,2,3,3,2,-9.390000000000001,-0.98,2.44,0.11,-0.05,-0.26
11.8092520236969,2,3,3,2,-9.359999999999999,-1.04,2.45,0.06,-0.01,-0.32
11.81925201416016,2,3,3,2,-9.42,-1.07,2.44,-0.04,0.17,-0.36
11.82925200462341,2,3,3,3,-9.49,-1.07,2.43,-0.08,0.36,-0.36
11.83925199508667,2,3,3,3,-9.539999999999999,-1.07,2.53,-0.02,0.53,-0.32
11.84925198554993,2,3,3,3,-9.380000000000001,-1.05,2.32,0.03,0.57,-0.31
11.85925197601318,2,3,3,3,-9.369999999999999,-1.03,2.25,-0.17,0.72,-0.28
11.86925196647644,2,3,3,3,-9.470000000000001,-0.97,2.37,-0.19,1.12,-0.26
11.8792519569397,2,3,3,3,-9.550000000000001,-0.98,2.49,0.03,1.2,-0.24
11.88925194740295,2,3,3,3,-9.460000000000001,-0.98,2.42,0.19,0.9,-0.26
11.89925193786621,2,3,3,3,-9.449999999999999,-1,2.26,0.2,0.61,-0.31
11.90925192832947,2,3,3,3,-9.48,-0.98,2.25,0.27,0.42,-0.26
11.9192521572113,2,3,3,3,-9.49,-0.99,2.27,0.4,0.38,-0.28
11.92925214767456,2,3,3,3,-9.470000000000001,-1.02,2.4,0.45,0.32,-0.25
11.93925213813782,2,3,3,3,-9.449999999999999,-1.02,2.33,0.36,0.2,-0.31
11.94925212860107,2,3,3,3,-9.44,-1.08,2.19,0.22,0.09,-0.31
11.95925211906433,2,3,3,3,-9.470000000000001,-1.11,2.23,0.11,0.08,-0.33
11.96925210952759,2,3,3,3,-9.51,-1.11,2.33,0.19,0.08,-0.31
11.97925209999084,2,3,3,3,-9.48,-1.11,2.35,0.33,-0.06,-0.26
11.9892520904541,2,3,3,3,-9.49,-1.12,2.3,0.32,-0.17,-0.21
11.99925208091736,2,3,3,3,-9.52,-1.07,2.27,0.35,-0.16,-0.2
12.00925207138062,2,3,3,3,-9.48,-1.08,2.27,0.41,-0.12,-0.15
12.01925206184387,2,3,3,3,-9.48,-1.01,2.25,0.45,0,-0.13
12.02925205230713,2,3,3,3,-9.56,-0.98,2.3,0.43,0.18,-0.12
12.03925204277039,2,3,3,3,-9.52,-0.99,2.35,0.49,0.11,-0.16
12.04925203323364,2,3,3,3,-9.41,-1.01,2.18,0.49,-0.1,-0.21
12.0592520236969,2,3,3,3,-9.34,-1.08,2.19,0.25,-0.11,-0.2
12.06925201416016,2,3,3,3,-9.369999999999999,-1.13,2.22,0.1,0.05,-0.18
12.07925200462341,2,3,3,3,-9.44,-1.17,2.18,-0.01,0.14,-0.23
12.08925199508667,2,3,3,3,-9.5,-1.2,2.15,-0.1,0.11,-0.25
12.09925198554993,2,3,3,3,-9.550000000000001,-1.19,2.03,-0.04,0.04,-0.22
12.10925197601318,2,3,3,3,-9.550000000000001,-1.17,2.09,0.05,-0.03,-0.14
12.11925196647644,2,3,3,3,-9.539999999999999,-1.15,2.24,0.18,-0.25,-0.14
12.1292519569397,2,3,3,3,-9.5,-1.1,2.3,0.32,-0.4,-0.12
12.13925194740295,2,3,3,3,-9.49,-1.1,2.37,0.41,-0.51,-0.12
12.14925193786621,2,3,3,3,-9.43,-1.08,2.35,0.44,-0.57,-0.09
12.15925192832947,2,3,3,3,-9.26,-1.05,2.27,0.35,-0.46,-0.06
12.1692521572113,2,3,3,3,-9.369999999999999,-1.05,2.24,-0.01,-0.1,0.01
12.17925214767456,2,3,3,3,-9.550000000000001,-1.01,2.36,-0.15,0.27,0.14
12.18925213813782,2,3,3,3,-9.5,-0.92,2.28,-0.03,0.21,0.14
12.19925212860107,2,3,3,3,-9.48,-0.91,2.25,-0.21,0.11,0.1
12.20925211906433,2,3,3,3,-9.48,-0.96,2.29,-0.31,0.24,0.02
12.21925210952759,2,3,3,3,-9.51,-0.98,2.32,-0.33,0.34,-0.11
12.22925209999084,2,3,3,3,-9.59,-1.1,2.37,-0.33,0.35,-0.26
12.2392520904541,2,3,3,3,-9.56,-1.11,2.27,-0.41,0.25,-0.38
12.24925208091736,2,3,3,3,-9.5,-1.2,2.11,-0.57,0.13,-0.42
12.25925207138062,2,3,3,3,-9.52,-1.17,2.13,-0.63,0.06,-0.44
12.26925206184387,2,3,3,3,-9.49,-1.13,2.22,-0.55,0.06,-0.4
12.27925205230713,2,3,3,3,-9.470000000000001,-1.13,2.32,-0.46,-0.03,-0.34
12.28925204277039,2,3,3,3,-9.41,-1.12,2.35,-0.38,-0.12,-0.28
12.29925203323364,2,3,3,3,-9.35,-1.16,2.27,-0.37,-0.09,-0.24
12.3092520236969,2,3,3,3,-9.359999999999999,-1.21,2.32,-0.42,0.01,-0.24
12.31925201416016,2,3,3,3,-9.41,-1.18,2.38,-0.43,0.14,-0.2
12.32925200462341,2,3,3,3,-9.4,-1.15,2.42,-0.39,0.2,-0.17
12.33925199508667,2,3,3,3,-9.51,-1.03,2.33,-0.57,0.3,-0.13
12.34925198554993,2,3,3,3,-9.59,-1,2.32,-0.64,0.43,-0.1
12.35925197601318,2,3,3,3,-9.56,-0.96,2.35,-0.51,0.49,-0.14
12.36925196647644,2,3,3,3,-9.529999999999999,-0.96,2.39,-0.44,0.46,-0.25
12.3792519569397,2,3,3,3,-9.44,-1.01,2.49,-0.38,0.5,-0.37
12.38925194740295,2,3,3,3,-9.359999999999999,-1.05,2.42,-0.45,0.48,-0.5
12.39925193786621,2,3,3,3,-9.34,-1.1,2.29,-0.59,0.58,-0.57
12.4102520942688,2,3,3,3,-9.41,-1.11,2.26,-0.68,0.78,-0.63
12.42025208473206,2,3,3,3,-9.49,-1.13,2.26,-0.73,0.89,-0.59
12.43025207519531,2,3,3,3,-9.550000000000001,-1.15,2.28,-0.5600000000000001,0.95,-0.51
12.44025206565857,2,3,3,3,-9.52,-1.17,2.37,-0.33,0.76,-0.36
12.45025205612183,2,3,3,3,-9.460000000000001,-1.23,2.32,-0.29,0.39,-0.26
12.46025204658508,2,3,3,3,-9.41,-1.25,2.13,-0.47,0.19,-0.21
12.47025203704834,2,3,3,3,-9.44,-1.26,2.11,-0.71,0.14,-0.22
12.4802520275116,2,3,3,3,-9.49,-1.25,2.18,-0.66,0.17,-0.18
12.49025201797485,2,3,3,3,-9.539999999999999,-1.27,2.22,-0.53,0.08,-0.14
12.50025200843811,2,3,3,3,-9.44,-1.25,2.07,-0.48,-0.08,-0.14
12.51025199890137,2,3,3,3,-9.4,-1.24,2.18,-0.44,-0.14,-0.16
12.52025198936462,2,3,3,3,-9.369999999999999,-1.26,2.25,-0.31,-0.06,-0.22
12.53025197982788,2,3,3,3,-9.33,-1.29,2.36,-0.2,0.04,-0.26
12.54025197029114,2,3,3,3,-9.44,-1.28,2.33,-0.2,0.19,-0.24
12.55025196075439,2,3,3,3,-9.550000000000001,-1.23,2.26,-0.23,0.42,-0.18
12.56025195121765,2,3,3,3,-9.640000000000001,-1.15,2.23,-0.18,0.48,-0.15
12.57025194168091,2,3,3,3,-9.65,-1.02,2.44,0.02,0.47,-0.14
12.58025193214417,2,3,3,3,-9.58,-0.97,2.42,0.17,0.35,-0.19
12.590252161026,2,3,3,3,-9.5,-0.97,2.29,0.12,0.07000000000000001,-0.25
12.60025215148926,2,3,3,3,-9.42,-0.99,2.13,-0.18,-0.2,-0.31
12.61025214195251,2,3,3,3,-9.4,-1.13,1.94,-0.36,-0.2,-0.35
12.62025213241577,2,3,3,3,-9.49,-1.22,2,-0.6899999999999999,-0.02,-0.39
12.63025212287903,2,3,3,3,-9.6,-1.28,2.13,-0.67,0.13,-0.34
12.64025211334229,2,3,3,3,-9.67,-1.35,2.16,-0.39,-0.01,-0.27
12.65025210380554,2,3,3,3,-9.630000000000001,-1.36,1.94,-0.23,-0.4,-0.17
12.6602520942688,2,3,3,3,-9.539999999999999,-1.37,1.97,0.08,-0.7,-0.08
12.67025208473206,2,3,3,3,-9.44,-1.37,2,0.4,-0.77,0
12.68025207519531,2,3,3,3,-9.380000000000001,-1.34,1.99,0.49,-0.75,-0.04
12.69025206565857,2,3,3,3,-9.32,-1.32,1.96,0.5,-0.65,-0.1
12.70025205612183,2,3,3,3,-9.35,-1.31,1.95,0.55,-0.38,-0.15
12.71025204658508,2,3,3,3,-9.390000000000001,-1.26,1.97,0.63,-0.18,-0.11
12.72025203704834,2,3,3,3,-9.48,-1.26,2.08,0.59,-0.08,-0.06
12.7302520275116,2,3,3,3,-9.49,-1.28,2.09,0.5600000000000001,-0.01,0.01
12.74025201797485,2,3,3,3,-9.539999999999999,-1.3,2.05,0.41,0.05,0.07000000000000001
12.75025200843811,2,3,3,3,-9.56,-1.33,2,0.31,0.17,0.08
12.76025199890137,2,3,3,3,-9.550000000000001,-1.28,2.01,0.33,0.26,0.04
12.77025198936462,2,3,3,3,-9.56,-1.3,2.03,0.14,0.21,-0.04
12.78025197982788,2,3,3,3,-9.6,-1.27,2.08,0.11,0.28,-0.09
12.79025197029114,2,3,3,3,-9.66,-1.24,2.17,0.33,0.19,-0.11
12.80025196075439,2,3,3,3,-9.6,-1.18,2.03,0.55,0.03,-0.08
12.81025195121765,2,3,3,3,-9.529999999999999,-1.15,2.07,0.66,-0.16,-0.05
12.82025194168091,2,3,3,3,-9.460000000000001,-1.13,2.18,0.71,-0.22,0.04
12.83025193214417,2,3,3,3,-9.41,-1.07,2.23,0.72,-0.28,0.09
12.840252161026,2,3,3,3,-9.35,-1.06,2.07,0.5600000000000001,-0.27,0.13
12.85025215148926,2,3,3,3,-9.4,-1.05,2.07,0.24,-0.17,0.17
12.86025214195251,2,3,3,3,-9.449999999999999,-1.07,2.14,0.02,-0.06,0.23
12.87025213241577,2,3,3,3,-9.49,-1.1,2.18,-0.27,-0.07000000000000001,0.26
12.88025212287903,2,3,3,3,-9.6,-1.15,2.09,-0.51,0.03,0.25
12.89025211334229,2,3,3,3,-9.609999999999999,-1.18,2.09,-0.68,0.08,0.24
12.90025210380554,2,3,3,3,-9.609999999999999,-1.27,2.06,-0.67,0.15,0.23
12.9102520942688,2,3,3,3,-9.57,-1.3,2.14,-0.53,0.07000000000000001,0.16
12.92025208473206,2,3,3,3,-9.550000000000001,-1.29,2.08,-0.44,-0.09,0.07000000000000001
12.93025207519531,2,3,3,3,-9.5,-1.28,2.08,-0.42,-0.15,-0.04
12.94025206565857,2,3,3,3,-9.49,-1.3,2.08,-0.31,-0.13,-0.09
12.95025205612183,2,3,3,3,-9.52,-1.33,2.08,-0.21,-0.1,-0.04
12.96025204658508,2,3,3,3,-9.49,-1.35,2.11,-0.08,-0.11,-0.05
12.97025203704834,2,3,3,3,-9.470000000000001,-1.36,2.07,-0.15,-0.09,-0.01
12.9802520275116,2,3,3,3,-9.44,-1.31,2.03,-0.3,0.06,0.01
12.99025201797485,2,3,3,3,-9.529999999999999,-1.27,2.14,-0.28,0.2,0
13.00025200843811,2,3,3,3,-9.470000000000001,-1.26,2.01,-0.21,0.15,-0.01
13.01025199890137,2,3,3,3,-9.44,-1.31,2.04,-0.28,0.1,-0.04
13.02025198936462,2,3,3,3,-9.449999999999999,-1.33,2.05,-0.25,0.23,-0.03
13.03025197982788,2,3,3,3,-9.529999999999999,-1.31,2.1,-0.21,0.31,-0.03
13.04025197029114,2,3,3,3,-9.59,-1.26,2.06,-0.2,0.31,-0.03
13.05025196075439,2,3,3,3,-9.67,-1.23,2.07,-0.11,0.22,-0.03
13.06025195121765,2,3,3,3,-9.6,-1.21,2.04,-0.02,0.06,-0.02
13.07025194168091,2,3,3,3,-9.460000000000001,-1.26,2.22,-0.07000000000000001,0.04,0.01
13.08025193214417,2,3,3,3,-9.460000000000001,-1.26,2.25,-0.03,0.2,-0.04
13.090252161026,2,3,3,3,-9.460000000000001,-1.26,2.21,0.03,0.21,-0.1
13.10025215148926,2,3,3,3,-9.529999999999999,-1.24,2.09,-0.09,0.15,-0.09
13.11025214195251,2,3,3,3,-9.550000000000001,-1.23,2.08,-0.08,0.09,-0.09
13.12025213241577,2,3,3,3,-9.550000000000001,-1.24,2.1,-0.04,0.01,-0.04
13.13025212287903,2,3,3,3,-9.49,-1.29,2.11,0.05,0,-0.01
13.14025211334229,2,3,3,3,-9.41,-1.28,2.13,0.1,0.01,0.01
13.15025210380554,2,3,3,3,-9.44,-1.28,2.06,0.11,0.08,0.01
13.1602520942688,2,3,3,3,-9.460000000000001,-1.24,2.1,0.08,0.14,-0.02
13.17025208473206,2,3,3,3,-9.5,-1.24,2.13,0.03,0.23,-0.05
13.18025207519531,2,3,3,3,-9.52,-1.22,2.19,0.1,0.29,-0.07000000000000001
13.19025206565857,2,3,3,3,-9.529999999999999,-1.19,2.17,0.24,0.3,-0.11
13.20025205612183,2,3,3,3,-9.5,-1.22,2.08,0.3,0.23,-0.13
13.21025204658508,2,3,3,3,-9.52,-1.21,2.09,0.27,0.16,-0.1
13.22025203704834,2,3,3,3,-9.51,-1.19,2.11,0.22,0.12,-0.11
13.2302520275116,2,3,3,2,-9.49,-1.18,2.12,0.2,0.17,-0.12
13.24025201797485,2,3,3,2,-9.49,-1.21,2.15,0.19,0.23,-0.11
13.25025200843811,2,3,3,2,-9.470000000000001,-1.21,2.07,0.17,0.22,-0.11
13.26025199890137,2,3,3,2,-9.48,-1.22,2.12,0.15,0.19,-0.1
13.27025198936462,2,3,3,2,-9.49,-1.24,2.13,0.17,0.18,-0.05
13.28025197982788,2,3,3,2,-9.48,-1.27,2.13,0.16,0.17,-0.01
13.29025197029114,2,3,3,2,-9.49,-1.22,2,0.04,0.17,0
13.30025196075439,2,3,3,2,-9.49,-1.21,1.97,0.01,0.21,-0.02
13.31025195121765,2,3,3,2,-9.5,-1.18,2.05,0.03,0.3,-0.07000000000000001
13.32025194168091,2,3,3,2,-9.539999999999999,-1.16,2.15,0.14,0.36,-0.12
13.33025193214417,2,3,3,2,-9.52,-1.18,2.2,0.19,0.39,-0.12
13.340252161026,2,3,3,2,-9.48,-1.2,2.23,0.16,0.33,-0.16
13.35025215148926,2,3,3,2,-9.470000000000001,-1.19,2.16,0.12,0.26,-0.14
13.36025214195251,2,3,3,2,-9.44,-1.18,2.12,0.11,0.22,-0.12
13.37025213241577,2,3,3,2,-9.460000000000001,-1.17,2.14,0.08,0.24,-0.08
13.38025212287903,2,3,3,2,-9.48,-1.11,2.15,0.1,0.21,-0.03
13.39025211334229,2,3,3,2,-9.48,-1.12,2.13,0.11,0.16,-0.01
13.40025210380554,2,3,3,2,-9.51,-1.12,2.03,0.06,0.17,-0.02
13.4102520942688,2,3,3,2,-9.550000000000001,-1.12,2.08,0.02,0.18,-0.02
13.42025208473206,2,3,3,2,-9.57,-1.14,2.12,0.07000000000000001,0.18,-0.04
13.43125200271606,2,3,3,2,-9.550000000000001,-1.16,2.17,0.12,0.08,-0.02
13.44125199317932,2,3,3,2,-9.49,-1.21,2.14,0.13,-0.01,0
13.45125198364258,2,3,3,2,-9.49,-1.2,2.04,0.04,-0.1,-0.01
13.46125197410583,2,3,3,2,-9.5,-1.21,2.07,-0.04,-0.1,0.02
13.47125196456909,2,3,3,2,-9.529999999999999,-1.2,2.09,-0.11,-0.08,0.01
13.48125195503235,2,3,3,2,-9.56,-1.21,2.12,-0.13,-0.06,0.04
13.49125194549561,2,3,3,2,-9.6,-1.22,2.15,-0.18,-0.1,0.06
13.50125193595886,2,3,3,2,-9.66,-1.25,2.08,-0.22,-0.22,0.15
13.5112521648407,2,3,3,2,-9.699999999999999,-1.34,2.06,-0.34,-0.36,0.2
13.52125215530396,2,3,3,2,-9.699999999999999,-1.49,2.2,-0.41,-0.4,0.22
13.53125214576721,2,3,3,2,-9.699999999999999,-1.49,2.2,-0.44,-0.45,0.12
13.54125213623047,2,3,3,2,-9.710000000000001,-1.58,2.2,-0.53,-0.49,-0.09
13.55125212669373,2,3,3,2,-9.630000000000001,-1.79,2.03,-0.67,-0.44,-0.39
13.56125211715698,2,3,3,2,-9.52,-1.94,2.09,-0.58,-0.21,-0.76
13.57125210762024,2,3,3,2,-9.380000000000001,-1.89,2.12,-0.24,0.03,-1.17
13.5812520980835,2,3,3,2,-9.380000000000001,-1.89,2.12,0.19,0.09,-1.65
13.59125208854675,2,3,3,2,-8.970000000000001,-1.87,2.33,0.65,-0.01,-2.05
13.60125207901001,2,3,3,2,-8.68,-1.94,2.47,1.21,-0.09,-2.17
13.61125206947327,2,3,3,2,-8.75,-1.96,2.67,1.74,-0.1,-1.99
13.62125205993652,2,3,3,2,-8.869999999999999,-1.85,2.87,2.36,-0.04,-1.55
13.63125205039978,2,3,3,2,-8.869999999999999,-1.85,2.87,2.93,0.04,-0.92
13.64125204086304,2,3,3,2,-9.130000000000001,-1.36,3.08,3.34,0.14,-0.38
13.65125203132629,2,3,3,2,-9.08,-0.78,3.07,3.5,0.12,0.02
13.66125202178955,2,3,3,2,-8.99,-0.52,3.23,3.6,-0.19,0.28
13.67125201225281,2,3,3,2,-8.880000000000001,-0.32,3.51,3.45,-0.64,0.46
13.68125200271606,2,3,3,2,-8.880000000000001,-0.32,3.51,2.84,-0.87,0.66
13.69125199317932,2,3,3,2,-9,-0.28,3.57,1.88,-0.79,0.88
13.70125198364258,2,3,3,2,-9.57,-0.36,3.48,0.92,-0.53,1.04
13.71125197410583,2,3,3,2,-9.92,-0.4,3.47,0.55,-0.66,1.05
13.72125196456909,2,3,3,2,-9.789999999999999,-0.6,3.31,-0.04,-1.4,0.96
13.73125195503235,2,3,3,2,-9.789999999999999,-0.6,3.31,-0.91,-1.61,0.78
13.74125194549561,2,3,3,2,-9.76,-0.86,3.3,-1.23,-1.69,0.43
13.75125193595886,2,3,3,2,-9.369999999999999,-1.55,2.78,-1.63,-1.98,0.12
13.7612521648407,2,3,3,2,-9.48,-1.65,3.05,-1.93,-1.77,-0.09
13.77125215530396,2,3,3,2,-9.44,-1.69,2.99,-1.54,-1.65,-0.12
13.78125214576721,2,3,3,2,-9.44,-1.69,2.99,-1.18,-1.97,-0.13
13.79125213623047,2,3,3,2,-9.279999999999999,-1.8,2.65,-0.34,-2.3,-0.1
13.80125212669373,2,3,3,2,-8.9,-1.56,2.76,0.92,-2.77,-0.01
13.81125211715698,2,3,3,2,-8.68,-1.55,2.61,1.07,-3.07,0.1
13.82125210762024,2,3,3,2,-8.56,-1.19,2.64,1.55,-2.81,0.21
13.8312520980835,2,3,3,2,-8.56,-1.19,2.64,2,-2.96,0.31
13.84125208854675,2,3,3,2,-8.369999999999999,-1.1,2.48,1.65,-2.76,0.58
13.85125207901001,2,3,3,2,-8.630000000000001,-1.04,2.78,1.89,-2.05,0.98
13.86125206947327,2,3,3,2,-8.91,-1.09,2.33,1.71,-1.55,1.35
13.87125205993652,2,3,3,2,-9.07,-1.09,2.22,1.46,-0.9,1.55
13.88125205039978,2,3,3,2,-9.07,-1.09,2.22,1.23,-0.17,1.59
13.89125204086304,2,3,3,2,-9.18,-1.02,2.38,1.38,0.22,1.45
13.90125203132629,2,3,3,2,-9.449999999999999,-1.1,2.31,1.53,0.35,1.29
13.91125202178955,2,3,3,2,-9.550000000000001,-1.1,2.26,1.25,0.64,1.09
13.92125201225281,2,3,3,2,-9.630000000000001,-1.02,2.13,1.03,0.97,1.02
13.93125200271606,2,3,3,2,-9.630000000000001,-1.02,2.13,1.03,0.97,1.02
13.94125199317932,2,3,3,2,-9.68,-0.9,2.08,0.63,1.38,0.87
13.95125198364258,2,3,3,2,-9.81,-0.74,1.6,0.03,1.9,0.32
13.96125197410583,2,3,3,2,-9.859999999999999,-0.64,1.63,0.06,2.04,-0.09
13.97125196456909,2,3,3,2,-9.880000000000001,-0.54,1.65,0.1,1.93,-0.46
13.98125195503235,2,3,3,2,-9.880000000000001,-0.54,1.65,0.1,1.93,-0.46
13.99125194549561,2,3,3,2,-10.01,-0.3,2.02,0.08,1.75,-0.73
14.00125193595886,2,3,3,2,-9.94,-0.08,1.94,-0.38,1.22,-0.95
14.0112521648407,2,3,3,2,-9.74,-0.05,1.93,-0.86,1.2,-0.85
14.02125215530396,2,3,3,2,-9.609999999999999,-0.14,2.04,-1.17,1.15,-0.73
14.03125214576721,2,3,3,2,-9.609999999999999,-0.14,2.04,-1.17,1.15,-0.73
14.04125213623047,2,3,3,2,-9.51,-0.29,2.16,-1.31,0.95,-0.61
14.05125212669373,2,3,3,2,-9.279999999999999,-0.62,2.11,-0.99,0.75,-0.3
14.06125211715698,2,3,3,2,-9.279999999999999,-0.62,2.11,-0.76,1.16,-0.15
14.07125210762024,2,3,3,2,-9.32,-0.62,2.12,-0.51,1.54,0.04
14.0812520980835,2,3,3,2,-9.42,-0.57,2.09,-0.51,1.54,0.04
14.09125208854675,2,3,3,2,-9.449999999999999,-0.43,2.12,-0.17,1.87,0.14
14.10125207901001,2,3,3,2,-9.56,-0.24,2.02,0.03,2.6,0.17
14.11125206947327,2,3,3,2,-9.619999999999999,-0.24,1.85,0.16,2.99,0.17
14.12125205993652,2,3,3,2,-9.619999999999999,-0.26,1.8,0.48,3.29,0.02
14.13125205039978,2,3,3,2,-9.640000000000001,-0.24,1.78,0.48,3.29,0.02
14.14125204086304,2,3,3,2,-9.67,-0.35,1.79,0.8,3.34,-0.22
14.15125203132629,2,3,3,2,-9.630000000000001,-0.36,1.83,1.72,2.76,-0.54
14.16125202178955,2,3,3,2,-9.56,-0.34,1.76,1.91,2.45,-0.65
14.17125201225281,2,3,3,2,-9.4,-0.26,1.83,1.86,2.45,-0.62
14.18125200271606,2,3,3,2,-9.23,-0.15,1.9,1.86,2.45,-0.62
14.19125199317932,2,3,3,2,-9.26,-0.11,1.95,1.59,2.63,-0.49
14.20125198364258,2,3,3,2,-9.31,-0.1,1.87,0.82,2.64,-0.36
14.21125197410583,2,3,3,2,-9.51,-0.24,1.73,0.5,2.39,-0.34
14.22125196456909,2,3,3,2,-9.550000000000001,-0.38,1.72,0.2,2.03,-0.33
14.23125195503235,2,3,3,2,-9.609999999999999,-0.48,1.68,0.2,2.03,-0.33
14.24125194549561,2,3,3,2,-9.619999999999999,-0.5,1.54,0.09,1.74,-0.34
14.25125193595886,2,3,3,2,-9.68,-0.61,1.78,0.79,1.33,-0.63
14.2612521648407,2,3,3,2,-9.65,-0.62,1.72,1.19,0.96,-0.87
14.27125215530396,2,3,3,2,-9.65,-0.64,1.81,1.37,0.78,-1.06
14.28125214576721,2,3,3,2,-9.65,-0.6,1.88,1.37,0.78,-1.06
14.29125213623047,2,3,3,2,-9.710000000000001,-0.57,1.95,1.54,0.64,-1.21
14.30125212669373,2,3,3,2,-9.779999999999999,-0.48,1.91,2.01,0.48,-1.3
14.31125211715698,2,3,3,2,-9.77,-0.32,1.79,2.29,0.39,-1.32
14.32125210762024,2,3,3,2,-9.710000000000001,-0.23,1.8,2.62,0.27,-1.32
14.3312520980835,2,3,3,2,-9.58,-0.04,1.98,2.62,0.27,-1.32
14.34125208854675,2,3,3,2,-9.52,0.02,1.93,2.71,0.04,-1.33
14.35125207901001,2,3,3,2,-9.48,0.05,1.94,2.4,0.05,-1.26
14.36125206947327,2,3,3,2,-9.52,0.12,1.87,2.26,-0.04,-1.29
14.37125205993652,2,3,3,2,-9.460000000000001,0.05,1.85,2.12,0.04,-1.4
14.38125205039978,2,3,3,2,-9.43,0,1.73,2.12,0.04,-1.4
14.39125204086304,2,3,3,2,-9.5,-0.07000000000000001,1.69,1.97,0.29,-1.6
14.40125203132629,2,3,3,2,-9.539999999999999,-0.1,1.53,2.14,0.37,-2.2
14.41125202178955,2,3,3,2,-9.51,-0.08,1.39,2.09,0.25,-2.53
14.42125201225281,2,3,3,2,-9.43,-0.11,1.39,2.19,0.15,-2.8
14.43125200271606,2,3,3,2,-9.359999999999999,-0.1,1.45,2.19,0.15,-2.8
14.44125199317932,2,3,3,2,-9.380000000000001,-0.1,1.49,2.43,0.1,-2.87
14.45125198364258,2,3,3,2,-9.44,-0.14,1.56,3.49,-0.15,-2.63
14.46225214004517,2,3,3,2,-9.42,-0.08,1.45,3.87,-0.41,-2.46
14.47225213050842,2,3,3,2,-9.35,-0.01,1.4,3.99,-0.34,-2.28
14.48225212097168,2,3,3,2,-9.4,0.05,1.6,3.99,-0.34,-2.28
14.49225211143494,2,3,3,2,-9.51,0.05,1.59,4.13,-0.06,-2.13
14.50225210189819,2,3,3,2,-9.720000000000001,0.07000000000000001,1.49,3.68,0.39,-2.15
14.51225209236145,2,3,3,2,-9.93,0.04,1.34,3.8,0.49,-2.29
14.52225208282471,2,3,3,2,-10.21,-0.04,1.34,4.31,0.37,-2.65
14.53225207328796,2,3,3,2,-10.23,-0.05,1.37,4.31,0.37,-2.65
14.54225206375122,2,3,3,2,-10.15,-0.08,1.49,5.05,0.29,-3.19
14.55225205421448,2,3,3,2,-10.08,-0.12,1.67,6.39,0.6899999999999999,-4.05
14.56225204467773,2,3,3,2,-10.38,-0.04,1.83,6.87,0.72,-3.84
14.57225203514099,2,3,3,2,-10.68,0.04,1.93,6.99,0.53,-3.19
14.58225202560425,2,3,3,2,-10.86,0.24,2,6.99,0.53,-3.19
14.5922520160675,2,3,3,2,-11.01,0.48,2.45,6.89,0.43,-2.44
14.60225200653076,2,3,3,2,-11.22,0.52,2.6,5.26,0.82,-1.38
14.61225199699402,2,3,3,2,-11.46,0.53,2.45,3.64,1.1,-1.15
14.62225198745728,2,3,3,2,-11.72,0.5600000000000001,2.28,1.97,1.65,-0.88
14.63225197792053,2,3,3,2,-12.12,0.66,1.65,1.97,1.65,-0.88
14.64225196838379,2,3,3,2,-12.14,0.82,1.32,0.62,2.31,-0.71
14.65225195884705,2,3,3,2,-12.02,0.86,1.18,-1,2.01,-0.51
14.6622519493103,2,3,3,2,-11.88,0.68,1.04,-1.24,0.77,-0.51
14.67225193977356,2,3,3,2,-11.68,-0.1,1.61,-1.24,-0.27,-0.51
14.68225193023682,2,3,3,2,-11.69,-0.78,1.98,-1.24,-0.27,-0.51
14.69225215911865,2,3,3,2,-11.61,-1.46,1.84,-1.08,-1.06,-0.5
14.70225214958191,2,3,3,2,-11.38,-1.91,1.62,-0.23,-0.68,-0.22
14.71225214004517,2,3,3,2,-10.75,-2.22,1.55,0.5,-0.6899999999999999,0.16
14.72225213050842,2,3,3,2,-10.3,-2.35,1.59,0.53,-1,0.7
14.73225212097168,2,3,3,2,-9.81,-2.44,1.67,0.53,-1,0.7
14.74225211143494,2,3,3,2,-9.09,-2.61,1.6,0.39,-0.8100000000000001,1.32
14.75225210189819,2,3,3,2,-8.94,-2.79,1.46,-0.46,0.5,2.4
14.76225209236145,2,3,3,2,-8.91,-3.03,1.33,-0.72,1.05,2.52
14.77225208282471,2,3,3,2,-8.970000000000001,-3.26,1.31,-0.9,1.45,2.49
14.78225207328796,2,3,3,2,-8.98,-3.58,1.33,-0.9,1.45,2.49
14.79225206375122,2,3,3,1,-8.92,-3.68,1.37,-1.2,1.51,2.52
14.80225205421448,2,3,3,1,-8.69,-3.69,1.42,-1.66,1.22,3
14.81225204467773,2,3,3,1,-8.41,-3.78,1.36,-1.58,1.41,3.21
14.82225203514099,2,3,3,1,-8.07,-4.07,1.37,-1.06,1.85,3.13
14.83225202560425,2,3,3,1,-8.01,-4.26,1.37,-1.06,1.85,3.13
14.8422520160675,2,3,3,0,-8.06,-4.31,1.37,-0.1,2.19,3.09
14.85225200653076,2,3,3,0,-8.06,-4.33,1.31,2.95,1.72,3.65
14.86225199699402,2,3,3,0,-8.199999999999999,-3.8,1.42,5.08,1.38,4.23
14.87225198745728,2,3,3,0,-8.380000000000001,-3.41,1.87,7.15,0.68,4.88
14.88225197792053,2,3,3,0,-8.65,-2.82,2.15,7.15,0.68,4.88
14.89225196838379,2,3,3,0,-8.9,-2.21,2.47,8.289999999999999,0.06,5.48
14.90225195884705,2,3,3,0,-9.56,-0.92,3.05,8.24,-0.88,6.27
14.9122519493103,2,3,3,0,-9.93,-0.21,3.15,7.08,-1.57,6.14
14.92225193977356,2,3,3,0,-10.28,0.45,3.34,5.46,-2.37,5.79
14.93225193023682,2,3,3,0,-10.63,0.89,3.57,5.46,-2.37,5.79
14.94225215911865,2,3,3,0,-10.74,1.06,3.76,3.49,-3.71,5.33
14.95225214958191,2,3,3,0,-10.64,0.95,3.47,-1.57,-6.73,3.58
14.96225214004517,2,3,3,0,-10.45,0.5600000000000001,3.02,-3.89,-7.27,2.7
14.97225213050842,2,3,3,0,-10.24,-0.31,2.84,-5.14,-7.35,1.98
14.98225212097168,2,3,3,0,-10.04,-0.66,2.73,-5.14,-7.35,1.98
14.99225211143494,2,3,3,0,-9.630000000000001,-0.8,2.48,-6.04,-8,1.16
15.00225210189819,2,3,3,0,-9.029999999999999,-0.93,2.18,-7.09,-8.390000000000001,-0.36
15.01225209236145,2,3,3,0,-7.94,-1.04,1.96,-7.09,-8.390000000000001,-0.36
15.02225208282471,2,3,3,0,-7.57,-1.16,2.22,-6.35,-7.04,-0.32
15.05225205421448,2,3,3,0,-7.74,-1.19,2.69,-5.42,-6.12,0.97
15.06225204467773,2,3,3,0,-8.08,-1.13,2.67,-5.61,-5.94,1.91
15.07225203514099,2,3,3,0,-8.42,-1.08,2.73,-5.65,-6.45,2.59
15.08225202560425,2,3,3,0,-8.74,-1.01,2.77,-5.37,-7.03,3.18
15.0922520160675,2,3,3,0,-8.609999999999999,-0.5600000000000001,2.79,-4.86,-7.44,3.49
15.10225200653076,2,3,3,0,-8.48,-0.54,2.87,-4.45,-7.64,3.4
15.11225199699402,2,3,3,0,-8.529999999999999,-0.37,3.08,-3.99,-7.06,3
15.12225198745728,2,3,3,0,-8.76,0.27,3.68,-3.03,-5.93,2.71
15.13225197792053,2,3,3,0,-8.76,0.53,3.77,-2.25,-4.93,2.33
15.14225196838379,2,3,3,0,-8.75,0.83,3.8,-1.79,-4.39,1.87
15.15225195884705,2,3,3,0,-8.65,0.91,3.77,-1.9,-4.07,1.59
15.1622519493103,2,3,3,0,-8.390000000000001,0.95,3.39,-2.34,-3.45,1.28
15.17225193977356,2,3,3,0,-8.210000000000001,0.89,3.37,-3.04,-2.82,1.07
15.18225193023682,2,3,3,0,-8.039999999999999,0.92,3.35,-3.75,-2.32,0.67
15.19225215911865,2,3,3,0,-7.85,0.85,3.33,-4.26,-1.7,0.22
15.20225214958191,2,3,3,0,-7.47,0.77,3.32,-4.51,-0.9,-0.19
15.21225214004517,2,3,3,0,-7.25,0.76,3.35,-4.73,-0.13,-0.54
15.22225213050842,2,3,3,0,-7.13,0.73,3.46,-4.65,0.5600000000000001,-0.67
15.23225212097168,2,3,3,0,-7.14,0.76,3.5,-4.57,1.22,-0.59
15.24225211143494,2,3,3,0,-7.34,0.86,3.55,-4.67,1.85,-0.31
15.25225210189819,2,3,3,0,-7.56,0.88,3.67,-4.71,2.74,0.11
15.26225209236145,2,3,3,0,-7.92,0.93,3.8,-4.34,3.68,0.53
15.27225208282471,2,3,3,0,-8.27,0.93,3.98,-3.93,4.2,0.99
15.28225207328796,2,3,3,0,-8.81,0.72,4.18,-3.9,4.05,1.48
15.29225206375122,2,3,3,0,-9.029999999999999,0.55,4.12,-4.24,3.55,1.96
15.30225205421448,2,3,3,0,-9.279999999999999,0.31,4.1,-4.86,3.14,2.45
15.31225204467773,2,3,3,0,-9.82,-0.3,3.9,-5.63,2.61,2.61
15.32225203514099,2,3,3,0,-9.970000000000001,-0.57,3.69,-6.65,1.7,2.49
15.33225202560425,2,3,3,0,-10.13,-0.67,3.48,-7.96,0.47,2.19
15.3422520160675,2,3,3,0,-10.4,-0.63,3.32,-9.050000000000001,-0.55,1.7
15.35225200653076,2,3,3,0,-10.87,-0.15,3.08,-9.369999999999999,-1.09,1.1
15.36225199699402,2,3,3,0,-10.95,0.29,3.24,-8.859999999999999,-1.61,0.76
15.37225198745728,2,3,3,0,-10.74,0.97,3.82,-6.58,-2.02,0.78
15.38225197792053,2,3,3,0,-10.39,1.66,4.7,-3.28,-2.35,1.25
15.39225196838379,2,3,3,0,-9.640000000000001,2.87,6.01,-0.3,-2.58,2.1
15.40225195884705,2,3,3,0,-9.25,3.31,6.45,0.62,-2.99,3.21
15.4122519493103,2,3,3,0,-9.67,3.22,6.77,-1.3,-3.51,4.43
15.42225193977356,2,3,3,0,-10.47,2.81,6.44,-4.44,-3.62,6.09
15.43225193023682,2,3,3,0,-12.49,1.19,5.15,-8.550000000000001,-3.66,7.58
15.44225215911865,2,3,3,0,-14.05,0.15,4.9,-11.92,-2.66,7.87
15.45225214958191,2,3,3,0,-15.34,-1.13,3.99,-13.33,-1.19,7.13
15.46225214004517,2,3,3,0,-16.47,-2.51,3.11,-13.22,0.36,5.1
15.47225213050842,2,3,3,0,-16.62,-3.35,1.25,-11.85,0.8100000000000001,2.14
15.48325204849243,2,3,3,0,-13.97,-2.57,2.05,-7.74,-2.38,-0.8100000000000001
15.49325203895569,2,3,3,0,-10.43,-2.06,3.82,-1.91,-7.73,-2.61
15.50325202941895,2,3,3,0,-5.48,-2.4,5.5,2.25,-11.64,-2.73
15.5132520198822,2,3,3,0,-4.32,-2.66,5.4,4.07,-11.76,-1.61
15.52325201034546,2,3,3,0,-4.23,-2.61,4.96,4.73,-7.96,-0.17
15.53325200080872,2,3,3,0,-5.07,-2.32,4.17,4.83,-3,1.32
15.54325199127197,2,3,3,0,-7.41,-1.05,3.06,3.38,0.78,2.54
15.55325198173523,2,3,3,0,-8.59,-0.58,2.27,0.99,3.73,2.67
15.56325197219849,2,3,3,0,-9.77,-0.35,1.5,-0.92,6.15,1.92
15.57325196266174,2,3,3,0,-10.86,-0.42,0.87,-1.96,8.07,0.82
15.583251953125,2,3,3,0,-11.91,-1.33,0,-3.44,8.19,-0.63
15.59325194358826,2,3,3,0,-11.8,-2.11,0.04,-4.79,6.66,-2.18
15.60325193405151,2,3,3,0,-11.18,-2.84,0.34,-5.85,3.64,-3.31
15.61325216293335,2,3,3,0,-10.18,-3.49,0.73,-6.67,-0.48,-3.64
15.62325215339661,2,3,3,0,-8.039999999999999,-4.02,1.52,-6.7,-3.89,-3.31
15.63325214385986,2,3,3,0,-7.27,-4.13,1.87,-5.88,-5.14,-2.69
15.64325213432312,2,3,3,0,-6.73,-3.77,2.22,-4.58,-4.96,-1.75
15.65325212478638,2,3,3,0,-6.43,-3.27,2.47,-3.04,-3.74,-0.5
15.66325211524963,2,3,3,0,-6.28,-2.35,2.43,-1.93,-1.85,0.99
15.68325209617615,2,3,3,0,-6.97,-2.35,2.2,-0.6,2.1,3.05
15.71325206756592,2,3,3,0,-8.640000000000001,-2.7,1.2,2.87,5.79,2.28
15.72325205802917,2,3,3,0,-8.99,-2.68,1.18,5,5.93,1.38
15.73325204849243,2,3,3,0,-9.15,-2.16,1.36,7.2,5.66,0.19
15.74325203895569,2,3,3,0,-9.050000000000001,-1.82,1.63,8.859999999999999,5.23,-1.03
15.75325202941895,2,3,3,0,-8.84,-1.39,1.84,10.15,4.58,-2.08
15.7632520198822,2,3,3,0,-8.550000000000001,-0.85,2.01,10.48,3.93,-2.74
15.77325201034546,2,3,3,0,-8.109999999999999,-0.01,2.45,10.21,3.72,-2.91
15.78325200080872,2,3,3,0,-8.08,0.14,2.38,9.119999999999999,4.04,-2.88
15.79325199127197,2,3,3,0,-8.23,0.29,2.61,7.68,4.55,-2.72
15.80325198173523,2,3,3,0,-8.529999999999999,0.29,2.51,6.34,4.89,-2.54
15.81325197219849,2,3,3,0,-9.31,-0.06,2.31,4.89,4.82,-2.55
15.82325196266174,2,3,3,0,-9.710000000000001,-0.36,2.31,3.46,4.5,-2.7
15.833251953125,2,3,3,0,-9.9,-0.47,2.07,2.46,4.14,-2.76
15.84325194358826,2,3,3,0,-9.94,-0.5600000000000001,1.91,1.97,3.7,-2.65
15.85325193405151,2,3,3,0,-9.74,-0.65,1.6,1.96,3.18,-2.64
15.86325216293335,2,3,3,0,-9.66,-0.51,1.62,2.31,2.66,-2.76
15.87325215339661,2,3,3,0,-9.56,-0.31,1.92,2.87,2.22,-2.89
15.88325214385986,2,3,3,0,-9.49,0.16,2.5,3.61,1.74,-3.03
15.89325213432312,2,3,3,0,-9.460000000000001,0.39,2.64,3.91,1.1,-3.13
15.92325210571289,2,3,3,0,-8.76,0.72,2.63,2.62,0.21,-3.32
15.93325209617615,2,3,3,0,-8.630000000000001,0.6,2.54,1.63,0.34,-3.29
15.9432520866394,2,3,3,0,-8.6,0.43,2.54,0.78,0.73,-3.19
15.95325207710266,2,3,3,0,-8.609999999999999,0.24,2.48,0.2,1.19,-3.12
15.96325206756592,2,3,3,0,-8.91,0.06,2.12,-0.29,1.41,-3.15
15.97325205802917,2,3,3,0,-9.210000000000001,-0.07000000000000001,2.13,-0.78,1.5,-3.16
15.98325204849243,2,3,3,0,-9.470000000000001,-0.17,2.07,-0.92,1.31,-3.28
15.99325203895569,2,3,3,0,-9.609999999999999,-0.26,2.07,-0.65,0.85,-3.55
16.00325202941895,2,3,3,0,-9.69,-0.63,2.09,0,0.23,-3.92
16.0132520198822,2,3,3,0,-9.69,-0.82,1.92,0.97,-0.35,-4.4
16.02325201034546,2,3,3,0,-9.68,-0.98,1.94,2.05,-0.71,-4.86
16.03325200080872,2,3,3,0,-9.67,-1.13,2.04,3.19,-1.15,-5.27
16.04325199127197,2,3,3,0,-9.449999999999999,-1.29,1.83,4.23,-1.6,-5.65
16.05325198173523,2,3,3,0,-9.390000000000001,-1.27,1.78,5.1,-1.87,-5.74
16.06325197219849,2,3,3,0,-9.359999999999999,-1.16,1.88,6.05,-1.62,-5.58
16.07325196266174,2,3,3,0,-9.44,-0.58,2.2,7,-1.1,-5.22
16.083251953125,2,3,3,0,-9.51,-0.08,1.99,7.61,-0.5,-4.74
16.09325194358826,2,3,3,0,-9.66,0.48,1.93,8.029999999999999,0.42,-4.22
16.10325193405151,2,3,3,0,-9.84,0.95,2.25,8.77,1.13,-3.66
16.11325216293335,2,3,3,0,-10,1.19,3.36,9.789999999999999,0.99,-3.18
16.12325215339661,2,3,3,0,-10.13,0.97,4.53,10.52,0.5,-2.87
16.13325214385986,2,3,3,0,-10.44,0.8100000000000001,5.29,11.17,0.22,-2.56
16.14325213432312,2,3,3,0,-10.77,0.64,5.34,10.76,0.03,-2.11
16.15325212478638,2,3,3,0,-11.36,0.74,4.55,9.050000000000001,0.64,-1.21
16.16325211524963,2,3,3,0,-11.65,1.16,3.95,7.01,2.71,-0.05
16.17325210571289,2,3,3,0,-12,1.61,3.44,4.56,5.16,0.92
16.18325209617615,2,3,3,0,-12.39,1.82,3.09,1.74,6.97,1.58
16.1932520866394,2,3,3,0,-13.48,1.63,2.53,-0.22,8.18,1.69
16.20325207710266,2,3,3,0,-14.04,1.05,1.95,-1.78,8.73,1.59
16.21325206756592,2,3,3,0,-14.35,0.24,1.3,-3.54,8.83,1.29
16.22325205802917,2,3,3,0,-14.38,-0.62,1.01,-5.19,8.68,0.89
16.23325204849243,2,3,3,0,-13.56,-3.11,1.25,-6.1,8.57,0.45
16.24325203895569,2,3,3,0,-12.57,-4.59,1.05,-6.55,8.699999999999999,0.26
16.25325202941895,2,3,3,0,-11.32,-5.94,0.62,-6.76,8.529999999999999,0.51
16.2632520198822,2,3,3,0,-9.31,-7.5,0.31,-6.53,7.52,1.04
16.27325201034546,2,3,3,0,-8.59,-7.82,0.36,-5.53,5.91,1.86
16.28325200080872,2,3,3,0,-7.91,-7.86,0.34,-4.19,4.16,2.93
16.29325199127197,2,3,3,0,-7.63,-7.63,0.42,-1.75,3.56,4.27
16.30325198173523,2,3,3,0,-8.08,-5.84,1.07,3.04,3.95,5.19
16.31325197219849,2,3,3,0,-8.279999999999999,-4.58,1.38,8.68,3.96,5.95
16.32325196266174,2,3,3,0,-8.32,-3.27,1.61,11.84,3.55,7.04
16.333251953125,2,3,3,0,-8.56,-2.08,2.16,12.63,3.82,7.98
16.34325194358826,2,3,3,0,-9.42,0.02,3.51,12.88,2.99,8.09
16.35325193405151,2,3,3,0,-9.859999999999999,0.8100000000000001,3.73,12.53,0.44,7.24
16.36325216293335,2,3,3,0,-10.03,1.2,3.38,10.49,-2.35,5.9
16.37325215339661,2,3,3,0,-10.11,1.38,2.99,6.84,-4.17,4.38
16.38325214385986,2,3,3,0,-9.92,1.08,2.53,3.49,-4.97,2.96
16.39325213432312,2,3,3,0,-9.59,0.6899999999999999,2.27,0.84,-5.74,1.96
16.40325212478638,2,3,3,0,-9.609999999999999,0.44,2.14,-1.3,-5.87,1.76
16.41325211524963,2,3,3,0,-9.67,0.17,1.86,-2.78,-6.25,1.82
16.42325210571289,2,3,3,0,-9.300000000000001,0.17,1.88,-4.2,-7.7,1.96
16.43325209617615,2,3,3,0,-8.75,0.13,1.9,-5.73,-9.140000000000001,2.06
16.4432520866394,2,3,3,0,-8.32,0.08,2.03,-6.95,-10.16,2.38
16.45325207710266,2,3,3,0,-7.38,-0.49,2.23,-7.75,-10.16,3.01
16.46325206756592,2,3,3,0,-7,-0.7,2.4,-8.59,-10.04,3.59
16.47325205802917,2,3,3,0,-7.05,-0.91,2.71,-9.31,-9.619999999999999,3.9
16.48325204849243,2,3,3,0,-7.33,-1.22,2.9,-9.890000000000001,-9.08,4.2
16.49325203895569,2,3,3,0,-7.74,-1.77,2.81,-10.14,-9.09,4.48
16.5042519569397,2,3,3,0,-7.87,-2.1,2.56,-10.33,-9.15,4.59
16.51425194740295,2,3,3,0,-8.08,-2.31,2.32,-10.3,-8.4,4.44
16.52425193786621,2,3,3,0,-8.41,-2.29,2.34,-9.369999999999999,-7.02,4.17
16.53425192832947,2,3,3,0,-8.43,-1.89,2.36,-7.64,-6.23,3.83
16.5442521572113,2,3,3,0,-8.279999999999999,-1.62,2.45,-5.82,-6.1,3.37
16.55425214767456,2,3,3,0,-8.18,-1.41,2.72,-4.15,-5.87,2.87
16.56425213813782,2,3,3,0,-8.19,-1.17,2.92,-2.54,-5.6,2.37
16.57425212860107,2,3,3,0,-8.26,-0.62,3.2,-1.4,-5.44,2.16
16.58425211906433,2,3,3,0,-8.17,-0.37,3.22,-1.24,-5.66,2.17
16.59425210952759,2,3,3,0,-8.050000000000001,-0.16,3.33,-1.54,-5.36,2.07
16.60425209999084,2,3,3,0,-7.97,0.03,3.42,-1.73,-4.54,1.87
16.6142520904541,2,3,3,0,-8.039999999999999,0.28,3.18,-1.75,-3.49,1.55
16.62425208091736,2,3,3,0,-8.01,0.38,3.09,-1.86,-2.38,1.12
16.63425207138062,2,3,3,0,-7.97,0.55,3.11,-1.81,-1.4,0.43
16.64425206184387,2,3,3,0,-7.84,0.76,3.29,-1.47,-0.78,-0.35
16.65425205230713,2,3,3,0,-7.7,0.82,3.41,-1.05,-0.2,-0.9
16.66425204277039,2,3,3,0,-7.55,0.96,3.32,-0.82,0.37,-1.29
16.67425203323364,2,3,3,0,-7.4,1.17,3.32,-0.75,1.16,-1.6
16.6842520236969,2,3,3,0,-7.19,1.56,3.66,-0.64,2.21,-1.73
16.69425201416016,2,3,3,0,-7.23,1.78,3.96,-0.39,3.49,-1.8
16.70425200462341,2,3,3,0,-7.36,1.94,4.25,-0.04,4.84,-1.74
16.71425199508667,2,3,3,0,-7.6,2.04,4.44,-0.07000000000000001,5.7,-1.6
16.72425198554993,2,3,3,0,-8.49,2.15,4.81,-0.41,6.06,-1.22
16.73425197601318,2,3,3,0,-8.76,2.15,4.7,-1.08,5.58,-0.53
16.74425196647644,2,3,3,0,-8.94,2.03,4.43,-2.12,4.58,0.25
16.7542519569397,2,3,3,0,-9.050000000000001,1.77,4.23,-3.13,3.65,1.23
16.76425194740295,2,3,3,0,-9.1,0.43,3.58,-4.86,3.13,2.03
16.77425193786621,2,3,3,0,-9.1,-0.65,3.45,-7.74,2.97,2.3
16.78425192832947,2,3,3,0,-9.140000000000001,-1.9,3.07,-10.98,2.81,1.83
16.7942521572113,2,3,3,0,-9.720000000000001,-3.32,0.39,-13.99,2.54,0.58
16.80425214767456,2,3,3,0,-11.08,-2.88,0.08,-15.82,3.03,-1.37
16.81425213813782,2,3,3,0,-13,-1.81,1.74,-13.47,4.44,-2.73
16.82425212860107,2,3,3,0,-13.99,-0.38,4.02,-4.18,3.09,-2.57
16.83425211906433,2,3,3,0,-11.51,1.75,6.14,6.01,-2.52,-1.51
16.84425210952759,2,3,3,0,-10.18,2.15,6.74,11.26,-7.3,0.37
16.85425209999084,2,3,3,0,-9.470000000000001,2.14,6.75,11.05,-9.33,3.3
16.8642520904541,2,3,3,0,-9.15,2.04,5.91,5.56,-9.210000000000001,6.44
16.87425208091736,2,3,3,0,-11.75,3.75,7,0.22,-5.37,8.76
16.88425207138062,2,3,3,0,-14.28,4,7.67,-1.47,-0.64,10.51
16.89425206184387,2,3,3,0,-15.66,3.59,7.29,-3.42,-1.23,11.07
16.90425205230713,2,3,3,0,-15.82,2.22,5.02,-7.05,-5.21,8.880000000000001
16.91425204277039,2,3,3,0,-16.88,-1.44,1.95,-10.83,-5.41,5.06
16.92425203323364,2,3,3,0,-16.04,-1.8,1.99,-9.630000000000001,-1.33,0.91
16.9342520236969,2,3,3,0,-13.49,-2.16,2.5,-3.88,-0.53,-2.93
16.94425201416016,2,3,3,0,-10.9,-2.87,3.42,0.6,-3.62,-5.3
16.95425200462341,2,3,3,0,-7.22,-3.43,5.06,2.97,-7.01,-5.47
16.96425199508667,2,3,3,0,-6.23,-3.35,4.46,2.95,-8.81,-4.38
16.97425198554993,2,3,3,0,-5.83,-2.95,3.51,1.03,-7.85,-3.14
16.98425197601318,2,3,3,0,-7.72,-1.47,2.56,-0.92,-4.84,-1.41
16.99425196647644,2,3,3,0,-8.779999999999999,-0.77,2.02,-1.97,-1.38,-0.38
17.0042519569397,2,3,3,0,-9.140000000000001,-0.66,1.27,-2.21,1.71,-0.37
17.01425194740295,2,3,3,0,-8.99,-0.82,0.5600000000000001,-3.14,3.46,-0.98
17.02425193786621,2,3,3,0,-8.35,-2.14,0.22,-4.85,3.59,-1.96
17.03425192832947,2,3,3,0,-8.109999999999999,-2.97,0.46,-6.56,2.58,-2.87
17.0442521572113,2,3,3,0,-7.94,-3.65,0.8,-7.67,0.91,-3.18
17.05425214767456,2,3,3,0,-7.86,-3.84,1.05,-8,-0.73,-2.56
17.06425213813782,2,3,3,0,-7.73,-4.13,1.39,-7.34,-1.43,-1.45
17.07425212860107,2,3,3,0,-7.61,-3.93,1.75,-6.02,-1.12,-0.46
17.08425211906433,2,3,3,0,-7.44,-3.67,2.03,-4.38,-0.31,0.35
17.09425210952759,2,3,3,0,-7.34,-3.5,2.34,-2.88,0.9399999999999999,1.01
17.10425209999084,2,3,3,0,-7.63,-3.13,2.25,-1.63,2.37,1.58
17.12425208091736,2,3,3,0,-7.88,-3.06,1.55,0.52,4.68,1.97
17.13425207138062,2,3,3,0,-7.89,-2.98,1.3,2.2,5.88,1.66
17.14425206184387,2,3,3,0,-7.96,-2.78,1.04,4.44,6.73,0.92
17.15425205230713,2,3,3,0,-8.09,-2.78,1.12,6.73,7.18,-0.09
17.16425204277039,2,3,3,0,-8.390000000000001,-2.75,1.08,9.07,7.1,-1.2
17.17425203323364,2,3,3,0,-8.99,-1.96,0.9399999999999999,10.92,6.54,-2.15
17.1842520236969,2,3,3,0,-9.18,-1.18,1.31,11.95,6.07,-2.79
17.19425201416016,2,3,3,1,-9.220000000000001,-0.53,1.69,12.37,5.66,-3.15
17.20425200462341,2,3,3,1,-9.08,0.08,1.89,11.98,4.82,-3.44
17.21425199508667,2,3,3,1,-8.74,0.88,2.47,11.2,3.96,-3.58
17.22425198554993,2,3,3,1,-8.789999999999999,0.85,2.59,10.17,3.76,-3.48
17.23425197601318,2,3,3,1,-8.99,0.8100000000000001,2.6,8.76,3.76,-3.34
17.24425196647644,2,3,3,1,-9.25,0.71,2.58,7.16,3.78,-3.26
17.2542519569397,2,3,3,1,-9.869999999999999,0.64,2.17,5.51,3.73,-3.15
17.26425194740295,2,3,3,1,-10.08,0.62,1.95,3.79,3.33,-3.13
17.27425193786621,2,3,3,1,-10.1,0.54,1.78,2.25,2.97,-3.27
17.28425192832947,2,3,3,1,-10.01,0.34,1.65,1.1,2.69,-3.47
17.2942521572113,2,3,3,2,-9.710000000000001,-0.1,1.72,0.64,2.53,-3.81
17.30425214767456,2,3,3,2,-9.640000000000001,-0.39,1.75,0.51,2.25,-4.38
17.31425213813782,2,3,3,2,-9.640000000000001,-0.58,1.76,0.65,2.01,-4.91
17.32425212860107,2,3,3,2,-9.630000000000001,-0.68,1.81,0.87,1.63,-5.26
17.33425211906433,2,3,3,2,-9.42,-0.61,1.97,1.18,1.32,-5.43
17.34425210952759,2,3,3,2,-9.23,-0.57,2.2,1.42,0.9399999999999999,-5.36
17.35425209999084,2,3,3,2,-9.050000000000001,-0.61,2.46,1.77,0.29,-5
17.3642520904541,2,3,3,2,-8.68,-0.75,2.47,2.11,-0.42,-4.59
17.37425208091736,2,3,3,2,-8.720000000000001,-0.7,2.57,2.14,-0.9399999999999999,-4.11
17.38425207138062,2,3,3,2,-8.84,-0.58,2.49,2.42,-0.85,-3.69
17.39425206184387,2,3,3,2,-8.9,-0.43,2.38,2.63,-0.83,-3.4
17.40425205230713,2,3,3,2,-9.109999999999999,-0.09,2.27,2.79,-0.87,-3.33
17.41425204277039,2,3,3,2,-9.1,0.06,2.25,3.38,-1.06,-3.48
17.42425203323364,2,3,3,2,-9.1,0.12,2.3,4.02,-1.42,-3.88
17.4342520236969,2,3,3,2,-9.07,0.15,2.24,4.61,-1.66,-4.31
17.44425201416016,2,3,3,2,-8.98,0.1,2.38,5.24,-1.67,-4.76
17.45425200462341,2,3,3,2,-8.99,-0.01,2.18,5.83,-1.69,-5.13
17.46425199508667,2,3,3,2,-9.029999999999999,-0.13,2.01,6.04,-1.76,-5.4
17.47425198554993,2,3,3,2,-9.08,-0.18,2.13,6.26,-1.76,-5.54
17.48425197601318,2,3,3,2,-9.15,-0.13,2.72,6.64,-1.36,-5.52
17.49425196647644,2,3,3,2,-9.300000000000001,0.05,2.45,6.53,-0.48,-5.37
17.5042519569397,2,3,3,2,-9.460000000000001,0.48,2.05,5.9,0.74,-4.94
17.51425194740295,2,3,3,2,-9.710000000000001,0.99,1.83,5.75,1.85,-4.26
17.52425193786621,2,3,3,2,-10.17,1.59,3.17,6.49,1.89,-3.49
17.5352520942688,2,3,3,2,-10.27,1.25,4.14,7.58,0.89,-2.93
17.54525208473206,2,3,3,2,-10.33,0.74,5.08,8.24,-0.36,-2.63
17.55525207519531,2,3,3,2,-10.66,0.33,5.32,8.300000000000001,-1.21,-2.33
17.56525206565857,2,3,3,2,-10.86,0.32,4.8,7.22,-1.02,-1.45
17.57525205612183,2,3,3,2,-11.05,0.49,4.34,5.49,0.86,-0.13
17.58525204658508,2,3,3,2,-11.35,0.7,3.96,3.57,4.02,1.15
17.59525203704834,2,3,3,2,-12.36,0.84,2.8,1.31,6.63,2.01
17.6052520275116,2,3,3,2,-13.08,0.86,2.02,-1.1,8.390000000000001,2.3
17.61525201797485,2,3,3,2,-13.61,0.63,1.19,-2.82,9.390000000000001,2.32
17.62525200843811,2,3,3,2,-14,0.24,0.6,-4.07,9.84,2.43
17.63525199890137,2,3,3,2,-13.83,-0.84,0.23,-4.99,9.56,2.47
17.64525198936462,2,3,3,2,-13.22,-1.78,0.77,-5.62,8.56,2.18
17.65525197982788,2,3,3,2,-12.33,-3.29,1.08,-5.39,7.73,1.77
17.66525197029114,2,3,3,2,-11.29,-4.82,0.73,-5.09,7.36,1.51
17.69525194168091,2,3,3,2,-8.32,-8.01,0.09,-3.26,4.71,2.83
17.70525193214417,2,3,3,2,-7.76,-8.31,0.29,-1.03,2.7,4.43
17.715252161026,2,3,3,2,-7.32,-6.89,1.33,3.26,2.04,6.05
17.72525215148926,2,3,3,2,-7.59,-5.77,1.58,8.539999999999999,2.35,7.45
17.73525214195251,2,3,3,2,-8.07,-4.48,1.6,13.06,2.94,8.58
17.74525213241577,2,3,3,2,-9.24,-2.01,1.89,15.58,3.93,9.539999999999999
17.75525212287903,2,3,3,2,-9.890000000000001,-0.84,2.36,16.06,4.42,9.77
17.76525211334229,2,3,3,2,-10.64,0.3,2.99,15.22,3.62,9.23
17.77525210380554,2,3,3,2,-11.18,1.21,3.58,13.77,1.58,7.82
17.7852520942688,2,3,3,2,-11.69,2.26,3.95,11.35,-0.96,5.96
17.79525208473206,2,3,3,1,-11.61,2.2,3.62,8.02,-2.75,3.84
17.80525207519531,2,3,3,1,-11.24,1.72,3.11,4.63,-3.86,2.14
17.81525206565857,2,3,3,1,-10.88,1.21,2.7,1.24,-4.79,1.23
17.82525205612183,2,3,3,1,-10.28,0.42,2.21,-1.02,-6.02,0.85
17.83525204658508,2,3,3,1,-10.12,0.22,2.17,-2.6,-7.35,1.09
17.84525203704834,2,3,3,1,-10.12,0.1,2.21,-3.75,-8.359999999999999,1.69
17.8552520275116,2,3,3,1,-9.619999999999999,0.42,2.07,-5.2,-9.73,2.01
17.86525201797485,2,3,3,1,-7.94,0.95,1.94,-6.69,-11.63,2.53
17.87525200843811,2,3,3,1,-7.16,0.8100000000000001,2.24,-8.07,-12.19,2.95
17.88525199890137,2,3,3,1,-6.75,0.6,2.64,-9.48,-11.83,3.14
17.89525198936462,2,3,3,1,-6.83,0.22,2.9,-10.87,-11.02,3.32
17.90525197982788,2,3,3,1,-7.15,-0.5600000000000001,2.93,-12,-10.45,3.59
17.91525197029114,2,3,3,1,-7.43,-0.99,2.82,-12.53,-9.609999999999999,3.82
17.92525196075439,2,3,3,1,-7.66,-1.33,2.78,-12.4,-8.73,3.83
17.93525195121765,2,3,3,1,-7.87,-1.39,2.51,-12.09,-8.16,3.8
17.94525194168091,2,3,3,1,-7.93,-1.47,2.46,-11.68,-7.71,3.77
17.95525193214417,2,3,3,1,-7.75,-1.33,2.52,-11.17,-7.11,3.57
17.965252161026,2,3,3,1,-7.67,-1.11,2.52,-10.07,-6.64,3.13
17.97525215148926,2,3,3,1,-8.16,-0.74,2.86,-8.9,-6.07,2.68
17.98525214195251,2,3,3,1,-8.27,-0.63,3.05,-7.82,-5.6,2.28
17.99525213241577,2,3,3,1,-8.220000000000001,-0.46,3.15,-6.88,-5.1,2.12
18.00525212287903,2,3,3,1,-8.039999999999999,-0.31,3.17,-6.16,-4.58,1.89
18.01525211334229,2,3,3,1,-7.78,-0.26,3.03,-5.58,-4.02,1.52
18.02525210380554,2,3,3,1,-7.72,-0.06,3.01,-5.17,-3.24,1.17
18.0352520942688,2,3,3,1,-7.7,0.25,2.93,-4.89,-2.16,0.73
18.04525208473206,2,3,3,1,-7.65,0.57,2.92,-4.86,-1.12,0.14
18.05525207519531,2,3,3,1,-7.62,0.93,3.11,-4.75,-0.14,-0.47
18.06525206565857,2,3,3,1,-7.56,0.97,3.11,-4.52,0.63,-1.03
18.07525205612183,2,3,3,1,-7.49,0.95,3.15,-4.37,1.42,-1.52
18.08525204658508,2,3,3,1,-7.47,0.91,3.19,-4.36,2.28,-1.94
18.09525203704834,2,3,3,1,-7.43,0.99,3.4,-4.37,3.88,-2.21
18.1052520275116,2,3,3,1,-7.45,0.99,3.64,-4.37,3.88,-2.21
18.11525201797485,2,3,3,1,-7.52,0.96,3.75,-4.52,4.6,-2.07
18.12525200843811,2,3,3,1,-7.95,0.89,4.31,-4.71,5.12,-1.83
18.13525199890137,2,3,3,1,-8.31,0.88,4.49,-4.64,5.21,-1.5
18.14525198936462,2,3,3,1,-8.460000000000001,0.82,4.43,-3.78,3.13,0.23
18.15525197982788,2,3,3,1,-8.5,0.6,4.16,-3.78,3.13,0.23
18.16525197029114,2,3,3,1,-8.710000000000001,-0.39,3.68,-4.7,2.35,1.5
18.20525193214417,2,3,3,1,-11.05,-2.44,0.25,-15.32,5.25,-0.66
18.215252161026,2,3,3,1,-13.39,-0.6899999999999999,2.78,-12.81,8.23,-2.37
18.22525215148926,2,3,3,1,-14.12,0.87,4.29,-2.54,6.28,-2.69
18.23525214195251,2,3,3,1,-12.6,2.06,4.55,6.74,-1.06,-1.95
18.24525213241577,2,3,3,1,-8.949999999999999,3.4,6.8,11.85,-6.97,1.95
18.25525212287903,2,3,3,1,-8.609999999999999,3.47,8.140000000000001,11.85,-6.97,1.95
18.26525211334229,2,3,3,1,-9.07,3.33,7.78,8.15,-6.25,4.84
18.27525210380554,2,3,3,1,-9.69,2.97,6.28,-0.04,-6.57,8.51
18.2852520942688,2,3,3,1,-12.77,3.21,5.93,-7.21,-5.51,11.24
18.29525208473206,2,3,3,1,-15.45,2.27,6.9,-10.48,-1.71,11.5
18.30525207519531,2,3,3,1,-17.83,0.61,6.04,-10.48,-1.71,11.5
18.31525206565857,2,3,3,1,-21.09,-4.07,0.28,-14,-3.67,7.64
18.32525205612183,2,3,3,1,-21.37,-4.36,0.38,-14.79,-2.43,2.08
18.33525204658508,2,3,3,1,-17.96,-4.5,0.68,-5.44,-0.08,-3.78
18.34525203704834,2,3,3,1,-12.96,-4.84,2.04,5.24,-12.71,-9.65
18.3552520275116,2,3,3,1,-4.76,-3.71,5.26,5.24,-12.71,-9.65
18.36525201797485,2,3,3,1,-2.1,-3.36,4.98,7.24,-16.73,-8.27
18.37525200843811,2,3,3,1,-1.68,-3.14,4.36,5.67,-14.2,-5.43
18.38525199890137,2,3,3,1,-2.85,-2.62,4.04,3.77,-7.04,-2.32
18.39525198936462,2,3,3,2,-7.38,-0.72,3.31,0.91,4.25,2.07
18.40525197982788,2,3,3,2,-9.16,-0.09,2.38,0.91,4.25,2.07
18.41525197029114,2,3,3,2,-10.12,-0.01,1.27,-0.62,6.86,2.16
18.42525196075439,2,3,3,2,-10.47,-0.51,0.47,-2.59,8.18,1.35
18.43525195121765,2,3,3,2,-9.81,-2.22,-0.02,-4.49,6.99,-0.02
18.44525194168091,2,3,3,2,-9.16,-3.05,0.38,-6.59,0.45,-2.32
18.45525193214417,2,3,3,2,-8.52,-3.68,0.95,-6.59,0.45,-2.32
18.465252161026,2,3,3,2,-8.050000000000001,-3.74,1.26,-6.64,-2.06,-1.88
18.47625207901001,2,3,3,2,-7.53,-3.76,1.85,-5.92,-2.31,-0.82
18.48525214195251,2,3,3,2,-7.4,-3.58,2.08,-4.44,-1.26,0.04
18.49525213241577,2,3,3,2,-7.4,-3.58,2.08,-1.37,2.01,1.39
18.50625205039978,2,3,3,2,-7.28,-3.26,2.26,-1.37,2.01,1.39
18.51525211334229,2,3,3,2,-7.66,-2.77,2.12,-0.34,3.52,1.78
18.52525210380554,2,3,3,2,-7.9,-2.72,1.83,0.59,4.62,1.85
18.53625202178955,2,3,3,2,-7.94,-2.57,1.51,1.77,5.39,1.78
18.54525208473206,2,3,3,2,-7.94,-2.57,1.51,5.79,6.21,0.61
18.55625200271606,2,3,3,2,-7.79,-2.33,1.18,5.79,6.21,0.61
18.56625199317932,2,3,3,2,-8.07,-2.25,1.21,8.07,6.19,-0.33
18.57625198364258,2,3,3,2,-8.5,-1.98,1.36,9.9,5.97,-1.29
18.58625197410583,2,3,3,2,-9.17,-1,1.7,10.84,5.25,-2.04
18.59625196456909,2,3,3,2,-9.26,-0.46,1.97,10.18,3.76,-2.8
18.60625195503235,2,3,3,2,-9.18,0.13,2.2,10.18,3.76,-2.8
18.61625194549561,2,3,3,2,-9.01,0.4,2.48,9.130000000000001,3.24,-2.99
18.62625193595886,2,3,3,2,-8.42,0.71,2.61,6.39,2.78,-3.08
18.6362521648407,2,3,3,2,-8.26,0.7,2.69,5.24,2.98,-2.98
18.64625215530396,2,3,3,2,-8.34,0.7,2.74,4,3.46,-2.79
18.65625214576721,2,3,3,2,-8.6,0.55,2.61,4,3.46,-2.79
18.66625213623047,2,3,3,2,-9.08,0.38,2.25,2.55,3.64,-2.69
18.67625212669373,2,3,3,2,-9.24,0.34,2.12,0.65,3.64,-2.79
18.68625211715698,2,3,3,2,-9.300000000000001,0.25,2,-0.05,3.62,-3.11
18.69625210762024,2,3,3,2,-9.279999999999999,-0.23,2.13,-0.31,3.39,-3.56
18.7062520980835,2,3,3,2,-9.32,-0.54,2.06,-0.31,3.39,-3.56
18.71625208854675,2,3,3,2,-9.5,-0.77,2.04,-0.64,2.77,-4.66
18.72625207901001,2,3,3,2,-9.539999999999999,-0.93,1.86,-0.62,2.46,-5.1
18.73625206947327,2,3,3,2,-9.630000000000001,-1.03,1.93,-0.62,2.46,-5.1
18.74625205993652,2,3,3,2,-9.59,-1.01,1.95,0.6,1.65,-5.63
18.75625205039978,2,3,3,2,-9.44,-1.07,1.92,0.6,1.65,-5.63
18.76625204086304,2,3,3,2,-9.279999999999999,-1.03,1.93,1.15,1.19,-5.67
18.77625203132629,2,3,3,2,-8.970000000000001,-1.04,2.25,1.63,0.83,-5.56
18.78625202178955,2,3,3,2,-8.960000000000001,-1.07,2.29,2.23,0.18,-4.93
18.79625201225281,2,3,3,2,-8.98,-1.11,2.35,2.72,-0.06,-4.55
18.80625200271606,2,3,3,2,-9.07,-1.1,2.29,2.72,-0.06,-4.55
18.81625199317932,2,3,3,2,-9.44,-0.89,2,4.16,-0.9,-3.9
18.82625198364258,2,3,3,2,-9.609999999999999,-0.65,1.89,5.17,-1.41,-3.76
18.83625197410583,2,3,3,2,-9.6,-0.4,1.79,6.26,-1.81,-3.8
18.84625196456909,2,3,3,2,-9.449999999999999,-0.21,1.98,7.32,-1.9,-4.06
18.85625195503235,2,3,3,2,-9.449999999999999,-0.21,1.98,7.32,-1.9,-4.06
18.86625194549561,2,3,3,2,-9.119999999999999,0.12,1.71,8.09,-1.32,-4.53
18.87625193595886,2,3,3,2,-9.17,0.22,1.79,8.630000000000001,-0.45,-4.95
18.8862521648407,2,3,3,2,-9.609999999999999,0.73,2.14,8.92,0.26,-5.09
18.89625215530396,2,3,3,2,-9.890000000000001,1.05,2.08,8.42,1.16,-4.44
18.90625214576721,2,3,3,2,-10.09,1.37,1.95,8.42,1.16,-4.44
18.91625213623047,2,3,3,2,-10.23,1.64,1.93,7.62,0.6899999999999999,-3.14
18.92625212669373,2,3,3,2,-10.43,1.55,3.25,7.79,0.04,-2.57
