timestamp,magCalib,accCalib,gyrCalib,sysCalib,accX,accY,accZ,gyrX,gyrY,gyrZ
0.01849007606506348,2,3,3,3,-9.630000000000001,0.61,2.19,-0.62,-0.22,-0.33
0.02849006652832031,2,3,3,3,-9.640000000000001,0.57,2.22,-0.55,-0.26,-0.37
0.03849005699157715,2,3,3,3,-9.6,0.52,2.11,-0.57,-0.33,-0.45
0.04849004745483398,2,3,3,3,-9.65,0.55,2.16,-0.5600000000000001,-0.44,-0.53
0.05849003791809082,2,3,3,3,-9.65,0.48,2.07,-0.6,-0.49,-0.59
0.06849002838134766,2,3,3,3,-9.609999999999999,0.48,2.1,-0.17,-0.68,-0.5
0.07849001884460449,2,3,3,3,-9.630000000000001,0.53,2.13,-0.17,-0.68,-0.5
0.08849000930786133,2,3,3,3,-9.66,0.54,2.18,0.4,-0.6899999999999999,-0.35
0.09848999977111816,2,3,3,3,-9.69,0.55,2.21,0.4,-0.6899999999999999,-0.35
0.108489990234375,2,3,3,3,-9.59,0.54,1.99,0.4,-0.83,-0.32
0.1184899806976318,2,3,3,3,-9.57,0.58,1.97,0.88,-0.82,-0.11
0.1284899711608887,2,3,3,3,-9.59,0.63,2.05,0.92,-0.51,0.01
0.1384899616241455,2,3,3,3,-9.609999999999999,0.66,2.06,0.98,-0.25,0.1
0.1484899520874023,2,3,3,3,-9.6,0.77,1.98,0.79,-0.19,0.1
0.1584899425506592,2,3,3,3,-9.529999999999999,0.77,1.87,0.74,-0.19,0.01
0.168489933013916,2,3,3,3,-9.52,0.78,1.89,0.68,-0.1,-0.06
0.1784899234771729,2,3,3,3,-9.59,0.79,2.03,0.48,-0.06,-0.18
0.1884899139404297,2,3,3,3,-9.59,0.78,2.19,0.43,-0.16,-0.21
0.1984899044036865,2,3,3,3,-9.609999999999999,0.8100000000000001,2.18,0.5600000000000001,-0.18,-0.19
0.2084898948669434,2,3,3,3,-9.58,0.83,2.04,0.8100000000000001,-0.26,-0.2
0.2184898853302002,2,3,3,3,-9.58,0.83,2.01,0.95,-0.21,-0.2
0.228489875793457,2,3,3,3,-9.609999999999999,0.84,2.04,0.77,-0.24,-0.2
0.238490104675293,2,3,3,3,-9.59,0.84,2.06,0.5,-0.31,-0.17
0.2484900951385498,2,3,3,3,-9.539999999999999,0.8,2.05,0.32,-0.23,-0.16
0.2584900856018066,2,3,3,3,-9.56,0.82,1.98,0.06,-0.05,-0.17
0.2684900760650635,2,3,3,3,-9.58,0.74,2.15,-0.02,0.08,-0.2
0.2784900665283203,2,3,3,3,-9.6,0.7,2.19,-0.05,0.2,-0.2
0.2884900569915771,2,3,3,3,-9.6,0.71,2.28,-0.01,0.2,-0.21
0.298490047454834,2,3,3,3,-9.630000000000001,0.7,2.19,0.11,0.18,-0.18
0.3084900379180908,2,3,3,3,-9.609999999999999,0.72,2.1,0.33,0.24,-0.09
0.3184900283813477,2,3,3,3,-9.65,0.78,2.15,0.32,0.31,0
0.3284900188446045,2,3,3,3,-9.67,0.77,2.19,0.3,0.26,0.1
0.3384900093078613,2,3,3,3,-9.640000000000001,0.78,2.16,0.26,0.24,0.19
0.3484899997711182,2,3,3,3,-9.59,0.78,2.15,0.24,0.25,0.21
0.358489990234375,2,3,3,3,-9.56,0.8100000000000001,2.07,0.22,0.29,0.25
0.3684899806976318,2,3,3,3,-9.57,0.8100000000000001,2.09,0.13,0.31,0.21
0.3784899711608887,2,3,3,3,-9.57,0.8100000000000001,2.11,0.07000000000000001,0.38,0.18
0.3884899616241455,2,3,3,3,-9.550000000000001,0.82,2.16,-0.06,0.42,0.11
0.3984899520874023,2,3,3,3,-9.57,0.79,2.19,-0.06,0.41,0.09
0.4084899425506592,2,3,3,3,-9.57,0.78,2.1,-0.07000000000000001,0.39,0.07000000000000001
0.418489933013916,2,3,3,3,-9.57,0.79,2.15,0.02,0.4,0.08
0.4284899234771729,2,3,3,3,-9.56,0.78,2.13,0.08,0.44,0.11
0.4384899139404297,2,3,3,3,-9.59,0.73,2.13,0.14,0.53,0.17
0.4484899044036865,2,3,3,3,-9.609999999999999,0.76,2.12,0.14,0.64,0.19
0.4584898948669434,2,3,3,3,-9.66,0.76,2.06,0.13,0.65,0.27
0.4684898853302002,2,3,3,3,-9.66,0.74,2.08,0.08,0.63,0.27
0.478489875793457,2,3,3,3,-9.640000000000001,0.73,2.06,0.02,0.64,0.33
0.488490104675293,2,3,3,3,-9.630000000000001,0.7,2.14,-0.08,0.65,0.3
0.4984900951385498,2,3,3,3,-9.630000000000001,0.71,2.11,-0.15,0.54,0.3
0.5084900856018066,2,3,3,3,-9.630000000000001,0.6899999999999999,2.06,-0.14,0.42,0.29
0.5184900760650635,2,3,3,3,-9.619999999999999,0.6899999999999999,2.08,-0.06,0.29,0.21
0.5284900665283203,2,3,3,3,-9.619999999999999,0.7,2.12,0,0.23,0.19
0.5384900569915771,2,3,3,3,-9.640000000000001,0.67,2.14,0.03,0.19,0.11
0.548490047454834,2,3,3,3,-9.630000000000001,0.66,2.1,0.03,0.12,0.08
0.5584900379180908,2,3,3,3,-9.6,0.63,2.04,0.01,0.08,0.04
0.5684900283813477,2,3,3,3,-9.6,0.63,2.11,0.01,0.03,0.06
0.5784900188446045,2,3,3,3,-9.6,0.63,2.08,0.05,0.03,0.05
0.5884900093078613,2,3,3,3,-9.619999999999999,0.64,2.09,0.12,0.06,0.07000000000000001
0.5984899997711182,2,3,3,3,-9.640000000000001,0.66,2.07,0.1,0.11,0.08
0.608489990234375,2,3,3,3,-9.630000000000001,0.73,1.91,0.13,0.13,0.08
0.6184899806976318,2,3,3,3,-9.619999999999999,0.73,1.99,0.03,0.16,0.09
0.6284899711608887,2,3,3,3,-9.609999999999999,0.75,2.01,-0.05,0.15,0.08
0.6384899616241455,2,3,3,3,-9.630000000000001,0.76,2.05,-0.13,0.11,0.01
0.6484899520874023,2,3,3,3,-9.58,0.74,2.04,-0.15,0.06,0
0.6584899425506592,2,3,3,3,-9.630000000000001,0.77,2,-0.12,0.06,-0.03
0.668489933013916,2,3,3,3,-9.609999999999999,0.74,2.01,-0.16,0.02,-0.03
0.6784899234771729,2,3,3,3,-9.619999999999999,0.77,2.05,-0.17,0.04,-0.05
0.6884899139404297,2,3,3,3,-9.619999999999999,0.76,2.08,-0.2,0.1,-0.05
0.6984899044036865,2,3,3,3,-9.609999999999999,0.75,2.09,-0.29,0.08,-0.05
0.7084898948669434,2,3,3,3,-9.58,0.78,1.99,-0.29,0.08,-0.06
0.7184898853302002,2,3,3,3,-9.59,0.74,2.04,-0.29,0.09,-0.05
0.728489875793457,2,3,3,3,-9.619999999999999,0.75,2.08,-0.29,0.15,-0.04
0.738490104675293,2,3,3,3,-9.630000000000001,0.74,2.04,-0.31,0.18,-0.06
0.7484900951385498,2,3,3,3,-9.619999999999999,0.72,2.1,-0.32,0.19,-0.05
0.7584900856018066,2,3,3,3,-9.65,0.74,2.01,-0.36,0.18,-0.08
0.7684900760650635,2,3,3,3,-9.640000000000001,0.75,2.07,-0.33,0.14,-0.08
0.7794899940490723,2,3,3,3,-9.6,0.75,2.07,-0.25,0.09,-0.02
0.7894899845123291,2,3,3,3,-9.609999999999999,0.78,2.07,-0.2,0.11,-0.02
0.7994899749755859,2,3,3,3,-9.6,0.79,2.02,-0.22,0.15,0
0.8094899654388428,2,3,3,3,-9.59,0.78,1.97,-0.23,0.17,0.02
0.8194899559020996,2,3,3,3,-9.619999999999999,0.8,2.02,-0.26,0.23,-0.03
0.8294899463653564,2,3,3,3,-9.619999999999999,0.82,2.06,-0.31,0.17,-0.07000000000000001
0.8394899368286133,2,3,3,3,-9.609999999999999,0.84,2.12,-0.3,0.11,-0.12
0.8494899272918701,2,3,3,3,-9.619999999999999,0.77,2.09,-0.26,0.11,-0.13
0.859489917755127,2,3,3,3,-9.609999999999999,0.73,1.97,-0.29,0.1,-0.13
0.8694899082183838,2,3,3,3,-9.609999999999999,0.68,2.07,-0.25,0.1,-0.1
0.8794898986816406,2,3,3,3,-9.619999999999999,0.72,2.11,-0.27,0.15,-0.09
0.8894898891448975,2,3,3,3,-9.65,0.74,2.15,-0.26,0.12,-0.09
0.8994898796081543,2,3,3,3,-9.619999999999999,0.76,2.13,-0.19,-0.01,-0.09
0.9094901084899902,2,3,3,3,-9.59,0.75,1.95,-0.05,-0.06,-0.12
0.9194900989532471,2,3,3,3,-9.59,0.73,1.98,-0.06,-0.02,-0.17
0.9294900894165039,2,3,3,3,-9.66,0.73,2.06,-0.23,0.03,-0.14
0.9394900798797607,2,3,3,3,-9.65,0.71,2.11,-0.41,0.02,-0.1
0.9494900703430176,2,3,3,3,-9.630000000000001,0.64,2.1,-0.44,-0.01,-0.06
0.9594900608062744,2,3,3,3,-9.6,0.65,2.02,-0.31,-0.05,-0.03
0.9694900512695312,2,3,3,3,-9.58,0.62,2.04,-0.2,-0.02,0.04
0.9794900417327881,2,3,3,3,-9.58,0.65,2.02,-0.11,0.04,0.09
0.9894900321960449,2,3,3,3,-9.619999999999999,0.7,2.02,-0.17,0.11,0.14
0.9994900226593018,2,3,3,3,-9.619999999999999,0.6899999999999999,1.96,-0.28,0.05,0.16
1.009490013122559,2,3,3,3,-9.609999999999999,0.71,1.93,-0.38,0.01,0.12
1.019490003585815,2,3,3,3,-9.59,0.7,1.98,-0.46,0,0.07000000000000001
1.029489994049072,2,3,3,3,-9.58,0.67,2.04,-0.47,0,0.02
1.039489984512329,2,3,3,2,-9.58,0.65,2.07,-0.43,0.04,-0.02
1.049489974975586,2,3,3,2,-9.609999999999999,0.62,2.13,-0.38,0.08,-0.06
1.059489965438843,2,3,3,2,-9.640000000000001,0.59,2.02,-0.33,0.03,-0.04
1.0694899559021,2,3,3,2,-9.640000000000001,0.59,1.99,-0.22,0.04,-0.08
1.079489946365356,2,3,3,2,-9.619999999999999,0.5600000000000001,2.03,-0.18,0.02,-0.11
1.089489936828613,2,3,3,2,-9.6,0.59,2.06,-0.22,0.03,-0.15
1.09948992729187,2,3,3,2,-9.59,0.5600000000000001,2.06,-0.25,0.02,-0.2
1.109489917755127,2,3,3,2,-9.57,0.57,1.99,-0.2,-0.06,-0.27
1.119489908218384,2,3,3,2,-9.619999999999999,0.58,2.08,-0.02,-0.08,-0.31
1.129489898681641,2,3,3,2,-9.609999999999999,0.57,2.08,0.12,-0.12,-0.35
1.139489889144897,2,3,3,2,-9.619999999999999,0.61,2.08,0.29,-0.06,-0.34
1.149489879608154,2,3,3,2,-9.65,0.65,2.05,0.38,0.05,-0.32
1.15949010848999,2,3,3,2,-9.65,0.65,1.96,0.37,0.07000000000000001,-0.25
1.169490098953247,2,3,3,2,-9.67,0.66,1.98,0.35,0,-0.19
1.179490089416504,2,3,3,2,-9.65,0.71,2.06,0.29,-0.03,-0.16
1.189490079879761,2,3,3,2,-9.630000000000001,0.72,2.06,0.22,-0.08,-0.13
1.199490070343018,2,3,3,2,-9.6,0.74,2.1,0.18,-0.08,-0.08
1.209490060806274,2,3,3,2,-9.57,0.7,2.03,0.19,-0.07000000000000001,-0.05
1.219490051269531,2,3,3,2,-9.609999999999999,0.71,2.04,0.26,0.04,-0.02
1.229490041732788,2,3,3,2,-9.640000000000001,0.7,2.06,0.3,0.1,0.02
1.239490032196045,2,3,3,2,-9.65,0.7,2.07,0.32,0.17,0.01
1.259490013122559,2,3,3,2,-9.640000000000001,0.6899999999999999,1.98,0.27,0.14,0
1.269490003585815,2,3,3,2,-9.609999999999999,0.72,2.07,0.2,0.12,0.03
1.279489994049072,2,3,3,2,-9.609999999999999,0.7,2.09,0.13,0.08,0.03
1.289489984512329,2,3,3,2,-9.609999999999999,0.67,2.08,0.2,0.02,0.05
1.299489974975586,2,3,3,2,-9.630000000000001,0.67,2.04,0.28,0.09,-0.01
1.309489965438843,2,3,3,2,-9.640000000000001,0.67,1.99,0.38,0.16,-0.03
1.3194899559021,2,3,3,2,-9.640000000000001,0.66,2.01,0.45,0.16,-0.01
1.329489946365356,2,3,3,2,-9.67,0.6899999999999999,2.05,0.51,0.18,0
1.339489936828613,2,3,3,2,-9.67,0.6899999999999999,2.05,0.57,0.18,0.03
1.34948992729187,2,3,3,2,-9.66,0.74,2.06,0.57,0.09,0.05
1.359489917755127,2,3,3,2,-9.68,0.77,1.98,0.51,0.07000000000000001,0.07000000000000001
1.369489908218384,2,3,3,2,-9.609999999999999,0.77,2.03,0.42,0.05,0.06
1.379489898681641,2,3,3,2,-9.609999999999999,0.74,2.08,0.39,0.01,0.03
1.389489889144897,2,3,3,2,-9.57,0.74,2.09,0.4,-0.02,0.06
1.399489879608154,2,3,3,2,-9.6,0.74,2.08,0.45,0.02,0.08
1.40949010848999,2,3,3,2,-9.630000000000001,0.75,1.98,0.59,0.08,0.09
1.419490098953247,2,3,3,2,-9.640000000000001,0.75,1.98,0.55,0.07000000000000001,0.11
1.429490089416504,2,3,3,2,-9.640000000000001,0.79,2,0.55,0.02,0.12
1.439490079879761,2,3,3,2,-9.65,0.8100000000000001,1.98,0.54,0.04,0.08
1.449490070343018,2,3,3,2,-9.65,0.78,1.97,0.44,0.07000000000000001,0.07000000000000001
1.459490060806274,2,3,3,2,-9.630000000000001,0.77,1.95,0.31,0.03,0.03
1.469490051269531,2,3,3,2,-9.640000000000001,0.76,1.97,0.19,0.02,0.07000000000000001
1.479490041732788,2,3,3,2,-9.6,0.71,2.08,0.13,0,0.08
1.489490032196045,2,3,3,2,-9.640000000000001,0.71,2.08,0.16,0.03,0.15
1.499490022659302,2,3,3,2,-9.609999999999999,0.72,2.06,0.27,0.03,0.11
1.509490013122559,2,3,3,2,-9.59,0.73,1.99,0.38,0.05,0.2
1.519490003585815,2,3,3,2,-9.630000000000001,0.79,2,0.47,0.12,0.22
1.529489994049072,2,3,3,2,-9.640000000000001,0.8100000000000001,1.95,0.5,0.09,0.21
1.539489984512329,2,3,3,2,-9.640000000000001,0.8100000000000001,1.95,0.52,0.1,0.21
1.549489974975586,2,3,3,2,-9.65,0.83,1.96,0.39,0.07000000000000001,0.19
1.559489965438843,2,3,3,2,-9.640000000000001,0.8,1.97,0.21,0.06,0.22
1.5694899559021,2,3,3,2,-9.6,0.77,2.05,0.1,0.01,0.19
1.579489946365356,2,3,3,2,-9.58,0.75,2.05,0.04,-0.03,0.17
1.589489936828613,2,3,3,2,-9.58,0.75,2.05,0.04,-0.05,0.18
1.59948992729187,2,3,3,2,-9.56,0.77,2.04,0.09,0,0.15
1.609489917755127,2,3,3,2,-9.6,0.78,1.96,0.08,0.03,0.1
1.619489908218384,2,3,3,2,-9.619999999999999,0.75,1.97,0.11,0.06,0.08
1.629489898681641,2,3,3,2,-9.65,0.74,2.01,0.15,0.05,0.07000000000000001
1.639489889144897,2,3,3,2,-9.68,0.72,2.01,0.16,0.05,0.06
1.649489879608154,2,3,3,2,-9.68,0.68,2.04,0.12,0.08,0.11
1.65949010848999,2,3,3,2,-9.67,0.67,1.96,0.03,0.06,0.17
1.669490098953247,2,3,3,2,-9.609999999999999,0.6899999999999999,1.97,-0.01,0,0.16
1.679490089416504,2,3,3,2,-9.609999999999999,0.71,2.02,0.02,-0.02,0.24
1.689490079879761,2,3,3,3,-9.609999999999999,0.71,2.02,0.02,-0.02,0.24
1.699490070343018,2,3,3,3,-9.58,0.75,2.06,0.1,-0.02,0.24
1.709490060806274,2,3,3,3,-9.609999999999999,0.8,2.05,0.17,-0.06,0.13
1.719490051269531,2,3,3,3,-9.58,0.78,1.92,0.16,-0.08,0.09
1.729490041732788,2,3,3,3,-9.59,0.79,1.97,0.09,-0.04,0.06
1.739490032196045,2,3,3,3,-9.6,0.77,2.01,-0.04,-0.03,0.08
1.749490022659302,2,3,3,3,-9.609999999999999,0.73,2.02,-0.11,0.01,0.08
1.759490013122559,2,3,3,3,-9.640000000000001,0.6899999999999999,2.04,-0.12,0.07000000000000001,0.11
1.769490003585815,2,3,3,3,-9.640000000000001,0.72,1.99,-0.08,0.07000000000000001,0.06
1.779489994049072,2,3,3,3,-9.59,0.7,2.02,0.06,0.05,0.05
1.789489984512329,2,3,3,3,-9.59,0.71,2.04,0.06,0.05,0.05
1.799489974975586,2,3,3,3,-9.630000000000001,0.78,2.04,0.2,0.05,0.07000000000000001
1.810489892959595,2,3,3,3,-9.640000000000001,0.79,2.02,0.23,-0.01,0.08
1.820489883422852,2,3,3,3,-9.640000000000001,0.82,1.91,0.25,0.04,0.09
1.830490112304688,2,3,3,3,-9.619999999999999,0.79,1.91,0.17,0.06,0.07000000000000001
1.840490102767944,2,3,3,3,-9.619999999999999,0.84,2.01,0.17,0.06,0.07000000000000001
1.850490093231201,2,3,3,3,-9.6,0.83,2.05,0.05,-0.01,0.04
1.860490083694458,2,3,3,3,-9.58,0.82,2.03,0.03,-0.04,0
1.870490074157715,2,3,3,3,-9.609999999999999,0.8100000000000001,1.96,-0.03,-0.04,-0.03
1.880490064620972,2,3,3,3,-9.609999999999999,0.86,2.04,-0.04,-0.05,-0.07000000000000001
1.890490055084229,2,3,3,3,-9.630000000000001,0.84,2.06,-0.04,-0.05,-0.07000000000000001
1.900490045547485,2,3,3,3,-9.609999999999999,0.83,2.04,-0.03,-0.08,-0.11
1.910490036010742,2,3,3,3,-9.6,0.86,2.02,-0.07000000000000001,-0.07000000000000001,-0.09
1.920490026473999,2,3,3,3,-9.6,0.8100000000000001,1.98,-0.06,-0.03,-0.12
1.930490016937256,2,3,3,3,-9.609999999999999,0.8,2,-0.04,-0.02,-0.11
1.940490007400513,2,3,3,3,-9.640000000000001,0.8100000000000001,2.04,-0.04,-0.02,-0.11
1.95048999786377,2,3,3,3,-9.640000000000001,0.84,2.09,-0.1,-0.03,-0.06
1.960489988327026,2,3,3,3,-9.609999999999999,0.87,2.03,-0.02,-0.04,-0.03
1.970489978790283,2,3,3,3,-9.6,0.85,1.92,0,-0.03,-0.06
1.98048996925354,2,3,3,3,-9.609999999999999,0.84,2,-0.09,0.04,0.02
1.990489959716797,2,3,3,2,-9.619999999999999,0.84,2.06,-0.09,0.04,0.02
2.000489950180054,2,3,3,2,-9.6,0.85,2.04,-0.2,0.06,0.09
2.010489940643311,2,3,3,2,-9.6,0.86,2.06,-0.28,0.04,0.1
2.020489931106567,2,3,3,2,-9.6,0.86,2.02,-0.27,0.08,0.1
2.030489921569824,2,3,3,2,-9.56,0.84,1.98,-0.22,0.12,0.08
2.040489912033081,2,3,3,2,-9.57,0.84,2.04,-0.22,0.12,0.08
2.050489902496338,2,3,3,2,-9.6,0.85,2.06,-0.12,0.23,0.02
2.060489892959595,2,3,3,2,-9.640000000000001,0.83,2.04,-0.15,0.21,0
2.070489883422852,2,3,3,2,-9.640000000000001,0.82,1.97,-0.23,0.26,-0.01
2.080490112304688,2,3,3,2,-9.65,0.84,2.08,-0.26,0.22,-0.02
2.090490102767944,2,3,3,2,-9.66,0.85,2.09,-0.26,0.22,-0.02
2.100490093231201,2,3,3,2,-9.609999999999999,0.89,2.07,0.08,0.17,-0.11
2.110490083694458,2,3,3,2,-9.609999999999999,0.93,1.99,0.08,0.17,-0.11
2.120490074157715,2,3,3,2,-9.609999999999999,1,1.88,0.13,0.26,-0.14
2.130490064620972,2,3,3,2,-9.609999999999999,0.99,1.9,0.09,0.3,-0.17
2.140490055084229,2,3,3,2,-9.59,1.07,1.98,0.02,0.23,-0.21
2.150490045547485,2,3,3,2,-9.56,1.06,1.92,-0.05,0.12,-0.27
2.160490036010742,2,3,3,2,-9.52,1.09,1.93,-0.02,0.03,-0.33
2.170490026473999,2,3,3,2,-9.56,1.11,1.86,-0.02,0.12,-0.46
2.180490016937256,2,3,3,2,-9.58,1.13,1.91,-0.04,0.22,-0.52
2.190490007400513,2,3,3,2,-9.619999999999999,1.18,1.91,0.08,0.3,-0.5600000000000001
2.20048999786377,2,3,3,2,-9.66,1.22,1.87,0.24,0.37,-0.52
2.210489988327026,2,3,3,2,-9.74,1.24,1.86,0.32,0.51,-0.49
2.220489978790283,2,3,3,2,-9.83,1.32,1.79,0.29,0.57,-0.42
2.23048996925354,2,3,3,2,-9.84,1.31,1.8,0.26,0.52,-0.32
2.240489959716797,2,3,3,2,-9.83,1.3,1.8,0.34,0.42,-0.18
2.250489950180054,2,3,3,2,-9.77,1.26,1.83,0.36,0.39,0.24
2.260489940643311,2,3,3,2,-9.699999999999999,1.27,1.84,0.36,0.39,0.24
2.270489931106567,2,3,3,2,-9.65,1.32,1.84,0.4,0.28,0.41
2.280489921569824,2,3,3,2,-9.609999999999999,1.45,1.93,0.6,0.19,0.57
2.290489912033081,2,3,3,2,-9.44,1.53,1.74,1.57,0.27,0.47
2.300489902496338,2,3,3,2,-9.52,1.59,1.67,2,0.82,0.33
2.310489892959595,2,3,3,2,-9.640000000000001,1.62,1.73,2,0.82,0.33
2.320489883422852,2,3,3,2,-9.67,1.65,1.78,2.11,1.3,0.13
2.330490112304688,2,3,3,2,-9.5,1.75,1.74,2.2,1.16,-0.01
2.340490102767944,2,3,3,2,-9.51,1.83,1.58,2.07,1.25,-0.08
2.350490093231201,2,3,3,2,-9.65,1.79,1.61,1.42,1.51,-0.14
2.360490083694458,2,3,3,2,-9.699999999999999,1.68,1.68,0.9399999999999999,1.53,-0.14
2.370490074157715,2,3,3,2,-9.539999999999999,1.68,1.55,0.72,1.42,-0.04
2.380490064620972,2,3,3,2,-9.5,1.66,1.54,0.41,1.52,0.17
2.390490055084229,2,3,3,2,-9.57,1.61,1.67,0.1,1.77,0.37
2.400490045547485,2,3,3,2,-9.66,1.55,1.76,-0.19,1.93,0.59
2.410490036010742,2,3,3,2,-9.619999999999999,1.15,1.72,-0.46,1.98,0.72
2.420490026473999,2,3,3,2,-9.58,0.88,1.83,-0.73,2.26,0.89
2.430490016937256,2,3,3,2,-9.6,0.7,2.05,-0.68,2.38,1.03
2.440490007400513,2,3,3,2,-9.710000000000001,0.63,2.11,-0.33,2.22,1.33
2.45048999786377,2,3,3,2,-9.869999999999999,0.5600000000000001,1.87,0.19,2.06,1.73
2.460489988327026,2,3,3,2,-9.91,0.59,1.77,0.5,2.09,2.24
2.470489978790283,2,3,3,2,-9.970000000000001,0.68,1.62,0.61,2.08,2.77
2.48048996925354,2,3,3,2,-9.880000000000001,0.82,1.42,0.5,1.82,3.23
2.490489959716797,2,3,3,2,-9.76,0.89,1.42,0.19,1.56,3.44
2.500489950180054,2,3,3,3,-9.59,0.9,1.5,-0.17,1.43,3.54
2.510489940643311,2,3,3,3,-9.550000000000001,0.95,1.56,-0.33,1.3,3.6
2.520489931106567,2,3,3,3,-9.49,0.72,1.41,-0.57,1.22,3.67
2.530489921569824,2,3,3,3,-9.5,0.59,1.31,-0.8100000000000001,1.26,3.74
2.540489912033081,2,3,3,3,-9.59,0.51,1.43,-0.97,1.44,3.8
2.550489902496338,2,3,3,3,-9.68,0.43,1.65,-0.88,1.33,3.85
2.560489892959595,2,3,3,3,-9.630000000000001,0.37,1.5,-0.29,0.93,3.88
2.570489883422852,2,3,3,3,-9.539999999999999,0.38,1.31,0.27,0.71,3.84
2.580490112304688,2,3,3,3,-9.51,0.49,1.35,0.57,0.9,3.73
2.590490102767944,2,3,3,3,-9.460000000000001,0.55,1.47,0.75,1.03,3.66
2.600490093231201,2,3,3,3,-9.59,0.7,1.49,0.79,0.92,3.63
2.610490083694458,2,3,3,3,-9.699999999999999,0.72,1.55,0.6,0.75,3.46
2.620490074157715,2,3,3,3,-9.74,0.6899999999999999,1.52,0.45,0.54,3.2
2.630490064620972,2,3,3,3,-9.73,0.6899999999999999,1.57,0.61,0.41,2.86
2.640490055084229,2,3,3,3,-9.789999999999999,0.7,1.67,0.74,0.37,2.56
2.650490045547485,2,3,3,3,-9.75,0.72,1.67,0.82,0.23,2.19
2.660490036010742,2,3,3,3,-9.65,0.72,1.68,0.98,0.23,1.91
2.670490026473999,2,3,3,3,-9.66,0.76,1.61,1.09,0.2,1.63
2.680490016937256,2,3,3,3,-9.699999999999999,0.87,1.61,1.16,0.18,1.38
2.690490007400513,2,3,3,3,-9.69,0.92,1.66,1.19,0.21,1.09
2.70048999786377,2,3,3,3,-9.640000000000001,1.05,1.72,1.26,0.18,0.9
2.710489988327026,2,3,3,3,-9.66,1.3,1.6,1.39,0.14,0.78
2.720489978790283,2,3,3,3,-9.68,1.42,1.53,1.43,0.13,0.68
2.731489896774292,2,3,3,3,-9.68,1.51,1.52,1.41,0.17,0.6
2.740489959716797,2,3,3,3,-9.73,1.58,1.53,1.21,0.17,0.52
2.750489950180054,2,3,3,3,-9.789999999999999,1.68,1.55,0.9,0.09,0.49
2.761490106582642,2,3,3,3,-9.74,1.73,1.46,0.64,-0.03,0.42
2.770489931106567,2,3,3,3,-9.73,1.73,1.48,0.23,-0.06,0.33
2.780489921569824,2,3,3,3,-9.67,1.67,1.52,-0.17,-0.13,0.25
2.791490077972412,2,3,3,3,-9.56,1.65,1.56,-0.27,-0.19,0.1
2.800489902496338,2,3,3,3,-9.550000000000001,1.57,1.59,-0.33,-0.1,-0.03
2.810489892959595,2,3,3,3,-9.539999999999999,1.51,1.56,-0.28,-0.01,-0.09
2.821490049362183,2,3,3,3,-9.539999999999999,1.56,1.46,-0.19,0.14,-0.14
2.831490039825439,2,3,3,3,-9.59,1.49,1.42,-0.16,0.23,-0.13
2.841490030288696,2,3,3,3,-9.65,1.51,1.45,-0.22,0.33,-0.06
2.851490020751953,2,3,3,3,-9.699999999999999,1.53,1.4,-0.25,0.31,0.05
2.86149001121521,2,3,3,3,-9.75,1.53,1.41,-0.28,0.19,0.17
2.871490001678467,2,3,3,3,-9.73,1.56,1.3,-0.17,0.1,0.21
2.881489992141724,2,3,3,3,-9.68,1.58,1.31,-0.09,0,0.21
2.89148998260498,2,3,3,3,-9.66,1.59,1.42,-0.22,-0.04,0.19
2.901489973068237,2,3,3,3,-9.58,1.59,1.44,-0.34,-0.08,0.12
2.911489963531494,2,3,3,3,-9.57,1.6,1.38,-0.31,-0.13,0.06
2.921489953994751,2,3,3,3,-9.59,1.59,1.27,-0.28,-0.2,-0.1
2.931489944458008,2,3,3,3,-9.6,1.56,1.34,-0.24,-0.18,-0.26
2.941489934921265,2,3,3,3,-9.630000000000001,1.5,1.44,-0.14,-0.18,-0.42
2.951489925384521,2,3,3,3,-9.630000000000001,1.52,1.4,-0.06,-0.18,-0.48
2.961489915847778,2,3,3,3,-9.640000000000001,1.53,1.46,-0.01,-0.14,-0.48
2.971489906311035,2,3,3,3,-9.65,1.55,1.36,0.04,-0.16,-0.42
2.981489896774292,2,3,3,3,-9.67,1.6,1.4,0.05,-0.18,-0.4
2.991489887237549,2,3,3,3,-9.66,1.61,1.41,-0.02,-0.14,-0.36
3.001489877700806,2,3,3,3,-9.65,1.6,1.45,-0.03,-0.17,-0.35
3.011490106582642,2,3,3,3,-9.619999999999999,1.6,1.46,-0.05,-0.18,-0.38
3.021490097045898,2,3,3,3,-9.57,1.6,1.37,-0.04,-0.15,-0.44
3.031490087509155,2,3,3,3,-9.539999999999999,1.59,1.42,-0.02,-0.17,-0.48
3.041490077972412,2,3,3,3,-9.56,1.58,1.43,-0.04,-0.1,-0.53
3.051490068435669,2,3,3,3,-9.6,1.58,1.48,0,-0.08,-0.58
3.061490058898926,2,3,3,3,-9.66,1.57,1.48,0.02,-0.1,-0.5600000000000001
3.071490049362183,2,3,3,3,-9.65,1.57,1.37,-0.01,-0.11,-0.58
3.081490039825439,2,3,3,3,-9.630000000000001,1.57,1.42,0,-0.1,-0.57
3.091490030288696,2,3,3,3,-9.619999999999999,1.54,1.52,-0.03,-0.11,-0.5600000000000001
3.101490020751953,2,3,3,3,-9.640000000000001,1.57,1.53,0.08,-0.13,-0.58
3.11149001121521,2,3,3,3,-9.66,1.56,1.54,0.05,-0.13,-0.52
3.121490001678467,2,3,3,3,-9.65,1.58,1.43,0.01,-0.19,-0.47
3.131489992141724,2,3,3,3,-9.59,1.6,1.44,0.11,-0.27,-0.47
3.14148998260498,2,3,3,3,-9.6,1.59,1.46,0.07000000000000001,-0.25,-0.46
3.151489973068237,2,3,3,3,-9.619999999999999,1.55,1.49,0.04,-0.25,-0.48
3.161489963531494,2,3,3,3,-9.609999999999999,1.53,1.43,-0.01,-0.2,-0.53
3.171489953994751,2,3,3,3,-9.609999999999999,1.53,1.41,-0.06,-0.12,-0.51
3.181489944458008,2,3,3,3,-9.609999999999999,1.5,1.45,-0.13,-0.05,-0.51
3.191489934921265,2,3,3,3,-9.609999999999999,1.46,1.43,-0.13,-0.01,-0.5
3.201489925384521,2,3,3,3,-9.609999999999999,1.41,1.47,-0.15,0.08,-0.5
3.211489915847778,2,3,3,3,-9.69,1.4,1.54,-0.14,0.06,-0.46
3.221489906311035,2,3,3,3,-9.65,1.41,1.41,0,-0.08,-0.46
3.231489896774292,2,3,3,3,-9.65,1.4,1.39,0.02,-0.17,-0.46
3.241489887237549,2,3,3,3,-9.67,1.38,1.43,-0.06,-0.19,-0.45
3.251489877700806,2,3,3,3,-9.67,1.37,1.52,-0.15,-0.24,-0.48
3.261490106582642,2,3,3,3,-9.65,1.36,1.49,-0.1,-0.34,-0.5
3.271490097045898,2,3,3,3,-9.6,1.38,1.42,0.05,-0.32,-0.54
3.281490087509155,2,3,3,3,-9.58,1.37,1.48,0.03,-0.23,-0.57
3.291490077972412,2,3,3,3,-9.59,1.4,1.49,0.07000000000000001,-0.17,-0.57
3.301490068435669,2,3,3,3,-9.58,1.38,1.49,0.14,-0.11,-0.57
3.311490058898926,2,3,3,3,-9.630000000000001,1.41,1.5,0.18,-0.09,-0.57
3.321490049362183,2,3,3,3,-9.640000000000001,1.45,1.35,0.25,-0.08,-0.59
3.331490039825439,2,3,3,3,-9.65,1.45,1.4,0.2,-0.06,-0.61
3.341490030288696,2,3,3,3,-9.65,1.45,1.44,0.12,-0.05,-0.67
3.351490020751953,2,3,3,3,-9.640000000000001,1.44,1.48,0.01,-0.09,-0.7
3.36149001121521,2,3,3,3,-9.6,1.39,1.61,-0.16,-0.15,-0.71
3.371490001678467,2,3,3,3,-9.58,1.37,1.54,-0.21,-0.22,-0.76
3.381489992141724,2,3,3,3,-9.56,1.35,1.59,-0.15,-0.25,-0.78
3.39148998260498,2,3,3,3,-9.539999999999999,1.29,1.58,-0.16,-0.18,-0.77
3.401489973068237,2,3,3,3,-9.640000000000001,1.2,1.69,-0.19,-0.11,-0.73
3.411489963531494,2,3,3,3,-9.68,1.16,1.6,-0.16,-0.09,-0.61
3.421489953994751,2,3,3,3,-9.74,1.15,1.47,-0.07000000000000001,-0.08,-0.51
3.431489944458008,2,3,3,3,-9.77,1.18,1.53,0.02,-0.1,-0.38
3.441489934921265,2,3,3,3,-9.76,1.23,1.6,0.07000000000000001,-0.15,-0.27
3.451489925384521,2,3,3,3,-9.74,1.28,1.6,0.14,-0.25,-0.14
3.461489915847778,2,3,3,3,-9.699999999999999,1.33,1.56,0.08,-0.35,-0.05
3.471489906311035,2,3,3,3,-9.630000000000001,1.35,1.51,0.03,-0.46,0.03
3.481489896774292,2,3,3,3,-9.619999999999999,1.39,1.52,-0.07000000000000001,-0.49,-0.01
3.491489887237549,2,3,3,3,-9.58,1.42,1.51,-0.18,-0.51,-0.05
3.501489877700806,2,3,3,3,-9.58,1.42,1.51,-0.26,-0.46,-0.2
3.511490106582642,2,3,3,3,-9.58,1.4,1.54,-0.28,-0.43,-0.39
3.521490097045898,2,3,3,3,-9.58,1.42,1.48,-0.3,-0.43,-0.58
3.531490087509155,2,3,3,3,-9.58,1.41,1.51,-0.46,-0.45,-0.79
3.541490077972412,2,3,3,3,-9.59,1.42,1.5,-0.47,-0.45,-1.03
3.551490068435669,2,3,3,3,-9.59,1.42,1.5,-0.53,-0.48,-1.21
3.561490058898926,2,3,3,3,-9.52,1.42,1.47,-0.64,-0.41,-1.34
3.571490049362183,2,3,3,3,-9.609999999999999,1.28,1.5,-0.9,-0.35,-1.47
3.591490030288696,2,3,3,3,-9.550000000000001,1.17,1.56,-0.92,-0.51,-1.71
3.601490020751953,2,3,3,3,-9.550000000000001,1.17,1.56,-0.88,-0.51,-1.77
3.61149001121521,2,3,3,3,-9.51,1.11,1.54,-0.88,-0.51,-1.77
3.621490001678467,2,3,3,3,-9.699999999999999,1.04,1.61,-0.91,-0.33,-1.8
3.631489992141724,2,3,3,3,-9.81,0.93,1.54,-0.84,-0.39,-1.76
3.64148998260498,2,3,3,3,-9.84,0.95,1.63,-0.63,-0.41,-1.69
3.651489973068237,2,3,3,3,-9.789999999999999,0.93,1.72,-0.44,-0.38,-1.55
3.661489963531494,2,3,3,3,-9.789999999999999,0.93,1.72,-0.18,-0.48,-1.28
3.671489953994751,2,3,3,3,-9.789999999999999,0.99,1.61,0.16,-0.54,-1.05
3.681489944458008,2,3,3,3,-9.800000000000001,1.09,1.64,0.46,-0.52,-0.87
3.691489934921265,2,3,3,3,-9.800000000000001,1.17,1.65,0.65,-0.65,-0.75
3.701489925384521,2,3,3,3,-9.800000000000001,1.17,1.65,0.7,-0.71,-0.74
3.711489915847778,2,3,3,3,-9.640000000000001,1.26,1.66,0.42,-0.7,-0.7
3.721489906311035,2,3,3,3,-9.44,1.32,1.52,0.13,-0.57,-0.66
3.731489896774292,2,3,3,3,-9.470000000000001,1.3,1.63,-0.17,-0.36,-0.66
3.741489887237549,2,3,3,3,-9.550000000000001,1.23,1.76,-0.48,-0.36,-0.62
3.751489877700806,2,3,3,3,-9.550000000000001,1.23,1.76,-0.48,-0.36,-0.62
3.761490106582642,2,3,3,3,-9.56,1.17,1.72,-0.63,-0.47,-0.57
3.771490097045898,2,3,3,3,-9.609999999999999,1.15,1.65,-0.7,-0.46,-0.35
3.781490087509155,2,3,3,3,-9.68,1.21,1.74,-0.73,-0.55,-0.22
3.791490077972412,2,3,3,3,-9.73,1.31,1.83,-0.72,-0.76,-0.04
3.801490068435669,2,3,3,3,-9.73,1.31,1.83,-0.72,-0.76,-0.04
3.811490058898926,2,3,3,3,-9.789999999999999,1.35,1.89,-0.83,-1.06,0.18
3.821490049362183,2,3,3,3,-9.73,1.29,1.78,-0.75,-1.59,0.38
3.831490039825439,2,3,3,3,-9.619999999999999,1.23,1.51,-0.73,-1.25,0.33
3.841490030288696,2,3,3,3,-9.67,1.19,1.69,-0.88,-0.98,0.28
3.851490020751953,2,3,3,3,-9.67,1.16,1.79,-0.88,-0.98,0.28
3.862489938735962,2,3,3,3,-9.57,1.12,1.81,-0.84,-0.96,0.31
3.872489929199219,2,3,3,3,-9.550000000000001,1.11,1.68,-0.24,-0.57,0.44
3.882489919662476,2,3,3,3,-9.609999999999999,1.12,1.55,-0.07000000000000001,-0.24,0.39
3.892489910125732,2,3,3,3,-9.68,1.15,1.6,-0.06,-0.06,0.27
3.902489900588989,2,3,3,3,-9.67,1.17,1.65,-0.06,-0.06,0.27
3.912489891052246,2,3,3,3,-9.6,1.15,1.69,-0.17,-0.04,0.21
3.922489881515503,2,3,3,3,-9.539999999999999,1.15,1.76,-0.5600000000000001,0.2,0.38
3.932490110397339,2,3,3,3,-9.56,1.11,1.76,-0.57,0.17,0.52
3.942490100860596,2,3,3,3,-9.6,1.05,1.86,-0.09,0.06,0.59
3.952490091323853,2,3,3,3,-9.550000000000001,1.07,1.86,-0.09,0.06,0.59
3.962490081787109,2,3,3,3,-9.529999999999999,1.14,1.92,0.37,0.12,0.71
3.972490072250366,2,3,3,3,-9.5,1.14,1.78,1.1,0.57,0.77
3.982490062713623,2,3,3,3,-9.779999999999999,1.2,1.74,0.89,0.62,0.71
3.99249005317688,2,3,3,3,-9.82,1.17,1.87,0.61,0.31,0.6899999999999999
4.002490043640137,2,3,3,3,-9.74,1.14,1.85,0.61,0.31,0.6899999999999999
4.012490034103394,2,3,3,3,-9.710000000000001,1.12,1.92,0.37,0.18,0.62
4.02249002456665,2,3,3,3,-9.9,1.02,1.88,0.28,0.17,0.48
4.032490015029907,2,3,3,3,-9.98,0.98,1.73,0.64,0.2,0.61
4.042490005493164,2,3,3,3,-9.99,0.96,1.71,0.86,0.43,0.91
4.052489995956421,2,3,3,3,-9.890000000000001,1.03,1.68,0.86,0.43,0.91
4.062489986419678,2,3,3,3,-9.59,1.28,1.48,0.9,0.64,1.28
4.072489976882935,2,3,3,3,-9.529999999999999,1.43,1.57,0.6,0.68,1.57
4.082489967346191,2,3,3,3,-9.59,1.5,1.67,0.41,0.37,1.33
4.092489957809448,2,3,3,3,-9.550000000000001,1.57,1.8,0.47,-0.01,1.07
4.102489948272705,2,3,3,3,-9.529999999999999,1.51,1.74,0.47,-0.01,1.07
4.112489938735962,2,3,3,3,-9.550000000000001,1.46,1.79,0.37,0.11,0.85
4.122489929199219,2,3,3,3,-9.58,1.49,1.77,0.32,0.8,0.75
4.132489919662476,2,3,3,3,-9.59,1.63,1.49,0.24,0.93,0.88
4.142489910125732,2,3,3,3,-9.539999999999999,1.7,1.45,0.05,1.02,1.06
4.152489900588989,2,3,3,3,-9.52,1.74,1.45,0.05,1.02,1.06
4.162489891052246,2,3,3,3,-9.51,1.74,1.42,-0.3,0.9399999999999999,1.23
4.172489881515503,2,3,3,3,-9.609999999999999,1.67,1.5,-1.1,0.45,1.15
4.182490110397339,2,3,3,3,-9.67,1.6,1.53,-1.36,0.27,0.9399999999999999
4.192490100860596,2,3,3,3,-9.710000000000001,1.52,1.65,-1.43,0.28,0.71
4.202490091323853,2,3,3,3,-9.74,1.43,1.7,-1.43,0.28,0.71
4.212490081787109,2,3,3,3,-9.66,1.3,1.72,-1.35,0.43,0.48
4.222490072250366,2,3,3,3,-9.66,1.3,1.67,-0.76,0.61,0.42
4.232490062713623,2,3,3,3,-9.630000000000001,1.31,1.54,-0.5,0.6,0.59
4.24249005317688,2,3,3,3,-9.539999999999999,1.33,1.48,-0.26,0.57,0.76
4.252490043640137,2,3,3,3,-9.49,1.52,1.49,-0.26,0.57,0.76
4.262490034103394,2,3,3,3,-9.449999999999999,1.61,1.48,-0.15,0.43,0.88
4.27249002456665,2,3,3,3,-9.49,1.71,1.48,-0.12,0.18,0.79
4.282490015029907,2,3,3,3,-9.57,1.77,1.45,-0.16,-0.15,0.61
4.292490005493164,2,3,3,3,-9.58,1.79,1.49,-0.28,-0.49,0.31
4.302489995956421,2,3,3,3,-9.539999999999999,1.78,1.53,-0.38,-0.74,-0.01
4.312489986419678,2,3,3,3,-9.470000000000001,1.77,1.57,-0.53,-0.89,-0.29
4.322489976882935,2,3,3,3,-9.24,1.74,1.56,-0.62,-0.96,-0.43
4.332489967346191,2,3,3,3,-9.18,1.77,1.59,-0.64,-1.06,-0.47
4.342489957809448,2,3,3,3,-9.15,1.76,1.7,-0.78,-1.07,-0.42
4.352489948272705,2,3,3,3,-9.140000000000001,1.85,1.74,-0.83,-1.13,-0.41
4.362489938735962,2,3,3,3,-9.1,1.9,1.52,-0.66,-1.13,-0.43
4.372489929199219,2,3,3,3,-9.31,1.79,1.63,-0.44,-0.78,-0.47
4.382489919662476,2,3,3,3,-9.619999999999999,1.68,1.77,-0.75,-0.15,-0.6
4.392489910125732,2,3,3,3,-9.77,1.57,1.8,-1.37,0.05,-0.63
4.402489900588989,2,3,3,3,-9.99,1.49,1.83,-1.31,-0.04,-0.5600000000000001
4.412489891052246,2,3,3,3,-10.19,1.39,1.84,-0.89,0.26,-0.42
4.422489881515503,2,3,3,3,-10.25,1.3,1.8,-0.62,0.74,-0.16
4.432490110397339,2,3,3,3,-10.25,1.25,1.65,-0.57,1.11,0.24
4.442490100860596,2,3,3,3,-9.99,1.39,1.84,-0.77,1.09,0.83
4.452490091323853,2,3,3,3,-9.74,1.49,1.99,-0.97,0.49,1.46
4.462490081787109,2,3,3,3,-9.449999999999999,1.58,1.89,-0.83,-0.35,2.04
4.472490072250366,2,3,3,3,-9.06,1.71,1.55,-0.18,-0.65,2.34
4.482490062713623,2,3,3,3,-8.970000000000001,1.69,1.62,0.4,-0.2,2.37
4.49249005317688,2,3,3,3,-8.890000000000001,1.77,1.79,0.17,0.32,2.31
4.502490043640137,2,3,3,3,-8.789999999999999,1.81,1.69,0.18,0.44,2.17
4.512490034103394,2,3,3,3,-9.359999999999999,1.9,1.72,0.88,0.47,1.89
4.52249002456665,2,3,3,3,-10.03,1.84,1.99,1.06,0.8,1.27
4.532490015029907,2,3,3,3,-10.35,1.83,1.91,0.1,0.68,0.47
4.542490005493164,2,3,3,3,-10.4,1.78,1.72,-0.12,-0.1,-0.16
4.552489995956421,2,3,3,3,-10.27,1.35,1.59,0.08,-0.15,-0.51
4.562489986419678,2,3,3,3,-10.1,1.25,1.79,-0.52,0.82,-0.28
4.572489976882935,2,3,3,3,-9.93,1.31,2.04,-0.52,0.82,-0.28
4.582489967346191,2,3,3,3,-9.77,1.46,2,-0.45,0.23,0.43
4.592489957809448,2,3,3,3,-9.17,1.66,1.6,0.08,-0.72,1.18
4.602489948272705,2,3,3,3,-9.07,1.86,1.49,1.98,-0.48,1.95
4.612489938735962,2,3,3,3,-8.970000000000001,1.97,1.58,1.75,0.19,2.09
4.622489929199219,2,3,3,3,-8.83,1.93,1.58,1.36,0.47,2.09
4.632489919662476,2,3,3,3,-8.609999999999999,2.15,1.45,1.1,0.5600000000000001,2.06
4.642489910125732,2,3,3,3,-8.550000000000001,2.34,1.47,0.77,0.6,2.09
4.652489900588989,2,3,3,3,-8.57,2.55,1.39,0.42,0.74,2.12
4.662489891052246,2,3,3,3,-8.66,2.7,1.27,0.06,0.98,2.15
4.672489881515503,2,3,3,3,-8.609999999999999,2.78,1.19,-0.13,1.14,2.26
4.682490110397339,2,3,3,3,-8.44,2.83,0.98,0.03,1.27,2.51
4.692490100860596,2,3,3,3,-8.19,2.88,0.88,0.37,1.55,2.96
4.702490091323853,2,3,3,3,-7.64,3.04,0.76,0.66,2.02,3.59
4.712490081787109,2,3,3,3,-7.22,3.11,0.6,1.15,2.52,4.3
4.722490072250366,2,3,3,3,-6.63,3.02,0.42,1.6,3.15,5.22
4.732490062713623,2,3,3,3,-6.04,2.81,0.28,1.3,4.11,6.2
4.74249005317688,2,3,3,3,-4.99,2.03,0.34,0.44,4.54,6.93
4.752490043640137,2,3,3,3,-4.42,1.62,0.27,-0.15,4.26,7.46
4.762490034103394,2,3,3,3,-3.86,1.26,0.26,-0.44,4.01,7.64
4.77249002456665,2,3,3,3,-3.71,0.97,0.57,-0.9399999999999999,3.51,7.42
4.782490015029907,2,3,3,3,-4.83,0.61,2.22,-1.35,2.22,6.63
4.792490005493164,2,3,3,3,-5.53,0.73,2.53,0.2,-0.78,5.56
4.802489995956421,2,3,3,3,-5.64,0.86,1.68,4.54,-4.29,4.68
4.812489986419678,2,3,3,3,-5.48,1.03,0.15,8.51,-4.8,4.53
4.822489976882935,2,3,3,3,-6,1.12,-0.6,8.35,-2.06,5.23
4.832489967346191,2,3,3,3,-6.84,1.18,0.72,4.59,-0.23,5.95
4.842489957809448,2,3,3,3,-7,0.42,1.16,2.85,-1.59,7.05
4.852489948272705,2,3,3,3,-7.23,1.11,0.8100000000000001,4.93,-2.44,7.35
4.862489938735962,2,3,3,2,-7.82,2.78,0.24,4.74,-3.22,7.1
4.872489929199219,2,3,3,2,-8.1,3.2,0.7,2.35,-3.34,6.7
4.883490085601807,2,3,3,2,-8.52,3.37,0.92,1.16,-3.48,5.92
4.893490076065063,2,3,3,2,-8.84,3.38,1.15,0.76,-3.06,5.05
4.90349006652832,2,3,3,2,-8.789999999999999,3.2,1.56,-0.35,-1.56,4.32
4.913490056991577,2,3,3,2,-8.859999999999999,2.74,1.94,-1.71,-0.77,3.84
4.923490047454834,2,3,3,2,-9.300000000000001,2.69,2.04,-2.5,-1.22,3.07
4.933490037918091,2,3,3,2,-11.01,2.67,3.27,-3.41,-1.6,1.7
4.943490028381348,2,3,3,2,-12.24,2.89,3.6,-4.11,-1.9,-0.14
4.953490018844604,2,3,3,2,-13.28,2.99,3.82,-4.21,-1.87,-2.13
4.963490009307861,2,3,3,2,-14.04,2.98,3.85,-3.72,-0.79,-3.76
4.973489999771118,2,3,3,2,-15.29,2.28,2.7,-2.52,0.5,-4.51
4.983489990234375,2,3,3,2,-16.24,2.04,2.46,-1.87,2.92,-4.42
4.993489980697632,2,3,3,2,-17.14,1.68,2.57,-1.92,3.69,-3.5
5.003489971160889,2,3,3,2,-17.7,2.12,2.63,-1.7,2.79,-2.15
5.013489961624146,2,3,3,2,-18.7,2.72,3.8,-1.46,1.73,-0.82
5.023489952087402,2,3,3,2,-19.19,2.96,4.59,-0.51,0.67,0.11
5.033489942550659,2,3,3,2,-19.59,3.39,4.78,1.87,0.65,0.55
5.043489933013916,2,3,3,2,-19.84,3.81,4.97,4.04,0.86,0.89
5.053489923477173,2,3,3,2,-20.93,4.71,4.56,4.63,1.88,0.89
5.06348991394043,2,3,3,2,-22.35,4.76,4.5,4.14,2.37,0.46
5.073489904403687,2,3,3,2,-23.41,4.69,4.3,2.72,0.83,-0.32
5.083489894866943,2,3,3,2,-24.95,4.43,4.89,1.08,-0.29,-1.95
5.0934898853302,2,3,3,2,-25.36,4.31,5.44,-0.97,-0.41,-4.28
5.103489875793457,2,3,3,2,-25.25,3.69,5.89,-3.17,0.88,-6.83
5.113490104675293,2,3,3,2,-24.59,2.64,6.15,-4.86,3.15,-8.58
5.12349009513855,2,3,3,2,-24.32,0.39,7.31,-5.74,5.33,-9.640000000000001
5.133490085601807,2,3,3,2,-24.67,-0.98,7.25,-4.78,6.39,-10.63
5.143490076065063,2,3,3,2,-25.25,-1.76,7.18,-1.41,6.04,-11.29
5.15349006652832,2,3,3,2,-25.44,-1.78,6.61,2.34,4.98,-10.58
5.163490056991577,2,3,3,2,-24.3,-0.72,3.71,5.48,4.67,-8.380000000000001
5.173490047454834,2,3,3,2,-23.21,0.73,2.24,8.1,4.97,-5.49
5.183490037918091,2,3,3,2,-21.28,2.43,0.99,10.06,4.85,-2.51
5.193490028381348,2,3,3,2,-18.04,4.9,-0.22,13.53,2.3,1.9
5.203490018844604,2,3,3,2,-11.94,9.800000000000001,-3.51,18.74,0.21,5.86
5.213490009307861,2,3,3,2,-9.43,10.09,-6.35,23,0.4,6.61
5.223489999771118,2,3,3,2,-6.39,10.24,-8.17,23.92,1.82,4.71
5.233489990234375,2,3,3,2,-3.06,10.78,-7.14,17.59,6.02,2.04
5.243489980697632,2,3,3,2,4.42,13.31,-2.87,6.42,4.76,-1.3
5.253489971160889,2,3,3,2,9.640000000000001,14.03,-3.17,-0.08,-6.63,-2.1
5.263489961624146,2,3,3,2,13.77,14.35,-5.72,0.37,-15.71,-1.63
5.273489952087402,2,3,3,2,12.45,8.9,-8.15,-1.08,-15.96,-1.08
5.283489942550659,2,3,3,2,9.17,5.59,-4.7,-7.71,-5.93,-2.31
5.293489933013916,2,3,3,2,5.34,2.93,-1.68,-16.56,8.289999999999999,-4.35
5.303489923477173,2,3,3,2,3.38,1.14,-0.77,-21.04,11.93,-5.74
5.31348991394043,2,3,3,2,0,-0.9,-0.21,-21.55,9.869999999999999,-5.98
5.323489904403687,2,3,3,2,-0.99,-1.43,0.45,-20.62,5.33,-5.55
5.333489894866943,2,3,3,2,-1.17,-1.96,0.93,-19.09,0.55,-4.94
5.3434898853302,2,3,3,2,-1.63,-2.12,1.72,-17.34,-2.83,-4.5
5.353489875793457,2,3,3,2,-1.84,-3.16,1.63,-14.89,-5.11,-3.48
5.363490104675293,2,3,3,2,-2.06,-3.35,0.7,-10.22,-6.17,-3.13
5.37349009513855,2,3,3,2,-2.56,-3.34,0.52,-6.33,-4.39,-3.6
5.383490085601807,2,3,3,2,-2.88,-3.55,0.53,-4,-2.54,-4.25
5.393490076065063,2,3,3,2,-2.83,-3.42,0.96,-1.84,-1.83,-4.19
5.40349006652832,2,3,3,2,-2.77,-3.18,0.8,-0.11,-1.12,-3.19
5.413490056991577,2,3,3,2,-2.35,-2.7,0.27,1.63,0.4,-1.64
5.423490047454834,2,3,3,2,-1.77,-2.17,-0.07000000000000001,3.36,2.25,0.3
5.433490037918091,2,3,3,2,-1.58,-1.67,0.53,3.44,2.99,2.18
5.443490028381348,2,3,3,2,-0.91,-1.66,0.49,3.79,1.64,3.95
5.453490018844604,2,3,3,2,0.2,-1.21,-0.04,5.73,0.63,5.55
5.463490009307861,2,3,3,2,0.89,-1.22,0.21,6.28,1.51,6.61
5.473489999771118,2,3,3,2,0.76,-1.6,0.66,5.19,2.2,7.3
5.483489990234375,2,3,3,2,0.75,-1.05,0.75,5.85,1.31,8.06
5.493489980697632,2,3,3,2,0.6899999999999999,-0.32,0.6899999999999999,7.69,0.16,8.15
5.503489971160889,2,3,3,2,0.91,0.21,0.38,8.720000000000001,-0.62,7.89
5.513489961624146,2,3,3,2,0.84,0.35,0.35,9.41,-0.79,7.21
5.523489952087402,2,3,3,2,0.7,0.41,0.22,9.75,-0.74,6.46
5.533489942550659,2,3,3,2,0.62,0.57,-0.17,9.94,-0.47,5.75
5.543489933013916,2,3,3,2,-0.03,0.97,0.03,9.32,-0.3,5.14
5.553489923477173,2,3,3,2,-0.07000000000000001,1.18,0,8.27,-1.3,4.67
5.56348991394043,2,3,3,2,-0.09,1.33,-0.07000000000000001,7.49,-3.13,3.91
5.573489904403687,2,3,3,2,-0.1,1.28,-0.1,5.91,-4.76,2.61
5.583489894866943,2,3,3,2,0.18,1.4,0.28,3.53,-5.44,0.55
5.5934898853302,2,3,3,2,0.28,1.5,0.67,0.41,-5.75,-1.75
5.603489875793457,2,3,3,2,0.24,1.89,0.72,-1.66,-7.23,-3.92
5.613490104675293,2,3,3,2,0.33,3.17,0.93,-0.93,-8.81,-5.58
5.62349009513855,2,3,3,2,0.89,4.9,0.2,1.48,-7.71,-6.29
5.633490085601807,2,3,3,2,-0.15,6.8,1.05,2.28,-4.54,-6.44
5.643490076065063,2,3,3,2,-2.46,8.82,0.51,0.88,-3.19,-6.45
5.65349006652832,2,3,3,2,-4.64,11.13,-1.44,4.01,-2.3,-6.94
5.663490056991577,2,3,3,2,-27.19,14.63,5.52,1.31,0.34,-14.95
5.673490047454834,2,3,3,2,-27.19,14.63,5.52,-14.35,-11.91,-23.37
5.683490037918091,2,3,3,2,-39.08,14.9,-1.7,-33.6,-30.07,-35.38
5.693490028381348,2,3,3,2,-27.89,-16.52,-4.49,-44.69,8.09,-14.44
5.703490018844604,2,3,3,2,-29.17,-12.73,7.4,-43.41,9.33,4.77
5.713490009307861,2,3,3,2,-29.17,-12.73,7.4,-20.41,3.57,-0.35
5.723489999771118,2,3,3,2,-32.58,-7.25,15.57,4.16,9.220000000000001,-8.199999999999999
5.733489990234375,2,3,3,2,-21.84,-2.35,5.05,16.23,5.56,-6.13
5.743489980697632,2,3,3,2,-24.22,-2.84,3.66,18.13,4.55,-5.28
5.753489971160889,2,3,3,2,-26.14,-2.87,1.83,11.21,7.5,-5.32
5.763489961624146,2,3,3,2,-26.14,-2.87,1.83,5.17,5.82,-2.08
5.773489952087402,2,3,3,2,-25.15,-1.79,1.58,1.75,-1.51,2.94
5.783489942550659,2,3,3,2,-17.83,1.87,4.51,1.65,-8.81,5.48
5.793489933013916,2,3,3,2,-15.05,2,5.98,1.41,-10.67,4.68
5.803489923477173,2,3,3,2,-12.53,1.45,6.18,0.9399999999999999,-7.22,2.94
5.81348991394043,2,3,3,2,-12.53,1.45,6.18,0.9399999999999999,-7.22,2.94
5.823489904403687,2,3,3,2,-12.64,-0.31,4.6,1.76,-0.72,2.04
5.833489894866943,2,3,3,2,-14.56,0.52,2.94,6.23,2.24,2.16
5.8434898853302,2,3,3,2,-14.84,1.29,2.31,6.95,2.2,2.59
5.853489875793457,2,3,3,2,-14.36,2.85,1.22,6.35,2.8,2.61
5.863490104675293,2,3,3,2,-14.36,2.85,1.22,5.1,3.31,2.2
5.87349009513855,2,3,3,2,-13.71,3.06,0.65,3.55,3.23,1.63
5.883490085601807,2,3,3,2,-10.86,2.91,0.23,1.93,2.88,1.35
5.893490076065063,2,3,3,2,-9.49,2.75,0.35,0.75,2.03,1.31
5.904489994049072,2,3,3,2,-8.19,2.6,0.57,-0.19,0.59,1.61
5.914489984512329,2,3,3,2,-8.19,2.6,0.57,-0.58,-0.45,1.9
5.924489974975586,2,3,3,2,-6.63,2.56,0.72,-0.63,-1.58,1.65
5.934489965438843,2,3,3,2,-3.99,2.5,1.28,0.1,-0.8100000000000001,2.51
5.9444899559021,2,3,3,2,-3.63,2.78,1.27,1.02,0.67,2.89
5.954489946365356,2,3,3,2,-3.51,2.63,1.01,0.87,2.62,2.95
5.964489936828613,2,3,3,2,-3.51,2.63,1.01,0.87,2.62,2.95
5.97448992729187,2,3,3,2,-3.77,2.64,0.65,0.59,3.48,2.92
5.984489917755127,2,3,3,2,-3.88,1.99,0.04,-0.35,3.41,1.58
5.994489908218384,2,3,3,2,-3.88,1.99,0.04,-1.43,2.42,0.7
6.004489898681641,2,3,3,2,-4.14,1.55,0.08,-2.41,0.93,-0.12
6.014489889144897,2,3,3,2,-4.52,1,0.46,-2.41,0.93,-0.12
6.024489879608154,2,3,3,2,-4.8,0.97,0.63,-2.7,-0.24,-0.87
6.03449010848999,2,3,3,2,-5.05,1.01,0.7,-1.57,-1.07,-1.87
6.044490098953247,2,3,3,2,-5.39,1.19,0.67,-0.8,-0.55,-2.16
6.054490089416504,2,3,3,2,-6.58,1.82,0.73,-0.03,-0.01,-2.3
6.064490079879761,2,3,3,2,-7.44,2.21,0.76,-0.03,-0.01,-2.3
6.074490070343018,2,3,3,2,-8.289999999999999,2.52,0.73,0.68,-0.05,-2.4
6.084490060806274,2,3,3,2,-9.029999999999999,2.73,0.64,0.64,-0.78,-2.51
6.094490051269531,2,3,3,2,-10.33,3.14,0.72,-0.87,-0.53,-2.69
6.104490041732788,2,3,3,2,-10.62,3.22,1.15,-2.76,-0.85,-2.58
6.114490032196045,2,3,3,2,-10.73,3.35,1.35,-2.76,-0.85,-2.58
6.124490022659302,2,3,3,2,-10.41,2.78,1.39,-3.87,-1.56,-2.64
6.134490013122559,2,3,3,2,-10.53,2.24,1.66,-4.7,-1.75,-3.59
6.144490003585815,2,3,3,2,-10.83,1.63,1.95,-4.08,-1.56,-4.24
6.154489994049072,2,3,3,2,-11.17,1.05,2.11,-2.95,-0.92,-4.61
6.164489984512329,2,3,3,2,-11.96,0.34,2.32,-2.95,-0.92,-4.61
6.174489974975586,2,3,3,2,-12.23,0.11,2.25,-2.34,0.29,-4.51
6.184489965438843,2,3,3,2,-12.05,-0.07000000000000001,1.86,-1.69,0.98,-2.98
6.1944899559021,2,3,3,2,-11.63,-0.1,1.54,-1.53,0.8,-1.89
6.204489946365356,2,3,3,2,-11.07,-0.31,1.52,-1.35,0.29,-0.9
6.214489936828613,2,3,3,2,-10.78,-0.33,1.55,-1.35,0.29,-0.9
6.22448992729187,2,3,3,2,-10.43,-0.19,1.61,-0.95,-0.46,0.08
6.234489917755127,2,3,3,2,-10.07,0.24,1.62,-0.31,-1.31,1.67
6.244489908218384,2,3,3,2,-9.109999999999999,0.68,1.41,-0.26,-1.17,2.45
6.254489898681641,2,3,3,2,-8.83,0.96,1.53,-0.43,-0.8100000000000001,3.15
6.264489889144897,2,3,3,2,-8.52,1.24,1.6,-0.43,-0.8100000000000001,3.15
6.274489879608154,2,3,3,2,-8.24,1.51,1.57,-0.47,-0.7,3.58
6.28449010848999,2,3,3,2,-7.89,1.8,1.56,-0.33,-0.13,3.36
6.294490098953247,2,3,3,2,-7.86,1.78,1.53,-0.46,0.12,2.79
6.304490089416504,2,3,3,2,-7.9,1.77,1.56,-0.59,0.39,2.02
6.314490079879761,2,3,3,2,-8.24,1.64,1.63,-0.59,0.39,2.02
6.324490070343018,2,3,3,2,-8.529999999999999,1.53,1.73,-0.89,0.67,1.15
6.334490060806274,2,3,3,2,-8.74,1.42,1.68,-1.5,0.36,-0.55
6.344490051269531,2,3,3,2,-8.92,1.39,1.57,-1.67,-0.01,-1.2
6.354490041732788,2,3,3,2,-9.31,1.28,1.74,-1.98,-0.4,-1.71
6.364490032196045,2,3,3,2,-9.56,1.27,1.74,-1.98,-0.4,-1.71
6.374490022659302,2,3,3,2,-9.76,1.27,1.61,-1.97,-0.83,-2.01
6.384490013122559,2,3,3,2,-10.06,1.2,1.49,-1.85,-0.68,-2.2
6.394490003585815,2,3,3,2,-10.69,0.92,1.42,-2.25,-0.6899999999999999,-2.11
6.404489994049072,2,3,3,2,-10.91,0.87,1.52,-2.32,-0.91,-1.81
6.414489984512329,2,3,3,2,-11.02,0.78,1.51,-2.32,-0.91,-1.81
6.424489974975586,2,3,3,3,-11,0.71,1.53,-2.11,-1.18,-1.23
6.434489965438843,2,3,3,3,-10.61,0.33,1.62,-1.92,-1.34,-0.58
6.4444899559021,2,3,3,3,-10.44,0.24,1.81,-1.74,-0.96,0.13
6.454489946365356,2,3,3,3,-10.2,0.22,2,-1.48,-0.7,0.9399999999999999
6.464489936828613,2,3,3,3,-9.92,0.26,1.99,-0.8100000000000001,-0.61,1.87
6.47448992729187,2,3,3,3,-9.52,0.45,1.92,0.18,-0.27,2.75
6.484489917755127,2,3,3,3,-9.390000000000001,0.59,1.86,1.13,0.35,3.41
6.494489908218384,2,3,3,3,-9.32,0.77,1.77,1.9,0.89,3.86
6.504489898681641,2,3,3,3,-9.130000000000001,1.27,1.54,2.56,1.21,4.03
6.514489889144897,2,3,3,3,-9.18,1.39,1.4,2.96,1.44,3.98
6.524489879608154,2,3,3,3,-9.25,1.53,1.44,3.23,1.66,3.66
6.53449010848999,2,3,3,3,-9.31,1.65,1.46,3.1,1.58,3.18
6.544490098953247,2,3,3,3,-9.42,1.98,1.43,2.84,1.06,2.7
6.554490089416504,2,3,3,3,-9.43,2.07,1.45,2.65,0.39,2.17
6.564490079879761,2,3,3,3,-9.48,2.18,1.42,2.54,-0.23,1.61
6.574490070343018,2,3,3,3,-9.42,2.21,1.38,2.38,-0.62,1.1
6.584490060806274,2,3,3,3,-9.41,2.28,1.31,1.97,-0.72,0.62
6.594490051269531,2,3,3,3,-9.460000000000001,2.24,1.29,1.41,-0.71,0.25
6.604490041732788,2,3,3,3,-9.529999999999999,2.2,1.28,0.89,-0.61,-0.05
6.614490032196045,2,3,3,3,-9.58,2.18,1.26,0.62,-0.35,-0.24
6.624490022659302,2,3,3,3,-9.57,1.96,1.34,0.28,-0.01,-0.24
6.634490013122559,2,3,3,3,-9.59,1.88,1.43,-0.11,0.32,-0.12
6.644490003585815,2,3,3,3,-9.57,1.8,1.38,-0.41,0.57,0.09
6.654489994049072,2,3,3,3,-9.51,1.76,1.38,-0.55,0.72,0.35
6.664489984512329,2,3,3,3,-9.449999999999999,1.75,1.65,-0.77,0.9,0.64
6.674489974975586,2,3,3,3,-9.4,1.72,1.76,-1.24,0.96,0.87
6.684489965438843,2,3,3,3,-9.279999999999999,1.71,1.74,-1.49,0.75,1.03
6.6944899559021,2,3,3,3,-9.140000000000001,1.65,1.51,-1.23,0.48,1.01
6.704489946365356,2,3,3,3,-9.26,1.63,1.63,-0.63,0.58,0.89
6.714489936828613,2,3,3,3,-9.390000000000001,1.63,1.67,-0.24,0.85,0.72
6.72448992729187,2,3,3,3,-9.44,1.63,1.63,-0.01,0.87,0.64
6.734489917755127,2,3,3,3,-9.49,1.71,1.25,0.38,0.83,0.68
6.744489908218384,2,3,3,3,-9.52,1.73,1.06,0.71,0.85,0.78
6.754489898681641,2,3,3,3,-9.51,1.75,1.05,0.72,0.98,0.98
6.764489889144897,2,3,3,3,-9.449999999999999,1.8,1.15,0.33,1.05,1.14
6.774489879608154,2,3,3,3,-9.17,1.95,1.46,-0.28,0.92,1.33
6.78449010848999,2,3,3,3,-8.94,2.02,1.39,-0.67,0.65,1.48
6.794490098953247,2,3,3,3,-8.58,2.08,1.19,-0.44,0.27,1.68
6.804490089416504,2,3,3,3,-8.24,2.17,1.2,0.41,0.16,1.9
6.814490079879761,2,3,3,3,-7.79,2.37,1.13,1.35,0.39,2.27
6.824490070343018,2,3,3,3,-7.7,2.61,1.04,3.46,0.31,3.07
6.834490060806274,2,3,3,3,-7.64,2.95,0.91,3.46,0.31,3.07
6.844490051269531,2,3,3,3,-7.58,3.27,0.63,4.51,-0.35,3.61
6.854490041732788,2,3,3,3,-7.19,3.64,-0.23,5.71,-1.76,4.64
6.864490032196045,2,3,3,3,-6.86,3.7,-0.6899999999999999,5.71,-1.76,4.64
6.874490022659302,2,3,3,3,-6.37,3.71,-0.83,4.16,-2.05,5.75
6.884490013122559,2,3,3,3,-5.69,3.58,-0.6899999999999999,2.28,-1.8,6.54
6.894490003585815,2,3,3,3,-4.09,3.17,0.16,0.25,-1.48,7.41
6.904489994049072,2,3,3,3,-3.68,3.05,0.71,-1.35,-1.02,7.67
6.914489984512329,2,3,3,3,-3.35,2.59,1.21,-1.79,-1.45,7.65
6.924489974975586,2,3,3,3,-2.99,2.76,1.13,-0.68,-2.49,7.42
6.935489892959595,2,3,3,3,-2.49,2.75,0.22,0.96,-2.71,7.32
6.945489883422852,2,3,3,3,-2.49,2.45,0,1.07,0.12,7.02
6.955490112304688,2,3,3,3,-3.94,2.11,1.42,-2.01,2.94,6.31
6.965490102767944,2,3,3,3,-8.19,1.17,3.72,-5.31,1,4.91
6.975490093231201,2,3,3,3,-8.83,0.59,2.72,-4.56,-3.09,2.98
6.985490083694458,2,3,3,3,-8.74,0.21,1.59,-2.93,-4.05,1.61
6.995490074157715,2,3,3,3,-8.710000000000001,-0.17,1.59,-2.5,-1.43,0.88
7.005490064620972,2,3,3,3,-9,-0.99,1.51,-1.02,1.15,0.5600000000000001
7.015490055084229,2,3,3,3,-8.630000000000001,-0.5,1.2,1.71,2.87,0.65
7.025490045547485,2,3,3,3,-8.789999999999999,0.1,1.19,3.18,4,0.6
7.035490036010742,2,3,3,3,-9.16,0.52,1.47,3.23,2.86,0.33
7.045490026473999,2,3,3,3,-11.69,1.95,3.01,2.15,0.5600000000000001,-0.26
7.055490016937256,2,3,3,3,-13.69,2.97,3.98,1.3,-1.83,-1.56
7.065490007400513,2,3,3,3,-15.93,3.99,4.86,1.16,-4.13,-3.21
7.07548999786377,2,3,3,3,-19.47,4.18,4.94,0.96,-5.75,-4.57
7.085489988327026,2,3,3,3,-20.61,3.47,4.33,0.05,-5.39,-4.54
7.095489978790283,2,3,3,3,-21.72,2.1,3.68,-1.31,-1.86,-3.52
7.10548996925354,2,3,3,3,-22.72,1.84,3.46,-2.37,2.12,-2.33
7.115489959716797,2,3,3,3,-22.9,1.93,4.03,-2.52,4.4,-1.02
7.125489950180054,2,3,3,3,-22.03,2.86,5.11,-0.88,3.41,-0.08
7.135489940643311,2,3,3,3,-21.62,3.65,5.89,1.6,1.1,0.71
7.145489931106567,2,3,3,3,-21.37,4.34,6.21,3.45,-0.11,1.27
7.155489921569824,2,3,3,3,-22.62,5.2,6.47,3.15,-0.02,1.69
7.165489912033081,2,3,3,3,-23.58,5,5.84,0.22,0.84,1.51
7.195489883422852,2,3,3,3,-25.21,1.13,7.24,-10.49,4.51,-3.42
7.225490093231201,2,3,3,3,-26.74,-2.46,7.17,-1.84,5.29,-8.56
7.235490083694458,2,3,3,3,-26.38,-2.08,4.07,2.55,2.45,-6.92
7.245490074157715,2,3,3,3,-25.38,-0.84,2.87,4.57,1.18,-4.26
7.255490064620972,2,3,3,3,-23.38,1.35,1.81,6.25,1.47,-0.6899999999999999
7.265490055084229,2,3,3,3,-19.34,4.03,0.33,9.039999999999999,0.99,4.08
7.275490045547485,2,3,3,3,-12.13,9.01,-1.13,12,0.46,8.25
7.285490036010742,2,3,3,3,-9.550000000000001,8.99,-2.47,12.89,0.95,9.390000000000001
7.295490026473999,2,3,3,3,-6.18,8.43,-3.81,12.67,2.17,7.5
7.305490016937256,2,3,3,3,0.8,8.25,-3.23,9.17,3.29,4.26
7.315490007400513,2,3,3,3,3.7,8.99,-1.53,2.94,2.52,0.57
7.32548999786377,2,3,3,3,5.97,9.58,-0.53,-2.56,-1.72,-0.86
7.335489988327026,2,3,3,3,6.93,10.11,-1.63,-3.03,-4.78,-2.06
7.345489978790283,2,3,3,3,10.77,9.82,-5.56,0.9399999999999999,-7.98,-1.16
7.35548996925354,2,3,3,3,9.449999999999999,7.44,-6.92,2.05,-6.21,0.01
7.365489959716797,2,3,3,3,7,4.99,-5.18,-1.7,0.83,-0.52
7.375489950180054,2,3,3,3,4.6,2.98,-3.25,-7.28,6.27,-2.44
7.385489940643311,2,3,3,3,2.77,0.93,-1.51,-9.640000000000001,6.45,-3.47
7.395489931106567,2,3,3,3,1.95,0.48,-0.91,-12.09,5.61,-3.94
7.405489921569824,2,3,3,3,0.64,-0.01,-0.46,-14.58,4.25,-3.87
7.415489912033081,2,3,3,3,-0.59,-0.25,-0.18,-15.32,1.13,-3.59
7.425489902496338,2,3,3,3,-0.65,-0.28,-0.02,-14.64,-2.08,-3.23
7.435489892959595,2,3,3,3,-0.61,-0.11,0.23,-13.07,-4.76,-2.59
7.445489883422852,2,3,3,3,-1.28,-0.51,0.62,-12.11,-6.05,-2.57
7.455490112304688,2,3,3,3,-1.63,-1.36,0.99,-11.45,-5.7,-3.3
7.465490102767944,2,3,3,3,-2.54,-2.99,1.55,-9.74,-3.5,-4.61
7.475490093231201,2,3,3,3,-3.01,-3.55,1.58,-6.49,-1.5,-4.74
7.485490083694458,2,3,3,3,-3.62,-3.96,1.45,-2.84,-0.57,-4.31
7.495490074157715,2,3,3,3,-3.45,-4.31,1.04,0.35,-0.05,-3.57
7.505490064620972,2,3,3,3,-2.88,-3.98,0.74,3,-0.25,-2.17
7.515490055084229,2,3,3,3,-2.16,-3.53,0.42,4.6,-0.34,-0.18
7.525490045547485,2,3,3,3,-1.35,-2.87,0.27,5.14,0.04,2.12
7.535490036010742,2,3,3,3,0.18,-1.77,0.58,5.36,0.42,4.18
7.545490026473999,2,3,3,3,0.82,-1.54,0.54,6.05,0.28,5.46
7.555490016937256,2,3,3,3,1.3,-1.52,0.37,7.46,0.02,5.92
7.565490007400513,2,3,3,3,1.52,-1.24,0.21,9.01,-0.03,5.8
7.57548999786377,2,3,3,3,1.43,-0.77,0.4,9.74,0.14,5.57
7.585489988327026,2,3,3,3,1.22,-0.63,0.4,10.21,0,5.21
7.595489978790283,2,3,3,3,0.83,-0.53,0.31,10.78,-0.87,4.68
7.60548996925354,2,3,3,3,0.52,-0.35,0.29,11.54,-2.11,3.85
7.615489959716797,2,3,3,3,0.64,0.3,-0.31,11.91,-2.86,2.73
7.625489950180054,2,3,3,3,0.76,0.72,-0.26,11.35,-2.19,1.46
7.635489940643311,2,3,3,3,0.44,1.23,0.14,9.68,-1.2,0.05
7.645489931106567,2,3,3,3,-0.42,1.9,0.49,6.93,-2.56,-1.13
7.655489921569824,2,3,3,3,0.13,1.91,-0.88,4.57,-7.03,-1.79
7.665489912033081,2,3,3,3,1.34,1.84,-2.27,4.91,-8.9,-2.72
7.675489902496338,2,3,3,3,0.59,2.95,-0.79,3.16,-5.38,-4.53
7.685489892959595,2,3,3,3,-0.8,3.53,1.11,-2.68,-3.44,-5.99
7.695489883422852,2,3,3,3,-0.58,4.62,0.4,-4.46,-4.45,-7.17
7.705490112304688,2,3,3,3,-1.03,7.02,-0.01,-2.02,-4.67,-7.23
7.715490102767944,2,3,3,3,-2.89,9.68,-0.01,-0.28,-2.6,-6.89
7.725490093231201,2,3,3,3,-12.59,15.6,1.63,-1.18,-0.33,-8.68
7.735490083694458,2,3,3,3,-26.4,17.84,1.71,-6.76,-0.08,-16.55
7.745490074157715,2,3,3,3,-39.29,17.88,7.56,-23.95,-11.85,-30.12
7.755490064620972,2,3,3,3,-39.29,14.45,-3.14,-50.45,-19.88,-42.63
7.765490055084229,2,3,3,3,-34.19,-23.22,1.41,-52.22,19.48,-12.14
7.775490045547485,2,3,3,3,-39.29,-13.96,15,-30.84,18.01,2.31
7.785490036010742,2,3,3,3,-37.72,-7.28,13.59,-2.63,2.59,-8.76
7.795490026473999,2,3,3,3,-25.93,-2.35,10.58,19.08,-2.01,-4.06
7.805490016937256,2,3,3,3,-19.05,-0.13,5.67,14.89,3.02,1.18
7.815490007400513,2,3,3,3,-22.22,-2.26,3.92,5.65,9.949999999999999,1.23
7.82548999786377,2,3,3,3,-22.22,-2.26,3.92,-1.66,10.28,1.64
7.835489988327026,2,3,3,3,-24.73,-4.65,2.81,-3.73,1.75,1.16
7.845489978790283,2,3,3,3,-18.67,-2.07,5.77,0.25,-5.77,1.52
7.85548996925354,2,3,3,3,-16.3,-0.42,6.19,3.57,-7.32,2.07
7.865489959716797,2,3,3,3,-15.43,-0.06,5.78,4.21,-3.52,2.38
7.875489950180054,2,3,3,3,-15.43,-0.06,5.78,5.09,1.61,3.24
7.885489940643311,2,3,3,3,-16.13,-1.19,3.16,6.73,3.64,5
7.895489931106567,2,3,3,3,-14.42,-0.37,1.72,7.77,3.46,6.52
7.905489921569824,2,3,3,3,-13.17,0.37,1.22,8.119999999999999,2.92,7.85
7.915489912033081,2,3,3,3,-9.85,1.64,0.79,8.07,1.96,8.92
7.925489902496338,2,3,3,3,-9.85,1.64,0.79,8.07,1.96,8.92
7.935489892959595,2,3,3,3,-8.41,1.88,0.78,7.09,0.13,8.98
7.945489883422852,2,3,3,3,-6.24,2.35,0.61,5.75,0.12,6.02
7.956490039825439,2,3,3,3,-4.55,2.55,0.49,4.79,1.83,4.76
7.966490030288696,2,3,3,3,-3.95,2.19,0.38,3.64,3.54,4.07
7.976490020751953,2,3,3,3,-3.47,2.42,0.5600000000000001,3.31,4.67,3.96
7.98649001121521,2,3,3,3,-3.47,2.42,0.5600000000000001,2.85,5.18,3.93
7.996490001678467,2,3,3,3,-3.06,3.06,0.51,2.53,4.92,3.89
8.006489992141724,2,3,3,3,-3.18,3.28,0.57,2.07,3.54,3.69
8.01648998260498,2,3,3,3,-3.2,3.38,0.55,1.12,2.24,3.16
8.026489973068237,2,3,3,3,-3.2,3.38,0.55,-0.22,0.42,2.6
8.036489963531494,2,3,3,3,-3.36,3.64,0.58,-1.56,-0.9399999999999999,1.79
8.046489953994751,2,3,3,3,-4.3,2.65,-0.25,-1.58,-1.38,0.83
8.056489944458008,2,3,3,3,-4.79,2.56,-0.36,-1.93,-1,-0.13
8.066489934921265,2,3,3,3,-5.94,2.22,0.19,-3.21,-0.14,-0.92
8.076489925384521,2,3,3,3,-5.94,2.22,0.19,-3.21,-0.14,-0.92
8.086489915847778,2,3,3,3,-6.46,2.2,0.51,-4.53,0.07000000000000001,-1.63
8.096489906311035,2,3,3,3,-7.87,2.13,0.9,-5.29,-0.72,-3.19
8.106489896774292,2,3,3,3,-9.880000000000001,1.84,1.19,-5.02,-0.59,-4.43
8.116489887237549,2,3,3,3,-10.87,1.47,1.18,-4.97,-0.58,-5.8
8.126489877700806,2,3,3,3,-10.87,1.47,1.18,-4.97,-0.58,-5.8
8.136490106582642,2,3,3,3,-11.64,0.87,1.27,-5.06,-0.01,-7.21
8.146490097045898,2,3,3,3,-12.18,0.16,1.44,-3.94,0.09,-8.029999999999999
8.156490087509155,2,3,3,3,-12.49,-0.87,1.46,-2.27,0.28,-6.92
8.166490077972412,2,3,3,3,-12.49,-0.99,1.58,-0.74,0.22,-5.04
8.176490068435669,2,3,3,3,-12.2,-1.1,1.54,-0.74,0.22,-5.04
8.186490058898926,2,3,3,3,-11.71,-0.96,1.57,0.05,0.06,-2.94
8.196490049362183,2,3,3,3,-11.13,-0.5,2.17,-1,-0.59,-0.39
8.206490039825439,2,3,3,3,-10.93,-0.34,2.27,-0.66,-1.02,0.1
8.216490030288696,2,3,3,3,-10.73,-0.17,2.38,0.35,-1.25,0.21
8.226490020751953,2,3,3,3,-10.44,-0.12,2.4,0.35,-1.25,0.21
8.23649001121521,2,3,3,3,-10.19,-0.35,2.04,1.68,-0.99,0.12
8.246490001678467,2,3,3,3,-9.960000000000001,-0.44,1.86,3.68,-0.25,0.47
8.256489992141724,2,3,3,3,-9.550000000000001,-0.37,1.75,4.25,0.28,1.14
8.26648998260498,2,3,3,3,-9.109999999999999,0.03,1.79,4.8,0.79,1.86
8.276489973068237,2,3,3,2,-8.460000000000001,0.84,1.66,4.8,0.79,1.86
8.286489963531494,2,3,3,2,-8.35,1.24,1.48,5.3,1.24,2.36
8.296489953994751,2,3,3,2,-8.42,1.62,1.32,5.28,1.19,2.75
8.306489944458008,2,3,3,2,-8.890000000000001,2.25,0.88,4.66,0.65,2.66
8.316489934921265,2,3,3,2,-9.08,2.36,0.9,3.76,-0.12,2.35
8.326489925384521,2,3,3,2,-9.210000000000001,2.4,1.06,3.76,-0.12,2.35
8.336489915847778,2,3,3,2,-9.34,2.44,1.28,2.73,-0.95,1.8
8.346489906311035,2,3,3,2,-9.1,2.44,1.58,1.53,-2.4,0.45
8.356489896774292,2,3,3,2,-9.06,2.47,1.67,1.4,-2.54,-0.1
8.366489887237549,2,3,3,2,-9.09,2.52,1.77,1.48,-2.37,-0.59
8.376489877700806,2,3,3,2,-9.130000000000001,2.48,1.74,1.48,-2.37,-0.59
8.386490106582642,2,3,3,2,-9.470000000000001,2.3,1.58,1.38,-1.87,-1.03
8.396490097045898,2,3,3,2,-9.65,2.16,1.5,0.15,-0.36,-1.61
8.406490087509155,2,3,3,2,-9.68,1.9,1.4,-0.77,0.03,-1.79
8.416490077972412,2,3,3,2,-9.65,1.64,1.42,-1.32,-0.03,-1.84
8.426490068435669,2,3,3,2,-9.529999999999999,1.35,1.56,-1.32,-0.03,-1.84
8.436490058898926,2,3,3,2,-9.460000000000001,1.31,1.61,-1.45,-0.26,-1.79
8.446490049362183,2,3,3,2,-9.41,1.31,1.72,-0.99,-0.52,-0.96
8.456490039825439,2,3,3,2,-9.43,1.26,1.74,-0.71,-0.54,-0.45
8.466490030288696,2,3,3,2,-9.529999999999999,1.28,1.79,-0.36,-0.32,-0.1
8.476490020751953,2,3,3,2,-9.67,1.28,1.84,-0.36,-0.32,-0.1
8.48649001121521,2,3,3,2,-9.76,1.31,1.82,-0.28,-0.27,0.13
8.496490001678467,2,3,3,2,-9.81,1.39,1.63,0.02,-0.08,0.55
8.506489992141724,2,3,3,2,-9.82,1.42,1.5,0.06,0.07000000000000001,0.72
8.51648998260498,2,3,3,2,-9.75,1.45,1.4,0.15,0.29,0.85
8.526489973068237,2,3,3,2,-9.76,1.45,1.38,0.15,0.29,0.85
8.536489963531494,2,3,3,2,-9.82,1.42,1.69,0.01,0.65,0.93
8.546489953994751,2,3,3,2,-9.779999999999999,1.4,1.65,-0.73,0.59,0.84
8.556489944458008,2,3,3,2,-9.699999999999999,1.4,1.53,-0.73,0.59,0.84
8.566489934921265,2,3,3,2,-9.59,1.35,1.61,-1.06,0.26,0.78
8.576489925384521,2,3,3,2,-9.44,1.33,1.83,-1.44,-0.05,0.64
8.586489915847778,2,3,3,3,-9.42,1.34,1.94,-1.58,-0.42,0.47
8.596489906311035,2,3,3,3,-9.42,1.27,1.97,-1.25,-0.8100000000000001,0.26
8.606489896774292,2,3,3,3,-9.49,1.24,1.77,-0.55,-0.92,0.02
8.616489887237549,2,3,3,3,-9.720000000000001,1.19,1.56,0.12,-0.6,-0.22
8.626489877700806,2,3,3,3,-9.76,1.16,1.47,0.35,-0.15,-0.27
8.636490106582642,2,3,3,3,-9.75,1.19,1.45,0.27,0.1,-0.09
8.646490097045898,2,3,3,3,-9.789999999999999,1.2,1.47,0.03,0.22,0.24
8.656490087509155,2,3,3,3,-9.75,1.25,1.51,-0.1,0.12,0.65
8.666490077972412,2,3,3,3,-9.69,1.32,1.55,-0.06,-0.04,1.03
8.676490068435669,2,3,3,3,-9.65,1.39,1.65,0.06,-0.1,1.3
8.686490058898926,2,3,3,3,-9.390000000000001,1.5,1.7,0.11,-0.04,1.52
8.696490049362183,2,3,3,3,-9.27,1.5,1.55,0.1,-0.04,1.69
8.706490039825439,2,3,3,3,-9.19,1.59,1.41,0.32,0.13,1.76
8.716490030288696,2,3,3,3,-9.24,1.66,1.44,0.33,0.5,1.65
8.726490020751953,2,3,3,3,-9.32,1.75,1.51,0.12,0.73,1.44
8.73649001121521,2,3,3,3,-9.380000000000001,1.76,1.49,-0.08,0.76,1.15
8.746490001678467,2,3,3,3,-9.460000000000001,1.83,1.45,-0.1,0.75,0.83
8.756489992141724,2,3,3,3,-9.57,1.81,1.34,-0.17,0.79,0.55
8.76648998260498,2,3,3,3,-9.630000000000001,1.72,1.42,-0.35,0.7,0.34
8.776489973068237,2,3,3,3,-9.58,1.71,1.45,-0.5,0.54,0.2
8.786489963531494,2,3,3,3,-9.5,1.71,1.48,-0.65,0.29,0.11
8.796489953994751,2,3,3,3,-9.4,1.68,1.44,-0.68,0.06,0.11
8.806489944458008,2,3,3,3,-9.220000000000001,1.63,1.35,-0.64,0.04,0.18
8.816489934921265,2,3,3,3,-9.06,1.65,1.39,-0.59,0.31,0.29
8.826489925384521,2,3,3,3,-8.880000000000001,1.69,1.33,-0.29,0.58,0.55
8.836489915847778,2,3,3,3,-8.66,1.76,1.28,0.19,0.87,0.91
8.846489906311035,2,3,3,3,-8.210000000000001,2.03,1.17,0.8100000000000001,1.22,1.45
8.856489896774292,2,3,3,3,-8.029999999999999,2.19,0.89,1.44,1.62,2.04
8.866489887237549,2,3,3,3,-7.85,2.31,0.73,2.16,1.89,2.64
8.876489877700806,2,3,3,3,-7.7,2.5,0.63,2.68,2.13,3.08
8.886490106582642,2,3,3,3,-7.4,2.8,0.5600000000000001,2.58,2.4,3.38
8.896490097045898,2,3,3,3,-7.17,3,0.58,2.19,2.29,3.64
8.906490087509155,2,3,3,3,-6.82,3.14,0.61,1.82,1.85,3.95
8.916490077972412,2,3,3,3,-5.93,2.9,0.44,1.6,1.53,4.24
8.926490068435669,2,3,3,3,-5.35,2.56,0.09,1.87,1.29,4.46
8.936490058898926,2,3,3,3,-4.83,2.28,-0.06,2.48,1.3,4.53
8.946490049362183,2,3,3,3,-4.48,2.13,0.15,2.26,1.4,4.31
8.956490039825439,2,3,3,3,-4.57,2.46,0.85,0.76,1,3.92
8.966490030288696,2,3,3,3,-4.79,2.92,1.18,-0.8100000000000001,-0.18,3.41
8.976490020751953,2,3,3,3,-5.08,3.49,1.39,-1.22,-2.04,2.83
8.987489938735962,2,3,3,3,-5.44,3.65,1.19,-0.71,-3.53,2.37
8.997489929199219,2,3,3,3,-6.26,3.46,0.51,0.16,-4.17,2.13
9.007489919662476,2,3,3,3,-6.62,3.1,0.33,0.65,-4.1,2.11
9.017489910125732,2,3,3,3,-6.88,2.75,0.44,-0.3,-3.7,2.58
9.027489900588989,2,3,3,3,-7.12,2.21,0.43,-1.93,-2.81,3.39
9.047489881515503,2,3,3,3,-7.3,0.47,0.64,-3.78,-0.98,5.47
9.057490110397339,2,3,3,3,-7.58,0,1.51,-3.51,-0.52,5.88
9.067490100860596,2,3,3,3,-7.84,-0.36,2.06,-3.61,-0.87,5.61
9.077490091323853,2,3,3,3,-7.99,-0.73,1.55,-2.59,-1.81,4.81
9.087490081787109,2,3,3,3,-8.06,-0.42,1.88,0.63,-0.25,2.38
9.097490072250366,2,3,3,3,-8.35,0.1,2.68,0.63,-0.25,2.38
9.107490062713623,2,3,3,3,-10.22,1.53,3.96,1.67,0.78,1.84
9.11749005317688,2,3,3,3,-11.86,2.04,4.22,3.99,-0.28,0.43
9.127490043640137,2,3,3,3,-13.69,2.77,4.48,4.74,-0.71,-0.92
9.137490034103394,2,3,3,3,-15.89,3.39,4.96,4.35,-1.63,-2.55
9.14749002456665,2,3,3,3,-19.27,3.8,4.44,2.06,-2.91,-3.89
9.157490015029907,2,3,3,3,-20.32,3.33,3.57,-0.13,-1.7,-4.79
9.167490005493164,2,3,3,3,-22.12,2.69,2.75,-2.12,-0.54,-4.85
9.177489995956421,2,3,3,3,-23.24,1.68,2.11,-3.56,-0.63,-3.64
9.187489986419678,2,3,3,3,-23.55,1.79,3.9,-3.09,-1.27,-1.64
9.197489976882935,2,3,3,3,-22.47,2.72,4.6,-1.62,-0.95,-0.08
9.207489967346191,2,3,3,3,-21.4,3.04,5.33,-0.04,0.13,0.85
9.217489957809448,2,3,3,3,-20.38,3.44,5.69,0.82,1.2,1.09
9.227489948272705,2,3,3,3,-20.2,3.8,5.99,-0.19,1.86,0.96
9.237489938735962,2,3,3,3,-20.74,3.27,5.57,-2.12,2.3,0.32
9.247489929199219,2,3,3,3,-21.5,2.61,5.49,-4.3,3.49,-0.6899999999999999
9.257489919662476,2,3,3,3,-22.38,1.56,5.55,-6.21,4.05,-2
9.267489910125732,2,3,3,3,-23.52,-0.77,6.18,-6.38,4.34,-3.31
9.277489900588989,2,3,3,3,-24.28,-1.62,7.14,-4.87,4.69,-4.46
9.287489891052246,2,3,3,3,-24.73,-2.36,7.38,-2.17,4.49,-5.05
9.297489881515503,2,3,3,3,-25.25,-2.57,6,1.72,4.3,-4.9
9.307490110397339,2,3,3,3,-25.46,-1.97,5.51,4.54,3.32,-4.82
9.317490100860596,2,3,3,3,-25.16,-1.28,5.05,4.97,1.21,-5.09
9.327490091323853,2,3,3,3,-24.19,-0.51,4.48,4.5,-0.26,-5.47
9.337490081787109,2,3,3,3,-20.54,1.08,2.92,3.87,-0.65,-5.09
9.347490072250366,2,3,3,3,-17.19,2.37,1.78,4.74,-1.04,-2.42
9.357490062713623,2,3,3,3,-13.77,3.16,0.66,7.7,-0.71,1.52
9.36749005317688,2,3,3,3,-11.03,3.93,-0.09,11.63,1.94,4.13
9.377490043640137,2,3,3,3,-4.9,4.14,-2.33,15.61,5.38,5.49
9.387490034103394,2,3,3,3,-2.23,5.36,-2.8,17.87,7.24,5.98
9.39749002456665,2,3,3,3,0.2,5.96,-2.57,16.86,8.02,6
9.407490015029907,2,3,3,3,1.96,7.99,-1.76,15.76,7.03,6.13
9.417490005493164,2,3,3,3,4.43,13.4,-5.25,18,4.96,6.54
9.427489995956421,2,3,3,3,6.23,16.03,-8.529999999999999,25.34,-2.57,8.640000000000001
9.437489986419678,2,3,3,3,5.7,16.53,-12.65,25.75,-1.72,6.65
9.447489976882935,2,3,3,3,4.51,13.9,-12.99,11.2,0.96,2.97
9.457489967346191,2,3,3,3,5.16,5.03,-5.04,-9.73,-2.78,-1.2
9.467489957809448,2,3,3,3,3.42,3.6,-1.37,-21.13,-3.14,-5.02
9.477489948272705,2,3,3,3,2.55,3.5,0.78,-23.97,-3.89,-7.19
9.487489938735962,2,3,3,3,5.08,2.22,0.11,-24.81,-3.87,-8.85
9.497489929199219,2,3,3,3,5.18,0.17,-0.24,-25.59,0.05,-10.75
9.507489919662476,2,3,3,3,3.78,-1.36,0.02,-25.09,4.07,-11.55
9.517489910125732,2,3,3,3,1.74,-2.86,0.79,-23.59,4.57,-10.82
9.527489900588989,2,3,3,3,-1.39,-3.9,1.48,-20.15,2.29,-8.720000000000001
9.537489891052246,2,3,3,3,-2.67,-3.82,1.67,-15.16,0.9,-6.37
9.547489881515503,2,3,3,3,-3.9,-3.95,2.05,-9.449999999999999,0.19,-4.65
9.557490110397339,2,3,3,3,-4.86,-4.1,2.27,-3.68,-1.68,-3.74
9.567490100860596,2,3,3,3,-4.6,-4.46,0.95,1.61,-3.18,-2.73
9.577490091323853,2,3,3,3,-4.32,-3.85,-0.12,4.63,-1.17,-1.66
9.587490081787109,2,3,3,3,-4.16,-3.27,-0.32,3.42,2.41,0.27
9.597490072250366,2,3,3,3,-3.43,-2.8,-0.31,1.23,3.71,2.56
9.607490062713623,2,3,3,3,-1.04,-1.54,-0.4,0.62,2.78,4.5
9.61749005317688,2,3,3,3,0,-1.29,-0.25,1.23,0.54,5.94
9.627490043640137,2,3,3,3,0.82,-1.13,0.1,3.07,-1.53,6.82
9.637490034103394,2,3,3,3,1.46,-0.96,0.46,5.42,-2.54,7
9.64749002456665,2,3,3,3,1.72,-0.36,0.42,7.79,-3.03,6.73
9.657490015029907,2,3,3,3,1.89,-0.55,0.16,9.640000000000001,-3.21,6.03
9.667490005493164,2,3,3,3,2,-0.02,0.08,11.44,-2.62,5.53
9.677489995956421,2,3,3,3,1.7,0.38,0,11.79,-1.63,4.26
9.687489986419678,2,3,3,3,1.03,1.08,-0.24,10.54,-1.15,2.52
9.697489976882935,2,3,3,3,0.88,1.44,-0.45,8.6,-0.96,0.9399999999999999
9.707489967346191,2,3,3,3,0.73,1.76,-0.7,5.79,-0.6899999999999999,-0.22
9.717489957809448,2,3,3,3,-0.13,2.07,-0.42,2.44,-0.6,-1.04
9.727489948272705,2,3,3,3,-0.6899999999999999,2.13,-0.14,-0.28,-1.98,-1.67
9.737489938735962,2,3,3,3,-0.83,1.94,-0.55,-1.8,-4.76,-2.04
9.747489929199219,2,3,3,3,-0.27,1.83,-0.8100000000000001,-2.54,-5.79,-2.35
9.757489919662476,2,3,3,3,-0.8,2.51,0.16,-3.45,-5.02,-2.93
9.767489910125732,2,3,3,3,-0.6,2.98,0.48,-4.3,-4.76,-3.38
9.777489900588989,2,3,3,3,-0.14,3.44,-0.27,-2.42,-2.69,-4.01
9.787489891052246,2,3,3,3,-1.05,4.59,0.68,-1.86,-0.8,-4.86
9.797489881515503,2,3,3,3,-5.33,7.5,0.97,-3.57,-3.4,-5.83
9.807490110397339,2,3,3,3,-8.23,10.7,1.07,0,-7.02,-7.98
9.817490100860596,2,3,3,3,-18.19,14.89,6.36,-5.46,-9.800000000000001,-13.89
9.827490091323853,2,3,3,3,-30,16.95,4.62,-14.62,-16.81,-26.96
9.837490081787109,2,3,3,3,-36.78,8.9,-6.2,-35.88,-27.38,-41.29
9.847490072250366,2,3,3,3,-37.08,-15.82,-7.72,-46.93,13.17,-22.64
9.857490062713623,2,3,3,3,-35.56,-23.9,2.3,-41.36,31.58,4.56
9.86749005317688,2,3,3,3,-39.29,-17.92,12.76,-21.55,10.69,-2.24
9.877490043640137,2,3,3,3,-23.89,-1.3,11.58,8.630000000000001,0.98,-4.92
9.887490034103394,2,3,3,3,-17.66,0.4,10.4,17.17,-4.4,-0.63
9.89749002456665,2,3,3,3,-19.07,-1.47,8.44,12.48,-5.36,-2.82
9.907490015029907,2,3,3,3,-28.09,-6.58,2.49,7.43,5.82,-3.38
9.917490005493164,2,3,3,3,-28.77,-6.12,1.82,2.08,13.65,1.41
9.927489995956421,2,3,3,3,-25.06,-3.71,1.66,-0.16,6.39,8.27
9.937489986419678,2,3,3,3,-20.45,-0.82,2.78,1.56,-3.67,11.76
9.947489976882935,2,3,3,3,-13.68,0.27,5,3.11,-6.38,9.859999999999999
9.957489967346191,2,3,3,3,-13.38,-0.53,5.35,2.97,-3.01,6.46
9.967489957809448,2,3,3,3,-14.28,-0.39,4.76,4.58,0.55,4.62
9.977489948272705,2,3,3,3,-15.05,-0.24,3.56,7.19,0.9,3.94
9.987489938735962,2,3,3,3,-15.35,0.55,2.2,9.34,0.45,4
9.997489929199219,2,3,3,3,-14.02,1.25,1.99,10.54,-0.47,3.97
10.00849008560181,2,3,3,3,-11.96,1.62,1.42,10.4,-2.19,3.52
10.01849007606506,2,3,3,3,-9.65,2.05,0.79,9.99,-2.54,2.67
10.02849006652832,2,3,3,3,-5.65,2.43,0.53,8.6,-0.87,2.31
10.03849005699158,2,3,3,3,-5.65,2.43,0.53,6.36,1.51,2.61
10.04849004745483,2,3,3,3,-2.89,2.4,0.07000000000000001,4.81,2.51,3.27
10.05849003791809,2,3,3,3,-2.61,2.19,0.06,3.62,2.79,4.24
10.06849002838135,2,3,3,3,-3.09,2.43,0.51,2.91,2.19,5.02
10.0784900188446,2,3,3,3,-3.06,2.42,0.35,2.77,1.28,5.37
10.08849000930786,2,3,3,3,-3.06,2.42,0.35,2.56,0.36,5.35
10.09848999977112,2,3,3,3,-3.28,2.67,0.37,1.54,0.67,5.05
10.10848999023438,2,3,3,3,-3.23,2.64,0.06,0.39,1.44,4.35
10.11848998069763,2,3,3,3,-3.24,2.28,-0.11,-0.72,1.17,3.41
10.12848997116089,2,3,3,3,-3.32,1.89,-0.27,-1.37,1.02,2.24
10.13848996162415,2,3,3,3,-3.32,1.89,-0.27,-1.76,0.8100000000000001,0.88
10.1484899520874,2,3,3,3,-4.07,1.35,-0.07000000000000001,-1.76,0.8100000000000001,0.88
10.15848994255066,2,3,3,3,-4.48,1.45,-0.13,-2.08,-1.63,-0.72
10.16848993301392,2,3,3,3,-4.82,1.72,0.12,-2.21,-2.4,-0.87
10.17848992347717,2,3,3,3,-5.98,2.53,1.1,-2.41,-2.42,-0.97
10.18848991394043,2,3,3,3,-5.98,2.53,1.1,-2.41,-2.42,-0.97
10.19848990440369,2,3,3,3,-6.77,2.89,1.64,-2.76,-1.91,-1.29
10.20848989486694,2,3,3,3,-8.92,3.53,2.47,-2.93,-1.67,-3.11
10.2184898853302,2,3,3,3,-11.15,3.46,1.98,-2.51,-2.02,-4.66
10.22848987579346,2,3,3,3,-11.82,2.91,1.59,-1.91,-1.96,-6.29
10.23849010467529,2,3,3,3,-11.82,2.91,1.59,-1.91,-1.96,-6.29
10.24849009513855,2,3,3,3,-12.8,2.12,1.15,-1.89,-1.68,-7.31
10.25849008560181,2,3,3,3,-15.44,-1.43,1.06,-2.55,0.27,-8.029999999999999
10.26849007606506,2,3,3,3,-15.88,-2.26,1.13,-2,1.94,-6.84
10.28849005699158,2,3,3,3,-15.17,-2.55,1.12,-0.5600000000000001,3.57,-4.7
10.29849004745483,2,3,3,3,-14.12,-2.05,1.14,0.59,3.32,-1.6
10.30849003791809,2,3,3,3,-11.57,-0.53,1.4,2.75,-0.88,4.14
10.31849002838135,2,3,3,3,-9.859999999999999,0.16,1.5,3.91,-2.3,5.69
10.3284900188446,2,3,3,3,-8.199999999999999,0.8,1.77,4.44,-1.88,6.23
10.33849000930786,2,3,3,3,-6.22,1.98,1.68,4.44,-1.88,6.23
10.34848999977112,2,3,3,3,-5.98,2.33,1.53,4.32,-0.01,5.88
10.35848999023438,2,3,3,3,-6.34,2.58,1.42,2.14,2.53,3.53
10.36848998069763,2,3,3,3,-6.9,2.66,1.14,0.87,1.44,1.99
10.37848997116089,2,3,3,3,-7.51,2.6,0.99,-0.5600000000000001,-0.13,0.53
10.38848996162415,2,3,3,3,-7.74,2.34,1.24,-0.5600000000000001,-0.13,0.53
10.3984899520874,2,3,3,3,-8.02,2.01,1.47,-1.33,-1.61,-0.8
10.40848994255066,2,3,3,3,-8.25,1.72,1.62,-0.16,-2.68,-2.77
10.41848993301392,2,3,3,3,-8.92,1.03,1.65,0.37,-2.04,-3.57
10.42848992347717,2,3,3,3,-9.51,0.82,1.75,0.72,-1.65,-4.04
10.43848991394043,2,3,3,3,-10.17,0.73,1.87,0.72,-1.65,-4.04
10.44848990440369,2,3,3,3,-10.87,0.6,1.77,1.04,-1.51,-4.18
10.45848989486694,2,3,3,3,-11.47,0.59,1.36,1.47,-0.37,-3.49
10.4684898853302,2,3,3,3,-11.57,0.6,1.25,1.16,0.04,-2.7
10.47848987579346,2,3,3,3,-11.33,0.73,1.16,1.23,-0.11,-1.73
10.48849010467529,2,3,3,3,-10.78,1,1.17,1.23,-0.11,-1.73
10.49849009513855,2,3,3,3,-10.48,1.43,1.4,1.42,-0.43,-0.8100000000000001
10.50849008560181,2,3,3,3,-10.3,1.65,1.42,1.22,-0.75,0.5
10.51849007606506,2,3,3,3,-10.22,1.78,1.36,0.74,-0.63,0.65
10.52849006652832,2,3,3,3,-9.710000000000001,1.67,1.31,0.34,-0.5,0.5
10.53849005699158,2,3,3,3,-9.359999999999999,1.58,1.3,0.34,-0.5,0.5
10.54849004745483,2,3,3,3,-9.02,1.46,1.4,-0.1,-0.33,0.22
10.55849003791809,2,3,3,3,-8.9,1.28,1.66,-1.99,-0.15,-0.18
10.56849002838135,2,3,3,3,-8.619999999999999,0.77,1.76,-2.15,-0.21,-0.33
10.5784900188446,2,3,3,3,-8.550000000000001,0.6899999999999999,1.93,-1.91,0.01,-0.48
10.58849000930786,2,3,3,3,-8.699999999999999,0.5600000000000001,2.02,-1.91,0.01,-0.48
10.59848999977112,2,3,3,3,-8.98,0.53,2.12,-1.27,0.27,-0.7
10.60848999023438,2,3,3,3,-9.470000000000001,0.33,1.89,0.01,0.62,-1.04
10.61848998069763,2,3,3,3,-9.720000000000001,0.23,1.74,0.15,0.6,-1.12
10.62848997116089,2,3,3,3,-9.93,0.11,1.75,0.3,0.43,-1.03
10.63848996162415,2,3,3,3,-10.05,0.07000000000000001,1.78,0.3,0.43,-1.03
10.6484899520874,2,3,3,3,-10.22,0.24,1.79,0.7,0.11,-0.87
10.65848994255066,2,3,3,3,-10.17,0.45,1.72,1.86,-0.79,-0.63
10.66848993301392,2,3,3,3,-10.11,0.7,1.53,2.39,-0.72,-0.61
10.67848992347717,2,3,3,3,-10.06,0.92,1.4,2.55,-0.36,-0.57
10.68848991394043,2,3,3,3,-10.28,1.17,1.48,2.55,-0.36,-0.57
10.69848990440369,2,3,3,3,-10.16,1.26,1.35,2.29,-0.39,-0.4
10.70848989486694,2,3,3,3,-9.92,1.31,1.26,1.98,-0.36,-0.24
10.7184898853302,2,3,3,3,-9.48,1.25,1.45,1.3,-0.02,-0.08
10.72848987579346,2,3,3,3,-9.27,1.16,1.64,0.51,0.11,0.19
10.73849010467529,2,3,3,3,-9.23,1.08,1.75,0.03,0.07000000000000001,0.38
10.74849009513855,2,3,3,3,-9.199999999999999,0.97,1.82,-0.3,0.05,0.45
10.75849008560181,2,3,3,3,-9.25,0.6899999999999999,1.82,-0.24,0.08,0.36
10.76849007606506,2,3,3,3,-9.289999999999999,0.6,1.81,0.02,0.23,0.15
10.77849006652832,2,3,3,3,-9.369999999999999,0.5,1.89,0.2,0.42,-0.1
10.78849005699158,2,3,3,3,-9.470000000000001,0.46,1.99,0.42,0.62,-0.29
10.79849004745483,2,3,3,3,-9.57,0.52,1.92,0.83,0.71,-0.35
10.80849003791809,2,3,3,3,-9.710000000000001,0.5600000000000001,1.79,1.45,0.79,-0.32
10.81849002838135,2,3,3,3,-9.92,0.63,1.67,2.04,0.86,-0.18
10.8284900188446,2,3,3,3,-10.14,0.72,1.71,2.42,0.8,-0.02
10.83849000930786,2,3,3,3,-10.11,0.9399999999999999,1.38,2.52,0.5,0.24
10.84848999977112,2,3,3,3,-10,1.07,1.35,2.48,0.31,0.53
10.85848999023438,2,3,3,3,-9.970000000000001,1.18,1.48,1.96,0.39,0.78
10.86848998069763,2,3,3,3,-9.880000000000001,1.24,1.52,1.37,0.2,0.97
10.87848997116089,2,3,3,3,-9.56,1.43,1.48,1.05,-0.16,1.09
10.88848996162415,2,3,3,3,-9.49,1.5,1.54,0.96,-0.33,1.04
10.8984899520874,2,3,3,3,-9.449999999999999,1.52,1.65,0.93,-0.21,0.88
10.90848994255066,2,3,3,3,-9.359999999999999,1.52,1.58,0.73,0.02,0.74
10.91848993301392,2,3,3,3,-9.31,1.45,1.49,0.52,0.28,0.6
10.92848992347717,2,3,3,3,-9.32,1.4,1.54,0.29,0.64,0.43
10.93848991394043,2,3,3,3,-9.41,1.34,1.64,0.13,0.99,0.36
10.94848990440369,2,3,3,3,-9.550000000000001,1.22,1.63,0.1,1.02,0.27
10.95848989486694,2,3,3,3,-9.630000000000001,1.15,1.48,0.17,0.92,0.22
10.9684898853302,2,3,3,3,-9.74,1.12,1.38,0.14,0.88,0.23
10.97848987579346,2,3,3,3,-9.84,1.04,1.46,-0.15,0.87,0.31
10.98849010467529,2,3,3,3,-9.84,1.01,1.55,-0.42,0.74,0.39
10.99849009513855,2,3,3,3,-9.84,0.99,1.56,-0.45,0.57,0.43
11.00849008560181,2,3,3,3,-9.84,1.03,1.62,-0.33,0.36,0.45
11.01849007606506,2,3,3,3,-9.800000000000001,1.02,1.5,-0.18,0.17,0.5
11.02948999404907,2,3,3,3,-9.74,1.06,1.44,0.04,0.13,0.53
11.03948998451233,2,3,3,3,-9.77,1.09,1.44,0.18,0.17,0.58
11.04948997497559,2,3,3,3,-9.720000000000001,1.11,1.43,0.11,0.09,0.63
11.05948996543884,2,3,3,3,-9.619999999999999,1.18,1.45,0.09,-0.03,0.65
11.0694899559021,2,3,3,3,-9.609999999999999,1.22,1.39,0.18,-0.03,0.61
11.07948994636536,2,3,3,3,-9.699999999999999,1.24,1.5,0.32,0.03,0.57
11.08948993682861,2,3,3,3,-9.710000000000001,1.22,1.48,0.36,0.14,0.51
11.09948992729187,2,3,3,3,-9.539999999999999,1.29,1.5,0.36,0.2,0.49
11.10948991775513,2,3,3,3,-9.539999999999999,1.33,1.46,0.49,0.35,0.47
11.11948990821838,2,3,3,3,-9.609999999999999,1.37,1.42,0.57,0.53,0.48
11.12948989868164,2,3,3,3,-9.65,1.42,1.43,0.5,0.52,0.49
11.1394898891449,2,3,3,3,-9.699999999999999,1.43,1.37,0.44,0.36,0.55
11.14948987960815,2,3,3,3,-9.69,1.4,1.4,0.33,0.36,0.5600000000000001
11.15949010848999,2,3,3,3,-9.65,1.42,1.41,0.11,0.27,0.55
11.16949009895325,2,3,3,3,-9.66,1.42,1.39,-0.03,0.09,0.5
11.1794900894165,2,3,3,3,-9.75,1.39,1.45,-0.16,0.03,0.43
11.18949007987976,2,3,3,3,-9.710000000000001,1.38,1.46,-0.27,-0.03,0.32
11.19949007034302,2,3,3,3,-9.65,1.37,1.47,-0.34,-0.04,0.24
11.20949006080627,2,3,3,3,-9.6,1.36,1.46,-0.44,-0.05,0.16
11.21949005126953,2,3,3,3,-9.56,1.31,1.38,-0.45,-0.09,0.13
11.22949004173279,2,3,3,3,-9.630000000000001,1.29,1.46,-0.42,-0.09,0.1
11.23949003219604,2,3,3,3,-9.66,1.28,1.49,-0.47,-0.07000000000000001,0.06
11.2494900226593,2,3,3,3,-9.699999999999999,1.24,1.49,-0.57,-0.09,-0.03
11.25949001312256,2,3,3,3,-9.65,1.21,1.5,-0.6,-0.16,-0.09
11.26949000358582,2,3,3,3,-9.56,1.2,1.46,-0.55,-0.18,-0.11
11.27948999404907,2,3,3,3,-9.56,1.21,1.5,-0.48,-0.16,-0.09
11.28948998451233,2,3,3,3,-9.56,1.2,1.54,-0.41,-0.09,-0.03
11.29948997497559,2,3,3,3,-9.640000000000001,1.25,1.52,-0.18,0.07000000000000001,0.11
11.30948996543884,2,3,3,3,-9.67,1.26,1.55,-0.18,0.07000000000000001,0.11
11.3194899559021,2,3,3,3,-9.68,1.28,1.4,-0.18,0.05,0.1
11.32948994636536,2,3,3,3,-9.75,1.26,1.47,-0.1,0.02,0.08
11.33948993682861,2,3,3,3,-9.699999999999999,1.25,1.47,-0.17,0.02,0.04
11.34948992729187,2,3,3,3,-9.66,1.25,1.48,-0.12,0.02,0.06
11.35948991775513,2,3,3,3,-9.66,1.29,1.54,-0.16,0.09,0.13
11.36948990821838,2,3,3,3,-9.65,1.31,1.42,-0.11,0.04,0.18
11.37948989868164,2,3,3,3,-9.65,1.33,1.43,0.05,0.07000000000000001,0.18
11.3894898891449,2,3,3,3,-9.699999999999999,1.34,1.46,0.08,0.1,0.15
11.39948987960815,2,3,3,3,-9.720000000000001,1.35,1.52,-0.01,0,0.05
11.40949010848999,2,3,3,3,-9.640000000000001,1.35,1.43,0.03,-0.15,0.02
11.41949009895325,2,3,3,3,-9.58,1.37,1.4,0.01,-0.16,-0.03
11.4294900894165,2,3,3,3,-9.6,1.4,1.44,-0.06,-0.21,-0.04
11.43949007987976,2,3,3,3,-9.58,1.39,1.48,-0.09,-0.25,-0.05
11.44949007034302,2,3,3,3,-9.619999999999999,1.37,1.48,-0.13,-0.19,-0.05
11.45949006080627,2,3,3,3,-9.68,1.35,1.53,-0.2,-0.08,-0.1
11.46949005126953,2,3,3,3,-9.68,1.34,1.43,-0.11,-0.08,-0.12
11.47949004173279,2,3,3,3,-9.720000000000001,1.32,1.43,-0.06,-0.01,-0.14
11.48949003219604,2,3,3,3,-9.68,1.3,1.48,-0.11,-0.03,-0.06
11.4994900226593,2,3,3,3,-9.640000000000001,1.28,1.49,-0.14,-0.03,0.11
11.50949001312256,2,3,3,3,-9.630000000000001,1.31,1.52,-0.11,0.07000000000000001,0.27
11.51949000358582,2,3,3,3,-9.65,1.34,1.43,-0.08,0.2,0.38
11.52948999404907,2,3,3,3,-9.67,1.38,1.42,-0.05,0.21,0.44
11.53948998451233,2,3,3,3,-9.68,1.41,1.44,-0.08,0.22,0.38
11.54948997497559,2,3,3,3,-9.69,1.42,1.49,-0.19,0.16,0.33
11.55948996543884,2,3,3,3,-9.65,1.4,1.47,-0.21,0.08,0.23
11.5694899559021,2,3,3,3,-9.609999999999999,1.36,1.4,-0.2,-0.01,0.17
11.57948994636536,2,3,3,3,-9.59,1.35,1.47,-0.21,-0.07000000000000001,0.14
11.58948993682861,2,3,3,3,-9.550000000000001,1.34,1.53,-0.17,-0.1,0.2
11.59948992729187,2,3,3,3,-9.56,1.4,1.54,-0.02,-0.06,0.22
11.60948991775513,2,3,3,3,-9.640000000000001,1.41,1.48,0.07000000000000001,0.08,0.22
11.61948990821838,2,3,3,3,-9.68,1.42,1.35,-0.01,0.15,0.18
11.62948989868164,2,3,3,3,-9.67,1.4,1.34,-0.13,0.15,0.17
11.6394898891449,2,3,3,3,-9.65,1.39,1.47,-0.3,0.25,0.21
11.64948987960815,2,3,3,3,-9.68,1.36,1.53,-0.4,0.26,0.24
11.65949010848999,2,3,3,3,-9.69,1.33,1.51,-0.3,0.17,0.31
11.66949009895325,2,3,3,3,-9.710000000000001,1.29,1.41,-0.21,0.21,0.28
11.6794900894165,2,3,3,3,-9.710000000000001,1.28,1.54,-0.17,0.23,0.26
11.68949007987976,2,3,3,3,-9.710000000000001,1.29,1.51,0.03,0.13,0.21
11.69949007034302,2,3,3,3,-9.67,1.28,1.42,0.23,0.07000000000000001,0.2
11.70949006080627,2,3,3,3,-9.66,1.3,1.42,0.16,0.11,0.17
11.71949005126953,2,3,3,3,-9.640000000000001,1.29,1.43,-0.03,0.07000000000000001,0.19
11.72949004173279,2,3,3,3,-9.57,1.33,1.46,-0.03,-0.07000000000000001,0.19
11.73949003219604,2,3,3,3,-9.56,1.37,1.5,0.09,-0.05,0.22
11.7494900226593,2,3,3,3,-9.59,1.39,1.55,0.13,0.01,0.23
11.75949001312256,2,3,3,3,-9.65,1.41,1.5,0.22,0.05,0.21
11.76949000358582,2,3,3,3,-9.65,1.44,1.35,0.27,0.09,0.17
11.77948999404907,2,3,3,3,-9.67,1.42,1.36,0.24,0.1,0.15
11.78948998451233,2,3,3,3,-9.73,1.42,1.51,0.17,0.01,0.14
11.79948997497559,2,3,3,3,-9.69,1.46,1.51,0.08,-0.18,0.15
11.80948996543884,2,3,3,3,-9.630000000000001,1.46,1.42,0.22,-0.24,0.17
11.8194899559021,2,3,3,3,-9.67,1.5,1.4,0.31,-0.15,0.18
11.82948994636536,2,3,3,3,-9.699999999999999,1.49,1.44,0.27,-0.2,0.2
11.83948993682861,2,3,3,3,-9.699999999999999,1.51,1.47,0.18,-0.13,0.18
11.84948992729187,2,3,3,3,-9.68,1.52,1.52,0.08,-0.06,0.14
11.85948991775513,2,3,3,3,-9.630000000000001,1.53,1.53,0.08,-0.04,0.13
11.86948990821838,2,3,3,3,-9.550000000000001,1.58,1.35,0.08,-0.01,0.12
11.87948989868164,2,3,3,3,-9.56,1.59,1.43,0.03,0.08,0.15
11.8894898891449,2,3,3,3,-9.59,1.54,1.43,-0.03,0.1,0.25
11.89948987960815,2,3,3,3,-9.67,1.53,1.46,-0.14,0.16,0.23
11.90949010848999,2,3,3,3,-9.69,1.5,1.4,-0.27,0.1,0.23
11.91949009895325,2,3,3,3,-9.68,1.52,1.38,-0.32,0.08,0.22
11.9294900894165,2,3,3,3,-9.68,1.5,1.42,-0.38,0.06,0.18
11.93949007987976,2,3,3,3,-9.640000000000001,1.46,1.52,-0.3,0.02,0.12
11.94949007034302,2,3,3,3,-9.69,1.43,1.49,-0.18,0.03,0.04
11.95949006080627,2,3,3,3,-9.699999999999999,1.43,1.51,-0.19,0.05,0.03
11.96949005126953,2,3,3,3,-9.68,1.43,1.39,-0.2,-0.05,0.05
11.97949004173279,2,3,3,3,-9.65,1.46,1.43,-0.32,0.07000000000000001,0.13
11.98949003219604,2,3,3,3,-9.65,1.44,1.49,-0.42,0.12,0.2
12.00048995018005,2,3,3,3,-9.609999999999999,1.44,1.52,-0.41,0.07000000000000001,0.28
12.00949001312256,2,3,3,3,-9.59,1.42,1.54,-0.36,0.14,0.31
12.01949000358582,2,3,3,3,-9.630000000000001,1.41,1.44,-0.36,0.19,0.28
12.02948999404907,2,3,3,3,-9.6,1.38,1.46,-0.33,0.13,0.29
12.03948998451233,2,3,3,3,-9.58,1.4,1.46,-0.24,0.17,0.24
12.04948997497559,2,3,3,3,-9.59,1.4,1.45,-0.16,0.23,0.2
12.06048989295959,2,3,3,3,-9.66,1.41,1.46,-0.2,0.15,0.18
12.07048988342285,2,3,3,3,-9.640000000000001,1.43,1.38,-0.27,0.07000000000000001,0.18
12.08049011230469,2,3,3,3,-9.640000000000001,1.41,1.41,-0.38,0.13,0.17
12.09049010276794,2,3,3,3,-9.640000000000001,1.41,1.48,-0.39,0.12,0.2
12.1004900932312,2,3,3,3,-9.640000000000001,1.43,1.51,-0.31,0.05,0.14
12.11049008369446,2,3,3,3,-9.630000000000001,1.41,1.5,-0.26,-0.01,0.08
12.12049007415771,2,3,3,3,-9.630000000000001,1.39,1.37,-0.22,-0.06,0.05
12.13049006462097,2,3,3,3,-9.619999999999999,1.39,1.48,-0.23,-0.09,0.02
12.14049005508423,2,3,3,3,-9.65,1.37,1.51,-0.23,-0.12,-0.02
12.15049004554749,2,3,3,3,-9.66,1.35,1.51,-0.19,-0.18,-0.06
12.16049003601074,2,3,3,3,-9.630000000000001,1.33,1.53,-0.09,-0.16,-0.03
12.170490026474,2,3,3,3,-9.619999999999999,1.38,1.41,-0.06,-0.02,-0.04
12.18049001693726,2,3,3,3,-9.65,1.39,1.49,0.06,0.11,-0.08
12.19049000740051,2,3,3,3,-9.68,1.41,1.5,0.1,0.11,-0.06
12.20048999786377,2,3,3,3,-9.69,1.42,1.51,0.11,0.08,0
12.21048998832703,2,3,3,3,-9.67,1.45,1.59,0.09,0,0.04
12.22048997879028,2,3,3,3,-9.76,1.48,1.7,-0.05,-0.22,0.08
12.23048996925354,2,3,3,3,-9.65,1.43,1.62,-0.32,-0.87,0.08
12.2404899597168,2,3,3,3,-9.44,1.37,1.31,-0.19,-1.12,0.07000000000000001
12.25048995018005,2,3,3,3,-9.44,1.37,1.31,-0.05,-0.53,0.03
12.26048994064331,2,3,3,3,-9.539999999999999,1.43,1.4,-0.21,-0.21,0.02
12.27048993110657,2,3,3,3,-9.539999999999999,1.39,1.45,-0.25,-0.31,0.04
12.28048992156982,2,3,3,3,-9.52,1.4,1.39,-0.05,-0.3,0.1
12.29048991203308,2,3,3,3,-9.65,1.41,1.57,-0.01,-0.26,0.16
12.30048990249634,2,3,3,3,-9.65,1.41,1.57,-0.23,-0.41,0.24
12.31048989295959,2,3,3,3,-9.710000000000001,1.42,1.72,-0.38,-0.95,0.34
12.32048988342285,2,3,3,3,-9.58,1.35,1.13,-0.07000000000000001,-1.48,0.5
12.33049011230469,2,3,3,3,-9.75,1.43,1.28,0.03,-1.29,0.47
12.34049010276794,2,3,3,3,-9.82,1.42,1.5,-0.5600000000000001,-1.14,0.45
12.3504900932312,2,3,3,3,-9.82,1.42,1.5,-0.5600000000000001,-1.14,0.45
12.36049008369446,2,3,3,3,-9.83,1.46,1.57,-0.98,-1.56,0.36
12.37049007415771,2,3,3,3,-8.94,1.2,0.7,-0.62,-2.76,0.5
12.38049006462097,2,3,3,3,-9.06,1.28,0.95,-0.06,-1.4,0.49
12.39049005508423,2,3,3,3,-9.31,1.19,1.28,-0.88,-0.22,0.44
12.40049004554749,2,3,3,3,-9.31,1.19,1.28,-0.88,-0.22,0.44
12.41049003601074,2,3,3,3,-9.58,1.18,1.61,-0.98,-0.11,0.37
12.420490026474,2,3,3,3,-10.13,1.15,1.31,0.36,0.19,0.43
12.43049001693726,2,3,3,3,-10.21,1.09,1.2,0.6,0.42,0.62
12.44049000740051,2,3,3,3,-10.1,1.1,0.97,0.91,0.5600000000000001,1.05
12.45048999786377,2,3,3,3,-10.1,1.1,0.97,0.91,0.5600000000000001,1.05
12.46048998832703,2,3,3,3,-9.960000000000001,1.14,0.86,1.06,0.59,1.69
12.47048997879028,2,3,3,3,-9.9,1.17,0.6899999999999999,1.12,0.31,2.68
12.48048996925354,2,3,3,3,-9.81,1.29,0.93,0.8100000000000001,0.11,2.71
12.4904899597168,2,3,3,3,-9.81,1.29,0.93,0.68,-0.23,2.43
12.50048995018005,2,3,3,3,-9.779999999999999,1.28,1.05,0.68,-0.23,2.43
12.51048994064331,2,3,3,3,-9.640000000000001,1.21,1.03,0.79,-0.66,2.03
12.52048993110657,2,3,3,3,-9.56,1.28,1.07,0.86,-0.98,1.01
12.53048992156982,2,3,3,3,-9.58,1.31,1.11,0.86,-1.27,0.55
12.54048991203308,2,3,3,3,-9.619999999999999,1.43,1.09,0.6899999999999999,-1.43,0.17
12.55048990249634,2,3,3,3,-9.66,1.49,1.17,0.6899999999999999,-1.43,0.17
12.56048989295959,2,3,3,3,-9.82,1.44,1.17,-0.43,-1.91,-0.34
12.57048988342285,2,3,3,3,-9.83,1.37,1.23,-0.95,-2.1,-0.43
12.58049011230469,2,3,3,3,-9.84,1.28,1.3,-1.33,-2.22,-0.44
12.59049010276794,2,3,3,3,-9.859999999999999,1.21,1.46,-1.34,-2.29,-0.37
12.6004900932312,2,3,3,3,-9.789999999999999,1.17,1.62,-1.34,-2.29,-0.37
12.61049008369446,2,3,3,3,-9.81,1.2,1.7,-0.86,-2.12,-0.27
12.62049007415771,2,3,3,3,-9.84,1.27,1.68,0.17,-1.41,-0.06
12.63049006462097,2,3,3,3,-9.859999999999999,1.39,1.51,0.59,-1.07,0.14
12.64049005508423,2,3,3,3,-9.869999999999999,1.69,1.41,0.73,-0.79,0.43
12.65049004554749,2,3,3,3,-9.800000000000001,1.89,1.3,0.73,-0.79,0.43
12.66049003601074,2,3,3,3,-9.699999999999999,2.02,1.27,0.64,-0.53,0.72
12.670490026474,2,3,3,3,-9.539999999999999,2.14,1.27,-0.17,-0.29,0.89
12.68049001693726,2,3,3,3,-9.289999999999999,2.33,1.32,-0.84,-0.49,0.63
12.69049000740051,2,3,3,3,-9.24,2.33,1.53,-1.56,-0.93,0.13
12.70048999786377,2,3,3,3,-9.220000000000001,2.36,1.78,-1.56,-0.93,0.13
12.71048998832703,2,3,3,3,-9.35,2.36,1.93,-2.06,-1.25,-0.53
12.72048997879028,2,3,3,3,-9.710000000000001,2.25,2.24,-2.64,-1.61,-1.94
12.73048996925354,2,3,3,3,-10.05,2.13,2.39,-3,-1.89,-2.46
12.7404899597168,2,3,3,3,-10.18,1.89,2.6,-2.87,-2.42,-2.63
12.75048995018005,2,3,3,3,-9.94,1.52,2.45,-2.87,-2.42,-2.63
12.76048994064331,2,3,3,3,-9.74,1.32,2.5,-2.49,-2.49,-2.46
12.77048993110657,2,3,3,3,-9.56,1.2,2.6,-3.16,-2.2,-1.69
12.78048992156982,2,3,3,3,-9.300000000000001,1.03,2.68,-3.68,-2.35,-1.25
12.79048991203308,2,3,3,3,-8.789999999999999,0.57,2.91,-3.84,-2.49,-1.13
12.80048990249634,2,3,3,3,-8.539999999999999,0.3,3.17,-3.84,-2.49,-1.13
12.81048989295959,2,3,3,3,-8.52,0.05,3.59,-4.14,-2.45,-1.31
12.82048988342285,2,3,3,3,-8.69,-0.23,3.99,-3.95,-3.4,-2.16
12.83049011230469,2,3,3,3,-9.289999999999999,-0.48,4.14,-2.66,-4.23,-2.51
12.84049010276794,2,3,3,3,-9.76,-0.53,4.01,-2.66,-4.23,-2.51
12.8504900932312,2,3,3,3,-10.22,-0.6,3.69,-1.16,-4.56,-2.76
12.86049008369446,2,3,3,3,-10.59,-0.64,3.46,0.26,-4.16,-2.84
12.87049007415771,2,3,3,3,-11.12,-0.39,3.1,1.26,-3.32,-2.47
12.88049006462097,2,3,3,3,-11.15,-0.18,2.84,1.59,-2.54,-1.53
12.89049005508423,2,3,3,3,-11.04,-0.02,2.67,1.68,-1.96,-0.21
12.90049004554749,2,3,3,3,-10.62,0.16,2.47,1.74,-1.94,1.23
12.91049003601074,2,3,3,3,-9.77,0.61,2.68,1.62,-2.14,2.24
12.920490026474,2,3,3,3,-9.26,0.71,2.94,1.2,-2.53,2.57
12.96048998832703,2,3,3,3,-7.74,0.78,3.34,1.13,-4.03,-0.15
12.97048997879028,2,3,3,3,-7.76,0.72,3.32,0.89,-3.64,-0.98
12.98048996925354,2,3,3,3,-7.75,0.44,3.03,0.7,-3.19,-1.61
12.9904899597168,2,3,3,3,-8.01,0.24,3.14,0.3,-2.52,-2.1
13.00048995018005,2,3,3,3,-8.210000000000001,0.07000000000000001,3.3,-0.13,-2.02,-2.45
13.01048994064331,2,3,3,3,-8.369999999999999,-0.16,3.38,-0.5600000000000001,-1.82,-2.63
13.0214900970459,2,3,3,3,-8.49,-0.61,3.35,-0.64,-1.76,-2.61
13.03048992156982,2,3,3,3,-8.65,-0.72,3.32,-0.24,-1.68,-2.43
13.04048991203308,2,3,3,3,-8.75,-0.82,3.44,0.11,-1.7,-2.25
13.05149006843567,2,3,3,3,-8.84,-0.93,3.53,0.5,-1.87,-2.06
13.06048989295959,2,3,3,3,-8.77,-0.95,3.47,1.48,-1.92,-1.78
13.07048988342285,2,3,3,3,-8.83,-0.85,3.44,2.45,-1.74,-1.47
13.08149003982544,2,3,3,3,-8.890000000000001,-0.88,3.3,3.19,-1.37,-1.26
13.0914900302887,2,3,3,3,-8.82,-0.83,3.16,3.88,-1.08,-1.08
13.10149002075195,2,3,3,3,-8.779999999999999,-0.72,3.21,4.11,-0.57,-0.92
13.11149001121521,2,3,3,3,-8.77,-0.67,3.3,3.84,0.02,-0.79
13.12149000167847,2,3,3,3,-8.800000000000001,-0.61,3.33,3.45,0.36,-0.67
13.13148999214172,2,3,3,3,-8.84,-0.49,3.29,3.21,0.63,-0.67
13.14148998260498,2,3,3,3,-8.890000000000001,-0.35,3.4,3.06,0.62,-0.71
13.15148997306824,2,3,3,3,-8.91,-0.33,3.48,3.18,0.49,-0.82
13.16148996353149,2,3,3,3,-8.91,-0.33,3.48,3.18,0.49,-0.82
13.17148995399475,2,3,3,3,-9.140000000000001,-0.13,3.61,3.5,0.19,-1.19
13.18148994445801,2,3,3,3,-9.16,-0.03,3.56,4.01,-0.04,-1.34
13.19148993492126,2,3,3,3,-9.199999999999999,0.06,3.59,4.51,-0.22,-1.39
13.20148992538452,2,3,3,3,-9.23,0.15,3.63,4.81,-0.18,-1.39
13.21148991584778,2,3,3,3,-9.25,0.18,3.79,4.8,0.05,-1.39
13.22148990631104,2,3,3,3,-9.23,0.15,3.9,4.37,0.35,-1.42
13.23148989677429,2,3,3,3,-9.19,0.08,3.92,3.77,0.51,-1.46
13.24148988723755,2,3,3,3,-9.15,0,3.97,3.55,0.42,-1.47
13.25148987770081,2,3,3,3,-9.25,-0.3,4.18,3.65,0.16,-1.51
13.26149010658264,2,3,3,3,-9.25,-0.42,4.23,3.94,-0.03,-1.71
13.2714900970459,2,3,3,3,-9.279999999999999,-0.67,4.37,4.41,-0.09,-1.88
13.28149008750916,2,3,3,3,-9.539999999999999,-0.86,4.48,4.79,0,-2.03
13.29149007797241,2,3,3,3,-10.25,-1.02,5,4.86,-0.15,-2.24
13.30149006843567,2,3,3,3,-10.83,-0.84,5.44,4.98,-0.57,-2.39
13.31149005889893,2,3,3,3,-11.77,-0.42,5.69,5.57,-1.55,-2.73
13.32149004936218,2,3,3,3,-12.63,-0.17,5.54,6.86,-3.42,-2.78
13.33149003982544,2,3,3,3,-12.87,1.21,4.53,8.34,-4.27,-2.46
13.3414900302887,2,3,3,3,-12.86,1.42,4.22,7.44,-4.82,-2.34
13.35149002075195,2,3,3,3,-12.27,1.86,3.73,6.63,-4.43,-1.66
13.36149001121521,2,3,3,3,-11.32,2.02,3.94,5.74,-3.88,-1.01
13.37149000167847,2,3,3,3,-11.02,1.47,4.07,4.02,-3.66,-0.28
13.38148999214172,2,3,3,3,-10.65,0.46,4.07,1.89,-3.46,0.24
13.39148998260498,2,3,3,3,-9.92,0.16,4.37,-0.27,-3.02,0.21
13.40148997306824,2,3,3,3,-8.81,0.3,4.79,-1.35,-2.82,-0.37
13.41148996353149,2,3,3,3,-8.74,0.79,5.12,-1.07,-2.25,-0.95
13.42148995399475,2,3,3,3,-8.75,1.17,5.05,-0.63,-1.39,-1.49
13.43148994445801,2,3,3,3,-9.119999999999999,1.35,4.3,-0.6899999999999999,-0.73,-1.79
13.44148993492126,2,3,3,3,-9.869999999999999,1.09,3.81,-0.41,0,-1.88
13.45148992538452,2,3,3,3,-9.98,1.02,3.9,-0.77,0.82,-1.57
13.46148991584778,2,3,3,3,-9.75,1.04,3.1,-1.6,1.69,-0.82
13.47148990631104,2,3,3,3,-9.42,1.26,2.59,-2.26,2.44,0.36
13.48148989677429,2,3,3,3,-9.039999999999999,1.9,2.54,-2.76,3.46,1.62
13.49148988723755,2,3,3,3,-8.76,2.01,2.15,-3.26,3.64,2.7
13.50148987770081,2,3,3,3,-8.41,1.94,1.99,-2.85,3.1,3.51
13.51149010658264,2,3,3,3,-8.33,1.98,2.15,-2.01,3.09,3.54
13.5214900970459,2,3,3,3,-8.34,1.93,1.9,-1.33,3.25,3.33
13.55149006843567,2,3,3,3,-8.85,1.97,1.52,-0.34,3.25,2.4
13.56149005889893,2,3,3,3,-8.859999999999999,1.96,1.3,0.16,2.76,1.93
13.57149004936218,2,3,3,3,-8.74,2.02,1.21,0.76,1.54,1.47
13.58149003982544,2,3,3,3,-8.49,2.02,1.02,1.52,0.65,1
13.5914900302887,2,3,3,3,-8.44,2.46,1.3,2.32,0.03,0.52
13.60149002075195,2,3,3,3,-8.52,2.71,1.48,2.78,-0.28,0.05
13.61149001121521,2,3,3,2,-8.58,2.84,1.55,2.75,0.04,-0.36
13.62149000167847,2,3,3,2,-8.6,2.96,1.57,2.75,0.04,-0.36
13.63148999214172,2,3,3,2,-8.31,2.85,1.35,2.02,0.48,-0.28
13.64148998260498,2,3,3,2,-8.109999999999999,2.85,1.37,0.3,1.64,0.53
13.65148997306824,2,3,3,2,-8.01,2.79,1.63,-0.57,2.25,1.12
13.66148996353149,2,3,3,2,-7.97,2.74,1.62,-1.34,3.19,1.66
13.67148995399475,2,3,3,2,-8.07,2.68,1.49,-2.15,4.27,2.01
13.70148992538452,2,3,3,2,-8.630000000000001,2.6,1.46,-4.76,5.81,2.06
13.73148989677429,2,3,3,2,-9.06,1.7,1.26,-6.98,5.05,1.18
13.76149010658264,2,3,3,2,-9.380000000000001,1.17,1.4,-7.09,4.26,1.4
13.7714900970459,2,3,3,2,-9.43,0.75,1.42,-7.17,4.58,1.5
13.78149008750916,2,3,3,2,-9.529999999999999,0.18,1.72,-7.02,4.6,1.43
13.79149007797241,2,3,3,2,-9.58,0.12,1.94,-6.48,4.1,1.49
13.80149006843567,2,3,3,2,-9.609999999999999,0,1.93,-5.86,3.44,1.51
13.81149005889893,2,3,3,2,-9.69,-0.02,2.12,-5.31,2.8,1.47
13.82149004936218,2,3,3,2,-9.66,-0.06,2.1,-4.53,2.14,1.45
13.83149003982544,2,3,3,2,-9.59,-0.06,1.79,-3.54,1.92,1.5
13.8414900302887,2,3,3,2,-9.390000000000001,0.1,1.93,-2.69,2.12,1.68
13.85149002075195,2,3,3,2,-9.33,0.22,2.14,-2.26,2.13,2.13
13.86149001121521,2,3,3,2,-9.42,0.64,2.16,-1.47,1.94,2.64
13.87149000167847,2,3,3,2,-9.65,0.8,2.04,-0.67,1.72,3.05
13.88148999214172,2,3,3,2,-9.960000000000001,0.97,1.85,-0.14,1.38,3.22
13.89148998260498,2,3,3,2,-10.09,1.08,1.67,0.05,0.93,3.39
13.90148997306824,2,3,3,2,-9.949999999999999,1.04,1.51,-0.38,0.83,3.48
13.91148996353149,2,3,3,2,-10.01,0.87,1.73,-1.65,0.57,3.55
13.92148995399475,2,3,3,2,-10.01,0.6899999999999999,1.79,-2.62,-0.08,3.59
13.93148994445801,2,3,3,2,-10,0.63,1.72,-3.34,-0.66,3.61
13.94148993492126,2,3,3,2,-9.74,0.48,1.93,-3.98,-1.06,3.64
13.95148992538452,2,3,3,2,-9.59,0.34,2,-4.42,-1.23,3.52
13.96148991584778,2,3,3,2,-9.42,0.25,2.13,-4.82,-1.25,3.39
13.97148990631104,2,3,3,2,-9.289999999999999,0.2,1.97,-5.17,-1.02,3.21
13.98148989677429,2,3,3,2,-9.380000000000001,0.17,1.85,-5.65,-0.65,3.08
13.99148988723755,2,3,3,2,-9.470000000000001,0.08,1.66,-6.11,-0.27,3.04
14.00148987770081,2,3,3,2,-9.529999999999999,0.1,1.49,-6.26,0.28,3.1
14.01149010658264,2,3,3,2,-9.65,0.03,1.48,-6.08,1.23,3.15
14.0214900970459,2,3,3,2,-9.91,-0.04,1.7,-5.76,2.22,3.22
14.03149008750916,2,3,3,2,-10.15,-0.2,1.57,-5.07,2.8,3.14
14.04149007797241,2,3,3,2,-10.39,-0.4,1.37,-4.59,2.92,3.02
14.05149006843567,2,3,3,2,-10.68,-0.5,1.66,-5.35,2.96,3.08
14.06149005889893,2,3,3,2,-10.79,-0.38,2.19,-6.61,2.76,3.38
14.07149004936218,2,3,3,2,-10.9,-0.07000000000000001,2.64,-7.21,2.21,3.65
14.08149003982544,2,3,3,2,-11.2,0.4,3.1,-6.84,1.59,3.55
14.0914900302887,2,3,3,2,-11.33,0.83,3.21,-5.66,0.96,2.97
14.10149002075195,2,3,3,2,-11,0.83,2.96,-3.83,1.43,2.14
14.11248993873596,2,3,3,1,-10.81,0.92,2.48,-2.17,3.03,1.06
14.12248992919922,2,3,3,1,-10.84,0.41,2.17,-1.47,5.03,0.1
14.13248991966248,2,3,3,1,-12.14,0.01,2.49,-0.78,7.26,-0.14
14.14248991012573,2,3,3,1,-12.83,0.37,2.35,0.31,7.5,-0.5600000000000001
14.15248990058899,2,3,3,1,-12.86,0.85,1.6,1.69,6.34,-0.4
14.16248989105225,2,3,3,1,-12.75,1.95,1.1,1.89,6.22,0.37
14.1724898815155,2,3,3,1,-12.93,2.56,1.29,1.15,6.38,1.36
14.18249011039734,2,3,3,1,-12.79,3.33,0.96,1.66,5.42,1.27
14.1924901008606,2,3,3,1,-12.16,3.78,0.6,2.92,4.53,0.62
14.20249009132385,2,3,3,1,-10.64,4.76,0.49,3.39,4.72,-0.44
14.21249008178711,2,3,3,1,-9.84,4.98,0.37,3.51,4.61,-1.12
14.22249007225037,2,3,3,1,-8.98,5.53,0.36,3.59,4.29,-1.45
14.23249006271362,2,3,3,1,-8.550000000000001,5.83,0.16,2.4,4.91,-1.9
14.24249005317688,2,3,3,1,-8.460000000000001,6,0.21,0.3,5.48,-2.84
14.25249004364014,2,3,3,1,-8.449999999999999,5.83,0.4,-2.47,5.29,-4.15
14.26249003410339,2,3,3,0,-8.49,5.31,0.76,-5.72,5.08,-5.43
14.27249002456665,2,3,3,0,-8.52,4.7,1.32,-8.630000000000001,4.21,-6.62
14.28249001502991,2,3,3,0,-8.93,3.15,2.22,-10.92,3.42,-7.82
14.29249000549316,2,3,3,0,-9,2.23,2.61,-12.09,1.86,-8.84
14.30248999595642,2,3,3,0,-8.949999999999999,1.37,2.91,-11.9,-0.59,-9.5
14.31248998641968,2,3,3,0,-8.98,0.74,3.05,-10.61,-2.93,-9.84
14.32248997688293,2,3,3,0,-9.460000000000001,-0.01,3.28,-8.67,-4.55,-9.84
14.33248996734619,2,3,3,0,-10.08,-0.23,3.16,-6.89,-6.01,-9.6
14.34248995780945,2,3,3,0,-10.3,-0.28,2.92,-4.48,-8.119999999999999,-8.81
14.35248994827271,2,3,3,0,-10.3,-0.14,2.51,-1.74,-9.460000000000001,-7.07
14.36248993873596,2,3,3,0,-10.3,-0.14,2.51,0.98,-9.619999999999999,-5.29
14.37248992919922,2,3,3,0,-9.76,0.62,1.23,2.69,-9.289999999999999,-3.79
14.38248991966248,2,3,3,0,-9.539999999999999,0.74,1.04,3.39,-8.48,-2.79
14.39248991012573,2,3,3,0,-8.880000000000001,1.08,1.72,3.91,-8.27,-2.09
14.40248990058899,2,3,3,0,-8.48,1.21,2.17,3.63,-8.16,-1.87
14.41248989105225,2,3,3,0,-8.48,1.21,2.17,3.32,-7.87,-2.17
14.4224898815155,2,3,3,0,-8.300000000000001,1.3,2.51,3.26,-7.73,-2.85
14.43249011039734,2,3,3,0,-8.32,1.4,2.98,3.51,-8.09,-3.6
14.4424901008606,2,3,3,0,-8.35,1.56,3.23,4.05,-8.300000000000001,-4.24
14.45249009132385,2,3,3,0,-8.5,1.61,3.17,4.51,-8.24,-4.57
14.46249008178711,2,3,3,0,-8.5,1.61,3.17,4.51,-8.24,-4.57
14.47249007225037,2,3,3,0,-8.279999999999999,1.64,2.81,5.47,-8.09,-4.44
14.48249006271362,2,3,3,0,-7.94,1.67,1.99,6.2,-4.43,-3.06
14.49249005317688,2,3,3,0,-8.119999999999999,1.62,2.16,4.84,-2.29,-1.73
14.50249004364014,2,3,3,0,-8.31,1.79,2.13,2.83,-1.6,-1.1
14.51249003410339,2,3,3,0,-8.31,1.79,2.13,2.83,-1.6,-1.1
14.52249002456665,2,3,3,0,-8.25,1.23,2.34,0.59,-1.98,-0.6
14.53249001502991,2,3,3,0,-7.61,0.96,2.66,-1.78,-2.78,-0.2
14.54249000549316,2,3,3,0,-7.31,0.59,2.85,-2.1,-3.57,-0.46
14.55248999595642,2,3,3,0,-6.87,-0.27,3.12,-1.74,-3.93,-0.72
14.56248998641968,2,3,3,0,-6.87,-0.27,3.12,-0.93,-3.89,-0.86
14.57248997688293,2,3,3,0,-6.64,-0.67,3.18,0.16,-3.65,-1.09
14.58248996734619,2,3,3,0,-6.55,-1.46,3.03,1.05,-3.12,-1.13
14.59248995780945,2,3,3,0,-6.41,-1.62,2.86,2.02,-2.57,-1.27
14.60248994827271,2,3,3,0,-6.27,-1.63,2.76,3.28,-1.6,-0.98
14.61248993873596,2,3,3,0,-6.27,-1.63,2.76,3.28,-1.6,-0.98
14.62248992919922,2,3,3,0,-6.62,-1.72,2.89,4.08,-0.26,-0.79
14.63248991966248,2,3,3,0,-7.51,-1.84,2.95,4.98,0.85,-0.6
14.64248991012573,2,3,3,0,-7.84,-1.87,2.97,5.39,1.13,-0.58
14.65248990058899,2,3,3,0,-8.210000000000001,-1.88,3.12,5.57,1.55,-0.57
14.66248989105225,2,3,3,0,-8.640000000000001,-1.87,3.28,5.57,1.55,-0.57
14.6724898815155,2,3,3,0,-9.48,-1.69,3.85,5.79,1.71,-0.5600000000000001
14.68249011039734,2,3,3,0,-9.800000000000001,-1.47,4.07,7.44,0.47,-0.8100000000000001
14.6924901008606,2,3,3,0,-9.99,-1.07,4.08,9.34,-0.58,-1.12
14.70249009132385,2,3,3,0,-10.1,-0.51,3.97,11.14,-1.34,-1.28
14.71249008178711,2,3,3,0,-10.36,0.86,3.87,11.14,-1.34,-1.28
14.72249007225037,2,3,3,0,-10.59,1.17,3.54,11.81,-1.55,-1.23
14.73249006271362,2,3,3,0,-10.85,1.28,3.31,8.65,0.73,-1.23
14.74249005317688,2,3,3,0,-11.34,1.14,3.46,4.73,1.64,-1.26
14.75249004364014,2,3,3,0,-12.26,-0.18,4.52,1.66,1.6,-1.04
14.76249003410339,2,3,3,0,-12.45,-1.12,5.08,1.66,1.6,-1.04
14.77249002456665,2,3,3,0,-12.23,-2.19,5.36,-0.22,0.84,-1.07
14.78249001502991,2,3,3,0,-11.9,-3.55,5.57,0.8100000000000001,-0.8100000000000001,-2.42
14.79249000549316,2,3,3,0,-11.49,-4.77,6.98,2.99,-3.7,-4.1
14.80248999595642,2,3,3,0,-11.74,-4.5,8.199999999999999,6.81,-8.6,-5.87
14.81248998641968,2,3,3,0,-12.12,-3.98,8.24,6.81,-8.6,-5.87
14.82248997688293,2,3,3,0,-13.57,-1.51,5.88,14.31,-11.42,-7.21
14.83248996734619,2,3,3,0,-14.47,-0.21,5.73,17.64,-6.46,-6.22
14.84248995780945,2,3,3,0,-15.32,1.14,5.05,15,-1.74,-3.38
14.85248994827271,2,3,3,0,-15.63,3.27,3.7,11.07,0.5,-0.15
14.86248993873596,2,3,3,0,-15.14,6.52,0.98,11.07,0.5,-0.15
14.87248992919922,2,3,3,0,-13.32,6.1,0.73,5.06,-0.53,3.03
14.88248991966248,2,3,3,0,-10.75,5.32,2.39,-8.07,-3.77,6.02
14.89248991012573,2,3,3,0,-8.67,5.11,3.41,-10.63,-3.71,5.75
14.90248990058899,2,3,3,0,-6.39,4.15,3.76,-10.81,-2.6,4.03
14.91248989105225,2,3,3,0,-5.96,3.34,3.66,-10.81,-2.6,4.03
14.9224898815155,2,3,3,0,-5.98,2.08,3.11,-8.94,-0.58,1.88
14.93249011039734,2,3,3,0,-6.34,1.04,2.64,-3.04,4.49,-0.8
14.9424901008606,2,3,3,0,-7.64,0.06,1.05,-1.23,6.32,-0.25
14.95249009132385,2,3,3,0,-8.279999999999999,0.24,0.47,-0.74,7.09,1.6
14.96249008178711,2,3,3,0,-8.98,0.48,-0.02,-0.74,7.09,1.6
14.97249007225037,2,3,3,0,-9.630000000000001,1.09,-0.12,-0.39,6.39,3.56
14.98249006271362,2,3,3,0,-9.619999999999999,2.23,0.64,0.15,0.97,5
14.99249005317688,2,3,3,0,-9.18,2.52,1.17,0.6899999999999999,-1.54,4.22
15.00249004364014,2,3,3,0,-8.69,2.78,1.63,1.38,-2.57,2.97
15.01249003410339,2,3,3,0,-7.52,2.81,1.67,1.38,-2.57,2.97
15.02249002456665,2,3,3,0,-7.16,2.57,1.74,2.14,-2.25,1.94
15.05248999595642,2,3,3,0,-7.08,2.88,1.62,3.17,1.65,1.22
15.06248998641968,2,3,3,0,-7.18,2.97,1.44,2.81,2.96,1.57
15.07248997688293,2,3,3,1,-7.26,3.23,1.44,1.71,3.96,2.01
15.08248996734619,2,3,3,1,-7.37,3.3,1.27,0.25,4.9,2.3
15.09248995780945,2,3,3,1,-7.55,3.17,0.99,-1.68,5.36,2.47
15.10248994827271,2,3,3,1,-7.87,2.75,1.17,-4.19,5.57,2.34
15.11248993873596,2,3,3,1,-8,2.6,1.28,-5.34,6.2,2.7
15.12248992919922,2,3,3,1,-8.210000000000001,2.53,1.38,-6.17,6.72,2.74
15.13349008560181,2,3,3,1,-8.449999999999999,2.1,1.17,-7.03,7.27,2.61
15.14349007606506,2,3,3,1,-8.65,1.88,1.13,-7.35,7.4,2.77
15.15349006652832,2,3,3,1,-8.99,1.5,1.3,-7.55,7.55,2.57
15.16349005699158,2,3,3,1,-9.16,1.19,1.29,-7.63,6.87,2.07
15.17349004745483,2,3,3,1,-9.210000000000001,0.72,1.35,-7.15,5.99,1.81
15.18349003791809,2,3,3,1,-9.41,0.42,1.45,-7.07,5.17,1.45
15.19349002838135,2,3,3,1,-9.720000000000001,0.4,1.48,-6.34,3.97,1.18
15.2034900188446,2,3,3,1,-9.81,0.3,1.45,-5.32,2.86,1.13
15.21349000930786,2,3,3,1,-9.76,0.25,1.44,-4.49,2.55,1.28
15.22348999977112,2,3,3,1,-9.720000000000001,0.13,1.51,-3.91,2.77,1.54
15.23348999023438,2,3,3,1,-9.74,0.07000000000000001,1.7,-3.26,2.76,1.97
15.24348998069763,2,3,3,1,-9.869999999999999,0.17,1.76,-2.93,2.35,2.48
15.25348997116089,2,3,3,1,-10.07,0.16,1.77,-2.66,1.9,3.06
15.26348996162415,2,3,3,1,-10.18,0.02,1.8,-2.21,1.69,3.56
15.2734899520874,2,3,3,1,-10.21,0,1.82,-1.73,1.58,3.92
15.28348994255066,2,3,3,1,-9.800000000000001,0.03,1.82,-1.75,1.63,4.17
15.29348993301392,2,3,3,1,-9.51,0.07000000000000001,1.63,-2.11,1.62,4.52
15.30348992347717,2,3,3,1,-9.35,0.18,1.69,-2.44,1.4,4.9
15.31348991394043,2,3,3,1,-9.210000000000001,0.32,1.71,-2.72,1.18,5.03
15.32348990440369,2,3,3,1,-9.050000000000001,0.74,2.02,-3.22,0.64,4.91
15.33348989486694,2,3,3,1,-9.02,0.82,2.07,-3.88,-0.03,4.71
15.3434898853302,2,3,3,1,-9.1,0.72,1.97,-4.62,-0.72,4.32
15.35348987579346,2,3,3,1,-9.199999999999999,0.64,2.07,-5.36,-1.24,3.59
15.36349010467529,2,3,3,1,-9.31,0.22,1.9,-6.2,-1.68,2.82
15.37349009513855,2,3,3,2,-9.23,0.02,1.6,-6.59,-1.99,2.22
15.38349008560181,2,3,3,2,-9.210000000000001,-0.12,1.67,-6.3,-1.86,1.98
15.39349007606506,2,3,3,2,-9.26,-0.36,2,-5.44,-1.15,1.96
15.40349006652832,2,3,3,2,-9.300000000000001,-0.85,2.53,-3.51,-0.15,1.86
15.41349005699158,2,3,3,2,-9.460000000000001,-1.04,2.04,-1.24,1.03,1.51
15.42349004745483,2,3,3,2,-9.859999999999999,-1.09,1.4,-0.06,2.07,1.09
15.43349003791809,2,3,3,2,-11.17,-0.8100000000000001,2.01,-1.09,2.75,1.14
15.44349002838135,2,3,3,2,-11.66,-0.49,2.73,-3.91,2.47,1.86
15.4534900188446,2,3,3,2,-11.69,-0.15,3.83,-6.21,1.08,2.87
15.46349000930786,2,3,3,2,-11.67,0.03,4.57,-7.29,-0.39,3.74
15.47348999977112,2,3,3,2,-11.6,0.43,4,-6.12,-0.85,3.65
15.48348999023438,2,3,3,2,-11.5,0.23,3.55,-3.46,0.37,2.41
15.49348998069763,2,3,3,2,-11.33,-0.04,2.93,-1.38,2.84,0.35
15.50348997116089,2,3,3,2,-11.17,-0.49,2.56,-0.18,6.17,-1.9
15.51348996162415,2,3,3,2,-12.81,-0.33,2.51,0.18,10.24,-2.74
15.5234899520874,2,3,3,2,-13.63,0.3,1.43,0.51,12.65,-1.52
15.53348994255066,2,3,3,2,-13.7,1.16,-0.01,2.61,12.57,-0.16
15.54348993301392,2,3,3,2,-13.77,1.89,-0.92,5.63,11.76,0.89
15.55348992347717,2,3,3,2,-12.71,3.89,-0.27,7.18,10.12,1.68
15.56348991394043,2,3,3,2,-11.44,5.68,-0.26,9.17,7.72,2.06
15.57348990440369,2,3,3,2,-10.12,6.92,-0.43,11.38,5.83,1.46
15.58348989486694,2,3,3,2,-9.56,7.7,-0.92,10.92,6.03,0.4
15.5934898853302,2,3,3,2,-9.460000000000001,8.66,-0.85,7.94,6.39,-2.14
15.60348987579346,2,3,3,2,-10.11,8.380000000000001,0.72,1.63,5.96,-5.34
15.61349010467529,2,3,3,2,-10.58,7.53,1.93,-7.95,2.66,-8.9
15.62349009513855,2,3,3,2,-10.77,5.69,2.87,-14.05,-2.31,-12.19
15.63349008560181,2,3,3,2,-10.36,4.01,2.97,-15.61,-5.13,-14.72
15.64349007606506,2,3,3,2,-9.66,2.21,3.12,-14.89,-5.04,-15.7
15.65349006652832,2,3,3,2,-9.140000000000001,0.6,3.32,-13.44,-3.67,-14.91
15.66349005699158,2,3,3,2,-9.48,-1.59,2.89,-11.07,-1.73,-13.05
15.67349004745483,2,3,3,2,-10.14,-2.03,2.61,-7.34,-0.25,-10.48
15.68349003791809,2,3,3,2,-10.48,-2.2,1.97,-3.79,-0.03,-7.65
15.69349002838135,2,3,3,2,-10.95,-2.02,1.43,-0.77,-0.98,-5.13
15.7034900188446,2,3,3,2,-10.33,-0.67,0.58,1.66,-3.14,-2.88
15.71349000930786,2,3,3,2,-9.67,-0.19,0.73,3.86,-5.66,-1
15.72348999977112,2,3,3,2,-9.06,0.19,1.14,5.44,-7.26,0.02
15.73348999023438,2,3,3,2,-8.35,0.6899999999999999,1.38,6.83,-8.93,0.22
15.74348998069763,2,3,3,2,-6.81,1.22,1.48,7.93,-10.37,0.12
15.75348997116089,2,3,3,2,-6.81,1.43,1.69,7.89,-10.69,-0.07000000000000001
15.76348996162415,2,3,3,2,-6.49,1.71,1.91,7.43,-9.609999999999999,-0.23
15.7734899520874,2,3,3,2,-6.05,1.71,2,6.66,-9.960000000000001,-0.79
15.78348994255066,2,3,3,2,-5.69,1.76,2.03,6.05,-9.92,-1.47
15.79348993301392,2,3,3,2,-5.73,1.61,1.97,5.83,-9.16,-2.1
15.80348992347717,2,3,3,2,-5.85,1.29,2.07,5.55,-7.6,-2.79
15.81348991394043,2,3,3,2,-6.4,1,2.52,4.84,-5.63,-3.37
15.82348990440369,2,3,3,2,-7.08,0.8100000000000001,2.6,3.77,-3.39,-3.6
15.83348989486694,2,3,3,2,-7.61,0.62,2.59,2.48,-1.45,-3.4
15.8434898853302,2,3,3,2,-7.94,0.47,2.49,1.48,-0.45,-2.78
15.85348987579346,2,3,3,2,-8.380000000000001,-0.12,2.56,0.84,-0.59,-2.05
15.86349010467529,2,3,3,2,-8.279999999999999,-0.26,2.83,0.87,-0.72,-1.02
15.87349009513855,2,3,3,2,-8.550000000000001,-0.21,3.24,1.74,-0.63,0.12
15.88349008560181,2,3,3,2,-8.619999999999999,-0.57,3.17,2.2,-1.68,0.52
15.89349007606506,2,3,3,2,-7.24,-1.18,1.76,3,-3.68,1.17
15.90349006652832,2,3,3,2,-7.36,-1.36,2.24,4.95,-2.98,2.06
15.91349005699158,2,3,3,2,-7.79,-1.37,2.75,4.79,0.01,2.11
15.92349004745483,2,3,3,2,-7.94,-1.39,3.29,3.28,1.09,0.57
15.93349003791809,2,3,3,2,-7.49,-1.62,3.06,3.28,1.09,0.57
15.94349002838135,2,3,3,2,-7.4,-1.72,2.96,3.82,0.43,-1.57
15.9534900188446,2,3,3,2,-7.6,-1.71,3.27,4.2,0.89,-2.29
15.96349000930786,2,3,3,2,-8.029999999999999,-1.61,3.6,5,0.36,-2.77
15.97348999977112,2,3,3,2,-8.960000000000001,-1.12,3.4,7.11,-0.59,-3.12
15.98348999023438,2,3,3,2,-9.58,-0.86,3.28,9.76,-1.27,-3.25
15.99348998069763,2,3,3,2,-10.23,-0.39,3.07,12.38,-1.45,-2.93
16.00348997116089,2,3,3,2,-11.4,0.36,2.22,14.21,-1.16,-2.15
16.01348996162415,2,3,3,2,-11.82,0.55,1.99,13.92,0.14,-1.15
16.0234899520874,2,3,3,2,-12.4,0.57,2.6,10.64,1.59,-0.34
16.03348994255066,2,3,3,2,-12.99,0.34,3.58,5.65,1.4,-0.08
16.04348993301392,2,3,3,2,-13.03,-1.16,4.68,1.3,-0.77,-0.64
16.05348992347717,2,3,3,2,-12.67,-2.39,4.98,-1.13,-2.74,-1.27
16.06348991394043,2,3,3,2,-11.77,-2.15,6.12,-0.59,-3.54,-2.4
16.07348990440369,2,3,3,1,-11.11,-2.02,6.64,0.41,-5.25,-4.58
16.08348989486694,2,3,3,1,-11.39,-1.85,6.46,4.35,-7.44,-6.3
16.0934898853302,2,3,3,1,-12.32,-0.91,6.08,8.44,-9.18,-7.64
16.10348987579346,2,3,3,1,-13.64,-0.24,5.95,10.95,-9.199999999999999,-7.41
16.11349010467529,2,3,3,1,-15.43,0.21,5.85,11.99,-7.04,-6.65
16.12349009513855,2,3,3,1,-18.08,3.6,2.3,11.48,-2.84,-4.31
16.13349008560181,2,3,3,1,-18.2,4.3,0.01,6.64,2.03,0.2
16.14349007606506,2,3,3,1,-16.65,4.48,-0.11,-2.15,3.11,4.92
16.15448999404907,2,3,3,1,-13.5,4.72,1.85,-7.93,-2.58,8.24
16.16448998451233,2,3,3,1,-8.26,4.33,3.74,-9.369999999999999,-7.66,8.99
16.17448997497559,2,3,3,1,-6.07,3.54,3.73,-8.35,-7.59,7.54
16.18448996543884,2,3,3,1,-4.46,2.74,3.51,-5.61,-3.94,5.17
16.1944899559021,2,3,3,1,-4.36,1.75,2.99,-2.07,0.5600000000000001,3.1
16.20448994636536,2,3,3,1,-6,0.88,2.31,1.43,4.1,1.66
16.21448993682861,2,3,3,1,-6.72,0.97,1.32,3.58,6.35,1.55
16.22448992729187,2,3,3,1,-7.43,1.42,0.44,3.74,7.93,2.86
16.23448991775513,2,3,3,1,-9.09,2.51,-0.68,2.93,8.460000000000001,4.78
16.24448990821838,2,3,3,1,-9.59,3.34,-0.37,1.85,6.3,6.07
16.25448989868164,2,3,3,1,-9.460000000000001,4,0.36,0.75,1.98,6.49
16.2644898891449,2,3,3,1,-8.83,4.43,0.91,0.12,-1.21,5.56
16.27448987960815,2,3,3,1,-7.41,4.54,1.41,-0.22,-1.9,4.15
16.28449010848999,2,3,3,1,-6.93,4.14,1.62,-0.91,-0.03,2.9
16.29449009895325,2,3,3,1,-6.64,3.61,1.48,-1.69,2.85,2.13
16.3044900894165,2,3,3,1,-6.7,3.11,1.4,-2.2,4.97,2.02
16.31449007987976,2,3,3,1,-7.28,2.54,1.23,-2.62,5.86,2.49
16.32449007034302,2,3,3,1,-7.55,2.59,1.08,-2.98,6.47,3.4
16.33449006080627,2,3,3,1,-7.64,2.71,1.01,-3.75,7.05,4.45
16.34449005126953,2,3,3,1,-7.61,3.05,0.84,-4.92,7.01,5.35
16.35449004173279,2,3,3,1,-7.61,3.35,0.61,-6.3,7.19,5.34
16.36449003219604,2,3,3,1,-7.79,2.65,0.9399999999999999,-8.06,7.27,5.69
16.3744900226593,2,3,3,1,-8.34,3.07,1.15,-8.35,7.53,5.57
16.38449001312256,2,3,3,1,-8.91,3.01,0.95,-8.699999999999999,6.24,4.74
16.39449000358582,2,3,3,1,-9.23,2.48,0.64,-9,5.2,3.78
16.40448999404907,2,3,3,1,-9.25,1.94,0.6899999999999999,-9.02,5.11,3.18
16.41448998451233,2,3,3,1,-9.31,1.64,0.82,-9.09,5.26,2.42
16.42448997497559,2,3,3,1,-9.35,0.8,1.26,-9.23,4.8,2.12
16.43448996543884,2,3,3,1,-9.73,0.41,1.52,-9.6,4.44,1.65
16.4444899559021,2,3,3,1,-10.07,0,1.65,-9.74,3.15,1.15
16.45448994636536,2,3,3,1,-10.18,-0.22,2.02,-9.74,1.53,0.62
16.46448993682861,2,3,3,1,-10,-0.6899999999999999,2.19,-9,0.02,0.34
16.47448992729187,2,3,3,1,-9.880000000000001,-0.7,2.31,-7.55,-0.85,0.46
16.48448991775513,2,3,3,1,-9.880000000000001,-0.7,2.31,-6.25,-0.86,0.84
16.49448990821838,2,3,3,1,-9.35,-1.03,2.3,-4.9,-0.27,1.7
16.50448989868164,2,3,3,1,-9.359999999999999,-0.61,2.44,-3.6,0.28,2.95
16.5144898891449,2,3,3,1,-9.31,-0.31,2.46,-2.25,0.7,4.38
16.52448987960815,2,3,3,1,-9.31,-0.31,2.46,-1.19,1.29,5.8
16.53449010848999,2,3,3,1,-9.35,-0.07000000000000001,2.38,-0.52,1.3,7.01
16.54449009895325,2,3,3,1,-9.06,0.48,1.52,-0.35,0.74,7.78
16.5544900894165,2,3,3,1,-8.869999999999999,0.51,1.35,-0.6,0.19,8.08
16.56449007987976,2,3,3,1,-8.85,0.51,1.43,-1.48,-0.29,7.85
16.57449007034302,2,3,3,1,-8.85,0.51,1.43,-2.34,-1.03,7.25
16.58449006080627,2,3,3,1,-8.82,0.41,1.51,-3.01,-1.81,6.42
16.59449005126953,2,3,3,1,-8.75,0.47,1.63,-3.96,-2.35,5.44
16.60449004173279,2,3,3,1,-8.75,0.57,1.91,-5.01,-2.68,4.45
16.61449003219604,2,3,3,1,-8.77,0.71,1.75,-5.76,-2.84,3.65
16.6244900226593,2,3,3,1,-8.77,0.71,1.75,-5.76,-2.84,3.65
16.63449001312256,2,3,3,1,-8.84,0.75,1.24,-5.91,-2.64,3.09
16.64449000358582,2,3,3,1,-8.699999999999999,0.5,2.26,-5.03,-0.36,2.84
16.65448999404907,2,3,3,1,-8.51,-0.54,1.66,-2.97,1.03,2.33
16.66448998451233,2,3,3,1,-8.699999999999999,-0.98,1.11,-1.42,2.49,1.35
16.67448997497559,2,3,3,1,-8.699999999999999,-0.98,1.11,-2.65,3.86,0.36
16.70448994636536,2,3,3,1,-12.17,0.32,5.09,-10.22,0.25,1.05
16.71448993682861,2,3,3,1,-12.31,0.66,5.91,-8.24,-1.76,1.16
16.72448992729187,2,3,3,1,-12.31,0.66,5.91,-4.13,-1.02,0.41
16.73448991775513,2,3,3,1,-11.93,1.06,6.06,0.93,3.44,-1.36
16.74448990821838,2,3,3,1,-11.12,0.7,1.65,5.16,10.5,-3.53
16.75448989868164,2,3,3,1,-12.25,0.13,1.45,5.4,17.92,-4.75
16.7644898891449,2,3,3,1,-14.04,0.04,0.46,5.86,19.45,-2.57
16.77448987960815,2,3,3,2,-14.04,0.04,0.46,5.86,19.45,-2.57
16.78449010848999,2,3,3,2,-15.81,1.99,-1.61,9.029999999999999,16.58,0.48
16.79449009895325,2,3,3,2,-14.88,4.23,-0.82,9.33,5.14,4.74
16.8044900894165,2,3,3,2,-11.42,7.82,-0.88,10.33,1.65,4.76
16.81449007987976,2,3,3,2,-11.42,7.82,-0.88,8.9,2.13,2.48
16.82449007034302,2,3,3,2,-10.18,8.75,-1.08,8.9,2.13,2.48
16.83449006080627,2,3,3,2,-9.48,8.73,-1.02,3.56,3.41,-1.36
16.84449005126953,2,3,3,2,-9.34,8.69,-0.09,-9.81,2.61,-10.66
16.85449004173279,2,3,3,2,-10.52,7.58,2.51,-13.59,-0.7,-14.06
16.86449003219604,2,3,3,2,-10.8,6.64,3.44,-13.55,-2.78,-15.94
16.8744900226593,2,3,3,2,-10.59,5.38,3.62,-13.55,-2.78,-15.94
16.88449001312256,2,3,3,2,-10.1,3.88,3.52,-11.79,-2.98,-15.99
16.89449000358582,2,3,3,2,-9.68,0.48,2.71,-7.95,0.36,-11.96
16.90448999404907,2,3,3,2,-10.1,-0.66,2.14,-5.68,1.26,-9.34
16.91448998451233,2,3,3,2,-10.46,-1.17,1.63,-4.05,-0.03,-6.62
16.92448997497559,2,3,3,3,-10.57,-1.53,1.22,-4.05,-0.03,-6.62
16.93448996543884,2,3,3,3,-10.3,-0.99,0.97,-2.22,-2.04,-4.21
16.9444899559021,2,3,3,3,-9.949999999999999,-0.35,1.13,2.11,-6.5,-1.6
16.95448994636536,2,3,3,3,-9.26,0.24,1.26,4.25,-8.4,-1.23
16.96448993682861,2,3,3,3,-8.67,0.73,1.61,5.84,-9.67,-1.3
16.97448992729187,2,3,3,3,-7.7,1.17,1.93,5.84,-9.67,-1.3
16.98448991775513,2,3,3,3,-7.23,1.39,1.87,7,-10.19,-1.62
16.99448990821838,2,3,3,3,-6.97,1.72,1.98,6.63,-9.66,-2.54
17.00448989868164,2,3,3,3,-6.55,1.9,1.99,6.12,-9.23,-2.99
17.0144898891449,2,3,3,3,-5.88,2.04,2.16,5.76,-9.390000000000001,-3.32
17.02448987960815,2,3,3,3,-5.57,2.04,2.03,5.76,-9.390000000000001,-3.32
17.03449010848999,2,3,3,3,-5.22,1.87,1.93,5.61,-9.289999999999999,-3.62
17.04449009895325,2,3,3,3,-5.56,1.21,1.85,3.73,-5.97,-4.83
17.0544900894165,2,3,3,3,-6.06,0.88,1.99,2.2,-4.03,-5.68
17.06449007987976,2,3,3,3,-6.68,0.65,2.21,0.87,-2.88,-6.35
17.07449007034302,2,3,3,3,-7.4,0.37,2.44,0.87,-2.88,-6.35
17.08449006080627,2,3,3,3,-8.529999999999999,-0.4,2.88,-0.02,-2.58,-6.63
17.09449005126953,2,3,3,3,-8.66,-0.55,2.9,1.3,-3.18,-4.35
17.10449004173279,2,3,3,3,-8.300000000000001,-0.52,2.35,2.66,-4.44,-3.61
17.1244900226593,2,3,3,3,-7.46,-1.09,2.64,4.25,-3.85,-2.44
17.13449001312256,2,3,3,3,-7.43,-1.18,2.84,5.35,-2.22,-1.12
17.14449000358582,2,3,3,3,-7.33,-1.12,2.77,7.91,-0.7,0.6
17.15448999404907,2,3,3,3,-7.21,-0.9399999999999999,2.61,8.300000000000001,0.38,0.86
17.16448998451233,2,3,3,3,-7.99,-0.5,4,6.62,0.17,0.65
17.17448997497559,2,3,3,3,-8.470000000000001,-0.49,4.12,6.62,0.17,0.65
17.18548989295959,2,3,3,3,-7.99,-0.75,3.37,5.32,-1.65,0.25
17.19548988342285,2,3,3,3,-7.66,-1.02,2.73,3.55,-0.64,-1.57
17.20549011230469,2,3,3,3,-8.449999999999999,-1.62,3.68,1.98,-0.9399999999999999,-2.64
17.21549010276794,2,3,3,3,-8.26,-2.2,3.4,1.98,-0.9399999999999999,-2.64
17.2254900932312,2,3,3,3,-8.279999999999999,-2.17,3.31,3.99,-1.43,-3.36
17.23549008369446,2,3,3,3,-9.289999999999999,-1.7,3.65,6.6,-1.41,-3.59
17.24549007415771,2,3,3,3,-9.800000000000001,-1.15,3.29,9.82,-1.84,-3.11
17.25549006462097,2,3,3,3,-10.63,-0.57,2.54,13.49,-1.84,-2.18
17.26549005508423,2,3,3,3,-11.64,-0.22,1.96,15.74,-0.3,-1.52
17.27549004554749,2,3,3,3,-13.96,-0.26,3.33,14.57,2.18,-1.01
17.28549003601074,2,3,3,3,-14.72,-0.29,4.23,9.27,3.11,-0.9
17.295490026474,2,3,3,3,-14.45,-0.53,4.43,3.62,1.46,-1.32
17.30549001693726,2,3,3,3,-13.29,-1.19,4.7,0.48,-1.03,-2.3
17.33548998832703,2,3,3,3,-9.31,-1.61,6.5,6.38,-8.77,-8.199999999999999
17.34548997879028,2,3,3,3,-10.26,-0.98,6.02,11,-11.11,-9.68
17.35548996925354,2,3,3,3,-14.43,1.13,5.89,14.39,-11.3,-9.92
17.3654899597168,2,3,3,3,-16.31,2.29,4.64,14.99,-9.300000000000001,-8.539999999999999
17.37548995018005,2,3,3,3,-17.61,3.57,2.08,13.48,-5.14,-5.15
17.38548994064331,2,3,3,3,-17.95,4.21,-0.51,9.220000000000001,1.36,-0.22
17.39548993110657,2,3,3,3,-14.41,3.9,1.7,1.38,5.3,4.32
17.40548992156982,2,3,3,3,-11.36,4.7,3.61,-6.55,1.87,7.65
17.41548991203308,2,3,3,3,-8.640000000000001,5.03,3.8,-8.539999999999999,-4.28,9.390000000000001
17.42548990249634,2,3,3,3,-6.21,4.33,3.32,-6.07,-6.18,8.44
17.43548989295959,2,3,3,3,-5.99,3.21,2.83,-3.13,-4.52,5.75
17.44548988342285,2,3,3,3,-6.39,2.86,2.22,-0.47,-0.39,3.01
17.45549011230469,2,3,3,3,-7.09,2.59,1.29,1.02,4.16,1.19
17.46549010276794,2,3,3,3,-8.710000000000001,2.78,0.3,0.93,7.19,0.84
17.4754900932312,2,3,3,3,-9.460000000000001,2.7,-0.17,-0.4,7.73,1.81
17.48549008369446,2,3,3,3,-9.85,2.94,0.01,-2.04,6.37,2.9
17.49549007415771,2,3,3,3,-9.630000000000001,3.11,0.43,-3.47,3.72,3.06
17.50549006462097,2,3,3,3,-8.67,2.79,1.65,-4.24,0.96,2.65
17.51549005508423,2,3,3,3,-8.140000000000001,2.29,2.07,-4.5,-0.17,2.16
17.52549004554749,2,3,3,3,-8,1.84,2.16,-4.13,0.97,1.9
17.53549003601074,2,3,3,3,-8.06,1.53,1.92,-3,3.54,2.01
17.545490026474,2,3,3,3,-8.140000000000001,0.99,1.63,-2.06,5.63,2.74
17.55549001693726,2,3,3,3,-8.09,0.97,1.3,-1.44,6.5,3.83
17.56549000740051,2,3,3,3,-7.94,1.1,1.17,-1.16,6.01,5.08
17.57548999786377,2,3,3,3,-7.84,1.52,1.16,-1.15,5.11,6.06
17.58548998832703,2,3,3,3,-7.47,1.91,1.17,-1.69,4.25,6.27
17.59548997879028,2,3,3,3,-7.18,2.33,1.23,-2.68,3.7,6.42
17.60548996925354,2,3,3,3,-7.29,2.57,1.06,-2.93,4.55,6.22
17.6154899597168,2,3,3,3,-7.99,2.54,1.08,-3.53,5.3,5.83
17.62548995018005,2,3,3,3,-8.24,2.09,0.93,-4.51,5.52,4.79
17.63548994064331,2,3,3,3,-8.369999999999999,2.07,1.03,-5.61,5.62,3.7
17.64548993110657,2,3,3,3,-8.369999999999999,1.75,1.1,-6.74,5.64,2.78
17.65548992156982,2,3,3,3,-8.210000000000001,1.53,1.25,-7.61,5.13,2.29
17.66548991203308,2,3,3,3,-8.35,1.12,1.3,-8.07,4.64,1.94
17.67548990249634,2,3,3,3,-8.34,0.87,1.27,-8.050000000000001,3.99,1.49
17.68548989295959,2,3,3,3,-8.23,0.67,1.22,-7.43,3.2,1.25
17.69548988342285,2,3,3,3,-8.539999999999999,0.15,1.1,-6.75,2.95,1.34
17.70549011230469,2,3,3,3,-8.67,0.09,0.9,-5.33,2.82,1.58
17.71549010276794,2,3,3,3,-9.02,0.34,1,-3.32,2.81,2.06
17.7254900932312,2,3,3,3,-9.43,0.28,1.29,-2.31,3.32,2.89
17.73549008369446,2,3,3,3,-9.539999999999999,0.85,1.46,-1.95,3.09,3.93
17.74549007415771,2,3,3,3,-9.92,1.11,1.52,-1.6,2.76,5.08
17.75549006462097,2,3,3,3,-10.27,1.15,1.39,-2.07,2.42,5.85
17.76549005508423,2,3,3,3,-10.31,0.83,1.36,-3.13,1.78,5.81
17.77549004554749,2,3,3,3,-9.66,-0.14,1.63,-4.85,1.32,5.34
17.78549003601074,2,3,3,3,-9.380000000000001,-0.54,1.81,-6.89,0.9399999999999999,4.89
17.795490026474,2,3,3,3,-9.16,-0.82,1.91,-8.109999999999999,0.27,4.58
17.80549001693726,2,3,3,3,-8.960000000000001,-1.06,1.98,-8.42,-0.72,4.13
17.81549000740051,2,3,3,3,-8.83,-1.25,2.45,-8.01,-1.75,3.63
17.82548999786377,2,3,3,3,-8.800000000000001,-1.37,2.35,-6.96,-2.41,3.16
17.83548998832703,2,3,3,3,-8.84,-1.38,2.21,-5.33,-2.39,2.71
17.84548997879028,2,3,3,3,-8.98,-1.34,2.38,-3.77,-1.78,2.16
17.85548996925354,2,3,3,3,-9.18,-1.3,2.45,-3.05,-1.12,1.81
17.8654899597168,2,3,3,3,-9.380000000000001,-1.1,2.16,-2.65,-0.95,1.8
17.87548995018005,2,3,3,3,-9.76,-0.73,1.71,-1.53,-1.06,2.18
17.88548994064331,2,3,3,3,-10.36,-0.1,2.4,-0.16,-0.8100000000000001,3
17.89548993110657,2,3,3,3,-10.12,-0.3,1.97,1.16,-0.3,3.88
17.90548992156982,2,3,3,3,-9.640000000000001,-0.68,0.85,3.25,0.49,4.4
17.91548991203308,2,3,3,3,-9.460000000000001,-0.93,0.44,4.78,1.61,4.24
17.92548990249634,2,3,3,3,-11.12,-0.45,2.27,2.97,2.68,3.73
17.93548989295959,2,3,3,3,-11.88,0.32,3.12,-1.64,2.78,3.51
17.94548988342285,2,3,3,3,-12.23,1.37,4.33,-5.41,1.2,3.82
17.95549011230469,2,3,3,3,-12.48,1.68,5.43,-7.6,-0.6899999999999999,4.03
17.96549010276794,2,3,3,3,-11.97,2.13,5.09,-7.08,-2.36,3.51
17.9754900932312,2,3,3,3,-11.26,2.18,3.53,-2.31,-2.75,1.36
17.98549008369446,2,3,3,3,-10.25,1.96,2.02,2.01,2.52,-1.76
17.99549007415771,2,3,3,3,-10.5,0.61,0.93,3.7,10.69,-5.46
18.00549006462097,2,3,3,3,-12.77,0.49,0.28,3.66,16.66,-6.3
18.01549005508423,2,3,3,3,-13.5,0.95,-0.74,4.21,18.21,-4.53
18.02549004554749,2,3,3,3,-13.53,2.1,-1.21,5.83,15.53,-1.31
18.03549003601074,2,3,3,3,-11.54,4.57,-1.4,7.07,10.73,1.4
18.045490026474,2,3,3,3,-9.99,5.61,-1.19,8.93,4.87,2.57
18.05549001693726,2,3,3,3,-9.27,6.63,-0.85,10.55,2.7,2.98
18.06549000740051,2,3,3,3,-9.59,7.09,-0.11,8.4,4.44,0.12
18.07548999786377,2,3,3,3,-12.38,7.61,1.65,3.21,6.07,-4.52
18.08548998832703,2,3,3,3,-12.87,7.54,1.79,-1.94,4.52,-9.5
18.09548997879028,2,3,3,3,-12.55,7.29,1.8,-4.6,0.18,-13.7
18.10548996925354,2,3,3,3,-11.93,6.27,1.78,-5.99,-3.52,-16.64
18.1154899597168,2,3,3,3,-11.19,3.16,2.75,-6.88,-4.97,-17.93
18.12548995018005,2,3,3,3,-11.28,2.02,3.05,-7.27,-3.95,-16.93
18.13548994064331,2,3,3,3,-11.46,0.8,2.94,-7.17,-1.55,-14.21
18.14548993110657,2,3,3,3,-11.84,-0.43,2.64,-7.2,0.44,-11.18
18.15548992156982,2,3,3,3,-12.59,-1.12,1.68,-6.84,1.26,-7.67
18.16548991203308,2,3,3,3,-12.37,-1.28,1.56,-5.58,-0.55,-4.53
18.17548990249634,2,3,3,3,-11.3,-1.22,1.42,-3.61,-4.51,-1.92
18.18548989295959,2,3,3,3,-9.550000000000001,-0.82,1.18,5.07,-9.83,1.25
18.19548988342285,2,3,3,3,-7.42,-0.04,1.31,5.07,-9.83,1.25
18.20649003982544,2,3,3,3,-7.47,0.43,1.77,9.609999999999999,-8.91,1.23
18.2164900302887,2,3,3,3,-7.19,0.91,1.94,10.69,-10.16,0.6899999999999999
18.22649002075195,2,3,3,3,-5.73,1.63,1.44,11.67,-11.55,-0.09
18.23649001121521,2,3,3,3,-5.04,1.93,1.3,12,-11.78,-0.9399999999999999
18.24649000167847,2,3,3,3,-4.71,2.47,1.52,10.84,-10.81,-1.64
18.25648999214172,2,3,3,3,-4.62,2.46,1.49,8.69,-9.68,-2.09
18.26648998260498,2,3,3,3,-4.4,2.37,1.49,6.78,-8.720000000000001,-2.53
18.27648997306824,2,3,3,3,-4.59,2.21,1.7,4.45,-6.91,-3.04
18.28648996353149,2,3,3,3,-4.98,1.93,1.92,1.93,-5.31,-3.66
18.29648995399475,2,3,3,3,-5.38,1.53,2.31,0.18,-4.1,-4.18
18.30648994445801,2,3,3,3,-6.58,0.79,2.76,-0.87,-3.05,-4.5
18.31648993492126,2,3,3,3,-6.67,0.58,2.66,-1.06,-2.83,-4.54
18.32648992538452,2,3,3,3,-6.89,-0.14,2.59,-1,-2.52,-3.75
18.33648991584778,2,3,3,3,-7.01,-0.5600000000000001,2.67,-0.44,-0.75,-2.47
18.34648990631104,2,3,3,3,-7.84,-1.37,2.57,-0.24,0.2,-1.87
18.35648989677429,2,3,3,3,-8.17,-1.86,2.88,0.23,0.61,-1.15
18.36648988723755,2,3,3,3,-8.59,-1.87,3.22,1.31,0.28,-0.34
18.37648987770081,2,3,3,3,-8.67,-2.04,3.32,2.44,-0.92,0.55
18.38649010658264,2,3,3,3,-8.17,-1.97,2.94,3.65,-1.57,1.08
18.3964900970459,2,3,3,3,-8.18,-1.82,3.02,3.95,-1.15,0.93
18.40649008750916,2,3,3,3,-8.25,-1.81,3.2,3.41,-0.95,0.22
18.41649007797241,2,3,3,3,-8.390000000000001,-1.56,3.44,3.71,-1.48,-0.75
18.42649006843567,2,3,3,3,-8.52,-1.43,3.53,5.11,-2.18,-1.66
18.43649005889893,2,3,3,3,-8.73,-1.22,3.56,7.23,-2.58,-2.55
18.44649004936218,2,3,3,3,-9.01,-0.85,3.64,9.42,-2.72,-3.1
18.45649003982544,2,3,3,3,-9.84,0.32,3.42,11.49,-2.68,-3.04
18.4664900302887,2,3,3,3,-10.44,0.86,3.29,12.31,-1.92,-2.39
18.47649002075195,2,3,3,3,-11.24,1.15,3.2,10.89,-0.19,-1.85
18.48649001121521,2,3,3,3,-12.12,1.08,3.26,8.1,1.56,-1.85
18.49649000167847,2,3,3,3,-14.11,0.05,5.32,3.95,1.99,-2.34
18.50648999214172,2,3,3,3,-14.15,-1.29,5.32,-0.21,-0.05,-2.54
18.51648998260498,2,3,3,3,-12.87,-1.72,4.79,-1.59,-1.18,-2.83
18.52648997306824,2,3,3,3,-10.76,-2.53,4.92,-3.59,-1.09,-4.24
18.53648996353149,2,3,3,3,-9.77,-3.94,7.45,-3.57,-1.41,-5.26
18.54648995399475,2,3,3,3,-10.9,-3.59,8.029999999999999,1.13,-4.73,-6.58
18.55648994445801,2,3,3,3,-12.02,-2.61,7.02,8.94,-10.18,-7.78
18.56648993492126,2,3,3,3,-13.1,-1.6,5.83,14.17,-11.46,-7.46
18.57648992538452,2,3,3,3,-16.46,1.09,4.7,16.05,-8.4,-6.24
18.58648991584778,2,3,3,3,-17.48,3.96,1.14,17.38,-2.3,-3.15
18.59648990631104,2,3,3,3,-18.85,5.9,-1.77,12.46,6.41,2.16
18.60648989677429,2,3,3,3,-19.2,5.83,-1.81,-1.25,9.640000000000001,8.23
18.61648988723755,2,3,3,3,-13.93,5.83,2.76,-9.640000000000001,1.79,12.25
18.62648987770081,2,3,3,3,-9.98,4.87,3.3,-9.140000000000001,-8.24,12.38
18.63649010658264,2,3,3,3,-6.71,4.24,4.01,-5.2,-11.2,9.369999999999999
18.6464900970459,2,3,3,3,-3.86,2.65,3.77,-1.86,-7.86,5.46
18.65649008750916,2,3,3,3,-4.64,1.95,2.79,1.39,-1.49,2.25
18.66649007797241,2,3,3,3,-5.61,1.38,1.89,4.59,4.21,0.18
18.67649006843567,2,3,3,3,-6.84,1.23,1.1,5.9,8.18,-0.1
18.68649005889893,2,3,3,3,-9.27,1.99,-0.86,4.9,9.94,1.52
18.69649004936218,2,3,3,3,-10.24,2.75,-1.11,3.47,9.76,3.65
18.70649003982544,2,3,3,3,-10.7,3.39,-0.57,2.27,6.86,5.07
18.7164900302887,2,3,3,3,-10.57,4.01,0.3,0.98,2.96,5.45
18.72649002075195,2,3,3,3,-9.02,4.16,1.33,-0.08,0.6,5.05
18.73649001121521,2,3,3,3,-8.24,4.02,1.52,-0.58,0.91,4.24
18.74649000167847,2,3,3,3,-7.73,3.89,1.49,-1.09,2.65,3.93
18.75648999214172,2,3,3,3,-7.33,3.4,1.18,-1.41,4.2,4.17
18.77648997306824,2,3,3,3,-6.6,2.8,0.85,-1.8,4.53,5.01
18.78648996353149,2,3,3,3,-6.6,2.8,0.85,-2.84,4.1,4.68
18.79648995399475,2,3,3,3,-6.28,2.94,0.63,-4.4,4.54,4.6
18.80648994445801,2,3,3,3,-6.29,2.84,0.8,-5.43,5.34,4.97
18.81648993492126,2,3,3,3,-6.46,2.91,0.72,-6.81,5.49,5.33
18.82648992538452,2,3,3,3,-6.65,2.79,0.74,-7.85,5.75,5.11
18.83648991584778,2,3,3,3,-6.65,2.79,0.74,-7.85,5.75,5.11
18.84648990631104,2,3,3,3,-7.53,2.24,1.05,-8.98,6.1,4.09
18.85648989677429,2,3,3,3,-7.75,1.76,1.11,-9.289999999999999,5.2,2.41
18.86648988723755,2,3,3,3,-8.050000000000001,1.5,1.1,-8.68,4.61,1.97
18.87648987770081,2,3,3,3,-8.630000000000001,1.84,1.13,-7.3,3.86,1.67
18.88649010658264,2,3,3,3,-8.630000000000001,1.84,1.13,-7.3,3.86,1.67
18.8964900970459,2,3,3,3,-8.960000000000001,1.88,1.06,-6.17,3.81,1.67
18.90649008750916,2,3,3,3,-9.33,1.63,0.97,-5.72,4.43,1.7
18.91649007797241,2,3,3,3,-10.43,1.07,1.11,-6.59,3.72,1.57
18.92649006843567,2,3,3,3,-10.71,1.07,0.99,-6.56,2.13,1.41
18.93649005889893,2,3,3,3,-10.71,1.07,0.99,-6.56,2.13,1.41
18.94649004936218,2,3,3,3,-11.08,0.49,0.68,-7.2,1.22,1.01
18.95649003982544,2,3,3,3,-11.28,-0.15,1.05,-8.83,-1.99,0.12
18.9664900302887,2,3,3,3,-10.22,-1.36,1.57,-9.06,-2.52,0.17
18.97649002075195,2,3,3,3,-9.77,-1.83,2.41,-8.19,-2.38,0.66
18.98649001121521,2,3,3,3,-9.58,-2.04,3.07,-8.19,-2.38,0.66
18.99649000167847,2,3,3,3,-9.43,-1.93,3.35,-5.66,-2.24,1.54
19.00648999214172,2,3,3,3,-9.02,-1.42,3.1,0.12,-0.91,4.33
19.01648998260498,2,3,3,3,-8.880000000000001,-0.98,2.65,1.92,0.51,5.61
19.02648997306824,2,3,3,3,-8.83,-0.62,2.33,2.63,1.79,6.53
19.03648996353149,2,3,3,3,-8.970000000000001,0.02,1.63,2.63,1.79,6.53
19.04648995399475,2,3,3,3,-9.199999999999999,0.22,1.46,2.55,2.64,7.19
19.05648994445801,2,3,3,3,-9.369999999999999,0.34,1.33,0.38,1.71,7.55
19.06648993492126,2,3,3,3,-9.49,0.4,1.31,-1.11,0.55,7.27
19.07648992538452,2,3,3,3,-9.619999999999999,0.58,1.63,-2.78,-0.5600000000000001,6.76
19.08648991584778,2,3,3,3,-9.59,0.65,1.86,-2.78,-0.5600000000000001,6.76
19.09648990631104,2,3,3,3,-9.539999999999999,0.73,2.01,-4.63,-1.5,6.12
19.10648989677429,2,3,3,3,-9.49,0.71,1.95,-6.97,-2.39,4.87
19.11648988723755,2,3,3,3,-9.27,0.38,1.07,-6.78,-1.62,4.37
19.12648987770081,2,3,3,3,-9.050000000000001,0.31,2.1,-5.9,-0.03,3.96
19.13649010658264,2,3,3,3,-8.93,-0.03,3.39,-5.9,-0.03,3.96
19.1464900970459,2,3,3,3,-8.75,-0.5600000000000001,2.93,-2.44,1.35,3.01
19.15649008750916,2,3,3,3,-8.449999999999999,-1.58,0.49,-0.03,4.84,0.38
19.16649007797241,2,3,3,3,-9.18,-1.49,0.84,-4.39,5.89,0.15
19.17649006843567,2,3,3,3,-10.32,-0.82,2.44,-8.119999999999999,4.07,0.42
19.18649005889893,2,3,3,3,-11.58,-0.19,3.4,-8.119999999999999,4.07,0.42
19.19649004936218,2,3,3,3,-12.68,0.68,5.51,-8.34,0.58,0.24
19.20649003982544,2,3,3,3,-12.31,1.09,5.61,-0.16,-0.71,-2.59
19.2164900302887,2,3,3,3,-11.5,1.22,4.1,5.79,4.31,-4.79
19.22649002075195,2,3,3,3,-10.64,0.9399999999999999,2.39,8.470000000000001,12.73,-7.17
19.23748993873596,2,3,3,3,-11.72,0.14,1.57,8.470000000000001,12.73,-7.17
19.24748992919922,2,3,3,3,-12.78,1.47,0.26,11.21,17.94,-6.37
19.25748991966248,2,3,3,3,-13.82,2.74,-1.24,14.14,14,0.91
19.26748991012573,2,3,3,3,-15.24,4.85,-1.87,13.6,8.01,4.76
19.27748990058899,2,3,3,3,-14.45,6.99,-1.78,12.82,3.86,5.66
19.28748989105225,2,3,3,3,-13.13,9.140000000000001,-1.59,12.82,3.86,5.66
19.2974898815155,2,3,3,3,-12.11,9.859999999999999,-2.06,8.220000000000001,2.96,3.14
