timestamp,magCalib,accCalib,gyrCalib,sysCalib,accX,accY,accZ,gyrX,gyrY,gyrZ
timestamp,magCalib,accCalib,gyrCalib,sysCalib,accX,accY,accZ,gyrX,gyrY,gyrZ
0.06248998641967773,2,3,3,3,-9.529999999999999,0.95,-1.95,0.57,0.01,0.09
0.06248998641967773,2,3,3,3,-9.529999999999999,0.95,-1.95,0.57,0.01,0.09
0.08248996734619141,2,3,3,3,-9.49,1.1,-2.02,0.77,0.06,0.16
0.08248996734619141,2,3,3,3,-9.49,1.1,-2.02,0.77,0.06,0.16
0.1024899482727051,2,3,3,3,-9.470000000000001,1.12,-2.02,0.73,-0.01,0.28
0.1024899482727051,2,3,3,3,-9.470000000000001,1.12,-2.02,0.73,-0.01,0.28
0.1224899291992188,2,3,3,3,-9.51,1.08,-2.19,0.68,-0.06,0.3
0.1224899291992188,2,3,3,3,-9.51,1.08,-2.19,0.68,-0.06,0.3
0.1424899101257324,2,3,3,3,-9.49,1.05,-2.09,0.67,-0.05,0.34
0.1424899101257324,2,3,3,3,-9.49,1.05,-2.09,0.67,-0.05,0.34
0.1624898910522461,2,3,3,3,-9.449999999999999,1.1,-1.96,0.61,-0.06,0.36
0.1624898910522461,2,3,3,3,-9.449999999999999,1.1,-1.96,0.61,-0.06,0.36
0.1824901103973389,2,3,3,3,-9.51,1.12,-2.01,0.42,-0.04,0.33
0.1824901103973389,2,3,3,3,-9.51,1.12,-2.01,0.42,-0.04,0.33
0.2024900913238525,2,3,3,3,-9.539999999999999,0.97,-1.95,0.31,-0.1,0.33
0.2024900913238525,2,3,3,3,-9.539999999999999,0.97,-1.95,0.31,-0.1,0.33
0.2224900722503662,2,3,3,3,-9.529999999999999,0.93,-2.07,0.21,-0.18,0.3
0.2224900722503662,2,3,3,3,-9.529999999999999,0.93,-2.07,0.21,-0.18,0.3
0.2434899806976318,2,3,3,3,-9.52,1.03,-2.04,0.28,-0.17,0.28
0.2434899806976318,2,3,3,3,-9.52,1.03,-2.04,0.28,-0.17,0.28
0.2634899616241455,2,3,3,3,-9.51,1.13,-1.92,0.36,-0.07000000000000001,0.23
0.2634899616241455,2,3,3,3,-9.51,1.13,-1.92,0.36,-0.07000000000000001,0.23
0.2834899425506592,2,3,3,3,-9.539999999999999,1.22,-2.02,0.38,-0.02,0.23
0.2834899425506592,2,3,3,3,-9.539999999999999,1.22,-2.02,0.38,-0.02,0.23
0.3034899234771729,2,3,3,3,-9.550000000000001,1.15,-1.93,0.23,-0.11,0.21
0.3034899234771729,2,3,3,3,-9.550000000000001,1.15,-1.93,0.23,-0.11,0.21
0.3234899044036865,2,3,3,3,-9.51,1.02,-2,0.09,-0.17,0.11
0.3234899044036865,2,3,3,3,-9.51,1.02,-2,0.09,-0.17,0.11
0.3434898853302002,2,3,3,3,-9.49,0.98,-1.82,0.03,-0.13,0.01
0.3434898853302002,2,3,3,3,-9.49,0.98,-1.82,0.03,-0.13,0.01
0.363490104675293,2,3,3,3,-9.51,1.05,-1.9,0,-0.03,0.02
0.363490104675293,2,3,3,3,-9.51,1.05,-1.9,0,-0.03,0.02
0.3834900856018066,2,3,3,3,-9.550000000000001,1.01,-2.01,-0.06,-0.08,-0.01
0.3834900856018066,2,3,3,3,-9.550000000000001,1.01,-2.01,-0.06,-0.08,-0.01
0.4034900665283203,2,3,3,3,-9.539999999999999,1.11,-1.91,0.07000000000000001,-0.02,-0.02
0.4034900665283203,2,3,3,3,-9.539999999999999,1.11,-1.91,0.07000000000000001,-0.02,-0.02
0.423490047454834,2,3,3,3,-9.470000000000001,1.22,-1.95,-0.01,-0.07000000000000001,-0.1
0.423490047454834,2,3,3,3,-9.470000000000001,1.22,-1.95,-0.01,-0.07000000000000001,-0.1
0.4434900283813477,2,3,3,3,-9.529999999999999,1.11,-1.87,-0.2,0.03,-0.12
0.4434900283813477,2,3,3,3,-9.529999999999999,1.11,-1.87,-0.2,0.03,-0.12
0.4634900093078613,2,3,3,3,-9.550000000000001,0.96,-1.97,-0.32,0.06,-0.13
0.4634900093078613,2,3,3,3,-9.550000000000001,0.96,-1.97,-0.32,0.06,-0.13
0.483489990234375,2,3,3,3,-9.529999999999999,1.02,-1.94,-0.27,0.02,-0.16
0.483489990234375,2,3,3,3,-9.529999999999999,1.02,-1.94,-0.27,0.02,-0.16
0.5034899711608887,2,3,3,3,-9.51,1.1,-1.93,-0.28,0.03,-0.16
0.5034899711608887,2,3,3,3,-9.51,1.1,-1.93,-0.28,0.03,-0.16
0.5234899520874023,2,3,3,3,-9.51,1.07,-2.08,-0.2,0.06,-0.15
0.5234899520874023,2,3,3,3,-9.51,1.07,-2.08,-0.2,0.06,-0.15
0.543489933013916,2,3,3,3,-9.529999999999999,1.04,-1.99,-0.23,0.02,-0.14
0.543489933013916,2,3,3,3,-9.529999999999999,1.04,-1.99,-0.23,0.02,-0.14
0.5634899139404297,2,3,3,3,-9.550000000000001,1.01,-1.93,-0.24,0.06,-0.13
0.5634899139404297,2,3,3,3,-9.550000000000001,1.01,-1.93,-0.24,0.06,-0.13
0.5834898948669434,2,3,3,3,-9.529999999999999,1.09,-2.02,-0.1,0.12,-0.08
0.5834898948669434,2,3,3,3,-9.529999999999999,1.09,-2.02,-0.1,0.12,-0.08
0.603489875793457,2,3,3,3,-9.49,1.03,-1.92,-0.14,-0.04,-0.04
0.603489875793457,2,3,3,3,-9.49,1.03,-1.92,-0.14,-0.04,-0.04
0.6234900951385498,2,3,3,3,-9.529999999999999,0.9399999999999999,-2.07,-0.05,-0.1,-0.02
0.6234900951385498,2,3,3,3,-9.529999999999999,0.9399999999999999,-2.07,-0.05,-0.1,-0.02
0.6434900760650635,2,3,3,3,-9.550000000000001,1,-1.99,0.02,-0.08,-0.01
0.6434900760650635,2,3,3,3,-9.550000000000001,1,-1.99,0.02,-0.08,-0.01
0.6634900569915771,2,3,3,3,-9.51,1.08,-1.95,0.04,-0.05,-0.04
0.6634900569915771,2,3,3,3,-9.51,1.08,-1.95,0.04,-0.05,-0.04
0.6834900379180908,2,3,3,3,-9.51,1.07,-1.99,-0.02,-0.04,-0.02
0.6834900379180908,2,3,3,3,-9.51,1.07,-1.99,-0.02,-0.04,-0.02
0.7034900188446045,2,3,3,3,-9.539999999999999,1.09,-1.91,-0.03,-0.04,-0.11
0.7034900188446045,2,3,3,3,-9.539999999999999,1.09,-1.91,-0.03,-0.04,-0.11
0.7234899997711182,2,3,3,3,-9.49,1.04,-1.97,-0.15,0,-0.02
0.7234899997711182,2,3,3,3,-9.49,1.04,-1.97,-0.15,0,-0.02
0.7434899806976318,2,3,3,3,-9.539999999999999,1.04,-2.01,-0.2,0,-0.08
0.7434899806976318,2,3,3,3,-9.539999999999999,1.04,-2.01,-0.2,0,-0.08
0.7634899616241455,2,3,3,3,-9.539999999999999,0.98,-1.91,-0.12,-0.03,-0.09
0.7634899616241455,2,3,3,3,-9.539999999999999,0.98,-1.91,-0.12,-0.03,-0.09
0.7834899425506592,2,3,3,3,-9.51,1.07,-1.94,-0.01,-0.03,-0.07000000000000001
0.7834899425506592,2,3,3,3,-9.51,1.07,-1.94,-0.01,-0.03,-0.07000000000000001
0.8034899234771729,2,3,3,3,-9.539999999999999,1.05,-1.81,-0.11,0.02,-0.13
0.8034899234771729,2,3,3,3,-9.539999999999999,1.05,-1.81,-0.11,0.02,-0.13
0.8234899044036865,2,3,3,3,-9.56,0.93,-1.94,-0.25,-0.04,-0.17
0.8234899044036865,2,3,3,3,-9.56,0.93,-1.94,-0.25,-0.04,-0.17
0.8434898853302002,2,3,3,3,-9.57,0.98,-1.88,-0.24,-0.03,-0.25
0.8434898853302002,2,3,3,3,-9.57,0.98,-1.88,-0.24,-0.03,-0.25
0.863490104675293,2,3,3,3,-9.52,0.96,-1.87,-0.4,-0.03,-0.31
0.863490104675293,2,3,3,3,-9.52,0.96,-1.87,-0.4,-0.03,-0.31
0.8834900856018066,2,3,3,3,-9.539999999999999,1.02,-1.98,-0.42,0,-0.38
0.8834900856018066,2,3,3,3,-9.539999999999999,1.02,-1.98,-0.42,0,-0.38
0.9034900665283203,2,3,3,3,-9.529999999999999,1.12,-1.9,-0.49,0,-0.34
0.9034900665283203,2,3,3,3,-9.529999999999999,1.12,-1.9,-0.49,0,-0.34
0.923490047454834,2,3,3,3,-9.49,1.21,-2.04,-0.53,-0.06,-0.32
0.923490047454834,2,3,3,3,-9.49,1.21,-2.04,-0.53,-0.06,-0.32
0.9434900283813477,2,3,3,3,-9.51,1.19,-2.04,-0.61,0.06,-0.31
0.9434900283813477,2,3,3,3,-9.51,1.19,-2.04,-0.61,0.06,-0.31
0.9634900093078613,2,3,3,3,-9.52,1.18,-1.97,-0.54,-0.02,-0.2
0.9634900093078613,2,3,3,3,-9.52,1.18,-1.97,-0.54,-0.02,-0.2
0.983489990234375,2,3,3,3,-9.52,1.12,-2.06,-0.44,0.01,-0.12
0.983489990234375,2,3,3,3,-9.52,1.12,-2.06,-0.44,0.01,-0.12
1.003489971160889,2,3,3,3,-9.5,1.06,-1.98,-0.3,0.01,-0.02
1.003489971160889,2,3,3,3,-9.5,1.06,-1.98,-0.3,0.01,-0.02
1.023489952087402,2,3,3,3,-9.51,0.98,-2.07,-0.12,-0.01,0.07000000000000001
1.023489952087402,2,3,3,3,-9.51,0.98,-2.07,-0.12,-0.01,0.07000000000000001
1.043489933013916,2,3,3,3,-9.56,0.96,-1.95,-0.02,0.03,0.12
1.043489933013916,2,3,3,3,-9.56,0.96,-1.95,-0.02,0.03,0.12
1.06348991394043,2,3,3,3,-9.539999999999999,0.93,-1.85,0.01,-0.12,0.14
1.06348991394043,2,3,3,3,-9.539999999999999,0.93,-1.85,0.01,-0.12,0.14
1.083489894866943,2,3,3,3,-9.56,0.98,-1.96,-0.1,-0.07000000000000001,0.13
1.083489894866943,2,3,3,3,-9.56,0.98,-1.96,-0.1,-0.07000000000000001,0.13
1.103489875793457,2,3,3,3,-9.550000000000001,0.9,-1.93,-0.05,0,0.14
1.103489875793457,2,3,3,3,-9.550000000000001,0.9,-1.93,-0.05,0,0.14
1.12349009513855,2,3,3,3,-9.529999999999999,0.99,-2.02,0.12,0.06,0.19
1.12349009513855,2,3,3,3,-9.529999999999999,0.99,-2.02,0.12,0.06,0.19
1.143490076065063,2,3,3,3,-9.529999999999999,1.03,-1.99,0.27,0.03,0.2
1.143490076065063,2,3,3,3,-9.529999999999999,1.03,-1.99,0.27,0.03,0.2
1.163490056991577,2,3,3,3,-9.529999999999999,1.01,-1.92,0.23,-0.09,0.22
1.163490056991577,2,3,3,3,-9.529999999999999,1.01,-1.92,0.23,-0.09,0.22
1.183490037918091,2,3,3,3,-9.52,1.07,-1.97,0.32,-0.05,0.29
1.183490037918091,2,3,3,3,-9.52,1.07,-1.97,0.32,-0.05,0.29
1.203490018844604,2,3,3,3,-9.51,1.08,-1.9,0.29,-0.01,0.25
1.203490018844604,2,3,3,3,-9.51,1.08,-1.9,0.29,-0.01,0.25
1.223489999771118,2,3,3,3,-9.52,1,-2.02,0.36,-0.03,0.25
1.223489999771118,2,3,3,3,-9.52,1,-2.02,0.36,-0.03,0.25
1.243489980697632,2,3,3,3,-9.529999999999999,1.07,-1.91,0.32,-0.01,0.26
1.243489980697632,2,3,3,3,-9.529999999999999,1.07,-1.91,0.32,-0.01,0.26
1.264489889144897,2,3,3,3,-9.58,1.03,-1.84,0.3,0.01,0.21
1.264489889144897,2,3,3,3,-9.58,1.03,-1.84,0.3,0.01,0.21
1.28449010848999,2,3,3,3,-9.52,1.06,-1.93,0.2,-0.08,0.18
1.28449010848999,2,3,3,3,-9.52,1.06,-1.93,0.2,-0.08,0.18
1.304490089416504,2,3,3,3,-9.5,1.02,-1.91,0.23,-0.06,0.15
1.304490089416504,2,3,3,3,-9.5,1.02,-1.91,0.23,-0.06,0.15
1.324490070343018,2,3,3,3,-9.51,1.09,-2.01,0.25,-0.03,0.16
1.324490070343018,2,3,3,3,-9.51,1.09,-2.01,0.25,-0.03,0.16
1.344490051269531,2,3,3,3,-9.52,1.09,-1.91,0.25,-0.06,0.15
1.344490051269531,2,3,3,3,-9.52,1.09,-1.91,0.25,-0.06,0.15
1.364490032196045,2,3,3,3,-9.52,1.17,-1.93,0.31,-0.08,0.21
1.364490032196045,2,3,3,3,-9.52,1.17,-1.93,0.31,-0.08,0.21
1.384490013122559,2,3,3,3,-9.550000000000001,1.14,-1.97,0.4,-0.02,0.22
1.384490013122559,2,3,3,3,-9.550000000000001,1.14,-1.97,0.4,-0.02,0.22
1.404489994049072,2,3,3,3,-9.49,1.2,-1.92,0.31,-0.07000000000000001,0.21
1.404489994049072,2,3,3,3,-9.49,1.2,-1.92,0.31,-0.07000000000000001,0.21
1.424489974975586,2,3,3,3,-9.51,1.02,-1.99,0.21,-0.09,0.19
1.424489974975586,2,3,3,3,-9.51,1.02,-1.99,0.21,-0.09,0.19
1.4444899559021,2,3,3,3,-9.539999999999999,1.05,-1.91,0.17,-0.01,0.15
1.4444899559021,2,3,3,3,-9.539999999999999,1.05,-1.91,0.17,-0.01,0.15
1.464489936828613,2,3,3,3,-9.539999999999999,1.09,-1.89,0.15,-0.02,0.09
1.464489936828613,2,3,3,3,-9.539999999999999,1.09,-1.89,0.15,-0.02,0.09
1.484489917755127,2,3,3,3,-9.539999999999999,1.15,-1.97,0.16,-0.03,0.08
1.484489917755127,2,3,3,3,-9.539999999999999,1.15,-1.97,0.16,-0.03,0.08
1.504489898681641,2,3,3,3,-9.48,1.12,-1.94,0.06,-0.09,0.09
1.504489898681641,2,3,3,3,-9.48,1.12,-1.94,0.06,-0.09,0.09
1.524489879608154,2,3,3,3,-9.52,1.09,-2.01,0.05,0.04,0.08
1.524489879608154,2,3,3,3,-9.52,1.09,-2.01,0.05,0.04,0.08
1.544490098953247,2,3,3,3,-9.539999999999999,1.06,-1.92,-0.02,0.01,0.05
1.544490098953247,2,3,3,3,-9.539999999999999,1.06,-1.92,-0.02,0.01,0.05
1.564490079879761,2,3,3,3,-9.550000000000001,1.05,-1.89,0.05,0.01,0.05
1.564490079879761,2,3,3,3,-9.550000000000001,1.05,-1.89,0.05,0.01,0.05
1.584490060806274,2,3,3,3,-9.529999999999999,1.15,-2,0.09,-0.1,0.04
1.584490060806274,2,3,3,3,-9.529999999999999,1.15,-2,0.09,-0.1,0.04
1.604490041732788,2,3,3,3,-9.5,1.08,-1.86,0,-0.07000000000000001,0.02
1.604490041732788,2,3,3,3,-9.5,1.08,-1.86,0,-0.07000000000000001,0.02
1.624490022659302,2,3,3,3,-9.49,1.09,-1.98,-0.12,-0.08,0
1.624490022659302,2,3,3,3,-9.49,1.09,-1.98,-0.12,-0.08,0
1.644490003585815,2,3,3,3,-9.51,1.04,-1.95,-0.19,-0.03,0.04
1.644490003585815,2,3,3,3,-9.51,1.04,-1.95,-0.19,-0.03,0.04
1.664489984512329,2,3,3,3,-9.56,1.06,-1.92,-0.04,0.07000000000000001,0.03
1.664489984512329,2,3,3,3,-9.56,1.06,-1.92,-0.04,0.07000000000000001,0.03
1.684489965438843,2,3,3,3,-9.529999999999999,1.15,-1.99,0.01,-0.01,0.08
1.684489965438843,2,3,3,3,-9.529999999999999,1.15,-1.99,0.01,-0.01,0.08
1.704489946365356,2,3,3,3,-9.529999999999999,1.14,-1.92,0.01,-0.05,0.06
1.704489946365356,2,3,3,3,-9.529999999999999,1.14,-1.92,0.01,-0.05,0.06
1.72448992729187,2,3,3,3,-9.51,1.05,-1.99,-0.14,-0.17,0.1
1.72448992729187,2,3,3,3,-9.51,1.05,-1.99,-0.14,-0.17,0.1
1.744489908218384,2,3,3,3,-9.5,1.03,-1.93,-0.11,-0.04,0.08
1.744489908218384,2,3,3,3,-9.5,1.03,-1.93,-0.11,-0.04,0.08
1.764489889144897,2,3,3,3,-9.550000000000001,1.13,-1.96,0,0.1,0.09
1.764489889144897,2,3,3,3,-9.550000000000001,1.13,-1.96,0,0.1,0.09
1.78449010848999,2,3,3,3,-9.52,1.17,-1.95,0.06,0.11,0.09
1.78449010848999,2,3,3,3,-9.52,1.17,-1.95,0.06,0.11,0.09
1.804490089416504,2,3,3,3,-9.51,1.12,-1.89,-0.06,-0.06,0.14
1.804490089416504,2,3,3,3,-9.51,1.12,-1.89,-0.06,-0.06,0.14
1.824490070343018,2,3,3,3,-9.550000000000001,1.03,-2.03,-0.04,-0.1,0.17
1.824490070343018,2,3,3,3,-9.550000000000001,1.03,-2.03,-0.04,-0.1,0.17
1.844490051269531,2,3,3,3,-9.5,1.09,-1.89,-0.03,-0.1,0.18
1.844490051269531,2,3,3,3,-9.5,1.09,-1.89,-0.03,-0.1,0.18
1.864490032196045,2,3,3,3,-9.529999999999999,1.06,-1.92,0.07000000000000001,0.04,0.14
1.864490032196045,2,3,3,3,-9.529999999999999,1.06,-1.92,0.07000000000000001,0.04,0.14
1.884490013122559,2,3,3,3,-9.57,1.15,-1.95,0.06,0.02,0.15
1.884490013122559,2,3,3,3,-9.57,1.15,-1.95,0.06,0.02,0.15
1.904489994049072,2,3,3,3,-9.52,1.22,-1.89,0.04,-0.05,0.13
1.904489994049072,2,3,3,3,-9.52,1.22,-1.89,0.04,-0.05,0.13
1.924489974975586,2,3,3,3,-9.470000000000001,1.27,-2.06,-0.08,-0.09,0.12
1.924489974975586,2,3,3,3,-9.470000000000001,1.27,-2.06,-0.08,-0.09,0.12
1.9444899559021,2,3,3,3,-9.57,1.16,-1.9,-0.1,0.03,0.14
1.9444899559021,2,3,3,3,-9.57,1.16,-1.9,-0.1,0.03,0.14
1.964489936828613,2,3,3,3,-9.529999999999999,1.16,-1.87,-0.04,0.03,0.1
1.964489936828613,2,3,3,3,-9.529999999999999,1.16,-1.87,-0.04,0.03,0.1
1.984489917755127,2,3,3,3,-9.51,1.3,-1.9,-0.01,0.02,0.06
1.984489917755127,2,3,3,3,-9.51,1.3,-1.9,-0.01,0.02,0.06
2.004489898681641,2,3,3,3,-9.52,1.21,-1.89,-0.13,-0.09,-0.04
2.004489898681641,2,3,3,3,-9.52,1.21,-1.89,-0.13,-0.09,-0.04
2.024489879608154,2,3,3,3,-9.51,1.16,-2.01,-0.11,-0.04,0.02
2.024489879608154,2,3,3,3,-9.51,1.16,-2.01,-0.11,-0.04,0.02
2.044490098953247,2,3,3,3,-9.51,1.17,-1.89,0.03,-0.07000000000000001,0.04
2.044490098953247,2,3,3,3,-9.51,1.17,-1.89,0.03,-0.07000000000000001,0.04
2.064490079879761,2,3,3,3,-9.550000000000001,1.12,-1.9,0.02,-0.12,0.06
2.064490079879761,2,3,3,3,-9.550000000000001,1.12,-1.9,0.02,-0.12,0.06
2.084490060806274,2,3,3,3,-9.56,1.22,-1.95,0.04,-0.13,-0.02
2.084490060806274,2,3,3,3,-9.56,1.22,-1.95,0.04,-0.13,-0.02
2.104490041732788,2,3,3,3,-9.539999999999999,1.22,-1.91,0.09,-0.08,0.03
2.104490041732788,2,3,3,3,-9.539999999999999,1.22,-1.91,0.09,-0.08,0.03
2.124490022659302,2,3,3,3,-9.52,1.31,-2.01,0.1,-0.03,-0.02
2.124490022659302,2,3,3,3,-9.52,1.31,-2.01,0.1,-0.03,-0.02
2.144490003585815,2,3,3,3,-9.5,1.15,-1.95,0.07000000000000001,-0.12,-0.08
2.144490003585815,2,3,3,3,-9.5,1.15,-1.95,0.07000000000000001,-0.12,-0.08
2.164489984512329,2,3,3,3,-9.52,1.18,-1.82,0.22,-0.11,-0.08
2.164489984512329,2,3,3,3,-9.52,1.18,-1.82,0.22,-0.11,-0.08
2.184489965438843,2,3,3,3,-9.51,1.32,-1.94,0.26,-0.18,-0.19
2.184489965438843,2,3,3,3,-9.51,1.32,-1.94,0.26,-0.18,-0.19
2.204489946365356,2,3,3,3,-9.470000000000001,1.43,-1.92,0.14,-0.27,-0.3
2.204489946365356,2,3,3,3,-9.470000000000001,1.43,-1.92,0.14,-0.27,-0.3
2.22448992729187,2,3,3,3,-9.49,1.62,-2.12,0.14,-0.16,-0.41
2.22448992729187,2,3,3,3,-9.49,1.62,-2.12,0.14,-0.16,-0.41
2.244489908218384,2,3,3,3,-9.49,1.71,-2.07,0.12,-0.1,-0.55
2.244489908218384,2,3,3,3,-9.49,1.71,-2.07,0.12,-0.1,-0.55
2.264489889144897,2,3,3,3,-9.460000000000001,1.57,-2.05,0.03,-0.11,-0.58
2.264489889144897,2,3,3,3,-9.460000000000001,1.57,-2.05,0.03,-0.11,-0.58
2.285490036010742,2,3,3,3,-9.5,1.44,-1.96,-0.03,-0.28,-0.73
2.285490036010742,2,3,3,3,-9.5,1.44,-1.96,-0.03,-0.28,-0.73
2.305490016937256,2,3,3,3,-9.51,1.39,-1.87,0.08,-0.06,-0.85
2.305490016937256,2,3,3,3,-9.51,1.39,-1.87,0.08,-0.06,-0.85
2.32548999786377,2,3,3,3,-9.59,1.33,-1.93,0.1,-0.09,-0.99
2.32548999786377,2,3,3,3,-9.59,1.33,-1.93,0.1,-0.09,-0.99
2.345489978790283,2,3,3,3,-9.5,1.39,-1.86,0.12,-0.12,-1.09
2.345489978790283,2,3,3,3,-9.5,1.39,-1.86,0.12,-0.12,-1.09
2.365489959716797,2,3,3,3,-9.51,1.48,-1.82,0.16,-0.09,-1.14
2.365489959716797,2,3,3,3,-9.51,1.48,-1.82,0.16,-0.09,-1.14
2.385489940643311,2,3,3,3,-9.539999999999999,1.55,-1.94,-0.04,-0.11,-1.35
2.385489940643311,2,3,3,3,-9.539999999999999,1.55,-1.94,-0.04,-0.11,-1.35
2.405489921569824,2,3,3,3,-9.58,1.46,-1.93,-0.64,-0.16,-1.48
2.405489921569824,2,3,3,3,-9.58,1.46,-1.93,-0.64,-0.16,-1.48
2.425489902496338,2,3,3,3,-9.48,1.38,-1.94,-1.3,-0.2,-1.93
2.425489902496338,2,3,3,3,-9.48,1.38,-1.94,-1.3,-0.2,-1.93
2.445489883422852,2,3,3,3,-9.56,1.44,-1.94,-1.57,-0.07000000000000001,-2.25
2.445489883422852,2,3,3,3,-9.56,1.44,-1.94,-1.57,-0.07000000000000001,-2.25
2.465490102767944,2,3,3,3,-9.51,1.28,-1.84,-1.96,-0.29,-2.33
2.465490102767944,2,3,3,3,-9.51,1.28,-1.84,-1.96,-0.29,-2.33
2.485490083694458,2,3,3,3,-9.529999999999999,1.13,-1.86,-1.73,-0.26,-2.36
2.485490083694458,2,3,3,3,-9.529999999999999,1.13,-1.86,-1.73,-0.26,-2.36
2.505490064620972,2,3,3,3,-9.619999999999999,1.06,-1.89,-1.37,-0.31,-2.28
2.505490064620972,2,3,3,3,-9.619999999999999,1.06,-1.89,-1.37,-0.31,-2.28
2.525490045547485,2,3,3,3,-9.5,1.1,-2.07,-1.22,-0.28,-2.14
2.525490045547485,2,3,3,3,-9.5,1.1,-2.07,-1.22,-0.28,-2.14
2.545490026473999,2,3,3,3,-9.42,0.95,-2.12,-1.45,-0.18,-2.1
2.545490026473999,2,3,3,3,-9.42,0.95,-2.12,-1.45,-0.18,-2.1
2.565490007400513,2,3,3,3,-9.56,0.39,-1.98,-1.5,-0.22,-1.97
2.565490007400513,2,3,3,3,-9.56,0.39,-1.98,-1.5,-0.22,-1.97
2.585489988327026,2,3,3,3,-9.48,-0.03,-1.87,-1.16,-0.42,-1.77
2.585489988327026,2,3,3,3,-9.48,-0.03,-1.87,-1.16,-0.42,-1.77
2.60548996925354,2,3,3,3,-9.640000000000001,-0.51,-1.75,-0.24,-0.47,-1.62
2.60548996925354,2,3,3,3,-9.640000000000001,-0.51,-1.75,-0.24,-0.47,-1.62
2.625489950180054,2,3,3,3,-9.66,-0.5600000000000001,-1.84,0.68,-0.55,-1.29
2.625489950180054,2,3,3,3,-9.66,-0.5600000000000001,-1.84,0.68,-0.55,-1.29
2.645489931106567,2,3,3,3,-9.69,-0.53,-1.67,1.42,-0.46,-1.05
2.645489931106567,2,3,3,3,-9.69,-0.53,-1.67,1.42,-0.46,-1.05
2.665489912033081,2,3,3,3,-9.609999999999999,-0.29,-1.69,1.62,-0.51,-0.79
2.665489912033081,2,3,3,3,-9.609999999999999,-0.29,-1.69,1.62,-0.51,-0.79
2.685489892959595,2,3,3,3,-9.609999999999999,-0.01,-1.65,1.55,-0.44,-0.66
2.685489892959595,2,3,3,3,-9.609999999999999,-0.01,-1.65,1.55,-0.44,-0.66
2.705490112304688,2,3,3,3,-9.619999999999999,0.09,-1.66,1.27,-0.4,-0.38
2.705490112304688,2,3,3,3,-9.619999999999999,0.09,-1.66,1.27,-0.4,-0.38
2.725490093231201,2,3,3,3,-9.630000000000001,0.1,-1.66,1.06,-0.33,-0.2
2.725490093231201,2,3,3,3,-9.630000000000001,0.1,-1.66,1.06,-0.33,-0.2
2.745490074157715,2,3,3,3,-9.69,0.03,-1.48,0.9,-0.27,-0.13
2.745490074157715,2,3,3,3,-9.69,0.03,-1.48,0.9,-0.27,-0.13
2.765490055084229,2,3,3,3,-9.73,0.13,-1.53,0.72,-0.23,-0.21
2.765490055084229,2,3,3,3,-9.73,0.13,-1.53,0.72,-0.23,-0.21
2.785490036010742,2,3,3,3,-9.720000000000001,0.2,-1.55,0.41,-0.17,-0.31
2.785490036010742,2,3,3,3,-9.720000000000001,0.2,-1.55,0.41,-0.17,-0.31
2.805490016937256,2,3,3,3,-9.619999999999999,0.53,-1.56,0.23,0.02,-0.19
2.805490016937256,2,3,3,3,-9.619999999999999,0.53,-1.56,0.23,0.02,-0.19
2.82548999786377,2,3,3,3,-9.630000000000001,0.54,-1.78,0.04,0.14,-0.14
2.82548999786377,2,3,3,3,-9.630000000000001,0.54,-1.78,0.04,0.14,-0.14
2.845489978790283,2,3,3,3,-9.65,0.44,-1.7,-0.23,0,-0.07000000000000001
2.845489978790283,2,3,3,3,-9.65,0.44,-1.7,-0.23,0,-0.07000000000000001
2.865489959716797,2,3,3,3,-9.6,0.41,-1.68,-0.32,-0.05,-0.09
2.865489959716797,2,3,3,3,-9.6,0.41,-1.68,-0.32,-0.05,-0.09
2.885489940643311,2,3,3,3,-9.619999999999999,0.26,-1.75,-0.33,-0.02,-0.02
2.885489940643311,2,3,3,3,-9.619999999999999,0.26,-1.75,-0.33,-0.02,-0.02
2.905489921569824,2,3,3,3,-9.68,0.32,-1.74,-0.26,0,-0.06
2.905489921569824,2,3,3,3,-9.68,0.32,-1.74,-0.26,0,-0.06
2.925489902496338,2,3,3,3,-9.609999999999999,0.27,-1.83,-0.19,0.01,0.01
2.925489902496338,2,3,3,3,-9.609999999999999,0.27,-1.83,-0.19,0.01,0.01
2.945489883422852,2,3,3,3,-9.6,0.32,-1.7,-0.2,0.03,0.1
2.945489883422852,2,3,3,3,-9.6,0.32,-1.7,-0.2,0.03,0.1
2.965490102767944,2,3,3,3,-9.58,0.34,-1.7,-0.13,-0.06,0.14
2.965490102767944,2,3,3,3,-9.58,0.34,-1.7,-0.13,-0.06,0.14
2.985490083694458,2,3,3,3,-9.619999999999999,0.26,-1.79,-0.12,-0.07000000000000001,0.09
2.985490083694458,2,3,3,3,-9.619999999999999,0.26,-1.79,-0.12,-0.07000000000000001,0.09
3.005490064620972,2,3,3,3,-9.619999999999999,0.32,-1.73,-0.31,0,0.07000000000000001
3.005490064620972,2,3,3,3,-9.619999999999999,0.32,-1.73,-0.31,0,0.07000000000000001
3.025490045547485,2,3,3,3,-9.65,0.43,-1.83,-0.37,-0.08,0
3.025490045547485,2,3,3,3,-9.65,0.43,-1.83,-0.37,-0.08,0
3.045490026473999,2,3,3,3,-9.58,0.38,-1.69,-0.35,0.06,0.02
3.045490026473999,2,3,3,3,-9.58,0.38,-1.69,-0.35,0.06,0.02
3.065490007400513,2,3,3,3,-9.609999999999999,0.47,-1.67,-0.22,0,0.17
3.065490007400513,2,3,3,3,-9.609999999999999,0.47,-1.67,-0.22,0,0.17
3.085489988327026,2,3,3,3,-9.609999999999999,0.44,-1.75,-0.18,-0.03,0.2
3.085489988327026,2,3,3,3,-9.609999999999999,0.44,-1.75,-0.18,-0.03,0.2
3.10548996925354,2,3,3,3,-9.619999999999999,0.46,-1.66,-0.1,0.05,0.21
3.10548996925354,2,3,3,3,-9.619999999999999,0.46,-1.66,-0.1,0.05,0.21
3.125489950180054,2,3,3,3,-9.630000000000001,0.51,-1.82,0.05,-0.02,0.2
3.125489950180054,2,3,3,3,-9.630000000000001,0.51,-1.82,0.05,-0.02,0.2
3.145489931106567,2,3,3,3,-9.619999999999999,0.53,-1.74,0.09,-0.05,0.24
3.145489931106567,2,3,3,3,-9.619999999999999,0.53,-1.74,0.09,-0.05,0.24
3.165489912033081,2,3,3,3,-9.619999999999999,0.61,-1.69,-0.09,-0.06,0.27
3.165489912033081,2,3,3,3,-9.619999999999999,0.61,-1.69,-0.09,-0.06,0.27
3.185489892959595,2,3,3,3,-9.57,0.46,-1.71,-0.27,-0.05,0.3
3.185489892959595,2,3,3,3,-9.57,0.46,-1.71,-0.27,-0.05,0.3
3.205490112304688,2,3,3,3,-9.640000000000001,0.44,-1.68,-0.29,-0.01,0.27
3.205490112304688,2,3,3,3,-9.640000000000001,0.44,-1.68,-0.29,-0.01,0.27
3.225490093231201,2,3,3,3,-9.630000000000001,0.42,-1.87,-0.32,-0.12,0.32
3.225490093231201,2,3,3,3,-9.630000000000001,0.42,-1.87,-0.32,-0.12,0.32
3.245490074157715,2,3,3,3,-9.619999999999999,0.42,-1.75,-0.27,-0.12,0.32
3.245490074157715,2,3,3,3,-9.619999999999999,0.42,-1.75,-0.27,-0.12,0.32
3.265490055084229,2,3,3,3,-9.640000000000001,0.51,-1.78,-0.24,0.04,0.38
3.265490055084229,2,3,3,3,-9.640000000000001,0.51,-1.78,-0.24,0.04,0.38
3.285490036010742,2,3,3,3,-9.57,0.41,-1.74,-0.18,0.11,0.44
3.285490036010742,2,3,3,3,-9.57,0.41,-1.74,-0.18,0.11,0.44
3.305490016937256,2,3,3,3,-9.619999999999999,0.46,-1.72,-0.16,0.15,0.4
3.305490016937256,2,3,3,3,-9.619999999999999,0.46,-1.72,-0.16,0.15,0.4
3.326489925384521,2,3,3,3,-9.66,0.31,-1.81,-0.15,-0.06,0.42
3.326489925384521,2,3,3,3,-9.66,0.31,-1.81,-0.15,-0.06,0.42
3.346489906311035,2,3,3,3,-9.66,0.38,-1.67,-0.11,-0.09,0.43
3.346489906311035,2,3,3,3,-9.66,0.38,-1.67,-0.11,-0.09,0.43
3.366489887237549,2,3,3,3,-9.58,0.49,-1.7,-0.21,0.06,0.39
3.366489887237549,2,3,3,3,-9.58,0.49,-1.7,-0.21,0.06,0.39
3.386490106582642,2,3,3,3,-9.630000000000001,0.6899999999999999,-1.82,-0.29,0.02,0.35
3.386490106582642,2,3,3,3,-9.630000000000001,0.6899999999999999,-1.82,-0.29,0.02,0.35
3.406490087509155,2,3,3,3,-9.58,0.66,-1.76,-0.2,0.01,0.34
3.406490087509155,2,3,3,3,-9.58,0.66,-1.76,-0.2,0.01,0.34
3.426490068435669,2,3,3,3,-9.550000000000001,0.73,-1.87,-0.04,0.17,0.6
3.426490068435669,2,3,3,3,-9.550000000000001,0.73,-1.87,-0.04,0.17,0.6
3.446490049362183,2,3,3,3,-9.609999999999999,0.59,-1.86,0.06,0.23,0.62
3.446490049362183,2,3,3,3,-9.609999999999999,0.59,-1.86,0.06,0.23,0.62
3.466490030288696,2,3,3,3,-9.58,0.55,-1.75,0.31,0.1,0.72
3.466490030288696,2,3,3,3,-9.58,0.55,-1.75,0.31,0.1,0.72
3.48649001121521,2,3,3,3,-9.619999999999999,0.43,-1.73,0.32,0.25,0.73
3.48649001121521,2,3,3,3,-9.619999999999999,0.43,-1.73,0.32,0.25,0.73
3.506489992141724,2,3,3,3,-9.68,0.22,-1.59,0.45,0.24,0.78
3.506489992141724,2,3,3,3,-9.68,0.22,-1.59,0.45,0.24,0.78
3.526489973068237,2,3,3,3,-9.630000000000001,0.26,-1.67,0.48,0.26,0.66
3.526489973068237,2,3,3,3,-9.630000000000001,0.26,-1.67,0.48,0.26,0.66
3.546489953994751,2,3,3,3,-9.52,0.45,-1.71,0.28,0.34,0.58
3.546489953994751,2,3,3,3,-9.52,0.45,-1.71,0.28,0.34,0.58
3.566489934921265,2,3,3,3,-9.67,0.41,-1.55,0.14,0.3,0.53
3.566489934921265,2,3,3,3,-9.67,0.41,-1.55,0.14,0.3,0.53
3.586489915847778,2,3,3,3,-9.57,0.39,-1.67,0.12,0.34,0.39
3.586489915847778,2,3,3,3,-9.57,0.39,-1.67,0.12,0.34,0.39
3.606489896774292,2,3,3,3,-9.550000000000001,0.49,-1.77,0.25,0.42,0.29
3.606489896774292,2,3,3,3,-9.550000000000001,0.49,-1.77,0.25,0.42,0.29
3.626489877700806,2,3,3,3,-9.619999999999999,0.65,-1.82,0.32,0.29,0.39
3.626489877700806,2,3,3,3,-9.619999999999999,0.65,-1.82,0.32,0.29,0.39
3.646490097045898,2,3,3,3,-9.75,0.92,-1.83,0.36,0.32,0.38
3.646490097045898,2,3,3,3,-9.75,0.92,-1.83,0.36,0.32,0.38
3.666490077972412,2,3,3,3,-9.56,0.71,-1.86,0.54,0.21,0.32
3.666490077972412,2,3,3,3,-9.56,0.71,-1.86,0.54,0.21,0.32
3.686490058898926,2,3,3,3,-9.52,0.8100000000000001,-1.86,0.73,0.28,0.5
3.686490058898926,2,3,3,3,-9.52,0.8100000000000001,-1.86,0.73,0.28,0.5
3.706490039825439,2,3,3,3,-9.6,1.06,-1.87,0.6899999999999999,0.16,0.6
3.706490039825439,2,3,3,3,-9.6,1.06,-1.87,0.6899999999999999,0.16,0.6
3.726490020751953,2,3,3,3,-9.539999999999999,1.13,-1.95,0.29,0.15,0.6
3.726490020751953,2,3,3,3,-9.539999999999999,1.13,-1.95,0.29,0.15,0.6
3.746490001678467,2,3,3,3,-9.449999999999999,1.21,-2.01,0.2,0.2,0.63
3.746490001678467,2,3,3,3,-9.449999999999999,1.21,-2.01,0.2,0.2,0.63
3.76648998260498,2,3,3,3,-9.52,1.21,-1.89,0.02,0.18,0.71
3.76648998260498,2,3,3,3,-9.52,1.21,-1.89,0.02,0.18,0.71
3.786489963531494,2,3,3,3,-9.57,0.71,-1.85,-0.05,0,0.64
3.786489963531494,2,3,3,3,-9.57,0.71,-1.85,-0.05,0,0.64
3.806489944458008,2,3,3,3,-9.539999999999999,0.52,-1.68,0.09,-0.04,0.57
3.806489944458008,2,3,3,3,-9.539999999999999,0.52,-1.68,0.09,-0.04,0.57
3.826489925384521,2,3,3,3,-9.59,0.57,-1.8,0.32,0.06,0.38
3.826489925384521,2,3,3,3,-9.59,0.57,-1.8,0.32,0.06,0.38
3.846489906311035,2,3,3,3,-9.550000000000001,0.44,-1.77,0.51,0.09,0.37
3.846489906311035,2,3,3,3,-9.550000000000001,0.44,-1.77,0.51,0.09,0.37
3.866489887237549,2,3,3,3,-9.52,0.77,-1.98,1,0,0.45
3.866489887237549,2,3,3,3,-9.52,0.77,-1.98,1,0,0.45
3.886490106582642,2,3,3,3,-9.539999999999999,1.08,-1.88,0.9,-0.13,0.46
3.886490106582642,2,3,3,3,-9.539999999999999,1.08,-1.88,0.9,-0.13,0.46
3.906490087509155,2,3,3,3,-9.52,1.24,-1.9,0.8,-0.1,0.54
3.906490087509155,2,3,3,3,-9.52,1.24,-1.9,0.8,-0.1,0.54
3.926490068435669,2,3,3,3,-9.5,1.35,-1.94,0.1,-0.11,0.5
3.926490068435669,2,3,3,3,-9.5,1.35,-1.94,0.1,-0.11,0.5
3.946490049362183,2,3,3,3,-9.470000000000001,1.35,-1.98,-0.19,0.01,0.5
3.946490049362183,2,3,3,3,-9.470000000000001,1.35,-1.98,-0.19,0.01,0.5
3.966490030288696,2,3,3,3,-9.5,0.78,-1.85,-0.85,-0.11,0.53
3.966490030288696,2,3,3,3,-9.5,0.78,-1.85,-0.85,-0.11,0.53
3.98649001121521,2,3,3,3,-9.58,1.15,-1.91,-0.88,-0.07000000000000001,0.6
3.98649001121521,2,3,3,3,-9.58,1.15,-1.91,-0.88,-0.07000000000000001,0.6
4.006489992141724,2,3,3,3,-9.369999999999999,1.42,-2.01,-0.96,0.06,0.71
4.006489992141724,2,3,3,3,-9.369999999999999,1.42,-2.01,-0.96,0.06,0.71
4.026489973068237,2,3,3,3,-9.779999999999999,1.24,-2.11,-0.63,-0.12,1.29
4.026489973068237,2,3,3,3,-9.779999999999999,1.24,-2.11,-0.63,-0.12,1.29
4.046489953994751,2,3,3,3,-9.82,1.05,-1.89,-0.14,-0.31,1.61
4.046489953994751,2,3,3,3,-9.82,1.05,-1.89,-0.14,-0.31,1.61
4.066489934921265,2,3,3,3,-9.449999999999999,1.3,-1.96,0.38,-0.33,1.93
4.066489934921265,2,3,3,3,-9.449999999999999,1.3,-1.96,0.38,-0.33,1.93
4.086489915847778,2,3,3,3,-9.640000000000001,0.97,-1.77,-0.14,-0.41,1.75
4.086489915847778,2,3,3,3,-9.640000000000001,0.97,-1.77,-0.14,-0.41,1.75
4.106489896774292,2,3,3,3,-9.84,0.82,-1.71,-0.62,-0.36,1.24
4.106489896774292,2,3,3,3,-9.84,0.82,-1.71,-0.62,-0.36,1.24
4.126489877700806,2,3,3,3,-9.65,0.74,-1.73,-0.86,0.05,0.68
4.126489877700806,2,3,3,3,-9.65,0.74,-1.73,-0.86,0.05,0.68
4.146490097045898,2,3,3,3,-9.57,0.75,-1.68,-0.91,0.06,0.61
4.146490097045898,2,3,3,3,-9.57,0.75,-1.68,-0.91,0.06,0.61
4.166490077972412,2,3,3,3,-9.41,1.27,-1.98,-0.76,0.13,0.44
4.166490077972412,2,3,3,3,-9.41,1.27,-1.98,-0.76,0.13,0.44
4.186490058898926,2,3,3,3,-9.74,1.62,-2.08,-0.99,-0.06,0.46
4.186490058898926,2,3,3,3,-9.74,1.62,-2.08,-0.99,-0.06,0.46
4.206490039825439,2,3,3,3,-9.65,1.67,-2.11,-1.78,-0.03,0.39
4.206490039825439,2,3,3,3,-9.65,1.67,-2.11,-1.78,-0.03,0.39
4.226490020751953,2,3,3,3,-9.359999999999999,1.44,-1.84,-1.62,0.21,0.34
4.226490020751953,2,3,3,3,-9.359999999999999,1.44,-1.84,-1.62,0.21,0.34
4.246490001678467,2,3,3,3,-9.300000000000001,1.3,-1.82,-1.52,0.2,0.5
4.246490001678467,2,3,3,3,-9.300000000000001,1.3,-1.82,-1.52,0.2,0.5
4.26648998260498,2,3,3,3,-9.380000000000001,1,-2.1,-0.64,0.22,0.66
4.26648998260498,2,3,3,3,-9.380000000000001,1,-2.1,-0.64,0.22,0.66
4.286489963531494,2,3,3,3,-9.5,1.32,-2,0.03,-0.12,0.83
4.286489963531494,2,3,3,3,-9.5,1.32,-2,0.03,-0.12,0.83
4.306489944458008,2,3,3,3,-9.41,1.32,-2.06,0.31,0.01,0.82
4.306489944458008,2,3,3,3,-9.41,1.32,-2.06,0.31,0.01,0.82
4.326489925384521,2,3,3,3,-9.19,1.37,-1.77,0.49,0.2,0.79
4.326489925384521,2,3,3,3,-9.19,1.37,-1.77,0.49,0.2,0.79
4.347490072250366,2,3,3,3,-9.130000000000001,1.34,-1.75,0.53,0.21,0.78
4.347490072250366,2,3,3,3,-9.130000000000001,1.34,-1.75,0.53,0.21,0.78
4.36749005317688,2,3,3,3,-9.34,1.32,-1.64,0.61,0.13,0.58
4.36749005317688,2,3,3,3,-9.34,1.32,-1.64,0.61,0.13,0.58
4.387490034103394,2,3,3,3,-9.73,1.75,-1.76,0.16,0.04,0.52
4.387490034103394,2,3,3,3,-9.73,1.75,-1.76,0.16,0.04,0.52
4.407490015029907,2,3,3,3,-10.15,1.54,-1.9,-0.89,0,0.37
4.407490015029907,2,3,3,3,-10.15,1.54,-1.9,-0.89,0,0.37
4.427489995956421,2,3,3,3,-9.58,1.66,-1.91,-1.18,0.38,0.03
4.427489995956421,2,3,3,3,-9.58,1.66,-1.91,-1.18,0.38,0.03
4.447489976882935,2,3,3,3,-9.220000000000001,1.33,-1.88,-0.93,0.37,0.04
4.447489976882935,2,3,3,3,-9.220000000000001,1.33,-1.88,-0.93,0.37,0.04
4.467489957809448,2,3,3,3,-9.33,0.16,-1.84,-0.19,0.04,-0.33
4.467489957809448,2,3,3,3,-9.33,0.16,-1.84,-0.19,0.04,-0.33
4.487489938735962,2,3,3,3,-9.31,-0.23,-1.28,0.4,0.33,-0.8100000000000001
4.487489938735962,2,3,3,3,-9.31,-0.23,-1.28,0.4,0.33,-0.8100000000000001
4.507489919662476,2,3,3,3,-9.68,-0.03,-0.76,0.6,0.02,-1.42
4.507489919662476,2,3,3,3,-9.68,-0.03,-0.76,0.6,0.02,-1.42
4.527489900588989,2,3,3,3,-10.47,2.15,-1.94,0.06,-0.11,-1.29
4.527489900588989,2,3,3,3,-10.47,2.15,-1.94,0.06,-0.11,-1.29
4.547489881515503,2,3,3,3,-9.779999999999999,1.42,-2.09,-0.58,-0.28,-1.04
4.547489881515503,2,3,3,3,-9.779999999999999,1.42,-2.09,-0.58,-0.28,-1.04
4.567490100860596,2,3,3,3,-9.17,2.08,-2.42,0.73,-0.15,-0.39
4.567490100860596,2,3,3,3,-9.17,2.08,-2.42,0.73,-0.15,-0.39
4.587490081787109,2,3,3,3,-9.029999999999999,1.74,-2,0.66,-0.58,-0.24
4.587490081787109,2,3,3,3,-9.029999999999999,1.74,-2,0.66,-0.58,-0.24
4.607490062713623,2,3,3,3,-9.15,0.05,-1.58,0.89,-0.62,-0.93
4.607490062713623,2,3,3,3,-9.15,0.05,-1.58,0.89,-0.62,-0.93
4.627490043640137,2,3,3,3,-9.32,-0.93,-1.18,0.4,-0.47,-2.24
4.627490043640137,2,3,3,3,-9.32,-0.93,-1.18,0.4,-0.47,-2.24
4.64749002456665,2,3,3,3,-9.52,-0.91,-0.48,0.2,-0.41,-3.07
4.64749002456665,2,3,3,3,-9.52,-0.91,-0.48,0.2,-0.41,-3.07
4.667490005493164,2,3,3,3,-9.35,-2.49,0.34,-0.55,-0.46,-4.1
4.667490005493164,2,3,3,3,-9.35,-2.49,0.34,-0.55,-0.46,-4.1
4.687489986419678,2,3,3,3,-9.970000000000001,-4.72,1.14,-0.32,-1.87,-5.94
4.687489986419678,2,3,3,3,-9.970000000000001,-4.72,1.14,-0.32,-1.87,-5.94
4.707489967346191,2,3,3,3,-9.470000000000001,-6.3,1.92,-1.02,-3.73,-8.289999999999999
4.707489967346191,2,3,3,3,-9.470000000000001,-6.3,1.92,-1.02,-3.73,-8.289999999999999
4.727489948272705,2,3,3,3,-9.02,-6.4,1.4,0.55,-3.72,-10.84
4.727489948272705,2,3,3,3,-9.02,-6.4,1.4,0.55,-3.72,-10.84
4.747489929199219,2,3,3,3,-7.82,-0.59,0.5600000000000001,2.53,-3.69,-10.99
4.747489929199219,2,3,3,3,-7.82,-0.59,0.5600000000000001,2.53,-3.69,-10.99
4.767489910125732,2,3,3,3,-7.64,1.3,-0.48,1.17,-5.95,-11.21
4.767489910125732,2,3,3,3,-7.64,1.3,-0.48,1.17,-5.95,-11.21
4.787489891052246,2,3,3,3,-7.54,4.48,-1.72,-2.9,-3.79,-11.89
4.787489891052246,2,3,3,3,-7.54,4.48,-1.72,-2.9,-3.79,-11.89
4.807490110397339,2,3,3,3,-8.58,2.91,-2.32,-8.16,-6.77,-12.33
4.807490110397339,2,3,3,3,-8.58,2.91,-2.32,-8.16,-6.77,-12.33
4.827490091323853,2,3,3,3,-8.300000000000001,-2.41,-0.08,-10.09,-4.79,-13.64
4.827490091323853,2,3,3,3,-8.300000000000001,-2.41,-0.08,-10.09,-4.79,-13.64
4.847490072250366,2,3,3,3,-10.01,-3.72,-1.31,-5.35,0.74,-14.82
4.847490072250366,2,3,3,3,-10.01,-3.72,-1.31,-5.35,0.74,-14.82
4.86749005317688,2,3,3,3,-9.59,-1.63,-1.33,-0.07000000000000001,-5.5,-14.68
4.86749005317688,2,3,3,3,-9.59,-1.63,-1.33,-0.07000000000000001,-5.5,-14.68
4.887490034103394,2,3,3,3,-10.86,-1.81,-0.6,2.29,-3.92,-14.49
4.887490034103394,2,3,3,3,-10.86,-1.81,-0.6,2.29,-3.92,-14.49
4.907490015029907,2,3,3,3,-11.42,-2.32,0.15,1.08,-4.19,-14.09
4.907490015029907,2,3,3,3,-11.42,-2.32,0.15,1.08,-4.19,-14.09
4.927489995956421,2,3,3,3,-11.52,0.24,-0.12,4.09,-2.45,-15.36
4.927489995956421,2,3,3,3,-11.52,0.24,-0.12,4.09,-2.45,-15.36
4.947489976882935,2,3,3,3,-10.37,3.04,-1.24,0.49,-1.07,-15.13
4.947489976882935,2,3,3,3,-10.37,3.04,-1.24,0.49,-1.07,-15.13
4.967489957809448,2,3,3,3,-9.109999999999999,1.86,-4.05,-4.34,-1.62,-13.47
4.967489957809448,2,3,3,3,-9.109999999999999,1.86,-4.05,-4.34,-1.62,-13.47
4.987489938735962,2,3,3,3,-9.42,-0.84,-4.67,-7.6,-0.9,-11.02
4.987489938735962,2,3,3,3,-9.42,-0.84,-4.67,-7.6,-0.9,-11.02
5.007489919662476,2,3,3,3,-10.66,0.8100000000000001,-5.17,-5.94,0.96,-7.1
5.007489919662476,2,3,3,3,-10.66,0.8100000000000001,-5.17,-5.94,0.96,-7.1
5.027489900588989,2,3,3,3,-11.96,1.61,-5.45,-4.42,2.27,-1.56
5.027489900588989,2,3,3,3,-11.96,1.61,-5.45,-4.42,2.27,-1.56
5.047489881515503,2,3,3,3,-15.34,-2.19,-5.78,-4.2,2.37,3.31
5.047489881515503,2,3,3,3,-15.34,-2.19,-5.78,-4.2,2.37,3.31
5.067490100860596,2,3,3,3,-18.42,-4.28,-4.76,-1.16,1.56,6.44
5.067490100860596,2,3,3,3,-18.42,-4.28,-4.76,-1.16,1.56,6.44
5.087490081787109,2,3,3,3,-20.18,1.08,-1.36,3.74,0.07000000000000001,9.48
5.087490081787109,2,3,3,3,-20.18,1.08,-1.36,3.74,0.07000000000000001,9.48
5.107490062713623,2,3,3,3,-18.65,5.51,0.49,2.82,-0.51,12.91
5.107490062713623,2,3,3,3,-18.65,5.51,0.49,2.82,-0.51,12.91
5.127490043640137,2,3,3,3,-18.91,8.75,-0.76,-5.08,-2.57,17.99
5.127490043640137,2,3,3,3,-18.91,8.75,-0.76,-5.08,-2.57,17.99
5.14749002456665,2,3,3,3,-22.55,7.65,-4.59,-12.95,-5.16,25.04
5.14749002456665,2,3,3,3,-22.55,7.65,-4.59,-12.95,-5.16,25.04
5.167490005493164,2,3,3,3,-29.97,4.46,-9.92,-11.4,-3.29,28.85
5.167490005493164,2,3,3,3,-29.97,4.46,-9.92,-11.4,-3.29,28.85
5.187489986419678,2,3,3,3,-29.41,0.63,-10.76,-2.94,5.03,27.87
5.187489986419678,2,3,3,3,-29.41,0.63,-10.76,-2.94,5.03,27.87
5.207489967346191,2,3,3,2,-24.69,-7.62,-4.59,7.46,8.630000000000001,27.37
5.207489967346191,2,3,3,2,-24.69,-7.62,-4.59,7.46,8.630000000000001,27.37
5.227489948272705,2,3,3,2,-16.84,-3.46,4.09,12.35,8.02,25.55
5.227489948272705,2,3,3,2,-16.84,-3.46,4.09,12.35,8.02,25.55
5.247489929199219,2,3,3,2,-2.43,-20.02,1.2,-11.79,3.03,22.02
5.247489929199219,2,3,3,2,-2.43,-20.02,1.2,-11.79,3.03,22.02
5.267489910125732,2,3,3,2,-2.9,-39.08,24.46,-1.87,-3.85,2.41
5.267489910125732,2,3,3,2,-2.9,-39.08,24.46,-1.87,-3.85,2.41
5.287489891052246,2,3,3,2,-6.45,-9.710000000000001,6.92,17.73,2.7,-2.94
5.287489891052246,2,3,3,2,-6.45,-9.710000000000001,6.92,17.73,2.7,-2.94
5.307490110397339,2,3,3,2,-4.06,8.890000000000001,1.75,1.69,1.39,-6.1
5.307490110397339,2,3,3,2,-4.06,8.890000000000001,1.75,1.69,1.39,-6.1
5.327490091323853,2,3,3,2,-0.78,4.3,-4.58,-12.99,-2.12,-9.16
5.327490091323853,2,3,3,2,-0.78,4.3,-4.58,-12.99,-2.12,-9.16
5.347490072250366,2,3,3,2,2.2,6.44,-7.81,-3.62,-4.07,-11.47
5.347490072250366,2,3,3,2,2.2,6.44,-7.81,-3.62,-4.07,-11.47
5.368489980697632,2,3,3,2,1.45,8.449999999999999,-4.42,3.17,-2.64,-8.300000000000001
5.368489980697632,2,3,3,2,1.45,8.449999999999999,-4.42,3.17,-2.64,-8.300000000000001
5.388489961624146,2,3,3,2,1.21,6.35,-3.1,-2.51,-4.34,-3.85
5.388489961624146,2,3,3,2,1.21,6.35,-3.1,-2.51,-4.34,-3.85
5.408489942550659,2,3,3,2,1.36,3.68,-3,-6.82,-3.82,-0.35
5.408489942550659,2,3,3,2,1.36,3.68,-3,-6.82,-3.82,-0.35
5.428489923477173,2,3,3,2,1.41,1.74,-1.09,-2.64,-3.8,-0.28
5.428489923477173,2,3,3,2,1.41,1.74,-1.09,-2.64,-3.8,-0.28
5.448489904403687,2,3,3,2,-0.04,-0.6,0.53,0.79,-3.3,-0.49
5.448489904403687,2,3,3,2,-0.04,-0.6,0.53,0.79,-3.3,-0.49
5.4684898853302,2,3,3,2,0.26,-0.91,0.62,3.55,-3.31,-0.38
5.4684898853302,2,3,3,2,0.26,-0.91,0.62,3.55,-3.31,-0.38
5.488490104675293,2,3,3,2,1.06,-2.37,0.43,8.140000000000001,-3.03,-1.09
5.488490104675293,2,3,3,2,1.06,-2.37,0.43,8.140000000000001,-3.03,-1.09
5.508490085601807,2,3,3,2,1.11,-3.55,-0.44,14.06,-0.23,-1.03
5.508490085601807,2,3,3,2,1.11,-3.55,-0.44,14.06,-0.23,-1.03
5.52849006652832,2,3,3,2,-1.28,-1.5,-1.8,16.7,3.4,0.82
5.52849006652832,2,3,3,2,-1.28,-1.5,-1.8,16.7,3.4,0.82
5.548490047454834,2,3,3,2,-0.6,1.92,-0.4,12.78,0.47,4.31
5.548490047454834,2,3,3,2,-0.6,1.92,-0.4,12.78,0.47,4.31
5.568490028381348,2,3,3,2,1.12,1.97,0.36,7.87,-0.37,4.53
5.568490028381348,2,3,3,2,1.12,1.97,0.36,7.87,-0.37,4.53
5.588490009307861,2,3,3,2,0.36,0.48,-0.83,0.36,3.93,0.5
5.588490009307861,2,3,3,2,0.36,0.48,-0.83,0.36,3.93,0.5
5.608489990234375,2,3,3,2,-0.14,2.19,2.04,-3.07,3.12,1.64
5.608489990234375,2,3,3,2,-0.14,2.19,2.04,-3.07,3.12,1.64
5.628489971160889,2,3,3,2,-5.44,-24.42,7.38,-13.64,1.38,-3.91
5.628489971160889,2,3,3,2,-5.44,-24.42,7.38,-13.64,1.38,-3.91
5.648489952087402,2,3,3,2,-14.43,5.82,-2.46,0.39,-6.01,1.73
5.648489952087402,2,3,3,2,-14.43,5.82,-2.46,0.39,-6.01,1.73
5.668489933013916,2,3,3,2,-37.23,-18.37,-5.1,-20.88,-7.84,-7.72
5.668489933013916,2,3,3,2,-37.23,-18.37,-5.1,-20.88,-7.84,-7.72
5.68848991394043,2,3,3,2,-14.22,-12.42,-5.92,-8.220000000000001,-0.16,-14.99
5.68848991394043,2,3,3,2,-14.22,-12.42,-5.92,-8.220000000000001,-0.16,-14.99
5.708489894866943,2,3,3,2,-21.32,5.8,-5.64,-2.3,-0.29,-15.74
5.708489894866943,2,3,3,2,-21.32,5.8,-5.64,-2.3,-0.29,-15.74
5.728489875793457,2,3,3,2,-26.5,4.95,-9.9,-1.53,-0.43,-7.88
5.728489875793457,2,3,3,2,-26.5,4.95,-9.9,-1.53,-0.43,-7.88
5.74849009513855,2,3,3,3,-27.06,6.91,-3.71,7.7,0.65,-7.27
5.74849009513855,2,3,3,3,-27.06,6.91,-3.71,7.7,0.65,-7.27
5.768490076065063,2,3,3,3,-18.39,9.539999999999999,-0.31,9.5,2.33,-3.75
5.768490076065063,2,3,3,3,-18.39,9.539999999999999,-0.31,9.5,2.33,-3.75
5.788490056991577,2,3,3,3,-17.01,8.75,1.94,1.79,1.61,-0.31
5.788490056991577,2,3,3,3,-17.01,8.75,1.94,1.79,1.61,-0.31
5.808490037918091,2,3,3,3,-16.1,5.9,0.47,-3.66,-0.52,0.36
5.808490037918091,2,3,3,3,-16.1,5.9,0.47,-3.66,-0.52,0.36
5.828490018844604,2,3,3,3,-14.17,2.79,-1.89,-2.65,-1.02,2.62
5.828490018844604,2,3,3,3,-14.17,2.79,-1.89,-2.65,-1.02,2.62
5.848489999771118,2,3,3,3,-14.24,2.67,-2.86,0.5600000000000001,-0.91,6
5.848489999771118,2,3,3,3,-14.24,2.67,-2.86,0.5600000000000001,-0.91,6
5.868489980697632,2,3,3,3,-12.64,0.48,-3.76,3.17,-0.25,8.35
5.868489980697632,2,3,3,3,-12.64,0.48,-3.76,3.17,-0.25,8.35
5.888489961624146,2,3,3,3,-11.77,0.49,-3.48,5.74,0.63,9.33
5.888489961624146,2,3,3,3,-11.77,0.49,-3.48,5.74,0.63,9.33
5.908489942550659,2,3,3,3,-9.640000000000001,1.72,-2.4,4.92,2.03,9.31
5.908489942550659,2,3,3,3,-9.640000000000001,1.72,-2.4,4.92,2.03,9.31
5.928489923477173,2,3,3,3,-8.49,1.41,-1.89,1.27,3.36,7.62
5.928489923477173,2,3,3,3,-8.49,1.41,-1.89,1.27,3.36,7.62
5.948489904403687,2,3,3,3,-7.39,0.44,-1.31,-1.61,4.04,6.26
5.948489904403687,2,3,3,3,-7.39,0.44,-1.31,-1.61,4.04,6.26
5.9684898853302,2,3,3,3,-6.71,-0.15,-1.09,-3.3,4.38,5.9
5.9684898853302,2,3,3,3,-6.71,-0.15,-1.09,-3.3,4.38,5.9
5.988490104675293,2,3,3,3,-6.26,-0.53,0.03,-3.53,3.74,6.16
5.988490104675293,2,3,3,3,-6.26,-0.53,0.03,-3.53,3.74,6.16
6.008490085601807,2,3,3,3,-6.11,-0.75,0.64,-3.21,3.31,5.95
6.008490085601807,2,3,3,3,-6.11,-0.75,0.64,-3.21,3.31,5.95
6.02849006652832,2,3,3,3,-6.38,-0.71,0.47,-3.08,2.89,5.13
6.02849006652832,2,3,3,3,-6.38,-0.71,0.47,-3.08,2.89,5.13
6.050489902496338,2,3,3,3,-6.9,-0.85,0.53,-3.83,1.6,4.15
6.050489902496338,2,3,3,3,-6.9,-0.85,0.53,-3.83,1.6,4.15
6.068490028381348,2,3,3,3,-8.66,-2.43,0.17,-3.14,0.79,2.85
6.068490028381348,2,3,3,3,-8.66,-2.43,0.17,-3.14,0.79,2.85
6.088490009307861,2,3,3,3,-9.48,-3.43,-0.5,-0.78,0.93,1.36
6.088490009307861,2,3,3,3,-9.48,-3.43,-0.5,-0.78,0.93,1.36
6.108489990234375,2,3,3,3,-9.619999999999999,-1.84,-1.36,2.47,1.84,1.14
6.108489990234375,2,3,3,3,-9.619999999999999,-1.84,-1.36,2.47,1.84,1.14
6.128489971160889,2,3,3,3,-10.05,-0.98,-2.27,2.69,0.98,0.75
6.128489971160889,2,3,3,3,-10.05,-0.98,-2.27,2.69,0.98,0.75
6.148489952087402,2,3,3,3,-10.95,-0.37,-1.85,2.31,0.26,0.58
6.148489952087402,2,3,3,3,-10.95,-0.37,-1.85,2.31,0.26,0.58
6.168489933013916,2,3,3,3,-11.73,0.47,-1.86,2.24,0.13,0.1
6.168489933013916,2,3,3,3,-11.73,0.47,-1.86,2.24,0.13,0.1
6.18848991394043,2,3,3,3,-10.67,3.2,-1.3,2.68,0.39,0.77
6.18848991394043,2,3,3,3,-10.67,3.2,-1.3,2.68,0.39,0.77
6.208489894866943,2,3,3,3,-10.28,4.26,-1.44,2.03,0.72,1.22
6.208489894866943,2,3,3,3,-10.28,4.26,-1.44,2.03,0.72,1.22
6.228489875793457,2,3,3,3,-9.949999999999999,4.3,-1.72,-2.02,0.96,2.09
6.228489875793457,2,3,3,3,-9.949999999999999,4.3,-1.72,-2.02,0.96,2.09
6.24849009513855,2,3,3,3,-9.31,2.78,-1.96,-4.9,0.61,1.66
6.24849009513855,2,3,3,3,-9.31,2.78,-1.96,-4.9,0.61,1.66
6.268490076065063,2,3,3,3,-8.699999999999999,0.5,-1.72,-5.67,0.51,1.4
6.268490076065063,2,3,3,3,-8.699999999999999,0.5,-1.72,-5.67,0.51,1.4
6.288490056991577,2,3,3,3,-8.609999999999999,-1.16,-1.23,-5.46,0.02,1.14
6.288490056991577,2,3,3,3,-8.609999999999999,-1.16,-1.23,-5.46,0.02,1.14
6.308490037918091,2,3,3,3,-8.75,-2.06,-1.1,-3.77,0,0.84
6.308490037918091,2,3,3,3,-8.75,-2.06,-1.1,-3.77,0,0.84
6.328490018844604,2,3,3,3,-9.18,-0.75,-0.96,-0.76,0.5,0.75
6.328490018844604,2,3,3,3,-9.18,-0.75,-0.96,-0.76,0.5,0.75
6.348489999771118,2,3,3,3,-9.289999999999999,-0.13,-1.34,3.58,1.21,0.96
6.348489999771118,2,3,3,3,-9.289999999999999,-0.13,-1.34,3.58,1.21,0.96
6.368489980697632,2,3,3,3,-9.640000000000001,0.8100000000000001,-1.52,3.72,1.1,1.03
6.368489980697632,2,3,3,3,-9.640000000000001,0.8100000000000001,-1.52,3.72,1.1,1.03
6.389489889144897,2,3,3,3,-9.98,1.6,-1.92,4.15,0.32,1.19
6.389489889144897,2,3,3,3,-9.98,1.6,-1.92,4.15,0.32,1.19
6.40949010848999,2,3,3,3,-10.06,2.55,-1.87,3.43,0.5,1.05
6.40949010848999,2,3,3,3,-10.06,2.55,-1.87,3.43,0.5,1.05
6.429490089416504,2,3,3,3,-9.94,2.55,-2.03,2.68,0.79,1.09
6.429490089416504,2,3,3,3,-9.94,2.55,-2.03,2.68,0.79,1.09
6.449490070343018,2,3,3,3,-9.640000000000001,2.34,-1.92,0.88,0.92,1.37
6.449490070343018,2,3,3,3,-9.640000000000001,2.34,-1.92,0.88,0.92,1.37
6.469490051269531,2,3,3,3,-9.619999999999999,1.76,-1.7,0.34,0.85,1.45
6.469490051269531,2,3,3,3,-9.619999999999999,1.76,-1.7,0.34,0.85,1.45
6.489490032196045,2,3,3,3,-9.43,1.48,-1.49,-0.68,0.22,1.42
6.489490032196045,2,3,3,3,-9.43,1.48,-1.49,-0.68,0.22,1.42
6.509490013122559,2,3,3,3,-9.57,0.8100000000000001,-1.52,-1.18,0.53,1.64
6.509490013122559,2,3,3,3,-9.57,0.8100000000000001,-1.52,-1.18,0.53,1.64
6.529489994049072,2,3,3,3,-9.49,0.52,-1.46,-0.61,-0.03,1.66
6.529489994049072,2,3,3,3,-9.49,0.52,-1.46,-0.61,-0.03,1.66
6.549489974975586,2,3,3,3,-9.619999999999999,0.57,-1.45,0.42,0.08,1.39
6.549489974975586,2,3,3,3,-9.619999999999999,0.57,-1.45,0.42,0.08,1.39
6.5694899559021,2,3,3,3,-9.5,0.52,-1.42,2,-0.21,1.36
6.5694899559021,2,3,3,3,-9.5,0.52,-1.42,2,-0.21,1.36
6.589489936828613,2,3,3,3,-9.56,0.74,-1.17,2.33,-0.2,1.15
6.589489936828613,2,3,3,3,-9.56,0.74,-1.17,2.33,-0.2,1.15
6.609489917755127,2,3,3,3,-9.74,0.65,-1.12,2.98,-0.3,0.96
6.609489917755127,2,3,3,3,-9.74,0.65,-1.12,2.98,-0.3,0.96
6.629489898681641,2,3,3,3,-9.67,0.82,-1.09,2.37,-0.55,0.53
6.629489898681641,2,3,3,3,-9.67,0.82,-1.09,2.37,-0.55,0.53
6.649489879608154,2,3,3,3,-9.57,1.02,-1.25,1.31,-0.61,-0.02
6.649489879608154,2,3,3,3,-9.57,1.02,-1.25,1.31,-0.61,-0.02
6.669490098953247,2,3,3,3,-9.56,1.09,-1.61,0.03,-0.53,-0.59
6.669490098953247,2,3,3,3,-9.56,1.09,-1.61,0.03,-0.53,-0.59
6.689490079879761,2,3,3,3,-9.34,1.32,-1.33,-1.4,-0.4,-1.04
6.689490079879761,2,3,3,3,-9.34,1.32,-1.33,-1.4,-0.4,-1.04
6.709490060806274,2,3,3,3,-9.41,1.09,-1.21,-1.89,-0.61,-1.3
6.709490060806274,2,3,3,3,-9.41,1.09,-1.21,-1.89,-0.61,-1.3
6.729490041732788,2,3,3,3,-9.5,0.46,-1.11,-2.14,-0.91,-1.32
6.729490041732788,2,3,3,3,-9.5,0.46,-1.11,-2.14,-0.91,-1.32
6.749490022659302,2,3,3,3,-9.460000000000001,0.03,-0.9,-1.87,-1.19,-1.78
6.749490022659302,2,3,3,3,-9.460000000000001,0.03,-0.9,-1.87,-1.19,-1.78
6.769490003585815,2,3,3,3,-9.529999999999999,-0.23,-1.03,-1.86,-1.16,-2.64
6.769490003585815,2,3,3,3,-9.529999999999999,-0.23,-1.03,-1.86,-1.16,-2.64
6.789489984512329,2,3,3,3,-9.48,-0.67,-0.53,-0.45,-1.41,-3.05
6.789489984512329,2,3,3,3,-9.48,-0.67,-0.53,-0.45,-1.41,-3.05
6.809489965438843,2,3,3,3,-8.83,-2.59,0.51,0.01,-2.19,-3.62
6.809489965438843,2,3,3,3,-8.83,-2.59,0.51,0.01,-2.19,-3.62
6.829489946365356,2,3,3,3,-8.73,-3.66,1.01,0.64,-3.4,-4.98
6.829489946365356,2,3,3,3,-8.73,-3.66,1.01,0.64,-3.4,-4.98
6.84948992729187,2,3,3,3,-9.210000000000001,-4.76,1.25,1.86,-4.64,-6.73
6.84948992729187,2,3,3,3,-9.210000000000001,-4.76,1.25,1.86,-4.64,-6.73
6.869489908218384,2,3,3,3,-9.84,-4.72,0.95,3.95,-4.67,-9.01
6.869489908218384,2,3,3,3,-9.84,-4.72,0.95,3.95,-4.67,-9.01
6.889489889144897,2,3,3,3,-9.529999999999999,-2.6,1.24,4.66,-5.61,-11.12
6.889489889144897,2,3,3,3,-9.529999999999999,-2.6,1.24,4.66,-5.61,-11.12
6.90949010848999,2,3,3,3,-8.31,-1.28,0.98,2.67,-6.6,-12.3
6.90949010848999,2,3,3,3,-8.31,-1.28,0.98,2.67,-6.6,-12.3
6.929490089416504,2,3,3,3,-9.51,-0.98,-0.32,0.54,-3.55,-13.64
6.929490089416504,2,3,3,3,-9.51,-0.98,-0.32,0.54,-3.55,-13.64
6.949490070343018,2,3,3,3,-12.09,-0.4,-0.45,0.67,-6.02,-16.81
6.949490070343018,2,3,3,3,-12.09,-0.4,-0.45,0.67,-6.02,-16.81
6.969490051269531,2,3,3,3,-10.51,5.75,-1.99,-2.13,-4.56,-18.72
6.969490051269531,2,3,3,3,-10.51,5.75,-1.99,-2.13,-4.56,-18.72
6.989490032196045,2,3,3,3,-8.5,7.44,-2.86,-0.74,0.18,-17.43
6.989490032196045,2,3,3,3,-8.5,7.44,-2.86,-0.74,0.18,-17.43
7.009490013122559,2,3,3,3,-7,0.41,0.05,-10.1,-2.7,-18.37
7.009490013122559,2,3,3,3,-7,0.41,0.05,-10.1,-2.7,-18.37
7.029489994049072,2,3,3,3,-9.380000000000001,-3.7,-0.73,-10.72,-1.24,-18.99
7.029489994049072,2,3,3,3,-9.380000000000001,-3.7,-0.73,-10.72,-1.24,-18.99
7.049489974975586,2,3,3,3,-9.199999999999999,0.02,-2.34,-0.02,-1.64,-15.22
7.049489974975586,2,3,3,3,-9.199999999999999,0.02,-2.34,-0.02,-1.64,-15.22
7.0694899559021,2,3,3,3,-11.73,1.76,-5.06,2,-3.49,-10.71
7.0694899559021,2,3,3,3,-11.73,1.76,-5.06,2,-3.49,-10.71
7.089489936828613,2,3,3,3,-13.2,3.68,-6.11,1.04,-1.18,-6.91
7.089489936828613,2,3,3,3,-13.2,3.68,-6.11,1.04,-1.18,-6.91
7.109489917755127,2,3,3,3,-11.95,1.5,-6.29,-1.58,0.85,-4.09
7.109489917755127,2,3,3,3,-11.95,1.5,-6.29,-1.58,0.85,-4.09
7.129489898681641,2,3,3,3,-14.07,0.48,-5.75,-2.41,2.89,-0.9
7.129489898681641,2,3,3,3,-14.07,0.48,-5.75,-2.41,2.89,-0.9
7.149489879608154,2,3,3,3,-19.28,-0.28,-4.21,-2.64,2.99,3.26
7.149489879608154,2,3,3,3,-19.28,-0.28,-4.21,-2.64,2.99,3.26
7.170490026473999,2,3,3,3,-21.62,1.91,-2,-0.55,2.49,6.13
7.170490026473999,2,3,3,3,-21.62,1.91,-2,-0.55,2.49,6.13
7.189490079879761,2,3,3,3,-20.46,7.04,3.26,0.76,2.32,9.1
7.189490079879761,2,3,3,3,-20.46,7.04,3.26,0.76,2.32,9.1
7.209490060806274,2,3,3,2,-19.9,9.85,3.35,-1.29,0.54,13.84
7.209490060806274,2,3,3,2,-19.9,9.85,3.35,-1.29,0.54,13.84
7.23048996925354,2,3,3,2,-24.63,7.53,-2.45,-10.02,-2.74,19.68
7.23048996925354,2,3,3,2,-24.63,7.53,-2.45,-10.02,-2.74,19.68
7.249490022659302,2,3,3,2,-30.86,3.44,-6.68,-15.81,-5.69,25.93
7.249490022659302,2,3,3,2,-30.86,3.44,-6.68,-15.81,-5.69,25.93
7.269490003585815,2,3,3,2,-27.13,-6.5,-6.57,-10.45,0.66,24.94
7.269490003585815,2,3,3,2,-27.13,-6.5,-6.57,-10.45,0.66,24.94
7.290489912033081,2,3,3,2,-19.68,-11.06,-5.11,-1.12,7.27,22.72
7.290489912033081,2,3,3,2,-19.68,-11.06,-5.11,-1.12,7.27,22.72
7.309489965438843,2,3,3,2,-9.85,-2.46,-2.59,8.6,12.04,19.31
7.309489965438843,2,3,3,2,-9.85,-2.46,-2.59,8.6,12.04,19.31
7.329489946365356,2,3,3,2,-2.98,-13.08,0.06,-10.73,6.12,17.51
7.329489946365356,2,3,3,2,-2.98,-13.08,0.06,-10.73,6.12,17.51
7.350490093231201,2,3,3,2,-1.06,-35.75,17.95,-1.66,-1.78,9.52
7.350490093231201,2,3,3,2,-1.06,-35.75,17.95,-1.66,-1.78,9.52
7.369489908218384,2,3,3,2,-3.65,-14.4,8.81,6.98,0.78,-1.94
7.369489908218384,2,3,3,2,-3.65,-14.4,8.81,6.98,0.78,-1.94
7.389489889144897,2,3,3,2,-3.68,8.66,1.77,3.47,0.13,-2.39
7.389489889144897,2,3,3,2,-3.68,8.66,1.77,3.47,0.13,-2.39
7.410490036010742,2,3,3,2,-1.22,1.14,-1.04,-14.27,1.19,-7.36
7.410490036010742,2,3,3,2,-1.22,1.14,-1.04,-14.27,1.19,-7.36
7.430490016937256,2,3,3,2,1.39,-0.44,-5.28,-9.210000000000001,-4.04,-13.19
7.430490016937256,2,3,3,2,1.39,-0.44,-5.28,-9.210000000000001,-4.04,-13.19
7.45048999786377,2,3,3,2,1.03,2.1,-3.76,1.89,-6.19,-12.24
7.45048999786377,2,3,3,2,1.03,2.1,-3.76,1.89,-6.19,-12.24
7.470489978790283,2,3,3,2,1.12,6.33,-2.08,4.78,-3.47,-7.06
7.470489978790283,2,3,3,2,1.12,6.33,-2.08,4.78,-3.47,-7.06
7.490489959716797,2,3,3,2,0.58,3.16,-2.35,1.02,-1.76,-4.46
7.490489959716797,2,3,3,2,0.58,3.16,-2.35,1.02,-1.76,-4.46
7.510489940643311,2,3,3,2,0.77,0.7,-1.76,-5.25,-3.9,-3.84
7.510489940643311,2,3,3,2,0.77,0.7,-1.76,-5.25,-3.9,-3.84
7.530489921569824,2,3,3,2,0.62,0.62,-0.6,2.72,-3.42,-2.92
7.530489921569824,2,3,3,2,0.62,0.62,-0.6,2.72,-3.42,-2.92
7.550489902496338,2,3,3,2,0.34,0.77,-0.33,8.73,-1.91,-1.08
7.550489902496338,2,3,3,2,0.34,0.77,-0.33,8.73,-1.91,-1.08
7.570489883422852,2,3,3,2,0.85,0.68,-0.6,13.22,-1.43,0.21
7.570489883422852,2,3,3,2,0.85,0.68,-0.6,13.22,-1.43,0.21
7.590490102767944,2,3,3,2,1.05,0.6,0.07000000000000001,14.79,-2.49,0.73
7.590490102767944,2,3,3,2,1.05,0.6,0.07000000000000001,14.79,-2.49,0.73
7.610490083694458,2,3,3,2,0.66,0.64,-0.12,12.59,-1.77,1.91
7.610490083694458,2,3,3,2,0.66,0.64,-0.12,12.59,-1.77,1.91
7.630490064620972,2,3,3,2,0.88,0.2,-0.75,9.550000000000001,-1.04,2.92
7.630490064620972,2,3,3,2,0.88,0.2,-0.75,9.550000000000001,-1.04,2.92
7.650490045547485,2,3,3,2,0.45,-0.7,-0.13,7.03,0.31,2.75
7.650490045547485,2,3,3,2,0.45,-0.7,-0.13,7.03,0.31,2.75
7.670490026473999,2,3,3,2,-0.31,-2.53,0.27,8.279999999999999,2.2,1.86
7.670490026473999,2,3,3,2,-0.31,-2.53,0.27,8.279999999999999,2.2,1.86
7.690490007400513,2,3,3,2,-2.95,-9.789999999999999,4.56,5.72,5.75,0.42
7.690490007400513,2,3,3,2,-2.95,-9.789999999999999,4.56,5.72,5.75,0.42
7.710489988327026,2,3,3,2,-12.86,-3.51,10.67,-7.78,12.68,-5.6
7.710489988327026,2,3,3,2,-12.86,-3.51,10.67,-7.78,12.68,-5.6
7.73048996925354,2,3,3,2,-26.55,11.73,-2.02,-10.49,-15.55,-1.41
7.73048996925354,2,3,3,2,-26.55,11.73,-2.02,-10.49,-15.55,-1.41
7.750489950180054,2,3,3,2,-38.22,-12.01,-3.41,-20.23,-6.38,-6.59
7.750489950180054,2,3,3,2,-38.22,-12.01,-3.41,-20.23,-6.38,-6.59
7.770489931106567,2,3,3,2,-14.62,2.54,-7.22,-11.24,4.66,-15.16
7.770489931106567,2,3,3,2,-14.62,2.54,-7.22,-11.24,4.66,-15.16
7.790489912033081,2,3,3,2,-32.3,-13.36,-7.23,-7.09,2.57,-15.69
7.790489912033081,2,3,3,2,-32.3,-13.36,-7.23,-7.09,2.57,-15.69
7.810489892959595,2,3,3,2,-25.74,17.2,0.66,5.19,-1.69,-10.22
7.810489892959595,2,3,3,2,-25.74,17.2,0.66,5.19,-1.69,-10.22
7.830490112304688,2,3,3,2,-11.34,29.5,-1.01,22.71,3.81,-9.48
7.830490112304688,2,3,3,2,-11.34,29.5,-1.01,22.71,3.81,-9.48
7.850490093231201,2,3,3,2,-18.51,5.32,-1.42,-7.43,2,-2.08
7.850490093231201,2,3,3,2,-18.51,5.32,-1.42,-7.43,2,-2.08
7.870490074157715,2,3,3,2,-17.95,0.66,-3.68,-16.79,-2.03,2.53
7.870490074157715,2,3,3,2,-17.95,0.66,-3.68,-16.79,-2.03,2.53
7.890490055084229,2,3,3,2,-15,0.72,-3.95,-5.14,-1.66,3.8
7.890490055084229,2,3,3,2,-15,0.72,-3.95,-5.14,-1.66,3.8
7.910490036010742,2,3,3,2,-12.24,0.76,-4.06,3.82,-0.58,6.72
7.910490036010742,2,3,3,2,-12.24,0.76,-4.06,3.82,-0.58,6.72
7.930490016937256,2,3,3,2,-10.72,-0.3,-2.9,6.13,1.14,8.6
7.930490016937256,2,3,3,2,-10.72,-0.3,-2.9,6.13,1.14,8.6
7.95048999786377,2,3,3,2,-9.58,-0.25,-1.82,7.78,2.64,10.44
7.95048999786377,2,3,3,2,-9.58,-0.25,-1.82,7.78,2.64,10.44
7.970489978790283,2,3,3,2,-7.33,1.71,-1.44,8.15,4.15,11.58
7.970489978790283,2,3,3,2,-7.33,1.71,-1.44,8.15,4.15,11.58
7.990489959716797,2,3,3,2,-6.48,2.1,-1.59,4.26,5.19,10.63
7.990489959716797,2,3,3,2,-6.48,2.1,-1.59,4.26,5.19,10.63
8.010489940643311,2,3,3,2,-6.06,0.55,-1.46,-1.32,6.08,7.38
8.010489940643311,2,3,3,2,-6.06,0.55,-1.46,-1.32,6.08,7.38
8.030489921569824,2,3,3,2,-6.6,-1.8,-0.78,-6.53,6.08,5.97
8.030489921569824,2,3,3,2,-6.6,-1.8,-0.78,-6.53,6.08,5.97
8.050489902496338,2,3,3,2,-7.63,-4.74,0.91,-7.32,4.79,5.69
8.050489902496338,2,3,3,2,-7.63,-4.74,0.91,-7.32,4.79,5.69
8.070489883422852,2,3,3,2,-8.4,-6.01,1.51,-3.04,2.38,4.28
8.070489883422852,2,3,3,2,-8.4,-6.01,1.51,-3.04,2.38,4.28
8.090490102767944,2,3,3,2,-9.24,-5.32,1.84,-0.87,2.36,3.43
8.090490102767944,2,3,3,2,-9.24,-5.32,1.84,-0.87,2.36,3.43
8.110490083694458,2,3,3,2,-10.03,-3.44,1.47,1.91,0.1,1.37
8.110490083694458,2,3,3,2,-10.03,-3.44,1.47,1.91,0.1,1.37
8.130490064620972,2,3,3,2,-9.73,-1.27,-0.24,0.39,0.08,-0.07000000000000001
8.130490064620972,2,3,3,2,-9.73,-1.27,-0.24,0.39,0.08,-0.07000000000000001
8.150490045547485,2,3,3,2,-8.94,-1.44,-1.14,-0.48,0.27,-0.84
8.150490045547485,2,3,3,2,-8.94,-1.44,-1.14,-0.48,0.27,-0.84
8.170490026473999,2,3,3,2,-9.32,-1.76,-2.69,-1.39,0.01,-0.92
8.170490026473999,2,3,3,2,-9.32,-1.76,-2.69,-1.39,0.01,-0.92
8.190490007400513,2,3,3,2,-9.57,-0.37,-3.81,-0.79,-0.62,-0.48
8.190490007400513,2,3,3,2,-9.57,-0.37,-3.81,-0.79,-0.62,-0.48
8.210489988327026,2,3,3,2,-10.45,3.08,-3.67,3.22,0.47,1.31
8.210489988327026,2,3,3,2,-10.45,3.08,-3.67,3.22,0.47,1.31
8.23048996925354,2,3,3,2,-10.65,3.59,-2.72,3.33,0.62,3.44
8.23048996925354,2,3,3,2,-10.65,3.59,-2.72,3.33,0.62,3.44
8.250489950180054,2,3,3,2,-10.05,3.19,-0.9399999999999999,2.9,0.73,4.26
8.250489950180054,2,3,3,2,-10.05,3.19,-0.9399999999999999,2.9,0.73,4.26
8.270489931106567,2,3,3,2,-9.49,2.55,-0.66,-0.03,0.74,4.46
8.270489931106567,2,3,3,2,-9.49,2.55,-0.66,-0.03,0.74,4.46
8.290489912033081,2,3,3,2,-9.279999999999999,-0.27,-0.45,-1.05,0.49,3.94
8.290489912033081,2,3,3,2,-9.279999999999999,-0.27,-0.45,-1.05,0.49,3.94
8.310489892959595,2,3,3,1,-9.199999999999999,-1.54,-0.38,0.45,0.49,2.86
8.310489892959595,2,3,3,1,-9.199999999999999,-1.54,-0.38,0.45,0.49,2.86
8.330490112304688,2,3,3,1,-9.31,-1.46,-0.85,2.42,0.74,2.82
8.330490112304688,2,3,3,1,-9.31,-1.46,-0.85,2.42,0.74,2.82
8.350490093231201,2,3,3,1,-9.41,-0.77,-0.88,3.44,0.65,2.91
8.350490093231201,2,3,3,1,-9.41,-0.77,-0.88,3.44,0.65,2.91
8.370490074157715,2,3,3,1,-9.880000000000001,-0.33,-1.06,4.24,-0.42,2.44
8.370490074157715,2,3,3,1,-9.880000000000001,-0.33,-1.06,4.24,-0.42,2.44
8.390490055084229,2,3,3,1,-10.02,0.54,-1.08,3.84,-0.57,2.04
8.390490055084229,2,3,3,1,-10.02,0.54,-1.08,3.84,-0.57,2.04
8.410490036010742,2,3,3,1,-9.800000000000001,1.81,-1.2,2.38,0.49,1.47
8.410490036010742,2,3,3,1,-9.800000000000001,1.81,-1.2,2.38,0.49,1.47
8.430490016937256,2,3,3,1,-9.550000000000001,1.85,-1.33,0.84,0.91,1.51
8.430490016937256,2,3,3,1,-9.550000000000001,1.85,-1.33,0.84,0.91,1.51
8.451489925384521,2,3,3,1,-9.58,1.28,-1.29,0.04,0.74,1.31
8.451489925384521,2,3,3,1,-9.58,1.28,-1.29,0.04,0.74,1.31
8.471489906311035,2,3,3,1,-9.380000000000001,0.95,-1.3,-2.25,0.06,0.4
8.471489906311035,2,3,3,1,-9.380000000000001,0.95,-1.3,-2.25,0.06,0.4
8.491489887237549,2,3,3,1,-9.48,0.78,-1.18,-2.05,0.01,0.19
8.491489887237549,2,3,3,1,-9.48,0.78,-1.18,-2.05,0.01,0.19
8.511490106582642,2,3,3,1,-9.73,0.76,-1.31,-2.46,-0.08,0.26
8.511490106582642,2,3,3,1,-9.73,0.76,-1.31,-2.46,-0.08,0.26
8.531490087509155,2,3,3,1,-9.85,0.71,-1.69,-1.82,-0.47,0.16
8.531490087509155,2,3,3,1,-9.85,0.71,-1.69,-1.82,-0.47,0.16
8.551490068435669,2,3,3,1,-9.51,0.43,-1.63,-1.36,-0.41,0.18
8.551490068435669,2,3,3,1,-9.51,0.43,-1.63,-1.36,-0.41,0.18
8.571490049362183,2,3,3,1,-9.44,0.85,-1.68,1.18,-0.21,0.44
8.571490049362183,2,3,3,1,-9.44,0.85,-1.68,1.18,-0.21,0.44
8.591490030288696,2,3,3,2,-9.619999999999999,1.54,-1.66,1.6,-0.2,0.57
8.591490030288696,2,3,3,2,-9.619999999999999,1.54,-1.66,1.6,-0.2,0.57
8.61149001121521,2,3,3,2,-9.77,1.78,-1.72,1.19,-0.17,0.68
8.61149001121521,2,3,3,2,-9.77,1.78,-1.72,1.19,-0.17,0.68
8.631489992141724,2,3,3,2,-9.59,2.19,-1.61,0.42,-0.33,0.85
8.631489992141724,2,3,3,2,-9.59,2.19,-1.61,0.42,-0.33,0.85
8.651489973068237,2,3,3,2,-9.449999999999999,1.92,-1.51,-0.33,-0.41,0.83
8.651489973068237,2,3,3,2,-9.449999999999999,1.92,-1.51,-0.33,-0.41,0.83
8.671489953994751,2,3,3,2,-9.460000000000001,1.1,-1.58,-2.22,-0.1,0.53
8.671489953994751,2,3,3,2,-9.460000000000001,1.1,-1.58,-2.22,-0.1,0.53
8.691489934921265,2,3,3,2,-9.49,0.51,-1.52,-2.1,0.1,0.42
8.691489934921265,2,3,3,2,-9.49,0.51,-1.52,-2.1,0.1,0.42
8.711489915847778,2,3,3,2,-9.52,0.16,-1.36,-0.99,-0.05,0.39
8.711489915847778,2,3,3,2,-9.52,0.16,-1.36,-0.99,-0.05,0.39
8.731489896774292,2,3,3,2,-9.550000000000001,0.14,-1.41,0.27,-0.45,0.37
8.731489896774292,2,3,3,2,-9.550000000000001,0.14,-1.41,0.27,-0.45,0.37
8.751489877700806,2,3,3,2,-9.619999999999999,0.14,-1.25,0.75,-0.58,0.26
8.751489877700806,2,3,3,2,-9.619999999999999,0.14,-1.25,0.75,-0.58,0.26
8.771490097045898,2,3,3,2,-9.57,0.52,-1.35,1.41,-0.16,-0.11
8.771490097045898,2,3,3,2,-9.57,0.52,-1.35,1.41,-0.16,-0.11
8.791490077972412,2,3,3,2,-9.56,0.88,-1.22,1.22,-0.01,-0.23
8.791490077972412,2,3,3,2,-9.56,0.88,-1.22,1.22,-0.01,-0.23
8.811490058898926,2,3,3,2,-9.49,0.51,-1.43,0.29,0.03,-0.97
8.811490058898926,2,3,3,2,-9.49,0.51,-1.43,0.29,0.03,-0.97
8.831490039825439,2,3,3,2,-8.92,-0.2,-0.43,-0.03,-0.1,-1.65
8.831490039825439,2,3,3,2,-8.92,-0.2,-0.43,-0.03,-0.1,-1.65
8.851490020751953,2,3,3,2,-8.76,-1.57,0.17,-0.24,-0.42,-2.24
8.851490020751953,2,3,3,2,-8.76,-1.57,0.17,-0.24,-0.42,-2.24
8.871490001678467,2,3,3,2,-8.880000000000001,-3.83,0.89,-0.64,-2,-4.94
8.871490001678467,2,3,3,2,-8.880000000000001,-3.83,0.89,-0.64,-2,-4.94
8.89148998260498,2,3,3,2,-8.94,-4.42,1.12,-1.14,-2.18,-5.72
8.89148998260498,2,3,3,2,-8.94,-4.42,1.12,-1.14,-2.18,-5.72
8.911489963531494,2,3,3,2,-9.02,-4.92,1.42,2.63,-3.96,-7.21
8.911489963531494,2,3,3,2,-9.02,-4.92,1.42,2.63,-3.96,-7.21
8.931489944458008,2,3,3,2,-8.449999999999999,-4.99,0.68,4.52,-5.21,-9.289999999999999
8.931489944458008,2,3,3,2,-8.449999999999999,-4.99,0.68,4.52,-5.21,-9.289999999999999
8.951489925384521,2,3,3,2,-7.49,-1.34,-0.55,5.19,-4.88,-9.82
8.951489925384521,2,3,3,2,-7.49,-1.34,-0.55,5.19,-4.88,-9.82
8.971489906311035,2,3,3,2,-8.08,0.82,-1.12,4.65,-5.22,-10.25
8.971489906311035,2,3,3,2,-8.08,0.82,-1.12,4.65,-5.22,-10.25
8.991489887237549,2,3,3,2,-10.11,0.14,-0.71,2.94,-6.79,-10.81
8.991489887237549,2,3,3,2,-10.11,0.14,-0.71,2.94,-6.79,-10.81
9.011490106582642,2,3,3,2,-10.39,-0.24,-0.8100000000000001,-2.95,-3.91,-13.81
9.011490106582642,2,3,3,2,-10.39,-0.24,-0.8100000000000001,-2.95,-3.91,-13.81
9.031490087509155,2,3,3,2,-10,1.24,-1.96,-0.05,-2.25,-15.58
9.031490087509155,2,3,3,2,-10,1.24,-1.96,-0.05,-2.25,-15.58
9.051490068435669,2,3,3,2,-9.69,1.13,-0.13,0.6,-2.82,-16.13
9.051490068435669,2,3,3,2,-9.69,1.13,-0.13,0.6,-2.82,-16.13
9.071490049362183,2,3,3,2,-9.67,1.53,-1.43,-2.06,-0.28,-15.84
9.071490049362183,2,3,3,2,-9.67,1.53,-1.43,-2.06,-0.28,-15.84
9.091490030288696,2,3,3,2,-9.710000000000001,0.37,-0.77,-4.2,-0.48,-16.51
9.091490030288696,2,3,3,2,-9.710000000000001,0.37,-0.77,-4.2,-0.48,-16.51
9.11149001121521,2,3,3,2,-9.93,-0.91,-1.31,-4.6,-0.88,-16.9
9.11149001121521,2,3,3,2,-9.93,-0.91,-1.31,-4.6,-0.88,-16.9
9.131489992141724,2,3,3,2,-12.2,0.03,-3.98,-2.35,-1.79,-14.45
9.131489992141724,2,3,3,2,-12.2,0.03,-3.98,-2.35,-1.79,-14.45
9.151489973068237,2,3,3,2,-12.11,1.03,-4.89,-0.04,-0.36,-12.61
9.151489973068237,2,3,3,2,-12.11,1.03,-4.89,-0.04,-0.36,-12.61
9.171489953994751,2,3,3,2,-11.45,3.4,-4.48,4.42,1.41,-5.79
9.171489953994751,2,3,3,2,-11.45,3.4,-4.48,4.42,1.41,-5.79
9.191489934921265,2,3,3,2,-12.34,2.62,-4.21,3.39,1.6,-2.63
9.191489934921265,2,3,3,2,-12.34,2.62,-4.21,3.39,1.6,-2.63
9.211489915847778,2,3,3,2,-18.43,-1.39,-2.66,-2.77,2.28,2.27
9.211489915847778,2,3,3,2,-18.43,-1.39,-2.66,-2.77,2.28,2.27
9.231489896774292,2,3,3,2,-19.85,0.18,-1.43,-3.42,2.16,3.38
9.231489896774292,2,3,3,2,-19.85,0.18,-1.43,-3.42,2.16,3.38
9.251489877700806,2,3,3,2,-19.29,3.05,-0.33,-3.67,1.91,4.16
9.251489877700806,2,3,3,2,-19.29,3.05,-0.33,-3.67,1.91,4.16
9.271490097045898,2,3,3,2,-17.1,5.42,-0.46,-6.07,-0.31,10.21
9.271490097045898,2,3,3,2,-17.1,5.42,-0.46,-6.07,-0.31,10.21
9.291490077972412,2,3,3,2,-17.98,5.9,-2.18,-7.28,-1.88,12.98
9.291490077972412,2,3,3,2,-17.98,5.9,-2.18,-7.28,-1.88,12.98
9.311490058898926,2,3,3,2,-22.86,6.61,-5.52,-8.960000000000001,-5.49,22.64
9.311490058898926,2,3,3,2,-22.86,6.61,-5.52,-8.960000000000001,-5.49,22.64
9.331490039825439,2,3,3,2,-26.06,7.06,-9.880000000000001,-6.43,-1.79,26.69
9.331490039825439,2,3,3,2,-26.06,7.06,-9.880000000000001,-6.43,-1.79,26.69
9.351490020751953,2,3,3,2,-25.85,5.1,-10.15,-5.98,1.86,27.38
9.351490020751953,2,3,3,2,-25.85,5.1,-10.15,-5.98,1.86,27.38
9.371490001678467,2,3,3,2,-22.41,-6.99,-5.68,1.87,10.67,28.07
9.371490001678467,2,3,3,2,-22.41,-6.99,-5.68,1.87,10.67,28.07
9.39148998260498,2,3,3,2,-17.41,-4.99,-3.26,5.68,10.94,27.24
9.39148998260498,2,3,3,2,-17.41,-4.99,-3.26,5.68,10.94,27.24
9.411489963531494,2,3,3,2,-2.62,-23.09,4.57,-12.66,5.43,24.64
9.411489963531494,2,3,3,2,-2.62,-23.09,4.57,-12.66,5.43,24.64
9.431489944458008,2,3,3,2,-4.31,-39.08,24.04,-5.09,0.57,10.51
9.431489944458008,2,3,3,2,-4.31,-39.08,24.04,-5.09,0.57,10.51
9.451489925384521,2,3,3,2,-4.92,-19.57,11.45,4.93,1.99,3.49
9.451489925384521,2,3,3,2,-4.92,-19.57,11.45,4.93,1.99,3.49
9.472490072250366,2,3,3,2,-5.73,11.43,0.86,-3.58,2.86,-7.4
9.472490072250366,2,3,3,2,-5.73,11.43,0.86,-3.58,2.86,-7.4
9.49249005317688,2,3,3,2,-3.58,2.16,-0.63,-12.18,1.3,-8.720000000000001
9.49249005317688,2,3,3,2,-3.58,2.16,-0.63,-12.18,1.3,-8.720000000000001
9.512490034103394,2,3,3,2,5.15,-1.83,-5.5,-7.16,-8.279999999999999,-13.28
9.512490034103394,2,3,3,2,5.15,-1.83,-5.5,-7.16,-8.279999999999999,-13.28
9.532490015029907,2,3,3,2,0.88,4.86,-1.2,4.61,-3.23,-8.289999999999999
9.532490015029907,2,3,3,2,0.88,4.86,-1.2,4.61,-3.23,-8.289999999999999
9.552489995956421,2,3,3,2,0.6899999999999999,5.18,-0.4,9.26,-4.07,-5.71
9.552489995956421,2,3,3,2,0.6899999999999999,5.18,-0.4,9.26,-4.07,-5.71
9.572489976882935,2,3,3,2,1.14,3.07,-3.23,-1.06,-4.12,-2.59
9.572489976882935,2,3,3,2,1.14,3.07,-3.23,-1.06,-4.12,-2.59
9.592489957809448,2,3,3,2,1.03,2.6,-2.97,-2.67,-3.94,-2.89
9.592489957809448,2,3,3,2,1.03,2.6,-2.97,-2.67,-3.94,-2.89
9.612489938735962,2,3,3,2,0.07000000000000001,0.82,-0.86,-2.2,-3.7,-3.29
9.612489938735962,2,3,3,2,0.07000000000000001,0.82,-0.86,-2.2,-3.7,-3.29
9.632489919662476,2,3,3,2,0.46,-1.04,-0.59,2.42,-2.34,-3.25
9.632489919662476,2,3,3,2,0.46,-1.04,-0.59,2.42,-2.34,-3.25
9.652489900588989,2,3,3,2,0.76,-1.21,-0.61,9.720000000000001,-1.61,-2.78
9.652489900588989,2,3,3,2,0.76,-1.21,-0.61,9.720000000000001,-1.61,-2.78
9.672489881515503,2,3,3,2,0.49,0.25,-1.46,14.91,-0.9,-0.99
9.672489881515503,2,3,3,2,0.49,0.25,-1.46,14.91,-0.9,-0.99
9.692490100860596,2,3,3,2,0.17,0.97,-1.31,16.88,-1.16,1.27
9.692490100860596,2,3,3,2,0.17,0.97,-1.31,16.88,-1.16,1.27
9.712490081787109,2,3,3,2,0.11,2.83,-0.48,15.02,-1.31,2.44
9.712490081787109,2,3,3,2,0.11,2.83,-0.48,15.02,-1.31,2.44
9.732490062713623,2,3,3,2,-0.03,1.89,0.14,10.27,-1.53,1.58
9.732490062713623,2,3,3,2,-0.03,1.89,0.14,10.27,-1.53,1.58
9.752490043640137,2,3,3,2,-0.22,0.96,0.64,6.56,-0.27,0.06
9.752490043640137,2,3,3,2,-0.22,0.96,0.64,6.56,-0.27,0.06
9.77249002456665,2,3,3,2,-3.76,-14.78,10.44,1.46,0.67,-1.77
9.77249002456665,2,3,3,2,-3.76,-14.78,10.44,1.46,0.67,-1.77
9.792490005493164,2,3,3,2,-4.61,-27.8,9.699999999999999,-14.86,10.18,-9.5
9.792490005493164,2,3,3,2,-4.61,-27.8,9.699999999999999,-14.86,10.18,-9.5
9.812489986419678,2,3,3,2,-21.12,19.02,3.56,-2.7,-16.26,-0.72
9.812489986419678,2,3,3,2,-21.12,19.02,3.56,-2.7,-16.26,-0.72
9.832489967346191,2,3,3,2,-30.96,-3.25,-7.04,-19.3,3.05,-13.38
9.832489967346191,2,3,3,2,-30.96,-3.25,-7.04,-19.3,3.05,-13.38
9.852489948272705,2,3,3,2,-18.09,-2.51,-3.14,-16.39,-0.19,-16.45
9.852489948272705,2,3,3,2,-18.09,-2.51,-3.14,-16.39,-0.19,-16.45
9.872489929199219,2,3,3,2,-26.79,1.92,-7.7,-4.35,-0.78,-15.53
9.872489929199219,2,3,3,2,-26.79,1.92,-7.7,-4.35,-0.78,-15.53
9.892489910125732,2,3,3,2,-22.58,20.75,-7.61,8.66,0.15,-8.130000000000001
9.892489910125732,2,3,3,2,-22.58,20.75,-7.61,8.66,0.15,-8.130000000000001
9.912489891052246,2,3,3,2,-25.92,-2.86,-0.72,-3.5,3.75,-2.73
9.912489891052246,2,3,3,2,-25.92,-2.86,-0.72,-3.5,3.75,-2.73
9.932490110397339,2,3,3,2,-25.62,2.04,1.54,-1.08,0.68,-0.7
9.932490110397339,2,3,3,2,-25.62,2.04,1.54,-1.08,0.68,-0.7
9.952490091323853,2,3,3,3,-13.68,6.43,-0.14,3.98,2.19,1.19
9.952490091323853,2,3,3,3,-13.68,6.43,-0.14,3.98,2.19,1.19
9.972490072250366,2,3,3,3,-15.01,6,-1.14,2.5,0.57,2.88
9.972490072250366,2,3,3,3,-15.01,6,-1.14,2.5,0.57,2.88
9.99249005317688,2,3,3,3,-12.2,3.82,-2.86,1.03,-0.23,6.38
9.99249005317688,2,3,3,3,-12.2,3.82,-2.86,1.03,-0.23,6.38
10.01249003410339,2,3,3,3,-10.54,1.34,-3.3,3.05,1.22,8.9
10.01249003410339,2,3,3,3,-10.54,1.34,-3.3,3.05,1.22,8.9
10.03249001502991,2,3,3,3,-9.15,-0.01,-2.97,6.48,2.58,11.45
10.03249001502991,2,3,3,3,-9.15,-0.01,-2.97,6.48,2.58,11.45
10.05248999595642,2,3,3,3,-8.69,0.19,-1.75,6.91,3.76,11.71
10.05248999595642,2,3,3,3,-8.69,0.19,-1.75,6.91,3.76,11.71
10.07248997688293,2,3,3,3,-6.18,1.15,-2.01,3.98,5.46,8.710000000000001
10.07248997688293,2,3,3,3,-6.18,1.15,-2.01,3.98,5.46,8.710000000000001
10.09248995780945,2,3,3,2,-6.09,1.13,-2,0.36,6.16,7.03
10.09248995780945,2,3,3,2,-6.09,1.13,-2,0.36,6.16,7.03
10.11248993873596,2,3,3,2,-5.92,-1.23,-0.6,-3.45,4.71,7.31
10.11248993873596,2,3,3,2,-5.92,-1.23,-0.6,-3.45,4.71,7.31
10.13248991966248,2,3,3,2,-5.75,-1.05,0.24,-1.31,3.14,7.27
10.13248991966248,2,3,3,2,-5.75,-1.05,0.24,-1.31,3.14,7.27
10.15248990058899,2,3,3,2,-5.75,-0.19,0.8100000000000001,-0.58,3.07,7.21
10.15248990058899,2,3,3,2,-5.75,-0.19,0.8100000000000001,-0.58,3.07,7.21
10.1724898815155,2,3,3,2,-6.17,-0.28,0.27,0.9,3.25,6.54
10.1724898815155,2,3,3,2,-6.17,-0.28,0.27,0.9,3.25,6.54
10.1924901008606,2,3,3,2,-7.96,-1.1,-1.06,1.19,2.24,5.56
10.1924901008606,2,3,3,2,-7.96,-1.1,-1.06,1.19,2.24,5.56
10.21249008178711,2,3,3,2,-9.380000000000001,-1.43,-1.75,0.38,2.04,4.94
10.21249008178711,2,3,3,2,-9.380000000000001,-1.43,-1.75,0.38,2.04,4.94
10.23249006271362,2,3,3,2,-11.15,-1.89,-1.33,0.25,2.26,4.32
10.23249006271362,2,3,3,2,-11.15,-1.89,-1.33,0.25,2.26,4.32
10.25249004364014,2,3,3,2,-13.58,-2.25,-0.85,0.26,2.79,2.83
10.25249004364014,2,3,3,2,-13.58,-2.25,-0.85,0.26,2.79,2.83
10.27249002456665,2,3,3,2,-12.95,-1.74,-0.68,2.19,1.16,2.59
10.27249002456665,2,3,3,2,-12.95,-1.74,-0.68,2.19,1.16,2.59
10.29249000549316,2,3,3,2,-9.84,0.67,-1.6,3.05,0.54,3.06
10.29249000549316,2,3,3,2,-9.84,0.67,-1.6,3.05,0.54,3.06
10.31248998641968,2,3,3,2,-9.33,2.36,-2.53,3.2,1.47,3.21
10.31248998641968,2,3,3,2,-9.33,2.36,-2.53,3.2,1.47,3.21
10.33248996734619,2,3,3,2,-8.359999999999999,4,-1.34,1.43,1.94,3.21
10.33248996734619,2,3,3,2,-8.359999999999999,4,-1.34,1.43,1.94,3.21
10.35248994827271,2,3,3,2,-8.24,3.41,-0.98,-1.72,1.69,3.03
10.35248994827271,2,3,3,2,-8.24,3.41,-0.98,-1.72,1.69,3.03
10.37248992919922,2,3,3,2,-8.949999999999999,0.57,-1.79,-4.67,0.49,2.15
10.37248992919922,2,3,3,2,-8.949999999999999,0.57,-1.79,-4.67,0.49,2.15
10.39248991012573,2,3,3,2,-9.41,-0.89,-0.91,-3.29,1.49,1.08
10.39248991012573,2,3,3,2,-9.41,-0.89,-0.91,-3.29,1.49,1.08
10.41248989105225,2,3,3,2,-9.67,-1.72,-1.64,1.46,2.16,1.37
10.41248989105225,2,3,3,2,-9.67,-1.72,-1.64,1.46,2.16,1.37
10.43249011039734,2,3,3,2,-9.539999999999999,-0.3,-1.25,4.96,1.15,1.48
10.43249011039734,2,3,3,2,-9.539999999999999,-0.3,-1.25,4.96,1.15,1.48
10.45249009132385,2,3,3,2,-10.54,0.85,-1.83,6.01,0.68,1.41
10.45249009132385,2,3,3,2,-10.54,0.85,-1.83,6.01,0.68,1.41
10.47249007225037,2,3,3,2,-9.94,1.01,-2.05,4.87,0.6899999999999999,0.97
10.47249007225037,2,3,3,2,-9.94,1.01,-2.05,4.87,0.6899999999999999,0.97
10.49348998069763,2,3,3,2,-9.49,0.95,-2.18,3.38,0.63,0.61
10.49348998069763,2,3,3,2,-9.49,0.95,-2.18,3.38,0.63,0.61
10.51348996162415,2,3,3,2,-9.640000000000001,0.86,-1.96,2.65,0.51,-0.09
10.51348996162415,2,3,3,2,-9.640000000000001,0.86,-1.96,2.65,0.51,-0.09
10.53348994255066,2,3,3,2,-9.4,1.93,-1.63,2.05,0.63,-0.79
10.53348994255066,2,3,3,2,-9.4,1.93,-1.63,2.05,0.63,-0.79
10.55348992347717,2,3,3,2,-9.279999999999999,1.86,-1.6,-0.05,0.46,-1.07
10.55348992347717,2,3,3,2,-9.279999999999999,1.86,-1.6,-0.05,0.46,-1.07
10.57348990440369,2,3,3,2,-9.300000000000001,1.65,-2.02,-2.19,0.3,-1.63
10.57348990440369,2,3,3,2,-9.300000000000001,1.65,-2.02,-2.19,0.3,-1.63
10.5934898853302,2,3,3,2,-9.49,1.16,-2.39,-2.94,0.29,-1.74
10.5934898853302,2,3,3,2,-9.49,1.16,-2.39,-2.94,0.29,-1.74
10.61349010467529,2,3,3,2,-9.4,0.93,-2.62,-1.9,-0.24,-1.2
10.61349010467529,2,3,3,2,-9.4,0.93,-2.62,-1.9,-0.24,-1.2
10.63349008560181,2,3,3,2,-9.26,1.11,-2.59,0.06,-0.38,-0.46
10.63349008560181,2,3,3,2,-9.26,1.11,-2.59,0.06,-0.38,-0.46
10.65349006652832,2,3,3,2,-9.32,1.23,-2.19,2.1,-0.21,0.29
10.65349006652832,2,3,3,2,-9.32,1.23,-2.19,2.1,-0.21,0.29
10.67349004745483,2,3,3,2,-9.470000000000001,1.11,-2.03,3.14,-0.55,0.6899999999999999
10.67349004745483,2,3,3,2,-9.470000000000001,1.11,-2.03,3.14,-0.55,0.6899999999999999
10.69349002838135,2,3,3,2,-9.74,0.95,-1.74,3,-0.59,0.7
10.69349002838135,2,3,3,2,-9.74,0.95,-1.74,3,-0.59,0.7
10.71349000930786,2,3,3,2,-9.67,1.01,-1.93,2.3,-0.53,0.46
10.71349000930786,2,3,3,2,-9.67,1.01,-1.93,2.3,-0.53,0.46
10.73348999023438,2,3,3,2,-9.4,1.53,-2.13,1.36,-0.48,0.09
10.73348999023438,2,3,3,2,-9.4,1.53,-2.13,1.36,-0.48,0.09
10.75348997116089,2,3,3,3,-9.4,1.72,-2.16,0.24,-0.29,-0.1
10.75348997116089,2,3,3,3,-9.4,1.72,-2.16,0.24,-0.29,-0.1
10.7734899520874,2,3,3,3,-9.35,1.81,-2.26,-0.79,-0.31,-0.1
10.7734899520874,2,3,3,3,-9.35,1.81,-2.26,-0.79,-0.31,-0.1
10.79348993301392,2,3,3,3,-9.4,1.7,-2.13,-1.17,-0.1,-0.01
10.79348993301392,2,3,3,3,-9.4,1.7,-2.13,-1.17,-0.1,-0.01
10.81348991394043,2,3,3,3,-9.33,1.06,-2.24,-1.16,-0.44,0.3
10.81348991394043,2,3,3,3,-9.33,1.06,-2.24,-1.16,-0.44,0.3
10.83348989486694,2,3,3,3,-9.5,1.08,-2.07,-0.01,-0.32,0.57
10.83348989486694,2,3,3,3,-9.5,1.08,-2.07,-0.01,-0.32,0.57
10.85348987579346,2,3,3,3,-9.5,0.97,-1.9,1.07,-0.5,0.84
10.85348987579346,2,3,3,3,-9.5,0.97,-1.9,1.07,-0.5,0.84
10.87349009513855,2,3,3,3,-9.49,1.36,-2.12,1.88,-0.73,0.95
10.87349009513855,2,3,3,3,-9.49,1.36,-2.12,1.88,-0.73,0.95
10.89349007606506,2,3,3,3,-9.52,1.5,-2.04,1.85,-0.63,0.86
10.89349007606506,2,3,3,3,-9.52,1.5,-2.04,1.85,-0.63,0.86
10.91349005699158,2,3,3,3,-9.48,1.83,-2.12,1.05,-0.75,0.71
10.91349005699158,2,3,3,3,-9.48,1.83,-2.12,1.05,-0.75,0.71
10.93349003791809,2,3,3,3,-9.41,1.78,-1.94,-0.15,-0.57,0.55
10.93349003791809,2,3,3,3,-9.41,1.78,-1.94,-0.15,-0.57,0.55
10.9534900188446,2,3,3,3,-9.42,1.66,-2.05,-1.13,-0.63,0.32
10.9534900188446,2,3,3,3,-9.42,1.66,-2.05,-1.13,-0.63,0.32
10.97348999977112,2,3,3,3,-9.5,1.61,-1.88,-1.62,-0.45,0.19
10.97348999977112,2,3,3,3,-9.5,1.61,-1.88,-1.62,-0.45,0.19
10.99348998069763,2,3,3,3,-9.4,1.44,-1.89,-1.53,-0.41,0.29
10.99348998069763,2,3,3,3,-9.4,1.44,-1.89,-1.53,-0.41,0.29
11.01348996162415,2,3,3,3,-9.460000000000001,1.27,-2.14,-1.07,-0.54,0.52
11.01348996162415,2,3,3,3,-9.460000000000001,1.27,-2.14,-1.07,-0.54,0.52
11.03348994255066,2,3,3,3,-9.470000000000001,1.16,-2.08,-0.28,-0.52,0.55
11.03348994255066,2,3,3,3,-9.470000000000001,1.16,-2.08,-0.28,-0.52,0.55
11.05348992347717,2,3,3,3,-9.4,1.43,-1.98,0.74,-0.57,0.59
11.05348992347717,2,3,3,3,-9.4,1.43,-1.98,0.74,-0.57,0.59
11.07348990440369,2,3,3,3,-9.49,1.77,-2.07,1.1,-0.79,0.78
11.07348990440369,2,3,3,3,-9.49,1.77,-2.07,1.1,-0.79,0.78
11.0934898853302,2,3,3,3,-9.52,1.77,-1.99,0.83,-0.76,0.85
11.0934898853302,2,3,3,3,-9.52,1.77,-1.99,0.83,-0.76,0.85
11.11349010467529,2,3,3,3,-9.4,1.58,-1.98,0.22,-0.59,0.66
11.11349010467529,2,3,3,3,-9.4,1.58,-1.98,0.22,-0.59,0.66
11.13349008560181,2,3,3,3,-9.460000000000001,1.65,-1.71,-0.35,-0.18,0.28
11.13349008560181,2,3,3,3,-9.460000000000001,1.65,-1.71,-0.35,-0.18,0.28
11.15349006652832,2,3,3,3,-9.49,1.6,-1.79,-0.92,-0.17,0.23
11.15349006652832,2,3,3,3,-9.49,1.6,-1.79,-0.92,-0.17,0.23
11.17349004745483,2,3,3,3,-9.529999999999999,1.49,-1.96,-1.19,-0.41,0.25
11.17349004745483,2,3,3,3,-9.529999999999999,1.49,-1.96,-1.19,-0.41,0.25
11.19349002838135,2,3,3,3,-9.5,1.24,-1.85,-0.9399999999999999,-0.5,0.36
11.19349002838135,2,3,3,3,-9.5,1.24,-1.85,-0.9399999999999999,-0.5,0.36
11.21349000930786,2,3,3,3,-9.449999999999999,1.22,-1.97,-0.33,-0.65,0.42
11.21349000930786,2,3,3,3,-9.449999999999999,1.22,-1.97,-0.33,-0.65,0.42
11.23348999023438,2,3,3,3,-9.41,1.54,-1.82,0.31,-0.89,0.47
11.23348999023438,2,3,3,3,-9.41,1.54,-1.82,0.31,-0.89,0.47
11.25348997116089,2,3,3,3,-9.51,1.84,-1.86,0.42,-0.6899999999999999,0.46
11.25348997116089,2,3,3,3,-9.51,1.84,-1.86,0.42,-0.6899999999999999,0.46
11.2734899520874,2,3,3,3,-9.380000000000001,2.03,-1.88,0.3,-0.72,0.54
11.2734899520874,2,3,3,3,-9.380000000000001,2.03,-1.88,0.3,-0.72,0.54
11.29348993301392,2,3,3,3,-9.35,1.86,-1.89,-0.25,-0.64,0.5600000000000001
11.29348993301392,2,3,3,3,-9.35,1.86,-1.89,-0.25,-0.64,0.5600000000000001
11.31348991394043,2,3,3,3,-9.4,1.6,-1.92,-0.38,-0.67,0.5600000000000001
11.31348991394043,2,3,3,3,-9.4,1.6,-1.92,-0.38,-0.67,0.5600000000000001
11.33348989486694,2,3,3,3,-9.51,1.55,-1.69,-0.25,-0.54,0.52
11.33348989486694,2,3,3,3,-9.51,1.55,-1.69,-0.25,-0.54,0.52
11.35348987579346,2,3,3,3,-9.49,1.68,-1.68,0.08,-0.58,0.67
11.35348987579346,2,3,3,3,-9.49,1.68,-1.68,0.08,-0.58,0.67
11.37349009513855,2,3,3,3,-9.460000000000001,1.71,-1.81,-0.03,-0.77,0.82
11.37349009513855,2,3,3,3,-9.460000000000001,1.71,-1.81,-0.03,-0.77,0.82
11.39349007606506,2,3,3,3,-9.539999999999999,1.61,-1.91,0.08,-0.53,0.73
11.39349007606506,2,3,3,3,-9.539999999999999,1.61,-1.91,0.08,-0.53,0.73
11.41349005699158,2,3,3,3,-9.470000000000001,1.74,-1.77,0.26,-0.27,0.31
11.41349005699158,2,3,3,3,-9.470000000000001,1.74,-1.77,0.26,-0.27,0.31
11.43349003791809,2,3,3,3,-9.41,1.79,-1.66,0.27,-0.13,0.35
11.43349003791809,2,3,3,3,-9.41,1.79,-1.66,0.27,-0.13,0.35
11.4534900188446,2,3,3,3,-9.41,1.83,-1.8,0.06,-0.22,0.41
11.4534900188446,2,3,3,3,-9.41,1.83,-1.8,0.06,-0.22,0.41
11.47348999977112,2,3,3,3,-9.470000000000001,1.92,-1.72,0.07000000000000001,-0.13,0.17
11.47348999977112,2,3,3,3,-9.470000000000001,1.92,-1.72,0.07000000000000001,-0.13,0.17
11.49348998069763,2,3,3,3,-9.41,1.99,-1.71,-0.12,0,0.16
11.49348998069763,2,3,3,3,-9.41,1.99,-1.71,-0.12,0,0.16
11.5144898891449,2,3,3,3,-9.380000000000001,1.87,-1.85,-0.45,-0.13,0.35
11.5144898891449,2,3,3,3,-9.380000000000001,1.87,-1.85,-0.45,-0.13,0.35
11.53449010848999,2,3,3,3,-9.380000000000001,1.7,-1.78,-0.51,-0.25,0.31
11.53449010848999,2,3,3,3,-9.380000000000001,1.7,-1.78,-0.51,-0.25,0.31
11.5544900894165,2,3,3,3,-9.57,1.79,-1.75,-0.02,0,0.16
11.5544900894165,2,3,3,3,-9.57,1.79,-1.75,-0.02,0,0.16
11.57449007034302,2,3,3,3,-9.460000000000001,1.95,-1.72,0.12,0.06,0
11.57449007034302,2,3,3,3,-9.460000000000001,1.95,-1.72,0.12,0.06,0
11.59449005126953,2,3,3,3,-9.359999999999999,1.92,-1.69,-0.1,0.17,0.05
11.59449005126953,2,3,3,3,-9.359999999999999,1.92,-1.69,-0.1,0.17,0.05
11.61449003219604,2,3,3,3,-9.460000000000001,1.81,-1.78,-0.03,-0.04,0.19
11.61449003219604,2,3,3,3,-9.460000000000001,1.81,-1.78,-0.03,-0.04,0.19
11.63449001312256,2,3,3,3,-9.470000000000001,1.76,-1.66,-0.04,-0.04,0.27
11.63449001312256,2,3,3,3,-9.470000000000001,1.76,-1.66,-0.04,-0.04,0.27
11.65448999404907,2,3,3,3,-9.449999999999999,1.74,-1.78,-0.07000000000000001,-0.1,0.33
11.65448999404907,2,3,3,3,-9.449999999999999,1.74,-1.78,-0.07000000000000001,-0.1,0.33
11.67448997497559,2,3,3,3,-9.44,1.63,-1.94,-0.11,-0.19,0.3
11.67448997497559,2,3,3,3,-9.44,1.63,-1.94,-0.11,-0.19,0.3
11.6944899559021,2,3,3,3,-9.49,1.85,-1.62,0.07000000000000001,-0.01,0.09
11.6944899559021,2,3,3,3,-9.49,1.85,-1.62,0.07000000000000001,-0.01,0.09
11.71448993682861,2,3,3,3,-9.42,1.94,-1.9,0.1,0.16,0.07000000000000001
11.71448993682861,2,3,3,3,-9.42,1.94,-1.9,0.1,0.16,0.07000000000000001
11.73448991775513,2,3,3,3,-9.380000000000001,1.84,-1.69,-0.14,0.09,0.14
11.73448991775513,2,3,3,3,-9.380000000000001,1.84,-1.69,-0.14,0.09,0.14
11.75448989868164,2,3,3,3,-9.42,1.78,-1.81,0.07000000000000001,-0.03,0.34
11.75448989868164,2,3,3,3,-9.42,1.78,-1.81,0.07000000000000001,-0.03,0.34
11.77448987960815,2,3,3,3,-9.470000000000001,1.81,-1.75,0.24,-0.14,0.34
11.77448987960815,2,3,3,3,-9.470000000000001,1.81,-1.75,0.24,-0.14,0.34
11.79449009895325,2,3,3,3,-9.4,1.68,-1.75,0.53,-0.12,0.27
11.79449009895325,2,3,3,3,-9.4,1.68,-1.75,0.53,-0.12,0.27
11.81449007987976,2,3,3,3,-9.41,1.85,-1.73,0.61,-0.08,0.22
11.81449007987976,2,3,3,3,-9.41,1.85,-1.73,0.61,-0.08,0.22
11.83449006080627,2,3,3,3,-9.43,1.83,-1.75,0.53,-0.18,0.35
11.83449006080627,2,3,3,3,-9.43,1.83,-1.75,0.53,-0.18,0.35
11.85449004173279,2,3,3,3,-9.48,1.96,-1.63,0.32,-0.09,0.13
11.85449004173279,2,3,3,3,-9.48,1.96,-1.63,0.32,-0.09,0.13
11.8744900226593,2,3,3,3,-9.52,2.06,-1.74,0.04,0.08,0.01
11.8744900226593,2,3,3,3,-9.52,2.06,-1.74,0.04,0.08,0.01
11.89449000358582,2,3,3,3,-9.380000000000001,1.99,-1.75,-0.38,-0.08,0.21
11.89449000358582,2,3,3,3,-9.380000000000001,1.99,-1.75,-0.38,-0.08,0.21
11.91448998451233,2,3,3,3,-9.41,1.88,-1.79,-0.48,-0.25,0.28
11.91448998451233,2,3,3,3,-9.41,1.88,-1.79,-0.48,-0.25,0.28
11.93448996543884,2,3,3,3,-9.51,1.85,-1.63,-0.16,-0.05,0.06
11.93448996543884,2,3,3,3,-9.51,1.85,-1.63,-0.16,-0.05,0.06
11.95448994636536,2,3,3,3,-9.470000000000001,1.94,-1.63,-0.08,0.02,0.01
11.95448994636536,2,3,3,3,-9.470000000000001,1.94,-1.63,-0.08,0.02,0.01
11.97448992729187,2,3,3,3,-9.44,1.92,-1.73,-0.3,-0.09,0.14
11.97448992729187,2,3,3,3,-9.44,1.92,-1.73,-0.3,-0.09,0.14
11.99448990821838,2,3,3,3,-9.4,1.86,-1.74,-0.34,-0.11,0.06
11.99448990821838,2,3,3,3,-9.4,1.86,-1.74,-0.34,-0.11,0.06
12.0144898891449,2,3,3,3,-9.4,1.9,-1.93,-0.2,-0.05,0.05
12.0144898891449,2,3,3,3,-9.4,1.9,-1.93,-0.2,-0.05,0.05
12.03449010848999,2,3,3,3,-9.41,1.99,-1.7,-0.19,-0.01,-0.03
12.03449010848999,2,3,3,3,-9.41,1.99,-1.7,-0.19,-0.01,-0.03
12.0544900894165,2,3,3,3,-9.43,1.96,-1.69,-0.36,-0.02,0.07000000000000001
12.0544900894165,2,3,3,3,-9.43,1.96,-1.69,-0.36,-0.02,0.07000000000000001
12.07449007034302,2,3,3,3,-9.42,1.76,-1.71,-0.4,-0.07000000000000001,0.23
12.07449007034302,2,3,3,3,-9.42,1.76,-1.71,-0.4,-0.07000000000000001,0.23
12.09449005126953,2,3,3,3,-9.5,1.75,-1.65,-0.42,0.06,0.01
12.09449005126953,2,3,3,3,-9.5,1.75,-1.65,-0.42,0.06,0.01
12.11449003219604,2,3,3,3,-9.48,1.77,-1.74,-0.05,0.06,-0.17
12.11449003219604,2,3,3,3,-9.48,1.77,-1.74,-0.05,0.06,-0.17
12.13449001312256,2,3,3,3,-9.369999999999999,1.9,-1.71,-0.13,0.03,-0.08
12.13449001312256,2,3,3,3,-9.369999999999999,1.9,-1.71,-0.13,0.03,-0.08
12.15448999404907,2,3,3,3,-9.390000000000001,1.87,-1.71,-0.1,-0.14,0.08
12.15448999404907,2,3,3,3,-9.390000000000001,1.87,-1.71,-0.1,-0.14,0.08
12.17448997497559,2,3,3,3,-9.49,1.88,-1.73,0.02,-0.11,0.08
12.17448997497559,2,3,3,3,-9.49,1.88,-1.73,0.02,-0.11,0.08
12.1944899559021,2,3,3,3,-9.449999999999999,1.86,-1.72,0.16,-0.01,0.02
12.1944899559021,2,3,3,3,-9.449999999999999,1.86,-1.72,0.16,-0.01,0.02
12.21448993682861,2,3,3,3,-9.41,1.87,-1.75,0.07000000000000001,0.05,-0.06
12.21448993682861,2,3,3,3,-9.41,1.87,-1.75,0.07000000000000001,0.05,-0.06
12.23448991775513,2,3,3,3,-9.369999999999999,1.88,-1.82,0.22,0.15,-0.25
12.23448991775513,2,3,3,3,-9.369999999999999,1.88,-1.82,0.22,0.15,-0.25
12.25448989868164,2,3,3,3,-9.42,2.17,-1.51,0.25,0.13,-0.37
12.25448989868164,2,3,3,3,-9.42,2.17,-1.51,0.25,0.13,-0.37
12.27448987960815,2,3,3,3,-9.4,2.38,-1.84,-0.1,0.2,0.05
12.27448987960815,2,3,3,3,-9.4,2.38,-1.84,-0.1,0.2,0.05
12.29449009895325,2,3,3,3,-9.27,1.96,-1.73,-0.33,0,0.23
12.29449009895325,2,3,3,3,-9.27,1.96,-1.73,-0.33,0,0.23
12.31449007987976,2,3,3,3,-9.390000000000001,1.78,-1.74,0.13,-0.18,0.52
12.31449007987976,2,3,3,3,-9.390000000000001,1.78,-1.74,0.13,-0.18,0.52
12.33449006080627,2,3,3,3,-9.42,1.75,-1.75,0.53,-0.37,0.6
12.33449006080627,2,3,3,3,-9.42,1.75,-1.75,0.53,-0.37,0.6
12.35449004173279,2,3,3,3,-9.56,1.65,-1.78,1.18,-0.05,0.31
12.35449004173279,2,3,3,3,-9.56,1.65,-1.78,1.18,-0.05,0.31
12.3744900226593,2,3,3,3,-9.34,1.72,-2.01,1.48,0.42,0.24
12.3744900226593,2,3,3,3,-9.34,1.72,-2.01,1.48,0.42,0.24
12.39449000358582,2,3,3,3,-9.140000000000001,2.02,-1.89,1.67,0.25,0.32
12.39449000358582,2,3,3,3,-9.140000000000001,2.02,-1.89,1.67,0.25,0.32
12.41448998451233,2,3,3,3,-9.25,2.44,-2.09,1.39,0.09,0.42
12.41448998451233,2,3,3,3,-9.25,2.44,-2.09,1.39,0.09,0.42
12.43448996543884,2,3,3,3,-9.52,2.3,-2.15,0.75,-0.17,0.83
12.43448996543884,2,3,3,3,-9.52,2.3,-2.15,0.75,-0.17,0.83
12.45448994636536,2,3,3,3,-9.41,2.01,-1.99,0.11,-0.7,1.04
12.45448994636536,2,3,3,3,-9.41,2.01,-1.99,0.11,-0.7,1.04
12.47448992729187,2,3,3,3,-9.390000000000001,1.43,-1.84,-0.12,-0.97,0.97
12.47448992729187,2,3,3,3,-9.390000000000001,1.43,-1.84,-0.12,-0.97,0.97
12.49448990821838,2,3,3,3,-9.529999999999999,1.33,-1.88,0.21,-1.13,0.96
12.49448990821838,2,3,3,3,-9.529999999999999,1.33,-1.88,0.21,-1.13,0.96
12.5144898891449,2,3,3,3,-9.58,1.41,-1.94,0.21,-1.44,1.08
12.5144898891449,2,3,3,3,-9.58,1.41,-1.94,0.21,-1.44,1.08
12.53549003601074,2,3,3,3,-9.65,1.03,-1.7,-0.15,-1.69,1.23
12.53549003601074,2,3,3,3,-9.65,1.03,-1.7,-0.15,-1.69,1.23
12.55549001693726,2,3,3,3,-9.619999999999999,0.5,-1.54,-0.28,-2.1,1.42
12.55549001693726,2,3,3,3,-9.619999999999999,0.5,-1.54,-0.28,-2.1,1.42
12.57548999786377,2,3,3,3,-9.58,0.28,-1.58,-0.14,-2.12,1.68
12.57548999786377,2,3,3,3,-9.58,0.28,-1.58,-0.14,-2.12,1.68
12.59548997879028,2,3,3,3,-9.83,-0.04,-1.17,0.23,-1.64,1.7
12.59548997879028,2,3,3,3,-9.83,-0.04,-1.17,0.23,-1.64,1.7
12.6154899597168,2,3,3,3,-10,-0.53,-0.92,1.75,-1.49,1.05
12.6154899597168,2,3,3,3,-10,-0.53,-0.92,1.75,-1.49,1.05
12.63548994064331,2,3,3,3,-10.49,-1.88,-0.02,3.92,-1.68,-0.61
12.63548994064331,2,3,3,3,-10.49,-1.88,-0.02,3.92,-1.68,-0.61
12.65548992156982,2,3,3,3,-10.66,-2.86,0.38,5.92,-2.73,-3.12
12.65548992156982,2,3,3,3,-10.66,-2.86,0.38,5.92,-2.73,-3.12
12.67548990249634,2,3,3,3,-10.7,-3.03,0.38,7.49,-4.63,-6.26
12.67548990249634,2,3,3,3,-10.7,-3.03,0.38,7.49,-4.63,-6.26
12.69548988342285,2,3,3,3,-10.86,-2.1,0.1,6.52,-6.3,-8.57
12.69548988342285,2,3,3,3,-10.86,-2.1,0.1,6.52,-6.3,-8.57
12.71549010276794,2,3,3,3,-11.69,-1.71,-0.22,3.36,-6.96,-9.869999999999999
12.71549010276794,2,3,3,3,-11.69,-1.71,-0.22,3.36,-6.96,-9.869999999999999
12.73549008369446,2,3,3,3,-11.99,-2.06,-0.07000000000000001,-0.75,-6.17,-11.51
12.73549008369446,2,3,3,3,-11.99,-2.06,-0.07000000000000001,-0.75,-6.17,-11.51
12.75549006462097,2,3,3,3,-11.34,-2.08,-0.07000000000000001,-4.98,-5.04,-11.98
12.75549006462097,2,3,3,3,-11.34,-2.08,-0.07000000000000001,-4.98,-5.04,-11.98
12.77549004554749,2,3,3,3,-11.4,-1.72,-1.08,-4.37,-3.71,-11.04
12.77549004554749,2,3,3,3,-11.4,-1.72,-1.08,-4.37,-3.71,-11.04
12.795490026474,2,3,3,3,-11.08,-0.11,-1.88,-0.97,-3.39,-11.08
12.795490026474,2,3,3,3,-11.08,-0.11,-1.88,-0.97,-3.39,-11.08
12.81549000740051,2,3,3,3,-10.87,1.65,-1.23,0.66,-4.91,-11.15
12.81549000740051,2,3,3,3,-10.87,1.65,-1.23,0.66,-4.91,-11.15
12.83548998832703,2,3,3,3,-10.58,3.47,-0.4,-0.78,-5.19,-10.9
12.83548998832703,2,3,3,3,-10.58,3.47,-0.4,-0.78,-5.19,-10.9
12.85548996925354,2,3,3,3,-10.04,4.07,-2.18,-4.22,-2.42,-10.16
12.85548996925354,2,3,3,3,-10.04,4.07,-2.18,-4.22,-2.42,-10.16
12.87548995018005,2,3,3,3,-10.02,1.32,-2.12,-5.08,-1.46,-11.17
12.87548995018005,2,3,3,3,-10.02,1.32,-2.12,-5.08,-1.46,-11.17
12.89548993110657,2,3,3,3,-10.02,0.47,-2.12,-3.09,-0.53,-12.19
12.89548993110657,2,3,3,3,-10.02,0.47,-2.12,-3.09,-0.53,-12.19
12.91548991203308,2,3,3,3,-8.970000000000001,0.45,-2.61,-0.02,-0.01,-12.03
12.91548991203308,2,3,3,3,-8.970000000000001,0.45,-2.61,-0.02,-0.01,-12.03
12.93548989295959,2,3,3,3,-8.51,0.27,-2.53,2.05,-0.06,-11.7
12.93548989295959,2,3,3,3,-8.51,0.27,-2.53,2.05,-0.06,-11.7
12.95549011230469,2,3,3,3,-9.02,-0.39,-2.06,4.61,0.29,-10.78
12.95549011230469,2,3,3,3,-9.02,-0.39,-2.06,4.61,0.29,-10.78
12.9754900932312,2,3,3,3,-8.539999999999999,-0.66,-1.34,8.109999999999999,0.57,-9.5
12.9754900932312,2,3,3,3,-8.539999999999999,-0.66,-1.34,8.109999999999999,0.57,-9.5
12.99549007415771,2,3,3,3,-8.43,-0.52,-0.88,11.04,1.12,-8.609999999999999
12.99549007415771,2,3,3,3,-8.43,-0.52,-0.88,11.04,1.12,-8.609999999999999
13.01549005508423,2,3,3,3,-8.199999999999999,-0.52,-0.55,12.29,1.61,-7.73
13.01549005508423,2,3,3,3,-8.199999999999999,-0.52,-0.55,12.29,1.61,-7.73
13.03549003601074,2,3,3,3,-7.94,-0.79,0,12.15,1.38,-7.54
13.03549003601074,2,3,3,3,-7.94,-0.79,0,12.15,1.38,-7.54
13.05549001693726,2,3,3,3,-8.17,-1.42,-0.3,12.09,2.42,-7.44
13.05549001693726,2,3,3,3,-8.17,-1.42,-0.3,12.09,2.42,-7.44
13.07548999786377,2,3,3,3,-8.27,-1.12,-0.67,11.83,3.11,-6.79
13.07548999786377,2,3,3,3,-8.27,-1.12,-0.67,11.83,3.11,-6.79
13.09548997879028,2,3,3,3,-8.210000000000001,-1.3,-0.27,10.18,1.94,-5.51
13.09548997879028,2,3,3,3,-8.210000000000001,-1.3,-0.27,10.18,1.94,-5.51
13.1154899597168,2,3,3,3,-8.359999999999999,-1.86,-0.16,7.75,1.32,-4.98
13.1154899597168,2,3,3,3,-8.359999999999999,-1.86,-0.16,7.75,1.32,-4.98
13.13548994064331,2,3,3,3,-8.77,-3.3,0.85,4.43,0.34,-4.96
13.13548994064331,2,3,3,3,-8.77,-3.3,0.85,4.43,0.34,-4.96
13.15548992156982,2,3,3,3,-9,-3.93,2.04,3.66,-0.76,-3.61
13.15548992156982,2,3,3,3,-9,-3.93,2.04,3.66,-0.76,-3.61
13.17548990249634,2,3,3,3,-9.380000000000001,-3.85,3.15,4.12,-1.67,-2.57
13.17548990249634,2,3,3,3,-9.380000000000001,-3.85,3.15,4.12,-1.67,-2.57
13.19548988342285,2,3,3,3,-9.06,-4.14,3.18,3.71,-2.34,-1.64
13.19548988342285,2,3,3,3,-9.06,-4.14,3.18,3.71,-2.34,-1.64
13.21549010276794,2,3,3,3,-9.289999999999999,-6.24,2.39,2.35,-0.93,-1.44
13.21549010276794,2,3,3,3,-9.289999999999999,-6.24,2.39,2.35,-0.93,-1.44
13.23549008369446,2,3,3,3,-9.17,-6.78,2.01,2.06,0.35,-1.53
13.23549008369446,2,3,3,3,-9.17,-6.78,2.01,2.06,0.35,-1.53
13.25549006462097,2,3,3,3,-8.539999999999999,-5.77,1.64,3.97,1.18,-0.12
13.25549006462097,2,3,3,3,-8.539999999999999,-5.77,1.64,3.97,1.18,-0.12
13.27549004554749,2,3,3,3,-8.359999999999999,-4.96,1.12,5.88,2.14,1.72
13.27549004554749,2,3,3,3,-8.359999999999999,-4.96,1.12,5.88,2.14,1.72
13.295490026474,2,3,3,3,-9.4,-4.27,-0.58,8.119999999999999,4.41,2.35
13.295490026474,2,3,3,3,-9.4,-4.27,-0.58,8.119999999999999,4.41,2.35
13.31549000740051,2,3,3,3,-11.28,-1.31,-2.25,4.38,6.57,-0.47
13.31549000740051,2,3,3,3,-11.28,-1.31,-2.25,4.38,6.57,-0.47
13.33548998832703,2,3,3,3,-11.29,-1.24,0.61,-3.15,3.75,1
13.33548998832703,2,3,3,3,-11.29,-1.24,0.61,-3.15,3.75,1
13.35548996925354,2,3,3,3,-10.84,-5.36,3.07,-1.12,4.09,2.03
13.35548996925354,2,3,3,3,-10.84,-5.36,3.07,-1.12,4.09,2.03
13.37548995018005,2,3,3,3,-13.01,-5.61,0.57,0.9,7.39,3.02
13.37548995018005,2,3,3,3,-13.01,-5.61,0.57,0.9,7.39,3.02
13.39548993110657,2,3,3,3,-10.78,1.16,1.23,2.32,4.88,6.06
13.39548993110657,2,3,3,3,-10.78,1.16,1.23,2.32,4.88,6.06
13.41548991203308,2,3,3,3,-7.69,5.56,-2.51,4.05,5.8,7.78
13.41548991203308,2,3,3,3,-7.69,5.56,-2.51,4.05,5.8,7.78
13.43548989295959,2,3,3,3,-7.99,0.75,-4.16,-3.06,6.07,7.07
13.43548989295959,2,3,3,3,-7.99,0.75,-4.16,-3.06,6.07,7.07
13.45549011230469,2,3,3,3,-9.94,1.17,-4.09,-0.83,6.13,8.01
13.45549011230469,2,3,3,3,-9.94,1.17,-4.09,-0.83,6.13,8.01
13.4754900932312,2,3,3,3,-9.66,1.32,-3.28,0.59,6.06,9.19
13.4754900932312,2,3,3,3,-9.66,1.32,-3.28,0.59,6.06,9.19
13.49549007415771,2,3,3,3,-9.199999999999999,1.83,-2.7,0.41,6.47,9.640000000000001
13.49549007415771,2,3,3,3,-9.199999999999999,1.83,-2.7,0.41,6.47,9.640000000000001
13.51549005508423,2,3,3,3,-9.73,0.64,-2.12,0.02,6.6,10.56
13.51549005508423,2,3,3,3,-9.73,0.64,-2.12,0.02,6.6,10.56
13.53549003601074,2,3,3,3,-9.960000000000001,0.36,-2.18,1.44,6.53,11.41
13.53549003601074,2,3,3,3,-9.960000000000001,0.36,-2.18,1.44,6.53,11.41
13.55549001693726,2,3,3,3,-9.470000000000001,1.12,-2.37,3.09,6.54,12.19
13.55549001693726,2,3,3,3,-9.470000000000001,1.12,-2.37,3.09,6.54,12.19
13.57648992538452,2,3,3,3,-9.32,1.45,-2.89,3.47,6.08,12.53
13.57648992538452,2,3,3,3,-9.32,1.45,-2.89,3.47,6.08,12.53
13.59648990631104,2,3,3,3,-9.4,1.49,-2.56,3.24,5.87,12.53
13.59648990631104,2,3,3,3,-9.4,1.49,-2.56,3.24,5.87,12.53
13.61648988723755,2,3,3,3,-9.56,2.63,-3.07,0.28,5.39,11.85
13.61648988723755,2,3,3,3,-9.56,2.63,-3.07,0.28,5.39,11.85
13.63649010658264,2,3,3,3,-9.32,1.45,-2.68,-0.83,5.23,11.67
13.63649010658264,2,3,3,3,-9.32,1.45,-2.68,-0.83,5.23,11.67
13.65649008750916,2,3,3,2,-9.24,0.3,-2.7,-2.62,4.29,11.43
13.65649008750916,2,3,3,2,-9.24,0.3,-2.7,-2.62,4.29,11.43
13.67649006843567,2,3,3,2,-9.08,-1.21,-3.08,-3.84,4.57,11.14
13.67649006843567,2,3,3,2,-9.08,-1.21,-3.08,-3.84,4.57,11.14
13.69649004936218,2,3,3,2,-9.41,-1.18,-2.84,-4.54,4.37,10.85
13.69649004936218,2,3,3,2,-9.41,-1.18,-2.84,-4.54,4.37,10.85
13.7164900302887,2,3,3,2,-10.27,-1.46,-2.23,-7.33,3.12,9.15
13.7164900302887,2,3,3,2,-10.27,-1.46,-2.23,-7.33,3.12,9.15
13.73649001121521,2,3,3,2,-9.789999999999999,-2.63,-1.74,-5.15,3.43,8.18
13.73649001121521,2,3,3,2,-9.789999999999999,-2.63,-1.74,-5.15,3.43,8.18
13.75648999214172,2,3,3,2,-9.59,-1.81,-1.66,-2.72,3.07,6.86
13.75648999214172,2,3,3,2,-9.59,-1.81,-1.66,-2.72,3.07,6.86
13.77648997306824,2,3,3,2,-9.619999999999999,0.2,-1.96,-3.83,2.46,6.66
13.77648997306824,2,3,3,2,-9.619999999999999,0.2,-1.96,-3.83,2.46,6.66
13.79648995399475,2,3,3,2,-9.029999999999999,1.41,-2.49,-4.84,2.17,6.72
13.79648995399475,2,3,3,2,-9.029999999999999,1.41,-2.49,-4.84,2.17,6.72
13.81648993492126,2,3,3,2,-8.630000000000001,1.68,-2.44,-8.75,2.91,7.7
13.81648993492126,2,3,3,2,-8.630000000000001,1.68,-2.44,-8.75,2.91,7.7
13.83648991584778,2,3,3,2,-8.720000000000001,1.62,-2.51,-10.25,3.83,7.97
13.83648991584778,2,3,3,2,-8.720000000000001,1.62,-2.51,-10.25,3.83,7.97
13.85648989677429,2,3,3,2,-9.380000000000001,1.56,-2.92,-9.42,4.68,6.45
13.85648989677429,2,3,3,2,-9.380000000000001,1.56,-2.92,-9.42,4.68,6.45
13.87648987770081,2,3,3,2,-9.48,2,-3.08,-7.69,3.7,5.41
13.87648987770081,2,3,3,2,-9.48,2,-3.08,-7.69,3.7,5.41
13.8964900970459,2,3,3,2,-9.779999999999999,2.38,-3.36,-7.02,2.71,5.36
13.8964900970459,2,3,3,2,-9.779999999999999,2.38,-3.36,-7.02,2.71,5.36
13.91649007797241,2,3,3,2,-9.5,2.19,-2.54,-5.82,1.86,5.48
13.91649007797241,2,3,3,2,-9.5,2.19,-2.54,-5.82,1.86,5.48
13.93649005889893,2,3,3,2,-9.279999999999999,1.46,-2.25,-5.79,2.18,5.44
13.93649005889893,2,3,3,2,-9.279999999999999,1.46,-2.25,-5.79,2.18,5.44
13.95649003982544,2,3,3,2,-9.69,1.8,-2.17,-6.98,3.44,5.27
13.95649003982544,2,3,3,2,-9.69,1.8,-2.17,-6.98,3.44,5.27
13.97649002075195,2,3,3,2,-9.56,1.88,-2.71,-7.86,3.05,5.36
13.97649002075195,2,3,3,2,-9.56,1.88,-2.71,-7.86,3.05,5.36
13.99649000167847,2,3,3,2,-9.83,1.46,-2.46,-8.01,2.87,5.49
13.99649000167847,2,3,3,2,-9.83,1.46,-2.46,-8.01,2.87,5.49
14.01648998260498,2,3,3,2,-9.85,1.4,-2.46,-7.7,2.62,5.96
14.01648998260498,2,3,3,2,-9.85,1.4,-2.46,-7.7,2.62,5.96
14.03648996353149,2,3,3,2,-9.630000000000001,0.9,-2.76,-7.89,2.8,6.1
14.03648996353149,2,3,3,2,-9.630000000000001,0.9,-2.76,-7.89,2.8,6.1
14.05648994445801,2,3,3,2,-10.03,0.86,-3.02,-6.13,1.22,5.83
14.05648994445801,2,3,3,2,-10.03,0.86,-3.02,-6.13,1.22,5.83
14.07648992538452,2,3,3,2,-10.36,1.34,-3.12,-5.74,0.82,5.55
14.07648992538452,2,3,3,2,-10.36,1.34,-3.12,-5.74,0.82,5.55
14.09648990631104,2,3,3,2,-10.98,1.09,-3.04,-6.45,1.18,5.38
14.09648990631104,2,3,3,2,-10.98,1.09,-3.04,-6.45,1.18,5.38
14.11648988723755,2,3,3,2,-11.93,0.05,-2.56,-7.38,0.36,3.36
14.11648988723755,2,3,3,2,-11.93,0.05,-2.56,-7.38,0.36,3.36
14.13649010658264,2,3,3,2,-11.4,-1.52,-1.72,-7.82,0.29,2.68
14.13649010658264,2,3,3,2,-11.4,-1.52,-1.72,-7.82,0.29,2.68
14.15649008750916,2,3,3,2,-12.9,-3.76,-0.9399999999999999,-5.89,-1.58,-0.36
14.15649008750916,2,3,3,2,-12.9,-3.76,-0.9399999999999999,-5.89,-1.58,-0.36
14.17649006843567,2,3,3,2,-13.5,-4.4,-0.16,-3.47,-4.7,-4.34
14.17649006843567,2,3,3,2,-13.5,-4.4,-0.16,-3.47,-4.7,-4.34
14.19649004936218,2,3,3,2,-13.24,-5.25,0.79,-2.91,-5.96,-6.5
14.19649004936218,2,3,3,2,-13.24,-5.25,0.79,-2.91,-5.96,-6.5
14.2164900302887,2,3,3,2,-12.76,-3.43,2.12,-5.64,-10.09,-10.63
14.2164900302887,2,3,3,2,-12.76,-3.43,2.12,-5.64,-10.09,-10.63
14.23649001121521,2,3,3,2,-10.42,-2.35,1.33,-9.800000000000001,-9.789999999999999,-11.16
14.23649001121521,2,3,3,2,-10.42,-2.35,1.33,-9.800000000000001,-9.789999999999999,-11.16
14.25648999214172,2,3,3,2,-11.32,-1.35,-1.07,-8.27,-8.31,-16.73
14.25648999214172,2,3,3,2,-11.32,-1.35,-1.07,-8.27,-8.31,-16.73
14.27648997306824,2,3,3,2,-12.62,2.39,-1.72,-4.93,-8.4,-18.22
14.27648997306824,2,3,3,2,-12.62,2.39,-1.72,-4.93,-8.4,-18.22
14.29648995399475,2,3,3,2,-13.19,4.55,-1.76,-5,-7.75,-18.36
14.29648995399475,2,3,3,2,-13.19,4.55,-1.76,-5,-7.75,-18.36
14.31648993492126,2,3,3,2,-11.77,5.38,-1.7,-8.18,-4.99,-19.97
14.31648993492126,2,3,3,2,-11.77,5.38,-1.7,-8.18,-4.99,-19.97
14.33648991584778,2,3,3,2,-11.18,4.42,-1.18,-8.390000000000001,-4.4,-20.54
14.33648991584778,2,3,3,2,-11.18,4.42,-1.18,-8.390000000000001,-4.4,-20.54
14.35648989677429,2,3,3,2,-11.32,4.39,-2.13,-4.81,-2.28,-20.31
14.35648989677429,2,3,3,2,-11.32,4.39,-2.13,-4.81,-2.28,-20.31
14.37648987770081,3,3,3,2,-11.04,4.78,-2.46,-3.32,-1.5,-19.92
14.37648987770081,3,3,3,2,-11.04,4.78,-2.46,-3.32,-1.5,-19.92
14.3964900970459,3,3,3,2,-10.71,4.41,-2.66,-1.8,-1.31,-19.96
14.3964900970459,3,3,3,2,-10.71,4.41,-2.66,-1.8,-1.31,-19.96
14.41649007797241,3,3,3,2,-9.050000000000001,4.09,-2.91,3.93,-0.95,-20.16
14.41649007797241,3,3,3,2,-9.050000000000001,4.09,-2.91,3.93,-0.95,-20.16
14.43649005889893,3,3,3,2,-8.970000000000001,3.93,-3.05,6.2,-0.41,-19.76
14.43649005889893,3,3,3,2,-8.970000000000001,3.93,-3.05,6.2,-0.41,-19.76
14.45649003982544,3,3,3,2,-8.77,4.08,-3.29,10.11,-0.18,-18.37
14.45649003982544,3,3,3,2,-8.77,4.08,-3.29,10.11,-0.18,-18.37
14.47649002075195,3,3,3,2,-8.539999999999999,3.75,-3.21,11.68,-0.97,-17.67
14.47649002075195,3,3,3,2,-8.539999999999999,3.75,-3.21,11.68,-0.97,-17.67
14.49649000167847,3,3,3,2,-8.539999999999999,3.83,-3.09,12.14,-1.18,-17.31
14.49649000167847,3,3,3,2,-8.539999999999999,3.83,-3.09,12.14,-1.18,-17.31
14.51648998260498,3,3,3,2,-8.130000000000001,2.85,-2.22,15.44,-0.75,-16.62
14.51648998260498,3,3,3,2,-8.130000000000001,2.85,-2.22,15.44,-0.75,-16.62
14.53648996353149,3,3,3,2,-8.31,3.75,-1.97,15.68,-0.45,-15.83
14.53648996353149,3,3,3,2,-8.31,3.75,-1.97,15.68,-0.45,-15.83
14.55648994445801,3,3,3,2,-6.61,3.92,-1.42,13.21,-0.39,-11.62
14.55648994445801,3,3,3,2,-6.61,3.92,-1.42,13.21,-0.39,-11.62
14.57648992538452,3,3,3,2,-5.52,3.38,-1.23,10.88,0.31,-9.26
14.57648992538452,3,3,3,2,-5.52,3.38,-1.23,10.88,0.31,-9.26
14.59749007225037,3,3,3,2,-5.24,2.76,-1.33,9.800000000000001,0.5600000000000001,-8.09
14.59749007225037,3,3,3,2,-5.24,2.76,-1.33,9.800000000000001,0.5600000000000001,-8.09
14.61749005317688,3,3,3,2,-5.52,0.62,-0.97,8.470000000000001,1.41,-3.89
14.61749005317688,3,3,3,2,-5.52,0.62,-0.97,8.470000000000001,1.41,-3.89
14.63749003410339,3,3,3,1,-5.79,-0.75,-0.22,8.970000000000001,1.38,-2.7
14.63749003410339,3,3,3,1,-5.79,-0.75,-0.22,8.970000000000001,1.38,-2.7
14.65749001502991,3,3,3,1,-7.36,-1.92,0.67,10.84,1.05,-0.33
14.65749001502991,3,3,3,1,-7.36,-1.92,0.67,10.84,1.05,-0.33
14.67748999595642,3,3,3,1,-10.37,-3.77,2.35,16.2,2.08,-1.06
14.67748999595642,3,3,3,1,-10.37,-3.77,2.35,16.2,2.08,-1.06
14.69748997688293,3,3,3,1,-11.62,-4.79,3.13,17.08,2.55,-2.89
14.69748997688293,3,3,3,1,-11.62,-4.79,3.13,17.08,2.55,-2.89
14.71748995780945,3,3,3,1,-13.69,-12.5,5.4,12.2,-3.36,-4.9
14.71748995780945,3,3,3,1,-13.69,-12.5,5.4,12.2,-3.36,-4.9
14.73748993873596,3,3,3,1,-13.62,-13.49,4.54,8.390000000000001,-4.93,-6.24
14.73748993873596,3,3,3,1,-13.62,-13.49,4.54,8.390000000000001,-4.93,-6.24
14.75748991966248,3,3,3,1,-11.55,-3.47,2.03,-3.94,-3.12,-7.18
14.75748991966248,3,3,3,1,-11.55,-3.47,2.03,-3.94,-3.12,-7.18
14.77748990058899,3,3,3,1,-8.720000000000001,-2.13,0.05,-3.97,-0.25,-7.31
14.77748990058899,3,3,3,1,-8.720000000000001,-2.13,0.05,-3.97,-0.25,-7.31
14.7974898815155,3,3,3,1,-7.8,-2.74,-1.41,-17.44,8.09,-6.91
14.7974898815155,3,3,3,1,-7.8,-2.74,-1.41,-17.44,8.09,-6.91
14.8174901008606,3,3,3,1,-8.220000000000001,3.8,-1.9,-12.75,12.93,10.47
14.8174901008606,3,3,3,1,-8.220000000000001,3.8,-1.9,-12.75,12.93,10.47
14.83749008178711,3,3,3,1,-14.49,-1.27,0.67,-3.66,1.16,3.81
14.83749008178711,3,3,3,1,-14.49,-1.27,0.67,-3.66,1.16,3.81
14.85749006271362,3,3,3,1,-15.36,-5.28,-2.32,12.84,5.87,8.25
14.85749006271362,3,3,3,1,-15.36,-5.28,-2.32,12.84,5.87,8.25
14.87749004364014,3,3,3,1,-11.75,5.96,-1.02,12.13,3.21,12.86
14.87749004364014,3,3,3,1,-11.75,5.96,-1.02,12.13,3.21,12.86
14.89749002456665,3,3,3,1,-10.46,8.44,-3.86,10.01,10.86,14.06
14.89749002456665,3,3,3,1,-10.46,8.44,-3.86,10.01,10.86,14.06
14.91749000549316,3,3,3,1,-8.27,3.19,-4.26,0.82,12.45,12.98
14.91749000549316,3,3,3,1,-8.27,3.19,-4.26,0.82,12.45,12.98
14.93748998641968,3,3,3,1,-8.720000000000001,3.64,-3.71,-0.26,7.76,13.34
14.93748998641968,3,3,3,1,-8.720000000000001,3.64,-3.71,-0.26,7.76,13.34
14.95748996734619,3,3,3,1,-9.220000000000001,1.95,-3.99,-0.92,7.43,12.7
14.95748996734619,3,3,3,1,-9.220000000000001,1.95,-3.99,-0.92,7.43,12.7
14.97748994827271,3,3,3,1,-9.710000000000001,-0.13,-2.77,0.28,6.96,13.31
14.97748994827271,3,3,3,1,-9.710000000000001,-0.13,-2.77,0.28,6.96,13.31
14.99748992919922,3,3,3,1,-10.67,1.08,-1.59,3.56,7.56,15.04
14.99748992919922,3,3,3,1,-10.67,1.08,-1.59,3.56,7.56,15.04
15.01748991012573,3,3,3,1,-9.25,1.95,-2.56,3.42,7.35,15.55
15.01748991012573,3,3,3,1,-9.25,1.95,-2.56,3.42,7.35,15.55
15.03748989105225,3,3,3,1,-8.970000000000001,1.13,-2.52,2.65,6.77,14.7
15.03748989105225,3,3,3,1,-8.970000000000001,1.13,-2.52,2.65,6.77,14.7
15.05749011039734,3,3,3,1,-8.92,0.74,-3.48,1.52,6.66,14.03
15.05749011039734,3,3,3,1,-8.92,0.74,-3.48,1.52,6.66,14.03
15.07749009132385,3,3,3,1,-8.83,1.13,-3.22,-0.86,6.32,13.26
15.07749009132385,3,3,3,1,-8.83,1.13,-3.22,-0.86,6.32,13.26
15.09749007225037,3,3,3,1,-8.73,1.25,-2.94,-4.34,5.18,12.8
15.09749007225037,3,3,3,1,-8.73,1.25,-2.94,-4.34,5.18,12.8
15.11749005317688,3,3,3,1,-10.08,0.66,-1.33,-11.32,4.29,12.8
15.11749005317688,3,3,3,1,-10.08,0.66,-1.33,-11.32,4.29,12.8
15.13749003410339,3,3,3,1,-9.18,-1.46,-2.32,-13.7,3.99,12.26
15.13749003410339,3,3,3,1,-9.18,-1.46,-2.32,-13.7,3.99,12.26
15.15749001502991,3,3,3,1,-9.68,-3.54,-2.48,-12.8,4.1,12.24
15.15749001502991,3,3,3,1,-9.68,-3.54,-2.48,-12.8,4.1,12.24
15.17748999595642,3,3,3,1,-9.09,-2.56,-2.83,-10.19,5.36,11.78
15.17748999595642,3,3,3,1,-9.09,-2.56,-2.83,-10.19,5.36,11.78
15.19748997688293,3,3,3,1,-9.48,-0.12,-2.49,-8.119999999999999,4.92,10.34
15.19748997688293,3,3,3,1,-9.48,-0.12,-2.49,-8.119999999999999,4.92,10.34
15.21748995780945,3,3,3,1,-9.6,1.69,-3.24,-6.36,2.77,8.48
15.21748995780945,3,3,3,1,-9.6,1.69,-3.24,-6.36,2.77,8.48
15.23748993873596,3,3,3,1,-9.09,2.03,-2.53,-5.36,2.24,7.86
15.23748993873596,3,3,3,1,-9.09,2.03,-2.53,-5.36,2.24,7.86
15.25748991966248,3,3,3,1,-9.32,2.27,-2.04,-6.52,3.95,7.87
15.25748991966248,3,3,3,1,-9.32,2.27,-2.04,-6.52,3.95,7.87
15.27748990058899,3,3,3,1,-9.949999999999999,2.85,-1.94,-9.140000000000001,4.68,7.67
15.27748990058899,3,3,3,1,-9.949999999999999,2.85,-1.94,-9.140000000000001,4.68,7.67
15.2974898815155,3,3,3,1,-10.02,2.18,-1.82,-11.15,3.87,7.25
15.2974898815155,3,3,3,1,-10.02,2.18,-1.82,-11.15,3.87,7.25
15.3174901008606,3,3,3,1,-9.44,1.23,-2.58,-11.03,2.38,7.3
15.3174901008606,3,3,3,1,-9.44,1.23,-2.58,-11.03,2.38,7.3
15.33749008178711,3,3,3,1,-9.35,-0.04,-2.21,-8.65,2.7,7.32
15.33749008178711,3,3,3,1,-9.35,-0.04,-2.21,-8.65,2.7,7.32
15.35749006271362,3,3,3,1,-9.66,0.6,-2.23,-6.91,3.22,7.1
15.35749006271362,3,3,3,1,-9.66,0.6,-2.23,-6.91,3.22,7.1
15.37749004364014,3,3,3,1,-9.800000000000001,1.36,-1.63,-8.24,3.36,6.84
15.37749004364014,3,3,3,1,-9.800000000000001,1.36,-1.63,-8.24,3.36,6.84
15.39749002456665,3,3,3,2,-9.630000000000001,0.35,-1.87,-10.86,3.05,6.73
15.39749002456665,3,3,3,2,-9.630000000000001,0.35,-1.87,-10.86,3.05,6.73
15.41749000549316,3,3,3,2,-10.17,-0.73,-2.81,-10.23,1.65,6.57
15.41749000549316,3,3,3,2,-10.17,-0.73,-2.81,-10.23,1.65,6.57
15.43748998641968,3,3,3,2,-10.89,-0.14,-2.01,-5.78,-0.16,5.79
15.43748998641968,3,3,3,2,-10.89,-0.14,-2.01,-5.78,-0.16,5.79
15.45748996734619,3,3,3,2,-11.59,0.36,-2,-5.38,0.24,4.66
15.45748996734619,3,3,3,2,-11.59,0.36,-2,-5.38,0.24,4.66
15.47748994827271,3,3,3,2,-12.62,-1.22,-2.11,-8.720000000000001,1.57,3.5
15.47748994827271,3,3,3,2,-12.62,-1.22,-2.11,-8.720000000000001,1.57,3.5
15.49748992919922,3,3,3,2,-13.73,-5.36,-0.8100000000000001,-9.6,-0.07000000000000001,1.37
15.49748992919922,3,3,3,2,-13.73,-5.36,-0.8100000000000001,-9.6,-0.07000000000000001,1.37
15.51748991012573,3,3,3,2,-13.39,-6.97,0.42,-8.32,-3.03,-1.53
15.51748991012573,3,3,3,2,-13.39,-6.97,0.42,-8.32,-3.03,-1.53
15.53748989105225,3,3,3,2,-15.41,-7.51,2.39,-4.64,-6.96,-6.42
15.53748989105225,3,3,3,2,-15.41,-7.51,2.39,-4.64,-6.96,-6.42
15.55749011039734,3,3,3,2,-13.43,-7.19,3.39,-5.69,-11.85,-11.51
15.55749011039734,3,3,3,2,-13.43,-7.19,3.39,-5.69,-11.85,-11.51
15.57749009132385,3,3,3,2,-10.81,-6.07,-3.25,-10.8,-9.109999999999999,-15.24
15.57749009132385,3,3,3,2,-10.81,-6.07,-3.25,-10.8,-9.109999999999999,-15.24
15.59749007225037,3,3,3,2,-14.21,-0.14,-5.54,-2.45,-7.8,-20.35
15.59749007225037,3,3,3,2,-14.21,-0.14,-5.54,-2.45,-7.8,-20.35
15.61848998069763,3,3,3,2,-15.79,4.27,-3.48,6.08,-8.31,-20.64
15.61848998069763,3,3,3,2,-15.79,4.27,-3.48,6.08,-8.31,-20.64
15.63848996162415,3,3,3,2,-15.99,6.97,-3.63,5.8,-5.97,-20.94
15.63848996162415,3,3,3,2,-15.99,6.97,-3.63,5.8,-5.97,-20.94
15.65848994255066,3,3,3,2,-12.16,5.84,-1.54,3.49,-6.04,-23.12
15.65848994255066,3,3,3,2,-12.16,5.84,-1.54,3.49,-6.04,-23.12
15.67848992347717,3,3,3,2,-11.9,5.65,-2.32,3.75,-4.15,-23.71
15.67848992347717,3,3,3,2,-11.9,5.65,-2.32,3.75,-4.15,-23.71
15.69848990440369,3,3,3,2,-11.19,7.31,-2.39,5.13,-4.42,-22.45
15.69848990440369,3,3,3,2,-11.19,7.31,-2.39,5.13,-4.42,-22.45
15.7184898853302,3,3,3,2,-9.84,8.039999999999999,-2.7,2.19,-4.04,-22.85
15.7184898853302,3,3,3,2,-9.84,8.039999999999999,-2.7,2.19,-4.04,-22.85
15.73849010467529,3,3,3,2,-9.76,4.95,-3.64,-0.52,-2.85,-23.14
15.73849010467529,3,3,3,2,-9.76,4.95,-3.64,-0.52,-2.85,-23.14
15.75849008560181,3,3,3,2,-8.35,4.71,-3.69,1.52,-1.66,-22.5
15.75849008560181,3,3,3,2,-8.35,4.71,-3.69,1.52,-1.66,-22.5
15.77849006652832,3,3,3,2,-7.45,4.29,-3.52,4.9,-1.44,-21.33
15.77849006652832,3,3,3,2,-7.45,4.29,-3.52,4.9,-1.44,-21.33
15.79849004745483,3,3,3,2,-7.08,3.86,-3.24,8.529999999999999,-1.08,-19.62
15.79849004745483,3,3,3,2,-7.08,3.86,-3.24,8.529999999999999,-1.08,-19.62
15.81849002838135,3,3,3,2,-6.12,5.11,-3.25,11.33,-0.65,-18
15.81849002838135,3,3,3,2,-6.12,5.11,-3.25,11.33,-0.65,-18
15.83849000930786,3,3,3,2,-6.45,5.06,-2.99,11.91,0.41,-15.58
15.83849000930786,3,3,3,2,-6.45,5.06,-2.99,11.91,0.41,-15.58
15.85848999023438,3,3,3,2,-5.77,4.54,-3.03,11.1,2.28,-12.42
15.85848999023438,3,3,3,2,-5.77,4.54,-3.03,11.1,2.28,-12.42
15.87848997116089,3,3,3,2,-5.78,4.2,-2.91,9.48,2.75,-10.36
15.87848997116089,3,3,3,2,-5.78,4.2,-2.91,9.48,2.75,-10.36
15.8984899520874,3,3,3,2,-4.98,4.19,-2.18,9.82,2.65,-8.720000000000001
15.8984899520874,3,3,3,2,-4.98,4.19,-2.18,9.82,2.65,-8.720000000000001
15.91848993301392,3,3,3,2,-4.75,3.65,-2.15,7.44,4.35,-5.87
15.91848993301392,3,3,3,2,-4.75,3.65,-2.15,7.44,4.35,-5.87
15.93848991394043,3,3,3,2,-5.34,0.41,-2.03,6.69,6.4,-3.15
15.93848991394043,3,3,3,2,-5.34,0.41,-2.03,6.69,6.4,-3.15
15.95848989486694,3,3,3,2,-7.32,-1.8,-0.9399999999999999,10.38,6.85,-2.32
15.95848989486694,3,3,3,2,-7.32,-1.8,-0.9399999999999999,10.38,6.85,-2.32
15.97848987579346,3,3,3,2,-11.36,-6.75,2.83,12.67,5.4,-4.52
15.97848987579346,3,3,3,2,-11.36,-6.75,2.83,12.67,5.4,-4.52
15.99849009513855,3,3,3,2,-12.39,-9.880000000000001,5.23,12.52,2.77,-3.6
15.99849009513855,3,3,3,2,-12.39,-9.880000000000001,5.23,12.52,2.77,-3.6
16.01849007606506,3,3,3,2,-14.19,-16.32,4.73,10.14,-5.78,-3.59
16.01849007606506,3,3,3,2,-14.19,-16.32,4.73,10.14,-5.78,-3.59
16.03849005699158,3,3,3,1,-12.05,-4.3,1.97,5.55,-3.56,-4.51
16.03849005699158,3,3,3,1,-12.05,-4.3,1.97,5.55,-3.56,-4.51
16.05849003791809,3,3,3,1,-8.93,0.89,-0.36,3.4,-0.8100000000000001,-4.29
16.05849003791809,3,3,3,1,-8.93,0.89,-0.36,3.4,-0.8100000000000001,-4.29
16.0784900188446,3,3,3,1,-5.65,1.72,-3.09,-5.01,11.62,-5.25
16.0784900188446,3,3,3,1,-5.65,1.72,-3.09,-5.01,11.62,-5.25
16.09848999977112,3,3,3,1,-8.449999999999999,0.8100000000000001,-3.02,-9.550000000000001,10.19,9.199999999999999
16.09848999977112,3,3,3,1,-8.449999999999999,0.8100000000000001,-3.02,-9.550000000000001,10.19,9.199999999999999
16.11848998069763,3,3,3,1,-18.75,-16.24,6.24,4.4,-3.42,4.05
16.11848998069763,3,3,3,1,-18.75,-16.24,6.24,4.4,-3.42,4.05
16.13848996162415,3,3,3,0,-16.09,0.49,-2.33,19.11,5.94,10.78
16.13848996162415,3,3,3,0,-16.09,0.49,-2.33,19.11,5.94,10.78
16.15848994255066,3,3,3,0,-8.4,13.62,-4.25,9.58,5.36,13.07
16.15848994255066,3,3,3,0,-8.4,13.62,-4.25,9.58,5.36,13.07
16.17848992347717,3,3,3,0,-6.07,9.800000000000001,-8.66,-0.46,11.2,11.92
16.17848992347717,3,3,3,0,-6.07,9.800000000000001,-8.66,-0.46,11.2,11.92
16.19848990440369,3,3,3,0,-8.779999999999999,1.48,-6,-6.2,10.68,14.12
16.19848990440369,3,3,3,0,-8.779999999999999,1.48,-6,-6.2,10.68,14.12
16.2184898853302,3,3,3,0,-9.52,4.75,-5.65,-1.81,7.36,14.69
16.2184898853302,3,3,3,0,-9.52,4.75,-5.65,-1.81,7.36,14.69
16.23849010467529,3,3,3,0,-9.19,1.97,-3.86,-1.13,7.37,13.85
16.23849010467529,3,3,3,0,-9.19,1.97,-3.86,-1.13,7.37,13.85
16.25849008560181,3,3,3,0,-9.710000000000001,1.55,-1.87,0.53,6.3,14.66
16.25849008560181,3,3,3,0,-9.710000000000001,1.55,-1.87,0.53,6.3,14.66
16.27849006652832,3,3,3,0,-10.52,3.08,-2.43,-0.14,6.99,15.45
16.27849006652832,3,3,3,0,-10.52,3.08,-2.43,-0.14,6.99,15.45
16.29849004745483,3,3,3,0,-9.1,3.79,-3.14,-3.51,6.31,15.46
16.29849004745483,3,3,3,0,-9.1,3.79,-3.14,-3.51,6.31,15.46
16.31849002838135,3,3,3,0,-8.99,0.75,-4.45,-7.07,6.69,14.81
16.31849002838135,3,3,3,0,-8.99,0.75,-4.45,-7.07,6.69,14.81
16.33849000930786,3,3,3,0,-8.83,1.11,-4.37,-7.99,5.89,14.81
16.33849000930786,3,3,3,0,-8.83,1.11,-4.37,-7.99,5.89,14.81
16.35848999023438,3,3,3,0,-9,0.63,-2.8,-14,5.01,14.34
16.35848999023438,3,3,3,0,-9,0.63,-2.8,-14,5.01,14.34
16.37848997116089,3,3,3,0,-9.4,-2.5,-2.86,-21.76,2.36,14.45
16.37848997116089,3,3,3,0,-9.4,-2.5,-2.86,-21.76,2.36,14.45
16.3984899520874,3,3,3,0,-10.72,-5.83,-2.82,-20.44,2.51,14.07
16.3984899520874,3,3,3,0,-10.72,-5.83,-2.82,-20.44,2.51,14.07
16.41848993301392,3,3,3,0,-10.42,-5.65,-1.55,-14.9,3.43,12.33
16.41848993301392,3,3,3,0,-10.42,-5.65,-1.55,-14.9,3.43,12.33
16.43848991394043,3,3,3,0,-10,-1.42,-2.43,-9.26,3.76,10.32
16.43848991394043,3,3,3,0,-10,-1.42,-2.43,-9.26,3.76,10.32
16.45848989486694,3,3,3,0,-10.07,1.7,-3.56,-5.98,1.59,7.66
16.45848989486694,3,3,3,0,-10.07,1.7,-3.56,-5.98,1.59,7.66
16.47848987579346,3,3,3,0,-9.34,3.28,-2.62,-7,1.31,6.95
16.47848987579346,3,3,3,0,-9.34,3.28,-2.62,-7,1.31,6.95
16.49849009513855,3,3,3,0,-8.85,2.79,-1.3,-8.890000000000001,3.14,7.67
16.49849009513855,3,3,3,0,-8.85,2.79,-1.3,-8.890000000000001,3.14,7.67
16.51849007606506,3,3,3,0,-9.039999999999999,1.96,-1.45,-10.01,4.32,8.35
16.51849007606506,3,3,3,0,-9.039999999999999,1.96,-1.45,-10.01,4.32,8.35
16.53849005699158,3,3,3,0,-9.199999999999999,1.76,-2.32,-9.609999999999999,3.87,8.5
16.53849005699158,3,3,3,0,-9.199999999999999,1.76,-2.32,-9.609999999999999,3.87,8.5
16.55849003791809,3,3,3,0,-9.01,1.5,-3.32,-7.07,2.29,8.890000000000001
16.55849003791809,3,3,3,0,-9.01,1.5,-3.32,-7.07,2.29,8.890000000000001
16.5784900188446,3,3,3,0,-8.609999999999999,1.46,-2.82,-4.14,1.73,9.42
16.5784900188446,3,3,3,0,-8.609999999999999,1.46,-2.82,-4.14,1.73,9.42
16.59848999977112,3,3,3,0,-9.49,1.67,-2.29,-3.29,2.22,9.460000000000001
16.59848999977112,3,3,3,0,-9.49,1.67,-2.29,-3.29,2.22,9.460000000000001
16.61848998069763,3,3,3,0,-9.779999999999999,1.34,-2.11,-5.48,3.03,9.130000000000001
16.61848998069763,3,3,3,0,-9.779999999999999,1.34,-2.11,-5.48,3.03,9.130000000000001
16.6394898891449,3,3,3,0,-9.960000000000001,0.11,-1.4,-7.59,3.16,8.69
16.6394898891449,3,3,3,0,-9.960000000000001,0.11,-1.4,-7.59,3.16,8.69
16.65949010848999,3,3,3,0,-9.460000000000001,-0.83,-1.37,-8.94,2.8,8.49
16.65949010848999,3,3,3,0,-9.460000000000001,-0.83,-1.37,-8.94,2.8,8.49
16.6794900894165,3,3,3,0,-10.13,-1.39,-2.11,-8.039999999999999,0.93,7.74
16.6794900894165,3,3,3,0,-10.13,-1.39,-2.11,-8.039999999999999,0.93,7.74
16.69949007034302,3,3,3,1,-11.6,-0.66,-1.23,-5.46,-0.01,6.12
16.69949007034302,3,3,3,1,-11.6,-0.66,-1.23,-5.46,-0.01,6.12
16.71949005126953,3,3,3,1,-12.53,-1.61,-2.12,-7.89,1.4,4.16
16.71949005126953,3,3,3,1,-12.53,-1.61,-2.12,-7.89,1.4,4.16
16.73949003219604,3,3,3,1,-14.11,-4.31,-1.29,-7.9,0.71,2.5
16.73949003219604,3,3,3,1,-14.11,-4.31,-1.29,-7.9,0.71,2.5
16.75949001312256,3,3,3,1,-14.16,-6.42,0.29,-5.97,-4.14,-0.2
16.75949001312256,3,3,3,1,-14.16,-6.42,0.29,-5.97,-4.14,-0.2
16.77948999404907,3,3,3,1,-14.8,-7.95,1.75,-2.71,-7.76,-5.56
16.77948999404907,3,3,3,1,-14.8,-7.95,1.75,-2.71,-7.76,-5.56
16.79948997497559,3,3,3,2,-14.3,-6.28,4.13,-4.56,-12.36,-12.15
16.79948997497559,3,3,3,2,-14.3,-6.28,4.13,-4.56,-12.36,-12.15
16.8194899559021,3,3,3,2,-12.57,-4.71,-2.92,-11.84,-10.49,-15.53
16.8194899559021,3,3,3,2,-12.57,-4.71,-2.92,-11.84,-10.49,-15.53
16.83948993682861,3,3,3,2,-15.33,0.16,-4.72,-4.25,-9.619999999999999,-19.92
16.83948993682861,3,3,3,2,-15.33,0.16,-4.72,-4.25,-9.619999999999999,-19.92
16.85948991775513,3,3,3,2,-16.64,3.28,-3.18,4.85,-10.28,-19.84
16.85948991775513,3,3,3,2,-16.64,3.28,-3.18,4.85,-10.28,-19.84
16.87948989868164,3,3,3,2,-16.25,7.31,-3.54,6.36,-7.58,-19.51
16.87948989868164,3,3,3,2,-16.25,7.31,-3.54,6.36,-7.58,-19.51
16.89948987960815,3,3,3,2,-12.71,6.5,-1.98,3.36,-7.09,-22.37
16.89948987960815,3,3,3,2,-12.71,6.5,-1.98,3.36,-7.09,-22.37
16.91949009895325,3,3,3,2,-12.62,6.17,-1.94,2.03,-5.45,-23.77
16.91949009895325,3,3,3,2,-12.62,6.17,-1.94,2.03,-5.45,-23.77
16.93949007987976,3,3,3,2,-10.77,6.89,-2.72,1.78,-5.03,-23.47
16.93949007987976,3,3,3,2,-10.77,6.89,-2.72,1.78,-5.03,-23.47
16.95949006080627,3,3,3,2,-10.17,6.39,-3.17,0.23,-4.48,-23.96
16.95949006080627,3,3,3,2,-10.17,6.39,-3.17,0.23,-4.48,-23.96
16.97949004173279,3,3,3,2,-9.380000000000001,4.58,-3.59,-1.03,-3.21,-24.3
16.97949004173279,3,3,3,2,-9.380000000000001,4.58,-3.59,-1.03,-3.21,-24.3
16.9994900226593,3,3,3,2,-8.779999999999999,4.49,-3.5,1.77,-2.13,-23.99
16.9994900226593,3,3,3,2,-8.779999999999999,4.49,-3.5,1.77,-2.13,-23.99
17.01949000358582,3,3,3,2,-7.34,3.3,-3.66,4.9,-1.82,-23.43
17.01949000358582,3,3,3,2,-7.34,3.3,-3.66,4.9,-1.82,-23.43
17.03948998451233,3,3,3,2,-7.62,3.37,-3.32,9.76,-1.77,-22.57
17.03948998451233,3,3,3,2,-7.62,3.37,-3.32,9.76,-1.77,-22.57
17.05948996543884,3,3,3,2,-6.77,4.8,-2.87,11.74,-2.02,-21.94
17.05948996543884,3,3,3,2,-6.77,4.8,-2.87,11.74,-2.02,-21.94
17.07948994636536,3,3,3,2,-6.34,5.56,-2.38,15,-1.74,-18.2
17.07948994636536,3,3,3,2,-6.34,5.56,-2.38,15,-1.74,-18.2
17.09948992729187,3,3,3,2,-5.19,5.51,-2.3,15.14,-1.07,-16.21
17.09948992729187,3,3,3,2,-5.19,5.51,-2.3,15.14,-1.07,-16.21
17.11948990821838,3,3,3,2,-5.25,4.89,-2.33,14.23,1.04,-10.9
17.11948990821838,3,3,3,2,-5.25,4.89,-2.33,14.23,1.04,-10.9
17.1394898891449,3,3,3,2,-4.51,5.25,-2.73,13.44,1.05,-8.48
17.1394898891449,3,3,3,2,-4.51,5.25,-2.73,13.44,1.05,-8.48
17.15949010848999,3,3,3,2,-4.29,5.84,-2.81,12.35,1.24,-7.21
17.15949010848999,3,3,3,2,-4.29,5.84,-2.81,12.35,1.24,-7.21
17.1794900894165,3,3,3,2,-4.17,2.58,-3.25,5.61,2.75,-4.07
17.1794900894165,3,3,3,2,-4.17,2.58,-3.25,5.61,2.75,-4.07
17.19949007034302,3,3,3,2,-5.22,-0.18,-2.61,3.01,6.8,-1.22
17.19949007034302,3,3,3,2,-5.22,-0.18,-2.61,3.01,6.8,-1.22
17.21949005126953,3,3,3,2,-11.07,-7,1.38,6.8,9,-1.38
17.21949005126953,3,3,3,2,-11.07,-7,1.38,6.8,9,-1.38
17.23949003219604,3,3,3,2,-14.39,-10.62,7.07,15.27,7.55,-6.1
17.23949003219604,3,3,3,2,-14.39,-10.62,7.07,15.27,7.55,-6.1
17.25949001312256,3,3,3,2,-16.31,-17.96,4.31,18.79,4.03,-5.96
17.25949001312256,3,3,3,2,-16.31,-17.96,4.31,18.79,4.03,-5.96
17.27948999404907,3,3,3,2,-12.92,-15.24,4.36,10.52,-9.35,-4.48
17.27948999404907,3,3,3,2,-12.92,-15.24,4.36,10.52,-9.35,-4.48
17.29948997497559,3,3,3,2,-9.51,0.52,0.93,4.65,-4.7,-4.24
17.29948997497559,3,3,3,2,-9.51,0.52,0.93,4.65,-4.7,-4.24
17.3194899559021,3,3,3,2,-6.15,-0.51,-3.42,4.35,-0.26,-6.38
17.3194899559021,3,3,3,2,-6.15,-0.51,-3.42,4.35,-0.26,-6.38
17.33948993682861,3,3,3,2,-3.71,4.43,-5.68,-13,13.07,10.83
17.33948993682861,3,3,3,2,-3.71,4.43,-5.68,-13,13.07,10.83
17.35948991775513,3,3,3,2,-19.66,-11.22,5.16,-2.79,8.369999999999999,8.82
17.35948991775513,3,3,3,2,-19.66,-11.22,5.16,-2.79,8.369999999999999,8.82
17.37948989868164,3,3,3,2,-17.2,-4.52,0.07000000000000001,6.46,-2.34,1.53
17.37948989868164,3,3,3,2,-17.2,-4.52,0.07000000000000001,6.46,-2.34,1.53
17.39948987960815,3,3,3,2,-10.26,15.95,-1.24,23.32,3.23,11.74
17.39948987960815,3,3,3,2,-10.26,15.95,-1.24,23.32,3.23,11.74
17.41949009895325,3,3,3,2,-7.03,10.89,-7.55,6.63,8.800000000000001,10.59
17.41949009895325,3,3,3,2,-7.03,10.89,-7.55,6.63,8.800000000000001,10.59
17.43949007987976,3,3,3,2,-8.9,0.98,-4.74,-5.61,13.8,10.39
17.43949007987976,3,3,3,2,-8.9,0.98,-4.74,-5.61,13.8,10.39
17.45949006080627,3,3,3,2,-9.76,4.53,-5.67,-7.44,8,12.43
17.45949006080627,3,3,3,2,-9.76,4.53,-5.67,-7.44,8,12.43
17.47949004173279,3,3,3,2,-9.140000000000001,3.15,-5.11,-4.54,7.27,12.44
17.47949004173279,3,3,3,2,-9.140000000000001,3.15,-5.11,-4.54,7.27,12.44
17.4994900226593,3,3,3,2,-9.789999999999999,1.14,-3.07,-3.61,6.33,11.8
17.4994900226593,3,3,3,2,-9.789999999999999,1.14,-3.07,-3.61,6.33,11.8
17.51949000358582,3,3,3,2,-10.94,1.8,-3.13,-2.12,6.42,13.19
17.51949000358582,3,3,3,2,-10.94,1.8,-3.13,-2.12,6.42,13.19
17.53948998451233,3,3,3,2,-9.18,1.79,-3.63,-0.35,6.47,14.75
17.53948998451233,3,3,3,2,-9.18,1.79,-3.63,-0.35,6.47,14.75
17.55948996543884,3,3,3,2,-9.02,1.44,-4,-0.3,6.59,14.6
17.55948996543884,3,3,3,2,-9.02,1.44,-4,-0.3,6.59,14.6
17.57948994636536,3,3,3,2,-8.99,1.23,-3.35,-1.46,6.09,14.68
17.57948994636536,3,3,3,2,-8.99,1.23,-3.35,-1.46,6.09,14.68
17.59948992729187,3,3,3,2,-9.07,2.37,-3.2,-2.72,5.94,14.69
17.59948992729187,3,3,3,2,-9.07,2.37,-3.2,-2.72,5.94,14.69
17.61948990821838,3,3,3,2,-9.83,2.32,-2.6,-6.4,5.67,14.39
17.61948990821838,3,3,3,2,-9.83,2.32,-2.6,-6.4,5.67,14.39
17.6394898891449,3,3,3,2,-9.220000000000001,-0.68,-2.75,-11.91,4.81,14.59
17.6394898891449,3,3,3,2,-9.220000000000001,-0.68,-2.75,-11.91,4.81,14.59
17.66049003601074,3,3,3,2,-9.34,-0.95,-3.06,-17.31,4.58,15.44
17.66049003601074,3,3,3,2,-9.34,-0.95,-3.06,-17.31,4.58,15.44
17.68049001693726,3,3,3,2,-9.84,-3.75,-3.24,-19.56,3.12,15.84
17.68049001693726,3,3,3,2,-9.84,-3.75,-3.24,-19.56,3.12,15.84
17.70048999786377,3,3,3,2,-9.220000000000001,-3.94,-2.91,-13.51,2.32,15.85
17.70048999786377,3,3,3,2,-9.220000000000001,-3.94,-2.91,-13.51,2.32,15.85
17.72048997879028,3,3,3,2,-9.33,-1.37,-1.92,-7.28,3.99,13.83
17.72048997879028,3,3,3,2,-9.33,-1.37,-1.92,-7.28,3.99,13.83
17.7404899597168,3,3,3,2,-9.98,-0.45,-2.74,-5.47,3.89,10.64
17.7404899597168,3,3,3,2,-9.98,-0.45,-2.74,-5.47,3.89,10.64
17.76048994064331,3,3,3,2,-10.57,1.56,-0.72,-4.95,2.57,8.49
17.76048994064331,3,3,3,2,-10.57,1.56,-0.72,-4.95,2.57,8.49
17.78048992156982,3,3,3,2,-9.960000000000001,1.8,-0.31,-7.88,3.05,7.94
17.78048992156982,3,3,3,2,-9.960000000000001,1.8,-0.31,-7.88,3.05,7.94
17.80048990249634,3,3,3,2,-8.99,1.37,-1.35,-11.38,4.17,7.86
17.80048990249634,3,3,3,2,-8.99,1.37,-1.35,-11.38,4.17,7.86
17.82048988342285,3,3,3,2,-9.44,1.5,-2.92,-12.55,4.28,8.1
17.82048988342285,3,3,3,2,-9.44,1.5,-2.92,-12.55,4.28,8.1
17.84049010276794,3,3,3,2,-9.41,1.41,-3.58,-10.38,2.85,9.01
17.84049010276794,3,3,3,2,-9.41,1.41,-3.58,-10.38,2.85,9.01
17.86049008369446,3,3,3,2,-9.119999999999999,0.42,-3.5,-7.91,1.71,9.65
17.86049008369446,3,3,3,2,-9.119999999999999,0.42,-3.5,-7.91,1.71,9.65
17.88049006462097,3,3,3,2,-10.31,-0.17,-1.66,-5.38,2.17,9.92
17.88049006462097,3,3,3,2,-10.31,-0.17,-1.66,-5.38,2.17,9.92
17.90049004554749,3,3,3,2,-10.82,0,-0.75,-4.27,2.01,9.74
17.90049004554749,3,3,3,2,-10.82,0,-0.75,-4.27,2.01,9.74
17.920490026474,3,3,3,2,-10.07,-1.08,-1.66,-6.03,0.78,9.26
17.920490026474,3,3,3,2,-10.07,-1.08,-1.66,-6.03,0.78,9.26
17.94049000740051,3,3,3,2,-12.26,-1.63,-0.67,-5.12,-0.11,7.87
17.94049000740051,3,3,3,2,-12.26,-1.63,-0.67,-5.12,-0.11,7.87
17.96048998832703,3,3,3,2,-13.31,-2.7,-1.69,-3.95,-0.14,5.68
17.96048998832703,3,3,3,2,-13.31,-2.7,-1.69,-3.95,-0.14,5.68
17.98048996925354,3,3,3,2,-14.57,-5.24,-1.14,-7.46,0.78,3.1
17.98048996925354,3,3,3,2,-14.57,-5.24,-1.14,-7.46,0.78,3.1
18.00048995018005,3,3,3,2,-13.47,-9.880000000000001,0.14,-5.91,-2.52,-0.8100000000000001
18.00048995018005,3,3,3,2,-13.47,-9.880000000000001,0.14,-5.91,-2.52,-0.8100000000000001
18.02048993110657,3,3,3,2,-12.95,-9.68,2.96,-0.45,-5.13,-5.95
18.02048993110657,3,3,3,2,-12.95,-9.68,2.96,-0.45,-5.13,-5.95
18.04048991203308,3,3,3,2,-12.51,-6.78,1.36,-4.07,-9.15,-9.98
18.04048991203308,3,3,3,2,-12.51,-6.78,1.36,-4.07,-9.15,-9.98
18.06048989295959,3,3,3,2,-12.17,-4.85,-4.61,-10.74,-10.31,-15.16
18.06048989295959,3,3,3,2,-12.17,-4.85,-4.61,-10.74,-10.31,-15.16
18.08049011230469,3,3,3,2,-16.33,2.24,-4.31,-2.14,-8.01,-19.45
18.08049011230469,3,3,3,2,-16.33,2.24,-4.31,-2.14,-8.01,-19.45
18.1004900932312,3,3,3,2,-17.53,5.8,-5.24,5.19,-8.98,-20.43
18.1004900932312,3,3,3,2,-17.53,5.8,-5.24,5.19,-8.98,-20.43
18.12049007415771,3,3,3,2,-14.98,7.55,-4.61,7.07,-8.58,-19.13
18.12049007415771,3,3,3,2,-14.98,7.55,-4.61,7.07,-8.58,-19.13
18.14049005508423,3,3,3,2,-13.54,5.97,-2.88,6.28,-7.67,-21.36
18.14049005508423,3,3,3,2,-13.54,5.97,-2.88,6.28,-7.67,-21.36
18.16049003601074,3,3,3,2,-13.49,8.69,-2.56,7.78,-5.46,-22.51
18.16049003601074,3,3,3,2,-13.49,8.69,-2.56,7.78,-5.46,-22.51
18.18049001693726,3,3,3,2,-11.05,7.09,-2.63,6.33,-5.17,-22.87
18.18049001693726,3,3,3,2,-11.05,7.09,-2.63,6.33,-5.17,-22.87
18.20048999786377,3,3,3,2,-10.13,6.59,-2.47,2.94,-4.25,-23.57
18.20048999786377,3,3,3,2,-10.13,6.59,-2.47,2.94,-4.25,-23.57
18.22048997879028,3,3,3,2,-9.050000000000001,4.68,-2.54,0.92,-3.59,-24.1
18.22048997879028,3,3,3,2,-9.050000000000001,4.68,-2.54,0.92,-3.59,-24.1
18.2404899597168,3,3,3,2,-8.17,5.19,-2.61,2.01,-2.6,-24.16
18.2404899597168,3,3,3,2,-8.17,5.19,-2.61,2.01,-2.6,-24.16
18.26048994064331,3,3,3,2,-7.34,4.51,-2.9,4.78,-1.97,-23.13
18.26048994064331,3,3,3,2,-7.34,4.51,-2.9,4.78,-1.97,-23.13
18.28048992156982,3,3,3,2,-6.22,4.48,-2.68,8.279999999999999,-2.54,-21.69
18.28048992156982,3,3,3,2,-6.22,4.48,-2.68,8.279999999999999,-2.54,-21.69
18.30048990249634,3,3,3,2,-6.18,4.5,-2.83,11.33,-2.02,-20.25
18.30048990249634,3,3,3,2,-6.18,4.5,-2.83,11.33,-2.02,-20.25
18.32048988342285,3,3,3,2,-4.97,5.18,-3.01,14.59,-1.57,-17.1
18.32048988342285,3,3,3,2,-4.97,5.18,-3.01,14.59,-1.57,-17.1
18.34049010276794,3,3,3,2,-4.73,5.22,-2.71,15.22,-0.17,-14
18.34049010276794,3,3,3,2,-4.73,5.22,-2.71,15.22,-0.17,-14
18.36049008369446,3,3,3,2,-4.39,5.53,-2.45,14.21,-0.51,-11.35
18.36049008369446,3,3,3,2,-4.39,5.53,-2.45,14.21,-0.51,-11.35
18.38049006462097,3,3,3,2,-3.94,4.08,-2.16,12.23,0.42,-9.34
18.38049006462097,3,3,3,2,-3.94,4.08,-2.16,12.23,0.42,-9.34
18.40049004554749,3,3,3,2,-4.26,0.67,-2.71,8.24,3.66,-6.28
18.40049004554749,3,3,3,2,-4.26,0.67,-2.71,8.24,3.66,-6.28
18.420490026474,3,3,3,2,-7.7,-1.13,-1.1,9.91,7.07,-4.69
18.420490026474,3,3,3,2,-7.7,-1.13,-1.1,9.91,7.07,-4.69
18.44049000740051,3,3,3,2,-10.46,-3.3,2.02,14.76,4.13,-3.47
18.44049000740051,3,3,3,2,-10.46,-3.3,2.02,14.76,4.13,-3.47
18.46048998832703,3,3,3,2,-13.6,-9.220000000000001,6.22,17.24,0.5600000000000001,-4.46
18.46048998832703,3,3,3,2,-13.6,-9.220000000000001,6.22,17.24,0.5600000000000001,-4.46
18.48048996925354,3,3,3,2,-14.99,-14.39,4.43,13.22,-3.16,-4.03
18.48048996925354,3,3,3,2,-14.99,-14.39,4.43,13.22,-3.16,-4.03
18.50048995018005,3,3,3,2,-12.09,-9.56,3.88,5.01,-9.77,-5.04
18.50048995018005,3,3,3,2,-12.09,-9.56,3.88,5.01,-9.77,-5.04
18.52048993110657,3,3,3,2,-9.029999999999999,-1.17,0.96,1.13,-2.18,-5.64
18.52048993110657,3,3,3,2,-9.029999999999999,-1.17,0.96,1.13,-2.18,-5.64
18.54048991203308,3,3,3,2,-5.15,-0.83,-2.97,-1.86,4.26,-5.97
18.54048991203308,3,3,3,2,-5.15,-0.83,-2.97,-1.86,4.26,-5.97
18.56048989295959,3,3,3,2,-4.46,1.15,-4.72,-18.1,15.11,-0.49
18.56048989295959,3,3,3,2,-4.46,1.15,-4.72,-18.1,15.11,-0.49
18.58049011230469,3,3,3,2,-19.64,-13.62,8.84,-7.49,4.62,7.2
18.58049011230469,3,3,3,2,-19.64,-13.62,8.84,-7.49,4.62,7.2
18.6004900932312,3,3,3,2,-20.01,-12.34,2.51,5.38,0.46,3.01
18.6004900932312,3,3,3,2,-20.01,-12.34,2.51,5.38,0.46,3.01
18.62049007415771,3,3,3,2,-9.5,15.38,-1.35,15.66,1.49,11.37
18.62049007415771,3,3,3,2,-9.5,15.38,-1.35,15.66,1.49,11.37
18.64049005508423,3,3,3,2,-6.92,15.27,-10.76,2.01,10.21,9.609999999999999
18.64049005508423,3,3,3,2,-6.92,15.27,-10.76,2.01,10.21,9.609999999999999
18.66049003601074,3,3,3,2,-7.01,1.05,-7.46,-12.42,15.58,11.13
18.66049003601074,3,3,3,2,-7.01,1.05,-7.46,-12.42,15.58,11.13
18.68049001693726,3,3,3,2,-9.01,2.8,-7.29,-8.390000000000001,7.35,14.3
