timestamp,magCalib,accCalib,gyrCalib,sysCalib,accX,accY,accZ,gyrX,gyrY,gyrZ
-0.01150989532470703,2,3,3,3,-9.539999999999999,-0.59,2.41,0.11,-0.08,-0.14
-0.001509904861450195,2,3,3,3,-9.529999999999999,-0.62,2.45,0.16,-0.15,-0.15
0.008490085601806641,2,3,3,3,-9.449999999999999,-0.65,2.49,0.18,-0.15,-0.14
0.01849007606506348,2,3,3,3,-9.369999999999999,-0.66,2.58,0.25,-0.12,-0.18
0.02849006652832031,2,3,3,3,-9.390000000000001,-0.65,2.55,0.38,-0.04,-0.19
0.03849005699157715,2,3,3,3,-9.4,-0.6,2.47,0.47,0.01,-0.21
0.04849004745483398,2,3,3,3,-9.4,-0.61,2.52,0.54,0.02,-0.19
0.05849003791809082,2,3,3,3,-9.49,-0.55,2.61,0.63,0.03,-0.11
0.06849002838134766,2,3,3,3,-9.470000000000001,-0.54,2.58,0.68,-0.01,-0.11
0.07849001884460449,2,3,3,3,-9.460000000000001,-0.52,2.57,0.71,-0.12,-0.14
0.08849000930786133,2,3,3,3,-9.470000000000001,-0.52,2.49,0.74,-0.1,-0.16
0.09848999977111816,2,3,3,3,-9.48,-0.47,2.6,0.8,-0.07000000000000001,-0.21
0.108489990234375,2,3,3,3,-9.44,-0.45,2.64,0.86,-0.08,-0.27
0.1184899806976318,2,3,3,3,-9.41,-0.45,2.67,0.87,-0.09,-0.34
0.1284899711608887,2,3,3,3,-9.390000000000001,-0.41,2.69,0.8100000000000001,-0.04,-0.38
0.1384899616241455,2,3,3,3,-9.390000000000001,-0.4,2.53,0.74,0,-0.4
0.1484899520874023,2,3,3,3,-9.44,-0.38,2.59,0.64,0.14,-0.42
0.1584899425506592,2,3,3,3,-9.44,-0.41,2.63,0.64,0.17,-0.36
0.168489933013916,2,3,3,3,-9.390000000000001,-0.45,2.62,0.57,0.14,-0.32
0.1784899234771729,2,3,3,3,-9.4,-0.45,2.57,0.51,0.05,-0.27
0.1884899139404297,2,3,3,3,-9.44,-0.43,2.51,0.44,0,-0.17
0.1984899044036865,2,3,3,3,-9.449999999999999,-0.43,2.5,0.44,-0.01,-0.09
0.2084898948669434,2,3,3,3,-9.470000000000001,-0.39,2.5,0.35,-0.04,-0.06
0.2184898853302002,2,3,3,3,-9.460000000000001,-0.34,2.55,0.29,-0.1,0
0.2294900417327881,2,3,3,3,-9.470000000000001,-0.32,2.59,0.29,-0.1,0
0.2394900321960449,2,3,3,3,-9.470000000000001,-0.29,2.49,0.34,-0.09,0
0.2494900226593018,2,3,3,3,-9.44,-0.28,2.55,0.42,-0.09,0
0.2594900131225586,2,3,3,3,-9.44,-0.32,2.57,0.32,-0.15,-0.03
0.2694900035858154,2,3,3,3,-9.449999999999999,-0.31,2.58,0.14,-0.05,-0.05
0.2794899940490723,2,3,3,3,-9.449999999999999,-0.35,2.57,0.14,-0.05,-0.05
0.2894899845123291,2,3,3,3,-9.42,-0.39,2.41,0.08,0.03,-0.03
0.2994899749755859,2,3,3,3,-9.41,-0.38,2.45,0,0.1,-0.07000000000000001
0.3094899654388428,2,3,3,3,-9.42,-0.39,2.46,-0.02,0.11,-0.05
0.3194899559020996,2,3,3,3,-9.449999999999999,-0.42,2.47,0.02,0.08,-0.03
0.3294899463653564,2,3,3,3,-9.48,-0.42,2.43,0.02,0.08,-0.03
0.3394899368286133,2,3,3,3,-9.49,-0.42,2.36,0.02,0.04,-0.03
0.3494899272918701,2,3,3,3,-9.49,-0.39,2.41,0.03,-0.01,0.02
0.359489917755127,2,3,3,3,-9.460000000000001,-0.39,2.53,0.09,-0.03,0.07000000000000001
0.3694899082183838,2,3,3,3,-9.44,-0.36,2.58,0.11,-0.09,0.16
0.3794898986816406,2,3,3,3,-9.44,-0.37,2.56,0.11,-0.09,0.16
0.3894898891448975,2,3,3,3,-9.43,-0.37,2.47,0.01,-0.04,0.19
0.3994898796081543,2,3,3,3,-9.470000000000001,-0.4,2.49,-0.03,-0.01,0.2
0.4094901084899902,2,3,3,3,-9.48,-0.41,2.48,-0.1,0.02,0.13
0.4194900989532471,2,3,3,3,-9.49,-0.4,2.51,-0.17,0.07000000000000001,0.11
0.4294900894165039,2,3,3,3,-9.51,-0.43,2.55,-0.17,0.07000000000000001,0.11
0.4394900798797607,2,3,3,3,-9.5,-0.48,2.42,-0.12,0.06,0.1
0.4494900703430176,2,3,3,3,-9.460000000000001,-0.47,2.44,-0.08,0.03,0.13
0.4594900608062744,2,3,3,3,-9.44,-0.44,2.5,-0.03,0.02,0.12
0.4694900512695312,2,3,3,3,-9.449999999999999,-0.44,2.55,0.01,-0.07000000000000001,0.17
0.4794900417327881,2,3,3,3,-9.449999999999999,-0.44,2.52,0.01,-0.07000000000000001,0.17
0.4894900321960449,2,3,3,3,-9.44,-0.41,2.45,0,-0.09,0.22
0.4994900226593018,2,3,3,3,-9.43,-0.42,2.46,-0.04,-0.1,0.24
0.5094900131225586,2,3,3,3,-9.470000000000001,-0.44,2.59,-0.04,-0.02,0.23
0.5194900035858154,2,3,3,3,-9.470000000000001,-0.44,2.6,0,0.04,0.15
0.5294899940490723,2,3,3,3,-9.49,-0.46,2.54,0,0.04,0.15
0.5394899845123291,2,3,3,3,-9.470000000000001,-0.44,2.44,-0.03,0.05,0.11
0.5494899749755859,2,3,3,3,-9.5,-0.46,2.49,0.04,0.01,0.04
0.5594899654388428,2,3,3,3,-9.48,-0.46,2.55,0.11,-0.06,0.04
0.5694899559020996,2,3,3,3,-9.460000000000001,-0.44,2.55,0.12,-0.09,0.05
0.5794899463653564,2,3,3,3,-9.41,-0.46,2.51,0.12,0.01,0.06
0.5894899368286133,2,3,3,3,-9.449999999999999,-0.42,2.51,0.21,0.03,0.12
0.5994899272918701,2,3,3,3,-9.43,-0.39,2.53,0.18,-0.02,0.18
0.609489917755127,2,3,3,3,-9.43,-0.4,2.51,0.09,-0.03,0.19
0.6194899082183838,2,3,3,3,-9.41,-0.37,2.57,0.07000000000000001,0,0.23
0.6294898986816406,2,3,3,3,-9.449999999999999,-0.36,2.54,0.07000000000000001,0,0.23
0.6394898891448975,2,3,3,3,-9.48,-0.38,2.46,0.06,-0.03,0.25
0.6494898796081543,2,3,3,3,-9.49,-0.36,2.45,-0.03,-0.05,0.23
0.6594901084899902,2,3,3,3,-9.51,-0.36,2.51,-0.08,-0.04,0.19
0.6694900989532471,2,3,3,3,-9.51,-0.39,2.56,-0.11,-0.06,0.16
0.6794900894165039,2,3,3,3,-9.51,-0.38,2.49,-0.16,-0.07000000000000001,0.14
0.6894900798797607,2,3,3,3,-9.5,-0.4,2.39,-0.19,0,0.11
0.6994900703430176,2,3,3,3,-9.470000000000001,-0.41,2.46,-0.14,0.02,0.07000000000000001
0.7094900608062744,2,3,3,3,-9.460000000000001,-0.42,2.5,-0.07000000000000001,-0.02,0.09
0.7194900512695312,2,3,3,3,-9.460000000000001,-0.44,2.51,-0.03,-0.06,0.1
0.7294900417327881,2,3,3,3,-9.470000000000001,-0.44,2.51,-0.04,-0.06,0.11
0.7394900321960449,2,3,3,3,-9.44,-0.41,2.45,0,-0.04,0.15
0.7494900226593018,2,3,3,3,-9.44,-0.42,2.48,-0.03,-0.09,0.18
0.7594900131225586,2,3,3,3,-9.44,-0.42,2.52,-0.07000000000000001,-0.08,0.22
0.7694900035858154,2,3,3,3,-9.44,-0.44,2.49,-0.16,-0.05,0.2
0.7794899940490723,2,3,3,3,-9.470000000000001,-0.42,2.44,-0.14,0.04,0.19
0.7894899845123291,2,3,3,3,-9.5,-0.42,2.34,-0.13,0.02,0.15
0.7994899749755859,2,3,3,3,-9.5,-0.39,2.36,-0.12,0,0.14
0.8094899654388428,2,3,3,3,-9.49,-0.39,2.4,-0.04,-0.03,0.13
0.8194899559020996,2,3,3,3,-9.48,-0.37,2.53,0.06,-0.05,0.14
0.8294899463653564,2,3,3,3,-9.449999999999999,-0.38,2.52,0.1,-0.1,0.11
0.8394899368286133,2,3,3,3,-9.4,-0.37,2.47,0.03,-0.06,0.17
0.8494899272918701,2,3,3,3,-9.390000000000001,-0.37,2.48,-0.04,0,0.2
0.859489917755127,2,3,3,3,-9.44,-0.36,2.6,-0.03,0,0.23
0.8694899082183838,2,3,3,3,-9.44,-0.36,2.6,-0.14,-0.01,0.21
0.8794898986816406,2,3,3,3,-9.44,-0.29,2.54,-0.19,0.04,0.25
0.8894898891448975,2,3,3,3,-9.449999999999999,-0.29,2.41,-0.21,0.08,0.21
0.8994898796081543,2,3,3,3,-9.48,-0.27,2.48,-0.29,0.14,0.17
0.9094901084899902,2,3,3,3,-9.49,-0.25,2.54,-0.29,0.13,0.14
0.9194900989532471,2,3,3,3,-9.49,-0.25,2.54,-0.27,0.06,0.12
0.9294900894165039,2,3,3,3,-9.51,-0.28,2.58,-0.32,-0.04,0.1
0.9394900798797607,2,3,3,3,-9.49,-0.36,2.46,-0.43,-0.08,0.09
0.9494900703430176,2,3,3,3,-9.48,-0.38,2.53,-0.52,0.01,0.07000000000000001
0.9594900608062744,2,3,3,3,-9.460000000000001,-0.38,2.5,-0.55,0.08,0.07000000000000001
0.9694900512695312,2,3,3,3,-9.460000000000001,-0.38,2.5,-0.54,0.11,0.07000000000000001
0.9794900417327881,2,3,3,3,-9.460000000000001,-0.42,2.52,-0.51,0.07000000000000001,0.03
0.9894900321960449,2,3,3,3,-9.5,-0.45,2.39,-0.44,0.05,0.03
0.9994900226593018,2,3,3,3,-9.470000000000001,-0.46,2.44,-0.35,-0.02,0.02
1.009490013122559,2,3,3,3,-9.48,-0.49,2.49,-0.32,-0.08,0.02
1.019490003585815,2,3,3,3,-9.48,-0.49,2.49,-0.28,-0.13,0.07000000000000001
1.029489994049072,2,3,3,3,-9.48,-0.48,2.5,-0.28,-0.15,0.07000000000000001
1.039489984512329,2,3,3,3,-9.449999999999999,-0.5,2.41,-0.26,-0.12,0.04
1.049489974975586,2,3,3,3,-9.48,-0.54,2.49,-0.15,-0.1,0.04
1.059489965438843,2,3,3,3,-9.49,-0.5600000000000001,2.51,-0.03,-0.1,0.01
1.0694899559021,2,3,3,3,-9.460000000000001,-0.53,2.46,0.01,-0.08,-0.03
1.079489946365356,2,3,3,3,-9.470000000000001,-0.5,2.43,0.13,-0.06,-0.04
1.089489936828613,2,3,3,3,-9.470000000000001,-0.48,2.4,0.23,-0.09,-0.02
1.09948992729187,2,3,3,3,-9.449999999999999,-0.49,2.44,0.27,-0.13,0.01
1.109489917755127,2,3,3,3,-9.43,-0.48,2.47,0.31,-0.13,0.03
1.119489908218384,2,3,3,3,-9.43,-0.48,2.47,0.31,-0.13,0.03
1.129489898681641,2,3,3,3,-9.449999999999999,-0.45,2.5,0.34,-0.1,0.04
1.139489889144897,2,3,3,3,-9.470000000000001,-0.43,2.43,0.33,-0.11,0.05
1.149489879608154,2,3,3,3,-9.5,-0.42,2.47,0.36,-0.08,0
1.15949010848999,2,3,3,3,-9.460000000000001,-0.41,2.49,0.25,-0.09,-0.01
1.169490098953247,2,3,3,3,-9.460000000000001,-0.41,2.49,0.25,-0.09,-0.01
1.179490089416504,2,3,3,3,-9.449999999999999,-0.43,2.51,0.25,-0.02,-0.05
1.189490079879761,2,3,3,3,-9.460000000000001,-0.45,2.42,0.18,-0.04,-0.08
1.199490070343018,2,3,3,3,-9.460000000000001,-0.46,2.44,0.19,0,-0.07000000000000001
1.209490060806274,2,3,3,3,-9.5,-0.45,2.47,0.2,-0.02,-0.07000000000000001
1.219490051269531,2,3,3,3,-9.5,-0.45,2.47,0.2,-0.02,-0.07000000000000001
1.229490041732788,2,3,3,3,-9.48,-0.46,2.47,0.21,-0.06,-0.06
1.239490032196045,2,3,3,3,-9.52,-0.49,2.36,0.35,-0.04,-0.12
1.250489950180054,2,3,3,3,-9.5,-0.5,2.42,0.45,-0.07000000000000001,-0.13
1.260489940643311,2,3,3,3,-9.470000000000001,-0.49,2.46,0.48,-0.05,-0.14
1.270489931106567,2,3,3,3,-9.470000000000001,-0.49,2.46,0.48,-0.05,-0.14
1.280489921569824,2,3,3,3,-9.41,-0.45,2.53,0.52,-0.02,-0.12
1.290489912033081,2,3,3,3,-9.43,-0.43,2.54,0.53,-0.03,-0.12
1.300489902496338,2,3,3,3,-9.460000000000001,-0.42,2.42,0.44,-0.03,-0.12
1.310489892959595,2,3,3,3,-9.449999999999999,-0.44,2.44,0.41,0,-0.09
1.320489883422852,2,3,3,3,-9.49,-0.43,2.47,0.41,0,-0.09
1.330490112304688,2,3,3,3,-9.5,-0.43,2.47,0.4,-0.06,-0.06
1.340490102767944,2,3,3,3,-9.48,-0.42,2.45,0.48,-0.01,-0.05
1.350490093231201,2,3,3,3,-9.49,-0.43,2.36,0.5600000000000001,-0.01,-0.08
1.360490083694458,2,3,3,3,-9.48,-0.41,2.46,0.59,-0.04,-0.1
1.370490074157715,2,3,3,3,-9.48,-0.42,2.49,0.59,-0.04,-0.1
1.380490064620972,2,3,3,3,-9.48,-0.43,2.5,0.5600000000000001,-0.05,-0.13
1.390490055084229,2,3,3,3,-9.470000000000001,-0.4,2.52,0.5,-0.07000000000000001,-0.1
1.400490045547485,2,3,3,3,-9.460000000000001,-0.4,2.44,0.41,-0.07000000000000001,-0.09
1.410490036010742,2,3,3,3,-9.460000000000001,-0.39,2.45,0.35,-0.02,-0.09
1.420490026473999,2,3,3,3,-9.44,-0.38,2.48,0.35,-0.02,-0.09
1.430490016937256,2,3,3,3,-9.43,-0.38,2.52,0.32,0.01,-0.08
1.440490007400513,2,3,3,3,-9.42,-0.36,2.49,0.37,0,-0.07000000000000001
1.45048999786377,2,3,3,3,-9.449999999999999,-0.36,2.43,0.37,0.02,-0.08
1.460489988327026,2,3,3,3,-9.470000000000001,-0.39,2.46,0.36,0.01,-0.05
1.470489978790283,2,3,3,3,-9.460000000000001,-0.36,2.53,0.36,0.01,-0.05
1.48048996925354,2,3,3,3,-9.44,-0.38,2.52,0.23,0.03,-0.02
1.490489959716797,2,3,3,3,-9.449999999999999,-0.38,2.5,0.26,0.11,-0.04
1.500489950180054,2,3,3,3,-9.48,-0.4,2.44,0.28,0.08,-0.07000000000000001
1.510489940643311,2,3,3,3,-9.449999999999999,-0.4,2.46,0.29,0.04,0
1.520489931106567,2,3,3,3,-9.470000000000001,-0.36,2.5,0.29,0.04,0
1.530489921569824,2,3,3,3,-9.460000000000001,-0.36,2.51,0.28,0,0.04
1.540489912033081,2,3,3,3,-9.44,-0.35,2.54,0.23,-0.02,0.07000000000000001
1.550489902496338,2,3,3,3,-9.460000000000001,-0.33,2.46,0.2,-0.07000000000000001,0.09
1.560489892959595,2,3,3,3,-9.44,-0.31,2.5,0.12,0.01,0.09
1.570489883422852,2,3,3,3,-9.449999999999999,-0.31,2.54,0.12,0.01,0.09
1.580490112304688,2,3,3,3,-9.470000000000001,-0.31,2.56,-0.07000000000000001,0.06,0.05
1.590490102767944,2,3,3,3,-9.470000000000001,-0.35,2.49,-0.11,0.12,0.04
1.600490093231201,2,3,3,3,-9.49,-0.36,2.38,-0.1,0.13,-0.01
1.610490083694458,2,3,3,3,-9.5,-0.37,2.4,-0.01,0.13,-0.01
1.620490074157715,2,3,3,3,-9.51,-0.39,2.47,-0.01,0.13,-0.01
1.630490064620972,2,3,3,3,-9.470000000000001,-0.41,2.53,0.2,0.01,-0.03
1.640490055084229,2,3,3,3,-9.460000000000001,-0.4,2.54,0.2,-0.04,-0.01
1.650490045547485,2,3,3,3,-9.44,-0.41,2.47,0.13,-0.08,0.03
1.660490036010742,2,3,3,3,-9.41,-0.43,2.54,0.05,-0.01,0.04
1.670490026473999,2,3,3,3,-9.43,-0.42,2.51,0.05,-0.01,0.04
1.680490016937256,2,3,3,3,-9.43,-0.41,2.54,-0.1,0.08,0
1.690490007400513,2,3,3,3,-9.449999999999999,-0.38,2.53,-0.12,0.07000000000000001,-0.04
1.70048999786377,2,3,3,3,-9.5,-0.4,2.37,-0.02,0.05,-0.05
1.710489988327026,2,3,3,3,-9.51,-0.42,2.42,0.05,0.03,-0.1
1.720489978790283,2,3,3,3,-9.49,-0.42,2.46,0.05,0.03,-0.1
1.73048996925354,2,3,3,3,-9.49,-0.42,2.48,0.18,-0.11,-0.06
1.740489959716797,2,3,3,3,-9.49,-0.45,2.51,0.16,-0.1,-0.07000000000000001
1.750489950180054,2,3,3,3,-9.460000000000001,-0.44,2.46,0.07000000000000001,-0.09,-0.08
1.760489940643311,2,3,3,3,-9.460000000000001,-0.44,2.48,0.01,0,-0.07000000000000001
1.770489931106567,2,3,3,3,-9.44,-0.43,2.49,0.01,0,-0.07000000000000001
1.790489912033081,2,3,3,3,-9.48,-0.4,2.49,0.06,0.02,-0.06
1.800489902496338,2,3,3,3,-9.51,-0.4,2.38,0.14,-0.04,-0.06
1.810489892959595,2,3,3,3,-9.470000000000001,-0.44,2.47,0.15,-0.1,-0.02
1.820489883422852,2,3,3,3,-9.449999999999999,-0.44,2.49,0.15,-0.1,-0.02
1.830490112304688,2,3,3,3,-9.460000000000001,-0.43,2.5,0.15,-0.13,0.06
1.840490102767944,2,3,3,3,-9.470000000000001,-0.42,2.52,0.18,-0.27,0.08
1.850490093231201,2,3,3,3,-9.49,-0.42,2.45,0.12,-0.4,0.11
1.860490083694458,2,3,3,3,-9.49,-0.41,2.42,0.06,-0.32,0.12
1.870490074157715,2,3,3,3,-9.470000000000001,-0.42,2.4,0.06,-0.32,0.12
1.880490064620972,2,3,3,3,-9.49,-0.42,2.46,0.17,-0.26,0.11
1.890490055084229,2,3,3,3,-9.460000000000001,-0.43,2.41,0.18,-0.31,0.11
1.900490045547485,2,3,3,3,-9.460000000000001,-0.46,2.31,0.1,-0.11,0.06
1.910490036010742,2,3,3,3,-9.48,-0.44,2.4,0.16,-0.12,0.04
1.920490026473999,2,3,3,3,-9.49,-0.42,2.47,0.16,-0.12,0.04
1.930490016937256,2,3,3,3,-9.470000000000001,-0.4,2.52,-0.04,-0.16,0.05
1.940490007400513,2,3,3,3,-9.470000000000001,-0.43,2.5,-0.22,-0.14,0.06
1.95048999786377,2,3,3,3,-9.460000000000001,-0.42,2.39,-0.3,-0.06,0.05
1.960489988327026,2,3,3,3,-9.449999999999999,-0.46,2.37,-0.36,-0.01,0.01
1.970489978790283,2,3,3,3,-9.51,-0.47,2.49,-0.36,-0.01,0.01
1.98048996925354,2,3,3,3,-9.539999999999999,-0.51,2.49,-0.36,0.02,-0.04
1.990489959716797,2,3,3,3,-9.529999999999999,-0.54,2.5,-0.33,-0.05,-0.13
2.000489950180054,2,3,3,3,-9.539999999999999,-0.59,2.32,-0.28,-0.06,-0.16
2.010489940643311,2,3,3,3,-9.52,-0.59,2.37,-0.25,-0.05,-0.2
2.020489931106567,2,3,3,3,-9.49,-0.57,2.42,-0.25,-0.05,-0.2
2.030489921569824,2,3,3,3,-9.470000000000001,-0.57,2.46,-0.04,0,-0.14
2.040489912033081,2,3,3,3,-9.449999999999999,-0.64,2.48,-0.04,0.03,-0.1
2.050489902496338,2,3,3,3,-9.44,-0.67,2.38,-0.07000000000000001,0.02,-0.04
2.060489892959595,2,3,3,3,-9.44,-0.6899999999999999,2.42,-0.03,-0.02,0
2.070489883422852,2,3,3,3,-9.44,-0.77,2.45,-0.03,-0.02,0
2.080490112304688,2,3,3,3,-9.470000000000001,-0.85,2.4,0.11,-0.23,0.12
2.090490102767944,2,3,3,3,-9.49,-0.88,2.29,0.25,-0.23,0.21
2.100490093231201,2,3,3,3,-9.51,-0.83,2.2,0.41,-0.23,0.21
2.110490083694458,2,3,3,3,-9.51,-0.82,2.26,0.57,-0.17,0.21
2.120490074157715,2,3,3,3,-9.529999999999999,-0.82,2.34,0.57,-0.17,0.21
2.130490064620972,2,3,3,3,-9.550000000000001,-0.82,2.38,0.66,-0.07000000000000001,0.21
2.140490055084229,2,3,3,3,-9.529999999999999,-0.8100000000000001,2.4,0.6,0.07000000000000001,0.14
2.150490045547485,2,3,3,3,-9.539999999999999,-0.86,2.3,0.41,0.12,0.09
2.160490036010742,2,3,3,3,-9.57,-0.9399999999999999,2.31,0.21,0.18,0
2.170490026473999,2,3,3,3,-9.6,-1.01,2.3,0.21,0.18,0
2.180490016937256,2,3,3,3,-9.619999999999999,-1.03,2.27,0.1,0.22,-0.06
2.190490007400513,2,3,3,3,-9.630000000000001,-1.1,2.11,0.04,0.22,-0.12
2.20048999786377,2,3,3,3,-9.609999999999999,-1.16,2.08,0.25,0.11,-0.27
2.210489988327026,2,3,3,3,-9.6,-1.15,2.1,0.36,0.07000000000000001,-0.31
2.220489978790283,2,3,3,3,-9.550000000000001,-1.21,2.14,0.36,0.07000000000000001,-0.31
2.23048996925354,2,3,3,3,-9.48,-1.3,2.24,0.49,0.07000000000000001,-0.35
2.240489959716797,2,3,3,3,-9.460000000000001,-1.32,2.17,0.47,0.09,-0.32
2.250489950180054,2,3,3,3,-9.44,-1.31,2.02,0.47,0.09,-0.32
2.260489940643311,2,3,3,3,-9.44,-1.33,2.03,0.59,0.17,-0.25
2.270489931106567,2,3,3,3,-9.52,-1.4,2.2,0.72,0.09,-0.19
2.281490087509155,2,3,3,3,-9.449999999999999,-1.43,2.18,0.6899999999999999,-0.01,-0.09
2.291490077972412,2,3,3,3,-9.42,-1.41,2.03,0.51,0.18,0.04
2.301490068435669,2,3,3,3,-9.48,-1.34,1.92,0.41,0.5600000000000001,0.15
2.311490058898926,2,3,3,3,-9.69,-1.17,2.04,0.54,0.8100000000000001,0.27
2.321490049362183,2,3,3,3,-9.67,-1.02,2.16,0.78,0.75,0.24
2.331490039825439,2,3,3,3,-9.529999999999999,-0.92,2.24,0.77,0.59,0.21
2.341490030288696,2,3,3,3,-9.41,-0.76,2.14,0.5,0.61,0.26
2.351490020751953,2,3,3,3,-9.460000000000001,-0.78,2.13,0.23,0.8100000000000001,0.3
2.36149001121521,2,3,3,3,-9.529999999999999,-0.75,2.17,0.18,1.01,0.27
2.371490001678467,2,3,3,3,-9.460000000000001,-0.58,2.21,0.26,1.41,0.19
2.381489992141724,2,3,3,3,-9.43,-0.19,2.23,0.5,2.09,0.01
2.39148998260498,2,3,3,3,-9.49,0,2.4,1.01,2.44,-0.37
2.401489973068237,2,3,3,3,-9.6,0.1,2.44,1.18,2.5,-0.92
2.411489963531494,2,3,3,3,-9.720000000000001,0.2,2.53,0.6899999999999999,2.37,-1.5
2.421489953994751,2,3,3,3,-9.76,0.11,2.55,-0.13,2.4,-1.96
2.431489944458008,2,3,3,3,-9.699999999999999,0.04,2.4,-0.87,2.76,-2.39
2.441489934921265,2,3,3,3,-9.6,-0.11,2.39,-1.29,2.93,-2.8
2.451489925384521,2,3,3,3,-9.51,-0.26,2.29,-1.41,2.85,-3.08
2.461489915847778,2,3,3,3,-9.41,-0.54,2.21,-1.42,2.58,-3.33
2.471489906311035,2,3,3,3,-9.470000000000001,-0.6,2.18,-1.34,2.41,-3.54
2.481489896774292,2,3,3,3,-9.550000000000001,-0.62,2.17,-1,2.24,-3.69
2.491489887237549,2,3,3,3,-9.57,-0.63,2.15,-0.75,1.95,-3.86
2.501489877700806,2,3,3,3,-9.69,-0.54,2.3,-0.53,1.69,-3.92
2.511490106582642,2,3,3,3,-9.699999999999999,-0.58,2.41,-0.49,1.25,-3.94
2.521490097045898,2,3,3,3,-9.619999999999999,-0.5600000000000001,2.38,-0.55,1,-3.94
2.531490087509155,2,3,3,3,-9.41,-0.52,2.54,-0.51,1.04,-3.91
2.541490077972412,2,3,3,3,-9.42,-0.49,2.49,-0.39,1.13,-3.81
2.551490068435669,2,3,3,3,-9.4,-0.49,2.34,-0.51,1.29,-3.73
2.561490058898926,2,3,3,3,-9.4,-0.45,2.41,-0.52,1.41,-3.67
2.571490049362183,2,3,3,3,-9.44,-0.41,2.36,-0.53,1.26,-3.56
2.581490039825439,2,3,3,3,-9.449999999999999,-0.45,2.25,-0.5,1.06,-3.46
2.591490030288696,2,3,3,3,-9.48,-0.5,2.24,-0.35,0.96,-3.3
2.601490020751953,2,3,3,3,-9.51,-0.57,2.2,-0.21,0.75,-3.1
2.61149001121521,2,3,3,3,-9.43,-0.7,2.08,-0.16,0.54,-2.85
2.621490001678467,2,3,3,3,-9.44,-0.71,2.11,0.06,0.52,-2.53
2.631489992141724,2,3,3,3,-9.449999999999999,-0.77,2.17,0.39,0.45,-2.17
2.64148998260498,2,3,3,3,-9.44,-0.74,2.21,0.59,0.28,-1.8
2.651489973068237,2,3,3,3,-9.43,-0.68,2.07,0.75,0.22,-1.44
2.661489963531494,2,3,3,3,-9.4,-0.66,2.06,0.77,0.22,-1.09
2.671489953994751,2,3,3,3,-9.44,-0.62,2.07,0.72,0.23,-0.8100000000000001
2.681489944458008,2,3,3,3,-9.49,-0.64,2.06,0.6899999999999999,0.18,-0.55
2.691489934921265,2,3,3,3,-9.619999999999999,-0.59,1.98,0.71,0.13,-0.35
2.701489925384521,2,3,3,3,-9.68,-0.5600000000000001,1.94,0.72,0.05,-0.21
2.711489915847778,2,3,3,3,-9.75,-0.54,1.93,0.55,-0.04,-0.15
2.721489906311035,2,3,3,3,-9.66,-0.5600000000000001,2,0.27,-0.04,-0.11
2.731489896774292,2,3,3,3,-9.6,-0.59,2.12,0.15,0,-0.14
2.741489887237549,2,3,3,3,-9.529999999999999,-0.7,2.12,-0.09,-0.03,-0.13
2.751489877700806,2,3,3,3,-9.52,-0.77,1.99,-0.39,0.08,-0.15
2.761490106582642,2,3,3,3,-9.52,-0.9399999999999999,1.95,-0.54,0.18,-0.13
2.771490097045898,2,3,3,3,-9.57,-0.99,1.98,-0.63,0.18,-0.09
2.781490087509155,2,3,3,3,-9.59,-1.04,2.01,-0.66,0.06,-0.05
2.791490077972412,2,3,3,3,-9.56,-1.08,1.98,-0.65,-0.01,-0.02
2.801490068435669,2,3,3,3,-9.5,-1.2,1.8,-0.6,-0.02,0.05
2.811490058898926,2,3,3,3,-9.44,-1.26,1.88,-0.52,0.04,0.08
2.821490049362183,2,3,3,3,-9.42,-1.29,1.95,-0.4,0.12,0.1
2.831490039825439,2,3,3,3,-9.460000000000001,-1.32,1.95,-0.35,0.11,0.06
2.841490030288696,2,3,3,3,-9.58,-1.36,1.9,-0.32,0.02,0.06
2.851490020751953,2,3,3,3,-9.550000000000001,-1.31,1.83,-0.23,-0.12,0.14
2.86149001121521,2,3,3,3,-9.529999999999999,-1.3,1.88,-0.16,-0.19,0.21
2.871490001678467,2,3,3,3,-9.470000000000001,-1.33,1.94,-0.14,-0.22,0.31
2.881489992141724,2,3,3,3,-9.44,-1.34,1.99,-0.1,-0.11,0.41
2.89148998260498,2,3,3,3,-9.460000000000001,-1.38,1.97,-0.09,-0.02,0.49
2.901489973068237,2,3,3,3,-9.52,-1.35,1.88,-0.03,-0.03,0.52
2.911489963531494,2,3,3,3,-9.59,-1.3,1.93,0.02,-0.12,0.5
2.921489953994751,2,3,3,3,-9.58,-1.26,1.92,0.05,-0.1,0.51
2.931489944458008,2,3,3,3,-9.59,-1.23,1.94,0.07000000000000001,-0.12,0.47
2.941489934921265,2,3,3,3,-9.550000000000001,-1.19,1.94,0.05,-0.05,0.47
2.951489925384521,2,3,3,3,-9.52,-1.19,1.89,0.02,0.02,0.47
2.961489915847778,2,3,3,3,-9.550000000000001,-1.18,1.92,0.01,0.05,0.44
2.971489906311035,2,3,3,3,-9.550000000000001,-1.2,1.94,-0.01,0.02,0.47
2.981489896774292,2,3,3,3,-9.539999999999999,-1.22,1.97,0.02,-0.06,0.49
2.991489887237549,2,3,3,3,-9.529999999999999,-1.24,1.9,0.03,-0.15,0.55
3.001489877700806,2,3,3,3,-9.51,-1.27,1.83,0.08,-0.21,0.62
3.011490106582642,2,3,3,3,-9.5,-1.24,1.87,0.16,-0.17,0.67
3.021490097045898,2,3,3,3,-9.529999999999999,-1.22,1.93,0.19,-0.08,0.71
3.031490087509155,2,3,3,3,-9.539999999999999,-1.13,1.97,0.26,-0.05,0.71
3.041490077972412,2,3,3,3,-9.550000000000001,-1.1,1.96,0.22,-0.04,0.6899999999999999
3.051490068435669,2,3,3,3,-9.550000000000001,-1.1,1.85,0.21,0,0.65
3.061490058898926,2,3,3,3,-9.57,-1.1,1.89,0.16,0.13,0.58
3.071490049362183,2,3,3,3,-9.550000000000001,-1.09,1.89,0.06,0.15,0.54
3.081490039825439,2,3,3,3,-9.58,-1.09,1.94,0.06,0.19,0.49
3.091490030288696,2,3,3,3,-9.56,-1.11,1.91,0.06,0.16,0.44
3.101490020751953,2,3,3,3,-9.51,-1.16,1.8,0.01,0.11,0.45
3.11149001121521,2,3,3,3,-9.48,-1.16,1.88,-0.09,0.06,0.44
3.121490001678467,2,3,3,3,-9.52,-1.18,1.94,-0.04,0.09,0.49
3.131489992141724,2,3,3,3,-9.550000000000001,-1.18,1.92,0.03,0.11,0.49
3.14148998260498,2,3,3,3,-9.58,-1.16,1.9,0.08,0.12,0.51
3.151489973068237,2,3,3,3,-9.58,-1.1,1.9,0.15,0.09,0.52
3.161489963531494,2,3,3,3,-9.58,-1.09,1.92,0.1,0.03,0.54
3.171489953994751,2,3,3,3,-9.58,-1.06,1.89,0.08,0.05,0.55
3.181489944458008,2,3,3,3,-9.59,-1.02,1.98,0.12,0.01,0.57
3.191489934921265,2,3,3,3,-9.56,-0.98,1.96,0.1,-0.13,0.61
3.201489925384521,2,3,3,3,-9.52,-1.01,1.89,0.08,-0.16,0.63
3.211489915847778,2,3,3,3,-9.529999999999999,-0.98,1.94,0.13,-0.01,0.62
3.221489906311035,2,3,3,3,-9.57,-0.97,1.98,0.13,0.01,0.63
3.231489896774292,2,3,3,3,-9.56,-1.02,1.99,0.09,0,0.6
3.241489887237549,2,3,3,3,-9.56,-1.03,1.97,0.05,0,0.61
3.251489877700806,2,3,3,3,-9.539999999999999,-1.04,1.83,0.02,-0.01,0.5600000000000001
3.261490106582642,2,3,3,3,-9.539999999999999,-1.1,1.89,0.06,0.09,0.59
3.271490097045898,2,3,3,3,-9.52,-1.13,1.93,0.09,0.07000000000000001,0.62
3.281490087509155,2,3,3,3,-9.539999999999999,-1.13,1.96,0.16,-0.01,0.67
3.291490077972412,2,3,3,3,-9.56,-1.09,1.91,0.26,-0.06,0.7
3.302489995956421,2,3,3,3,-9.539999999999999,-1.03,1.82,0.36,-0.16,0.72
3.312489986419678,2,3,3,3,-9.539999999999999,-0.95,1.83,0.43,-0.21,0.75
3.322489976882935,2,3,3,3,-9.529999999999999,-0.9,1.92,0.55,-0.2,0.76
3.332489967346191,2,3,3,3,-9.609999999999999,-0.77,1.97,0.55,-0.24,0.74
3.342489957809448,2,3,3,3,-9.619999999999999,-0.74,1.9,0.4,-0.3,0.71
3.352489948272705,2,3,3,3,-9.619999999999999,-0.6899999999999999,1.81,0.34,-0.23,0.65
3.362489938735962,2,3,3,3,-9.630000000000001,-0.66,1.92,0.35,-0.27,0.53
3.372489929199219,2,3,3,3,-9.57,-0.66,2.04,0.25,-0.23,0.42
3.382489919662476,2,3,3,3,-9.550000000000001,-0.67,2.02,0.16,-0.16,0.34
3.392489910125732,2,3,3,3,-9.58,-0.68,2.04,0.12,-0.1,0.27
3.402489900588989,2,3,3,3,-9.57,-0.6899999999999999,1.96,0.05,-0.14,0.24
3.412489891052246,2,3,3,3,-9.58,-0.73,1.93,-0.06,-0.2,0.23
3.422489881515503,2,3,3,3,-9.6,-0.6899999999999999,1.93,-0.13,-0.26,0.26
3.432490110397339,2,3,3,3,-9.66,-0.68,2,-0.17,-0.32,0.29
3.442490100860596,2,3,3,3,-9.66,-0.74,1.94,-0.22,-0.42,0.33
3.452490091323853,2,3,3,3,-9.640000000000001,-0.76,1.87,-0.31,-0.44,0.36
3.462490081787109,2,3,3,3,-9.57,-0.85,1.88,-0.35,-0.52,0.46
3.472490072250366,2,3,3,3,-9.550000000000001,-0.89,1.93,-0.35,-0.67,0.58
3.482490062713623,2,3,3,3,-9.5,-0.98,1.97,-0.28,-0.73,0.71
3.49249005317688,2,3,3,3,-9.529999999999999,-1.02,1.97,-0.19,-0.86,0.89
3.502490043640137,2,3,3,3,-9.49,-1.05,1.88,-0.14,-1.01,1.1
3.512490034103394,2,3,3,3,-9.48,-1.06,1.92,-0.07000000000000001,-1.18,1.35
3.52249002456665,2,3,3,3,-9.51,-1.02,1.97,-0.06,-1.37,1.47
3.532490015029907,2,3,3,3,-9.52,-1.01,2.03,0.05,-1.33,1.56
3.542490005493164,2,3,3,3,-9.51,-1,2.1,0.28,-1.33,1.61
3.552489995956421,2,3,3,3,-9.380000000000001,-0.99,1.94,0.15,-1.42,1.53
3.562489986419678,2,3,3,3,-9.34,-1.03,1.94,0.08,-1.21,1.49
3.572489976882935,2,3,3,3,-9.49,-1.01,2.04,0.22,-0.95,1.45
3.582489967346191,2,3,3,3,-9.630000000000001,-0.99,2.09,0.38,-0.86,1.38
3.592489957809448,2,3,3,3,-9.699999999999999,-0.9399999999999999,2.06,0.57,-0.86,1.29
3.602489948272705,2,3,3,3,-9.58,-0.82,2.01,0.77,-0.78,1.21
3.612489938735962,2,3,3,3,-9.460000000000001,-0.82,2.07,0.87,-0.6899999999999999,1.1
3.622489929199219,2,3,3,3,-9.41,-0.85,2.15,0.89,-0.57,1.01
3.632489919662476,2,3,3,3,-9.539999999999999,-0.76,2.25,0.92,-0.55,0.9399999999999999
3.642489910125732,2,3,3,3,-9.609999999999999,-0.6899999999999999,2.14,0.78,-0.61,0.9
3.652489900588989,2,3,3,3,-9.68,-0.62,2.02,0.66,-0.63,0.92
3.662489891052246,2,3,3,3,-9.68,-0.5600000000000001,2.01,0.65,-0.68,0.92
3.672489881515503,2,3,3,3,-9.51,-0.49,2.17,0.72,-0.7,0.86
3.682490110397339,2,3,3,3,-9.449999999999999,-0.52,2.22,0.72,-0.64,0.85
3.692490100860596,2,3,3,3,-9.44,-0.53,2.21,0.58,-0.6,0.8100000000000001
3.702490091323853,2,3,3,3,-9.48,-0.51,2.08,0.41,-0.49,0.73
3.712490081787109,2,3,3,3,-9.630000000000001,-0.49,2.18,0.48,-0.59,0.66
3.722490072250366,2,3,3,3,-9.609999999999999,-0.45,2.29,0.58,-0.92,0.57
3.732490062713623,2,3,3,3,-9.529999999999999,-0.46,2.29,0.45,-1.19,0.53
3.74249005317688,2,3,3,3,-9.529999999999999,-0.49,2.27,0.31,-1.1,0.49
3.752490043640137,2,3,3,3,-9.529999999999999,-0.55,2.11,0.07000000000000001,-0.96,0.42
3.762490034103394,2,3,3,3,-9.529999999999999,-0.61,2.12,-0.26,-0.78,0.35
3.77249002456665,2,3,3,3,-9.59,-0.65,2.11,-0.54,-0.59,0.27
3.782490015029907,2,3,3,3,-9.619999999999999,-0.72,2.12,-0.72,-0.43,0.17
3.792490005493164,2,3,3,3,-9.640000000000001,-0.84,2.04,-0.79,-0.49,0.01
3.802489995956421,2,3,3,3,-9.619999999999999,-0.89,2.03,-0.71,-0.59,-0.17
3.812489986419678,2,3,3,3,-9.59,-0.99,2.1,-0.58,-0.75,-0.29
3.822489976882935,2,3,3,3,-9.44,-1.17,1.98,-0.66,-0.8,-0.27
3.832489967346191,2,3,3,3,-9.51,-1.22,2.02,-0.61,-0.58,-0.28
3.842489957809448,2,3,3,3,-9.6,-1.17,2.1,-0.28,-0.44,-0.28
3.852489948272705,2,3,3,3,-9.619999999999999,-1.05,2.03,-0.03,-0.34,-0.29
3.862489938735962,2,3,3,3,-9.4,-0.84,2.13,0.06,-0.23,-0.29
3.872489929199219,2,3,3,3,-9.25,-0.8,2.25,0.16,-0.14,-0.29
3.882489919662476,2,3,3,3,-9.140000000000001,-0.77,2.4,0.26,-0.05,-0.25
3.892489910125732,2,3,3,3,-9.18,-0.8,2.42,0.18,0.03,-0.26
3.902489900588989,2,3,3,3,-9.43,-0.76,2.22,0.14,0.04,-0.22
3.912489891052246,2,3,3,3,-9.56,-0.74,2.27,0.12,-0.06,-0.22
3.922489881515503,2,3,3,3,-9.529999999999999,-0.79,2.25,-0.04,-0.09,-0.27
3.932490110397339,2,3,3,3,-9.460000000000001,-0.88,2.07,-0.36,0.29,-0.31
3.942490100860596,2,3,3,3,-9.720000000000001,-0.72,2.3,-0.29,0.64,-0.4
3.952490091323853,2,3,3,3,-9.77,-0.62,2.22,-0.35,0.74,-0.5600000000000001
3.962490081787109,2,3,3,3,-9.76,-0.5,2.19,-0.57,1,-0.79
3.972490072250366,2,3,3,3,-9.77,-0.42,2.27,-0.59,1.22,-1.04
3.982490062713623,2,3,3,3,-9.59,-0.47,2.24,-0.67,1.13,-1.26
3.99249005317688,2,3,3,3,-9.460000000000001,-0.54,2.14,-0.78,1.08,-1.39
4.002490043640137,2,3,3,3,-9.359999999999999,-0.64,2.06,-0.83,1.21,-1.36
4.012490034103394,2,3,3,3,-9.35,-0.85,2.26,-0.79,1.2,-1.2
4.02249002456665,2,3,3,3,-9.34,-0.86,2.2,-0.82,1.01,-0.93
4.032490015029907,2,3,3,3,-9.369999999999999,-0.9,2.2,-0.73,0.92,-0.5600000000000001
4.042490005493164,2,3,3,3,-9.43,-0.89,2.27,-0.59,0.98,-0.26
4.052489995956421,2,3,3,3,-9.529999999999999,-0.84,2.2,-0.52,1.06,-0.1
4.062489986419678,2,3,3,3,-9.66,-0.78,2.19,-0.42,1.09,-0.09
4.072489976882935,2,3,3,3,-9.800000000000001,-0.73,2.25,-0.44,0.98,-0.15
4.082489967346191,2,3,3,3,-9.859999999999999,-0.6899999999999999,2.27,-0.52,0.62,-0.31
4.092489957809448,2,3,3,3,-9.710000000000001,-0.61,2.06,-0.61,0.02,-0.47
4.102489948272705,2,3,3,3,-9.51,-0.64,1.93,-0.75,-0.38,-0.5
4.112489938735962,2,3,3,3,-9.43,-0.74,2.09,-0.82,-0.34,-0.5
4.122489929199219,2,3,3,3,-9.43,-0.85,2.28,-1,-0.28,-0.53
4.132489919662476,2,3,3,3,-9.68,-1.22,2.36,-1.36,-0.17,-0.55
4.142489910125732,2,3,3,3,-9.9,-1.21,2.24,-1.44,0.04,-0.6
4.152489900588989,2,3,3,3,-10.12,-1.19,2.07,-1.34,-0.21,-0.68
4.162489891052246,2,3,3,3,-10.15,-1.11,1.86,-1.19,-0.82,-0.73
4.172489881515503,2,3,3,3,-9.640000000000001,-1.14,1.79,-1.01,-1.29,-0.77
4.182490110397339,2,3,3,3,-9.300000000000001,-1.23,1.92,-0.9,-1.47,-0.72
4.192490100860596,2,3,3,3,-9.050000000000001,-1.35,2,-0.9399999999999999,-1.3,-0.65
4.202490091323853,2,3,3,3,-8.960000000000001,-1.45,1.92,-0.86,-0.84,-0.5
4.212490081787109,2,3,3,3,-9.050000000000001,-1.47,1.98,-0.61,-0.47,-0.28
4.222490072250366,2,3,3,3,-9.16,-1.48,2.09,-0.32,-0.36,-0.07000000000000001
4.232490062713623,2,3,3,3,-9.23,-1.44,2.11,-0.25,-0.49,0.18
4.24249005317688,2,3,3,3,-9.33,-1.34,1.89,-0.38,-0.58,0.38
4.252490043640137,2,3,3,3,-9.33,-1.28,1.72,-0.45,-0.47,0.5600000000000001
4.262490034103394,2,3,3,3,-9.41,-1.2,1.84,-0.31,-0.27,0.71
4.27249002456665,2,3,3,3,-9.44,-1.19,2.01,-0.23,-0.38,0.79
4.282490015029907,2,3,3,3,-9.51,-1.25,2.15,-0.27,-0.6,0.84
4.292490005493164,2,3,3,3,-9.6,-1.3,2.2,-0.06,-0.93,0.8
4.302489995956421,2,3,3,3,-9.550000000000001,-1.28,1.97,-0.06,-1.48,0.71
4.312489986419678,2,3,3,3,-9.4,-1.27,1.73,-0.48,-1.55,0.57
4.323489904403687,2,3,3,3,-9.4,-1.22,2,-0.49,-1.18,0.42
4.333489894866943,2,3,3,3,-9.48,-1.19,2.13,-0.32,-0.8,0.26
4.3434898853302,2,3,3,3,-9.640000000000001,-1.23,2.15,-0.27,-0.45,0.18
4.353489875793457,2,3,3,3,-9.85,-1.22,2.04,-0.14,-0.26,0.06
4.363490104675293,2,3,3,3,-10.12,-1.12,2.15,-0.11,-0.34,-0.09
4.37349009513855,2,3,3,3,-10.05,-1.06,2.11,-0.17,-0.57,-0.26
4.383490085601807,2,3,3,3,-9.869999999999999,-1,2.07,-0.37,-0.7,-0.45
4.393490076065063,2,3,3,3,-9.57,-1,2.38,-0.34,-0.8,-0.58
4.40349006652832,2,3,3,3,-9.44,-1,2.3,-0.39,-1.01,-0.8
4.413490056991577,2,3,3,3,-9.23,-1.06,1.97,-0.98,-0.91,-1
4.423490047454834,2,3,3,3,-9.15,-1.15,1.76,-1.43,-0.06,-1.24
4.433490037918091,2,3,3,3,-9.33,-1.28,2.06,-1.16,0.5600000000000001,-1.43
4.443490028381348,2,3,3,3,-9.4,-1.43,2.17,-1,0.5600000000000001,-1.59
4.453490018844604,2,3,3,3,-9.43,-1.66,2.15,-0.88,0.35,-1.67
4.463490009307861,2,3,3,3,-9.35,-1.82,1.98,-1.22,0.22,-1.65
4.473489999771118,2,3,3,3,-9.380000000000001,-2.04,1.58,-1.55,0.6899999999999999,-1.55
4.483489990234375,2,3,3,3,-9.779999999999999,-1.93,1.67,-0.97,0.79,-1.3
4.493489980697632,2,3,3,3,-10.05,-1.82,1.8,-0.37,0.34,-1.05
4.503489971160889,2,3,3,3,-10.16,-1.7,1.72,0.34,0.04,-0.8
4.513489961624146,2,3,3,3,-9.84,-1.3,1.9,1.03,-0.06,-0.53
4.523489952087402,2,3,3,3,-9.529999999999999,-1.12,2.02,1.33,-0.06,-0.38
4.533489942550659,2,3,3,3,-9.25,-0.99,2.11,1.3,0.09,-0.38
4.543489933013916,2,3,3,3,-9.289999999999999,-0.96,2.24,1.28,0.38,-0.41
4.553489923477173,2,3,3,3,-9.35,-0.9399999999999999,2.13,1.14,0.55,-0.58
4.56348991394043,2,3,3,3,-9.35,-0.89,2.05,0.71,0.71,-0.71
4.573489904403687,2,3,3,3,-9.279999999999999,-0.79,1.98,0.23,1.02,-0.86
4.583489894866943,2,3,3,3,-9.140000000000001,-0.83,2.06,-0.19,1.35,-1
4.5934898853302,2,3,3,3,-9.18,-0.95,2.15,-0.48,1.52,-1.15
4.603489875793457,2,3,3,3,-9.279999999999999,-1.08,2.02,-0.8100000000000001,1.16,-1.37
4.613490104675293,2,3,3,3,-9.390000000000001,-1.19,1.89,-1.34,0.77,-1.49
4.62349009513855,2,3,3,3,-9.56,-1.57,1.61,-2.07,0.55,-1.72
4.633490085601807,2,3,3,3,-9.550000000000001,-1.81,1.48,-2.71,0.27,-2.06
4.643490076065063,2,3,3,3,-9.4,-2.05,1.36,-3.29,0.04,-2.56
4.65349006652832,2,3,3,3,-9.18,-2.36,1.18,-3.92,0.03,-3.12
4.663490056991577,2,3,3,3,-8.68,-3.05,0.75,-4.48,0.24,-3.89
4.673490047454834,2,3,3,3,-8.4,-3.22,0.39,-5.03,0.5,-4.88
4.683490037918091,2,3,3,3,-7.96,-3.22,0.14,-5.28,0.71,-6.19
4.693490028381348,2,3,3,3,-7.61,-3.03,0.28,-4.51,0.31,-7.69
4.703490018844604,2,3,3,3,-6.29,-2.45,0.05,-3.7,-1.38,-9.109999999999999
4.713490009307861,2,3,3,3,-5.28,-2.37,0.11,-3.6,-3.48,-10.24
4.723489999771118,2,3,3,3,-4.36,-2.44,0.26,-2.7,-5,-11.06
4.733489990234375,2,3,3,3,-1.81,-1.8,-0.29,-1.83,-5.95,-11.69
4.743489980697632,2,3,3,3,-0.51,-1.34,-0.76,-1.39,-5.03,-11.66
4.753489971160889,2,3,3,3,0.42,-0.84,-0.39,1.18,-2.48,-10.35
4.763489961624146,2,3,3,3,0.87,-0.37,1.02,4.81,-0.52,-7.66
4.773489952087402,2,3,3,3,0.35,-0.08,2.72,6.37,-0.19,-4.44
4.783489942550659,2,3,3,3,-0.43,-0.31,2.81,5.48,-0.9,-1.54
4.793489933013916,2,3,3,3,-1.54,-0.47,3.05,3.9,-1.31,0.88
4.803489923477173,2,3,3,3,-3.24,-0.6899999999999999,3.53,3.23,-0.54,2.85
4.81348991394043,2,3,3,3,-6.36,-1.34,3.89,1.89,-0.05,3.88
4.823489904403687,2,3,3,3,-7.66,-1.47,3.44,-0.48,0.31,3.98
4.833489894866943,2,3,3,3,-9.35,-1.31,3.35,-2.1,1.51,3.13
4.8434898853302,2,3,3,3,-12.03,-0.73,3.89,-2.81,2.93,1.28
4.853489875793457,2,3,3,3,-17.82,-0.32,4.34,-3.63,2.42,-1.54
4.863490104675293,2,3,3,3,-18.85,-0.43,3.41,-4.51,1.28,-4.58
4.87349009513855,2,3,3,3,-18.76,-0.93,2.27,-4.44,0.47,-7.76
4.883490085601807,2,3,3,3,-17.83,-1.22,1.37,-2.62,-2.07,-10.28
4.893490076065063,2,3,3,3,-14.52,-1.79,1.92,-1.85,-6.07,-10.69
4.90349006652832,2,3,3,3,-12.4,-2.07,2.68,-2.16,-9.35,-8.119999999999999
4.913490056991577,2,3,3,3,-10.26,-2.2,3.67,-2.86,-9.449999999999999,-3.36
4.923490047454834,2,3,3,3,-8.81,-3.28,5.71,-3.08,-7.5,1.42
4.933490037918091,2,3,3,3,-9.949999999999999,-3.48,6.46,-2.24,-5.71,4.73
4.943490028381348,2,3,3,3,-11.91,-3.1,7.01,-1.56,-3.61,5.86
4.953490018844604,2,3,3,3,-14.13,-2.75,6.87,-3.08,-2.88,5.86
4.963490009307861,2,3,3,3,-17.88,-2.64,6.87,-5.07,-3.78,5.43
4.973489999771118,2,3,3,3,-18.3,-2.87,6.3,-5.1,-3.87,4.89
4.983489990234375,2,3,3,3,-18.45,-3.49,5.64,-3.62,-0.6899999999999999,4.03
4.993489980697632,2,3,3,3,-19.34,-4.79,4.92,-1.59,2.99,2.16
5.003489971160889,2,3,3,3,-22.66,-5.48,4.84,0.38,3.66,-0.58
5.013489961624146,2,3,3,3,-23.86,-4.79,5.79,1.85,1.29,-2.99
5.023489952087402,2,3,3,3,-24.09,-4.14,6.65,2.87,-0.16,-4.02
5.033489942550659,2,3,3,3,-23.9,-3.5,6.82,3.57,2.09,-3.29
5.043489933013916,2,3,3,3,-23.21,-2.08,7.08,3.74,6.7,-1.29
5.053489923477173,2,3,3,3,-22.72,-1.49,7.34,5.61,8.550000000000001,1.08
5.06348991394043,2,3,3,3,-22.09,-1.32,7.45,6.06,6.72,3.47
5.073489904403687,2,3,3,3,-21.78,-1.39,7.25,5.38,4.8,5.6
5.083489894866943,2,3,3,3,-22.82,-0.95,7.21,5.55,5.39,7.18
5.0934898853302,2,3,3,3,-23.93,-0.64,6.92,6.13,7.04,8.130000000000001
5.103489875793457,2,3,3,3,-24.78,-0.24,6.64,6.68,7.86,8.210000000000001
5.113490104675293,2,3,3,3,-24.07,-0.07000000000000001,6.07,6.23,7.67,7.33
5.12349009513855,2,3,3,3,-23.37,-0.77,5.53,5.14,8.16,6.1
5.133490085601807,2,3,3,3,-21.82,-1.84,5.19,4.39,6.96,5.17
5.143490076065063,2,3,3,3,-19.56,-3,5.04,4.35,4.5,4.28
5.15349006652832,2,3,3,3,-12.81,-6.92,3.16,3.49,4.02,2.65
5.163490056991577,2,3,3,3,-8.960000000000001,-8.66,1.98,3.18,6.1,-0.16
5.173490047454834,2,3,3,3,-5.16,-8.32,0,3.46,7.05,-3.41
5.183490037918091,2,3,3,3,-2.06,-7.04,-1.91,0.92,7.77,-4.39
5.193490028381348,2,3,3,3,2.07,-4.72,-1.54,-2.79,9.210000000000001,-3.54
5.203490018844604,2,3,3,3,3.53,-7.23,-0.77,-10.15,5.08,-5.44
5.213490009307861,2,3,3,3,3.23,-10.82,-6.2,-23,-5.02,-8.19
5.223489999771118,2,3,3,3,3.75,-12.16,-11.62,-27.08,-8.56,-7.17
5.233489990234375,2,3,3,3,4.97,-10.2,-6.59,-12.1,-3.48,-6.19
5.243489980697632,2,3,3,3,5.38,-7.88,-3.18,4.08,1.35,-6.17
5.253489971160889,2,3,3,3,5.1,-6.46,-0.44,10.94,0.08,-4.59
5.263489961624146,2,3,3,3,4.22,-4.93,1.54,14.37,-2.32,0.5600000000000001
5.273489952087402,2,3,3,3,2.98,-0.14,2.19,13.89,-5.03,5.18
5.283489942550659,2,3,3,3,2.95,1.43,1.56,11.25,-6.97,7.55
5.293489933013916,2,3,3,3,2.83,2.65,0.79,9.02,-7.21,9.35
5.303489923477173,2,3,3,3,2.63,4.14,-0.8,7.25,-5.41,10.51
5.31348991394043,2,3,3,3,1.42,4.46,-0.17,7.66,-2.88,11.52
5.323489904403687,2,3,3,3,0,4.5,0.57,8.880000000000001,-1.66,11.37
5.333489894866943,2,3,3,3,-1.16,4.06,1.22,8.92,-1.22,10.81
5.3434898853302,2,3,3,3,-2.85,2.21,2.19,7.68,-0.9399999999999999,10.26
5.354490041732788,2,3,3,3,-3.3,1.35,2.39,5.37,-2.04,9.81
5.364490032196045,2,3,3,3,-3.73,0.84,2.36,1.9,-3.39,8.82
5.374490022659302,2,3,3,3,-4.01,0.51,1.9,-1.72,-5.11,6.58
5.384490013122559,2,3,3,3,-3.18,0.76,0.26,-5.15,-5.48,3.74
5.394490003585815,2,3,3,3,-2.87,1.25,-0.85,-7.52,-3.4,0.57
5.404489994049072,2,3,3,3,-2.88,1.67,-1.65,-7.93,0.77,-3.02
5.414489984512329,2,3,3,3,-3.11,1.92,-1.78,-6.17,4.42,-6.73
5.424489974975586,2,3,3,3,-2.2,1.66,-1,-3.43,5.65,-9.869999999999999
5.434489965438843,2,3,3,3,-1.47,1.31,-0.22,-1.14,5.71,-12.18
5.4444899559021,2,3,3,3,-0.61,0.74,0.34,-1.15,5.01,-13.66
5.454489946365356,2,3,3,3,0.65,-0.3,-0.35,-3.92,4.15,-14.35
5.464489936828613,2,3,3,3,2.46,-1.78,-1,-5.07,3.32,-14.48
5.47448992729187,2,3,3,3,2.87,-2,-0.96,-4.28,1.9,-14.46
5.484489917755127,2,3,3,3,3.22,-2.12,-1.1,-3.28,0.53,-13.96
5.494489908218384,2,3,3,3,3.08,-1.61,-1.21,-1.52,0.26,-12.28
5.504489898681641,2,3,3,3,2.64,-0.72,-1.4,1.14,-0.01,-9.27
5.514489889144897,2,3,3,3,2.1,0.15,-1.1,3.42,-0.5,-5.12
5.524489879608154,2,3,3,3,1.36,0.82,-0.57,5.2,-0.95,-0.74
5.53449010848999,2,3,3,3,0.83,1.84,-0.24,6.24,-1.1,2.99
5.544490098953247,2,3,3,3,0.59,1.88,-0.18,6.51,-0.97,5.95
5.554490089416504,2,3,3,3,0.49,1.49,1.05,7.02,-1.16,7.97
5.564490079879761,2,3,3,3,0.18,0.48,2.13,7.07,-1.39,9.640000000000001
5.574490070343018,2,3,3,3,-2.98,-3.15,1.73,5.41,-4.73,11.97
5.584490060806274,2,3,3,3,-2.64,-5.2,1.75,4.88,-9.92,14.13
5.594490051269531,2,3,3,3,-0.6,-7.95,1.8,3.48,-9.09,15.02
5.604490041732788,2,3,3,3,0.36,-10.42,1.99,3.19,1.12,16.73
5.614490032196045,2,3,3,3,-14.11,-8.35,8.029999999999999,2.07,14.3,19.71
5.624490022659302,2,3,3,3,-31.16,-9.869999999999999,9.52,-3.85,19.06,20.94
5.634490013122559,2,3,3,3,-39.11,-8.949999999999999,10.82,8.140000000000001,-11.77,21.91
5.644490003585815,2,3,3,3,-39.06,-0.27,-2.39,23.85,-16.69,7.48
5.654489994049072,2,3,3,3,-25.84,16.66,2.08,19.22,17.88,-12.99
5.664489984512329,2,3,3,3,-16.21,11.53,12.58,9.609999999999999,-4.48,-16.11
5.674489974975586,2,3,3,3,-18.06,0.39,14.65,-6.79,-8.56,-3.9
5.684489965438843,2,3,3,3,-18.06,0.39,14.65,-9.41,-5.53,10.2
5.6944899559021,2,3,3,3,-19.32,-5.89,5.49,-7.84,-6.46,14.54
5.704489946365356,2,3,3,3,-17.27,-3.24,5.16,-2.65,-2.4,11.28
5.714489936828613,2,3,3,3,-17.61,0.66,6.27,0.12,5.81,7.52
5.72448992729187,2,3,3,3,-23.35,3.14,5.15,2.3,10.98,4.61
5.734489917755127,2,3,3,3,-23.35,3.14,5.15,7.4,7.19,0.67
5.744489908218384,2,3,3,3,-24.65,3.25,2.86,10.26,-1.83,-1.4
5.754489898681641,2,3,3,3,-20.99,2.52,4.51,7.05,-7.52,-2.1
5.764489889144897,2,3,3,3,-15.12,2.26,5.66,2.39,-7.47,-2.37
5.774489879608154,2,3,3,3,-13.67,1.65,5.94,-1.58,-5.08,-2.26
5.78449010848999,2,3,3,3,-13.67,1.65,5.94,-4.67,-2.91,-2.4
5.794490098953247,2,3,3,3,-12.95,1.41,6.11,-6.43,0.35,-2.92
5.804490089416504,2,3,3,3,-12.49,-0.76,3.57,-6.21,3.91,-2.93
5.814490079879761,2,3,3,3,-12.99,-1.67,2.54,-5.23,5.9,-2.11
5.824490070343018,2,3,3,3,-13.02,-2.35,1.82,-3.86,5.78,-0.89
5.834490060806274,2,3,3,3,-13.02,-2.35,1.82,-2.83,3.66,0.11
5.844490051269531,2,3,3,3,-10.79,-2.21,1.28,-2.27,0.9399999999999999,0.28
5.854490041732788,2,3,3,3,-9.68,-1.72,1.06,-2.37,-1.39,-0.17
5.864490032196045,2,3,3,3,-8.539999999999999,-1.22,0.9399999999999999,-2.66,-1.86,-0.85
5.874490022659302,2,3,3,3,-6.36,-0.92,0.91,-2.83,-0.82,-1.56
5.884490013122559,2,3,3,3,-6.36,-0.92,0.91,-3.12,0.55,-2.42
5.894490003585815,2,3,3,3,-5.18,-1.15,0.79,-3.17,0.82,-2.74
5.904489994049072,2,3,3,3,-3.74,-1.29,1,-3.19,0.5,-3.06
5.914489984512329,2,3,3,3,-3.4,-1.53,1.21,-3.42,-0.19,-3.34
5.924489974975586,2,3,3,3,-3.11,-1.78,1.11,-4.13,-0.82,-3.13
5.934489965438843,2,3,3,3,-2.96,-1.95,1.06,-4.3,-0.5,-2.71
5.9444899559021,2,3,3,3,-2.96,-1.95,1.06,-4.11,0.61,-1.98
5.954489946365356,2,3,3,3,-3.41,-2.35,1.13,-3.63,1.82,-1.06
5.964489936828613,2,3,3,3,-3.84,-2.48,1.14,-3.08,2.62,-0.09
5.97448992729187,2,3,3,3,-4.38,-2.57,1.2,-2.49,2.58,0.83
5.984489917755127,2,3,3,3,-4.38,-2.57,1.2,-1.95,1.61,1.45
5.994489908218384,2,3,3,3,-4.94,-2.65,1.21,-1.29,0.73,1.9
6.004489898681641,2,3,3,3,-6.38,-2.73,0.99,-0.5600000000000001,0.41,2.08
6.014489889144897,2,3,3,3,-6.83,-2.73,1.23,0.28,0.61,2.26
6.024489879608154,2,3,3,3,-7.84,-2.61,1.59,0.95,0.8100000000000001,2.39
6.03449010848999,2,3,3,3,-7.84,-2.61,1.59,1.58,0.9,2.53
6.044490098953247,2,3,3,3,-8.49,-2.37,1.63,2.03,0.97,2.97
6.054490089416504,2,3,3,3,-9.949999999999999,-1.61,1.44,2.42,0.97,3.61
6.064490079879761,2,3,3,3,-12.13,-0.98,2.16,2.87,0.65,4.28
6.084490060806274,2,3,3,3,-13.41,-0.79,2.58,3.34,-1.7,4.79
6.094490051269531,2,3,3,3,-14.31,-0.62,2.55,3.34,-1.7,4.79
6.104490041732788,2,3,3,3,-13.81,0.02,1.49,1.01,-2.84,3.57
6.114490032196045,2,3,3,3,-12.64,0.34,1.76,0.65,-2.13,2.02
6.124490022659302,2,3,3,3,-11.18,0.33,2.26,0.06,-1.92,0.64
6.134490013122559,2,3,3,3,-11.18,0.33,2.26,0.06,-1.92,0.64
6.144490003585815,2,3,3,3,-10.19,0.2,2.94,-0.42,-2.33,0.04
6.154489994049072,2,3,3,3,-8.41,-0.22,3.24,-1.35,-2.03,0.72
6.164489984512329,2,3,3,3,-8.41,-0.27,3.14,-1.83,-1.14,1.33
6.174489974975586,2,3,3,3,-8.43,-0.31,2.89,-1.94,-0.68,1.57
6.184489965438843,2,3,3,3,-8.43,-0.31,2.89,-1.94,-0.68,1.57
6.1944899559021,2,3,3,3,-8.640000000000001,-0.27,2.56,-1.68,-0.54,1.43
6.205490112304688,2,3,3,3,-8.57,-0.4,1.87,-2.05,-0.03,0.26
6.214489936828613,2,3,3,3,-8.789999999999999,-0.64,1.9,-2.33,0.64,-0.22
6.22448992729187,2,3,3,3,-8.94,-0.74,1.83,-2.43,1.19,-0.58
6.234489917755127,2,3,3,3,-8.94,-0.74,1.83,-2.43,1.19,-0.58
6.244489908218384,2,3,3,3,-9.06,-0.85,1.79,-2.51,1.4,-1.05
6.254489898681641,2,3,3,3,-9.08,-0.91,1.62,-1.95,1.01,-1.79
6.264489889144897,2,3,3,3,-9.119999999999999,-1.18,1.71,-1.4,0.5,-1.75
6.274489879608154,2,3,3,3,-9.119999999999999,-1.18,1.71,-1.09,-0.49,-1.39
6.28449010848999,2,3,3,3,-9.220000000000001,-1.17,1.92,-1.09,-0.49,-1.39
6.294490098953247,2,3,3,3,-9.33,-1.2,2.14,-1.05,-1.56,-0.75
6.304490089416504,2,3,3,3,-9.470000000000001,-1.2,2.21,-1.35,-2.75,1.04
6.314490079879761,2,3,3,3,-9.5,-1.22,2.08,-1.3,-2.54,1.62
6.324490070343018,2,3,3,3,-9.6,-1.21,2.22,-1.16,-2.27,1.72
6.334490060806274,2,3,3,3,-9.67,-1.22,2.35,-1.16,-2.27,1.72
6.344490051269531,2,3,3,3,-9.68,-1.07,2.47,-0.96,-1.91,1.52
6.354490041732788,2,3,3,3,-9.76,-0.99,2.38,-0.8100000000000001,-0.84,0.58
6.364490032196045,2,3,3,3,-9.83,-0.86,2.23,-0.75,-0.5,0.12
6.375489950180054,2,3,3,3,-9.93,-0.78,2.33,-0.55,-0.47,-0.26
6.385489940643311,2,3,3,3,-9.880000000000001,-0.83,2.48,-0.55,-0.47,-0.26
6.395489931106567,2,3,3,3,-9.699999999999999,-0.79,2.29,-0.44,-0.62,-0.61
6.405489921569824,2,3,3,3,-9.529999999999999,-0.83,2.3,-0.23,-0.66,-1.5
6.415489912033081,2,3,3,3,-9.02,-0.96,2.52,-0.14,-0.3,-1.93
6.425489902496338,2,3,3,3,-8.93,-1.03,2.62,-0.39,0,-2.09
6.435489892959595,2,3,3,3,-8.9,-1.18,2.51,-0.39,0,-2.09
6.445489883422852,2,3,3,3,-9.119999999999999,-1.33,2.46,-0.43,0.36,-2.05
6.455490112304688,2,3,3,3,-9.449999999999999,-1.34,2.09,-0.18,1.06,-2.14
6.465490102767944,2,3,3,3,-9.5,-1.35,1.98,0.33,1.56,-2.16
6.475490093231201,2,3,3,3,-9.470000000000001,-1.33,2.04,0.8100000000000001,1.86,-2.15
6.485490083694458,2,3,3,3,-9.41,-1.33,2.1,0.8100000000000001,1.86,-2.15
6.495490074157715,2,3,3,3,-9.41,-1.4,2.04,1.02,1.87,-2.14
6.505490064620972,2,3,3,3,-9.460000000000001,-1.47,2.08,1.21,1.2,-1.92
6.515490055084229,2,3,3,3,-9.470000000000001,-1.46,1.98,1.31,0.77,-1.71
6.525490045547485,2,3,3,3,-9.49,-1.5,2.01,1.54,0.4,-1.42
6.555490016937256,2,3,3,3,-9.539999999999999,-1.28,2.27,1.7,-0.74,-0.61
6.565490007400513,2,3,3,3,-9.52,-1.2,2.3,1.66,-1.19,-0.37
6.57548999786377,2,3,3,3,-9.300000000000001,-1.1,2.42,1.17,-1.3,-0.14
6.585489988327026,2,3,3,3,-9.17,-1.06,2.27,1.17,-1.3,-0.14
6.595489978790283,2,3,3,3,-9.119999999999999,-1.04,2.2,0.48,-0.96,0.07000000000000001
6.60548996925354,2,3,3,3,-9.44,-0.98,2.39,0.29,-0.47,0.42
6.615489959716797,2,3,3,3,-9.529999999999999,-0.87,2.22,-0.03,-0.58,0.39
6.625489950180054,2,3,3,3,-9.48,-0.85,2.14,-0.3,-0.29,0.2
6.635489940643311,2,3,3,3,-9.42,-0.8100000000000001,2.12,-0.3,-0.29,0.2
6.645489931106567,2,3,3,3,-9.42,-0.9399999999999999,2.23,-0.54,0.15,-0.05
6.655489921569824,2,3,3,3,-9.44,-1.05,2.18,-0.88,0.8,-0.71
6.665489912033081,2,3,3,3,-9.5,-1.18,2.06,-0.77,0.76,-1.01
6.675489902496338,2,3,3,3,-9.550000000000001,-1.3,2.04,-0.42,0.53,-1.21
6.685489892959595,2,3,3,3,-9.41,-1.38,2.14,-0.42,0.53,-1.21
6.695489883422852,2,3,3,3,-9.210000000000001,-1.49,2.03,-0.54,0.23,-1.29
6.705490112304688,2,3,3,3,-9.07,-1.58,2.03,-1.17,0.59,-1.17
6.715490102767944,2,3,3,3,-8.93,-1.65,1.88,-1.58,0.8100000000000001,-1.08
6.725490093231201,2,3,3,3,-8.699999999999999,-1.8,1.64,-1.71,0.99,-1.07
6.735490083694458,2,3,3,3,-8.58,-1.85,1.52,-1.71,0.99,-1.07
6.745490074157715,2,3,3,3,-8.470000000000001,-1.99,1.47,-1.63,1.22,-1.13
6.755490064620972,2,3,3,3,-8.42,-2.1,1.48,-1.19,1.4,-1.67
6.765490055084229,2,3,3,3,-8.09,-2.33,1.44,-1.46,1.49,-1.97
6.775490045547485,2,3,3,3,-7.82,-2.52,1.4,-1.97,1.47,-2.26
6.785490036010742,2,3,3,3,-7.62,-2.73,1.41,-1.97,1.47,-2.26
6.795490026473999,2,3,3,3,-7.31,-2.95,0.93,-2.33,1.1,-2.6
6.805490016937256,2,3,3,3,-6.84,-2.87,0.27,-2.92,0.13,-3.2
6.815490007400513,2,3,3,3,-6.44,-2.85,-0.11,-1.06,0.21,-3.34
6.82548999786377,2,3,3,3,-6.24,-2.69,0,1.03,-0.64,-3.73
6.835489988327026,2,3,3,3,-5.51,-2.14,0.66,1.03,-0.64,-3.73
6.845489978790283,2,3,3,3,-4.99,-1.91,0.77,1.94,-1.6,-4.35
6.85548996925354,2,3,3,3,-4.52,-1.72,0.68,0.71,-2.1,-5.35
6.865489959716797,2,3,3,3,-4.22,-1.64,0.64,0.01,-2.06,-5.14
6.875489950180054,2,3,3,3,-4.4,-1.5,1.1,-1.21,-1.96,-4.9
6.885489940643311,2,3,3,3,-4.58,-1.56,0.63,-1.21,-1.96,-4.9
6.895489931106567,2,3,3,3,-4.57,-1.67,0.23,-2.79,-1.19,-5.37
6.905489921569824,2,3,3,3,-4.55,-1.62,0.23,-3.66,2.47,-6.47
6.915489912033081,2,3,3,3,-5.98,-1.1,1.19,-2.51,1.67,-5.96
6.925489902496338,2,3,3,3,-6.93,-0.66,1.76,-1.2,-1.19,-4.72
6.935489892959595,2,3,3,3,-7.54,-0.28,2.26,-1.2,-1.19,-4.72
6.945489883422852,2,3,3,3,-8.08,0.1,3.36,0.02,-3.8,-3.43
6.955490112304688,2,3,3,3,-8.82,-0.3,4.06,0.09,-5.68,-1.73
6.965490102767944,2,3,3,3,-9.710000000000001,-1.06,4.4,-0.97,-5.97,-0.95
6.975490093231201,2,3,3,3,-10.4,-1.57,4.54,-1.86,-5.4,-0.83
6.985490083694458,2,3,3,3,-12.07,-2.11,5.09,-1.86,-5.4,-0.83
6.995490074157715,2,3,3,3,-12.89,-2.19,5.06,-2.52,-4.83,-1.22
7.005490064620972,2,3,3,3,-13.47,-1.61,4.62,-1.35,-3.5,-0.53
7.015490055084229,2,3,3,3,-14.31,-0.79,3.8,-0.88,-2.1,0.16
7.025490045547485,2,3,3,3,-15.55,-1.01,3.16,0.03,-1.07,0.17
7.035490036010742,2,3,3,3,-16.11,-1.1,3.62,0.03,-1.07,0.17
7.045490026473999,2,3,3,3,-16.47,-1.05,4.87,0.41,-2.18,-0.31
7.055490016937256,2,3,3,3,-17.08,-1.54,6.49,-1.47,-4.2,2.03
7.065490007400513,2,3,3,3,-18.49,-2.88,8.44,-3.02,-4.07,3.46
7.07548999786377,2,3,3,3,-19.65,-3.44,8.07,-3.25,-0.92,3.7
7.085489988327026,2,3,3,3,-21.15,-3.63,7.18,-3.25,-0.92,3.7
7.095489978790283,2,3,3,3,-22.73,-3.31,6.24,-1.14,4.07,2.6
7.10548996925354,2,3,3,3,-24.75,-1.3,4.98,4.18,8.35,-0.62
7.115489959716797,2,3,3,3,-25.18,-0.29,5.31,3.96,5.52,-1.48
7.125489950180054,2,3,3,3,-25.29,0.59,5.96,2.81,2.84,-1.15
7.135489940643311,2,3,3,3,-24.01,1.41,7.61,2.81,2.84,-1.15
7.145489931106567,2,3,3,3,-22.89,1.04,7.33,1.07,1.62,0.23
7.155489921569824,2,3,3,3,-21.86,0.26,6.96,-1.45,1.25,1.88
7.165489912033081,2,3,3,3,-21.33,-0.34,6.84,-1.16,3.65,4.1
7.175489902496338,2,3,3,3,-21.99,-1.67,6.98,-1.16,3.65,4.1
7.185489892959595,2,3,3,3,-22.65,-1.77,6.92,0.27,6.93,4.95
7.195489883422852,2,3,3,3,-22.81,-1.9,6.67,1.04,9.75,5.64
7.205490112304688,2,3,3,3,-22.57,-1.7,6.29,0.98,11.45,6.17
7.215490102767944,2,3,3,3,-20.31,-2.52,4.87,0.1,11.76,6.49
7.225490093231201,2,3,3,3,-18.48,-3.43,3.84,-0.71,10.15,5.64
7.235490083694458,2,3,3,3,-15.67,-5.38,2.16,-1.51,6.74,3.19
7.245490074157715,2,3,3,3,-12.12,-7.02,-0.03,-0.96,5.62,-0.3
7.255490064620972,2,3,3,3,-5.88,-5.52,-2.15,0.7,6.14,-2.5
7.265490055084229,2,3,3,3,-3.69,-3.86,-1.91,0.62,6.92,-3.03
7.275490045547485,2,3,3,3,-1.62,-2.29,-1.38,-1.59,6.06,-2.71
7.285490036010742,2,3,3,3,2.32,-5.23,-0.75,-9.199999999999999,2.64,-2.77
7.295490026473999,2,3,3,3,3.7,-8.43,-2.93,-20.07,-5.03,-5.1
7.305490016937256,2,3,3,3,4.64,-11.7,-7.38,-29.54,-12.53,-7.41
7.315490007400513,2,3,3,3,4.17,-12.83,-9.06,-27.56,-8.359999999999999,-6.02
7.32548999786377,2,3,3,3,4.84,-10.88,-5.77,-13.62,-0.26,-5.26
7.335489988327026,2,3,3,3,5.17,-9.789999999999999,-3.09,-0.38,1.76,-5.38
7.345489978790283,2,3,3,3,4.2,-7.78,-0.59,9.220000000000001,-0.18,-2.8
7.35548996925354,2,3,3,3,3.13,-5.01,0.73,14.1,-3.09,1.44
7.365489959716797,2,3,3,3,2.9,0.29,1.07,15.89,-4.03,4.69
7.375489950180054,2,3,3,3,3.52,2.13,0.83,16.84,-3.16,6.55
7.385489940643311,2,3,3,3,3.89,3.01,0.67,16.43,-0.97,7.73
7.395489931106567,2,3,3,3,3.22,3.48,0.78,14.28,1.43,9.19
7.406490087509155,2,3,3,3,1.15,3.45,0.34,10.92,0.84,10.39
7.416490077972412,2,3,3,3,0.05,3.23,-0.23,7.5,-1.05,9.619999999999999
7.426490068435669,2,3,3,3,-1.16,2.96,-0.07000000000000001,5.75,-0.98,8.140000000000001
7.436490058898926,2,3,3,3,-2.45,2.85,0.64,4.97,-0.65,7.01
7.446490049362183,2,3,3,3,-3.86,2.21,1.56,3.59,-1.31,6.03
7.456490039825439,2,3,3,3,-3.69,1.96,1.41,1.01,-2.31,4.98
7.466490030288696,2,3,3,3,-3.19,1.63,0.66,-2.07,-2.33,4.02
7.476490020751953,2,3,3,3,-2.76,1.38,0.09,-3.83,-0.78,3.07
7.48649001121521,2,3,3,3,-2.71,1.41,-0.16,-3.97,1.31,1.57
7.496490001678467,2,3,3,3,-2.66,1.44,-0.36,-3.66,2.57,-0.75
7.506489992141724,2,3,3,3,-2.56,1.25,-0.48,-3.12,3.01,-3.54
7.51648998260498,2,3,3,3,-2.23,0.6899999999999999,-0.02,-2.02,2.32,-6.01
7.526489973068237,2,3,3,3,-1.83,0.21,0.16,-1.26,0.3,-7.76
7.536489963531494,2,3,3,3,-1.08,-0.28,-0.18,-1.34,-1.94,-8.99
7.546489953994751,2,3,3,3,-0.22,-0.6899999999999999,-0.59,-1.39,-2.42,-9.710000000000001
7.556489944458008,2,3,3,3,0.54,-0.84,-0.63,0.18,-1.11,-10.04
7.566489934921265,2,3,3,3,0.72,-0.53,-0.54,2.36,-0.06,-10.03
7.576489925384521,2,3,3,3,0.92,-0.16,-0.48,4.36,0.03,-9.210000000000001
7.586489915847778,2,3,3,3,1.14,0.36,-0.27,6.25,0.27,-7.75
7.596489906311035,2,3,3,3,1.52,1.45,0.38,7.43,0.34,-5.7
7.606489896774292,2,3,3,3,1.42,1.89,0.79,7.44,-1.03,-2.9
7.616489887237549,2,3,3,3,1.68,2.17,0.97,6.34,-4.01,0.13
7.626489877700806,2,3,3,3,2.27,2.19,1.19,4.25,-6.43,2.91
7.636490106582642,2,3,3,3,1.77,0.76,1.77,1.87,-6.19,5.7
7.646490097045898,2,3,3,3,-0.14,-1.03,1.39,-2.34,-8.16,9.06
7.656490087509155,2,3,3,3,-0.8100000000000001,-2.69,2.21,-4.94,-12.11,12.22
7.666490077972412,2,3,3,3,-0.34,-4.34,2.46,-4.43,-10.18,13.86
7.676490068435669,2,3,3,3,-1.44,-10.6,3.15,-3.09,-4.83,16.28
7.686490058898926,2,3,3,3,-4.04,-14.37,2.21,-4.35,2.89,20.11
7.696490049362183,2,3,3,3,-12.42,-12.5,4.93,-0.62,19.36,24.51
7.706490039825439,2,3,3,3,-39.11,-17.46,13.8,3.76,21.99,29.01
7.716490030288696,2,3,3,3,-39.01,-10.98,-10.62,28.67,-23.39,27.97
7.726490020751953,2,3,3,3,-39.02,13.13,-8.630000000000001,36.5,19.98,-3.93
7.73649001121521,2,3,3,3,-33.05,26,6.79,29.9,-2.99,-16.06
7.746490001678467,2,3,3,3,-23.92,6.27,12.65,11.32,-10.7,-10.05
7.756489992141724,2,3,3,3,-17.11,1.88,9.890000000000001,-5.38,-9.6,1.75
7.76648998260498,2,3,3,3,-11.47,-1.02,8.01,-11.79,-20.63,10.98
7.776489973068237,2,3,3,3,-10.33,-1.49,8.58,-8.93,-16.49,14.99
7.786489963531494,2,3,3,3,-18.77,5.4,9.449999999999999,-3.62,1.03,12.47
7.796489953994751,2,3,3,3,-24.31,5.85,7.14,-6.57,12.73,9.039999999999999
7.806489944458008,2,3,3,3,-28.34,5.71,3.5,-9.06,17.51,3.05
7.816489934921265,2,3,3,3,-29.55,3.82,-0.3,-4.43,13.88,-3.57
7.826489925384521,2,3,3,3,-20.74,-0.85,1.13,0.27,-0.54,-9.33
7.836489915847778,2,3,3,3,-14.46,-0.37,3.59,0.6899999999999999,-12.06,-12.42
7.846489906311035,2,3,3,3,-10.52,-0.19,5.11,-0.77,-11.02,-12.09
7.856489896774292,2,3,3,3,-8.99,-0.61,5.46,-1.7,-3.61,-9.369999999999999
7.866489887237549,2,3,3,3,-8.84,-0.16,5.05,-2.72,1.88,-7.47
7.876489877700806,2,3,3,3,-9.199999999999999,0.11,4.62,-3.24,4.06,-6.79
7.886490106582642,2,3,3,3,-9.949999999999999,-0.05,4.01,-3.76,4.25,-6.06
7.896490097045898,2,3,3,3,-8.880000000000001,-0.92,1.78,-4.14,3.27,-4.73
7.906490087509155,2,3,3,3,-7.41,-0.97,0.74,-4.42,1.95,-3.07
7.916490077972412,2,3,3,3,-5.88,-0.76,0.12,-4.65,2.13,-1.95
7.926490068435669,2,3,3,3,-4.37,-0.5,-0.03,-5.11,3.15,-0.91
7.936490058898926,2,3,3,3,-2.71,-0.8100000000000001,0.73,-5.61,3.68,-0.48
7.946490049362183,2,3,3,3,-2.47,-1.13,1.05,-5.95,3.02,-0.88
7.956490039825439,2,3,3,3,-2.57,-1.63,1.11,-6.83,1.45,-1.19
7.966490030288696,2,3,3,3,-2.9,-2.25,0.83,-7.09,0.45,-1.44
7.976490020751953,2,3,3,3,-3.48,-2.97,0.17,-6.8,-0.21,-1.68
7.98649001121521,2,3,3,3,-3.65,-2.99,0.09,-6.08,-1.07,-1.93
7.996490001678467,2,3,3,3,-3.98,-2.87,0.23,-4.32,-1.73,-2.27
8.006489992141724,2,3,3,3,-4.36,-2.96,0.67,-2.5,-2.42,-2.05
8.01648998260498,2,3,3,3,-4.7,-3.45,1.15,-0.77,-2.4,-1.2
8.026489973068237,2,3,3,3,-4.84,-3.55,1.27,0.61,-0.97,0.1
8.036489963531494,2,3,3,3,-5.24,-3.55,1.28,1.68,1.02,1.69
8.046489953994751,2,3,3,3,-7.42,-3.29,1.85,2.88,2.45,3.37
8.056489944458008,2,3,3,3,-8.94,-3.02,2.15,4.34,2.1,4.68
8.066489934921265,2,3,3,3,-10.18,-2.62,2.12,4.71,0.17,5.55
8.076489925384521,2,3,3,3,-11.2,-2.14,2.26,4.58,-1.83,5.83
8.086489915847778,2,3,3,3,-12.72,-1.22,2.92,4.89,-2.99,5.72
8.096489906311035,2,3,3,3,-13.14,-0.65,3.21,4.84,-3.57,4.95
8.106489896774292,2,3,3,3,-13.03,0.09,2.74,4.46,-4.07,3.97
8.116489887237549,2,3,3,3,-12.68,0.89,2.16,3.41,-3.63,3.02
8.126489877700806,2,3,3,3,-12.23,1.61,3.03,3,-1.8,1.97
8.136490106582642,2,3,3,3,-11.93,1.39,3.24,2.18,-1.52,0.8
8.146490097045898,2,3,3,3,-11.24,1.22,3.15,1.58,-2.55,-0.54
8.156490087509155,2,3,3,3,-10.4,0.8,2.93,0.93,-2.28,-1.36
8.166490077972412,2,3,3,3,-9.050000000000001,-0.14,2.97,0.16,-1.42,-1.41
8.176490068435669,2,3,3,3,-8.470000000000001,-0.38,2.99,-0.55,-0.5600000000000001,-1.19
8.186490058898926,2,3,3,3,-8.09,-0.55,2.9,-1.05,0.29,-0.88
8.196490049362183,2,3,3,3,-8.01,-0.58,2.76,-0.95,1.01,-0.88
8.206490039825439,2,3,3,3,-8.390000000000001,-0.65,2.38,-0.75,1.36,-1.28
8.216490030288696,2,3,3,3,-8.449999999999999,-0.7,2.16,-0.71,1.27,-1.87
8.226490020751953,2,3,3,3,-8.380000000000001,-0.97,2.11,-0.44,1.01,-2.53
8.23649001121521,2,3,3,3,-8.359999999999999,-1.13,2.1,0.1,0.92,-2.72
8.246490001678467,2,3,3,3,-8.210000000000001,-1.25,2.02,0.49,0.71,-2.63
8.256489992141724,2,3,3,3,-8.23,-1.43,1.99,0.9399999999999999,0.67,-2.46
8.26648998260498,2,3,3,3,-8.42,-1.49,1.95,1.65,0.83,-2.32
8.276489973068237,2,3,3,3,-9.02,-1.33,1.8,2.35,0.73,-2.18
8.286489963531494,2,3,3,3,-9.27,-1.22,1.47,2.27,0.21,-2.03
8.296489953994751,2,3,3,3,-9.529999999999999,-1.18,1.54,2.13,-0.13,-1.69
8.306489944458008,2,3,3,3,-9.699999999999999,-1.22,1.88,2.41,-0.43,-1.3
8.316489934921265,2,3,3,3,-9.640000000000001,-1.34,1.55,2.03,-0.77,-0.78
8.326489925384521,2,3,3,3,-9.77,-1.29,1.65,1.46,-0.52,-0.12
8.336489915847778,2,3,3,3,-9.93,-1.12,1.85,1.39,-0.3,0.46
8.346489906311035,2,3,3,3,-9.93,-0.92,1.92,1.31,-0.36,0.87
8.356489896774292,2,3,3,3,-9.84,-0.63,2.37,1.4,-0.41,1.16
8.366489887237549,2,3,3,3,-9.720000000000001,-0.55,2.43,1.75,-0.84,1.33
8.376489877700806,2,3,3,3,-9.44,-0.5600000000000001,2.38,1.5,-1.47,1.38
8.386490106582642,2,3,3,3,-9.26,-0.6,2.37,1.25,-1.47,1.4
8.396490097045898,2,3,3,3,-9.24,-0.54,2.46,1.26,-1.16,1.35
8.406490087509155,2,3,3,3,-9.279999999999999,-0.44,2.47,1.07,-0.84,1.11
8.416490077972412,2,3,3,3,-9.380000000000001,-0.4,2.5,0.9,-0.68,0.92
8.427489995956421,2,3,3,3,-9.300000000000001,-0.33,2.54,0.68,-0.8100000000000001,0.62
8.437489986419678,2,3,3,3,-9.16,-0.38,2.51,0.11,-0.89,0.41
8.447489976882935,2,3,3,3,-9.109999999999999,-0.54,2.53,-0.45,-0.64,0.29
8.457489967346191,2,3,3,3,-9.17,-0.78,2.5,-1.06,-0.06,0.31
8.467489957809448,2,3,3,3,-9.67,-1,2.31,-1.47,0.33,0.29
8.477489948272705,2,3,3,3,-9.84,-0.9399999999999999,2.23,-1.47,0.54,0.23
8.487489938735962,2,3,3,3,-9.91,-0.87,2.18,-1.33,0.77,0.17
8.497489929199219,2,3,3,3,-9.85,-0.76,2.31,-1.19,0.96,0.1
8.507489919662476,2,3,3,3,-9.57,-0.67,2.42,-1.26,0.87,0.01
8.517489910125732,2,3,3,3,-9.460000000000001,-0.73,2.31,-1.57,0.9,-0.1
8.527489900588989,2,3,3,3,-9.460000000000001,-0.8,2.36,-1.88,1.16,-0.17
8.537489891052246,2,3,3,3,-9.460000000000001,-0.92,2.32,-2,1.39,-0.27
8.547489881515503,2,3,3,3,-9.550000000000001,-1.12,2.3,-1.52,1.35,-0.39
8.557490110397339,2,3,3,3,-9.49,-1.25,2.21,-1,0.96,-0.4
8.567490100860596,2,3,3,3,-9.42,-1.3,2.03,-0.72,0.54,-0.39
8.577490091323853,2,3,3,3,-9.300000000000001,-1.34,2.08,-0.47,0.28,-0.31
8.587490081787109,2,3,3,3,-9.19,-1.29,2.29,-0.12,0.25,-0.15
8.597490072250366,2,3,3,3,-9.18,-1.23,2.34,0.03,0.39,0.04
8.607490062713623,2,3,3,3,-9.220000000000001,-1.14,2.32,0.01,0.71,0.19
8.61749005317688,2,3,3,3,-9.49,-0.95,2.23,0.02,1.05,0.26
8.627490043640137,2,3,3,3,-9.550000000000001,-0.9,2.19,-0.06,1.05,0.18
8.637490034103394,2,3,3,3,-9.609999999999999,-0.88,2.23,-0.29,1.06,-0.06
8.64749002456665,2,3,3,3,-9.65,-0.87,2.27,-0.4,1.08,-0.33
8.657490015029907,2,3,3,3,-9.640000000000001,-0.96,2.2,-0.64,0.96,-0.62
8.667490005493164,2,3,3,3,-9.57,-1.05,2.05,-0.9399999999999999,0.9,-0.89
8.677489995956421,2,3,3,3,-9.550000000000001,-1.16,2.1,-1.15,0.97,-1.04
8.687489986419678,2,3,3,3,-9.58,-1.27,2.21,-1.1,1.09,-1.03
8.697489976882935,2,3,3,3,-9.59,-1.5,2.21,-1.13,1,-1
8.707489967346191,2,3,3,3,-9.51,-1.54,2,-1.2,0.77,-0.89
8.717489957809448,2,3,3,3,-9.48,-1.55,1.75,-1.31,0.72,-0.76
8.727489948272705,2,3,3,3,-9.48,-1.49,1.84,-1,0.74,-0.55
8.737489938735962,2,3,3,3,-9.5,-1.44,2.03,-0.47,0.43,-0.38
8.747489929199219,2,3,3,3,-9.42,-1.43,2.04,-0.21,0.03,-0.3
8.757489919662476,2,3,3,3,-9.359999999999999,-1.46,2.15,-0.03,-0.18,-0.31
8.767489910125732,2,3,3,3,-9.33,-1.45,2.1,0.01,-0.36,-0.41
8.777489900588989,2,3,3,3,-9.050000000000001,-1.51,1.7,-0.49,-0.33,-0.7
8.787489891052246,2,3,3,3,-8.94,-1.55,1.62,-0.77,0.08,-1.14
8.797489881515503,2,3,3,3,-8.77,-1.62,1.6,-0.96,0.58,-1.57
8.807490110397339,2,3,3,3,-8.41,-1.81,1.37,-1.32,0.9399999999999999,-2.05
8.817490100860596,2,3,3,3,-8.35,-1.99,1.4,-1.63,1.24,-2.42
8.827490091323853,2,3,3,3,-8.33,-2.12,1.46,-1.79,1.13,-2.6
8.837490081787109,2,3,3,3,-8.220000000000001,-2.24,1.37,-2.06,0.5,-2.77
8.847490072250366,2,3,3,3,-7.53,-2.55,0.51,-2.52,-0.16,-3.05
8.857490062713623,2,3,3,3,-7,-2.5,0.03,-2.59,-0.37,-3.52
8.86749005317688,2,3,3,3,-6.37,-2.25,-0.21,-2.2,-0.52,-4.35
8.877490043640137,2,3,3,3,-5.86,-1.88,0.05,-1.3,-1.03,-5.02
8.887490034103394,2,3,3,3,-5.48,-1.19,2.03,0.19,-2.27,-5.1
8.89749002456665,2,3,3,3,-5.31,-0.99,2.36,1.02,-4.4,-5.01
8.907490015029907,2,3,3,3,-4.96,-1.18,1.45,-0.4,-5.71,-4.4
8.917490005493164,2,3,3,3,-4.66,-1.52,0.33,-2.38,-5.14,-3.41
8.927489995956421,2,3,3,3,-4.4,-1.81,-0.09,-2.91,-3.96,-2.85
8.937489986419678,2,3,3,3,-3.95,-1.68,0.28,-2.63,-3.25,-2.99
8.947489976882935,2,3,3,3,-3.53,-1.65,0.72,-2.25,-2.73,-3.1
8.957489967346191,2,3,3,3,-3.24,-1.66,0.95,-1.86,-2.07,-2.62
8.967489957809448,2,3,3,3,-3.08,-2.05,0.62,-2.04,-1.47,-1.94
8.977489948272705,2,3,3,3,-3.1,-2.18,0.23,-2.44,-0.99,-1.57
8.987489938735962,2,3,3,3,-3.39,-2.21,0.45,-2.51,-0.41,-1.27
8.997489929199219,2,3,3,3,-5.88,-2.62,2.62,-1.26,0.38,-0.6
9.007489919662476,2,3,3,3,-7.34,-2.63,2.89,0.44,0.32,-0.08
9.017489910125732,2,3,3,3,-8.710000000000001,-2.46,3.02,1,-0.06,-0.31
9.027489900588989,2,3,3,3,-10.5,-2.07,3.71,1.19,0.08,-1.12
9.037489891052246,2,3,3,3,-14.66,-1.06,5.2,1.42,-0.97,-2.17
9.047489881515503,2,3,3,3,-15.61,-0.51,5.07,1.13,-3.17,-3.16
9.057490110397339,2,3,3,3,-15.5,-0.09,4.56,0.5600000000000001,-4.15,-3.86
9.067490100860596,2,3,3,3,-14.84,0.24,3.63,0.11,-2.62,-4.37
9.077490091323853,2,3,3,3,-13.62,-0.15,3.51,0.31,-0.29,-4.14
9.087490081787109,2,3,3,3,-13.37,-0.79,3.15,-0.11,-0.43,-3.25
9.097490072250366,2,3,3,3,-13.44,-1.26,3.03,-1.48,-3.03,-2.2
9.107490062713623,2,3,3,3,-14.2,-1.51,4.03,-1.52,-4.17,-0.43
9.11749005317688,2,3,3,3,-16.77,-1.95,7.04,-0.54,-3.92,1.53
9.127490043640137,2,3,3,3,-18.48,-2.24,7.87,0.04,-3.54,3.72
9.137490034103394,2,3,3,3,-20.16,-2.27,8.07,0.02,-2.8,5.13
9.14749002456665,2,3,3,3,-22.14,-1.18,7.6,-0.01,-1.04,5.35
9.157490015029907,2,3,3,3,-22.49,-0.61,7,0.58,1.41,4.21
9.167490005493164,2,3,3,3,-22.17,0,6.19,1.42,3.25,2.21
9.177489995956421,2,3,3,3,-21.86,0.11,6.21,1.03,3.36,0.88
9.187489986419678,2,3,3,3,-22.25,-0.77,6.85,-0.18,2.37,-0.06
9.197489976882935,2,3,3,3,-22.37,-0.9399999999999999,6.71,-1.76,1.37,-0.79
9.207489967346191,2,3,3,3,-22.56,-1.25,6.46,-3.04,2.18,-1.04
9.217489957809448,2,3,3,3,-22.74,-1.61,6.26,-2.48,3.21,-0.74
9.227489948272705,2,3,3,3,-22.51,-2.29,5.13,-1.16,3.72,-0.25
9.237489938735962,2,3,3,3,-22.38,-2.57,5.08,0.64,4.26,0.67
9.247489929199219,2,3,3,3,-21.89,-2.43,5.35,3.31,4.03,1.66
9.257489919662476,2,3,3,3,-21.2,-1.77,5.71,6.03,3.89,2.64
9.267489910125732,2,3,3,3,-19.31,0.34,5.99,7.82,4.78,4.09
9.277489900588989,2,3,3,3,-18.3,0.91,6.37,8.49,6.4,5.86
9.287489891052246,2,3,3,3,-17.72,0.93,6.21,7.98,8.69,7.53
9.297489881515503,2,3,3,3,-17.52,0.64,6.14,6.75,10.67,8.609999999999999
9.307490110397339,2,3,3,3,-17.41,-0.98,5.46,6.02,10.31,8.470000000000001
9.317490100860596,2,3,3,3,-16.12,-3.24,3.58,3.64,7.51,6.3
9.327490091323853,2,3,3,3,-14.85,-5.12,1.87,1.32,5.03,2.77
9.337490081787109,2,3,3,3,-9.4,-5.61,-2.24,0.51,2.71,-0.78
9.347490072250366,2,3,3,3,-5.39,-4.9,-3.44,-0.89,2.74,-4.89
9.357490062713623,2,3,3,3,-1.86,-4.54,-2.66,-1.99,6.55,-8.02
9.36749005317688,2,3,3,3,0.38,-5.74,-0.61,-5.54,8.85,-10.82
9.377490043640137,2,3,3,3,2.34,-11.93,-3.23,-15.32,3.66,-13.81
9.387490034103394,2,3,3,3,1.95,-14.39,-6.4,-24.53,-2.21,-15.46
9.39749002456665,2,3,3,3,0.68,-14.91,-8.81,-22.67,0.78,-14.29
9.407490015029907,2,3,3,3,0.6899999999999999,-13.94,-7.74,-8.890000000000001,3.72,-12.16
9.417490005493164,2,3,3,3,7.19,-6.26,-0.31,9.82,-2.64,-10.24
9.427489995956421,2,3,3,3,8.609999999999999,-1.93,1.24,19.94,-10.67,-4.26
9.437489986419678,2,3,3,3,8.34,0.77,1.35,20.59,-12.73,4.01
9.448489904403687,2,3,3,3,8.140000000000001,2.74,1.41,20.01,-7.09,9.5
9.458489894866943,2,3,3,3,6.35,5.65,1.84,20.08,1.61,12.62
9.4684898853302,2,3,3,3,4.56,6.35,2.13,18.21,6.2,14.61
9.478489875793457,2,3,3,3,3.13,5.84,2.07,12.38,2.47,15.04
9.488490104675293,2,3,3,3,2.07,5.24,1.45,4.86,-3.41,14.35
9.49849009513855,2,3,3,3,-1.52,3.96,1.08,-0.96,-6.06,13.73
9.508490085601807,2,3,3,3,-2.79,3,0.9399999999999999,-4.72,-4.8,13.11
9.518490076065063,2,3,3,3,-4.09,2.01,0.55,-7.91,-2.33,11.46
9.52849006652832,2,3,3,3,-6.68,1.15,0.57,-9.44,0.06,9.699999999999999
9.538490056991577,2,3,3,3,-7.58,1.3,0.76,-9.66,1.88,7.42
9.548490047454834,2,3,3,3,-7.97,1.04,0.8100000000000001,-10.19,0.72,3.78
9.558490037918091,2,3,3,3,-7.74,0.65,0.32,-11.29,-3.11,-0.8100000000000001
9.568490028381348,2,3,3,3,-5.16,-0.06,-1.36,-11.32,-5.5,-5.13
9.578490018844604,2,3,3,3,-3.05,-0.53,-1.74,-9.4,-3.97,-7.78
9.588490009307861,2,3,3,3,-1,-0.8,-1.57,-5.65,-0.99,-9.140000000000001
9.598489999771118,2,3,3,3,0.52,-0.9,-1,-1.83,1.95,-10.47
9.608489990234375,2,3,3,3,1.64,-1.56,0,0.29,2.85,-11.74
9.618489980697632,2,3,3,3,1.95,-1.64,-0.15,0.83,1.03,-12.46
9.628489971160889,2,3,3,3,2.57,-1.68,-0.52,0.08,-2.08,-12
9.638489961624146,2,3,3,3,3.16,-1.52,-0.87,-0.04,-3.38,-10.63
9.648489952087402,2,3,3,3,3.63,-0.39,-0.46,1.45,-2.89,-8.56
9.658489942550659,2,3,3,3,3.7,0.41,-0.18,3.13,-2.87,-5.72
9.668489933013916,2,3,3,3,3.56,1.19,-0.15,3.73,-3.28,-2.43
9.678489923477173,2,3,3,3,3.02,1.56,0.02,3.27,-3.59,0.9
9.68848991394043,2,3,3,3,1.96,1.17,-0.02,1.87,-4.34,3.83
9.698489904403687,2,3,3,3,1.6,0.67,-0.6899999999999999,0.48,-4.48,5.93
9.708489894866943,2,3,3,3,1.27,0.2,-0.1,0.5600000000000001,-2.99,6.92
9.7184898853302,2,3,3,3,-0.04,-0.95,0.8100000000000001,2.99,-1.36,7.91
9.728489875793457,2,3,3,3,-0.97,-2.3,0.72,3.97,-1.85,9.289999999999999
9.738490104675293,2,3,3,3,-1.73,-4.08,1.63,2.55,-3.86,11.1
9.74849009513855,2,3,3,3,-1.35,-6.02,3.42,1.88,-4.57,12.33
9.758490085601807,2,3,3,3,-3.77,-10.13,4.32,0.66,-2.04,13.25
9.768490076065063,2,3,3,3,-9.76,-9.699999999999999,5.81,0.17,4.75,16.87
9.77849006652832,2,3,3,3,-21.15,-11.29,6.12,-4.56,21.32,21.85
9.788490056991577,2,3,3,3,-39.11,-16.11,9.550000000000001,3.06,19.97,26.65
9.798490047454834,2,3,3,3,-38.98,0.44,-12.42,30.02,-12.67,20.71
9.808490037918091,2,3,3,3,-26.99,24.15,0.02,33.36,7.14,-12.53
9.818490028381348,2,3,3,3,-16.91,20.61,16.15,25,-16.66,-17.76
9.828490018844604,2,3,3,3,-23.5,9.619999999999999,15.54,5.02,-5.55,-2.22
9.838490009307861,2,3,3,3,-20.46,0,6.93,-6.76,-2.66,10.86
9.848489999771118,2,3,3,3,-14.14,0.71,7.26,-8.51,-17.23,13.53
9.858489990234375,2,3,3,3,-12.68,2.67,10.06,-4.12,-11.44,10.63
9.868489980697632,2,3,3,3,-16.12,3.94,10.66,-4.43,8.869999999999999,6.61
9.878489971160889,2,3,3,3,-29.02,4.84,3.62,-5.24,17.48,2.15
9.888489961624146,2,3,3,3,-32.98,3.84,1.46,-4.75,12.93,-3.11
9.898489952087402,2,3,3,3,-30.15,1.45,2.37,-3.71,-0.34,-5.95
9.908489942550659,2,3,3,3,-15.97,-1.14,3.49,-2.5,-11.23,-7.6
9.918489933013916,2,3,3,3,-12.93,-0.63,4.04,-2.03,-10.82,-9.279999999999999
9.928489923477173,2,3,3,3,-11.57,0.18,5.1,-1.71,-5.53,-10.27
9.93848991394043,2,3,3,3,-10.61,0.37,5.21,-2.43,-0.75,-9.460000000000001
9.948489904403687,2,3,3,3,-9.59,-0.08,3.89,-3.51,2.63,-7.67
9.958489894866943,2,3,3,3,-9.550000000000001,-0.93,3.23,-4.16,4.76,-5.83
9.9684898853302,2,3,3,3,-9.67,-1.63,2.47,-4.18,4.36,-3.85
9.978489875793457,2,3,3,3,-9.49,-2.05,1.65,-3.21,3.1,-2.56
9.988490104675293,2,3,3,3,-7.39,-2.24,0.64,-2.02,2.07,-0.97
9.99849009513855,2,3,3,3,-6.04,-1.68,0.41,-1.15,2.24,0.23
10.00849008560181,2,3,3,3,-4.61,-0.91,0.09,-0.68,2.83,0.57
10.01849007606506,2,3,3,3,-3.4,-0.64,0.08,-0.51,3.3,0.12
10.02849006652832,2,3,3,3,-2.67,-0.45,0.6,-0.33,3.2,-0.78
10.03849005699158,2,3,3,3,-2.78,-0.65,0.89,-0.18,1.65,-1.57
10.04849004745483,2,3,3,3,-2.95,-0.74,1.35,-0.41,-0.3,-1.99
10.05849003791809,2,3,3,3,-3.17,-0.89,2.12,-0.96,-1.61,-2.5
10.06849002838135,2,3,3,3,-3,-1.1,2.04,-2.38,-2.47,-3.16
10.0784900188446,2,3,3,3,-2.87,-1.43,1.86,-4.36,-2.57,-3.84
10.08849000930786,2,3,3,3,-2.95,-1.88,1.69,-5.66,-1.58,-3.93
10.09848999977112,2,3,3,3,-3.35,-2.36,1.46,-5.36,-0.34,-3.48
10.10848999023438,2,3,3,3,-3.34,-2.45,1.33,-4.26,0.02,-2.76
10.11848998069763,2,3,3,3,-3.24,-2.68,0.97,-3.45,-0.1,-1.84
10.12848997116089,2,3,3,3,-3.42,-2.87,0.78,-2.55,0.31,-0.8100000000000001
10.13848996162415,2,3,3,3,-4.83,-3.16,0.87,-1.22,0.76,0.21
10.1484899520874,2,3,3,3,-5.89,-3.14,0.95,0.04,0.42,1.44
10.15848994255066,2,3,3,3,-7.39,-3.1,1.39,1.25,-0.42,3.01
10.16848993301392,2,3,3,3,-9.33,-3.14,2.11,2.93,-1.78,4.94
10.17848992347717,2,3,3,3,-14.28,-3.05,4.04,4.74,-4.37,7.07
10.18848991394043,2,3,3,3,-16.39,-3.01,4.13,5.52,-6.97,9.369999999999999
10.19848990440369,2,3,3,3,-17.68,-2.63,2.97,5.95,-8.01,11.54
10.20848989486694,2,3,3,3,-17.37,-1.9,1.24,7.27,-5,12.03
10.2184898853302,2,3,3,3,-15.22,0.3,1.33,9.33,0.28,8.630000000000001
10.22848987579346,2,3,3,3,-14.22,2.39,2.87,10.61,0.93,2.25
10.23849010467529,2,3,3,3,-13.29,3.41,3.84,8.58,-2.99,-2.92
10.24849009513855,2,3,3,3,-10.4,2.18,4.55,3.97,-5.17,-5.18
10.25849008560181,2,3,3,3,-8.630000000000001,0.88,4.46,-1.33,-3,-5.05
10.26849007606506,2,3,3,3,-7.35,-0.03,3.93,-5.31,0.6,-3.55
10.27849006652832,2,3,3,3,-6.83,-0.58,3.49,-7.03,4.09,-2.11
10.28849005699158,2,3,3,3,-6.47,-1.17,2.73,-6.84,5.47,-1.66
10.29849004745483,2,3,3,3,-6.49,-1.57,2.15,-6.64,4.81,-1.72
10.30849003791809,2,3,3,3,-6.58,-1.89,1.75,-6.23,3.23,-1.89
10.31849002838135,2,3,3,3,-6.81,-2.13,1.54,-4.55,1.72,-1.7
10.3284900188446,2,3,3,3,-7.19,-2.33,1.39,-2.21,0.52,-1.26
10.33849000930786,2,3,3,3,-7.46,-2.26,1.48,0.1,0.01,-0.72
10.34848999977112,2,3,3,3,-7.46,-2.26,1.48,2.16,-0.33,0.12
10.35848999023438,2,3,3,3,-7.8,-2.25,1.7,3.88,-0.8100000000000001,0.92
10.36848998069763,2,3,3,3,-8.84,-1.9,2.87,4.72,-1.37,1.69
10.37848997116089,2,3,3,3,-9.35,-1.66,2.83,4.2,-1.71,2.29
10.38848996162415,2,3,3,3,-9.960000000000001,-1.22,2.68,3.16,-1.64,2.52
10.3984899520874,2,3,3,3,-9.960000000000001,-1.22,2.68,2.58,-1.07,2.38
10.40848994255066,2,3,3,3,-11.02,-0.53,2.65,2.46,-0.35,2
10.41848993301392,2,3,3,3,-11.69,0,2.58,2.55,0.01,1.42
10.42848992347717,2,3,3,3,-11.67,0.2,2.73,2.57,-0.14,0.7
10.43848991394043,2,3,3,3,-11.26,0.28,2.82,2.44,-0.54,0.06
10.44848990440369,2,3,3,3,-11.26,0.28,2.82,2,-0.8100000000000001,-0.32
10.45848989486694,2,3,3,3,-10.51,0.15,2.93,1.36,-0.88,-0.45
10.4684898853302,2,3,3,3,-10.03,0.1,2.97,0.79,-0.78,-0.45
10.47949004173279,2,3,3,3,-9.029999999999999,-0.06,3.08,0.12,-0.47,-0.24
10.48949003219604,2,3,3,3,-8.539999999999999,-0.25,3.06,-0.49,-0.12,0
10.4994900226593,2,3,3,3,-8.15,-0.42,2.96,-1.08,0.05,0.12
10.50949001312256,2,3,3,3,-7.93,-0.6,2.82,-1.59,0.02,0.16
10.51949000358582,2,3,3,3,-7.96,-0.85,2.43,-1.9,0.03,0.16
10.52948999404907,2,3,3,3,-8.199999999999999,-0.92,2.33,-1.94,0.32,0.21
10.53948998451233,2,3,3,3,-8.529999999999999,-0.95,2.32,-1.68,0.7,0.35
10.54948997497559,2,3,3,3,-8.85,-0.96,2.35,-1,0.98,0.46
10.55948996543884,2,3,3,3,-9.369999999999999,-0.93,2.35,-0.29,0.65,0.41
10.5694899559021,2,3,3,3,-9.52,-0.85,2.5,0.47,0.16,0.29
10.57948994636536,2,3,3,3,-9.66,-0.67,2.73,1.34,-0.25,0.24
10.58948993682861,2,3,3,3,-9.699999999999999,-0.41,2.97,1.86,-0.62,0.17
10.59948992729187,2,3,3,3,-9.710000000000001,-0.35,3.09,1.93,-0.87,0.13
10.60948991775513,2,3,3,3,-9.779999999999999,-0.34,3.12,1.95,-0.89,0.11
10.61948990821838,2,3,3,3,-9.789999999999999,-0.39,2.89,1.65,-0.83,0.04
10.62948989868164,2,3,3,3,-9.98,-0.5,2.82,1.14,-0.52,-0.01
10.6394898891449,2,3,3,3,-10.01,-0.5,2.84,0.82,-0.23,0
10.64948987960815,2,3,3,3,-9.880000000000001,-0.54,2.76,0.59,-0.11,0.04
10.65949010848999,2,3,3,3,-9.69,-0.55,2.64,0.29,-0.09,0.08
10.66949009895325,2,3,3,3,-9.32,-0.5600000000000001,2.36,0.12,0.05,0.13
10.6794900894165,2,3,3,3,-9.17,-0.57,2.46,0.23,0.17,0.13
10.68949007987976,2,3,3,3,-9.039999999999999,-0.55,2.52,0.4,0.13,0.11
10.69949007034302,2,3,3,3,-8.99,-0.52,2.54,0.51,-0.09,0.04
10.70949006080627,2,3,3,3,-8.94,-0.54,2.65,0.58,-0.26,0.02
10.71949005126953,2,3,3,3,-8.960000000000001,-0.61,2.66,0.68,-0.33,-0.09
10.72949004173279,2,3,3,3,-8.960000000000001,-0.59,2.63,0.72,-0.13,-0.13
10.73949003219604,2,3,3,3,-9.18,-0.54,2.6,0.58,0.42,-0.14
10.7494900226593,2,3,3,3,-9.18,-0.54,2.6,0.68,0.9,-0.23
10.75949001312256,2,3,3,3,-9.630000000000001,-0.43,2.94,0.68,0.9,-0.23
10.76949000358582,2,3,3,3,-9.529999999999999,-0.49,2.86,0.67,0.63,-0.52
10.77948999404907,2,3,3,3,-9.15,-0.76,2.63,0.35,0.46,-0.7
10.78948998451233,2,3,3,3,-9.199999999999999,-0.7,1.98,-0.13,0.73,-0.6899999999999999
10.79948997497559,2,3,3,3,-9.199999999999999,-0.7,1.98,-0.39,1.82,-0.5
10.80948996543884,2,3,3,3,-9.74,-0.57,2.15,-0.39,1.82,-0.5
10.8194899559021,2,3,3,3,-9.73,-0.02,2.63,0.92,1.17,-0.5
10.82948994636536,2,3,3,3,-9.31,0,2.39,0.63,0.57,-0.64
10.83948993682861,2,3,3,3,-9.06,-0.16,2.33,0.15,0.7,-0.77
10.84948992729187,2,3,3,3,-9.06,-0.16,2.33,0.08,1.17,-0.8100000000000001
10.85948991775513,2,3,3,3,-9.08,-0.44,2.48,-0.04,1.25,-0.83
10.86948990821838,2,3,3,3,-9.51,-0.82,2.17,-0.33,0.91,-0.71
10.87948989868164,2,3,3,3,-9.539999999999999,-0.8,2.13,-0.34,0.59,-0.48
10.8894898891449,2,3,3,3,-9.5,-0.6899999999999999,2.19,0.18,0.17,-0.28
10.89948987960815,2,3,3,3,-9.5,-0.6899999999999999,2.19,0.72,-0.33,-0.14
10.90949010848999,2,3,3,3,-9.25,-0.54,2.58,1.14,-0.89,-0.05
10.91949009895325,2,3,3,3,-9.23,-0.52,2.68,1.15,-1.22,0
10.9294900894165,2,3,3,3,-9.300000000000001,-0.58,2.7,0.83,-1.24,0.08
10.93949007987976,2,3,3,3,-9.390000000000001,-0.71,2.87,0.5,-1.05,0.12
10.94949007034302,2,3,3,3,-9.390000000000001,-0.71,2.87,0.01,-0.75,0.17
10.95949006080627,2,3,3,3,-9.33,-0.79,2.68,0.01,-0.75,0.17
10.96949005126953,2,3,3,3,-9.73,-0.6899999999999999,2.48,-1.15,0.38,0.14
10.97949004173279,2,3,3,3,-9.779999999999999,-0.65,2.49,-1.18,0.63,-0.04
10.98949003219604,2,3,3,3,-9.76,-0.62,2.48,-1.03,0.88,-0.25
10.9994900226593,2,3,3,3,-9.76,-0.62,2.48,-1.03,0.88,-0.25
11.00949001312256,2,3,3,3,-9.65,-0.67,2.48,-1.02,0.9399999999999999,-0.55
11.01949000358582,2,3,3,3,-9.41,-1.06,2.31,-0.62,0.92,-1.07
11.02948999404907,2,3,3,3,-9.380000000000001,-1.13,2.25,-0.5,0.79,-1.14
11.03948998451233,2,3,3,3,-9.369999999999999,-1.14,2.22,-0.16,0.7,-1.07
11.04948997497559,2,3,3,3,-9.369999999999999,-1.14,2.22,-0.16,0.7,-1.07
11.05948996543884,2,3,3,3,-9.31,-1.16,2.55,0.21,0.46,-0.9
11.0694899559021,2,3,3,3,-9.17,-1.08,2.21,0.06,0.04,-0.38
11.07948994636536,2,3,3,3,-9.17,-1.08,2.21,-0.02,0.14,-0.12
11.08948993682861,2,3,3,3,-9.33,-0.91,2.35,0.33,0.09,0.06
11.09948992729187,2,3,3,3,-9.44,-0.64,2.56,0.33,0.09,0.06
11.10948991775513,2,3,3,3,-9.380000000000001,-0.59,2.6,0.5600000000000001,0.01,0.16
11.11948990821838,2,3,3,3,-9.33,-0.5600000000000001,2.62,0.3,0.17,0.18
11.12948989868164,2,3,3,3,-9.33,-0.5600000000000001,2.48,-0.03,0.28,0.16
11.1394898891449,2,3,3,3,-9.51,-0.59,2.49,-0.2,0.28,0.14
11.14948987960815,2,3,3,3,-9.550000000000001,-0.63,2.42,-0.2,0.28,0.14
11.15949010848999,2,3,3,3,-9.550000000000001,-0.66,2.36,-0.38,0.3,0.11
11.16949009895325,2,3,3,3,-9.6,-0.76,2.41,-0.45,0.23,0.13
11.1794900894165,2,3,3,3,-9.619999999999999,-0.8100000000000001,2.33,-0.48,-0.03,0.03
11.18949007987976,2,3,3,3,-9.59,-0.79,2.39,-0.39,-0.03,0.03
11.19949007034302,2,3,3,3,-9.58,-0.79,2.5,-0.39,-0.03,0.03
11.20949006080627,2,3,3,3,-9.42,-0.86,2.47,-0.41,-0.08,0.05
11.21949005126953,2,3,3,3,-9.369999999999999,-0.89,2.45,-0.48,0.11,0.09
11.22949004173279,2,3,3,3,-9.369999999999999,-0.89,2.37,-0.5,0.2,0.09
11.23949003219604,2,3,3,3,-9.380000000000001,-0.93,2.35,-0.52,0.3,0.09
11.2494900226593,2,3,3,3,-9.43,-0.92,2.3,-0.52,0.3,0.09
11.25949001312256,2,3,3,3,-9.44,-0.95,2.37,-0.42,0.38,0.05
11.26949000358582,2,3,3,3,-9.43,-0.97,2.4,-0.24,0.34,-0.03
11.27948999404907,2,3,3,3,-9.43,-0.99,2.29,-0.21,0.41,-0.09
11.28948998451233,2,3,3,3,-9.529999999999999,-0.98,2.32,-0.07000000000000001,0.4,-0.08
11.29948997497559,2,3,3,3,-9.58,-0.97,2.38,-0.07000000000000001,0.4,-0.08
11.30948996543884,2,3,3,3,-9.58,-0.95,2.38,0,0.28,-0.09
11.3194899559021,2,3,3,3,-9.460000000000001,-0.93,2.29,-0.06,0.11,-0.02
11.32948994636536,2,3,3,3,-9.470000000000001,-0.92,2.28,-0.06,0.05,0.02
11.33948993682861,2,3,3,3,-9.49,-0.9,2.36,-0.1,-0.04,0.08
11.34948992729187,2,3,3,3,-9.49,-0.91,2.4,-0.1,-0.04,0.08
11.35948991775513,2,3,3,3,-9.5,-0.9,2.39,0.01,-0.05,0.1
11.36948990821838,2,3,3,3,-9.449999999999999,-0.88,2.33,0.1,0.03,0.09
11.37948989868164,2,3,3,3,-9.43,-0.92,2.28,0.18,0.05,0.05
11.3894898891449,2,3,3,3,-9.44,-0.9,2.34,0.14,-0.02,0.05
11.39948987960815,2,3,3,3,-9.44,-0.85,2.38,0.14,-0.02,0.05
11.40949010848999,2,3,3,3,-9.43,-0.82,2.36,0.06,0.07000000000000001,0.04
11.41949009895325,2,3,3,3,-9.43,-0.83,2.35,0.05,0.13,0.03
11.4294900894165,2,3,3,3,-9.44,-0.83,2.32,0,0.09,0.01
11.43949007987976,2,3,3,3,-9.449999999999999,-0.87,2.35,-0.11,0.1,-0.05
11.44949007034302,2,3,3,3,-9.49,-0.88,2.34,-0.11,0.1,-0.05
11.45949006080627,2,3,3,3,-9.539999999999999,-0.88,2.36,-0.14,0.24,-0.11
11.46949005126953,2,3,3,3,-9.57,-0.86,2.37,-0.21,0.16,-0.11
11.47949004173279,2,3,3,3,-9.58,-0.9,2.23,-0.24,0.04,-0.16
11.48949003219604,2,3,3,3,-9.529999999999999,-0.87,2.27,-0.12,0.11,-0.2
11.50048995018005,2,3,3,3,-9.5,-0.84,2.31,-0.12,0.11,-0.2
11.51048994064331,2,3,3,3,-9.44,-0.91,2.49,-0.01,0.03,-0.18
11.52048993110657,2,3,3,3,-9.44,-0.93,2.43,-0.15,0.03,-0.15
11.53048992156982,2,3,3,3,-9.41,-0.95,2.25,-0.27,0.1,-0.07000000000000001
11.54048991203308,2,3,3,3,-9.43,-0.9399999999999999,2.22,-0.15,0.2,-0.04
11.55048990249634,2,3,3,3,-9.449999999999999,-0.9399999999999999,2.35,-0.15,0.2,-0.04
11.56048989295959,2,3,3,3,-9.460000000000001,-0.95,2.36,-0.23,0.1,-0.02
11.57048988342285,2,3,3,3,-9.48,-0.9399999999999999,2.29,-0.24,0.15,-0.06
11.58049011230469,2,3,3,3,-9.529999999999999,-0.9399999999999999,2.23,-0.21,0.22,-0.11
11.59049010276794,2,3,3,3,-9.5,-0.96,2.26,-0.31,0.23,-0.21
11.6004900932312,2,3,3,3,-9.52,-0.95,2.22,-0.31,0.23,-0.21
11.61049008369446,2,3,3,3,-9.58,-0.99,2.34,-0.28,0.33,-0.3
11.62049007415771,2,3,3,3,-9.6,-0.98,2.38,-0.11,0.04,-0.3
11.63049006462097,2,3,3,3,-9.470000000000001,-1.02,2.28,-0.16,0.05,-0.26
11.64049005508423,2,3,3,3,-9.42,-1.05,2.27,-0.23,0.14,-0.19
11.65049004554749,2,3,3,3,-9.390000000000001,-1.03,2.25,-0.23,0.14,-0.19
11.66049003601074,2,3,3,3,-9.48,-1.02,2.37,-0.09,0.23,-0.15
11.670490026474,2,3,3,3,-9.460000000000001,-0.99,2.37,-0.01,-0.01,-0.09
11.68049001693726,2,3,3,3,-9.44,-1.02,2.25,-0.02,0.07000000000000001,-0.11
11.69049000740051,2,3,3,3,-9.43,-1.03,2.18,-0.02,0.26,-0.09
11.70048999786377,2,3,3,3,-9.5,-0.99,2.18,-0.02,0.26,-0.09
11.71048998832703,2,3,3,3,-9.59,-1,2.28,0.05,0.4,-0.14
11.72048997879028,2,3,3,3,-9.57,-0.98,2.29,0.29,0.22,-0.19
11.73048996925354,2,3,3,3,-9.57,-1,2.24,0.36,-0.08,-0.22
11.7404899597168,2,3,3,3,-9.42,-1.05,2.27,0.24,0,-0.22
11.75048995018005,2,3,3,3,-9.43,-1.02,2.28,0.24,0,-0.22
11.76048994064331,2,3,3,3,-9.48,-0.98,2.33,0.19,0.16,-0.22
11.77048993110657,2,3,3,3,-9.48,-0.96,2.36,0.2,0.22,-0.22
11.78048992156982,2,3,3,3,-9.49,-0.95,2.16,0.06,0.22,-0.22
11.79048991203308,2,3,3,3,-9.529999999999999,-0.96,2.18,0.09,0.22,-0.19
11.80048990249634,2,3,3,3,-9.52,-0.95,2.25,0.09,0.22,-0.19
11.81048989295959,2,3,3,3,-9.5,-0.9399999999999999,2.28,0.13,0.26,-0.15
11.82048988342285,2,3,3,3,-9.44,-0.95,2.29,0.14,0.22,-0.15
11.83049011230469,2,3,3,3,-9.470000000000001,-0.99,2.2,0.13,0.05,-0.12
11.84049010276794,2,3,3,3,-9.449999999999999,-0.97,2.2,0.08,0.06,-0.06
11.8504900932312,2,3,3,3,-9.56,-0.92,2.31,0.08,0.06,-0.06
11.86049008369446,2,3,3,3,-9.56,-0.95,2.33,-0.03,-0.12,0.08
11.87049007415771,2,3,3,3,-9.5,-0.93,2.28,-0.15,-0.05,0.09
11.88049006462097,2,3,3,3,-9.49,-0.91,2.17,-0.16,0.1,0.08
11.89049005508423,2,3,3,3,-9.470000000000001,-0.9399999999999999,2.28,-0.15,0.18,0.04
11.90049004554749,2,3,3,3,-9.5,-0.92,2.27,-0.15,0.18,0.04
11.91049003601074,2,3,3,3,-9.51,-0.95,2.31,-0.12,0.22,-0.02
11.920490026474,2,3,3,3,-9.49,-0.95,2.34,-0.17,0.16,-0.06
11.93049001693726,2,3,3,3,-9.470000000000001,-0.9399999999999999,2.17,-0.28,0.06,-0.01
11.94049000740051,2,3,3,3,-9.449999999999999,-0.93,2.15,-0.33,0.2,0.04
11.95048999786377,2,3,3,3,-9.470000000000001,-0.92,2.25,-0.33,0.2,0.04
11.96048998832703,2,3,3,3,-9.51,-0.91,2.3,-0.3,0.21,0.06
11.97048997879028,2,3,3,3,-9.52,-0.93,2.22,-0.32,0.18,0.05
11.98048996925354,2,3,3,3,-9.539999999999999,-0.97,2.21,-0.38,0.18,0.02
11.9904899597168,2,3,3,3,-9.550000000000001,-0.98,2.21,-0.35,0.11,-0.05
12.00048995018005,2,3,3,3,-9.51,-1,2.19,-0.38,0.08,-0.05
12.01048994064331,2,3,3,3,-9.470000000000001,-1.03,2.29,-0.35,0.1,-0.05
12.02048993110657,2,3,3,3,-9.460000000000001,-1.03,2.27,-0.34,0.09,-0.05
12.03048992156982,2,3,3,3,-9.43,-1.04,2.12,-0.31,0.04,0
12.04048991203308,2,3,3,3,-9.470000000000001,-1.02,2.21,-0.22,0.09,0
12.05048990249634,2,3,3,3,-9.449999999999999,-1.04,2.24,-0.17,0.06,0.05
12.06048989295959,2,3,3,3,-9.44,-1.05,2.21,-0.09,0.06,0.04
12.07048988342285,2,3,3,3,-9.5,-1.05,2.22,-0.15,0.06,0.06
12.08049011230469,2,3,3,3,-9.539999999999999,-1,2.14,-0.13,0,0.1
12.09049010276794,2,3,3,3,-9.51,-1.01,2.14,-0.17,-0.07000000000000001,0.14
12.1004900932312,2,3,3,3,-9.49,-1.02,2.23,-0.17,-0.06,0.15
12.11049008369446,2,3,3,3,-9.49,-1.03,2.22,-0.08,-0.01,0.14
12.12049007415771,2,3,3,3,-9.5,-1.07,2.25,0.03,-0.03,0.12
12.13049006462097,2,3,3,3,-9.51,-1.02,2.18,0.09,0.01,0.05
12.14049005508423,2,3,3,3,-9.529999999999999,-1.03,2.17,0.09,0,0.03
12.15049004554749,2,3,3,3,-9.550000000000001,-1.03,2.2,0.1,-0.05,0.02
12.16049003601074,2,3,3,3,-9.52,-0.9399999999999999,2.25,0.14,-0.09,0
12.170490026474,2,3,3,3,-9.470000000000001,-0.97,2.28,0.11,-0.08,0.04
12.18049001693726,2,3,3,3,-9.460000000000001,-0.98,2.18,0.02,-0.09,0.06
12.19049000740051,2,3,3,3,-9.470000000000001,-0.99,2.21,-0.09,-0.1,0.11
12.20048999786377,2,3,3,3,-9.539999999999999,-1.02,2.22,-0.13,-0.09,0.1
12.21048998832703,2,3,3,3,-9.550000000000001,-1.04,2.26,-0.08,-0.14,0.09
12.22048997879028,2,3,3,3,-9.539999999999999,-1.04,2.2,0,-0.25,0.01
12.23048996925354,2,3,3,3,-9.380000000000001,-1.04,2.12,0.1,-0.39,-0.04
12.2404899597168,2,3,3,3,-9.31,-1.07,2.22,0.17,-0.52,-0.14
12.25048995018005,2,3,3,3,-9.210000000000001,-1.06,2.3,0.18,-0.54,-0.16
12.26048994064331,2,3,3,3,-9.109999999999999,-1.1,2.29,0.22,-0.5600000000000001,-0.26
12.27048993110657,2,3,3,3,-9.15,-1.05,2.29,0.16,-0.49,-0.27
12.28048992156982,2,3,3,3,-9.369999999999999,-1.05,2.38,0.28,-0.54,-0.18
12.29048991203308,2,3,3,3,-9.720000000000001,-1.07,2.59,0.5600000000000001,-0.71,0.1
12.30048990249634,2,3,3,3,-10.01,-1.05,2.7,0.84,-1.02,0.43
12.31048989295959,2,3,3,3,-9.859999999999999,-0.78,2.63,1.01,-1.29,0.63
12.32048988342285,2,3,3,3,-9.619999999999999,-0.65,2.76,1.17,-1.2,0.58
12.33049011230469,2,3,3,3,-9.449999999999999,-0.64,2.85,1.09,-0.9,0.37
12.34049010276794,2,3,3,3,-9.43,-0.77,2.96,0.66,-0.57,-0.05
12.3504900932312,2,3,3,3,-9.529999999999999,-0.99,2.8,-0.14,-0.22,-0.46
12.36049008369446,2,3,3,3,-9.49,-1.05,2.68,-1.03,0.18,-0.89
12.37049007415771,2,3,3,3,-9.41,-1.17,2.57,-1.59,0.58,-1.26
12.38049006462097,2,3,3,3,-9.32,-1.31,2.38,-1.71,1.01,-1.62
12.39049005508423,2,3,3,3,-9.279999999999999,-1.57,2.36,-1.48,1.33,-1.84
12.40049004554749,2,3,3,3,-9.300000000000001,-1.67,2.42,-0.97,1.35,-1.98
12.41049003601074,2,3,3,3,-9.24,-1.71,2.52,-0.24,1.08,-1.98
12.420490026474,2,3,3,3,-8.970000000000001,-1.64,2.77,0.57,0.54,-1.84
12.43049001693726,2,3,3,3,-8.789999999999999,-1.56,2.84,1.44,0,-1.53
12.44049000740051,2,3,3,3,-8.609999999999999,-1.45,3.02,2.12,-0.38,-1.2
12.45048999786377,2,3,3,3,-8.529999999999999,-1.34,3.13,2.5,-0.47,-0.74
12.46048998832703,2,3,3,3,-8.76,-1.08,3.36,2.72,-0.43,-0.29
12.47048997879028,2,3,3,3,-9.08,-0.9399999999999999,3.46,2.93,-0.28,0.13
12.48048996925354,2,3,3,3,-9.34,-0.73,3.46,3.25,-0.52,0.53
12.4904899597168,2,3,3,3,-9.359999999999999,-0.6,3.43,3,-1.16,0.83
12.50048995018005,2,3,3,3,-9.59,-0.57,3.67,2.38,-1.45,0.96
12.51048994064331,2,3,3,3,-9.550000000000001,-0.52,3.6,2.05,-2.04,0.91
12.52048993110657,2,3,3,3,-9.460000000000001,-0.53,3.51,1.04,-2.82,0.88
12.53149008750916,2,3,3,3,-9.65,-0.63,3.54,0.54,-3.01,0.82
12.54149007797241,2,3,3,3,-9.449999999999999,-0.66,2.62,0.17,-3.9,0.6899999999999999
12.55149006843567,2,3,3,3,-9.279999999999999,-0.86,2.69,-1.27,-4.2,0.54
12.56149005889893,2,3,3,3,-9.35,-0.85,3.21,-0.78,-3.26,0.42
12.57149004936218,2,3,3,3,-9.34,-0.91,2.74,-0.42,-3,0.3
12.58149003982544,2,3,3,3,-9.33,-0.79,2.44,0.12,-2.73,0.05
12.5914900302887,2,3,3,3,-9.109999999999999,-0.74,2.67,0.92,-2.39,-0.26
12.60149002075195,2,3,3,3,-8.75,-0.8100000000000001,2.64,1.4,-2.05,-0.41
12.61149001121521,2,3,3,3,-8.59,-0.99,2.85,1.25,-1.36,-0.51
12.62149000167847,2,3,3,3,-8.69,-1.17,2.79,1.02,-0.84,-0.49
12.63148999214172,2,3,3,3,-8.869999999999999,-1.32,2.6,0.61,-0.5,-0.32
12.64148998260498,2,3,3,3,-9.119999999999999,-1.36,2.38,0.39,-0.38,-0.04
12.65148997306824,2,3,3,3,-9.48,-1.15,2.24,0.45,-0.46,0.22
12.66148996353149,2,3,3,3,-9.44,-1.05,2.31,0.77,-0.5600000000000001,0.48
12.67148995399475,2,3,3,3,-9.34,-0.96,2.4,0.77,-0.43,0.39
12.68148994445801,2,3,3,3,-9.23,-0.91,2.3,0.6,-0.11,0.18
12.69148993492126,2,3,3,3,-9.25,-0.85,2.25,0.44,0.41,0.04
12.70148992538452,2,3,3,3,-9.390000000000001,-0.72,2.34,0.51,0.87,0.05
12.71148991584778,2,3,3,3,-9.52,-0.54,2.38,0.66,1,0.22
12.72148990631104,2,3,3,3,-9.56,-0.29,2.23,0.7,1.02,0.39
12.73148989677429,2,3,3,3,-9.6,0.34,2.14,0.71,1.19,0.44
12.74148988723755,2,3,3,3,-9.65,0.59,2.27,0.65,1.3,0.42
12.75148987770081,2,3,3,3,-9.73,0.71,2.37,0.21,1.45,0.33
12.76149010658264,2,3,3,3,-9.880000000000001,0.83,2.19,-0.36,1.64,0.18
12.7714900970459,2,3,3,3,-9.85,0.84,2.24,-0.73,1.74,-0.08
12.78149008750916,2,3,3,3,-9.76,0.73,2.38,-0.6899999999999999,1.77,-0.4
12.79149007797241,2,3,3,3,-9.65,0.54,2.49,-0.53,1.54,-0.74
12.80149006843567,2,3,3,3,-9.33,0.08,2.65,-0.41,1.38,-0.99
12.81149005889893,2,3,3,3,-9.19,-0.05,2.64,-0.29,1.43,-1.16
12.82149004936218,2,3,3,3,-9.130000000000001,-0.2,2.58,-0.48,1.89,-1.09
12.83149003982544,2,3,3,3,-9.17,-0.27,2.32,-0.82,2.61,-0.99
12.8414900302887,2,3,3,3,-9.220000000000001,-0.07000000000000001,2.09,-1.1,3.33,-0.96
12.85149002075195,2,3,3,3,-9.33,-0.06,2.12,-1.25,4.01,-0.95
12.86149001121521,2,3,3,3,-9.43,-0.17,1.97,-1.1,4.4,-0.93
12.87149000167847,2,3,3,3,-9.550000000000001,-0.28,1.81,-0.96,4.4,-1.07
12.88148999214172,2,3,3,3,-9.67,-0.46,1.71,-0.58,4.11,-1.3
12.89148998260498,2,3,3,3,-9.720000000000001,-0.5600000000000001,1.72,-0.06,3.54,-1.41
12.90148997306824,2,3,3,3,-9.68,-0.57,1.75,0.38,3.11,-1.38
12.91148996353149,2,3,3,3,-9.550000000000001,-0.57,1.83,0.66,2.72,-1.23
12.92148995399475,2,3,3,3,-9.33,-0.53,1.88,0.73,2.31,-0.93
12.93148994445801,2,3,3,3,-9.300000000000001,-0.55,1.89,0.73,1.99,-0.58
12.94148993492126,2,3,3,3,-9.220000000000001,-0.52,1.84,0.7,1.66,-0.25
12.95148992538452,2,3,3,3,-9.23,-0.5,1.9,0.62,1.5,0.09
12.96148991584778,2,3,3,3,-9.26,-0.47,1.92,0.84,1.33,0.3
12.97148990631104,2,3,3,3,-9.279999999999999,-0.33,1.87,1.2,1,0.36
12.98148989677429,2,3,3,3,-9.359999999999999,-0.23,1.85,1.39,0.91,0.3
12.99148988723755,2,3,3,3,-9.529999999999999,-0.18,2.08,1.58,0.89,0.1
13.00148987770081,2,3,3,3,-9.630000000000001,-0.09,2.19,1.66,0.84,-0.26
13.01149010658264,2,3,3,3,-9.74,-0.05,2.21,1.77,0.76,-0.6899999999999999
13.0214900970459,2,3,3,3,-9.83,-0.1,2.22,1.64,0.62,-1.15
13.03149008750916,2,3,3,3,-9.779999999999999,-0.3,1.91,1.54,0.45,-1.54
13.04149007797241,2,3,3,3,-9.65,-0.35,1.93,1.66,0.44,-1.97
13.05149006843567,2,3,3,3,-9.5,-0.34,2.05,2.16,0.39,-2.35
13.06149005889893,2,3,3,3,-9.32,-0.27,2.09,2.77,0.3,-2.72
13.07149004936218,2,3,3,3,-9.119999999999999,-0.16,2.19,3.22,0.27,-2.89
13.08149003982544,2,3,3,3,-9.17,-0.11,2.17,3.32,0.15,-2.94
13.0914900302887,2,3,3,3,-9.220000000000001,-0.06,2.23,3.21,0.01,-2.73
13.10149002075195,2,3,3,3,-9.27,-0.03,2.18,2.9,0.02,-2.41
13.11149001121521,2,3,3,3,-9.32,0.06,2.09,2.77,0.14,-2.12
13.12149000167847,2,3,3,3,-9.279999999999999,0.1,2.05,2.84,0.21,-2.03
13.13148999214172,2,3,3,3,-9.27,0.06,1.94,3.04,0.24,-2.09
13.14148998260498,2,3,3,3,-9.300000000000001,0.11,1.56,3.2,0.47,-2.29
13.15148997306824,2,3,3,3,-9.460000000000001,0.14,1.62,3.05,1.08,-2.52
13.16148996353149,2,3,3,3,-9.58,0.16,1.66,3.35,1.61,-2.65
13.17148995399475,2,3,3,3,-9.67,0.22,1.56,3.72,1.71,-2.78
13.18148994445801,2,3,3,3,-9.710000000000001,0.33,1.48,3.77,1.62,-2.91
13.19148993492126,2,3,3,3,-9.82,0.26,1.54,3.76,1.5,-3.04
13.20148992538452,2,3,3,3,-10.01,0.24,1.61,3.71,1.52,-3.01
13.21148991584778,2,3,3,3,-10.18,0.16,1.66,3.8,1.49,-2.77
13.22148990631104,2,3,3,3,-10.15,0.34,1.42,4.09,1.39,-2.57
13.23148989677429,2,3,3,3,-9.98,0.41,1.44,4.59,1.24,-2.52
13.24148988723755,2,3,3,3,-9.779999999999999,0.46,1.59,5.23,1.12,-2.67
13.25148987770081,2,3,3,3,-9.69,0.61,1.77,5.73,1.45,-2.73
13.26149010658264,2,3,3,3,-10.01,0.75,2.37,6.04,2.12,-2.64
13.2714900970459,2,3,3,3,-10.57,0.74,2.4,5.93,2.67,-2.26
13.28149008750916,2,3,3,3,-11.13,0.87,2.08,5.07,2.88,-1.57
13.29149007797241,2,3,3,3,-11.7,1.14,1.93,4.27,2.76,-0.82
13.30149006843567,2,3,3,3,-11.81,1.26,1.93,3.86,2.77,-0.39
13.31149005889893,2,3,3,3,-11.92,1.26,1.88,3.29,2.75,-0.32
13.32149004936218,2,3,3,3,-12.11,1.26,1.89,2.42,2.79,-0.39
13.33149003982544,2,3,3,3,-12.41,1.04,1.66,1.3,2.83,-0.43
13.3414900302887,2,3,3,3,-12.5,0.95,1.79,0.17,2.82,-0.31
13.35149002075195,2,3,3,3,-12.46,0.73,1.82,-0.72,2.24,-0.34
13.36149001121521,2,3,3,3,-12.3,0.48,1.73,-1.77,1.1,-0.45
13.37149000167847,2,3,3,3,-11.99,-0.16,2.11,-2.61,0.31,-0.51
13.38148999214172,2,3,3,3,-11.91,-0.57,2.62,-2.32,0.21,-0.26
13.39148998260498,2,3,3,3,-11.9,-1.22,2.88,-2.37,0.11,0.21
13.40148997306824,2,3,3,3,-11.82,-1.82,2.4,-3.53,-0.23,1.01
13.41148996353149,2,3,3,3,-10.93,-2.1,1.06,-4.86,-0.18,1.97
13.42148995399475,2,3,3,3,-10.51,-2.1,0.95,-5.13,0.43,2.94
13.43148994445801,2,3,3,3,-10.06,-2.29,0.8,-4.94,0.77,3.43
13.44148993492126,2,3,3,3,-9.67,-2.77,0.91,-4.85,0.8100000000000001,3.51
13.45148992538452,2,3,3,3,-9.199999999999999,-3.78,0.98,-4.43,0.8,3.23
13.46148991584778,2,3,3,3,-9.06,-4.17,0.86,-4.01,0.76,2.94
13.48148989677429,2,3,3,3,-8.300000000000001,-4.83,0.49,-3.44,0.28,3.12
13.49249005317688,2,3,3,3,-7.95,-4.74,0.49,-2.65,0.45,3.67
13.50148987770081,2,3,3,3,-7.72,-4.62,0.58,-1.46,0.9399999999999999,4.12
13.51149010658264,2,3,3,3,-7.67,-4.44,0.8100000000000001,0.25,1.72,4.46
13.52249002456665,2,3,3,3,-7.97,-3.87,1.39,2.27,2.37,4.64
13.53149008750916,2,3,3,3,-8.31,-3.66,1.62,4.27,2.53,4.83
13.54149007797241,2,3,3,3,-8.800000000000001,-3.39,1.97,6.22,2.14,5.26
13.55248999595642,2,3,3,3,-9.27,-2.88,2.35,8.119999999999999,0.9399999999999999,5.66
13.56248998641968,2,3,3,2,-9.73,-1.62,2.54,8.859999999999999,-0.75,6.04
13.57248997688293,2,3,3,2,-9.869999999999999,-0.91,2.66,8.68,-2.21,6.17
13.58248996734619,2,3,3,2,-10.06,-0.2,2.76,8.32,-3.14,6.04
13.59248995780945,2,3,3,2,-10.23,0.51,2.91,7.58,-3.79,5.94
13.60248994827271,2,3,3,2,-10.35,1.08,3.26,5.94,-4.44,5.75
13.61248993873596,2,3,3,2,-10.39,1.2,3.26,3.75,-5.61,5.21
13.62248992919922,2,3,3,2,-10.3,1.22,3.25,1.31,-7.11,4.57
13.63248991966248,2,3,3,2,-10.33,1.1,3.02,-1.42,-8.529999999999999,3.88
13.64248991012573,2,3,3,2,-9.68,0.67,2.36,-4.05,-10.02,3.26
13.65248990058899,2,3,3,2,-9.210000000000001,0.41,2.08,-6.25,-10.47,2.65
13.66248989105225,2,3,3,1,-8.869999999999999,0.15,2.08,-7.52,-9.890000000000001,2.11
13.6724898815155,2,3,3,1,-8.300000000000001,-0.43,2.18,-7.96,-9.279999999999999,1.76
13.68249011039734,2,3,3,1,-7.97,-0.72,2.22,-8.199999999999999,-8.92,1.51
13.6924901008606,2,3,3,1,-7.83,-1.07,2.46,-8.109999999999999,-8.67,1.53
13.70249009132385,2,3,3,1,-7.74,-1.26,2.58,-7.99,-8.550000000000001,1.67
13.71249008178711,2,3,3,1,-7.57,-1.58,2.49,-8.140000000000001,-8.6,1.72
13.72249007225037,2,3,3,1,-7.71,-1.56,2.59,-7.96,-8.19,1.73
13.73249006271362,2,3,3,1,-7.86,-1.33,2.57,-7.2,-7.79,1.87
13.74249005317688,2,3,3,1,-7.76,-1.12,2.57,-6.36,-7.88,2.03
13.75249004364014,2,3,3,1,-7.56,-0.88,2.75,-5.78,-7.98,2.19
13.76249003410339,2,3,3,0,-7.67,-0.75,2.95,-4.79,-7.34,2.13
13.77249002456665,2,3,3,0,-7.7,-0.65,3.03,-3.74,-6.73,2.29
13.78249001502991,2,3,3,0,-7.73,-0.5,3.01,-3.07,-5.84,2.3
13.79249000549316,2,3,3,0,-8,-0.11,3.24,-2.35,-4.86,1.98
13.80248999595642,2,3,3,0,-7.99,0.13,3.18,-1.75,-4.21,1.56
13.81248998641968,2,3,3,0,-7.91,0.37,3.2,-1.52,-3.48,1.07
13.82248997688293,2,3,3,0,-7.83,0.55,3.26,-1.38,-2.41,0.63
13.83248996734619,2,3,3,0,-7.78,1.06,3.33,-1.3,-1.28,0.28
13.84248995780945,2,3,3,0,-7.84,1.16,3.5,-1.43,-0.46,-0.04
13.85248994827271,2,3,3,0,-7.78,1.28,3.55,-1.68,0.29,-0.28
13.86248993873596,2,3,3,0,-7.94,1.47,3.86,-2.03,1.03,-0.3
13.87248992919922,2,3,3,0,-7.97,1.53,4.05,-2.47,1.3,-0.31
13.88248991966248,2,3,3,0,-8.039999999999999,1.69,4.19,-2.98,1.31,-0.22
13.89248991012573,2,3,3,0,-8.07,1.84,4.37,-3.1,1.06,-0.16
13.90248990058899,2,3,3,0,-7.97,2.06,4.54,-2.92,0.54,0.02
13.91248989105225,2,3,3,0,-7.95,1.9,4.6,-3.29,0.31,0.18
13.9224898815155,2,3,3,0,-7.95,1.64,4.36,-4.33,0.62,0.5
13.93249011039734,2,3,3,0,-7.96,1.38,3.99,-5.77,1.19,0.84
13.9424901008606,2,3,3,0,-8.59,0.38,3.91,-7.47,2.3,1.13
13.95249009132385,2,3,3,0,-9.08,-0.46,4.04,-9.199999999999999,3.47,1.51
13.96249008178711,2,3,3,0,-9.359999999999999,-1.38,3.89,-10.72,3.71,1.62
13.97249007225037,2,3,3,0,-9.6,-2.2,3.4,-11.98,3,1.17
13.98249006271362,2,3,3,0,-11.01,-2.44,1.7,-12.58,2.68,0.22
13.99249005317688,2,3,3,0,-11.87,-1.8,2.27,-11.11,2.7,-0.62
14.00249004364014,2,3,3,0,-12.54,-1.15,3.94,-6.47,1.75,-0.66
14.01249003410339,2,3,3,0,-11.7,0.28,5.99,-0.05,-1.57,0.28
14.02249002456665,2,3,3,0,-10.73,0.58,6.25,3.86,-5.81,2
14.06248998641968,2,3,3,0,-12.15,2.32,7.14,-3.19,-0.75,7.3
14.07248997688293,2,3,3,0,-13.74,1.87,7.13,-4.73,-0.35,7.14
14.08248996734619,2,3,3,0,-14.44,1.12,5.38,-7.56,-2.65,5.28
14.09248995780945,2,3,3,0,-14.72,0.6899999999999999,2.36,-9.19,-2.75,2.12
14.10248994827271,2,3,3,0,-14.47,0.43,3.22,-7.19,0.18,-0.42
14.11248993873596,2,3,3,0,-13.05,-0.63,4.42,-3.93,0.38,-1.88
14.12248992919922,2,3,3,0,-11.17,-2.05,4.75,-2.92,-3.85,-3.17
14.13248991966248,2,3,3,0,-8.710000000000001,-3.45,3.93,-2.99,-6.89,-3.53
14.14248991012573,2,3,3,0,-8.31,-3.15,4.31,-2.55,-4.91,-2.71
14.15248990058899,2,3,3,0,-8.25,-2.69,4.08,-2.11,-1.97,-1.59
14.16248989105225,2,3,3,0,-8.4,-2.36,3.4,-2.4,-0.78,-0.88
14.1724898815155,2,3,3,0,-8.59,-1.82,1.99,-2.34,-0.07000000000000001,-1.04
14.18249011039734,2,3,3,0,-8.449999999999999,-1.56,1.22,-1.8,1.41,-1.91
14.1924901008606,2,3,3,0,-8.23,-1.64,0.91,-1.64,3.51,-2.9
14.20249009132385,2,3,3,0,-7.63,-1.99,1.25,-2.05,4.68,-3.4
14.21249008178711,2,3,3,0,-7.4,-2.13,1.49,-2.39,4.5,-3.2
14.22249007225037,2,3,3,0,-7.44,-2.33,1.56,-2.48,3.48,-2.68
14.23249006271362,2,3,3,0,-7.52,-2.5,1.36,-2.66,2.47,-1.92
14.24249005317688,2,3,3,0,-7.5,-2.62,1.21,-3.19,1.62,-1.14
14.25249004364014,2,3,3,0,-7.55,-2.68,1.3,-3.39,0.99,-0.23
14.26249003410339,2,3,3,0,-7.47,-2.8,1.35,-3.02,0.54,0.5600000000000001
14.27249002456665,2,3,3,0,-7.35,-2.76,1.54,-2.57,0.2,1.11
14.28249001502991,2,3,3,0,-7.29,-2.78,1.77,-2.19,0.46,1.72
14.29249000549316,2,3,3,0,-7.42,-2.75,1.69,-1.85,1.03,2.49
14.30248999595642,2,3,3,0,-7.64,-2.7,1.38,-1.52,1.73,3.2
14.31248998641968,2,3,3,0,-7.96,-2.63,1.32,-0.89,2.67,3.48
14.32248997688293,2,3,3,0,-8.800000000000001,-2.66,1.2,0.28,3.48,3.29
14.33248996734619,2,3,3,0,-9.220000000000001,-2.62,1.09,1.84,3.7,2.74
14.34248995780945,2,3,3,0,-9.640000000000001,-2.47,1.25,3.67,3.78,1.89
14.35248994827271,2,3,3,0,-9.92,-2.15,1.25,5.64,3.8,0.92
14.36248993873596,2,3,3,0,-9.699999999999999,-1.43,1.1,7.09,3.82,-0.13
14.37248992919922,2,3,3,0,-9.41,-1.2,1.3,7.87,4.01,-1.15
14.38248991966248,2,3,3,0,-9.140000000000001,-0.77,1.54,7.9,4.16,-1.62
14.39248991012573,2,3,3,0,-8.59,-0.03,2.06,7.39,3.82,-1.69
14.40248990058899,2,3,3,0,-8.5,0.09,2.31,6.35,3.41,-1.4
14.41248989105225,2,3,3,0,-8.550000000000001,0.08,2.26,5.44,3.52,-0.98
14.4224898815155,2,3,3,0,-8.57,0.08,2.08,4.55,3.76,-0.66
14.43249011039734,2,3,3,0,-8.699999999999999,-0.2,2.02,3.76,3.65,-0.5
14.4424901008606,2,3,3,0,-8.699999999999999,-0.34,1.88,3.05,3.19,-0.49
14.45249009132385,2,3,3,0,-8.69,-0.37,1.71,1.95,2.93,-0.6899999999999999
14.46249008178711,2,3,3,0,-8.710000000000001,-0.4,1.31,0.86,3.21,-0.92
14.47249007225037,2,3,3,0,-8.73,-0.31,1.25,0.15,3.43,-1.19
14.48249006271362,2,3,3,0,-8.58,-0.26,1.04,0.12,3.26,-1.49
14.49249005317688,2,3,3,0,-8.42,-0.25,1.27,0.32,2.92,-1.76
14.50249004364014,2,3,3,0,-8.32,-0.31,1.32,0.86,2.52,-2.08
14.51249003410339,2,3,3,0,-8.15,-0.61,1.8,1.31,2.11,-2.41
14.52249002456665,2,3,3,0,-8.19,-0.83,2.04,1.68,1.58,-2.7
14.53249001502991,2,3,3,0,-8.300000000000001,-1.02,2.12,1.57,0.85,-3
14.54249000549316,2,3,3,0,-8.609999999999999,-1.29,2.35,1.25,0.48,-3.16
14.55248999595642,2,3,3,0,-9.359999999999999,-1.69,2.25,1.06,0.36,-3.28
14.56248998641968,2,3,3,0,-9.789999999999999,-1.9,1.93,0.91,0.34,-3.46
14.57348990440369,2,3,3,0,-10.13,-1.9,1.7,1.18,0.4,-3.69
14.58348989486694,2,3,3,0,-10.53,-1.47,1.08,2.26,0.46,-3.93
14.5934898853302,2,3,3,0,-10.56,-0.95,1.25,3.9,0.04,-4.24
14.60348987579346,2,3,3,0,-10.37,-0.3,1.49,6.37,-1.13,-4.76
14.61349010467529,2,3,3,0,-10.07,0.24,1.99,8.359999999999999,-2.64,-5.3
14.62349009513855,2,3,3,0,-9.289999999999999,0.98,2.51,9.43,-3.67,-5.77
14.63349008560181,2,3,3,0,-8.99,1.15,2.54,9.44,-3.84,-5.9
14.64349007606506,2,3,3,0,-8.85,1.23,2.83,8.9,-3.46,-5.66
14.65349006652832,2,3,3,0,-8.81,1.19,3.01,8.220000000000001,-2.74,-5.1
14.66349005699158,2,3,3,0,-9,0.85,2.79,7,-1.76,-4.55
14.67349004745483,2,3,3,0,-9.16,0.71,2.61,5.7,-0.67,-4.17
14.68349003791809,2,3,3,0,-9.35,0.65,2.35,4.35,0.58,-3.93
14.69349002838135,2,3,3,0,-9.58,0.71,2.28,3.38,2.03,-3.64
14.7034900188446,2,3,3,0,-10.37,0.95,2.28,3.07,3.02,-3.36
14.71349000930786,2,3,3,0,-10.88,1.15,2.24,3.63,3.24,-3.04
14.72348999977112,2,3,3,0,-11.41,1.39,2.27,4.77,2.56,-2.74
14.73348999023438,2,3,3,0,-11.86,1.7,2.38,6.43,1.53,-2.65
14.74348998069763,2,3,3,0,-12.07,2.03,3.12,8.1,0.73,-2.8
14.75348997116089,2,3,3,0,-12.02,2.16,3.62,9.35,0.67,-3.17
14.76348996162415,2,3,3,0,-12.12,2.28,4.23,10.13,1.58,-3.51
14.7734899520874,2,3,3,0,-12.66,2.34,4.25,9.890000000000001,2.95,-3.23
14.78348994255066,2,3,3,0,-12.57,2.16,3.34,7.76,4.32,-2.31
14.79348993301392,2,3,3,0,-12.41,2.24,2.84,4.71,6.7,-1.03
14.80348992347717,2,3,3,0,-12.45,2.62,2.95,2.55,9.66,0.14
14.81348991394043,2,3,3,0,-13.04,2.14,3.38,0.44,11.32,1.09
14.82348990440369,2,3,3,0,-13.43,1.15,2.86,-2.82,11.62,1.66
14.83348989486694,2,3,3,0,-13.7,-0.08,1.38,-6.76,11.74,1.83
14.8434898853302,2,3,3,0,-13.54,-1.13,0.17,-10.24,11.88,1.55
14.85348987579346,2,3,3,0,-12.43,-3.2,0.55,-11.9,10.93,1.43
14.86349010467529,2,3,3,0,-11.41,-4.64,1.24,-12.44,7.3,1.74
14.87349009513855,2,3,3,0,-10.27,-6.24,1.21,-12.6,2.22,2.51
14.88349008560181,2,3,3,0,-9.09,-7.24,0.4,-12.24,-0.47,3.38
14.89349007606506,2,3,3,0,-8.35,-7.93,-0.92,-10.87,0.37,4.45
14.90349006652832,2,3,3,0,-8.65,-7.99,-0.6899999999999999,-7.55,3.1,5.91
14.91349005699158,2,3,3,0,-9,-7.84,-0.02,-1.6,4.62,7.78
14.92349004745483,2,3,3,0,-9.02,-7.2,0.88,5.16,3.78,8.59
14.93349003791809,2,3,3,0,-8.77,-5.01,2.32,10.11,2.14,9.369999999999999
14.94349002838135,2,3,3,0,-8.65,-3.65,2.54,13.2,1.36,10.31
14.9534900188446,2,3,3,0,-8.68,-2.43,2.53,13.57,1.21,10.93
14.96349000930786,2,3,3,0,-9.51,-0.13,2.94,12.81,1.52,10.76
14.97348999977112,2,3,3,0,-10,0.83,3.31,12.17,1.46,9.550000000000001
14.98348999023438,2,3,3,0,-10.57,1.34,3.45,10.44,0.58,7.76
14.99348998069763,2,3,3,0,-11.02,1.49,3.4,7.7,-1.27,6.06
15.00348997116089,2,3,3,0,-11.18,1.26,2.76,4.55,-3.88,4.49
15.01348996162415,2,3,3,0,-11.02,0.9399999999999999,2.28,1.51,-6.52,3.18
15.0234899520874,2,3,3,0,-10.89,0.58,2.05,-0.89,-8.41,2.35
15.03348994255066,2,3,3,0,-10.66,0.34,1.8,-3.04,-10.23,1.77
15.04348993301392,2,3,3,0,-9.550000000000001,0.17,1.31,-5.38,-12.17,1.15
15.05348992347717,2,3,3,0,-8.699999999999999,0.11,1.26,-7.3,-13.7,0.83
15.06348991394043,2,3,3,0,-7.95,-0.06,1.36,-8.02,-13.5,0.85
15.07348990440369,2,3,3,0,-7.22,-0.22,1.57,-8.24,-12.59,1.08
15.08348989486694,2,3,3,0,-6,-0.54,1.93,-8.23,-11.99,1.26
15.0934898853302,2,3,3,0,-5.76,-0.8100000000000001,2.29,-8.140000000000001,-11.26,1.43
15.10348987579346,2,3,3,0,-5.76,-1.15,2.57,-7.92,-10.58,1.84
15.11349010467529,2,3,3,0,-6.65,-1.9,2.95,-7.88,-9.609999999999999,2.44
15.12349009513855,2,3,3,0,-6.96,-1.78,2.92,-7.47,-8.59,3.14
15.13349008560181,2,3,3,0,-7.05,-1.73,2.68,-6.81,-8.119999999999999,3.87
15.14349007606506,2,3,3,0,-7.1,-1.57,2.52,-6.18,-7.3,4.18
15.15349006652832,2,3,3,0,-7.26,-0.72,2.6,-5.06,-6.14,4.03
15.16349005699158,2,3,3,0,-7.36,-0.45,2.77,-3.71,-5.09,3.52
15.17349004745483,2,3,3,0,-7.56,-0.23,2.98,-2.7,-4.18,2.76
15.18349003791809,2,3,3,0,-7.8,0.05,3.15,-2.03,-3.67,1.8
15.19349002838135,2,3,3,0,-8.08,0.39,3.35,-1.92,-3.2,0.95
15.2034900188446,2,3,3,0,-7.97,0.54,3.34,-2.21,-2.66,0.24
15.21349000930786,2,3,3,0,-7.79,0.78,3.37,-2.68,-1.82,-0.27
15.22348999977112,2,3,3,0,-7.61,0.91,3.27,-3.18,-0.96,-0.51
15.23348999023438,2,3,3,0,-6.97,1.45,3.1,-3.67,0.18,-0.8100000000000001
15.24348998069763,2,3,3,0,-6.8,1.59,3.28,-3.76,1.38,-1.25
15.25348997116089,2,3,3,0,-6.85,1.58,3.5,-3.59,3.16,-1.55
15.26348996162415,2,3,3,0,-6.85,1.58,3.5,-3.07,4.78,-1.48
15.2734899520874,2,3,3,0,-7.33,1.42,4.02,-2.4,5.73,-1.04
15.28348994255066,2,3,3,0,-7.58,1.42,3.99,-1.9,5.66,-0.39
15.29348993301392,2,3,3,0,-7.94,1.44,4.18,-1.97,4.82,0.49
15.30348992347717,2,3,3,0,-8.460000000000001,1.27,4.6,-2.43,3.29,1.77
15.31348991394043,2,3,3,0,-8.460000000000001,1.27,4.6,-4.02,1.24,3.18
15.32348990440369,2,3,3,0,-8.32,-0.41,4.1,-8.27,-0.11,4.16
15.33348989486694,2,3,3,0,-8.69,-1.79,3.3,-12.65,-0.1,3.79
15.3434898853302,2,3,3,0,-10.52,-3.47,0.35,-16.41,0.84,1.89
15.35348987579346,2,3,3,0,-12.71,-2.65,1.1,-16.9,3.56,-0.67
15.36349010467529,2,3,3,0,-12.71,-2.65,1.1,-10.87,4.3,-1.87
15.37349009513855,2,3,3,0,-14.23,0.1,3.1,-0.61,-0.96,-1.42
15.38349008560181,2,3,3,0,-10.15,3.12,4.52,7.46,-5.86,-0.41
15.39349007606506,2,3,3,0,-9,4.21,6.93,13.04,-6.05,0.8
15.40349006652832,2,3,3,0,-8.869999999999999,4.92,8.91,14.57,-4.53,2.59
15.41349005699158,2,3,3,0,-9.25,5.66,9.25,10.18,-4.53,5.86
15.42349004745483,2,3,3,0,-9.25,5.66,9.25,0.4,-5.81,10.18
15.43349003791809,2,3,3,0,-13.79,4.91,7.81,-8.17,-4.97,12.63
15.44349002838135,2,3,3,0,-16.04,3.81,7.36,-11.56,-3.26,13.06
15.4534900188446,2,3,3,0,-16.4,2.04,5.61,-14.08,-4.2,10.65
15.46349000930786,2,3,3,0,-16.4,2.04,5.61,-17.53,-2,4.81
15.47348999977112,2,3,3,0,-19.85,-3.76,-0.52,-15.11,4.62,-2.14
15.48348999023438,2,3,3,0,-18.43,-3.79,0.28,-6.59,5.9,-8.01
15.49348998069763,2,3,3,0,-10.68,-5.21,3.44,-0.52,-0.68,-11.03
15.50348997116089,2,3,3,0,-7.59,-5.95,3.96,1.32,-9.220000000000001,-10.63
15.51348996162415,2,3,3,0,-7.59,-5.95,3.96,1.53,-13.02,-8.59
15.5234899520874,2,3,3,0,-5.44,-5.93,3.48,1.94,-10.62,-6.47
15.53348994255066,2,3,3,0,-4.41,-2.8,1.95,1.94,-6.31,-3.38
15.54348993301392,2,3,3,0,-5.73,-1.58,2.31,1.93,-1.6,-0.75
15.55348992347717,2,3,3,0,-6.96,-0.92,2.04,2.16,3.56,0.35
15.56348991394043,2,3,3,1,-6.96,-0.92,2.04,1.8,7,0.6
15.57348990440369,2,3,3,1,-7.94,-0.75,1.46,1.22,7.6,0.1
15.58348989486694,2,3,3,1,-8.99,-1.28,0.95,0.73,6.17,-1.07
15.5934898853302,2,3,3,1,-9.039999999999999,-1.78,1.46,0.34,3.75,-1.92
15.60449004173279,2,3,3,1,-8.69,-2.09,1.76,-0.29,0.89,-1.84
15.61449003219604,2,3,3,1,-8.69,-2.09,1.76,-0.29,0.89,-1.84
15.6244900226593,2,3,3,1,-7.82,-2.42,1.97,-1.71,0.13,-0.35
15.63449001312256,2,3,3,1,-7.84,-2.23,1.86,-1.8,1.42,0.05
15.64449000358582,2,3,3,1,-7.88,-2.03,1.83,-1.75,2.68,0.08
15.65448999404907,2,3,3,1,-8.109999999999999,-2.34,1.76,-1.33,4.1,-0.11
15.66448998451233,2,3,3,2,-8.109999999999999,-2.34,1.76,-1.33,4.1,-0.11
15.67448997497559,2,3,3,2,-8.09,-2.25,1.44,0.71,5.36,-1.33
15.68448996543884,2,3,3,2,-7.14,-2.37,0.82,2.29,5.31,-2.35
15.6944899559021,2,3,3,2,-7.24,-2.4,1.09,4.2,5.14,-3.38
15.70448994636536,2,3,3,2,-7.52,-2.32,1.32,5.98,4.7,-4.01
15.71448993682861,2,3,3,2,-7.52,-2.32,1.32,5.98,4.7,-4.01
15.72448992729187,2,3,3,2,-7.79,-1.95,1.39,7.26,3.99,-4.12
15.73448991775513,2,3,3,2,-8.369999999999999,-0.52,1.69,8.01,2.91,-3.67
15.74448990821838,2,3,3,2,-8.369999999999999,-0.18,1.97,7.9,2.95,-3.38
15.75448989868164,2,3,3,2,-8.31,0.14,2.16,7.3,3.09,-3.13
15.7644898891449,2,3,3,2,-8.31,0.14,2.16,7.3,3.09,-3.13
15.77448987960815,2,3,3,2,-8.42,0.35,2.33,5.41,3.81,-2.56
15.78449010848999,2,3,3,2,-8.890000000000001,0.5600000000000001,1.93,4.02,3.79,-2.36
15.79449009895325,2,3,3,2,-9.17,0.55,1.96,2.69,3.65,-2.32
15.8044900894165,2,3,3,2,-9.65,0.32,2.04,1.83,2.93,-2.45
15.81449007987976,2,3,3,2,-9.65,0.32,2.04,1.83,2.93,-2.45
15.82449007034302,2,3,3,2,-9.75,-0.1,2.01,0.73,1.7,-2.77
15.83449006080627,2,3,3,2,-9.82,-0.91,1.69,-0.68,0.93,-3.86
15.84449005126953,2,3,3,2,-9.960000000000001,-1.11,1.3,-0.8100000000000001,1.32,-4.52
15.85449004173279,2,3,3,2,-9.880000000000001,-1,1.49,-0.26,1.48,-5.16
15.86449003219604,2,3,3,2,-9.880000000000001,-1,1.49,-0.26,1.48,-5.16
15.8744900226593,2,3,3,2,-9.66,-0.88,1.63,0.9,0.97,-5.72
15.88449001312256,2,3,3,2,-9.24,-0.45,1.73,3.21,-0.26,-6.39
15.89449000358582,2,3,3,2,-8.779999999999999,-0.05,2.06,4.39,-1.1,-6.29
15.90448999404907,2,3,3,2,-8.779999999999999,-0.05,2.06,5.52,-2.06,-5.98
15.91448998451233,2,3,3,2,-8.43,-0.02,2.25,5.52,-2.06,-5.98
15.92448997497559,2,3,3,2,-7.69,-0.03,2.8,6.72,-2.75,-5.62
15.93448996543884,2,3,3,2,-7.58,-0.11,2.98,8.1,-2.62,-4.96
15.9444899559021,2,3,3,2,-7.74,-0.18,2.92,8.24,-1.58,-4.42
15.95448994636536,2,3,3,2,-8.039999999999999,-0.1,2.92,8.029999999999999,-0.5600000000000001,-3.89
15.96448993682861,2,3,3,2,-8.58,0.25,2.9,8.029999999999999,-0.5600000000000001,-3.89
15.97448992729187,2,3,3,2,-8.83,0.46,2.83,7.52,0.4,-3.65
15.98448991775513,2,3,3,2,-9.31,0.79,2.71,6.6,2.45,-3.23
15.99448990821838,2,3,3,2,-9.800000000000001,1.2,2.6,6.72,3.11,-2.96
16.00448989868164,2,3,3,2,-10.78,2.15,2.69,6.81,2.92,-2.63
16.0144898891449,2,3,3,2,-11.34,2.48,2.62,6.81,2.92,-2.63
16.02448987960815,2,3,3,2,-11.86,2.76,2.88,6.8,2.17,-2.36
16.03449010848999,2,3,3,2,-12.37,2.67,4.36,7.42,0.13,-2.54
16.04449009895325,2,3,3,2,-12.34,2.45,4.92,6.81,-0.29,-2.72
16.0544900894165,2,3,3,2,-12.29,2.17,5.35,5.4,0.6,-2.37
16.06449007987976,2,3,3,2,-12.28,2.01,5.17,5.4,0.6,-2.37
16.07449007034302,2,3,3,2,-12.01,1.47,3.96,2.63,3.06,-1.38
16.08449006080627,2,3,3,2,-11.87,1.15,3.72,-2.7,9.050000000000001,1.27
16.09449005126953,2,3,3,2,-11.99,0.67,3.56,-4.97,10.87,2.37
16.10449004173279,2,3,3,2,-12.4,-0.06,2.84,-7.72,13.12,3.3
16.11449003219604,2,3,3,2,-13.29,-1.59,-0.64,-7.72,13.12,3.3
16.1244900226593,2,3,3,2,-13.75,-2.45,-0.97,-10.35,16.03,3.82
16.13449001312256,2,3,3,2,-14.03,-3.36,-0.48,-10.37,12.98,2.99
16.14449000358582,2,3,3,2,-13.68,-4.36,-0.28,-11.26,6.73,2.35
16.15448999404907,2,3,3,2,-11.46,-7.34,-1.02,-10.83,3.54,2.47
16.16448998451233,2,3,3,2,-10.66,-7.92,-1.2,-10.83,3.54,2.47
16.17448997497559,2,3,3,2,-10.28,-8.199999999999999,-0.9,-7.31,4.04,3.42
16.18448996543884,2,3,3,2,-10.06,-7.98,0.04,4.98,3.23,6.74
16.1944899559021,2,3,3,2,-9.43,-6.5,1.9,10.44,1.48,8.15
16.20448994636536,2,3,3,2,-8.970000000000001,-4.96,2.66,13.69,0.22,9.470000000000001
16.21448993682861,2,3,3,1,-8.869999999999999,-3.35,3.11,13.69,0.22,9.470000000000001
16.22448992729187,2,3,3,1,-8.94,-0.6899999999999999,3.52,13.74,-0.54,10.39
16.23448991775513,2,3,3,1,-9.1,0.6,3.37,10.59,-0.87,9.34
16.24448990821838,2,3,3,1,-9.33,1.65,3.02,7.63,-1.36,7.44
16.25448989868164,2,3,3,1,-9.779999999999999,2.35,3,3.8,-2.86,5.41
16.2644898891449,2,3,3,1,-10.17,2.24,2.71,3.8,-2.86,5.41
16.27448987960815,2,3,3,1,-10.16,1.54,2.27,-0.97,-5.37,3.86
16.28449010848999,2,3,3,1,-10.01,0.82,1.77,-9.06,-8.74,1.85
16.29449009895325,2,3,3,1,-9.82,0.19,1.3,-11.24,-9.619999999999999,1.16
16.3044900894165,2,3,3,1,-9.31,-0.57,1.11,-12.44,-10.22,0.82
16.31449007987976,2,3,3,1,-8.84,-0.91,1.07,-12.44,-10.22,0.82
16.32449007034302,2,3,3,1,-8.19,-1.14,0.9399999999999999,-12.68,-10.76,0.95
16.33449006080627,2,3,3,1,-7.39,-1.29,0.84,-10.89,-10.51,1.43
16.34449005126953,2,3,3,1,-5.92,-1.91,1.26,-9.609999999999999,-9.779999999999999,1.7
16.35449004173279,2,3,3,1,-5.56,-2.06,1.96,-8.44,-9.029999999999999,2.06
16.36449003219604,2,3,3,1,-5.46,-2.27,2.55,-8.44,-9.029999999999999,2.06
16.3744900226593,2,3,3,1,-5.83,-2.36,2.96,-7.55,-8.109999999999999,2.91
16.38449001312256,2,3,3,1,-6.77,-2.41,2.78,-7.53,-7.73,5.42
16.39449000358582,2,3,3,1,-7.26,-2.16,2.57,-7.04,-7.29,6.57
16.40448999404907,2,3,3,1,-7.63,-1.54,2.44,-6.27,-6.79,7.13
16.41448998451233,2,3,3,1,-7.94,-0.53,2.32,-6.27,-6.79,7.13
16.42448997497559,2,3,3,1,-8.210000000000001,-0.13,2.42,-5.36,-5.84,6.92
16.43448996543884,2,3,3,1,-8.56,0.19,2.67,-3.32,-3.79,4.15
16.4444899559021,2,3,3,1,-8.960000000000001,0.4,2.8,-2.8,-3.34,2.39
16.45448994636536,2,3,3,1,-9.24,0.7,2.97,-2.73,-3.06,0.64
16.46448993682861,2,3,3,1,-9.029999999999999,1,2.92,-2.73,-3.06,0.64
16.47448992729187,2,3,3,1,-8.65,1.26,2.9,-2.97,-2.59,-0.77
16.48448991775513,2,3,3,1,-8.08,1.5,2.91,-4.05,-0.8100000000000001,-2.72
16.49448990821838,2,3,3,1,-6.79,1.83,2.62,-4.71,0.72,-3.19
16.50448989868164,2,3,3,1,-6.33,1.87,2.64,-5,2.75,-3.41
16.5144898891449,2,3,3,1,-6.03,1.9,2.82,-5,2.75,-3.41
16.52448987960815,2,3,3,1,-5.96,1.78,3.17,-4.7,4.66,-3.68
16.53449010848999,2,3,3,1,-6.68,1.55,4.07,-3.57,5.82,-3.55
16.54449009895325,2,3,3,1,-6.82,1.49,3.94,-3.33,4.57,-2.81
16.5544900894165,2,3,3,1,-6.88,1.46,3.6,-3.28,4.19,-1.31
16.56449007987976,2,3,3,1,-7.29,1.35,3.69,-3.28,4.19,-1.31
16.57449007034302,2,3,3,1,-8.24,0.44,4.55,-3.88,4.03,0.74
16.58548998832703,2,3,3,1,-8.109999999999999,-0.83,4.32,-13.24,1.75,3.09
16.59449005126953,2,3,3,1,-8.1,-2.86,3.89,-20.03,2.17,2.18
16.60449004173279,2,3,3,1,-8.31,-5.89,-2.48,-24.65,5.71,-0.43
16.6154899597168,2,3,3,1,-11.43,-5.08,-0.9399999999999999,-24.65,5.71,-0.43
16.62548995018005,2,3,3,1,-16.27,-2.92,2.2,-17.74,10.33,-2.75
16.63548994064331,2,3,3,1,-18.78,-1.04,3.09,12.14,-8.31,-1.6
16.64548993110657,2,3,3,1,-12.91,3.44,5.01,20.45,-14.08,0.71
16.65548992156982,2,3,3,1,-9.98,4.62,6.63,21.01,-12.9,3.99
16.66548991203308,2,3,3,1,-8.77,4.74,8.220000000000001,21.01,-12.9,3.99
16.67548990249634,2,3,3,1,-8.31,4.43,8.779999999999999,12.94,-10.66,8.52
16.68548989295959,2,3,3,1,-11.1,3.45,7.95,-5.79,-3.42,15.76
16.69548988342285,2,3,3,1,-14.42,2.39,7.32,-11.42,-0.45,15.08
16.70549011230469,2,3,3,1,-17.32,2.24,5.64,-15.77,-2.27,9.880000000000001
16.71549010276794,2,3,3,1,-19.47,1.94,3.66,-15.77,-2.27,9.880000000000001
16.7254900932312,2,3,3,1,-20.45,-3.39,-0.42,-16.66,-2.48,2.32
16.73549008369446,2,3,3,1,-17.87,-4.06,-1,1.1,4.8,-12.54
16.74549007415771,2,3,3,1,-14.22,-4.35,1.11,5.6,-0.25,-12.86
16.75549006462097,2,3,3,1,-6.76,-4.87,5.26,4.26,-9.32,-9.94
16.76549005508423,2,3,3,1,-4.28,-5.41,4.5,4.26,-9.32,-9.94
16.77549004554749,2,3,3,1,-3.88,-5.37,3.09,0.33,-12.25,-6.94
16.78549003601074,2,3,3,1,-4.92,-4.22,2.32,-1.64,0.3,-0.53
16.795490026474,2,3,3,1,-8.92,-1.53,1.59,-1.54,5.18,0.43
16.80549001693726,2,3,3,1,-9.75,-0.99,1.09,-1.4,9.27,-0.33
16.81549000740051,2,3,3,2,-9.630000000000001,-1.14,0.55,-1.4,9.27,-0.33
16.82548999786377,2,3,3,2,-9.380000000000001,-1.69,0.46,-0.53,10.13,-1.65
16.83548998832703,2,3,3,2,-8.65,-2.44,1.29,0.62,7.53,-3.1
16.84548997879028,2,3,3,2,-8.31,-2.87,1.82,0.29,3.73,-3.85
16.85548996925354,2,3,3,2,-8.1,-3.25,2.07,-2.2,0.5,-1.06
16.8654899597168,2,3,3,2,-7.77,-3.32,1.91,-2.2,0.5,-1.06
16.87548995018005,2,3,3,2,-7.32,-3,1.28,-2.36,0.9,0.2
16.88548994064331,2,3,3,2,-7.33,-2.46,1.18,-1.36,1.69,0.5
16.89548993110657,2,3,3,2,-7.29,-1.87,0.92,0.08,2.67,0.43
16.90548992156982,2,3,3,2,-7.2,-1.62,0.95,1.16,3.33,0.13
16.91548991203308,2,3,3,2,-7.34,-1.42,1.34,1.87,4.02,-0.48
16.92548990249634,2,3,3,2,-7.35,-1.32,1.12,2.6,4.36,-1.31
16.93548989295959,2,3,3,2,-7.15,-1.37,0.84,3.17,4.22,-2.09
16.94548988342285,2,3,3,2,-7,-1.69,0.72,3.46,3.87,-2.59
16.99549007415771,2,3,3,2,-8.18,-1.12,0.91,6.48,2.64,-1.89
17.00549006462097,2,3,3,2,-8.06,-0.6899999999999999,1.27,6.97,2.53,-1.69
17.01549005508423,2,3,3,2,-8.01,-0.29,1.49,7.32,2.46,-1.57
17.02549004554749,2,3,3,2,-8.32,0.25,2.14,7.33,2.43,-1.38
17.03549003601074,2,3,3,2,-8.449999999999999,0.34,2.23,6.99,2.31,-1.28
17.045490026474,2,3,3,2,-8.57,0.3,1.73,6.16,2.17,-1.29
17.05549001693726,2,3,3,2,-8.789999999999999,0.09,1.56,4.63,2.73,-1.55
17.06549000740051,2,3,3,2,-9.1,-0.48,1.38,3.17,2.81,-2.02
17.07548999786377,2,3,3,2,-9.140000000000001,-1.04,1.29,1.52,2.01,-2.6
17.08548998832703,2,3,3,2,-9.5,-1.64,1.3,0.42,1.69,-3.24
17.09548997879028,2,3,3,2,-9.85,-1.92,0.97,0.36,1.63,-3.99
17.10548996925354,2,3,3,2,-10.26,-1.61,0.61,1.03,1.53,-4.63
17.1154899597168,2,3,3,2,-10.23,-1.02,0.96,2.98,1.57,-5.01
17.12548995018005,2,3,3,1,-9.960000000000001,-0.39,1.25,6.16,0.95,-5.2
17.13548994064331,2,3,3,1,-9.550000000000001,0.61,2.45,9.109999999999999,-0.23,-5.24
17.14548993110657,2,3,3,1,-9.32,0.72,2.64,11,-1.63,-5
17.15548992156982,2,3,3,1,-9.050000000000001,0.75,2.73,11.03,-3.06,-4.29
17.16548991203308,2,3,3,1,-8.82,0.76,2.9,10.36,-3.78,-3.3
17.17548990249634,2,3,3,1,-8.619999999999999,0.5600000000000001,3.18,9.35,-4.05,-2.54
17.18548989295959,2,3,3,1,-8.76,0.55,3.03,8.19,-3.83,-2.18
17.19548988342285,2,3,3,1,-9.119999999999999,0.5,2.84,7.04,-3,-2.48
17.20549011230469,2,3,3,1,-9.5,0.55,2.85,6.46,-1.88,-3.23
17.21549010276794,2,3,3,1,-9.65,0.83,2.77,6.16,-0.75,-4.35
17.2254900932312,2,3,3,1,-9.41,0.88,2.42,5.65,0.61,-5.36
17.23549008369446,2,3,3,1,-9.41,1.01,1.93,5.02,2.5,-5.91
17.24549007415771,2,3,3,1,-9.65,1.28,1.49,5.03,4.13,-5.77
17.25549006462097,2,3,3,1,-10.76,1.7,1.59,5.69,4.22,-5.23
17.26549005508423,2,3,3,1,-11.3,1.6,2.13,6.67,2.88,-4.59
17.27549004554749,2,3,3,1,-11.52,1.4,3.17,7.98,0.93,-3.95
17.28549003601074,2,3,3,1,-11.45,1.03,4.28,9.83,-0.95,-3.19
17.295490026474,2,3,3,1,-10.99,0.68,5.33,10.68,-2.38,-2.28
17.30549001693726,2,3,3,1,-10.85,0.73,5.19,9.81,-2.42,-0.93
17.31549000740051,2,3,3,1,-10.73,0.78,4.16,7.53,-0.36,1.33
17.32548999786377,2,3,3,1,-11.15,0.93,2.04,4.27,4.41,3.75
17.33548998832703,2,3,3,1,-11.92,1.26,1.93,2.1,9.949999999999999,5.54
17.34548997879028,2,3,3,1,-12.8,0.98,1.82,0.76,13.28,6.18
17.35548996925354,2,3,3,1,-13.38,0.01,1.07,-1.66,14.7,5.75
17.3654899597168,2,3,3,1,-13.57,-1.63,0.36,-4.71,15.57,4.57
17.37548995018005,2,3,3,1,-13.52,-2.73,1.47,-7.08,15.01,3.03
17.38548994064331,2,3,3,1,-13.03,-4.6,2.02,-7.89,10.93,1.79
17.39548993110657,2,3,3,1,-12.27,-6.27,1.18,-9.369999999999999,6.05,1.33
17.40548992156982,2,3,3,1,-12.67,-7.28,-0.49,-10.2,5.9,2.48
17.41548991203308,2,3,3,1,-13.48,-7.3,0.12,-8.470000000000001,8.25,4.82
17.42548990249634,2,3,3,1,-13.78,-7.25,1.03,-2.87,7.9,7.46
17.43548989295959,2,3,3,1,-13,-6.58,1.7,2.27,3.94,9.390000000000001
17.44548988342285,2,3,3,1,-10.91,-4.52,2.34,5.74,-0.01,10.55
17.45549011230469,2,3,3,1,-10.12,-3.2,2.91,8.130000000000001,-1.51,10.96
17.46549010276794,2,3,3,1,-9.550000000000001,-1.97,2.92,9.85,-1.97,11.09
17.4754900932312,2,3,3,1,-8.960000000000001,-0.76,2.57,9.949999999999999,-2.4,10.44
17.48549008369446,2,3,3,1,-9.02,0.9,2.57,9.039999999999999,-1.97,9.18
17.49549007415771,2,3,3,1,-9.4,1.44,2.91,7.74,-1.87,7.52
17.50549006462097,2,3,3,1,-9.710000000000001,1.57,3.17,5.37,-3.48,5.89
17.51549005508423,2,3,3,1,-10.07,1.32,3.05,1.97,-6.2,4.68
17.52549004554749,2,3,3,2,-10.01,1.04,2.83,-1.5,-8.960000000000001,3.34
17.53549003601074,2,3,3,2,-9.5,0.89,2.36,-5.09,-11.84,1.98
17.545490026474,2,3,3,2,-8.69,0.6899999999999999,1.52,-8.35,-13.96,0.84
17.55549001693726,2,3,3,2,-7.52,0.17,1.1,-10.75,-13.51,0.21
17.56549000740051,2,3,3,2,-7.37,-0.14,1.29,-10.91,-10.85,-0.01
17.57548999786377,2,3,3,2,-7.23,-0.31,1.53,-10.14,-8.710000000000001,0.22
17.58548998832703,2,3,3,2,-6.81,-0.61,1.62,-9.300000000000001,-8.68,0.49
17.59548997879028,2,3,3,2,-5.82,-1.31,1.7,-9.279999999999999,-9.199999999999999,0.8
17.60548996925354,2,3,3,2,-5.68,-1.52,1.93,-9.220000000000001,-9.18,1.31
17.6154899597168,2,3,3,2,-5.71,-1.65,2.02,-8.9,-9.039999999999999,2.1
17.62548995018005,2,3,3,2,-5.88,-1.67,2.1,-8.32,-8.460000000000001,3.13
17.63548994064331,2,3,3,2,-6.14,-1.67,2.26,-7.31,-7.22,4.14
17.64548993110657,2,3,3,2,-6.2,-1.71,2.29,-5.83,-5.96,4.9
17.65649008750916,2,3,3,2,-6.34,-1.56,2.56,-4.04,-4.85,5.2
17.66649007797241,2,3,3,2,-6.55,-1.21,2.84,-2.24,-4.03,5.28
17.67649006843567,2,3,3,3,-7.01,-0.44,3.08,-1.24,-3.87,4.99
17.68649005889893,2,3,3,3,-7.18,0.02,3.12,-1.1,-4.04,4.32
17.69649004936218,2,3,3,3,-7.51,0.59,3.26,-1.62,-3.7,3.3
17.70649003982544,2,3,3,3,-7.97,1.56,3.18,-2.59,-3.08,1.97
17.7164900302887,2,3,3,3,-8.029999999999999,1.9,3.14,-4.25,-2.36,0.35
17.72649002075195,2,3,3,3,-8.24,2.18,3.23,-6.01,-1.09,-1.16
17.73649001121521,2,3,3,3,-8.49,2.34,3.44,-6.92,0.64,-2.3
17.74649000167847,2,3,3,3,-7.91,2.24,3.25,-7.04,1.65,-3.04
17.75648999214172,2,3,3,3,-7.18,2,3.14,-6.98,1.99,-3.56
17.76648998260498,2,3,3,3,-6.61,1.66,3.29,-6.7,3.07,-3.76
17.77648997306824,2,3,3,3,-6.33,1.31,3.6,-5.62,4.92,-3.49
17.78648996353149,2,3,3,3,-6.44,0.68,4.04,-4.22,6.49,-2.99
17.80648994445801,2,3,3,3,-8.15,0.25,4.82,-2.31,6.87,-0.89
17.81648993492126,2,3,3,3,-8.67,0.24,4.66,-2.06,4.18,0.6899999999999999
17.82648992538452,2,3,3,3,-8.77,-1.32,4.02,-4.43,0.9399999999999999,2.23
17.83648991584778,2,3,3,3,-9.199999999999999,-3.05,3.77,-9.08,0.43,3.57
17.84648990631104,2,3,3,3,-9.52,-4.15,1.18,-13.87,1.47,3.31
17.85648989677429,2,3,3,3,-10.85,-4.38,-1.45,-16.87,3.16,0.46
17.86648988723755,2,3,3,3,-17.67,-1.21,3.1,-12.95,7.13,-2.56
17.87648987770081,2,3,3,3,-18.9,0.86,5.15,-1.33,4.57,-4.08
17.88649010658264,2,3,3,3,-15.62,3.16,3.98,12.9,-5.28,-3.75
17.8964900970459,2,3,3,3,-8.630000000000001,5,8.199999999999999,19.25,-11.62,-1.77
17.90649008750916,2,3,3,3,-8.48,5.52,10.36,21.13,-10.71,1.94
17.91649007797241,2,3,3,3,-7.93,5.27,8.470000000000001,14.93,-11.02,7.18
17.92649006843567,2,3,3,3,-8.5,5.04,6.91,0.11,-10.38,11.16
17.93649005889893,2,3,3,3,-16.26,3.55,8.24,-6.16,-2.56,13.23
17.94649004936218,2,3,3,3,-18.42,2.39,5.57,-7.76,2.37,12.38
17.95649003982544,2,3,3,3,-18.95,-0.34,1.85,-15.33,-0.25,7.13
17.9664900302887,2,3,3,3,-19.33,-3.56,-0.26,-20.21,-1.23,0.16
17.97649002075195,2,3,3,3,-17.52,-5.33,-1.64,-11.59,4.87,-7.21
17.98649001121521,2,3,3,3,-14.15,-5.79,0.6899999999999999,-1.78,7.81,-12.51
17.99649000167847,2,3,3,3,-10.24,-6.42,3.38,2.59,0.88,-13.34
18.00648999214172,2,3,3,3,-7.03,-6.71,3.93,2.71,-10.63,-10.85
18.01648998260498,2,3,3,3,-3.07,-5.91,1.94,2.12,-14.94,-8.82
18.02648997306824,2,3,3,3,-3.42,-5.05,1.44,2,-10.8,-5.69
18.03648996353149,2,3,3,3,-5.14,-4.03,1.71,2.88,-5.38,-2.71
18.04648995399475,2,3,3,3,-6.81,-2.88,1.95,4.74,0.74,-1.71
18.05648994445801,2,3,3,3,-8.08,-1.22,1.97,6.14,4.87,-1.24
18.06648993492126,2,3,3,3,-8.26,-1.02,2.09,6.38,5.61,-0.9
18.07648992538452,2,3,3,3,-8.460000000000001,-0.91,2.31,6.08,5.01,-1.06
18.08648991584778,2,3,3,3,-8.82,-0.99,2.28,5.07,3.84,-1.25
18.09648990631104,2,3,3,3,-8.85,-1.15,2.07,2.88,2.71,-0.98
18.10648989677429,2,3,3,3,-8.630000000000001,-1.26,1.87,0.7,1.79,-0.32
18.11648988723755,2,3,3,3,-8.369999999999999,-1.35,1.61,-0.79,1.59,0.32
18.12648987770081,2,3,3,3,-8.31,-1.66,1.28,-1.25,2.03,0.49
18.13649010658264,2,3,3,3,-8.050000000000001,-1.81,1.23,-0.86,3.11,0.22
18.1464900970459,2,3,3,3,-7.89,-2.06,1.07,0.06,4.31,-0.26
18.15649008750916,2,3,3,3,-7.93,-2.25,1.1,1.43,5.77,-0.9
18.16649007797241,2,3,3,3,-7.6,-2.23,0.6899999999999999,3.02,6.36,-1.78
18.17649006843567,2,3,3,3,-7.26,-2.07,0.63,4.44,5.94,-2.75
18.18649005889893,2,3,3,3,-6.83,-1.9,0.75,5.94,5.02,-3.69
18.19649004936218,2,3,3,3,-6.51,-1.89,0.8,7.06,3.97,-4.23
18.20649003982544,2,3,3,3,-7.02,-1.01,1.2,7.67,3.24,-4.53
18.2164900302887,2,3,3,3,-7.4,-0.74,1.4,7.75,3.15,-4.8
18.22649002075195,2,3,3,3,-7.81,-0.43,1.35,7.24,3.23,-4.86
18.23649001121521,2,3,3,3,-8.27,-0.01,1.42,6.43,3.17,-4.53
18.24649000167847,2,3,3,3,-8.4,0.45,1.5,5.74,3.03,-4
18.25648999214172,2,3,3,3,-8.35,0.48,1.68,5.22,2.6,-3.36
18.26648998260498,2,3,3,3,-8.31,0.55,1.96,4.93,2.08,-2.78
18.27648997306824,2,3,3,3,-8.24,0.46,2.33,4.6,1.51,-2.32
18.28648996353149,2,3,3,3,-8.34,0.4,2.42,3.83,0.95,-2.06
18.29648995399475,2,3,3,3,-8.42,0.17,2.23,2.68,0.45,-2.07
18.30648994445801,2,3,3,3,-8.5,0,1.88,0.99,-0.09,-2.28
18.31648993492126,2,3,3,3,-9.300000000000001,-0.26,1.67,-0.55,0.21,-2.52
18.32648992538452,2,3,3,3,-9.56,-0.26,1.56,-1.05,0.75,-2.96
18.33648991584778,2,3,3,3,-9.65,-0.41,1.47,-0.93,0.77,-3.64
18.34648990631104,2,3,3,3,-9.710000000000001,-0.54,1.44,-0.23,0.62,-4.45
18.35648989677429,2,3,3,3,-9.6,-0.22,1.74,1.42,0.37,-5.21
18.36648988723755,2,3,3,3,-9.48,-0.07000000000000001,1.91,3.13,-0.33,-5.79
18.37648987770081,2,3,3,3,-9.369999999999999,0.03,2.26,4.68,-1.05,-6.05
18.38649010658264,2,3,3,3,-9.23,0.11,2.71,6.53,-1.65,-6.08
18.3964900970459,2,3,3,3,-8.859999999999999,0.26,2.92,8.109999999999999,-2.02,-5.93
18.40649008750916,2,3,3,3,-8.75,0.34,3.06,8.74,-2.41,-5.49
18.41649007797241,2,3,3,3,-8.75,0.32,3.14,8.69,-2.62,-4.84
18.42649006843567,2,3,3,3,-8.84,0.45,2.7,7.9,-2.47,-4
18.43649005889893,2,3,3,3,-9.109999999999999,0.71,2.62,6.55,-1.76,-3.24
18.44649004936218,2,3,3,3,-9.470000000000001,1.16,2.44,5.61,-0.36,-2.65
18.45649003982544,2,3,3,3,-9.98,1.66,2.23,4.99,1.24,-2.11
18.4664900302887,2,3,3,3,-11.22,2.85,1.96,5.04,2.62,-1.61
18.47649002075195,2,3,3,3,-11.92,3.22,2.12,5.71,3.36,-1.19
18.48649001121521,2,3,3,3,-12.36,3.21,2.67,6.72,3.43,-0.96
18.49649000167847,2,3,3,3,-12.5,2.77,3.51,7.23,2.19,-1.08
18.50648999214172,2,3,3,3,-11.87,1.12,5.63,7.01,0.22,-1.53
18.51648998260498,2,3,3,3,-11.86,0.28,5.89,6.15,-0.82,-2.11
18.52648997306824,2,3,3,3,-11.86,-0.43,5.15,4.11,-0.19,-2.37
18.53648996353149,2,3,3,3,-11.59,-1.22,4,0.33,2.29,-1.92
18.54648995399475,2,3,3,3,-11.37,-2.02,2.89,-2.74,6.29,-0.54
18.55648994445801,2,3,3,3,-11.61,-2.05,2.36,-3.47,9.69,1.05
18.56648993492126,2,3,3,3,-12.04,-1.94,0.57,-4.13,11.78,2.28
18.57648992538452,2,3,3,3,-12.54,-2.15,-1.07,-6.53,14.63,3.06
18.58648991584778,2,3,3,3,-14.28,-3.8,0.52,-8.199999999999999,17.55,3.4
18.59648990631104,2,3,3,3,-14.31,-5.29,0.79,-7.58,15.45,3.31
18.60648989677429,2,3,3,3,-13.57,-6.87,-0.36,-7.96,9.300000000000001,2.77
18.61648988723755,2,3,3,3,-12.65,-8.4,-0.91,-8.609999999999999,6.01,2.8
18.62648987770081,2,3,3,3,-12.87,-8.25,0.48,-5.53,7.03,3.7
18.63649010658264,2,3,3,3,-12.54,-7.94,1.64,1.24,6.29,4.69
18.6464900970459,2,3,3,3,-11.42,-7.06,2.42,6.65,3.09,6.09
18.65649008750916,2,3,3,3,-10.27,-4.31,2.98,10.42,1.2,7.88
18.66649007797241,2,3,3,3,-10.21,-2.57,3.55,12.19,1.8,9.18
18.67748999595642,2,3,3,3,-10.13,-0.95,4.16,13.16,2.73,10.09
18.68748998641968,2,3,3,3,-9.85,0.41,4.03,12.87,2.13,10
18.69748997688293,2,3,3,3,-9.56,2.68,3.35,11.27,1.14,8.91
18.70748996734619,2,3,3,3,-9.800000000000001,3.05,3.41,8.529999999999999,0.48,7.07
18.71748995780945,2,3,3,3,-9.93,3,3.3,4.36,-1.51,5.3
18.72748994827271,2,3,3,3,-9.779999999999999,2.22,2.91,-0.97,-4.68,3.84
18.73748993873596,2,3,3,3,-9.06,0.52,2.03,-6.07,-7.62,2.9
18.74748992919922,2,3,3,3,-8.699999999999999,-0.02,1.65,-9.6,-9.550000000000001,2.33
18.75748991966248,2,3,3,3,-8.27,-0.37,1.37,-11.91,-10.94,1.92
18.76748991012573,2,3,3,3,-7.59,-0.73,0.97,-13.32,-11.89,1.62
18.77748990058899,2,3,3,3,-6.6,-1.32,0.62,-13.37,-11.73,1.66
18.78748989105225,2,3,3,3,-6.31,-1.34,0.65,-12.17,-11.26,2.05
18.7974898815155,2,3,3,3,-5.85,-1.6,0.7,-10.89,-11.45,2.45
18.80749011039734,2,3,3,3,-4.95,-1.81,1.41,-9.869999999999999,-11.78,2.66
18.8174901008606,2,3,3,3,-4.71,-1.96,1.83,-8.76,-11.84,2.59
