timestamp,magCalib,accCalib,gyrCalib,sysCalib,accX,accY,accZ,gyrX,gyrY,gyrZ
-0.04951000213623047,2,3,3,0,-9.619999999999999,-1.88,0.33,0.27,-0.08,-0.02
-0.03951001167297363,2,3,3,0,-9.6,-1.88,0.28,0.36,-0.1,0
-0.0295100212097168,2,3,3,0,-9.58,-1.88,0.35,0.37,-0.08,0.02
-0.01951003074645996,2,3,3,0,-9.609999999999999,-1.92,0.36,0.34,-0.1,0.04
-0.009510040283203125,2,3,3,0,-9.609999999999999,-1.92,0.36,0.44,-0.08,0.05
0.0004899501800537109,2,3,3,0,-9.59,-1.9,0.44,0.49,-0.06,0.06
0.01048994064331055,2,3,3,0,-9.609999999999999,-1.98,0.32,0.43,-0.02,0.07000000000000001
0.02048993110656738,2,3,3,0,-9.609999999999999,-1.92,0.31,0.52,-0.06,0.05
0.03048992156982422,2,3,3,0,-9.630000000000001,-1.85,0.39,0.47,-0.05,0.09
0.04048991203308105,2,3,3,0,-9.630000000000001,-1.85,0.39,0.42,-0.06,0.1
0.05048990249633789,2,3,3,0,-9.65,-1.82,0.43,0.4,-0.03,0.1
0.06048989295959473,2,3,3,0,-9.640000000000001,-1.88,0.27,0.4,-0.03,0.11
0.07048988342285156,2,3,3,0,-9.619999999999999,-1.81,0.39,0.48,-0.01,0.12
0.0804901123046875,2,3,3,0,-9.6,-1.8,0.41,0.54,-0.02,0.12
0.09049010276794434,2,3,3,0,-9.6,-1.8,0.41,0.53,0,0.09
0.1004900932312012,2,3,3,0,-9.609999999999999,-1.79,0.43,0.58,-0.01,0.1
0.110490083694458,2,3,3,0,-9.609999999999999,-1.66,0.35,0.54,-0.01,0.12
0.1204900741577148,2,3,3,0,-9.619999999999999,-1.69,0.4,0.53,0.02,0.12
0.1304900646209717,2,3,3,0,-9.640000000000001,-1.71,0.45,0.46,0.03,0.13
0.1404900550842285,2,3,3,0,-9.640000000000001,-1.71,0.45,0.4,0.04,0.12
0.1504900455474854,2,3,3,0,-9.630000000000001,-1.68,0.43,0.32,0.04,0.15
0.1604900360107422,2,3,3,0,-9.66,-1.75,0.28,0.27,0.05,0.14
0.170490026473999,2,3,3,0,-9.630000000000001,-1.75,0.3,0.2,0.07000000000000001,0.13
0.1804900169372559,2,3,3,0,-9.609999999999999,-1.78,0.32,0.15,0.09,0.11
0.1904900074005127,2,3,3,0,-9.67,-1.82,0.36,0.16,0.08,0.1
0.2004899978637695,2,3,3,0,-9.67,-1.78,0.33,0.16,0.06,0.09
0.2104899883270264,2,3,3,0,-9.630000000000001,-1.78,0.27,0.2,0.03,0.09
0.2204899787902832,2,3,3,0,-9.640000000000001,-1.77,0.25,0.23,0.03,0.06
0.23048996925354,2,3,3,0,-9.619999999999999,-1.7,0.31,0.23,0.02,0.06
0.2404899597167969,2,3,3,0,-9.640000000000001,-1.69,0.35,0.12,0.01,0.05
0.2504899501800537,2,3,3,0,-9.640000000000001,-1.72,0.35,0.1,-0.01,0.03
0.2604899406433105,2,3,3,0,-9.640000000000001,-1.68,0.25,0.08,0.01,0.03
0.2704899311065674,2,3,3,0,-9.65,-1.72,0.29,-0.04,-0.04,0.03
0.2804899215698242,2,3,3,0,-9.630000000000001,-1.72,0.3,-0.05,-0.03,0.01
0.2904899120330811,2,3,3,0,-9.640000000000001,-1.73,0.29,-0.04,-0.04,0.05
0.3004899024963379,2,3,3,0,-9.640000000000001,-1.75,0.33,0,-0.05,-0.01
0.3104898929595947,2,3,3,0,-9.67,-1.74,0.18,0.01,-0.05,0.01
0.3204898834228516,2,3,3,0,-9.67,-1.74,0.24,0.02,-0.03,0.01
0.3304901123046875,2,3,3,0,-9.630000000000001,-1.8,0.28,-0.03,-0.05,0
0.3404901027679443,2,3,3,0,-9.65,-1.83,0.34,-0.03,-0.07000000000000001,0.03
0.3504900932312012,2,3,3,0,-9.619999999999999,-1.74,0.34,0.04,-0.07000000000000001,-0.03
0.360490083694458,2,3,3,0,-9.640000000000001,-1.69,0.26,0.07000000000000001,-0.07000000000000001,-0.03
0.3704900741577148,2,3,3,0,-9.630000000000001,-1.67,0.31,0.06,-0.12,-0.03
0.3804900646209717,2,3,3,0,-9.67,-1.63,0.37,0,-0.07000000000000001,-0.03
0.3904900550842285,2,3,3,0,-9.65,-1.69,0.39,-0.08,-0.04,-0.02
0.4004900455474854,2,3,3,0,-9.67,-1.68,0.35,-0.14,-0.06,0.01
0.4104900360107422,2,3,3,0,-9.640000000000001,-1.72,0.26,-0.18,-0.05,0.03
0.420490026473999,2,3,3,0,-9.640000000000001,-1.82,0.27,-0.19,-0.09,0.06
0.4304900169372559,2,3,3,0,-9.609999999999999,-1.86,0.35,-0.15,-0.11,0.02
0.4404900074005127,2,3,3,0,-9.609999999999999,-1.84,0.33,-0.08,-0.11,0.02
0.4504899978637695,2,3,3,0,-9.66,-1.89,0.33,-0.07000000000000001,-0.09,0.03
0.4604899883270264,2,3,3,0,-9.640000000000001,-1.83,0.3,-0.02,-0.09,-0.04
0.4704899787902832,2,3,3,0,-9.640000000000001,-1.78,0.35,-0.02,-0.05,-0.05
0.5504899024963379,2,3,3,0,-9.65,-1.72,0.35,-0.01,-0.03,0.02
0.5604898929595947,2,3,3,0,-9.640000000000001,-1.74,0.3,-0.05,0,-0.01
0.5704898834228516,2,3,3,0,-9.640000000000001,-1.76,0.31,-0.07000000000000001,-0.03,0.01
0.5804901123046875,2,3,3,0,-9.640000000000001,-1.85,0.37,-0.1,-0.04,0.02
0.5904901027679443,2,3,3,0,-9.630000000000001,-1.84,0.4,-0.05,-0.06,0
0.6004900932312012,2,3,3,0,-9.630000000000001,-1.82,0.39,-0.02,0.01,0.01
0.610490083694458,2,3,3,0,-9.609999999999999,-1.83,0.28,0,-0.01,-0.04
0.6204900741577148,2,3,3,0,-9.630000000000001,-1.73,0.3,0.01,-0.03,-0.04
0.6304900646209717,2,3,3,0,-9.67,-1.74,0.37,-0.05,-0.04,0.01
0.6404900550842285,2,3,3,0,-9.65,-1.73,0.35,-0.06,-0.04,-0.01
0.6504900455474854,2,3,3,0,-9.67,-1.68,0.34,-0.11,-0.03,0.01
0.6604900360107422,2,3,3,0,-9.640000000000001,-1.78,0.25,-0.08,-0.01,-0.02
0.670490026473999,2,3,3,0,-9.65,-1.76,0.34,-0.1,0,-0.01
0.6804900169372559,2,3,3,0,-9.619999999999999,-1.77,0.34,-0.06,-0.02,0
0.6904900074005127,2,3,3,0,-9.609999999999999,-1.81,0.36,-0.06,0,0
0.7004899978637695,2,3,3,0,-9.66,-1.74,0.29,-0.06,-0.02,-0.01
0.7104899883270264,2,3,3,0,-9.65,-1.77,0.24,-0.08,-0.02,-0.04
0.7204899787902832,2,3,3,0,-9.619999999999999,-1.78,0.24,-0.13,-0.03,0
0.73048996925354,2,3,3,0,-9.6,-1.81,0.33,-0.15,-0.02,0.02
0.7404899597167969,2,3,3,0,-9.640000000000001,-1.81,0.36,-0.09,0.03,-0.01
0.7504899501800537,2,3,3,0,-9.66,-1.74,0.34,-0.02,-0.02,0.01
0.7604899406433105,2,3,3,0,-9.640000000000001,-1.76,0.23,-0.05,-0.05,-0.01
0.7704899311065674,2,3,3,0,-9.66,-1.75,0.3,-0.01,-0.06,0.04
0.7804899215698242,2,3,3,0,-9.65,-1.76,0.33,0,-0.08,0.05
0.7904899120330811,2,3,3,0,-9.619999999999999,-1.76,0.3,0.02,-0.07000000000000001,0
0.8004899024963379,2,3,3,0,-9.619999999999999,-1.8,0.33,0,-0.06,0.06
0.8104898929595947,2,3,3,0,-9.630000000000001,-1.77,0.2,0.03,-0.05,0.03
0.8204898834228516,2,3,3,0,-9.640000000000001,-1.8,0.29,0.01,-0.04,-0.02
0.8304901123046875,2,3,3,0,-9.640000000000001,-1.71,0.32,-0.03,-0.07000000000000001,-0.02
0.8404901027679443,2,3,3,0,-9.640000000000001,-1.73,0.38,-0.05,-0.07000000000000001,-0.01
0.8504900932312012,2,3,3,0,-9.66,-1.79,0.28,-0.13,-0.03,-0.04
0.860490083694458,2,3,3,0,-9.640000000000001,-1.77,0.21,-0.14,-0.05,-0.02
0.8704900741577148,2,3,3,0,-9.619999999999999,-1.76,0.31,-0.08,-0.1,-0.05
0.8804900646209717,2,3,3,0,-9.609999999999999,-1.77,0.35,-0.03,-0.06,-0.08
0.8904900550842285,2,3,3,0,-9.630000000000001,-1.76,0.39,-0.03,-0.03,-0.1
0.9014899730682373,2,3,3,0,-9.640000000000001,-1.74,0.35,-0.05,-0.05,-0.11
0.9114899635314941,2,3,3,0,-9.630000000000001,-1.69,0.24,-0.09,-0.06,-0.08
0.921489953994751,2,3,3,0,-9.619999999999999,-1.7,0.29,-0.17,-0.04,-0.1
0.9314899444580078,2,3,3,0,-9.630000000000001,-1.69,0.37,-0.22,-0.07000000000000001,-0.11
0.9414899349212646,2,3,3,0,-9.630000000000001,-1.69,0.36,-0.23,-0.06,-0.1
0.9514899253845215,2,3,3,0,-9.619999999999999,-1.75,0.4,-0.28,-0.04,-0.1
0.9614899158477783,2,3,3,0,-9.630000000000001,-1.81,0.31,-0.27,-0.04,-0.09
0.9714899063110352,2,3,3,0,-9.65,-1.88,0.32,-0.27,-0.02,-0.06
0.981489896774292,2,3,3,0,-9.619999999999999,-1.88,0.36,-0.16,0.01,-0.09
0.9914898872375488,2,3,3,0,-9.66,-1.89,0.35,-0.08,0.01,-0.1
1.001489877700806,2,3,3,0,-9.640000000000001,-1.9,0.35,0.02,-0.01,-0.1
1.011490106582642,2,3,3,0,-9.619999999999999,-1.85,0.26,0.05,-0.05,-0.1
1.021490097045898,2,3,3,0,-9.619999999999999,-1.83,0.22,0.05,-0.01,-0.08
1.031490087509155,2,3,3,0,-9.6,-1.83,0.34,0.11,0.05,-0.07000000000000001
1.041490077972412,2,3,3,0,-9.59,-1.85,0.36,0.16,0.01,-0.07000000000000001
1.051490068435669,2,3,3,0,-9.640000000000001,-1.84,0.33,0.2,0.03,-0.05
1.061490058898926,2,3,3,0,-9.640000000000001,-1.81,0.25,0.25,0.01,-0.05
1.071490049362183,2,3,3,0,-9.619999999999999,-1.8,0.29,0.31,0.02,-0.05
1.081490039825439,2,3,3,0,-9.65,-1.83,0.3,0.27,-0.01,-0.05
1.091490030288696,2,3,3,0,-9.6,-1.8,0.33,0.27,0.01,-0.04
1.101490020751953,2,3,3,0,-9.6,-1.83,0.33,0.23,0.02,-0.03
1.11149001121521,2,3,3,0,-9.609999999999999,-1.89,0.23,0.19,0.04,-0.02
1.121490001678467,2,3,3,0,-9.619999999999999,-1.81,0.32,0.26,0,-0.03
1.131489992141724,2,3,3,0,-9.630000000000001,-1.82,0.33,0.22,0.01,-0.01
1.14148998260498,2,3,3,0,-9.619999999999999,-1.81,0.33,0.19,0.03,0.01
1.151489973068237,2,3,3,0,-9.619999999999999,-1.81,0.35,0.16,0.04,0
1.161489963531494,2,3,3,0,-9.630000000000001,-1.89,0.23,0.11,0.07000000000000001,0
1.171489953994751,2,3,3,0,-9.609999999999999,-1.86,0.25,0.13,0.03,0.03
1.181489944458008,2,3,3,0,-9.6,-1.85,0.29,0.17,0.02,0.03
1.191489934921265,2,3,3,0,-9.6,-1.86,0.3,0.22,0.01,0.02
1.201489925384521,2,3,3,0,-9.65,-1.82,0.3,0.26,0.01,0.02
1.211489915847778,2,3,3,0,-9.630000000000001,-1.87,0.23,0.23,-0.02,0.04
1.221489906311035,2,3,3,0,-9.640000000000001,-1.85,0.24,0.23,-0.02,0.03
1.231489896774292,2,3,3,0,-9.630000000000001,-1.85,0.31,0.21,-0.02,0
1.241489887237549,2,3,3,0,-9.619999999999999,-1.85,0.31,0.21,0.03,0.05
1.251489877700806,2,3,3,0,-9.630000000000001,-1.83,0.29,0.28,0.04,0
1.261490106582642,2,3,3,0,-9.609999999999999,-1.8,0.22,0.33,-0.02,0.01
1.271490097045898,2,3,3,0,-9.619999999999999,-1.79,0.23,0.26,-0.01,0.05
1.281490087509155,2,3,3,0,-9.640000000000001,-1.77,0.29,0.25,-0.04,0.03
1.291490077972412,2,3,3,0,-9.630000000000001,-1.78,0.33,0.18,-0.03,0.03
1.301490068435669,2,3,3,0,-9.65,-1.8,0.34,0.14,0,0.06
1.311490058898926,2,3,3,0,-9.630000000000001,-1.88,0.24,0.19,0.04,0.05
1.321490049362183,2,3,3,0,-9.630000000000001,-1.84,0.27,0.27,0.03,0.07000000000000001
1.331490039825439,2,3,3,0,-9.630000000000001,-1.83,0.28,0.26,0.03,0.08
1.341490030288696,2,3,3,0,-9.619999999999999,-1.82,0.31,0.23,-0.01,0.06
1.351490020751953,2,3,3,0,-9.640000000000001,-1.84,0.34,0.23,-0.05,0.07000000000000001
1.36149001121521,2,3,3,0,-9.609999999999999,-1.81,0.22,0.21,-0.05,0.08
1.371490001678467,2,3,3,0,-9.609999999999999,-1.81,0.29,0.22,-0.05,0.05
1.381489992141724,2,3,3,0,-9.640000000000001,-1.84,0.3,0.22,-0.03,0.07000000000000001
1.39148998260498,2,3,3,0,-9.619999999999999,-1.81,0.3,0.2,-0.04,0.04
1.401489973068237,2,3,3,0,-9.609999999999999,-1.75,0.28,0.23,-0.01,0.05
1.411489963531494,2,3,3,0,-9.630000000000001,-1.77,0.21,0.19,-0.02,0.04
1.421489953994751,2,3,3,0,-9.619999999999999,-1.76,0.27,0.14,-0.02,0.03
1.431489944458008,2,3,3,0,-9.619999999999999,-1.74,0.33,0.12,-0.02,0.04
1.441489934921265,2,3,3,0,-9.630000000000001,-1.81,0.3,0.1,-0.02,0.04
1.451489925384521,2,3,3,0,-9.65,-1.77,0.32,0.09,-0.07000000000000001,0.06
1.461489915847778,2,3,3,0,-9.619999999999999,-1.73,0.23,0.09,-0.04,0.04
1.471489906311035,2,3,3,0,-9.640000000000001,-1.66,0.24,0.07000000000000001,-0.06,0.04
1.481489896774292,2,3,3,0,-9.609999999999999,-1.74,0.32,0.08,-0.03,0.02
1.491489887237549,2,3,3,0,-9.640000000000001,-1.77,0.32,0.05,-0.02,0.01
1.501489877700806,2,3,3,0,-9.640000000000001,-1.76,0.35,0.03,-0.02,0.03
1.511490106582642,2,3,3,0,-9.640000000000001,-1.81,0.25,0.04,-0.06,0.02
1.521490097045898,2,3,3,0,-9.630000000000001,-1.81,0.27,0.05,-0.05,-0.02
1.541490077972412,2,3,3,0,-9.630000000000001,-1.79,0.36,0.08,-0.09,-0.04
1.551490068435669,2,3,3,0,-9.640000000000001,-1.76,0.28,0.06,-0.06,-0.04
1.561490058898926,2,3,3,0,-9.630000000000001,-1.71,0.23,0.04,-0.07000000000000001,-0.03
1.571490049362183,2,3,3,0,-9.619999999999999,-1.77,0.28,0.01,-0.04,-0.03
1.581490039825439,2,3,3,0,-9.640000000000001,-1.8,0.3,-0.04,-0.04,-0.03
1.591490030288696,2,3,3,0,-9.630000000000001,-1.83,0.37,-0.03,-0.06,-0.01
1.601490020751953,2,3,3,0,-9.630000000000001,-1.86,0.29,-0.05,-0.02,-0.05
1.61149001121521,2,3,3,0,-9.630000000000001,-1.83,0.22,-0.03,-0.06,-0.06
1.621490001678467,2,3,3,0,-9.619999999999999,-1.79,0.26,-0.02,-0.05,-0.09
1.631489992141724,2,3,3,0,-9.640000000000001,-1.84,0.3,-0.05,-0.03,-0.07000000000000001
1.64148998260498,2,3,3,0,-9.619999999999999,-1.81,0.34,0.01,-0.06,-0.1
1.651489973068237,2,3,3,0,-9.630000000000001,-1.83,0.35,0.01,-0.08,-0.09
1.661489963531494,2,3,3,0,-9.630000000000001,-1.79,0.22,-0.03,-0.02,-0.08
1.671489953994751,2,3,3,0,-9.640000000000001,-1.81,0.3,-0.03,-0.05,-0.06
1.681489944458008,2,3,3,0,-9.619999999999999,-1.81,0.3,-0.05,-0.02,-0.09
1.691489934921265,2,3,3,0,-9.640000000000001,-1.78,0.37,-0.01,-0.02,-0.07000000000000001
1.701489925384521,2,3,3,0,-9.609999999999999,-1.8,0.38,0.03,-0.02,-0.1
1.711489915847778,2,3,3,0,-9.609999999999999,-1.84,0.23,0,0.02,-0.12
1.721489906311035,2,3,3,0,-9.65,-1.82,0.25,0.03,-0.01,-0.08
1.731489896774292,2,3,3,0,-9.619999999999999,-1.8,0.3,0.04,-0.04,-0.11
1.741489887237549,2,3,3,0,-9.630000000000001,-1.78,0.31,0.04,-0.04,-0.14
1.751489877700806,2,3,3,0,-9.66,-1.83,0.29,-0.07000000000000001,-0.01,-0.15
1.761490106582642,2,3,3,0,-9.66,-1.81,0.21,-0.06,0.01,-0.12
1.771490097045898,2,3,3,0,-9.619999999999999,-1.82,0.26,-0.03,0.03,-0.09
1.781490087509155,2,3,3,0,-9.619999999999999,-1.84,0.29,-0.03,0.02,-0.1
1.791490077972412,2,3,3,0,-9.640000000000001,-1.85,0.35,0.02,0.01,-0.12
1.801490068435669,2,3,3,0,-9.609999999999999,-1.84,0.33,0.02,0,-0.12
1.811490058898926,2,3,3,0,-9.630000000000001,-1.81,0.23,0.05,-0.04,-0.13
1.821490049362183,2,3,3,0,-9.630000000000001,-1.79,0.23,0.02,-0.01,-0.11
1.831490039825439,2,3,3,0,-9.640000000000001,-1.91,0.26,-0.05,-0.01,-0.11
1.841490030288696,2,3,3,0,-9.640000000000001,-1.81,0.28,0,-0.02,-0.1
1.851490020751953,2,3,3,0,-9.640000000000001,-1.84,0.31,0,-0.03,-0.11
1.86149001121521,2,3,3,0,-9.630000000000001,-1.82,0.21,-0.01,-0.01,-0.09
1.871490001678467,2,3,3,0,-9.609999999999999,-1.81,0.26,0,-0.01,-0.12
1.881489992141724,2,3,3,0,-9.640000000000001,-1.81,0.29,-0.01,-0.01,-0.13
1.89148998260498,2,3,3,0,-9.640000000000001,-1.82,0.3,-0.07000000000000001,-0.03,-0.11
1.901489973068237,2,3,3,0,-9.609999999999999,-1.93,0.27,-0.13,-0.07000000000000001,-0.07000000000000001
1.911489963531494,2,3,3,0,-9.609999999999999,-1.95,0.16,-0.17,-0.03,-0.08
1.922489881515503,2,3,3,0,-9.6,-1.95,0.21,-0.18,-0.01,-0.08
1.932490110397339,2,3,3,0,-9.6,-2.02,0.24,-0.2,0,-0.09
1.942490100860596,2,3,3,0,-9.619999999999999,-1.94,0.29,-0.13,-0.05,-0.08
1.952490091323853,2,3,3,0,-9.609999999999999,-1.95,0.26,-0.13,-0.08,-0.07000000000000001
1.962490081787109,2,3,3,0,-9.609999999999999,-1.89,0.18,-0.05,-0.06,-0.09
1.972490072250366,2,3,3,0,-9.619999999999999,-1.84,0.25,-0.08,-0.08,-0.06
1.982490062713623,2,3,3,0,-9.630000000000001,-1.93,0.29,-0.02,-0.07000000000000001,-0.05
1.99249005317688,2,3,3,0,-9.630000000000001,-1.98,0.3,-0.04,-0.04,-0.03
2.002490043640137,2,3,3,0,-9.630000000000001,-1.99,0.3,-0.04,-0.06,0
2.012490034103394,2,3,3,0,-9.65,-2,0.18,-0.02,-0.05,0.03
2.02249002456665,2,3,3,0,-9.619999999999999,-1.98,0.21,0.03,-0.03,0.01
2.032490015029907,2,3,3,0,-9.619999999999999,-1.94,0.27,0.05,-0.04,-0.01
2.042490005493164,2,3,3,0,-9.619999999999999,-1.87,0.32,0.1,-0.05,0.01
2.052489995956421,2,3,3,0,-9.59,-1.85,0.4,0.21,-0.01,0.05
2.062489986419678,2,3,3,0,-9.609999999999999,-1.88,0.24,0.24,0.02,0.09
2.072489976882935,2,3,3,0,-9.6,-1.92,0.28,0.22,0.01,0.2
2.082489967346191,2,3,3,0,-9.6,-1.92,0.29,0.18,0.04,0.24
2.092489957809448,2,3,3,0,-9.6,-1.96,0.28,0.15,0.02,0.32
2.102489948272705,2,3,3,0,-9.56,-2.16,0.18,0.06,0.03,0.41
2.112489938735962,2,3,3,0,-9.529999999999999,-2.23,0.13,0.09,-0.02,0.4
2.142489910125732,2,3,3,0,-9.57,-2.32,0.21,0.11,-0.07000000000000001,0.5
2.152489900588989,2,3,3,0,-9.58,-2.36,0.22,0.05,-0.09,0.61
2.162489891052246,2,3,3,0,-9.59,-2.28,0.12,0.04,-0.11,0.6899999999999999
2.172489881515503,2,3,3,0,-9.59,-2.31,0.15,0.04,-0.13,0.77
2.182490110397339,2,3,3,0,-9.56,-2.26,0.19,0.08,-0.15,0.86
2.192490100860596,2,3,3,0,-9.56,-2.19,0.23,0.16,-0.21,0.93
2.202490091323853,2,3,3,0,-9.56,-2.15,0.23,0.22,-0.27,0.98
2.212490081787109,2,3,3,0,-9.57,-2.04,0.17,0.26,-0.29,1.04
2.222490072250366,2,3,3,0,-9.6,-1.99,0.22,0.25,-0.28,1.14
2.232490062713623,2,3,3,0,-9.640000000000001,-1.95,0.22,0.18,-0.26,1.28
2.24249005317688,2,3,3,0,-9.609999999999999,-1.9,0.26,0.13,-0.22,1.35
2.252490043640137,2,3,3,0,-9.65,-2.01,0.21,0.1,-0.2,1.45
2.262490034103394,2,3,3,0,-9.640000000000001,-2.05,0.14,0.17,-0.26,1.58
2.27249002456665,2,3,3,0,-9.58,-1.99,0.17,0.4,-0.27,1.63
2.282490015029907,2,3,3,0,-9.539999999999999,-1.98,0.2,0.5600000000000001,-0.29,1.72
2.292490005493164,2,3,3,0,-9.56,-1.96,0.19,0.67,-0.35,1.81
2.302489995956421,2,3,3,0,-9.630000000000001,-2.01,0.17,0.75,-0.31,1.91
2.312489986419678,2,3,3,0,-9.630000000000001,-2.07,0.09,0.8,-0.35,1.98
2.322489976882935,2,3,3,0,-9.609999999999999,-2.09,0.1,0.95,-0.37,2.05
2.332489967346191,2,3,3,0,-9.59,-2.16,0.18,1.08,-0.49,2.05
2.342489957809448,2,3,3,0,-9.6,-2.15,0.26,1.17,-0.59,2.01
2.352489948272705,2,3,3,0,-9.6,-2.08,0.3,1.23,-0.66,1.97
2.362489938735962,2,3,3,0,-9.6,-2.07,0.27,1.21,-0.71,1.92
2.372489929199219,2,3,3,0,-9.630000000000001,-2,0.36,1.19,-0.73,1.92
2.382489919662476,2,3,3,0,-9.66,-1.91,0.41,1.16,-0.74,1.88
2.392489910125732,2,3,3,0,-9.66,-1.75,0.4,1.11,-0.73,1.95
2.402489900588989,2,3,3,0,-9.65,-1.64,0.41,1,-0.71,1.99
2.412489891052246,2,3,3,0,-9.67,-1.46,0.26,0.97,-0.76,2.02
2.422489881515503,2,3,3,0,-9.69,-1.38,0.38,0.99,-0.76,2.07
2.432490110397339,2,3,3,0,-9.68,-1.37,0.44,0.99,-0.76,2.09
2.442490100860596,2,3,3,0,-9.69,-1.3,0.52,0.95,-0.71,2.11
2.452490091323853,2,3,3,0,-9.699999999999999,-1.21,0.49,0.9,-0.67,2.14
2.462490081787109,2,3,3,0,-9.720000000000001,-1.18,0.53,0.91,-0.63,2.17
2.472490072250366,2,3,3,0,-9.720000000000001,-1.07,0.55,0.95,-0.59,2.18
2.482490062713623,2,3,3,0,-9.710000000000001,-1.06,0.68,0.85,-0.52,2.17
2.49249005317688,2,3,3,0,-9.67,-1.01,0.8100000000000001,0.87,-0.46,2.13
2.502490043640137,2,3,3,0,-9.77,-1.01,0.77,0.91,-0.45,2.05
2.512490034103394,2,3,3,0,-9.75,-0.9399999999999999,0.61,1,-0.41,1.96
2.52249002456665,2,3,3,0,-9.77,-0.84,0.58,1.04,-0.31,1.88
2.532490015029907,2,3,3,0,-9.710000000000001,-0.73,0.66,0.89,-0.25,1.8
2.542490005493164,2,3,3,0,-9.720000000000001,-0.61,0.64,0.78,-0.27,1.69
2.552489995956421,2,3,3,0,-9.77,-0.5600000000000001,0.62,0.59,-0.22,1.57
2.562489986419678,2,3,3,0,-9.77,-0.57,0.5,0.53,-0.2,1.44
2.572489976882935,2,3,3,0,-9.789999999999999,-0.38,0.52,0.44,-0.19,1.27
2.582489967346191,2,3,3,0,-9.789999999999999,-0.45,0.6,0.33,-0.17,1.15
2.592489957809448,2,3,3,0,-9.76,-0.47,0.53,0.34,-0.13,1.03
2.602489948272705,2,3,3,0,-9.800000000000001,-0.45,0.44,0.23,-0.15,0.9399999999999999
2.612489938735962,2,3,3,0,-9.789999999999999,-0.43,0.45,0.23,-0.14,0.89
2.622489929199219,2,3,3,0,-9.74,-0.41,0.47,0.16,-0.14,0.76
2.632489919662476,2,3,3,0,-9.76,-0.32,0.41,0.12,-0.13,0.6
2.642489910125732,2,3,3,0,-9.789999999999999,-0.21,0.52,0.1,-0.16,0.5
2.652489900588989,2,3,3,0,-9.789999999999999,-0.28,0.5,-0.1,-0.16,0.43
2.662489891052246,2,3,3,0,-9.82,-0.45,0.4,-0.38,-0.17,0.36
2.672489881515503,2,3,3,0,-9.800000000000001,-0.38,0.39,-0.45,-0.19,0.28
2.682490110397339,2,3,3,0,-9.81,-0.52,0.52,-0.59,-0.23,0.18
2.692490100860596,2,3,3,0,-9.779999999999999,-0.67,0.54,-0.61,-0.2,0.18
2.702490091323853,2,3,3,0,-9.75,-0.68,0.47,-0.45,-0.2,0.14
2.712490081787109,2,3,3,0,-9.77,-0.74,0.35,-0.33,-0.19,0.09
2.722490072250366,2,3,3,0,-9.779999999999999,-0.79,0.45,-0.14,-0.21,0.08
2.732490062713623,2,3,3,0,-9.77,-0.82,0.48,-0.14,-0.14,0.04
2.74249005317688,2,3,3,0,-9.77,-0.87,0.48,-0.2,-0.14,0.01
2.752490043640137,2,3,3,0,-9.779999999999999,-1.02,0.51,-0.12,-0.14,-0.01
2.762490034103394,2,3,3,0,-9.75,-0.91,0.42,0.03,-0.18,-0.05
2.77249002456665,2,3,3,0,-9.720000000000001,-0.93,0.51,0.03,-0.16,-0.09
2.782490015029907,2,3,3,0,-9.710000000000001,-0.87,0.55,-0.02,-0.13,-0.14
2.792490005493164,2,3,3,0,-9.720000000000001,-0.89,0.6,-0.19,-0.14,-0.09
2.802489995956421,2,3,3,0,-9.73,-1.02,0.64,-0.36,-0.13,-0.12
2.812489986419678,2,3,3,0,-9.720000000000001,-1,0.54,-0.33,-0.05,-0.14
2.822489976882935,2,3,3,0,-9.74,-1.02,0.54,-0.28,-0.05,-0.19
2.832489967346191,2,3,3,0,-9.73,-1.02,0.52,-0.15,-0.03,-0.18
2.842489957809448,2,3,3,0,-9.76,-0.9399999999999999,0.53,-0.03,-0.04,-0.15
2.852489948272705,2,3,3,0,-9.76,-0.9399999999999999,0.52,-0.02,-0.06,-0.12
2.862489938735962,2,3,3,0,-9.73,-0.83,0.44,-0.01,-0.05,-0.12
2.872489929199219,2,3,3,0,-9.77,-0.92,0.51,-0.04,0.02,-0.08
2.882489919662476,2,3,3,0,-9.73,-1.02,0.54,0.06,0,-0.1
2.892489910125732,2,3,3,0,-9.75,-1.06,0.58,0.18,0.02,-0.12
2.902489900588989,2,3,3,0,-9.73,-1.1,0.57,0.28,0.01,-0.15
2.912489891052246,2,3,3,0,-9.73,-1.09,0.44,0.28,0.01,-0.15
2.922489881515503,2,3,3,0,-9.73,-1.01,0.5,0.36,0.03,-0.16
2.932490110397339,2,3,3,0,-9.720000000000001,-0.99,0.52,0.3,0.01,-0.16
2.942490100860596,2,3,3,0,-9.710000000000001,-0.96,0.51,0.19,0.01,-0.16
2.953490018844604,2,3,3,0,-9.710000000000001,-1.04,0.47,0.19,0.01,-0.16
2.963490009307861,2,3,3,0,-9.74,-1.03,0.44,0.12,0.02,-0.15
2.973489999771118,2,3,3,0,-9.77,-1.02,0.47,0.14,0.04,-0.18
2.983489990234375,2,3,3,0,-9.76,-0.97,0.52,0.23,0.05,-0.19
2.993489980697632,2,3,3,0,-9.74,-0.95,0.53,0.29,0.01,-0.18
3.003489971160889,2,3,3,0,-9.74,-0.96,0.54,0.29,0.01,-0.18
3.013489961624146,2,3,3,0,-9.73,-1.03,0.44,0.27,0.07000000000000001,-0.22
3.023489952087402,2,3,3,0,-9.73,-1.03,0.44,0.21,0.06,-0.26
3.033489942550659,2,3,3,0,-9.710000000000001,-1.12,0.5,0.18,0.07000000000000001,-0.24
3.043489933013916,2,3,3,0,-9.73,-1.18,0.5,0.19,0.05,-0.26
3.053489923477173,2,3,3,0,-9.73,-1.13,0.44,0.19,0.05,-0.26
3.06348991394043,2,3,3,0,-9.74,-1.05,0.32,0.34,0.07000000000000001,-0.3
3.073489904403687,2,3,3,0,-9.75,-1.02,0.41,0.5,0.04,-0.34
3.083489894866943,2,3,3,0,-9.74,-1.03,0.49,0.57,0,-0.29
3.0934898853302,2,3,3,0,-9.75,-0.9399999999999999,0.52,0.57,0.03,-0.29
3.103489875793457,2,3,3,0,-9.77,-0.97,0.54,0.54,0.05,-0.29
3.113490104675293,2,3,3,0,-9.73,-1.08,0.46,0.44,0.08,-0.26
3.12349009513855,2,3,3,0,-9.720000000000001,-1.12,0.53,0.44,0.04,-0.29
3.133490085601807,2,3,3,0,-9.720000000000001,-1.15,0.54,0.48,0.12,-0.33
3.143490076065063,2,3,3,0,-9.720000000000001,-1.18,0.53,0.43,0.07000000000000001,-0.3
3.15349006652832,2,3,3,0,-9.76,-1.15,0.48,0.44,0.04,-0.32
3.163490056991577,2,3,3,0,-9.73,-1.05,0.42,0.4,0.05,-0.33
3.173490047454834,2,3,3,0,-9.76,-1.13,0.45,0.4,0.09,-0.4
3.183490037918091,2,3,3,0,-9.720000000000001,-1.14,0.53,0.37,0.11,-0.36
3.193490028381348,2,3,3,0,-9.720000000000001,-1.04,0.54,0.43,0.07000000000000001,-0.41
3.203490018844604,2,3,3,0,-9.75,-1.02,0.55,0.53,0.08,-0.48
3.213490009307861,2,3,3,0,-9.720000000000001,-1.02,0.46,0.55,0.09,-0.49
3.223489999771118,2,3,3,0,-9.76,-0.95,0.47,0.59,0.09,-0.47
3.233489990234375,2,3,3,0,-9.75,-0.98,0.5,0.6,0.13,-0.45
3.243489980697632,2,3,3,0,-9.73,-0.9,0.49,0.62,0.14,-0.44
3.253489971160889,2,3,3,0,-9.74,-0.97,0.52,0.61,0.14,-0.42
3.263489961624146,2,3,3,0,-9.710000000000001,-0.99,0.41,0.53,0.14,-0.41
3.273489952087402,2,3,3,0,-9.74,-1.05,0.45,0.47,0.18,-0.36
3.283489942550659,2,3,3,0,-9.779999999999999,-1.1,0.51,0.42,0.14,-0.38
3.293489933013916,2,3,3,0,-9.74,-1.16,0.47,0.34,0.12,-0.4
3.303489923477173,2,3,3,0,-9.77,-1.25,0.39,0.36,0.11,-0.42
3.31348991394043,2,3,3,0,-9.74,-1.29,0.34,0.37,0.16,-0.43
3.323489904403687,2,3,3,0,-9.699999999999999,-1.31,0.35,0.29,0.12,-0.46
3.333489894866943,2,3,3,0,-9.710000000000001,-1.27,0.4,0.24,0.06,-0.48
3.3434898853302,2,3,3,0,-9.73,-1.3,0.42,0.22,0.04,-0.55
3.353489875793457,2,3,3,0,-9.720000000000001,-1.21,0.38,0.19,0.01,-0.63
3.363490104675293,2,3,3,0,-9.710000000000001,-1.1,0.33,0.15,0.08,-0.67
3.37349009513855,2,3,3,0,-9.75,-1.04,0.41,0.07000000000000001,0.02,-0.67
3.383490085601807,2,3,3,0,-9.76,-1.03,0.51,-0.08,0,-0.75
3.393490076065063,2,3,3,0,-9.75,-1.03,0.51,-0.26,0.02,-0.76
3.40349006652832,2,3,3,0,-9.77,-0.99,0.5,-0.5,0.03,-0.79
3.413490056991577,2,3,3,0,-9.720000000000001,-1.01,0.43,-0.63,0.01,-0.82
3.423490047454834,2,3,3,0,-9.720000000000001,-0.93,0.46,-0.78,-0.02,-0.89
3.433490037918091,2,3,3,0,-9.720000000000001,-0.93,0.49,-0.88,0,-0.92
3.443490028381348,2,3,3,0,-9.720000000000001,-0.96,0.51,-1.01,0,-0.92
3.453490018844604,2,3,3,0,-9.710000000000001,-0.93,0.48,-1.08,-0.01,-0.91
3.463490009307861,2,3,3,0,-9.720000000000001,-1.04,0.42,-1.27,0.05,-0.89
3.473489999771118,2,3,3,0,-9.800000000000001,-0.98,0.43,-1.26,0.07000000000000001,-0.87
3.483489990234375,2,3,3,0,-9.960000000000001,-1.17,0.53,-1.21,0.07000000000000001,-0.8
3.493489980697632,2,3,3,0,-9.84,-1.27,0.52,-1.22,0.15,-0.58
3.503489971160889,2,3,3,0,-9.57,-0.88,0.47,-1.05,0.12,-0.46
3.513489961624146,2,3,3,0,-9.630000000000001,-0.91,0.51,-1.01,0.17,-0.58
3.523489952087402,2,3,3,0,-9.619999999999999,-1.03,0.58,-0.98,0.25,-0.62
3.533489942550659,2,3,3,0,-9.68,-1.05,0.54,-0.88,0.32,-0.6
3.543489933013916,2,3,3,0,-9.75,-1.09,0.52,-0.75,0.33,-0.54
3.553489923477173,2,3,3,0,-9.710000000000001,-1.12,0.43,-0.55,0.42,-0.44
3.56348991394043,2,3,3,0,-9.69,-1.22,0.35,-0.5,0.42,-0.36
3.573489904403687,2,3,3,0,-9.68,-1.32,0.35,-0.35,0.4,-0.31
3.583489894866943,2,3,3,0,-9.619999999999999,-1.43,0.35,-0.19,0.42,-0.31
3.5934898853302,2,3,3,0,-9.630000000000001,-1.51,0.37,0.02,0.38,-0.32
3.603489875793457,2,3,3,0,-9.67,-1.66,0.3,0.17,0.41,-0.37
3.613490104675293,2,3,3,0,-9.69,-1.69,0.23,0.34,0.39,-0.44
3.62349009513855,2,3,3,0,-9.720000000000001,-1.67,0.29,0.47,0.31,-0.51
3.633490085601807,2,3,3,0,-9.69,-1.69,0.36,0.5600000000000001,0.31,-0.57
3.643490076065063,2,3,3,0,-9.609999999999999,-1.66,0.35,0.61,0.3,-0.6
3.65349006652832,2,3,3,0,-9.67,-1.53,0.35,0.66,0.3,-0.64
3.663490056991577,2,3,3,0,-9.640000000000001,-1.51,0.29,0.61,0.27,-0.6899999999999999
3.673490047454834,2,3,3,0,-9.68,-1.56,0.31,0.46,0.26,-0.67
3.683490037918091,2,3,3,0,-9.67,-1.59,0.35,0.23,0.25,-0.7
3.693490028381348,2,3,3,0,-9.67,-1.47,0.38,0.1,0.19,-0.7
3.703490018844604,2,3,3,0,-9.66,-1.49,0.36,-0.04,0.21,-0.72
3.713490009307861,2,3,3,0,-9.65,-1.39,0.25,-0.24,0.16,-0.72
3.723489999771118,2,3,3,0,-9.69,-1.33,0.25,-0.36,0.11,-0.79
3.733489990234375,2,3,3,0,-9.65,-1.22,0.34,-0.53,0.12,-0.77
3.743489980697632,2,3,3,0,-9.67,-1.25,0.36,-0.8100000000000001,0.13,-0.7
3.753489971160889,2,3,3,0,-9.630000000000001,-1.31,0.37,-1.09,0.11,-0.66
3.763489961624146,2,3,3,0,-9.640000000000001,-1.3,0.3,-1.26,0.15,-0.5600000000000001
3.773489952087402,2,3,3,0,-9.65,-1.24,0.31,-1.26,0.21,-0.48
3.783489942550659,2,3,3,0,-9.630000000000001,-1.29,0.36,-1.28,0.24,-0.38
3.793489933013916,2,3,3,0,-9.66,-1.37,0.38,-1.22,0.27,-0.27
3.803489923477173,2,3,3,0,-9.710000000000001,-1.57,0.38,-1.05,0.26,-0.21
3.81348991394043,2,3,3,0,-9.720000000000001,-1.89,0.25,-0.88,0.27,-0.18
3.824490070343018,2,3,3,0,-9.640000000000001,-1.89,0.23,-0.54,0.27,-0.21
3.833489894866943,2,3,3,0,-9.609999999999999,-1.71,0.24,-0.16,0.3,-0.26
3.8434898853302,2,3,3,0,-9.630000000000001,-1.49,0.26,0.24,0.2,-0.26
3.853489875793457,2,3,3,0,-9.640000000000001,-1.82,0.27,0.44,0.24,-0.24
3.863490104675293,2,3,3,0,-9.630000000000001,-1.77,0.19,0.45,0.25,-0.22
3.87349009513855,2,3,3,0,-9.65,-1.69,0.27,0.72,0.29,-0.28
3.884490013122559,2,3,3,0,-9.65,-1.7,0.3,1,0.24,-0.28
3.893490076065063,2,3,3,0,-9.630000000000001,-1.83,0.3,1.02,0.2,-0.26
3.90349006652832,2,3,3,0,-9.65,-1.86,0.25,1.15,0.22,-0.32
3.913490056991577,2,3,3,0,-9.699999999999999,-1.82,0.16,1.27,0.19,-0.4
3.923490047454834,2,3,3,0,-9.73,-1.58,0.18,1.45,0.13,-0.44
3.933490037918091,2,3,3,0,-9.699999999999999,-1.53,0.22,1.55,0.02,-0.5
3.9444899559021,2,3,3,0,-9.67,-1.55,0.12,1.3,0.02,-0.54
3.953490018844604,2,3,3,0,-9.640000000000001,-1.5,0.08,1.23,0.03,-0.57
3.963490009307861,2,3,3,0,-9.65,-1.46,0.09,1.11,0.06,-0.59
3.97448992729187,2,3,3,0,-9.640000000000001,-1.37,0.25,0.83,0.05,-0.57
3.984489917755127,2,3,3,0,-9.67,-1.49,0.3,0.45,0.11,-0.57
3.994489908218384,2,3,3,0,-9.68,-1.8,0.3,0.19,0.17,-0.68
4.004489898681641,2,3,3,0,-9.789999999999999,-1.96,0.32,0.14,0.14,-0.9
4.014489889144897,2,3,3,0,-9.890000000000001,-1.8,0.29,0.45,0.07000000000000001,-1.1
4.024489879608154,2,3,3,0,-9.81,-1.63,0.3,0.86,-0.05,-1.14
4.03449010848999,2,3,3,0,-9.85,-1.84,0.37,0.74,-0.03,-1.21
4.044490098953247,2,3,3,0,-9.640000000000001,-1.97,0.4,0.15,0.02,-1.23
4.054490089416504,2,3,3,0,-9.619999999999999,-1.95,0.41,0.09,0.05,-1.27
4.064490079879761,2,3,3,0,-9.539999999999999,-2.01,0.4,0.12,0.08,-1.3
4.074490070343018,2,3,3,0,-9.5,-2.21,0.29,0.06,0.08,-1.25
4.084490060806274,2,3,3,0,-9.77,-2.38,0.29,0.16,0.07000000000000001,-1.31
4.094490051269531,2,3,3,0,-9.720000000000001,-2.27,0.27,0.62,-0.08,-1.4
4.104490041732788,2,3,3,0,-9.710000000000001,-2.01,0.37,1.23,-0.15,-1.42
4.114490032196045,2,3,3,0,-9.73,-1.81,0.33,1.55,-0.11,-1.32
4.124490022659302,2,3,3,0,-9.699999999999999,-1.89,0.31,1.35,-0.01,-1.19
4.134490013122559,2,3,3,0,-9.68,-1.74,0.26,0.93,0.02,-1.05
4.144490003585815,2,3,3,0,-9.699999999999999,-1.89,0.35,0.67,0.02,-0.9399999999999999
4.154489994049072,2,3,3,0,-9.550000000000001,-2.07,0.48,0.18,0.11,-0.85
4.164489984512329,2,3,3,0,-9.539999999999999,-1.95,0.12,0.23,0.08,-0.87
4.174489974975586,2,3,3,0,-9.470000000000001,-2.09,0.22,-0.07000000000000001,0.06,-0.97
4.184489965438843,2,3,3,0,-9.359999999999999,-2.12,0.24,-0.26,-0.08,-1.08
4.1944899559021,2,3,3,0,-9.380000000000001,-2.09,0.2,-0.21,-0.16,-1.17
4.204489946365356,2,3,3,0,-9.5,-2.04,0.23,-0.32,-0.15,-1.21
4.214489936828613,2,3,3,0,-9.48,-1.82,0.09,-0.31,-0.14,-1.21
4.22448992729187,2,3,3,0,-9.539999999999999,-1.78,0.12,-0.35,-0.17,-1.2
4.234489917755127,2,3,3,0,-9.529999999999999,-1.74,0.18,-0.71,-0.12,-1.05
4.244489908218384,2,3,3,0,-9.51,-1.62,0.28,-0.96,-0.15,-0.9
4.254489898681641,2,3,3,0,-9.539999999999999,-1.53,0.23,-1.08,-0.11,-0.79
4.264489889144897,2,3,3,0,-9.630000000000001,-1.79,0.27,-1.56,-0.1,-0.66
4.274489879608154,2,3,3,0,-9.48,-2.05,0.44,-2.02,-0.16,-0.53
4.28449010848999,2,3,3,0,-9.43,-2.24,0.37,-2.01,-0.24,-0.62
4.294490098953247,2,3,3,0,-9.470000000000001,-2.43,0.38,-1.95,-0.19,-0.73
4.304490089416504,2,3,3,0,-9.529999999999999,-2.64,0.42,-1.97,-0.23,-0.77
4.314490079879761,2,3,3,0,-9.640000000000001,-2.74,0.26,-1.73,-0.23,-0.83
4.324490070343018,2,3,3,0,-9.9,-2.61,0.02,-1.6,-0.21,-0.87
4.334490060806274,2,3,3,0,-9.859999999999999,-2.55,0.07000000000000001,-1.65,-0.2,-0.77
4.344490051269531,2,3,3,0,-9.720000000000001,-2.44,0.11,-1.47,-0.29,-0.75
4.354490041732788,2,3,3,0,-9.56,-2.55,0.17,-1.29,-0.19,-0.75
4.364490032196045,2,3,3,0,-9.5,-2.37,0.11,-1.19,-0.1,-0.75
4.374490022659302,2,3,3,0,-9.42,-2.27,0.25,-1.18,-0.19,-0.67
4.384490013122559,2,3,3,0,-9.35,-2.2,0.39,-1.04,-0.31,-0.65
4.394490003585815,2,3,3,0,-9.369999999999999,-1.89,0.26,-0.98,-0.4,-0.64
4.404489994049072,2,3,3,0,-9.44,-2.01,0.35,-1.2,-0.36,-0.5
4.414489984512329,2,3,3,0,-9.380000000000001,-1.8,0.27,-1.5,-0.34,-0.31
4.424489974975586,2,3,3,0,-9.390000000000001,-1.44,0.25,-1.24,-0.31,-0.11
4.434489965438843,2,3,3,0,-9.5,-1.15,0.29,-1.05,-0.2,0.04
4.4444899559021,2,3,3,0,-9.789999999999999,-1.49,0.17,-0.85,-0.19,0.22
4.454489946365356,2,3,3,0,-10.24,-1.49,0.15,-0.54,-0.22,0.18
4.464489936828613,2,3,3,0,-10.24,-1.07,0.03,0.38,-0.38,0.24
4.47448992729187,2,3,3,0,-9.76,-1.55,0.24,0.74,-0.26,0.57
4.484489917755127,2,3,3,0,-9.52,-1.75,0.11,0.21,0.1,0.91
4.494489908218384,2,3,3,0,-9.52,-1.88,0,0.26,0.42,0.83
4.504489898681641,2,3,3,0,-9.619999999999999,-2.05,0.14,0.47,0.47,0.7
4.514489889144897,2,3,3,0,-9.57,-1.81,0.22,0.85,0.24,0.5600000000000001
4.524489879608154,2,3,3,0,-9.449999999999999,-1.46,0.28,0.98,0,0.54
4.53449010848999,2,3,3,0,-9.390000000000001,-1.21,0.25,0.9399999999999999,-0.12,0.61
4.544490098953247,2,3,3,0,-9.35,-1.04,0.22,0.73,-0.15,0.78
4.554490089416504,2,3,3,0,-9.43,-1.48,0.24,0.22,-0.05,1.02
4.564490079879761,2,3,3,0,-9.44,-1.36,0.15,0.2,0.03,1.22
4.574490070343018,2,3,3,0,-9.529999999999999,-1.22,0.3,0.48,0.11,1.45
4.584490060806274,2,3,3,0,-9.48,-0.79,0.47,0.85,0.09,1.67
4.594490051269531,2,3,3,0,-9.26,1.45,0.92,1.25,0.05,1.96
4.604490041732788,2,3,3,0,-9.17,2.82,1.12,1.39,0.18,2.48
4.614490032196045,2,3,3,0,-9.18,4.37,1.19,0.93,0.31,3.4
4.624490022659302,2,3,3,0,-9.27,6.07,1.38,0.02,0.36,4.72
4.634490013122559,2,3,3,0,-9.41,8.91,2.02,-1.03,0.49,6.49
4.644490003585815,2,3,3,0,-9.449999999999999,10.04,2.06,-2.19,0.5600000000000001,8.74
4.654489994049072,2,3,3,0,-9.460000000000001,8.24,2.13,-4.94,0.68,11.66
4.664489984512329,2,3,3,0,-8.43,5.23,2.64,-9.15,0.6,14.14
4.674489974975586,2,3,3,0,-7.14,3.58,2.13,-8.74,0.67,14.64
4.684489965438843,2,3,3,0,-7.49,2.96,2.18,-6.86,0.98,14.62
4.6944899559021,2,3,3,0,-7.48,2.24,2.11,-4.01,0.41,14.57
4.704489946365356,2,3,3,0,-7.24,1.89,1.86,-0.19,-0.7,15.01
4.714489936828613,2,3,3,0,-7.08,-1.11,0.32,3.49,-1.21,15.64
4.72448992729187,2,3,3,0,-7.22,-2.14,-0.7,5.13,-0.86,15.91
4.734489917755127,2,3,3,0,-7.01,-3.93,-1.17,5.73,0.1,15.82
4.744489908218384,2,3,3,0,-6.53,-4.19,-1.61,8.09,1.16,15.03
4.754489898681641,2,3,3,0,-6.76,-3.43,-2.29,11.74,1.28,13.96
4.764489889144897,2,3,3,0,-7.41,-3.25,-1.89,16.45,0.54,13.01
4.774489879608154,2,3,3,0,-7.98,-2.12,-0.9,19.5,-0.1,12.64
4.78449010848999,2,3,3,0,-10.13,-0.55,-1.14,19.89,0.5,12.49
4.794490098953247,2,3,3,0,-11.39,-0.48,-1.32,16.83,1.65,12.77
4.804490089416504,2,3,3,0,-11.72,-1.24,-1.69,13.33,1.7,12.34
4.814490079879761,2,3,3,0,-11.77,-1.38,-1.92,11.23,2.44,11.15
4.824490070343018,2,3,3,0,-11.97,-1.16,-0.93,10.17,3.19,9.85
4.834490060806274,2,3,3,0,-12,-0.55,-0.61,8.07,3.68,9.77
4.844490051269531,2,3,3,0,-12.04,-0.43,-0.68,6.76,4.28,10.33
4.854490041732788,2,3,3,0,-11.94,-0.58,-0.8,5.07,4.89,10.95
4.864490032196045,2,3,3,0,-11.53,1.45,-0.38,4.33,5.3,11.27
4.874490022659302,2,3,3,0,-11.13,2.21,-0.06,3.4,5.52,11.47
4.884490013122559,2,3,3,0,-11.23,2.13,0.37,1.42,5.76,11.41
4.894490003585815,2,3,3,0,-11.53,1.1,0.74,-1.44,5.25,10.82
4.904489994049072,2,3,3,0,-11.77,-1.55,-0.15,-4.6,4.24,9.369999999999999
4.914489984512329,2,3,3,0,-12.1,-2.19,-0.6,-6.39,3.55,7.29
4.924489974975586,2,3,3,0,-12.42,-3.47,-0.42,-6.95,2.74,5.15
4.934489965438843,2,3,3,0,-12.73,-4.26,-0.62,-6.5,1.8,2.83
4.9444899559021,2,3,3,0,-14.09,-2.91,-1.23,-4.9,1.01,0.52
4.954489946365356,2,3,3,0,-15.57,-2.14,-1.27,-2.39,0.31,-1.47
4.964489936828613,2,3,3,0,-16.68,-2.1,-0.92,-1.09,-0.4,-2.99
4.97448992729187,2,3,3,0,-17.54,-2.53,-0.75,-0.97,-1.45,-4.06
4.984489917755127,2,3,3,0,-18.7,-4.7,0.23,-1.91,-1.87,-4.75
4.995490074157715,2,3,3,0,-18.91,-5.66,1.64,-2.96,-2.16,-5.1
5.005490064620972,2,3,3,0,-18.84,-6.59,3.1,-3.25,-2.61,-5.62
5.015490055084229,2,3,3,0,-18.6,-7.28,4.58,-2.94,-3.51,-6.74
5.025490045547485,2,3,3,0,-18.59,-7.7,6.42,-1.98,-4.87,-8.75
5.035490036010742,2,3,3,0,-18.97,-7.49,6.02,-0.41,-7.2,-11.67
5.045490026473999,2,3,3,0,-20.7,-7.29,5.99,1.72,-9.08,-14.9
5.055490016937256,2,3,3,0,-22.43,-7.69,5.21,2.75,-10.61,-17.71
5.065490007400513,2,3,3,0,-25.58,-10.24,1.34,1.86,-12.27,-19.7
5.07548999786377,2,3,3,0,-27.09,-11.24,-1.1,0.13,-12.11,-20.96
5.085489988327026,2,3,3,0,-28.36,-12.13,-3.83,-2.02,-11.43,-21.58
5.095489978790283,2,3,3,0,-29.72,-11.88,-8.6,-4.04,-10.21,-21.61
5.10548996925354,2,3,3,0,-29.28,-8.15,-9.619999999999999,-3.28,-7.99,-22.31
5.115489959716797,2,3,3,0,-28.5,-2.5,-10.6,-2.22,-5.26,-24.14
5.125489950180054,2,3,3,0,-26.7,-0.77,-10.48,-4.84,-2.8,-26.06
5.135489940643311,2,3,3,0,-18.46,2.56,-4.27,-2.78,0.41,-27.69
5.145489931106567,2,3,3,0,-13.73,1.56,-2.58,6.63,1.29,-29.05
5.155489921569824,2,3,3,0,-8.699999999999999,0.16,-1.06,15.01,0.83,-29.36
5.165489912033081,2,3,3,0,-6.12,12.71,1.16,31.33,0.31,-29.41
5.175489902496338,2,3,3,0,-4.27,39.21,17.63,43.03,-3.46,-27.74
5.185489892959595,2,3,3,0,-0.8,39.12,13.25,22.58,-8.26,-12.01
5.195489883422852,2,3,3,0,3.42,35.75,3.69,-1.48,-2.3,2.2
5.205490112304688,2,3,3,0,2.43,13.4,2.63,-9.949999999999999,5.44,8.4
5.215490102767944,2,3,3,0,-8.09,-0.35,-3.75,-5.79,8.1,10.06
5.225490093231201,2,3,3,0,-9.09,-3.13,2.26,-5.3,7.26,10.6
5.235490083694458,2,3,3,0,-4.41,0.22,2.08,-3.85,2.39,10.72
5.245490074157715,2,3,3,0,-1.03,-0.31,2.09,-4.39,-0.87,9.619999999999999
5.255490064620972,2,3,3,0,0.27,-4.81,-1.5,-6.78,2.31,8.869999999999999
5.265490055084229,2,3,3,0,1.11,-8.210000000000001,-2.67,-7.93,3.74,8.970000000000001
5.275490045547485,2,3,3,0,1.29,-11.98,-2.5,-10.61,1.36,8.83
5.285490036010742,2,3,3,0,0.82,-12.36,-3.07,-7.25,1.06,6.52
5.295490026473999,2,3,3,0,-0.64,-6.91,-4.24,0.17,1.47,4.05
5.305490016937256,2,3,3,0,-0.97,-4.98,-3.99,6.32,-0.1,2.98
5.315490007400513,2,3,3,0,-0.72,-4.19,-3.85,7.73,-3.58,3.02
5.32548999786377,2,3,3,0,0.33,-4.35,-3.45,6.56,-6.07,3.74
5.335489988327026,2,3,3,0,1.77,-5.51,-1.49,4.8,-6.29,4.38
5.345489978790283,2,3,3,0,1.56,-5.46,-0.73,5.56,-3.91,4.34
5.35548996925354,2,3,3,0,1.35,-4.88,-0.42,7.8,-1.37,3.62
5.365489959716797,2,3,3,0,1.77,-3.68,-0.48,9.789999999999999,0.48,2.76
5.375489950180054,2,3,3,0,1.29,-0.09,-0.37,10.37,2,2.24
5.385489940643311,2,3,3,0,0.73,1.46,0.26,8.710000000000001,2.43,2.32
5.395489931106567,2,3,3,0,0.11,2.54,1.09,4.89,1.98,2.79
5.405489921569824,2,3,3,0,-0.3,3,1.77,-0.1,1.84,3.57
5.415489912033081,2,3,3,0,-0.93,2.51,1.12,-4.8,2.37,4.26
5.425489902496338,2,3,3,0,-0.77,2.26,-0.26,-8.49,2.86,4.64
5.435489892959595,2,3,3,0,-0.39,2.84,-1.26,-9.94,3.43,4.86
5.445489883422852,2,3,3,0,-0.19,4.25,-1.62,-10.73,4,5.14
5.455490112304688,2,3,3,0,-0.14,4.53,-1.85,-11.78,3.78,5.04
5.465490102767944,2,3,3,0,-0.98,4.04,-1.39,-12.24,3.38,4.55
5.475490093231201,2,3,3,0,-1.53,2.82,-0.41,-13.2,2.62,3.22
5.485490083694458,2,3,3,0,-0.57,0.1,0.6899999999999999,-13.28,0.9,1.7
5.495490074157715,2,3,3,0,0.25,-0.68,1.2,-10.76,-0.58,1.01
5.505490064620972,2,3,3,0,0.58,-1.32,1.34,-6.15,-1.89,1.52
5.515490055084229,2,3,3,0,0.46,-1.7,1.81,-0.8100000000000001,-2.65,2.21
5.525490045547485,2,3,3,0,-0.48,-1.47,2.87,4.36,-3.11,2.4
5.535490036010742,2,3,3,0,-1.55,2.99,1.79,8.67,-3.74,1.97
5.545490026473999,2,3,3,0,-3.96,19.85,2.81,16.34,-5.25,0.95
5.555490016937256,2,3,3,0,-7.59,29.39,7.39,22.01,-6.91,0.01
5.565490007400513,2,3,3,0,-13.46,-21.12,-2.71,-8.699999999999999,-3.64,-2.13
5.57548999786377,2,3,3,0,-23.18,-9.99,-4.18,-22.19,-0.3,-7.48
5.585489988327026,2,3,3,0,-27.19,18.9,0.05,10.96,-1.71,-11.27
5.595489978790283,2,3,3,0,-29.37,25.64,7.2,31.39,-2.3,-2.15
5.60548996925354,2,3,3,0,-20.72,-2.25,-7.19,-1.69,5.07,9.800000000000001
5.615489959716797,2,3,3,0,-15.75,-3.88,-1.65,-6.01,7.57,14.82
5.625489950180054,2,3,3,0,-18.02,-7.08,-1.76,-1.92,7.34,12.29
5.635489940643311,2,3,3,0,-25.52,-4.69,-5.5,1.57,10.1,10.32
5.645489931106567,2,3,3,0,-31.31,2.04,-3.19,11.4,8.529999999999999,8.4
5.655489921569824,2,3,3,0,-30.97,4.18,0.3,10.85,6.85,7.14
5.665489912033081,2,3,3,0,-27.27,2.09,5.83,4.3,6.02,6.51
5.675489902496338,2,3,3,0,-20.53,-5.83,6.51,-6.42,5.4,6.32
5.685489892959595,2,3,3,0,-15.64,-17.79,1.1,-14.39,5.72,5.19
5.695489883422852,2,3,3,0,-15.28,-16.96,0.82,-14.68,5.19,3.75
5.705490112304688,2,3,3,0,-15.75,-14.11,2.48,-5.38,4.13,2.04
5.715490102767944,2,3,3,0,-16.19,-11.12,3.86,5,0.61,-0.53
5.725490093231201,2,3,3,0,-15.02,-5.66,3.65,5,0.61,-0.53
5.735490083694458,2,3,3,0,-14.78,-4.78,3.51,3.38,-0.46,-1.22
5.745490074157715,2,3,3,0,-14.96,-5.22,3.39,-0.2,-1.33,-1.84
5.755490064620972,2,3,3,0,-14.86,-6.11,2.45,-2.9,-1.81,-2.8
5.765490055084229,2,3,3,0,-13.57,-5.3,0.21,-3.5,-2.1,-4.19
5.775490045547485,2,3,3,0,-13.19,-4.17,-0.5,-2.56,-2.25,-5.33
5.785490036010742,2,3,3,0,-13.2,-3.19,-0.83,-2,-2.4,-6.01
5.795490026473999,2,3,3,0,-12.82,-2.55,-1.19,-1.71,-2.43,-6.33
5.805490016937256,2,3,3,0,-12.3,-2.88,-1.54,-1.54,-2.54,-6.65
5.815490007400513,2,3,3,0,-11.87,-2.68,-1.77,-0.67,-2.4,-7.23
5.82548999786377,2,3,3,0,-11.23,-2.08,-1.69,1.08,-2.12,-7.87
5.835489988327026,2,3,3,0,-9.890000000000001,-0.5600000000000001,-1.29,2.79,-1.85,-8.23
5.845489978790283,2,3,3,0,-9.380000000000001,0.38,-0.95,4,-1.67,-8.18
5.85548996925354,2,3,3,0,-8.98,1.12,-0.44,3.5,-1.28,-7.39
5.865489959716797,2,3,3,0,-8.32,1.59,-0.15,1.73,-1.19,-6.92
5.875489950180054,2,3,3,0,-7,1.88,-0.05,-0.33,-1.02,-6.77
5.885489940643311,2,3,3,0,-6.55,1.68,-0.07000000000000001,-0.33,-1.02,-6.77
5.895489931106567,2,3,3,0,-6.16,1.29,-0.03,-2.38,-0.88,-6.66
5.905489921569824,2,3,3,0,-5.87,0.85,-0.02,-4.99,-0.42,-6.67
5.915489912033081,2,3,3,0,-5.48,0,-0.38,-5.34,-0.22,-6.77
5.925489902496338,2,3,3,0,-5.39,-0.29,-0.32,-4.97,0.08,-6.76
5.935489892959595,2,3,3,0,-5.6,-0.45,-0.35,-4.97,0.08,-6.76
5.945489883422852,2,3,3,0,-6.06,-0.26,-0.39,-4.08,0.13,-6.54
5.955490112304688,2,3,3,0,-6.81,-0.01,-0.37,-1.64,0.17,-5.55
5.965490102767944,2,3,3,0,-7.11,0.45,-0.47,-0.33,0.43,-5.03
5.975490093231201,2,3,3,0,-7.54,0.89,-0.35,-0.41,0.86,-4.55
5.985490083694458,2,3,3,0,-8.050000000000001,0.8,-0.11,-0.41,0.86,-4.55
5.995490074157715,2,3,3,0,-8.359999999999999,1.04,0.16,-0.41,0.97,-4.22
6.005490064620972,2,3,3,0,-8.710000000000001,1.25,0.34,0.06,1.05,-3.96
6.015490055084229,2,3,3,0,-9.140000000000001,1.56,0.5600000000000001,0.23,0.79,-3.75
6.026489973068237,2,3,3,0,-9.84,2.6,0.8100000000000001,-0.64,0.2,-3.23
6.036489963531494,2,3,3,0,-12.09,4,2.24,-0.64,0.2,-3.23
6.046489953994751,2,3,3,0,-12.84,3.82,3,-2.57,-0.61,-2.63
6.056489944458008,2,3,3,0,-12.87,3.69,3.07,-5.95,-0.86,-1.35
6.066489934921265,2,3,3,0,-12.38,2.59,2.88,-7.08,-0.18,-0.68
6.076489925384521,2,3,3,0,-10.61,-0.23,1.27,-7.5,0.38,0.04
6.086489915847778,2,3,3,0,-10.05,-1.86,0.18,-7.5,0.38,0.04
6.096489906311035,2,3,3,0,-9.640000000000001,-3.51,-0.49,-7.42,0.63,0.46
6.106489896774292,2,3,3,0,-9.470000000000001,-4.87,-0.52,-2.62,1.16,-0.12
6.116489887237549,2,3,3,0,-9.880000000000001,-5.53,-0.62,0.08,1.21,-0.82
6.126489877700806,2,3,3,0,-10.02,-5.47,-0.62,1.61,0.97,-1.31
6.136490106582642,2,3,3,0,-9.94,-5.58,-0.55,1.61,0.97,-1.31
6.146490097045898,2,3,3,0,-9.75,-5.23,-0.71,2.97,0.61,-1.7
6.156490087509155,2,3,3,0,-9.43,-4.64,-0.5600000000000001,4.6,-0.53,-2.32
6.166490077972412,2,3,3,0,-9.27,-3.86,-0.44,5.12,-0.77,-2.76
6.176490068435669,2,3,3,0,-9.289999999999999,-3.34,-0.22,5.03,-0.86,-3.12
6.186490058898926,2,3,3,0,-9.380000000000001,-2.33,0.18,5.03,-0.86,-3.12
6.196490049362183,2,3,3,0,-9.35,-1.85,0.3,4.31,-0.79,-3.4
6.206490039825439,2,3,3,0,-9.27,-1.26,0.27,2.31,-0.35,-3.56
6.216490030288696,2,3,3,0,-9.23,-0.74,0.17,0.9399999999999999,-0.29,-3.52
6.226490020751953,2,3,3,0,-9.050000000000001,-0.21,0.32,-0.74,-0.28,-3.5
6.23649001121521,2,3,3,0,-9.109999999999999,-0.17,0.47,-0.74,-0.28,-3.5
6.246490001678467,2,3,3,0,-9.300000000000001,0,0.47,-2.21,-0.24,-3.4
6.256489992141724,2,3,3,0,-9.460000000000001,-0.06,0.5600000000000001,-4.9,-0.32,-3.02
6.26648998260498,2,3,3,0,-9.699999999999999,-0.42,0.5600000000000001,-5.78,-0.52,-2.76
6.276489973068237,2,3,3,0,-9.76,-0.5600000000000001,0.54,-6.11,-0.5600000000000001,-2.58
6.286489963531494,2,3,3,0,-9.720000000000001,-0.62,0.5,-6.11,-0.5600000000000001,-2.58
6.296489953994751,2,3,3,0,-9.779999999999999,-0.98,0.38,-6.58,-0.6,-2.33
6.306489944458008,2,3,3,0,-9.67,-2.16,0.32,-6.76,-0.31,-1.87
6.316489934921265,2,3,3,0,-9.67,-2.66,0.2,-5.95,-0.15,-1.72
6.326489925384521,2,3,3,0,-9.619999999999999,-2.94,0.1,-4.66,-0.17,-1.68
6.336489915847778,2,3,3,0,-9.619999999999999,-3.21,0.11,-4.66,-0.17,-1.68
6.346489906311035,2,3,3,0,-9.609999999999999,-3.15,0.04,-3.01,-0.25,-1.7
6.356489896774292,2,3,3,0,-9.59,-2.81,0.07000000000000001,-0.2,-0.53,-1.71
6.366489887237549,2,3,3,0,-9.449999999999999,-2.4,0.03,0.43,-0.6,-1.64
6.376489877700806,2,3,3,0,-9.34,-2.12,0.13,0.8,-0.55,-1.44
6.386490106582642,2,3,3,0,-9.23,-1.57,0.22,0.8,-0.55,-1.44
6.396490097045898,2,3,3,0,-9.359999999999999,-1.26,0.18,1.11,-0.59,-1.28
6.406490087509155,2,3,3,0,-9.43,-1.44,0.37,0.46,-0.5600000000000001,-1.04
6.416490077972412,2,3,3,0,-9.51,-1.61,0.39,0.6,-0.45,-0.9
6.426490068435669,2,3,3,0,-9.6,-1.34,0.26,0.75,-0.59,-0.72
6.436490058898926,2,3,3,0,-9.51,-1.11,0.3,0.75,-0.59,-0.72
6.446490049362183,2,3,3,0,-9.449999999999999,-1.26,0.43,0.27,-0.5,-0.51
6.456490039825439,2,3,3,0,-9.42,-1.26,0.38,-0.41,-0.27,-0.2
6.466490030288696,2,3,3,0,-9.48,-0.93,0.27,-0.66,-0.23,-0.05
6.476490020751953,2,3,3,0,-9.51,-0.82,0.32,-1.14,-0.21,0.08
6.48649001121521,2,3,3,0,-9.6,-0.84,0.31,-1.14,-0.21,0.08
6.496490001678467,2,3,3,0,-9.69,-1.12,0.35,-1.76,-0.14,0.18
6.51648998260498,2,3,3,0,-9.619999999999999,-1.45,0.22,-1.88,0.31,0.54
6.546489953994751,2,3,3,0,-9.44,-1.78,0.35,-0.71,0.38,0.74
6.556489944458008,2,3,3,0,-9.52,-1.66,0.31,0.59,0.25,0.85
6.566489934921265,2,3,3,0,-9.640000000000001,-1.6,0.13,0.68,0.21,0.97
6.576489925384521,2,3,3,0,-9.59,-1.62,0.21,0.99,0.2,1.06
6.586489915847778,2,3,3,0,-9.56,-1.42,0.18,0.99,0.2,1.06
6.596489906311035,2,3,3,0,-9.48,-1.7,0.21,0.9399999999999999,0.27,1.21
6.606489896774292,2,3,3,0,-9.4,-1.73,0.21,1.19,0.45,1.43
6.616489887237549,2,3,3,0,-9.4,-1.55,0.05,1.44,0.49,1.46
6.626489877700806,2,3,3,0,-9.470000000000001,-1.49,0.13,1.62,0.47,1.53
6.636490106582642,2,3,3,0,-9.52,-1.22,0.15,1.62,0.47,1.53
6.646490097045898,2,3,3,0,-9.59,-0.86,0.05,1.38,0.43,1.68
6.656490087509155,2,3,3,0,-9.42,-0.75,0.36,0.8,0.34,2.32
6.666490077972412,2,3,3,0,-9.24,-0.23,0.4,0.9399999999999999,0.52,2.69
6.676490068435669,2,3,3,0,-9.199999999999999,0.1,0.55,1.06,0.6899999999999999,3.23
6.686490058898926,2,3,3,0,-9.18,0.44,0.61,1.06,0.6899999999999999,3.23
6.696490049362183,2,3,3,0,-9.08,1.55,0.46,1.17,0.75,3.93
6.706490039825439,2,3,3,0,-9.1,1.73,0.53,0.31,0.61,5.77
6.716490030288696,2,3,3,0,-9.01,2.22,0.49,0.26,0.41,6.86
6.726490020751953,2,3,3,0,-8.869999999999999,2.83,0.5600000000000001,0.09,0.22,7.94
6.73649001121521,2,3,3,0,-8.75,3.39,0.85,0.09,0.22,7.94
6.746490001678467,2,3,3,0,-8.84,3.5,1.02,-0.17,0,8.880000000000001
6.756489992141724,2,3,3,0,-8.84,3.62,1.18,-0.5,-0.39,10.89
6.76648998260498,2,3,3,0,-8.81,3.78,1.07,-2.05,-0.3,12.05
6.776489973068237,2,3,3,0,-8.98,1.71,0.82,-3.55,-0.42,12.64
6.786489963531494,2,3,3,0,-8.300000000000001,-0.25,1.37,-3.55,-0.42,12.64
6.796489953994751,2,3,3,0,-7.66,-0.25,0.82,-0.93,-0.03,12.28
6.806489944458008,2,3,3,0,-7.67,0.07000000000000001,0.27,3.77,0.97,11.2
6.816489934921265,2,3,3,0,-8.449999999999999,0.54,0.31,4.53,0.29,11.36
6.826489925384521,2,3,3,0,-9.029999999999999,0.77,0.25,4.54,-0.41,12.11
6.836489915847778,2,3,3,0,-9.51,0.46,0.52,4.54,-0.41,12.11
6.846489906311035,2,3,3,0,-9.640000000000001,-0.04,0.82,5.31,0.01,12.91
6.856489896774292,2,3,3,0,-10.63,1.29,1.4,11.15,2.96,14.52
6.866489887237549,2,3,3,0,-11.54,1.77,1.66,9.67,2.42,16.02
6.876489877700806,2,3,3,0,-12.51,0.64,1.89,6.56,1.56,16.77
6.886490106582642,2,3,3,0,-10.22,-4.36,1.43,6.56,1.56,16.77
6.896490097045898,2,3,3,0,-9.029999999999999,-5.87,-0.13,5.19,2.44,17.01
6.906490087509155,2,3,3,0,-8.32,-6.08,-0.6899999999999999,9.779999999999999,1.64,15.97
6.916490077972412,2,3,3,0,-7.49,-6.06,-0.38,14.14,2.49,15.19
6.926490068435669,2,3,3,0,-7.72,-3.92,0,14.26,2.9,14.45
6.936490058898926,2,3,3,0,-8.369999999999999,-3.54,-0.74,14.26,2.9,14.45
6.946490049362183,2,3,3,0,-8.4,-2.95,-1.14,11.76,2.28,13.34
6.956490039825439,2,3,3,0,-8.289999999999999,-2.78,-1.8,4.71,2.44,9.359999999999999
6.966490030288696,2,3,3,0,-9.539999999999999,-1.69,-3.6,1.6,2.22,7.09
6.976490020751953,2,3,3,0,-10.13,-1.36,-3.64,-0.6,1.89,4.96
6.98649001121521,2,3,3,0,-10.53,-0.8,-3.68,-0.6,1.89,4.96
6.996490001678467,2,3,3,0,-11.17,0.04,-3.31,-0.92,2.13,3.22
7.087490081787109,2,3,3,0,-19.04,-8.470000000000001,4.46,-5.62,-1.42,-5.71
7.097490072250366,2,3,3,0,-18.87,-9.59,5.53,-4.34,-3,-7.84
7.107490062713623,2,3,3,0,-18.83,-9.699999999999999,6.35,-0.33,-6.96,-12.22
7.11749005317688,2,3,3,0,-19.33,-9.06,7.14,1.32,-9.1,-14.23
7.127490043640137,2,3,3,0,-21.23,-8.140000000000001,5.99,1.46,-11.27,-16.16
7.137490034103394,2,3,3,0,-22.41,-8.41,4.61,1.46,-11.27,-16.16
7.14749002456665,2,3,3,0,-24.13,-8.81,2.97,0.64,-12.18,-17.64
7.157490015029907,2,3,3,0,-25.75,-10.14,0.62,-2.55,-11.94,-19.8
7.167490005493164,2,3,3,0,-27.94,-10.66,-4.94,-3.26,-10.77,-20.36
7.177489995956421,2,3,3,0,-28.01,-9.33,-7.16,-4.33,-8.789999999999999,-20.85
7.187489986419678,2,3,3,0,-27.99,-6.1,-8.52,-4.33,-8.789999999999999,-20.85
7.197489976882935,2,3,3,0,-27.47,0.8,-9.26,-5.78,-6.09,-22.06
7.207489967346191,2,3,3,0,-21.89,7.21,-4.74,-6.05,-0.51,-24.9
7.217489957809448,2,3,3,0,-17.55,5.06,-2.27,-0.89,0.78,-25.9
7.227489948272705,2,3,3,0,-13.51,0.71,-0.87,8.619999999999999,-0.82,-26.81
7.237489938735962,2,3,3,0,-5.56,0.71,1,8.619999999999999,-0.82,-26.81
7.247489929199219,2,3,3,0,-3.03,16.18,3.26,24.78,-1.9,-27.83
7.257489919662476,2,3,3,0,-1.42,38.89,7.73,12.55,-10.03,-5.93
7.267489910125732,2,3,3,0,-3.87,39.21,15.62,-13.55,-5,4.31
7.277489900588989,2,3,3,0,0.92,24.58,1.76,-18.99,2.72,9.02
7.287489891052246,2,3,3,0,1.04,6.67,-0.3,-18.99,2.72,9.02
7.297489881515503,2,3,3,0,-2.71,1.02,-3.29,-7.58,7.54,10.29
7.307490110397339,2,3,3,0,-6.92,1.72,-1.68,0.5,2.78,9.56
7.317490100860596,2,3,3,0,-3.15,-0.06,1.83,1.73,0.52,9.07
7.327490091323853,2,3,3,0,-1.67,-1.23,0.92,-1.48,0.88,9.25
7.337490081787109,2,3,3,0,-0.29,-3.75,1.18,-1.48,0.88,9.25
7.347490072250366,2,3,3,0,0.98,-6.05,0.99,-2.43,1.78,9.4
7.357490062713623,2,3,3,0,1.13,-8.07,-2.28,-0.66,3.77,9.42
7.36749005317688,2,3,3,0,0.31,-8.52,-3.11,2.69,2.74,8.539999999999999
7.377490043640137,2,3,3,0,-0.13,-7.29,-3.32,8.01,1.19,7.25
7.387490034103394,2,3,3,0,-0.17,-4.98,-2.75,8.01,1.19,7.25
7.39749002456665,2,3,3,0,-0.19,-1.34,-2.6,11.17,0.07000000000000001,6.61
7.407490015029907,2,3,3,0,0.21,-0.65,-2.77,10.32,-2.35,6.27
7.417490005493164,2,3,3,0,0.8100000000000001,-0.13,-2.47,8.08,-2.56,6.56
7.427489995956421,2,3,3,0,1.05,-0.5600000000000001,-1.61,5.86,-2.19,6.87
7.437489986419678,2,3,3,0,0.36,-2.5,-0.02,5.86,-2.19,6.87
7.447489976882935,2,3,3,0,0.24,-2.88,0.05,5.04,-1.47,7.14
7.457489967346191,2,3,3,0,0.45,-2.37,0.23,6.35,-0.05,7.78
7.467489957809448,2,3,3,0,0.73,-1.56,0.52,4.22,0.85,7.96
7.477489948272705,2,3,3,0,0.62,0.51,0.44,-0.01,2.12,7.51
7.487489938735962,2,3,3,0,0.18,0.47,0.48,-0.01,2.12,7.51
7.497489929199219,2,3,3,0,-0.09,0.08,0.13,-4.19,3.08,6.54
7.507489919662476,2,3,3,0,-0.51,-0.6,-0.55,-11.57,4.55,4.66
7.517489910125732,2,3,3,0,-1.64,-0.93,-0.43,-12.03,3.84,3.85
7.527489900588989,2,3,3,0,-1.32,-0.95,-1.1,-9.52,2.89,3.12
7.537489891052246,2,3,3,0,-1.2,-0.85,-1.37,-9.52,2.89,3.12
7.547489881515503,2,3,3,0,-0.77,-1.17,-1.34,-7.62,2.18,2.19
7.557490110397339,2,3,3,0,0.54,-1.93,-1.56,-5.5,0.6899999999999999,0.01
7.567490100860596,2,3,3,0,1.21,-1.7,-1.35,-3.28,0.8100000000000001,-0.52
7.577490091323853,2,3,3,0,1.84,-1.63,-1.41,-0.51,0.5,-0.49
7.587490081787109,2,3,3,0,1.84,-1.63,-1.41,-0.51,0.5,-0.49
7.597490072250366,2,3,3,0,1.07,2.16,-1.12,2.55,0.11,0.07000000000000001
7.607490062713623,2,3,3,0,-4.6,27.85,1.05,12.35,-3.51,0.87
7.61749005317688,2,3,3,0,-9.84,4.69,13.66,-4.82,-6.28,-1.36
7.627490043640137,2,3,3,0,-8.31,-25.51,-1.62,-39.61,-3.91,-3.91
7.637490034103394,2,3,3,0,-8.31,-25.51,-1.62,-39.61,-3.91,-3.91
7.64749002456665,2,3,3,0,-22.06,-17.37,-6.63,-28.38,3.24,-10.74
7.657490015029907,2,3,3,0,-29.22,-0.07000000000000001,-9.699999999999999,16.21,3.16,0.14
7.667490005493164,2,3,3,0,-19.26,4.73,-6.99,6.58,9.74,13.19
7.677489995956421,2,3,3,0,-14.56,3.74,-3.03,8.140000000000001,8,12.96
7.687489986419678,2,3,3,0,-14.56,3.74,-3.03,8.140000000000001,8,12.96
7.697489976882935,2,3,3,0,-27.14,20.58,-9.27,20.74,5.06,12.74
7.707489967346191,2,3,3,0,-30.56,-3.17,13.41,-31.49,4.36,23.91
7.717489957809448,2,3,3,0,-9.779999999999999,-23.79,6.06,-53.54,7.65,18.42
7.727489948272705,2,3,3,0,-9.44,-39.23,-3.58,-60.24,8.31,12.81
7.737489938735962,2,3,3,0,-9.44,-39.23,-3.58,-60.24,8.31,12.81
7.747489929199219,2,3,3,0,-13.11,-39.2,-3.95,-19.92,6.92,4.61
7.757489919662476,2,3,3,0,-9.640000000000001,-15.11,-5.27,67.39,3.03,-3.01
7.767489910125732,2,3,3,0,-12.52,-0.85,-4.46,68.09999999999999,-1.3,-9.199999999999999
7.777489900588989,2,3,3,0,-23.14,23.04,2.76,51.33,-6.07,-13.22
7.787489891052246,2,3,3,0,-23.14,23.04,2.76,16.42,-8.779999999999999,-10.16
7.797489881515503,2,3,3,0,-25.56,23.09,4.32,-26.49,-6.77,-0.47
7.807490110397339,2,3,3,0,-23.19,-4.2,-3.81,-48.57,-2.66,4.97
7.817490100860596,2,3,3,0,-6.31,-9.66,-3.07,-45.52,-0.82,4.5
7.827490091323853,2,3,3,0,-5.23,-10.22,-3.47,-36.1,-0.34,1.54
7.837490081787109,2,3,3,0,-5.23,-10.22,-3.47,-36.1,-0.34,1.54
7.847490072250366,2,3,3,0,-7,-9.26,-3.15,-24.62,1.25,-2.64
7.857490062713623,2,3,3,0,-10.86,-2.52,-1.73,-6.32,2.52,-9.93
7.86749005317688,2,3,3,0,-9.970000000000001,-1.97,-2.2,-2.21,1.54,-12.5
7.877490043640137,2,3,3,0,-8.359999999999999,-1.61,-2.56,1.82,0.05,-13.52
7.887490034103394,2,3,3,0,-8.359999999999999,-1.61,-2.56,1.82,0.05,-13.52
7.89749002456665,2,3,3,0,-7.4,-1.17,-2.23,7.47,-0.86,-11.5
7.907490015029907,2,3,3,0,-7.44,2.82,-0.74,7.33,-0.72,-10.18
7.917490005493164,2,3,3,0,-7.35,3.7,-0.11,4.95,-0.26,-9.16
7.927489995956421,2,3,3,0,-7.06,4.4,0.42,2.69,0.17,-8.33
7.937489986419678,2,3,3,0,-7.06,4.4,0.42,0.46,0.34,-7.65
7.947489976882935,2,3,3,0,-6.79,5.19,1.4,-2.09,0.25,-7.16
7.957489967346191,2,3,3,0,-6.74,4.63,1.95,-4.93,0.26,-6.74
7.967489957809448,2,3,3,0,-7.35,3.61,3.11,-7.34,0.33,-6.27
7.977489948272705,2,3,3,0,-7.95,3.16,3.29,-8.69,0.46,-5.65
7.987489938735962,2,3,3,0,-7.95,3.16,3.29,-9.51,0.27,-4.79
7.997489929199219,2,3,3,0,-8.68,1.47,3.46,-8.82,0.2,-3.9
8.007489919662476,2,3,3,0,-9.52,0.41,2.85,-6.92,0.52,-3.06
8.017489910125732,2,3,3,0,-9.529999999999999,-0.31,2.65,-4.88,0.68,-2.27
8.027489900588989,2,3,3,0,-9.369999999999999,-0.65,2.09,-2.63,0.93,-1.66
8.037489891052246,2,3,3,0,-9.369999999999999,-0.65,2.09,0.08,1.28,-1.33
8.047489881515503,2,3,3,0,-9.44,-0.21,1.1,1.66,1.08,-0.93
8.057490110397339,2,3,3,0,-9.699999999999999,-0.08,-1.26,1.99,0.76,-0.58
8.067490100860596,2,3,3,0,-10.1,-0.04,-1.5,2.27,0.49,-0.6
8.078490018844604,2,3,3,0,-10.42,0.34,-1.46,3.18,0.33,-1.1
8.088490009307861,2,3,3,0,-10.42,0.34,-1.46,2.95,0.21,-1.82
8.098489999771118,2,3,3,0,-10.46,-0.31,-1.14,2.29,0.24,-2.48
8.108489990234375,2,3,3,0,-10.31,-2.04,-0.92,1.42,0.24,-3.01
8.118489980697632,2,3,3,0,-10.34,-3.47,-0.51,0.7,0.42,-3.33
8.128489971160889,2,3,3,0,-10.18,-4.23,-0.01,1.18,0.36,-3.74
8.138489961624146,2,3,3,0,-10.18,-4.23,-0.01,2.19,0.23,-4.06
8.148489952087402,2,3,3,0,-9.9,-4.09,0.33,2.71,0.24,-4.23
8.158489942550659,2,3,3,0,-9.539999999999999,-3.57,0.62,2.97,0.29,-4.41
8.168489933013916,2,3,3,0,-9.210000000000001,-2.09,0.49,2.95,0.29,-4.48
8.178489923477173,2,3,3,0,-9.08,-1.52,0.39,2.5,0.3,-4.4
8.18848991394043,2,3,3,0,-9.08,-1.52,0.39,1.58,0.27,-4.29
8.198489904403687,2,3,3,0,-9.19,-0.85,0.26,0.76,0.28,-4.19
8.208489894866943,2,3,3,0,-9.33,-0.41,-0.12,0.57,0.15,-4.16
8.2184898853302,2,3,3,0,-9.460000000000001,-0.08,-0.12,0.66,0.04,-4.21
8.228489875793457,2,3,3,0,-9.51,0.11,-0.07000000000000001,0.87,-0.22,-4.1
8.238490104675293,2,3,3,0,-9.51,0.11,-0.07000000000000001,1.13,-0.6,-3.98
8.24849009513855,2,3,3,0,-9.460000000000001,0.35,-0.03,1.25,-0.95,-3.83
8.258490085601807,2,3,3,0,-9.449999999999999,0.86,0,1.23,-1.04,-3.64
8.268490076065063,2,3,3,0,-9.529999999999999,0.98,0.08,1.11,-0.98,-3.26
8.27849006652832,2,3,3,0,-9.59,1.01,0.07000000000000001,0.84,-0.79,-2.81
8.288490056991577,2,3,3,0,-9.59,1.01,0.07000000000000001,0.8100000000000001,-0.61,-2.36
8.298490047454834,2,3,3,0,-9.92,0.64,-0.06,0.3,-0.44,-1.88
8.308490037918091,2,3,3,0,-9.9,0.58,-0.11,-0.13,-0.15,-1.35
8.318490028381348,2,3,3,0,-9.970000000000001,-0.25,0.18,-0.54,0.17,-0.86
8.328490018844604,2,3,3,0,-9.92,-0.61,0.21,-0.42,0.33,-0.51
8.338490009307861,2,3,3,0,-9.92,-0.61,0.21,-0.78,0.45,-0.25
8.348489999771118,2,3,3,0,-9.56,-1.8,0.44,0.17,0.41,-0.22
8.358489990234375,2,3,3,0,-9.460000000000001,-1.66,0.16,1.01,0.31,-0.2
8.368489980697632,2,3,3,0,-9.470000000000001,-1.58,0.11,1.11,0.21,-0.12
8.378489971160889,2,3,3,0,-9.449999999999999,-1.76,0.21,0.83,0.26,0.11
8.388489961624146,2,3,3,0,-9.449999999999999,-1.76,0.21,0.74,0.36,0.18
8.398489952087402,2,3,3,0,-9.449999999999999,-1.6,-0.18,0.46,0.33,0.06
8.408489942550659,2,3,3,0,-9.57,-1.91,-0.28,0.09,0.23,-0.05
8.418489933013916,2,3,3,0,-9.76,-2.09,-0.32,0.01,0.13,-0.21
8.428489923477173,2,3,3,0,-9.82,-2.06,-0.29,0.09,-0.09,-0.38
8.43848991394043,2,3,3,0,-9.82,-2.06,-0.29,0.12,-0.21,-0.48
8.448489904403687,2,3,3,0,-9.73,-1.91,-0.21,0.16,-0.27,-0.61
8.458489894866943,2,3,3,0,-9.69,-1.83,-0.26,0.02,-0.25,-0.68
8.4684898853302,2,3,3,0,-9.630000000000001,-1.93,-0.06,-0.1,-0.18,-0.64
8.478489875793457,2,3,3,0,-9.48,-1.66,0.13,-0.21,-0.13,-0.5600000000000001
8.488490104675293,2,3,3,0,-9.48,-1.66,0.13,-0.61,-0.04,-0.45
8.49849009513855,2,3,3,0,-9.52,-1.81,0.26,-0.62,0.02,-0.43
8.508490085601807,2,3,3,0,-9.56,-1.89,0.14,-0.68,0.13,-0.36
8.558490037918091,2,3,3,0,-9.59,-2.36,-0.24,1.15,-0.01,-0.5
8.568490028381348,2,3,3,0,-9.6,-2.13,-0.25,1.61,-0.03,-0.5600000000000001
8.618489980697632,2,3,3,0,-9.48,-1.75,0.17,1.2,0.28,-0.24
8.628489971160889,2,3,3,0,-9.57,-1.76,0.19,1.15,0.25,-0.19
8.638489961624146,2,3,3,0,-9.57,-1.94,0.23,1.13,0.15,-0.11
8.648489952087402,2,3,3,0,-9.6,-1.91,0.19,1.24,0.09,-0.15
8.658489942550659,2,3,3,0,-9.58,-1.72,0.13,1.48,0.11,-0.11
8.668489933013916,2,3,3,0,-9.52,-1.34,0.21,1.65,0.16,0.02
8.678489923477173,2,3,3,0,-9.550000000000001,-0.8,-0.04,1.64,0.24,0.2
8.68848991394043,2,3,3,0,-9.67,-0.85,0.03,0.15,0.51,0.62
8.698489904403687,2,3,3,0,-9.67,-1.23,0.44,-0.6899999999999999,0.71,1
8.708489894866943,2,3,3,0,-9.58,-1.04,0.01,-0.54,0.9,1.21
8.7184898853302,2,3,3,0,-9.619999999999999,-1.3,0.16,-0.9399999999999999,1.15,1.5
8.728489875793457,2,3,3,0,-9.359999999999999,-1.23,0.36,-0.47,0.93,1.81
8.738490104675293,2,3,3,0,-9.06,-0.58,0.37,0.71,0.86,2.08
8.74849009513855,2,3,3,0,-8.859999999999999,1.84,0.45,1.55,0.9,2.6
8.758490085601807,2,3,3,0,-8.67,2.93,0.75,1.75,1.04,3.55
8.768490076065063,2,3,3,0,-8.68,4.06,0.76,1.17,1.29,4.81
8.77849006652832,2,3,3,0,-8.98,4.39,0.95,-0.96,1.28,6.2
8.788490056991577,2,3,3,0,-8.960000000000001,4.81,1.16,-2.14,0.7,7.34
8.798490047454834,2,3,3,0,-8.880000000000001,5.17,1.21,-2.49,0.22,8.43
8.808490037918091,2,3,3,0,-8.59,5.58,1.22,-2.22,-0.25,9.52
8.818490028381348,2,3,3,0,-8.34,6.59,1.27,-2.19,-0.61,10.92
8.828490018844604,2,3,3,0,-7.98,4.51,0.3,-5.46,-0.99,12.65
8.838490009307861,2,3,3,0,-7.64,0.44,0.5600000000000001,-9.57,-1.25,13.47
8.848489999771118,2,3,3,0,-7.37,-2.48,0.67,-10.5,-0.91,12.74
8.858489990234375,2,3,3,0,-7.52,-3.92,-0.36,-8.699999999999999,0.04,11.35
8.868489980697632,2,3,3,0,-8.25,-3.33,-0.86,-4.23,0.17,9.77
8.878489971160889,2,3,3,0,-8.130000000000001,-1.09,-0.52,2.51,-0.54,8.869999999999999
8.888489961624146,2,3,3,0,-7.99,1.75,0.46,9.16,-0.6,8.92
8.898489952087402,2,3,3,0,-8.050000000000001,4.04,0.8100000000000001,10.79,-0.5,10.31
8.908489942550659,2,3,3,0,-8.06,3.4,0.04,7.73,-0.16,12.12
8.918489933013916,2,3,3,0,-8.23,2.81,0.06,4.42,0.83,13.66
8.928489923477173,2,3,3,0,-8.58,1.35,0.03,2.79,1.87,14.24
8.93848991394043,2,3,3,0,-9.029999999999999,-0.24,-0.35,3.7,2.41,14.15
8.948489904403687,2,3,3,0,-10.09,-2.37,-1.86,5.64,2.41,14.32
8.958489894866943,2,3,3,0,-10.17,-4.44,-1.4,5.48,2.17,14.14
8.9684898853302,2,3,3,0,-10.24,-5.96,-1.47,5.92,2.3,13.35
8.978489875793457,2,3,3,0,-10.46,-6.41,-1.21,8.23,2.21,12.27
8.988490104675293,2,3,3,0,-10.3,-6.62,-1.65,10.01,2.46,11.43
8.99849009513855,2,3,3,0,-10.18,-5.49,-1.71,11.04,3.22,11
9.008490085601807,2,3,3,0,-9.25,-5.34,-1.61,9.9,3.81,10.93
9.018490076065063,2,3,3,0,-8.73,-1.83,-3.05,10.56,4.19,10.55
9.02849006652832,2,3,3,0,-9.51,0.47,-2.56,10.3,4.42,9.800000000000001
9.038490056991577,2,3,3,0,-11.37,2.65,-2.38,8.09,4.63,8.789999999999999
9.048490047454834,2,3,3,0,-12.98,4.16,-2.59,4.08,3.91,7.57
9.058490037918091,2,3,3,0,-14.78,4.25,-2,-0.87,3.23,6.58
9.068490028381348,2,3,3,0,-15.38,2.5,-1.13,-5.74,2.55,5.76
9.078490018844604,2,3,3,0,-15.72,-0.11,-0.53,-9.890000000000001,1.76,4.94
9.088490009307861,2,3,3,0,-15.41,-2.27,-0.23,-11.69,1.32,3.78
9.09948992729187,2,3,3,0,-14.78,-4.6,-0.96,-11.01,1.55,2.47
9.109489917755127,2,3,3,0,-15.01,-5.12,-0.76,-8.140000000000001,1.2,1
9.119489908218384,2,3,3,0,-15.82,-4.69,-0.57,-4.27,0.39,-0.82
9.129489898681641,2,3,3,0,-16.65,-4.27,-0.09,-1.46,-0.63,-2.63
9.139489889144897,2,3,3,0,-17.87,-5.26,0.88,-0.06,-1.9,-4.26
9.149489879608154,2,3,3,0,-18.49,-5.33,1.16,1.08,-3.03,-5.92
9.15949010848999,2,3,3,0,-19.06,-5.35,1.77,1.64,-4.13,-7.22
9.169490098953247,2,3,3,0,-19.34,-5.31,2.41,1.14,-5.45,-8.07
9.179490089416504,2,3,3,0,-19.9,-5.32,3.44,-0.41,-6.66,-8.779999999999999
9.189490079879761,2,3,3,0,-20.21,-5.41,3.92,-2.27,-7.81,-9.9
9.199490070343018,2,3,3,0,-20.52,-6.11,4.44,-4.29,-9,-11.36
9.209490060806274,2,3,3,0,-20.77,-7.63,4.18,-5.77,-9.9,-13
9.219490051269531,2,3,3,0,-21.05,-12.14,2.88,-6.59,-11.11,-15.22
9.229490041732788,2,3,3,0,-21.55,-14.55,1.59,-5.28,-11.03,-17.52
9.239490032196045,2,3,3,0,-22.18,-16.27,-0.64,-2.71,-11.04,-20.16
9.249490022659302,2,3,3,0,-23.18,-16.33,-3.77,1.03,-10.72,-22.61
9.259490013122559,2,3,3,0,-26.02,-12.13,-8.99,6.08,-9.82,-24.4
9.269490003585815,2,3,3,0,-27.91,-6.75,-10.9,8.98,-8.52,-25.63
9.279489994049072,2,3,3,0,-28.74,-0.82,-13.25,8.07,-6.83,-25.23
9.289489984512329,2,3,3,0,-26.84,3.41,-11.57,9.029999999999999,-4.38,-24.82
9.299489974975586,2,3,3,0,-18.56,6.12,-3.83,9.32,-1.9,-26.42
9.309489965438843,2,3,3,0,-13.66,1.7,-1.15,10.68,-0.07000000000000001,-28.21
9.3194899559021,2,3,3,0,-8.25,3.83,2.33,25.18,-0.76,-28.39
9.329489946365356,2,3,3,0,-3.22,20.7,4.5,36.85,-4.45,-25.17
9.339489936828613,2,3,3,0,-3.36,39.21,19.81,18.81,-6.53,-10.04
9.34948992729187,2,3,3,0,1.92,38.92,11.08,-6.61,-2.58,0.55
9.359489917755127,2,3,3,0,4.73,26.53,0.93,-9.26,8.08,7.35
9.369489908218384,2,3,3,0,-6.13,-5.94,-0.76,-6.26,9.220000000000001,11.79
9.379489898681641,2,3,3,0,-9.210000000000001,-3.67,-0.45,4.41,7.92,9.17
9.389489889144897,2,3,3,0,-6.71,-1.51,3.55,10.54,4.38,8.08
9.399489879608154,2,3,3,0,-1.74,2.65,2.16,11.47,1.24,9.869999999999999
9.40949010848999,2,3,3,0,0.99,2.92,-4.62,4.25,0.44,11.6
9.419490098953247,2,3,3,0,0.76,-1.13,-5.66,-8.92,-0.54,12.21
9.429490089416504,2,3,3,0,0.9,-7.79,-3.31,-16.92,-1.2,10.08
9.439490079879761,2,3,3,0,1.51,-9.92,-2.02,-11.5,0.34,6.22
9.449490070343018,2,3,3,0,-0.13,-9.4,-0.61,-7.48,2.01,3.09
9.459490060806274,2,3,3,0,-0.57,-7.03,-0.32,-0.35,0.8100000000000001,0.89
9.469490051269531,2,3,3,0,0.02,-3.89,-1.21,4.37,-2.66,0.32
9.479490041732788,2,3,3,0,0.8100000000000001,-1.61,-1.57,2.98,-5.12,1.47
9.489490032196045,2,3,3,0,1.41,-0.55,-1.19,-0.75,-6.44,3.02
9.499490022659302,2,3,3,0,1.1,-0.49,-0.89,-3.03,-6.29,4.12
9.509490013122559,2,3,3,0,0.73,-0.74,-0.44,-3.61,-4.64,4.93
9.519490003585815,2,3,3,0,0.65,-1.07,0.12,-3.54,-1.94,5.02
9.529489994049072,2,3,3,0,-0.02,-1.22,0.5600000000000001,-2.89,0.45,4.9
9.539489984512329,2,3,3,0,-0.49,-0.59,0.64,-2.81,2.02,5.29
9.549489974975586,2,3,3,0,-0.88,0.39,0.7,-4.02,2.81,6.01
9.559489965438843,2,3,3,0,-1.2,1.39,0.5,-6.96,3.14,6.27
9.5694899559021,2,3,3,0,-1.67,1.86,0.08,-10.65,3.34,5.88
9.579489946365356,2,3,3,0,-1.24,1.27,-0.13,-13.36,3.43,5.19
9.589489936828613,2,3,3,0,-1.02,0.27,-0.13,-15,3.7,4.39
9.59948992729187,2,3,3,0,-0.68,-1.09,-0.41,-14.86,3.67,3.59
9.609489917755127,2,3,3,0,0.44,-2.52,-2.37,-12.43,3.25,2.91
9.619489908218384,2,3,3,0,0.64,-3.04,-2.73,-9.24,2.68,2.12
9.629489898681641,2,3,3,0,0.9399999999999999,-3.39,-2.39,-5.04,1.74,1.35
9.639489889144897,2,3,3,0,1.19,-2.94,-1.93,-1.31,1.08,0.93
9.649489879608154,2,3,3,0,1.62,-1.88,-1.09,0.9399999999999999,0.67,1.23
9.65949010848999,2,3,3,0,0.95,-1.57,-0.47,2.35,0.29,1.89
9.669490098953247,2,3,3,0,0.27,-0.97,-0.23,5.08,-0.11,2.02
9.679490089416504,2,3,3,0,-0.46,-0.33,0,8.1,-0.34,1.42
9.689490079879761,2,3,3,0,-2.67,9.119999999999999,-0.11,13.24,-1.47,0.3
9.699490070343018,2,3,3,0,-5.41,24.04,4.05,20.17,-5.18,-0.57
9.709490060806274,2,3,3,0,-8.609999999999999,29.17,11.05,7.38,-5.61,-3.3
9.719490051269531,2,3,3,0,-14.92,-21.82,-1.16,-26.11,0.22,-5.1
9.729490041732788,2,3,3,0,-27.71,-15.62,-6.96,-23.65,2.17,-10.01
9.739490032196045,2,3,3,0,-37.28,14.3,2.55,22.42,-1.54,-7.45
9.749490022659302,2,3,3,0,-38.34,14.93,4.16,11.15,4.49,8.890000000000001
9.759490013122559,2,3,3,0,-14.95,3.92,-5.8,-0.91,8.23,16.55
9.769490003585815,2,3,3,0,-17.57,-0.97,-5.3,-3.64,9.140000000000001,14.43
9.779489994049072,2,3,3,0,-25.76,3.18,-6.06,-4.03,9.640000000000001,13.63
9.789489984512329,2,3,3,0,-36.87,11.12,-3.04,-1.48,5.9,12.38
9.799489974975586,2,3,3,0,-34.75,-0.23,15.2,-11.19,3.18,12.88
9.809489965438843,2,3,3,0,-20.8,-16.31,11.5,-25.45,3.59,10.43
9.8194899559021,2,3,3,0,-16.48,-31.84,3.01,-30.66,6.25,5.89
9.829489946365356,2,3,3,0,-13.18,-39.23,-2.74,-9.880000000000001,4.04,1.62
9.839489936828613,2,3,3,0,-16.91,-20.15,-2.93,27.97,1.72,-2.86
9.84948992729187,2,3,3,0,-18.51,-13.19,-1.41,44.23,-0.05,-4.81
9.859489917755127,2,3,3,0,-17.49,-5.92,0,41.58,-1.36,-5.5
9.869489908218384,2,3,3,0,-17.82,-0.32,1.17,26,-1.79,-4.42
9.879489898681641,2,3,3,0,-17.9,1.61,0.78,8.33,-1.93,-2.16
9.889489889144897,2,3,3,0,-17.05,-0.82,-0.4,-5.56,-2.14,-1.02
9.899489879608154,2,3,3,0,-15.36,-3.11,-1.4,-5.56,-2.14,-1.02
9.90949010848999,2,3,3,0,-13.01,-3.84,-1.77,-16.59,-2.35,-2.63
9.919490098953247,2,3,3,0,-11.06,-3.65,-1.68,-16.43,-1.99,-4.51
9.929490089416504,2,3,3,0,-10.87,-3.61,-1.44,-15.09,-1.91,-6.02
9.939490079879761,2,3,3,0,-10.76,-3.36,-1.15,-12.58,-1.86,-7.25
9.949490070343018,2,3,3,0,-10.22,-3.21,-1.18,-12.58,-1.86,-7.25
9.959490060806274,2,3,3,0,-8.69,-2.86,-1.66,-9.119999999999999,-1.65,-8.52
9.969490051269531,2,3,3,0,-8.42,-2.52,-1.84,-5.13,-1.15,-9.33
9.979490041732788,2,3,3,0,-7.86,-1.81,-1.85,-0.65,-0.76,-9.77
9.989490032196045,2,3,3,0,-6.99,-1.05,-1.85,5.78,-0.99,-9.77
9.999490022659302,2,3,3,0,-6.21,-0.08,-1.75,5.78,-0.99,-9.77
10.00949001312256,2,3,3,0,-6.05,0.5,-1.61,6.21,-0.67,-9.74
10.01949000358582,2,3,3,0,-5.92,0.55,-1.12,5.15,-0.23,-9.890000000000001
10.02948999404907,2,3,3,0,-5.58,0.71,-0.67,3.66,0.05,-10.36
10.03948998451233,2,3,3,0,-5.58,1.61,-0.19,1.97,0.1,-11.08
10.04948997497559,2,3,3,0,-5.49,1.62,0.5600000000000001,1.97,0.1,-11.08
10.05948996543884,2,3,3,0,-5.27,1.62,0.9399999999999999,0.3,-0.12,-10.87
10.0694899559021,2,3,3,0,-5.32,1.63,1.18,-1.44,-0.12,-10.47
10.07948994636536,2,3,3,0,-6.06,0.05,1.99,-4.02,-0.04,-9.74
10.08948993682861,2,3,3,0,-6.42,-0.4,2.02,-5.48,-0.11,-9.08
10.09948992729187,2,3,3,0,-6.72,-0.77,2.17,-5.07,-0.5,-8.51
10.10948991775513,2,3,3,0,-7.88,0.14,2.61,-3.98,-1.35,-8.300000000000001
10.12049007415771,2,3,3,0,-9.369999999999999,1.92,3.34,-1.9,-2.28,-8.359999999999999
10.13049006462097,2,3,3,0,-11.62,3.44,4.4,-0.42,-3.24,-8.16
10.14049005508423,2,3,3,0,-14.2,4.34,5.39,-1.35,-4.31,-7.35
10.15049004554749,2,3,3,0,-14.5,4.17,3.73,-3.17,-4.83,-6.05
10.16049003601074,2,3,3,0,-12.69,3.44,2.09,-6.26,-4.26,-4.35
10.170490026474,2,3,3,0,-11.25,3.95,0.4,-9.279999999999999,-3.03,-2.87
10.18049001693726,2,3,3,0,-10.17,4.8,-1.23,-10.31,-1.91,-1.77
10.19049000740051,2,3,3,0,-9.109999999999999,3.42,-2.1,-10.88,-0.97,-0.71
10.20048999786377,2,3,3,0,-9.380000000000001,1.53,-1.83,-11.94,-0.01,0.19
10.21048998832703,2,3,3,0,-9.68,-0.44,-1.44,-12.11,0.87,0.88
10.22048997879028,2,3,3,0,-10.06,-2.42,-0.65,-10.7,1.37,1.37
10.23048996925354,2,3,3,0,-9.9,-4.62,0.77,-7.54,1.13,1.57
10.2404899597168,2,3,3,0,-9.619999999999999,-5.32,1.31,-3.85,0.88,1.7
10.25048995018005,2,3,3,0,-9.27,-5.62,1.37,-0.44,0.67,1.75
10.26048994064331,2,3,3,0,-8.99,-5.89,1.21,2.61,0.14,1.62
10.27048993110657,2,3,3,0,-8.68,-5.59,0.55,4.71,-0.39,1.58
10.28048992156982,2,3,3,0,-8.77,-5.13,0.2,6.06,-0.71,1.41
10.29048991203308,2,3,3,0,-8.779999999999999,-4.41,0.02,6.68,-0.93,1.08
10.30048990249634,2,3,3,0,-8.859999999999999,-3.27,-0.14,7.05,-1,0.52
10.31048989295959,2,3,3,0,-9.130000000000001,-1.11,0.13,6.44,-0.85,-0.03
10.32048988342285,2,3,3,0,-9.289999999999999,-0.23,0.51,5.49,-0.68,-0.43
10.33049011230469,2,3,3,0,-9.4,0.29,0.97,3.64,-0.49,-0.52
10.34049010276794,2,3,3,0,-9.5,0.8100000000000001,1.1,1.6,-0.32,-0.36
10.3504900932312,2,3,3,0,-9.779999999999999,0.9399999999999999,1.34,-0.77,-0.27,-0.03
10.36049008369446,2,3,3,0,-9.93,0.78,1.12,-2.92,-0.26,0.41
10.37049007415771,2,3,3,0,-10.06,0.48,0.9,-5.11,-0.2,0.88
10.38049006462097,2,3,3,0,-9.949999999999999,0.13,0.65,-6.91,-0.03,1.31
10.39049005508423,2,3,3,0,-9.869999999999999,-1.04,0.14,-7.68,0.14,1.59
10.40049004554749,2,3,3,0,-9.93,-2,-0.06,-7.81,0.23,1.72
10.41049003601074,2,3,3,0,-9.93,-3.03,-0.31,-7.23,0.34,1.73
10.420490026474,2,3,3,0,-10.01,-3.6,-0.38,-5.67,0.54,1.62
10.43049001693726,2,3,3,0,-9.800000000000001,-3.67,-0.14,-3.22,0.58,1.46
10.44049000740051,2,3,3,0,-9.66,-3.61,-0.05,-0.8100000000000001,0.48,1.28
10.45048999786377,2,3,3,0,-9.460000000000001,-3.48,0.05,1.21,0.41,1.09
10.46048998832703,2,3,3,0,-9.31,-2.9,0.26,2.99,0.23,0.92
10.47048997879028,2,3,3,0,-9.42,-2.67,0.46,4.36,0.1,0.79
10.48048996925354,2,3,3,0,-9.460000000000001,-2.49,0.64,5.16,-0.01,0.75
10.4904899597168,2,3,3,0,-9.460000000000001,-2.17,0.6899999999999999,5.6,-0.1,0.77
10.50048995018005,2,3,3,0,-9.48,-1.25,0.52,5.64,-0.16,0.8100000000000001
10.51048994064331,2,3,3,0,-9.48,-0.92,0.39,5.17,-0.19,0.82
10.52048993110657,2,3,3,0,-9.52,-0.6,0.43,4.08,-0.16,0.86
10.53048992156982,2,3,3,0,-9.550000000000001,-0.6899999999999999,0.39,2.62,-0.05,0.79
10.54048991203308,2,3,3,0,-9.69,-1.22,0.31,0.65,0.14,0.76
10.55048990249634,2,3,3,0,-9.69,-1.39,0.28,-1.03,0.25,0.73
10.56048989295959,2,3,3,0,-9.67,-1.55,0.25,-2.1,0.29,0.64
10.57048988342285,2,3,3,0,-9.67,-1.79,0.25,-2.75,0.28,0.59
10.58049011230469,2,3,3,0,-9.6,-2.04,0.41,-2.9,0.22,0.48
10.59049010276794,2,3,3,0,-9.640000000000001,-2.22,0.39,-2.59,0.25,0.35
10.6004900932312,2,3,3,0,-9.69,-2.47,0.4,-2.08,0.22,0.32
10.61049008369446,2,3,3,0,-9.710000000000001,-2.53,0.19,-1.47,0.27,0.34
10.62049007415771,2,3,3,0,-9.66,-2.26,0.19,-0.6,0.21,0.33
10.63049006462097,2,3,3,0,-9.630000000000001,-1.99,0.21,0.33,0.17,0.26
10.66049003601074,2,3,3,0,-9.550000000000001,-2.11,0.19,1.89,0.09,0.12
10.670490026474,2,3,3,0,-9.609999999999999,-1.97,0.18,2.26,0.11,0.08
10.68049001693726,2,3,3,0,-9.630000000000001,-1.84,0.28,2.48,0.05,0.03
10.69049000740051,2,3,3,0,-9.6,-2.11,0.32,2.2,0.03,0.05
10.70048999786377,2,3,3,0,-9.67,-2.08,0.31,1.73,0.17,0.02
10.71048998832703,2,3,3,0,-9.640000000000001,-1.86,0.3,1.61,0.12,-0.05
10.72048997879028,2,3,3,0,-9.59,-1.7,0.41,1.66,0.01,-0.14
10.73048996925354,2,3,3,0,-9.550000000000001,-1.48,0.33,1.47,-0.01,-0.19
10.7404899597168,2,3,3,0,-9.550000000000001,-1.39,0.37,1.18,0,-0.25
10.75048995018005,2,3,3,0,-9.51,-1.69,0.4,0.61,0.1,-0.22
10.76048994064331,2,3,3,0,-9.57,-2.04,0.38,0.16,0.4,-0.14
10.77048993110657,2,3,3,0,-9.75,-2.22,0.37,0.41,0.51,-0.1
10.78048992156982,2,3,3,0,-9.699999999999999,-2.03,0.19,0.93,0.43,-0.08
10.79048991203308,2,3,3,0,-9.619999999999999,-1.69,0.13,1.56,0.34,-0.14
10.80048990249634,2,3,3,0,-9.550000000000001,-1.27,0.11,2.14,0.21,-0.24
10.81048989295959,2,3,3,0,-9.58,-1.06,0.11,2.42,0.08,-0.34
10.82048988342285,2,3,3,0,-9.74,-1.34,0.24,2.09,-0.03,-0.25
10.83049011230469,2,3,3,0,-9.800000000000001,-1.46,0.35,1.51,-0.02,-0.18
10.84049010276794,2,3,3,0,-9.75,-1.43,0.42,1.2,-0.03,-0.16
10.8504900932312,2,3,3,0,-9.619999999999999,-1.63,0.28,0.92,0.01,-0.11
10.86049008369446,2,3,3,0,-9.59,-1.75,0.27,0.68,0.04,-0.08
10.87049007415771,2,3,3,0,-9.539999999999999,-1.87,0.41,0.5600000000000001,0.03,-0.14
10.88049006462097,2,3,3,0,-9.51,-1.92,0.43,0.27,0,-0.18
10.89049005508423,2,3,3,0,-9.6,-1.88,0.48,-0.09,-0.05,-0.22
10.90049004554749,2,3,3,0,-9.59,-1.91,0.39,-0.51,-0.08,-0.22
10.91049003601074,2,3,3,0,-9.56,-1.98,0.24,-1.01,-0.08,-0.22
10.920490026474,2,3,3,0,-9.52,-2.03,0.22,-1.44,-0.09,-0.25
10.93049001693726,2,3,3,0,-9.6,-2.16,0.33,-1.54,-0.05,-0.34
10.94049000740051,2,3,3,0,-9.65,-2.26,0.33,-1.48,-0.09,-0.39
10.95048999786377,2,3,3,0,-9.67,-2.27,0.33,-1.42,0.07000000000000001,-0.44
10.96048998832703,2,3,3,0,-9.630000000000001,-2.1,0.15,-0.99,0.11,-0.41
10.97048997879028,2,3,3,0,-9.539999999999999,-2.1,0.2,-0.63,0.08,-0.38
10.98048996925354,2,3,3,0,-9.57,-2.02,0.24,-0.3,0.11,-0.39
10.9904899597168,2,3,3,0,-9.619999999999999,-1.91,0.25,0.12,0.07000000000000001,-0.42
11.00048995018005,2,3,3,0,-9.59,-1.85,0.29,0.35,-0.03,-0.39
11.01048994064331,2,3,3,0,-9.6,-1.9,0.23,0.36,0,-0.35
11.11049008369446,2,3,3,0,-9.640000000000001,-1.73,0.17,-0.25,-0.04,-0.48
11.12049007415771,2,3,3,0,-9.6,-1.75,0.17,-0.45,-0.09,-0.52
11.13049006462097,2,3,3,0,-9.609999999999999,-1.87,0.31,-0.73,-0.06,-0.49
11.14049005508423,2,3,3,0,-9.640000000000001,-1.71,0.3,-0.64,-0.05,-0.52
11.15148997306824,2,3,3,0,-9.67,-1.85,0.34,-0.71,-0.09,-0.55
11.16148996353149,2,3,3,0,-9.619999999999999,-2.12,0.31,-0.86,-0.05,-0.48
11.17148995399475,2,3,3,0,-9.58,-2.15,0.29,-0.76,0.01,-0.46
11.18148994445801,2,3,3,0,-9.56,-2.21,0.33,-0.6,0.06,-0.48
11.19148993492126,2,3,3,0,-9.609999999999999,-2.26,0.32,-0.37,0.05,-0.49
11.20148992538452,2,3,3,0,-9.57,-2.13,0.23,-0.22,0.03,-0.5
11.21148991584778,2,3,3,0,-9.550000000000001,-2.05,0.15,0.02,-0.05,-0.54
11.22148990631104,2,3,3,0,-9.550000000000001,-2.12,0.22,0.12,-0.07000000000000001,-0.5600000000000001
11.23148989677429,2,3,3,0,-9.56,-2.04,0.27,0.16,-0.01,-0.49
11.24148988723755,2,3,3,0,-9.539999999999999,-1.95,0.33,0.23,0.02,-0.49
11.25148987770081,2,3,3,0,-9.550000000000001,-2.05,0.3,0.25,0.05,-0.45
11.26149010658264,2,3,3,0,-9.58,-2.06,0.18,0.21,0.06,-0.42
11.2714900970459,2,3,3,0,-9.56,-2,0.2,0.27,0.03,-0.41
11.28149008750916,2,3,3,0,-9.56,-2.03,0.23,0.3,0.04,-0.42
11.29149007797241,2,3,3,0,-9.58,-2.05,0.26,0.2,0,-0.35
11.30149006843567,2,3,3,0,-9.619999999999999,-2.03,0.27,0.15,0,-0.39
11.31149005889893,2,3,3,0,-9.609999999999999,-2.12,0.22,-0.02,0.01,-0.38
11.32149004936218,2,3,3,0,-9.58,-2.25,0.26,-0.07000000000000001,0.05,-0.35
11.33149003982544,2,3,3,0,-9.56,-2.19,0.29,-0.05,0.05,-0.4
11.3414900302887,2,3,3,0,-9.52,-2.24,0.33,-0.02,0.03,-0.4
11.35149002075195,2,3,3,0,-9.52,-2.27,0.35,-0.1,0.07000000000000001,-0.39
11.36149001121521,2,3,3,0,-9.49,-2.25,0.2,-0.15,0.06,-0.4
11.37149000167847,2,3,3,0,-9.5,-2.33,0.26,-0.27,0.11,-0.37
11.38148999214172,2,3,3,0,-9.56,-2.38,0.22,-0.12,0.16,-0.36
11.39148998260498,2,3,3,0,-9.550000000000001,-2.34,0.19,0.04,0.08,-0.36
11.40148997306824,2,3,3,0,-9.550000000000001,-2.19,0.21,0.2,0.03,-0.36
11.41148996353149,2,3,3,0,-9.539999999999999,-2.09,0.13,0.27,-0.01,-0.36
11.42148995399475,2,3,3,0,-9.56,-2.05,0.14,0.28,0.02,-0.37
11.43148994445801,2,3,3,0,-9.57,-2.11,0.26,0.09,0.03,-0.34
11.44148993492126,2,3,3,0,-9.57,-2.06,0.33,0.01,0.06,-0.35
11.45148992538452,2,3,3,0,-9.56,-2.13,0.28,-0.01,0.07000000000000001,-0.31
11.46148991584778,2,3,3,0,-9.550000000000001,-2.08,0.15,-0.11,0.05,-0.33
11.47148990631104,2,3,3,0,-9.529999999999999,-2.14,0.22,-0.24,0.05,-0.28
11.48148989677429,2,3,3,0,-9.529999999999999,-2.17,0.21,-0.25,0.12,-0.28
11.49148988723755,2,3,3,0,-9.529999999999999,-2.19,0.27,-0.26,0.1,-0.28
11.50148987770081,2,3,3,0,-9.529999999999999,-2.22,0.29,-0.3,0.06,-0.22
11.51149010658264,2,3,3,0,-9.550000000000001,-2.29,0.17,-0.33,0.05,-0.23
11.5214900970459,2,3,3,0,-9.51,-2.2,0.23,-0.29,0.07000000000000001,-0.23
11.53149008750916,2,3,3,0,-9.550000000000001,-2.27,0.23,-0.26,0.06,-0.27
11.54149007797241,2,3,3,0,-9.539999999999999,-2.34,0.28,-0.25,0.06,-0.22
11.55149006843567,2,3,3,0,-9.49,-2.1,0.18,-0.12,0.07000000000000001,-0.2
11.56149005889893,2,3,3,0,-9.5,-2.13,0.09,-0.06,0.05,-0.2
11.57149004936218,2,3,3,0,-9.550000000000001,-2.23,0.18,-0.2,0.04,-0.17
11.58149003982544,2,3,3,0,-9.609999999999999,-2.32,0.18,-0.26,0.09,-0.17
11.5914900302887,2,3,3,0,-9.539999999999999,-2.26,0.24,-0.19,0.09,-0.15
11.60149002075195,2,3,3,0,-9.52,-2.25,0.2,-0.02,0.09,-0.18
11.61149001121521,2,3,3,0,-9.539999999999999,-2.15,0.07000000000000001,0.07000000000000001,0.05,-0.2
11.62149000167847,2,3,3,0,-9.539999999999999,-2.32,0.18,-0.06,0.06,-0.19
11.63148999214172,2,3,3,0,-9.57,-2.27,0.25,-0.1,0.16,-0.19
11.64148998260498,2,3,3,0,-9.539999999999999,-2.28,0.29,-0.04,0.16,-0.15
11.65148997306824,2,3,3,0,-9.49,-2.29,0.27,0.03,0.11,-0.19
11.66148996353149,2,3,3,0,-9.49,-2.26,0.19,0.14,0.07000000000000001,-0.2
11.67148995399475,2,3,3,0,-9.49,-2.22,0.18,0.17,0.03,-0.22
11.68148994445801,2,3,3,0,-9.52,-2.34,0.26,-0.2,0.09,-0.16
11.69148993492126,2,3,3,0,-9.59,-2.26,0.19,-0.16,0.19,-0.1
11.70148992538452,2,3,3,0,-9.59,-2.3,0.21,-0.09,0.2,-0.1
11.71148991584778,2,3,3,0,-9.5,-2.25,0.08,0.06,0.09,-0.14
11.72148990631104,2,3,3,0,-9.5,-2.23,0.16,0.18,0.07000000000000001,-0.2
11.73148989677429,2,3,3,0,-9.5,-2.19,0.2,0.13,0.09,-0.2
11.74148988723755,2,3,3,0,-9.51,-2.15,0.22,0.06,0.08,-0.13
11.75148987770081,2,3,3,0,-9.57,-2.26,0.18,0.04,0.13,-0.09
11.76149010658264,2,3,3,0,-9.57,-2.27,0.1,0.04,0.11,-0.1
11.7714900970459,2,3,3,0,-9.550000000000001,-2.25,0.1,0.06,0.12,-0.11
11.78149008750916,2,3,3,0,-9.51,-2.25,0.17,0.15,0.09,-0.06
11.79149007797241,2,3,3,0,-9.5,-2.15,0.22,0.19,0.08,-0.07000000000000001
11.80149006843567,2,3,3,0,-9.550000000000001,-2.15,0.21,0.14,0.04,-0.11
11.81149005889893,2,3,3,0,-9.56,-2.27,0.14,0.01,0.01,-0.11
11.82149004936218,2,3,3,0,-9.59,-2.31,0.15,-0.04,0.06,-0.15
11.83149003982544,2,3,3,0,-9.56,-2.29,0.19,-0.01,0.06,-0.13
11.8414900302887,2,3,3,0,-9.52,-2.27,0.22,0.04,0.03,-0.16
11.85149002075195,2,3,3,0,-9.51,-2.21,0.2,0.08,-0.01,-0.17
11.86149001121521,2,3,3,0,-9.49,-2.16,0.09,0.1,-0.04,-0.18
11.87149000167847,2,3,3,0,-9.539999999999999,-2.23,0.15,0.02,-0.05,-0.15
11.88148999214172,2,3,3,0,-9.51,-2.24,0.16,0.04,0.02,-0.16
11.89148998260498,2,3,3,0,-9.539999999999999,-2.28,0.2,0.08,-0.01,-0.14
11.90148997306824,2,3,3,0,-9.539999999999999,-2.36,0.16,0.16,0,-0.18
11.91148996353149,2,3,3,0,-9.529999999999999,-2.37,0.11,0.17,-0.06,-0.18
11.92148995399475,2,3,3,0,-9.52,-2.3,0.11,0.21,-0.04,-0.23
11.93148994445801,2,3,3,0,-9.52,-2.32,0.19,0.12,-0.05,-0.21
11.94148993492126,2,3,3,0,-9.52,-2.27,0.23,0.15,-0.09,-0.27
11.95148992538452,2,3,3,0,-9.48,-2.18,0.16,0.06,-0.1,-0.27
11.96148991584778,2,3,3,0,-9.51,-2.17,0.09,-0.01,-0.12,-0.26
11.97148990631104,2,3,3,0,-9.52,-2.18,0.14,-0.19,-0.09,-0.21
11.98148989677429,2,3,3,0,-9.529999999999999,-2.24,0.22,-0.16,-0.04,-0.2
11.99148988723755,2,3,3,0,-9.529999999999999,-2.29,0.23,-0.25,-0.02,-0.14
12.00148987770081,2,3,3,0,-9.52,-2.27,0.21,-0.19,-0.01,-0.16
12.01149010658264,2,3,3,0,-9.52,-2.29,0.14,-0.22,0.01,-0.12
12.0214900970459,2,3,3,0,-9.5,-2.29,0.18,-0.2,0.02,-0.07000000000000001
12.03149008750916,2,3,3,0,-9.51,-2.26,0.19,-0.15,0.02,-0.09
12.04149007797241,2,3,3,0,-9.529999999999999,-2.29,0.17,-0.14,0,-0.13
12.05149006843567,2,3,3,0,-9.56,-2.3,0.19,-0.17,0.02,-0.07000000000000001
12.06149005889893,2,3,3,0,-9.529999999999999,-2.31,0.07000000000000001,-0.12,0.07000000000000001,-0.02
12.07149004936218,2,3,3,0,-9.550000000000001,-2.3,0.12,-0.04,0.08,-0.03
12.08149003982544,2,3,3,0,-9.48,-2.29,0.17,0.01,0.06,-0.05
12.0914900302887,2,3,3,0,-9.48,-2.32,0.18,0.06,0.04,-0.06
12.10149002075195,2,3,3,0,-9.550000000000001,-2.27,0.13,0.07000000000000001,0.06,-0.06
12.11149001121521,2,3,3,0,-9.539999999999999,-2.3,0.1,0,0.01,-0.06
12.12149000167847,2,3,3,0,-9.51,-2.27,0.17,-0.09,0.04,-0.07000000000000001
12.13148999214172,2,3,3,0,-9.51,-2.3,0.18,-0.09,0.1,-0.01
12.14148998260498,2,3,3,0,-9.52,-2.23,0.21,-0.07000000000000001,0.13,0.02
12.15148997306824,2,3,3,0,-9.51,-2.21,0.23,-0.19,0.14,0.08
12.16148996353149,2,3,3,0,-9.529999999999999,-2.24,0.15,-0.26,0.16,0.12
12.1724898815155,2,3,3,0,-9.539999999999999,-2.21,0.14,-0.33,0.18,0.12
12.18249011039734,2,3,3,0,-9.470000000000001,-2.14,0.14,-0.45,0.2,0.18
12.1924901008606,2,3,3,0,-9.4,-2.01,0.14,-0.51,0.21,0.28
12.20249009132385,2,3,3,0,-9.42,-1.81,0.18,-0.54,0.31,0.37
12.21249008178711,2,3,3,0,-9.34,-1.55,0.2,-0.54,0.44,0.53
12.22249007225037,2,3,3,0,-9.19,-0.95,0.3,-0.3,0.5,0.71
12.23249006271362,2,3,3,0,-9.31,-0.98,0.4,-0.45,0.53,0.91
12.24249005317688,2,3,3,0,-9.6,-1.64,0.41,-1.06,0.43,1.07
12.25249004364014,2,3,3,0,-10.24,-2.43,0.29,-1.89,0.31,1.04
12.26249003410339,2,3,3,0,-10.13,-2.66,-0.03,-2.05,0.33,1.01
12.27249002456665,2,3,3,0,-9.91,-3.09,-0.19,-1.97,0.55,1.01
12.28249001502991,2,3,3,0,-9.67,-3.28,-0.21,-1.67,0.67,0.84
12.29249000549316,2,3,3,0,-9.35,-2.73,-0.08,-0.98,0.65,0.58
12.30248999595642,2,3,3,0,-9.279999999999999,-2.31,0.02,-0.51,0.58,0.39
12.31248998641968,2,3,3,0,-9.26,-1.85,0.07000000000000001,-0.28,0.58,0.37
12.32248997688293,2,3,3,0,-9.26,-1.47,0.14,-0.44,0.67,0.57
12.33248996734619,2,3,3,0,-9.34,-0.97,0.52,-0.63,0.78,0.87
12.34248995780945,2,3,3,0,-9.390000000000001,-1.12,0.59,-0.93,0.82,1.22
12.35248994827271,2,3,3,0,-9.449999999999999,-1.22,0.64,-1.17,0.83,1.54
12.36248993873596,2,3,3,0,-9.49,-1.35,0.62,-1.17,0.8100000000000001,1.76
12.37248992919922,2,3,3,0,-9.49,-1.77,0.64,-1.1,0.8,1.91
12.38248991966248,2,3,3,0,-9.49,-1.89,0.52,-0.98,0.96,1.97
12.39248991012573,2,3,3,0,-9.5,-2.11,0.42,-0.86,0.98,2.01
12.40248990058899,2,3,3,0,-9.49,-2.1,0.35,-0.74,1,2
12.41248989105225,2,3,3,0,-9.48,-2.14,0.2,-0.59,0.98,1.94
12.4224898815155,2,3,3,0,-9.550000000000001,-2.49,0.17,-0.74,1.01,1.78
12.43249011039734,2,3,3,0,-9.630000000000001,-2.67,0.16,-0.79,1.07,1.52
12.4424901008606,2,3,3,0,-9.630000000000001,-2.77,0.2,-0.63,1.03,1.26
12.45249009132385,2,3,3,0,-9.57,-2.99,0.25,-0.33,1.05,1.03
12.46249008178711,2,3,3,0,-9.539999999999999,-2.83,0.17,0,0.97,0.75
12.47249007225037,2,3,3,0,-9.56,-2.68,0.32,0.17,0.89,0.49
12.48249006271362,2,3,3,0,-9.529999999999999,-2.72,0.38,-0.03,0.85,0.23
12.49249005317688,2,3,3,0,-9.630000000000001,-2.42,0.44,-0.59,0.8,-0.02
12.50249004364014,2,3,3,0,-9.630000000000001,-2.38,0.51,-1.25,0.6,-0.3
12.51249003410339,2,3,3,0,-9.68,-2.72,0.46,-2.51,0.51,-0.55
12.52249002456665,2,3,3,0,-9.619999999999999,-2.62,0.36,-3.86,0.35,-0.79
12.53249001502991,2,3,3,0,-9.539999999999999,-2.7,0.6,-4.79,0.38,-1.1
12.54249000549316,2,3,3,0,-9.449999999999999,-2.98,0.52,-5.68,0.33,-1.32
12.55248999595642,2,3,3,0,-9.4,-3.2,0.4,-6.11,0.35,-1.57
12.56248998641968,2,3,3,0,-9.33,-3.2,0.14,-5.99,0.32,-1.74
12.57248997688293,2,3,3,0,-9.26,-2.45,-0.1,-5.52,0.28,-1.91
12.58248996734619,2,3,3,0,-9.279999999999999,-2.19,-0.27,-5.17,0.18,-1.96
12.59248995780945,2,3,3,0,-9.34,-2.11,-0.38,-5.17,0.19,-1.99
12.60248994827271,2,3,3,0,-9.58,-1.74,-0.37,-5.01,0.25,-1.94
12.61248993873596,2,3,3,0,-9.58,-1.87,-0.38,-4.5,0.35,-1.88
12.62248992919922,2,3,3,0,-9.539999999999999,-1.87,-0.52,-3.84,0.4,-1.84
12.63248991966248,2,3,3,0,-9.56,-1.76,-0.59,-3.11,0.52,-1.78
12.64248991012573,2,3,3,0,-9.52,-1.3,-0.74,-2.18,0.62,-1.72
12.65248990058899,2,3,3,0,-9.52,-1.06,-0.76,-1.19,0.68,-1.66
12.66248989105225,2,3,3,0,-9.49,-1.09,-0.93,-0.52,0.77,-1.45
12.6724898815155,2,3,3,0,-9.66,-1.4,-0.85,-0.47,0.93,-1.19
12.68249011039734,2,3,3,0,-9.699999999999999,-1.6,-0.73,-0.38,1,-0.9399999999999999
12.6924901008606,2,3,3,0,-9.710000000000001,-2.08,-0.52,-0.15,1.14,-0.8
12.70249009132385,2,3,3,0,-9.6,-2.14,-0.48,0.23,1.19,-0.9
12.71249008178711,2,3,3,0,-9.630000000000001,-2.41,-0.55,0.6,1.12,-1.13
12.72249007225037,2,3,3,0,-9.67,-3,-0.67,0.89,0.96,-1.41
12.73249006271362,2,3,3,0,-9.529999999999999,-2.89,-0.6899999999999999,1.27,0.88,-1.77
12.74249005317688,2,3,3,0,-9.43,-2.81,-0.86,1.84,0.92,-2.04
12.75249004364014,2,3,3,0,-9.460000000000001,-2.74,-1.2,2.13,0.97,-2.31
12.76249003410339,2,3,3,0,-9.75,-2.02,-1.82,2.22,1,-2.63
12.77249002456665,2,3,3,0,-9.720000000000001,-1.65,-1.72,2.08,0.96,-2.86
12.78249001502991,2,3,3,0,-9.67,-1.36,-1.64,1.94,0.93,-3.03
12.79249000549316,2,3,3,0,-9.720000000000001,-1.29,-1.52,1.66,0.91,-3.24
12.80248999595642,2,3,3,0,-9.59,-0.99,-0.96,1.59,0.85,-3.36
12.81248998641968,2,3,3,0,-9.58,-0.91,-0.84,1.49,0.83,-3.4
12.82248997688293,2,3,3,0,-9.619999999999999,-0.9,-0.73,1.23,0.85,-3.37
12.83248996734619,2,3,3,0,-9.640000000000001,-0.84,-0.53,1.13,0.8,-3.26
12.84248995780945,2,3,3,0,-9.6,-1.46,-0.44,1.04,0.76,-3.25
12.85248994827271,2,3,3,0,-9.58,-1.7,-0.64,0.95,0.68,-3.27
12.86248993873596,2,3,3,0,-9.57,-1.73,-0.79,1.13,0.66,-3.34
12.87248992919922,2,3,3,0,-9.529999999999999,-1.85,-0.78,1.21,0.75,-3.28
12.88248991966248,2,3,3,0,-9.380000000000001,-2.07,-0.77,1.14,0.8100000000000001,-3.22
12.89248991012573,2,3,3,0,-9.42,-2.08,-0.72,1.35,0.84,-3.37
12.90248990058899,2,3,3,0,-9.4,-2.24,-0.63,1.44,0.86,-3.46
12.91248989105225,2,3,3,0,-9.359999999999999,-2.44,-0.67,1.4,0.83,-3.54
12.9224898815155,2,3,3,0,-9.24,-2.8,-0.52,1.48,0.79,-3.69
12.93249011039734,2,3,3,0,-9.19,-2.83,-0.5,1.69,0.74,-3.93
12.9424901008606,2,3,3,0,-9.17,-2.8,-0.42,1.88,0.7,-4.21
12.95249009132385,2,3,3,0,-9.17,-2.79,-0.31,1.93,0.58,-4.54
12.96249008178711,2,3,3,0,-9.220000000000001,-2.57,-0.6,1.76,0.64,-4.79
12.97249007225037,2,3,3,0,-9.4,-2.58,-0.51,1.35,0.88,-4.66
12.98249006271362,2,3,3,0,-9.470000000000001,-2.65,-0.48,1.15,1,-4.27
12.99249005317688,2,3,3,0,-9.51,-2.62,-0.65,1.1,1.14,-4.02
13.00249004364014,2,3,3,0,-9.4,-2.6,-0.67,1.07,1.16,-4
13.01249003410339,2,3,3,0,-9.23,-2.59,-0.83,1.09,1.17,-4.17
13.02249002456665,2,3,3,0,-9.130000000000001,-2.47,-0.72,0.98,1.17,-4.36
13.03249001502991,2,3,3,0,-9.140000000000001,-2.45,-0.49,1,1.16,-4.5
13.04249000549316,2,3,3,0,-9.25,-2.47,-0.54,1.16,1.22,-4.64
13.05248999595642,2,3,3,0,-9.4,-2.6,-0.57,1.49,1.27,-4.77
13.06248998641968,2,3,3,0,-9.449999999999999,-2.7,-0.68,2,1.31,-4.94
13.07248997688293,2,3,3,0,-9.289999999999999,-2.87,-0.73,2.7,1.35,-5.22
13.08248996734619,2,3,3,0,-9.25,-2.91,-0.76,3.41,1.37,-5.47
13.09248995780945,2,3,3,0,-9.23,-2.82,-0.77,4.12,1.49,-5.79
13.10248994827271,2,3,3,0,-9.220000000000001,-2.81,-0.82,4.67,1.6,-6.09
13.11248993873596,2,3,3,0,-9.32,-2.91,-0.61,5.3,1.73,-6.27
13.12248992919922,2,3,3,0,-9.460000000000001,-2.9,-0.61,5.84,1.81,-6.32
13.13248991966248,2,3,3,0,-9.58,-2.82,-0.62,6.3,1.76,-6.28
13.14248991012573,2,3,3,0,-9.52,-2.86,-0.55,6.35,1.66,-6.2
13.15248990058899,2,3,3,0,-9.630000000000001,-2.63,-0.78,6.24,1.5,-6.14
13.16248989105225,2,3,3,0,-9.880000000000001,-2.69,-0.79,6.13,1.41,-6.14
13.1724898815155,2,3,3,0,-10.02,-2.87,-0.79,5.83,1.29,-6.18
13.18249011039734,2,3,3,0,-10.05,-3.03,-0.9399999999999999,5.35,1.13,-6.21
13.1924901008606,2,3,3,0,-9.77,-2.75,-0.93,5.09,0.99,-6.13
13.2034900188446,2,3,3,0,-9.73,-2.8,-1.02,4.31,0.76,-5.9
13.21349000930786,2,3,3,0,-9.710000000000001,-2.69,-1.13,3.45,0.45,-5.81
13.22348999977112,2,3,3,0,-10,-2.62,-1,2.7,0.33,-5.98
13.23348999023438,2,3,3,0,-11.06,-2.46,-1.15,1.87,0.26,-6.24
13.24348998069763,2,3,3,0,-11.59,-2.25,-0.84,1.59,0.19,-6.54
13.26348996162415,2,3,3,0,-11.91,-1.98,-0.37,2.97,0.07000000000000001,-6.64
13.2734899520874,2,3,3,0,-11.84,-1.08,-0.25,3.81,0,-6.43
13.28348994255066,2,3,3,0,-11.82,-0.67,-0.18,4.28,-0.21,-6.15
13.29348993301392,2,3,3,0,-11.81,-0.42,0.18,4.82,-0.27,-5.74
13.30348992347717,2,3,3,0,-11.84,-0.23,0.59,5.41,-0.24,-5.17
13.31348991394043,2,3,3,0,-11.79,0.23,0.7,6.03,-0.25,-4.39
13.32348990440369,2,3,3,0,-11.74,0.43,0.88,6.58,-0.2,-3.4
13.33348989486694,2,3,3,0,-11.65,0.45,1.02,7.16,-0.1,-2.4
13.3434898853302,2,3,3,1,-11.67,0.09,0.77,7.64,0.07000000000000001,-1.47
13.35348987579346,2,3,3,1,-11.7,0.26,0.4,8.09,0.27,-0.54
13.36349010467529,2,3,3,1,-11.71,0.75,0.03,8.99,0.5600000000000001,0.54
13.37349009513855,2,3,3,1,-11.67,1.53,0.46,10.32,1.12,1.9
13.38349008560181,2,3,3,1,-11.54,0.38,2.49,9.539999999999999,1.48,3.58
13.39349007606506,2,3,3,1,-10.99,0.07000000000000001,2.79,7.52,0.73,5.11
13.40349006652832,2,3,3,1,-10.22,0.8,2.34,7.76,-1.08,6.16
13.41349005699158,2,3,3,1,-9.619999999999999,1.42,1.79,8.300000000000001,-2.58,7.31
13.42349004745483,2,3,3,1,-9.779999999999999,1.64,1.47,8.41,-3.39,8.75
13.43349003791809,2,3,3,1,-10.24,1.78,1.43,9.449999999999999,-4.01,9.880000000000001
13.44349002838135,2,3,3,1,-10.49,1.35,1.81,9.9,-5.08,11.01
13.4534900188446,2,3,3,1,-10.62,0.82,1.8,10.66,-5.87,12.38
13.46349000930786,2,3,3,1,-10.63,-1,0.44,11.51,-6.13,13.52
13.47348999977112,2,3,3,1,-10.85,-1.88,0.08,11.73,-5.32,14.09
13.48348999023438,2,3,3,1,-11.14,-2.52,0.04,11.17,-3.83,14.14
13.49348998069763,2,3,3,2,-11.59,-3.73,-0.11,10.02,-1.91,14.12
13.50348997116089,2,3,3,2,-11.77,-4.54,-0.58,9.18,-0.25,13.85
13.51348996162415,2,3,3,2,-11.77,-4.76,-0.95,8.539999999999999,1.09,14.19
13.5234899520874,2,3,3,2,-11.8,-4.15,-1.08,9.050000000000001,2.35,14.78
13.53348994255066,2,3,3,2,-11.82,-3.33,-0.79,9.630000000000001,3.39,15.78
13.54348993301392,2,3,3,2,-11.73,-5.01,0.23,8.56,3.96,16.87
13.55348992347717,2,3,3,2,-11.02,-5.54,-0.25,7.33,4.07,17.51
13.56348991394043,2,3,3,2,-10.77,-5.26,-0.43,6.47,4.75,17.89
13.57348990440369,2,3,3,2,-10.79,-5.04,-0.09,5.55,5.54,18.4
13.58348989486694,2,3,3,2,-10.84,-4.78,-0.31,3.49,6.05,19.05
13.5934898853302,2,3,3,2,-10.56,-4.53,-0.51,0.8,6.24,19.66
13.60348987579346,2,3,3,2,-10.39,-4.47,-0.67,-1.59,6.23,20.5
13.61349010467529,2,3,3,2,-10.46,-4.29,-0.64,-3.59,6.03,21.42
13.62349009513855,2,3,3,2,-10.7,-4.36,-0.24,-5.55,5.63,22.17
13.63349008560181,2,3,3,2,-10.4,-4.79,-0.15,-7.53,5.15,22.51
13.64349007606506,2,3,3,2,-9.98,-5.04,-0.23,-8.890000000000001,4.65,22.51
13.65349006652832,2,3,3,2,-9.449999999999999,-4.87,-0.33,-9.550000000000001,4.12,22.5
13.66349005699158,2,3,3,2,-8.93,-4.69,-0.48,-10.31,3.69,22.56
13.67349004745483,2,3,3,2,-8.81,-4.58,-0.35,-11.27,3.26,22.7
13.68349003791809,2,3,3,2,-8.67,-4.37,-0.29,-12.55,2.7,22.7
13.69349002838135,2,3,3,2,-8.529999999999999,-3.97,-0.14,-14.06,2.19,22.71
13.7034900188446,2,3,3,2,-8.4,-4.36,-0.21,-15.76,1.94,22.5
13.71349000930786,2,3,3,2,-8.23,-4.53,-0.37,-16.89,1.29,21.96
13.72348999977112,2,3,3,2,-7.95,-4.41,-0.14,-17.06,0.55,21.28
13.73348999023438,2,3,3,2,-8.02,-4.72,0.36,-18.03,-0.01,20.37
13.74348998069763,2,3,3,1,-7.81,-5.03,0.29,-18.67,-0.57,19.2
13.75348997116089,2,3,3,1,-7.57,-5.33,0.34,-18.46,-0.93,17.83
13.76348996162415,2,3,3,1,-7.29,-5.57,0.23,-17.54,-1.06,16.42
13.7734899520874,2,3,3,1,-6.96,-5.55,0.18,-15.86,-1.13,15.06
13.78348994255066,2,3,3,1,-7,-5.07,0.43,-13.71,-1.25,13.69
13.79348993301392,2,3,3,1,-6.87,-4.65,0.74,-11.64,-1.81,12.59
13.80348992347717,2,3,3,1,-6.53,-4.75,0.88,-10.49,-2.78,11.6
13.81348991394043,2,3,3,1,-5.88,-5.33,0.73,-9.31,-3.21,10.29
13.82348990440369,2,3,3,1,-5.94,-5.63,0.5,-7.3,-3.15,9.039999999999999
13.83348989486694,2,3,3,1,-5.91,-3.85,0.44,-3.5,-2.3,6.62
13.8434898853302,2,3,3,1,-6.42,-3.44,0.18,-1.15,-1.24,4.79
13.85348987579346,2,3,3,1,-7.14,-1.45,-0.53,-0.08,-0.8,2.55
13.86349010467529,2,3,3,1,-7.39,-0.6899999999999999,-0.71,-0.05,-0.9399999999999999,0.52
13.87349009513855,2,3,3,1,-7.74,0.08,-0.16,-1.77,-1.33,-0.88
13.88349008560181,2,3,3,1,-8.31,1.07,0.33,-4.04,-1.63,-1.39
13.89349007606506,2,3,3,1,-10.7,5.56,2.02,-4.41,-1.32,-0.99
13.90349006652832,2,3,3,1,-11.9,8.140000000000001,3.44,-6.08,-2.17,0.36
13.91349005699158,2,3,3,1,-11.88,10.86,5.11,-9.369999999999999,-4.71,2.2
13.92349004745483,2,3,3,1,-11.66,13.8,6.65,-12.66,-5.07,4.26
13.93349003791809,2,3,3,1,-11.76,16.51,4.06,-14.95,-1.86,5.69
13.94349002838135,2,3,3,1,-12.14,16.26,0.43,-15.67,1.63,5.83
13.9534900188446,3,3,3,1,-12.22,14.52,-1.18,-14.79,1.27,5.45
13.96349000930786,3,3,3,1,-11.62,10.68,0.14,-11.79,-0.45,5.37
13.97348999977112,3,3,3,1,-10.04,2.57,1.84,-8.359999999999999,-0.37,6
13.98348999023438,3,3,3,1,-9.949999999999999,0.62,1.99,-5.78,1.35,6.56
13.99348998069763,3,3,3,0,-9.6,0.85,1.55,-2.93,2.35,6.1
14.00348997116089,3,3,3,0,-9.359999999999999,1.24,0.01,-1.4,3.84,4.8
14.01348996162415,3,3,3,0,-11.86,3.89,0.26,-2,5.87,3.51
14.0234899520874,3,3,3,0,-14.37,7.17,3.83,-6.14,4.17,2.59
14.03348994255066,3,3,3,0,-14.28,5.78,9.289999999999999,-15.38,-3.88,1.07
14.04348993301392,3,3,3,0,-8.9,3.09,6.76,-18.55,-9.41,-2.12
14.05348992347717,3,3,3,0,-10.23,1.19,2.02,-14.72,3.43,-3.7
14.06348991394043,3,3,3,0,-10.33,-2.48,0.14,-14.72,3.43,-3.7
14.07348990440369,3,3,3,0,-10.62,-5.94,1.33,-11.47,3.7,-4.15
14.08348989486694,3,3,3,0,-9.48,-10.46,-2.04,-7.86,5.18,-5.26
14.0934898853302,3,3,3,0,-9.470000000000001,-7.57,-4.34,-3.42,6.28,-6.98
14.10348987579346,3,3,3,0,-9.949999999999999,-5.28,-5.42,0.85,5.78,-8.789999999999999
14.11349010467529,3,3,3,0,-10.61,-4.23,-6.01,1.25,5.65,-10.34
14.12349009513855,3,3,3,0,-11.66,-1.29,-1.19,1.48,5.51,-12.3
14.13349008560181,3,3,3,1,-10.8,-3.24,0.16,1.35,5.26,-14.02
14.14349007606506,3,3,3,1,-10.24,-5.51,-1.08,-1.75,6.03,-14.48
14.15349006652832,3,3,3,1,-10.07,-5.61,-1.6,-2.51,6.17,-14.52
14.16349005699158,3,3,3,1,-9.75,-3.18,0.48,0.4,5.33,-14.69
14.17349004745483,3,3,3,1,-9.66,-2.25,0.78,1.37,5.25,-14.37
14.18349003791809,3,3,3,1,-9.76,-0.8100000000000001,1.07,1.37,5.25,-14.37
14.19349002838135,3,3,3,1,-9.76,0.15,1.63,-0.3,5.38,-14.16
14.2034900188446,3,3,3,1,-9.109999999999999,0.36,1.23,-3.66,4.98,-13.68
14.21349000930786,3,3,3,1,-9.19,0.82,0.84,-4.95,4.99,-13.38
14.22448992729187,3,3,3,1,-9.24,0.79,0.36,-5.7,5.23,-13.19
14.23448991775513,3,3,3,1,-9.15,0.37,-0.38,-5.7,5.23,-13.19
14.24448990821838,3,3,3,1,-9.050000000000001,-0.58,-1.26,-5.22,5.56,-13.07
14.25448989868164,3,3,3,1,-9.18,-0.54,-1.49,-0.9,6.04,-12.6
14.2644898891449,3,3,3,1,-9.789999999999999,-0.23,-1.35,0.93,6.1,-12.18
14.27448987960815,3,3,3,1,-10.09,-0.32,-1.03,2.41,6.19,-12.06
14.28449010848999,3,3,3,2,-10.28,-1.8,-0.62,2.41,6.19,-12.06
14.29449009895325,3,3,3,2,-10.31,-1.61,-0.29,4.71,5.71,-12.44
14.3044900894165,3,3,3,2,-10.39,-1.53,-0.03,9.109999999999999,4.11,-12.49
14.31449007987976,3,3,3,2,-10.14,-1.46,-0.23,9.859999999999999,3.83,-12.33
14.32449007034302,3,3,3,2,-9.609999999999999,-1.02,-1.28,10.05,3.67,-12.16
14.33449006080627,3,3,3,2,-9.6,-0.61,-1.37,10.05,3.67,-12.16
14.34449005126953,3,3,3,2,-9.470000000000001,-0.47,-1.12,9.65,3.37,-11.97
14.35449004173279,3,3,3,2,-9.32,-0.21,-1.16,6.9,2.97,-11.81
14.36449003219604,3,3,3,2,-9.51,-0.52,-1.01,5.72,2.77,-11.8
14.3744900226593,3,3,3,2,-9.630000000000001,-0.63,-0.99,4.49,2.65,-11.65
14.38449001312256,3,3,3,2,-9.59,-1.02,-0.93,4.49,2.65,-11.65
14.39449000358582,3,3,3,2,-9.300000000000001,-1.32,-0.82,3.87,2.53,-11.27
14.40448999404907,3,3,3,2,-9.19,-1.4,-1.05,2.3,2.16,-10.52
14.41448998451233,3,3,3,2,-9.1,-1.4,-1.17,0.74,1.84,-10.18
14.42448997497559,3,3,3,2,-8.98,-1.83,-1.13,-0.71,1.58,-10.33
14.43448996543884,3,3,3,2,-8.949999999999999,-3.91,-1.33,-0.71,1.58,-10.33
14.4444899559021,3,3,3,2,-8.98,-4.8,-1.5,-1.72,1.39,-11.02
14.45448994636536,3,3,3,2,-8.94,-5.32,-1.73,-2.16,1.02,-12.97
14.46448993682861,3,3,3,2,-8.800000000000001,-5.28,-1.83,-1.64,1.02,-13.38
14.47448992729187,3,3,3,2,-8.34,-4,-1.53,-1.3,1.29,-13.08
14.48448991775513,3,3,3,2,-8.34,-3.33,-1.25,-1.3,1.29,-13.08
14.49448990821838,3,3,3,2,-8.65,-2.1,-0.41,-0.07000000000000001,1.78,-12.44
14.50448989868164,3,3,3,2,-8.869999999999999,-0.79,0,1.88,1.99,-11.56
14.5144898891449,3,3,3,2,-9.83,0.02,0.5,1.74,1.71,-11.22
14.52448987960815,3,3,3,2,-10.06,0.43,0.97,1.37,1.44,-10.61
14.53449010848999,3,3,3,2,-10.24,0.51,1.09,1.37,1.44,-10.61
14.54449009895325,3,3,3,2,-10.52,0.37,0.91,0.9,1.41,-10.02
14.5544900894165,3,3,3,2,-10.3,0.26,0.15,0.79,1.73,-9.460000000000001
14.56449007987976,3,3,3,2,-10.07,-0.12,-0.51,0.85,2.09,-9.48
14.57449007034302,3,3,3,2,-9.76,-0.66,-0.78,1.52,2.61,-9.42
14.58449006080627,3,3,3,2,-9.640000000000001,-1.4,-0.8100000000000001,1.52,2.61,-9.42
14.59449005126953,3,3,3,2,-9.48,-3.09,-0.83,2.68,3.19,-9.31
14.60449004173279,3,3,3,2,-9.52,-3.51,-0.98,6.33,3.52,-9.369999999999999
14.61449003219604,3,3,3,2,-9.68,-3.82,-0.93,7.94,3.32,-9.640000000000001
14.6244900226593,3,3,3,2,-9.82,-4.08,-1.22,9.199999999999999,3.14,-10.04
14.63449001312256,3,3,3,2,-9.880000000000001,-3.51,-1.32,9.199999999999999,3.14,-10.04
14.64449000358582,3,3,3,2,-9.949999999999999,-2.6,-0.99,10.62,2.89,-10.43
14.65448999404907,3,3,3,2,-10,-1.97,-1.13,11.27,2.6,-10.71
14.66448998451233,3,3,3,2,-10.18,-1.25,-1.28,10.74,2.52,-10.58
14.67448997497559,3,3,3,2,-10.85,-1.04,-1.15,10.15,2.48,-10.3
14.68448996543884,3,3,3,2,-11.46,-1.56,-1.03,10.15,2.48,-10.3
14.6944899559021,3,3,3,2,-12.01,-1.96,-0.64,10.45,2.36,-9.98
14.70448994636536,3,3,3,2,-12.42,-2.15,-0.59,12.27,2.15,-9.359999999999999
14.71448993682861,3,3,3,2,-12.82,-1.87,-0.6,13.71,2.09,-9.140000000000001
14.72448992729187,3,3,3,2,-13.05,-1.16,-0.71,14.7,2,-8.960000000000001
14.73448991775513,3,3,3,1,-13.37,-0.32,-0.79,14.7,2,-8.960000000000001
14.74448990821838,3,3,3,1,-14.28,2.27,0.27,15.45,1.88,-8.75
14.75448989868164,3,3,3,1,-14.44,3.3,1.02,15.24,1.08,-6.89
14.7644898891449,3,3,3,1,-14.28,4.08,1.36,14.25,0.54,-5.25
14.77448987960815,3,3,3,1,-13.84,4.51,1.41,13.5,0.22,-3.34
14.78449010848999,3,3,3,1,-13.66,5.18,1.38,13.5,0.22,-3.34
14.79449009895325,3,3,3,1,-13.77,5.8,1.38,13.5,0.03,-1.02
14.8044900894165,3,3,3,1,-13.81,6.51,1.77,12.33,-0.51,5.72
14.81449007987976,3,3,3,1,-13.54,6.47,2.48,9.4,-1.77,9.41
14.82449007034302,3,3,3,1,-12.23,5.39,2.86,7.93,-4.01,11.97
14.83449006080627,3,3,3,1,-11.39,5.35,1.9,7.93,-4.01,11.97
14.84449005126953,3,3,3,1,-10.76,4.81,1.04,7.41,-5.74,13.48
14.85449004173279,3,3,3,1,-10.35,4.01,0.2,4.98,-5.71,16.56
14.86449003219604,3,3,3,1,-11.12,-0.84,-0.68,3.21,-4.69,18.26
14.8744900226593,3,3,3,1,-11.89,-2.53,-0.66,2.89,-3.76,19.2
14.88449001312256,3,3,3,1,-12.87,-3.87,-1.08,2.89,-3.76,19.2
14.89449000358582,3,3,3,1,-13.91,-3.91,-0.78,4.59,-2.01,18.81
14.90448999404907,3,3,3,1,-14.82,-5.18,-0.3,6.3,1.47,18.51
14.91448998451233,3,3,3,1,-14.5,-5.41,0.34,7.24,2.83,18.98
14.92448997497559,3,3,3,1,-13.53,-4.8,0.29,7.25,4.39,20.23
14.93448996543884,3,3,3,1,-12.78,-4.57,0.84,7.25,4.39,20.23
14.9444899559021,3,3,3,1,-12.13,-7.03,2.26,4.43,4.73,20.63
14.95448994636536,3,3,3,1,-11.26,-7.1,1.32,1.79,6.01,20.83
14.96448993682861,3,3,3,1,-11.12,-6.81,1.16,1.19,6.39,21.22
14.97448992729187,3,3,3,1,-11.43,-6.87,1.06,0.36,6.45,22.09
14.98448991775513,3,3,3,1,-11.56,-6.97,0.5,0.36,6.45,22.09
14.99448990821838,3,3,3,1,-11.49,-6.9,0.23,0.11,6.38,22.88
15.00448989868164,3,3,3,1,-11.26,-6.2,0.07000000000000001,0.07000000000000001,5.78,24.81
15.0144898891449,3,3,3,1,-11,-6.08,-0.03,-0.45,5.42,25.7
15.02448987960815,3,3,3,1,-10.56,-5.02,0.15,-2.39,5.03,26.27
15.03449010848999,3,3,3,1,-10.33,-5.43,0.38,-2.39,5.03,26.27
15.04449009895325,3,3,3,1,-9.630000000000001,-6.03,0.29,-3.91,4.59,26.49
15.0544900894165,3,3,3,1,-8.960000000000001,-5.78,0.07000000000000001,-6.62,4.01,26.07
15.06449007987976,3,3,3,1,-8.279999999999999,-5.64,0,-8.92,3.47,25.84
15.07449007034302,3,3,3,1,-8.09,-5.66,-0.18,-11.06,2.77,25.42
15.08449006080627,3,3,3,1,-7.79,-5.75,-0.5,-11.06,2.77,25.42
15.09449005126953,3,3,3,1,-7.34,-5.62,-0.77,-12.75,2.3,24.83
15.10449004173279,3,3,3,1,-7.08,-5.53,-0.79,-15.83,0.98,22.89
15.11449003219604,3,3,3,1,-6.99,-5.75,-0.88,-17.59,-0.18,21.88
15.1244900226593,3,3,3,1,-6.89,-6.21,-0.9399999999999999,-19,-1.27,20.89
15.13449001312256,3,3,3,1,-6.47,-6.68,-0.55,-19,-1.27,20.89
15.14449000358582,3,3,3,1,-6.47,-7.02,-0.44,-20.69,-1.9,19.57
15.15448999404907,3,3,3,1,-6.14,-7.35,-0.64,-21.63,-2.56,16.34
15.16448998451233,3,3,3,1,-5.91,-7.86,-1.12,-19.77,-2.31,14.59
15.17448997497559,3,3,3,1,-5.74,-7.79,-1.16,-17.21,-2.27,12.75
15.18448996543884,3,3,3,2,-5.76,-7.49,-0.99,-17.21,-2.27,12.75
15.19548988342285,3,3,3,2,-5.66,-7.17,-0.79,-13.98,-2.73,10.91
15.20448994636536,3,3,3,2,-5.35,-7.4,-0.51,-7.17,-3.45,6.84
15.21448993682861,3,3,3,2,-4.43,-7.35,-0.5600000000000001,-1.75,-3.18,5.66
15.2254900932312,3,3,3,2,-4.16,-6.55,-0.71,0.32,-2.53,4.07
15.23448991775513,3,3,3,2,-4.45,-4.97,0.04,0.32,-2.53,4.07
15.24549007415771,3,3,3,2,-4.77,-3.67,1,-1.74,-2.16,1.76
15.25549006462097,3,3,3,2,-6.91,-0.51,2.05,-6.51,-2.08,-0.84
15.26549005508423,3,3,3,2,-8.99,2.29,3,-4.73,-2.05,-0.02
15.27549004554749,3,3,3,2,-11.09,6.05,4.13,-2.04,-0.62,0.75
15.28549003601074,3,3,3,2,-12.78,10.97,5.52,-2.04,-0.62,0.75
15.295490026474,3,3,3,2,-12.35,18.15,5.97,-2.48,3.34,0.55
15.30549001693726,3,3,3,2,-12.45,22.46,2.1,-2.24,8.720000000000001,5.88
15.31549000740051,3,3,3,2,-15.91,26.85,-2.31,-2.34,1.82,8.630000000000001
15.32548999786377,3,3,3,2,-16.99,26.58,-3.39,-3.1,-0.6,9.109999999999999
15.33548998832703,3,3,3,2,-11.07,8.84,3.28,-3.1,-0.6,9.109999999999999
15.34548997879028,3,3,3,2,-9.69,2.15,3.39,-2.29,1.8,8.73
15.35548996925354,3,3,3,2,-9.19,-0.16,2.11,-0.17,3.83,7.65
15.3654899597168,3,3,3,2,-8.81,0.45,1.05,-1.6,4.66,6.98
15.37548995018005,3,3,3,2,-8.289999999999999,1.41,-0.9399999999999999,-7.99,6.57,5.28
15.38548994064331,3,3,3,2,-8.359999999999999,0.44,-3.52,-7.99,6.57,5.28
15.39548993110657,3,3,3,2,-12.17,-3.17,-0.12,-21.33,4.93,2.28
15.40548992156982,3,3,3,2,-9.56,-6.11,5.39,-13.64,-10.36,-7.35
15.41548991203308,3,3,3,2,-13.01,9.02,10.17,-16.94,-7.51,-5.89
15.42548990249634,3,3,3,2,-15.66,9.279999999999999,5.91,-20.39,0.84,-4.27
15.43548989295959,3,3,3,2,-15.95,4.36,2.06,-20.39,0.84,-4.27
15.44548988342285,3,3,3,2,-13.36,0.21,-0.95,-21.52,3.98,-4.53
15.45549011230469,3,3,3,2,-10.72,-11.76,-0.9,-13.6,7.41,-7.17
15.46549010276794,3,3,3,2,-10.99,-13.13,-3.37,-6.13,8.720000000000001,-8.140000000000001
15.4754900932312,3,3,3,2,-11.22,-11.88,-5.21,-1.42,7.81,-10.31
15.48549008369446,3,3,3,1,-9.33,-7.29,-5.94,-1.42,7.81,-10.31
15.49549007415771,3,3,3,1,-10.28,-2.57,-1.92,5.57,6.84,-14.59
15.50549006462097,3,3,3,1,-11.72,-2.01,0.67,3.85,6.62,-16.85
15.51549005508423,3,3,3,1,-11.33,-4.29,-1.5,2.07,5.97,-16.15
15.52549004554749,3,3,3,1,-9.69,-4.33,-2.29,4.37,5.56,-15.88
15.53549003601074,3,3,3,1,-9.48,-3.43,-1.07,4.37,5.56,-15.88
15.545490026474,3,3,3,1,-9.75,-2.76,-0.71,4.34,5.26,-15.53
15.55549001693726,3,3,3,1,-9.869999999999999,-1.53,0.12,1.17,5.66,-15.2
15.56549000740051,3,3,3,1,-10.13,-0.84,1.28,-1.34,5.9,-15.07
15.57548999786377,3,3,3,1,-10.02,-1,0.73,-2.46,5.69,-15.28
15.58548998832703,3,3,3,1,-9.77,-0.42,0.44,-2.46,5.69,-15.28
15.59548997879028,3,3,3,1,-9.550000000000001,-0.31,-0.07000000000000001,-3.27,5.4,-15.42
15.60548996925354,3,3,3,1,-9.380000000000001,-1.22,-1.22,-3.61,5.16,-15.15
15.6154899597168,3,3,3,1,-9.529999999999999,-1.83,-1.4,-1.99,5.21,-15.24
15.62548995018005,3,3,3,1,-9.699999999999999,-1.89,-1.49,0.01,5.45,-15.25
15.63548994064331,3,3,3,1,-9.869999999999999,-2.05,-1.5,0.01,5.45,-15.25
15.64548993110657,3,3,3,1,-9.52,-2.69,-1.49,2.63,5.52,-15.32
15.65548992156982,3,3,3,1,-9.41,-2.8,-1.13,9.630000000000001,4.98,-15.94
15.66548991203308,3,3,3,1,-9.32,-2.94,-1.04,12.63,4.1,-16.31
15.67548990249634,3,3,3,1,-9.59,-1.97,-0.75,13.59,2.97,-16.31
15.68548989295959,3,3,3,1,-9.65,-0.2,-0.15,13.59,2.97,-16.31
15.69548988342285,3,3,3,1,-9.6,0.52,-0.06,12.5,2.1,-16.06
15.70549011230469,3,3,3,1,-9.470000000000001,0.43,-0.17,7.56,1.67,-15.41
15.71549010276794,3,3,3,1,-9.470000000000001,-0.04,-0.39,5.53,1.76,-15.3
15.7254900932312,3,3,3,1,-9.539999999999999,0.18,-0.95,4.13,1.82,-15.32
15.73549008369446,3,3,3,1,-9.51,0.52,-1.12,4.13,1.82,-15.32
15.74549007415771,3,3,3,1,-9.869999999999999,1.41,-1.14,3.13,1.83,-15.86
15.75549006462097,3,3,3,1,-10.11,1.59,-1.14,1.33,2.2,-16.42
15.76549005508423,3,3,3,1,-9.42,0.88,-0.92,2.34,2.99,-15.6
15.77549004554749,3,3,3,1,-9.42,0.88,-0.92,3.66,3.47,-14.38
15.78549003601074,3,3,3,1,-9.800000000000001,0.29,-0.87,3.66,3.47,-14.38
15.795490026474,3,3,3,1,-10.21,-0.15,-0.85,4.62,3.41,-12.97
15.80549001693726,3,3,3,1,-10.29,-1.09,-0.42,4.17,3.08,-10.73
15.81549000740051,3,3,3,1,-10.05,-1.48,-0.3,3.98,3.01,-10.32
15.82548999786377,3,3,3,1,-9.539999999999999,-1.63,0.03,4.39,3.18,-10.11
15.83548998832703,3,3,3,1,-9.539999999999999,-1.63,0.03,4.39,3.18,-10.11
15.84548997879028,3,3,3,1,-9.369999999999999,-1.79,0.09,5.26,3.46,-9.92
15.85548996925354,3,3,3,1,-9.32,-2.34,-0.2,8.1,4.36,-9.91
15.8654899597168,3,3,3,1,-9.18,-2.81,-1.32,9.68,4.62,-9.9
15.87548995018005,3,3,3,1,-9.210000000000001,-2.7,-1.26,11.03,4.81,-9.800000000000001
15.88548994064331,3,3,3,1,-9.210000000000001,-2.7,-1.26,11.03,4.81,-9.800000000000001
15.89548993110657,3,3,3,1,-9.19,-2.44,-0.92,12.34,4.65,-9.869999999999999
15.90548992156982,3,3,3,1,-9.43,-1.63,-0.79,12.15,3.92,-10.33
15.91548991203308,3,3,3,1,-9.640000000000001,-1.47,-0.65,11.55,3.7,-10.5
15.92548990249634,3,3,3,1,-9.93,-1.36,-0.5,11.12,3.51,-10.6
15.93548989295959,3,3,3,1,-9.93,-1.36,-0.5,11.12,3.51,-10.6
15.94548988342285,3,3,3,1,-10.15,-1.25,-0.36,10.37,3.11,-10.73
15.95549011230469,3,3,3,1,-10.99,-0.78,-0.33,8.69,2.34,-10.5
15.96549010276794,3,3,3,1,-11.42,-0.71,-0.26,8.24,2.17,-10.15
15.9754900932312,3,3,3,1,-11.85,-0.72,-0.31,8.31,2.04,-9.74
15.98549008369446,3,3,3,1,-11.85,-0.72,-0.31,8.31,2.04,-9.74
15.99549007415771,3,3,3,1,-12.46,-0.52,-0.21,9.09,2.1,-9.32
16.00549006462097,3,3,3,1,-13.16,0.2,-0.77,11.33,1.82,-8.880000000000001
16.01549005508423,3,3,3,1,-13.75,1,-0.54,12.66,1.49,-8.619999999999999
16.02549004554749,3,3,3,1,-14.44,3.24,0.54,14.03,0.9,-7.94
16.03549003601074,3,3,3,1,-14.44,3.24,0.54,14.03,0.9,-7.94
16.045490026474,3,3,3,1,-14.36,4.42,0.75,15.01,0.24,-6.58
16.05549001693726,3,3,3,1,-14.17,7.02,1.13,17.13,-0.77,-2.27
16.06549000740051,3,3,3,1,-15.21,7.94,3.5,17.1,-0.99,0.88
16.07548999786377,3,3,3,1,-14.75,6.28,3.41,13.32,-2.09,4.67
16.08548998832703,3,3,3,1,-14.75,6.28,3.41,10.91,-3.39,9
16.09548997879028,3,3,3,1,-13.75,5.68,3.06,11.05,-5.33,12.63
16.10548996925354,3,3,3,1,-10.43,6.25,-0.4,10.78,-6.9,14.42
16.1154899597168,3,3,3,1,-10.57,5.17,-1.9,7.52,-6.69,16.02
16.12548995018005,3,3,3,1,-11.76,1.84,-1.93,1.51,-5.58,17.72
16.13548994064331,3,3,3,1,-11.76,1.84,-1.93,-2.11,-4.75,18.71
16.14548993110657,3,3,3,1,-13.54,-1.75,-1.59,-2.09,-3.66,18.88
16.15548992156982,3,3,3,1,-15.81,-4.26,-1.38,-0.11,-2.12,18.68
16.16548991203308,3,3,3,1,-15.85,-4.87,-0.96,1.68,-0.08,18.22
16.17548990249634,3,3,3,1,-14.84,-5.61,-0.74,2.27,1.86,18.25
16.18548989295959,3,3,3,1,-14.84,-5.61,-0.74,2.58,3.82,19.21
16.19548988342285,3,3,3,1,-12.23,-4.68,-0.77,1.01,5.05,20.07
16.20549011230469,3,3,3,1,-11.92,-6.13,0.76,-1.73,4.57,20.4
16.21549010276794,3,3,3,1,-10.96,-6.49,-0.38,-2.55,4.57,20.77
16.2254900932312,3,3,3,1,-10.82,-6.5,-0.55,-2.79,5.09,21.13
16.23549008369446,3,3,3,0,-10.82,-6.5,-0.55,-2.79,5.09,21.13
16.24549007415771,3,3,3,0,-10.92,-6.87,-0.79,-3.52,5.1,22.57
16.25549006462097,3,3,3,0,-10.49,-6.04,-1.95,-3.54,4.81,23.21
16.26549005508423,3,3,3,0,-10.47,-5.89,-1.94,-4,4.49,24.32
16.27648997306824,3,3,3,0,-10.39,-5.18,-1.83,-4.96,4.01,25.17
16.28648996353149,3,3,3,0,-10.39,-5.18,-1.83,-4.96,4.01,25.17
16.29648995399475,3,3,3,0,-9.140000000000001,-6.46,-1.76,-7.95,3.3,25.64
16.30648994445801,3,3,3,0,-8.57,-6.43,-2.09,-7.76,2.92,25.28
16.31648993492126,3,3,3,0,-7.99,-6.52,-1.91,-8.32,2.83,24.81
16.32648992538452,3,3,3,0,-7.74,-6.23,-1.9,-9.85,2.72,24.18
16.33648991584778,3,3,3,0,-7.74,-6.23,-1.9,-12.4,2.21,23.6
16.34648990631104,3,3,3,0,-7.34,-5.75,-1.62,-15.26,1.59,23.16
16.35648989677429,3,3,3,0,-7.17,-5.96,-1.33,-17.82,1.26,22.39
16.36648988723755,3,3,3,0,-7.24,-6.63,-1.15,-19.54,0.82,21.52
16.37648987770081,3,3,3,0,-7.17,-6.69,-0.8,-19.68,-0.1,20.66
16.38649010658264,3,3,3,0,-7.29,-6.99,-0.37,-20.49,-1.09,19.67
16.3964900970459,3,3,3,0,-7.23,-7.4,-0.23,-20.6,-2.21,18.13
16.40649008750916,3,3,3,0,-7.06,-7.16,-0.08,-20.8,-3.22,17.16
16.41649007797241,3,3,3,0,-6.48,-7.75,-0.03,-19.99,-3.7,15.8
16.42649006843567,3,3,3,0,-6.13,-7.42,0.03,-18.32,-3.76,14.29
16.43649005889893,3,3,3,0,-5.87,-7.4,0.36,-17.14,-3.87,12.78
16.44649004936218,3,3,3,0,-5.46,-7.52,0.51,-15.63,-4.39,11.24
16.45649003982544,3,3,3,0,-4.78,-8.130000000000001,0.32,-13.59,-4.73,9.51
16.4664900302887,3,3,3,0,-4.4,-8.800000000000001,0.2,-10.77,-5.12,7.67
16.47649002075195,3,3,3,0,-4.01,-8.83,-0.18,-6.41,-4.7,4.83
16.48649001121521,3,3,3,0,-3.96,-8.289999999999999,-0.28,-3.79,-3.64,1.44
16.49649000167847,3,3,3,0,-3.97,-5.07,0.64,-6.04,-2.42,-0.86
16.50648999214172,3,3,3,0,-4.94,-2.69,0.9399999999999999,-6.63,-1.01,-2.42
16.51648998260498,3,3,3,0,-6.61,0.05,1.23,-4.55,0.25,-2.49
16.52648997306824,3,3,3,0,-9.66,4.13,2.17,-0.83,1.17,-0.65
16.53648996353149,3,3,3,0,-9.66,4.13,2.17,3.73,2.25,0.63
16.54648995399475,3,3,3,0,-13.07,23.76,7.66,7.43,6.72,0.47
16.55648994445801,3,3,3,0,-15.09,32.9,4.14,6.26,13.65,3.31
16.56648993492126,3,3,3,0,-20.42,26.87,-3.08,-0.17,9.529999999999999,9.56
16.57648992538452,3,3,3,0,-14.01,16.6,0.07000000000000001,1.55,-1.65,10.61
16.58648991584778,3,3,3,0,-14.01,16.6,0.07000000000000001,2.37,-1.27,8.880000000000001
16.59648990631104,3,3,3,0,-9.210000000000001,-1.95,3.18,1.88,1.3,8.15
16.60648989677429,3,3,3,0,-8.289999999999999,-0.61,-1.26,4.3,1.81,7.28
16.61648988723755,3,3,3,0,-9.19,2.29,-1.25,4.09,3.4,5.54
16.62648987770081,3,3,3,0,-9.199999999999999,1.86,-0.86,-3.17,4.07,4.36
16.63649010658264,3,3,3,0,-9.199999999999999,1.86,-0.86,-16.01,4.51,4.56
16.6464900970459,3,3,3,0,-13.66,7.61,13.75,-26.65,-3.13,3.42
16.65649008750916,3,3,3,0,-10.85,10.33,15.24,-26.29,-15.12,-1.81
16.66649007797241,3,3,3,0,-16.18,9.26,8.56,-24.49,-6.04,-4.05
16.68649005889893,3,3,3,0,-16.84,0.19,-1.41,-19.53,5.45,-1.51
16.69649004936218,3,3,3,0,-10.14,-18.91,-8.49,-8.16,7.33,-1.79
16.70649003982544,3,3,3,0,-11.06,-18.03,-9.9,1.61,7.77,-4.5
16.7164900302887,3,3,3,0,-10.38,-14.63,-10.82,13.34,6.93,-9.220000000000001
16.72649002075195,3,3,3,0,-11.22,-3.65,-0.6,19.94,5.31,-15.11
16.73649001121521,3,3,3,0,-11.22,-3.65,-0.6,16.43,5.43,-18.51
16.74649000167847,3,3,3,0,-10.67,-4.39,-1.01,11.56,6.29,-19.67
16.75648999214172,3,3,3,0,-10.42,-4.43,-2.75,8.94,5.63,-18.77
16.76648998260498,3,3,3,0,-10.74,-3.91,-1.28,8.82,5.08,-17.35
16.77648997306824,3,3,3,0,-10.98,-3.06,0.09,7.03,4.53,-16.54
16.78648996353149,3,3,3,0,-10.98,-3.06,0.09,4.22,4.09,-16.28
16.79648995399475,3,3,3,0,-11.21,-1.61,1.88,0.7,4.26,-15.93
16.80648994445801,3,3,3,0,-9.640000000000001,-1.05,0.01,-3.4,4.65,-15.64
16.81648993492126,3,3,3,0,-9.27,-1.06,-0.93,-5.91,4.97,-15.73
16.82648992538452,3,3,3,0,-9.44,-0.74,-1.57,-6.35,5.08,-16.23
16.83648991584778,3,3,3,1,-9.44,-0.74,-1.57,-6.07,5.21,-16.62
16.84648990631104,3,3,3,1,-9.43,-0.7,-1.94,-4.9,5.56,-17.02
16.85648989677429,3,3,3,1,-9.470000000000001,-1.92,-2.54,-2.5,5.63,-17.38
16.86648988723755,3,3,3,1,-9.609999999999999,-2.38,-2.16,0.52,5.5,-17.58
16.87648987770081,3,3,3,1,-9.48,-2.37,-1.91,3.32,5.07,-17.43
16.88649010658264,3,3,3,1,-9.48,-2.37,-1.91,6.32,4.5,-17.39
16.8964900970459,3,3,3,1,-9.779999999999999,-2.78,-0.7,9.789999999999999,3.73,-17.86
16.90649008750916,3,3,3,1,-9.83,-1.91,-0.47,11.73,2.76,-18.18
16.91649007797241,3,3,3,1,-9.710000000000001,-1.03,0.08,12.07,1.79,-18.11
16.92649006843567,3,3,3,1,-9.5,-0.75,-0.09,11.27,0.95,-17.84
16.93649005889893,3,3,3,2,-9.5,-0.75,-0.09,9.49,0.57,-17.63
16.95649003982544,3,3,3,2,-9.140000000000001,-0.1,-1.1,7.31,0.38,-17.78
16.9664900302887,3,3,3,2,-9.27,0.17,-1.23,3.57,-0.06,-18.58
16.97649002075195,3,3,3,2,-9.43,0.7,-1.16,2.6,0.23,-19.01
16.98649001121521,3,3,3,2,-9.43,0.7,-1.16,2.6,0.82,-18.73
16.99649000167847,3,3,3,2,-9.4,1.2,-1.08,2.6,0.82,-18.73
17.00648999214172,3,3,3,2,-9.609999999999999,1.71,-1.28,6.59,2.31,-15.62
17.01648998260498,3,3,3,2,-9.550000000000001,2.13,-1.71,6.59,2.31,-15.62
17.02648997306824,3,3,3,2,-9.51,2.14,-1.67,6.49,2.42,-13.83
17.03648996353149,3,3,3,2,-9.51,2.14,-1.67,1.2,2.14,-11.67
17.04648995399475,3,3,3,2,-10.14,0.38,-0.42,1.2,2.14,-11.67
17.05648994445801,3,3,3,2,-10.39,-0.66,-0.1,-1.06,2.02,-11.26
17.06648993492126,3,3,3,2,-10.42,-1.21,0.29,-1.7,2.11,-11.08
17.07648992538452,3,3,3,2,-9.92,-1.99,0.08,-0.16,2.44,-11.06
17.08648991584778,3,3,3,2,-9.74,-2.48,0.18,4.92,3.41,-10.97
17.09648990631104,3,3,3,2,-9.800000000000001,-3.02,0.25,4.92,3.41,-10.97
17.10648989677429,3,3,3,2,-9.81,-3.36,0.12,7.79,3.6,-10.94
17.11648988723755,3,3,3,2,-9.58,-3.15,-0.49,9.92,3.51,-10.79
17.12648987770081,3,3,3,2,-9.460000000000001,-2.73,-0.6899999999999999,11.35,3.33,-10.55
17.13649010658264,3,3,3,2,-9.41,-2.37,-0.9,12.48,3.12,-10.34
17.1464900970459,3,3,3,2,-9.359999999999999,-2,-0.85,12.48,3.12,-10.34
17.15649008750916,3,3,3,2,-9.65,-1.31,-0.74,12.74,3.1,-10.37
17.16649007797241,3,3,3,2,-9.779999999999999,-1.16,-0.48,12.68,3.12,-10.39
17.17649006843567,3,3,3,2,-9.81,-1.11,-0.35,11.91,2.86,-10.43
17.18649005889893,3,3,3,2,-10,-0.8100000000000001,-0.2,10.74,2.49,-10.51
17.19649004936218,3,3,3,2,-10.44,-0.51,0.02,9.699999999999999,2.06,-10.33
17.20649003982544,3,3,3,2,-10.82,-0.5600000000000001,-0.11,8.41,1.58,-9.98
17.2164900302887,3,3,3,2,-11.38,-0.63,0.02,7.63,1.31,-9.59
17.22649002075195,3,3,3,2,-11.92,-0.85,-0.02,7.85,1.28,-9.18
17.23649001121521,3,3,3,2,-12.66,-0.53,-0.45,9,1.35,-8.699999999999999
17.24649000167847,3,3,3,2,-12.95,0.3,-0.83,10.84,1.35,-8.210000000000001
17.25648999214172,3,3,3,2,-13.31,1.48,-1.16,12.76,1.15,-7.84
17.26748991012573,3,3,3,2,-14.18,4.56,-0.39,14.19,0.8,-7.47
17.27648997306824,3,3,3,2,-14.16,6.21,-0.01,15.31,0.54,-6.57
17.28648996353149,3,3,3,2,-13.87,7.73,0.32,16.31,0.13,-4.79
17.2974898815155,3,3,3,2,-13.63,7.92,1.28,16.78,-0.27,-2.2
17.30749011039734,3,3,3,2,-13.57,7.52,1.99,15.05,-0.85,0.46
17.3174901008606,3,3,3,2,-13.77,7.89,2.69,12.97,-1.82,3.47
17.32749009132385,3,3,3,2,-13.34,8.039999999999999,2.36,11.82,-3.21,7.65
17.33749008178711,3,3,3,2,-12.77,7.74,1.11,10.98,-5.81,11.2
17.34749007225037,3,3,3,2,-12.38,4.74,-1.01,10.05,-7.77,13.21
17.35749006271362,3,3,3,2,-13.56,0.85,-1.87,8.02,-7.7,14.89
17.36749005317688,3,3,3,2,-15.57,-2.52,-1.29,2.42,-5.15,17.09
17.37749004364014,3,3,3,2,-16.39,-3.86,-1.38,-0.89,-3.35,18.95
17.38749003410339,3,3,3,2,-17.18,-4.82,-1.45,-1.71,-2.88,20.21
17.39749002456665,3,3,3,2,-16.73,-5.58,-0.99,0.01,-1.32,20.45
17.40749001502991,3,3,3,2,-15.51,-6.04,-0.6,1.35,0.61,19.96
17.41749000549316,3,3,3,2,-14.24,-5.47,-0.49,1.59,2.32,20.22
17.42748999595642,3,3,3,2,-13.6,-5.8,1.69,2.17,3.95,21.14
17.43748998641968,3,3,3,2,-12.93,-7.66,2.12,0.39,5.06,21.95
17.44748997688293,3,3,3,2,-11.95,-8.31,0.97,-2.93,4.52,22.07
17.45748996734619,3,3,3,2,-11.53,-8.300000000000001,0.72,-3.4,5.03,22.18
17.46748995780945,3,3,3,2,-11.67,-8.09,0.38,-2.24,5.85,22.21
17.47748994827271,3,3,3,2,-11.63,-7.7,0.05,-1.17,5.84,22.85
17.48748993873596,3,3,3,2,-11.29,-7.08,-0.17,0.15,5.65,23.75
17.49748992919922,3,3,3,2,-11.14,-6.49,-0.27,1.17,5.37,24.58
17.50748991966248,3,3,3,2,-10.39,-5.99,-0.26,1.51,5.19,25.48
17.51748991012573,3,3,3,2,-9.93,-5.53,-0.13,1.43,5,26.24
17.52748990058899,3,3,3,2,-9.66,-5.37,0.12,0.82,4.7,26.62
17.53748989105225,3,3,3,2,-9.279999999999999,-5.07,0.25,-0.78,4.68,26.81
17.5474898815155,3,3,3,2,-7.97,-5.02,-0.1,-3.49,4.42,26.7
17.55749011039734,3,3,3,2,-7.66,-5.2,-0.5,-6.27,4.1,26.6
17.5674901008606,3,3,3,2,-7.41,-5.29,-0.73,-9.119999999999999,3.77,26.49
17.57749009132385,3,3,3,2,-7.13,-5.3,-0.83,-11.6,3.28,26.34
17.58749008178711,3,3,3,2,-6.78,-5.28,-0.5600000000000001,-13.7,2.72,26.05
17.59749007225037,3,3,3,2,-6.46,-5.84,-0.55,-15.68,1.94,25.33
17.60749006271362,3,3,3,2,-6.26,-6.41,-0.73,-17.4,0.9399999999999999,23.65
17.61749005317688,3,3,3,2,-5.68,-7.08,-1.06,-18.43,-0.11,22.34
17.62749004364014,3,3,3,2,-5.52,-6.91,-0.83,-17.77,-1.05,20.79
17.63749003410339,3,3,3,2,-5.78,-6.91,-0.37,-17.17,-1.84,19.33
17.64749002456665,3,3,3,2,-5.95,-6.88,-0.47,-18.07,-2.17,17.39
17.65749001502991,3,3,3,2,-6.08,-7.8,-1.08,-19.23,-2.33,15.31
17.66749000549316,3,3,3,2,-5.9,-8.09,-1.05,-19.38,-2.37,13.37
17.67748999595642,3,3,3,2,-5.66,-8.640000000000001,-0.85,-18.09,-2.54,11.9
17.68748998641968,3,3,3,2,-5.28,-8.1,-0.6,-16.2,-3.03,10.64
17.69748997688293,3,3,3,2,-4.48,-9.699999999999999,-0.5,-13.67,-3.6,9.5
17.70748996734619,3,3,3,2,-3.83,-10.39,-0.83,-10.35,-3.44,8.07
17.71748995780945,3,3,3,2,-3.37,-10.12,-1.46,-5.07,-3.15,5.99
17.72748994827271,3,3,3,2,-3.79,-8.23,-1.6,0.54,-2.53,3.42
17.73748993873596,3,3,3,2,-4,-3.9,-0.64,2.82,-1.54,0.5600000000000001
17.74748992919922,3,3,3,2,-5.3,-1.57,0.05,0.5,-0.7,-1.57
17.75748991966248,3,3,3,2,-7.75,1.36,0.63,-1.65,0.7,-2.77
17.76748991012573,3,3,3,2,-10.92,4.49,1.6,-1.14,2.02,-2.99
17.77748990058899,3,3,3,2,-15.77,16.28,7.02,0.87,2.08,-1.93
17.78748989105225,3,3,3,2,-14.68,25.49,9.58,3.29,0.89,-0.8
17.7974898815155,3,3,3,2,-14.57,34.82,7.03,4.61,2.32,-0.32
17.80749011039734,3,3,3,2,-21.07,36.08,-0.8100000000000001,-1.15,11.34,3.71
17.8174901008606,3,3,3,2,-14.32,18.32,1.75,-10.19,8.68,9.609999999999999
17.82749009132385,3,3,3,2,-10.34,6.38,5.97,-7.8,-3.18,10.73
17.83749008178711,3,3,3,2,-8.99,-1.95,3.47,-1.63,0.53,10.35
17.84749007225037,3,3,3,2,-8.539999999999999,-4.15,0.54,0.08,5.52,9.210000000000001
17.85749006271362,3,3,3,2,-10.8,0.25,-1.79,5.47,5.21,6.85
17.86749005317688,3,3,3,2,-9.640000000000001,1.72,-4.2,7.57,4.96,3.59
17.87749004364014,3,3,3,2,-11.7,1.69,-2.91,-0.79,5.7,2.12
17.88749003410339,3,3,3,2,-9.59,-6.97,8.66,-22.04,2.14,0.87
17.89749002456665,3,3,3,2,-9.98,11.98,12.87,-20.57,-11.29,-4.38
17.90749001502991,3,3,3,2,-15.24,10.7,3.94,-12.02,-13.36,-6.92
17.91749000549316,3,3,3,2,-17.47,3.25,-0.25,-20.88,-7.21,-4.5
17.92748999595642,3,3,3,2,-15.1,-2.36,-2.39,-20.67,0.86,-3.57
17.93748998641968,3,3,3,2,-10.46,-14.14,-1.91,-19.77,3,-3.78
17.94748997688293,3,3,3,2,-11.57,-14.42,-5.17,-14.27,4.19,-5.75
17.95748996734619,3,3,3,2,-12.15,-13.74,-7.71,-5.2,6.31,-7.52
17.96748995780945,3,3,3,2,-9.84,-6.06,-4.87,1.69,7.66,-8.57
17.97748994827271,3,3,3,2,-9.550000000000001,-2.65,0.49,8.779999999999999,6.23,-12.43
17.98748993873596,3,3,3,2,-10.49,-3.5,0.65,14.77,5.88,-16.92
17.99748992919922,3,3,3,2,-10.5,-4.72,-2.4,10.94,6.67,-17.93
18.00748991966248,3,3,3,2,-9.960000000000001,-5.54,-2.28,6.61,5.91,-16.84
18.01748991012573,3,3,3,2,-10.52,-4.48,-2.13,8.17,5.3,-15.91
18.02748990058899,3,3,3,2,-10.48,-2.82,-1.71,9.82,4.87,-15.58
18.03748989105225,3,3,3,2,-10.24,-1.58,-0.65,8.880000000000001,3.95,-15.72
18.0474898815155,3,3,3,2,-10.73,0.44,0.04,6.09,3.79,-16.05
18.05749011039734,3,3,3,2,-10.45,0.55,-0.46,1.43,4,-16.24
18.0674901008606,3,3,3,2,-9.66,0.36,-0.98,-3.87,4.16,-16.26
18.07749009132385,3,3,3,2,-9.19,-0.34,-1.27,-7.9,4.19,-16.15
18.08749008178711,3,3,3,2,-9.19,-2.1,-1.44,-9.15,4.34,-16.22
18.09749007225037,3,3,3,2,-9.26,-2.63,-1.76,-7.84,4.39,-16.25
18.10749006271362,3,3,3,2,-9.49,-2.68,-2.17,-5.37,4.57,-16.26
18.11749005317688,3,3,3,2,-9.640000000000001,-2.54,-2.25,-1.99,4.69,-16.27
18.12749004364014,3,3,3,2,-9.699999999999999,-2.46,-1.36,1.6,4.56,-16.28
18.13749003410339,3,3,3,2,-9.630000000000001,-2.03,-1.09,5.35,4.14,-16.41
18.14749002456665,3,3,3,2,-9.43,-1.08,-0.76,8.52,3.63,-16.79
18.15749001502991,3,3,3,2,-9.41,-0.74,-0.45,10.49,3.04,-17.12
18.16749000549316,3,3,3,2,-9.109999999999999,-0.2,0.16,11.18,2.27,-17.18
18.17748999595642,3,3,3,2,-9.119999999999999,-0.24,0.05,10.03,1.64,-16.98
18.18748998641968,3,3,3,2,-9.26,-0.36,-0.02,8.24,1.3,-16.51
18.19748997688293,3,3,3,2,-9.4,-0.6899999999999999,-0.19,6.36,1.19,-15.92
18.20748996734619,3,3,3,2,-9.880000000000001,-1.13,-0.59,4.98,1.18,-15.53
18.21748995780945,3,3,3,2,-10.05,-0.99,-0.63,4.1,1.14,-15.49
18.22748994827271,3,3,3,2,-9.949999999999999,-0.54,-0.6,4.1,1.02,-15.81
18.23748993873596,3,3,3,2,-9.5,0.3,-0.76,4.55,0.72,-16.4
18.24748992919922,3,3,3,2,-9.470000000000001,1.87,-1.16,4.64,0.61,-17.02
18.25748991966248,3,3,3,2,-9.210000000000001,2.34,-1.13,4.33,0.55,-17.47
18.26748991012573,3,3,3,2,-9.050000000000001,2.02,-0.83,3.51,0.66,-17.26
18.27748990058899,3,3,3,2,-9.24,1.47,-0.6,2.73,1.1,-16.64
18.28748989105225,3,3,3,2,-9.960000000000001,0.34,-0.49,2.88,1.64,-15.86
18.2974898815155,3,3,3,2,-10.22,-0.18,-0.51,2.94,2.01,-14.72
18.30749011039734,3,3,3,2,-10.16,-0.55,-0.8,3.18,2.06,-13.48
18.3174901008606,3,3,3,2,-10.34,-1.02,-0.65,3.22,2.37,-12.41
18.3284900188446,3,3,3,2,-9.91,-1.73,-0.39,3.76,2.49,-11.66
18.33849000930786,3,3,3,2,-9.76,-1.99,-0.39,4.93,2.8,-11.53
18.34848999977112,3,3,3,2,-9.550000000000001,-2.23,-0.34,7.12,3.23,-11.78
18.35848999023438,3,3,3,2,-9.869999999999999,-2.02,-0.2,9.34,3.62,-12.05
18.36848998069763,3,3,3,2,-10.19,-1.8,-0.21,11.49,3.59,-12.17
18.37848997116089,3,3,3,2,-10.47,-1.37,-0.16,12.7,3.34,-12.09
18.38848996162415,3,3,3,2,-10.69,-0.72,-0.22,13.2,2.87,-11.95
18.3984899520874,3,3,3,2,-10.68,0.23,-0.34,12.94,2.35,-11.8
18.40848994255066,3,3,3,2,-10.78,0.26,-0.3,11.76,1.84,-11.68
18.41848993301392,3,3,3,2,-10.95,0.07000000000000001,-0.22,9.98,1.51,-11.65
18.42848992347717,3,3,3,2,-11.15,-0.49,-0.44,8.27,1.25,-11.51
18.43848991394043,3,3,3,3,-11.79,-1.21,-0.3,6.96,1.15,-11.18
18.44848990440369,3,3,3,3,-12.06,-1.48,-0.38,6.83,1.01,-10.93
18.45848989486694,3,3,3,3,-12.32,-1.34,-0.6899999999999999,7.51,0.85,-10.59
18.4684898853302,3,3,3,3,-12.4,-0.8,-0.92,8.82,0.77,-10.08
18.47848987579346,3,3,3,3,-12.85,1.11,-0.95,10.2,0.66,-9.6
18.48849010467529,3,3,3,3,-13.31,2.33,-0.28,11.73,0.58,-9.16
18.49849009513855,3,3,3,3,-13.65,3.59,0.18,13.19,0.5600000000000001,-8.34
18.50849008560181,3,3,3,3,-13.59,4.72,0.07000000000000001,14.31,0.51,-6.61
18.51849007606506,3,3,3,3,-13.65,6.62,1.43,15.48,0.43,-4.1
18.52849006652832,3,3,3,3,-14.23,6.33,3.45,17.2,0.5,-1.54
18.53849005699158,3,3,3,3,-14.96,6.08,5.07,18.25,-0.16,1.57
18.54849004745483,3,3,3,3,-14.87,4.9,5.56,18.13,-2.12,5.69
18.55849003791809,3,3,3,3,-11.52,6.13,-0.63,17.51,-5.25,9.369999999999999
18.56849002838135,3,3,3,3,-10.8,6.96,-1.46,17.23,-5.9,11.68
18.5784900188446,3,3,3,3,-12.09,4.92,-0.84,13.97,-4.36,14
18.58849000930786,3,3,3,3,-13.42,0.92,-0.97,6.7,-5.31,16.81
18.59848999977112,3,3,3,3,-15.6,-1.75,-3.04,1.44,-5.58,18.7
18.60848999023438,3,3,3,3,-16.56,-2.39,-2.71,0.58,-3.49,19.01
18.61848998069763,3,3,3,3,-16.69,-3.28,-2.29,0.22,-0.92,18.87
18.62848997116089,3,3,3,3,-16.04,-4.49,-1.42,-2.43,1.17,19.37
18.63848996162415,3,3,3,3,-14.24,-4.67,0.02,-6.1,3.16,20.21
18.6484899520874,3,3,3,3,-13.41,-5.05,0.49,-8.41,4.99,20.94
18.65848994255066,3,3,3,3,-12.78,-6.91,1.55,-10.41,5.76,21.6
18.66848993301392,3,3,3,3,-11.83,-8.140000000000001,0.72,-12.64,5.38,21.66
18.67848992347717,3,3,3,3,-11.31,-8.949999999999999,-0.23,-11.6,5.65,21.43
18.68848991394043,3,3,3,3,-11.26,-8.69,-0.09,-8.27,5.99,21.55
18.69848990440369,3,3,3,3,-11.16,-7.96,0.1,-4.71,5.78,21.98
18.70848989486694,3,3,3,3,-10.23,-6.43,-0.1,-2.07,5.11,22.55
