timestamp,magCalib,accCalib,gyrCalib,sysCalib,accX,accY,accZ,gyrX,gyrY,gyrZ
0.06731092929840088,3,3,3,2,-9.640000000000001,0.88,-1.33,-0.33,-0.16,-0.17
0.06731092929840088,3,3,3,2,-9.640000000000001,0.88,-1.33,-0.33,-0.16,-0.17
0.08731091022491455,3,3,3,2,-9.65,0.85,-1.5,-0.47,0.04,-0.23
0.08731091022491455,3,3,3,2,-9.65,0.85,-1.5,-0.47,0.04,-0.23
0.1073108911514282,3,3,3,2,-9.66,0.77,-1.44,-0.55,0,-0.23
0.1073108911514282,3,3,3,2,-9.66,0.77,-1.44,-0.55,0,-0.23
0.1273108720779419,3,3,3,2,-9.65,0.77,-1.39,-0.62,0,-0.25
0.1273108720779419,3,3,3,2,-9.65,0.77,-1.39,-0.62,0,-0.25
0.1473110914230347,3,3,3,2,-9.6,0.72,-1.47,-0.65,-0.03,-0.25
0.1473110914230347,3,3,3,2,-9.6,0.72,-1.47,-0.65,-0.03,-0.25
0.1673110723495483,3,3,3,2,-9.619999999999999,0.68,-1.51,-0.54,0.05,-0.24
0.1673110723495483,3,3,3,2,-9.619999999999999,0.68,-1.51,-0.54,0.05,-0.24
0.187311053276062,3,3,3,2,-9.6,0.7,-1.64,-0.08,0.16,-0.08
0.187311053276062,3,3,3,2,-9.6,0.7,-1.64,-0.08,0.16,-0.08
0.2073110342025757,3,3,3,2,-9.67,0.84,-1.59,-0.04,0.01,-0.03
0.2073110342025757,3,3,3,2,-9.67,0.84,-1.59,-0.04,0.01,-0.03
0.2273110151290894,3,3,3,2,-9.619999999999999,0.65,-1.55,0.1,-0.12,0.13
0.2273110151290894,3,3,3,2,-9.619999999999999,0.65,-1.55,0.1,-0.12,0.13
0.247310996055603,3,3,3,2,-9.619999999999999,0.7,-1.6,0.23,0.04,0.16
0.247310996055603,3,3,3,2,-9.619999999999999,0.7,-1.6,0.23,0.04,0.16
0.2673109769821167,3,3,3,2,-9.65,0.61,-1.42,0.24,-0.07000000000000001,0.09
0.2673109769821167,3,3,3,2,-9.65,0.61,-1.42,0.24,-0.07000000000000001,0.09
0.2873109579086304,3,3,3,2,-9.710000000000001,0.6899999999999999,-1.55,0.33,0.04,0.09
0.2873109579086304,3,3,3,2,-9.710000000000001,0.6899999999999999,-1.55,0.33,0.04,0.09
0.307310938835144,3,3,3,2,-9.630000000000001,0.73,-1.52,0.24,0.05,0.05
0.307310938835144,3,3,3,2,-9.630000000000001,0.73,-1.52,0.24,0.05,0.05
0.3273109197616577,3,3,3,2,-9.630000000000001,0.7,-1.46,0.07000000000000001,-0.1,0.03
0.3273109197616577,3,3,3,2,-9.630000000000001,0.7,-1.46,0.07000000000000001,-0.1,0.03
0.3473109006881714,3,3,3,2,-9.65,0.65,-1.49,0.11,-0.06,0
0.3473109006881714,3,3,3,2,-9.65,0.65,-1.49,0.11,-0.06,0
0.3673108816146851,3,3,3,2,-9.619999999999999,0.67,-1.49,0.03,-0.15,0
0.3673108816146851,3,3,3,2,-9.619999999999999,0.67,-1.49,0.03,-0.15,0
0.3883110284805298,3,3,3,2,-9.65,0.7,-1.55,0.18,0.07000000000000001,-0.05
0.3883110284805298,3,3,3,2,-9.65,0.7,-1.55,0.18,0.07000000000000001,-0.05
0.4083110094070435,3,3,3,2,-9.630000000000001,0.68,-1.45,0.14,0.04,-0.02
0.4083110094070435,3,3,3,2,-9.630000000000001,0.68,-1.45,0.14,0.04,-0.02
0.4283109903335571,3,3,3,2,-9.619999999999999,0.59,-1.44,0.1,0.09,-0.06
0.4283109903335571,3,3,3,2,-9.619999999999999,0.59,-1.44,0.1,0.09,-0.06
0.4483109712600708,3,3,3,2,-9.66,0.57,-1.59,0.15,0.07000000000000001,-0.04
0.4483109712600708,3,3,3,2,-9.66,0.57,-1.59,0.15,0.07000000000000001,-0.04
0.4683109521865845,3,3,3,2,-9.630000000000001,0.68,-1.53,0.17,-0.04,0.05
0.4683109521865845,3,3,3,2,-9.630000000000001,0.68,-1.53,0.17,-0.04,0.05
0.4883109331130981,3,3,3,2,-9.65,0.74,-1.64,0.21,0,0.14
0.4883109331130981,3,3,3,2,-9.65,0.74,-1.64,0.21,0,0.14
0.5083109140396118,3,3,3,2,-9.630000000000001,0.75,-1.54,0.21,0,0.21
0.5083109140396118,3,3,3,2,-9.630000000000001,0.75,-1.54,0.21,0,0.21
0.5283108949661255,3,3,3,2,-9.640000000000001,0.76,-1.48,0.19,-0.02,0.19
0.5283108949661255,3,3,3,2,-9.640000000000001,0.76,-1.48,0.19,-0.02,0.19
0.5483108758926392,3,3,3,2,-9.630000000000001,0.6899999999999999,-1.5,0.15,-0.02,0.19
0.5483108758926392,3,3,3,2,-9.630000000000001,0.6899999999999999,-1.5,0.15,-0.02,0.19
0.5683110952377319,3,3,3,2,-9.68,0.73,-1.56,0.18,-0.02,0.11
0.5683110952377319,3,3,3,2,-9.68,0.73,-1.56,0.18,-0.02,0.11
0.5883110761642456,3,3,3,2,-9.619999999999999,0.73,-1.6,0.17,0.1,0.08
0.5883110761642456,3,3,3,2,-9.619999999999999,0.73,-1.6,0.17,0.1,0.08
0.6083110570907593,3,3,3,2,-9.65,0.7,-1.46,0.11,0.06,0.11
0.6083110570907593,3,3,3,2,-9.65,0.7,-1.46,0.11,0.06,0.11
0.6283110380172729,3,3,3,2,-9.65,0.67,-1.45,-0.05,-0.07000000000000001,0.02
0.6283110380172729,3,3,3,2,-9.65,0.67,-1.45,-0.05,-0.07000000000000001,0.02
0.6483110189437866,3,3,3,2,-9.67,0.67,-1.59,-0.02,0.02,-0.02
0.6483110189437866,3,3,3,2,-9.67,0.67,-1.59,-0.02,0.02,-0.02
0.6683109998703003,3,3,3,2,-9.6,0.75,-1.5,0.01,0.25,0
0.6683109998703003,3,3,3,2,-9.6,0.75,-1.5,0.01,0.25,0
0.688310980796814,3,3,3,2,-9.640000000000001,0.79,-1.65,-0.06,-0.03,-0.02
0.688310980796814,3,3,3,2,-9.640000000000001,0.79,-1.65,-0.06,-0.03,-0.02
0.7083109617233276,3,3,3,2,-9.65,0.73,-1.54,-0.06,0.06,-0.01
0.7083109617233276,3,3,3,2,-9.65,0.73,-1.54,-0.06,0.06,-0.01
0.7283109426498413,3,3,3,2,-9.65,0.6899999999999999,-1.57,-0.05,0,-0.01
0.7283109426498413,3,3,3,2,-9.65,0.6899999999999999,-1.57,-0.05,0,-0.01
0.748310923576355,3,3,3,2,-9.630000000000001,0.66,-1.57,0.02,-0.09,-0.03
0.748310923576355,3,3,3,2,-9.630000000000001,0.66,-1.57,0.02,-0.09,-0.03
0.7683109045028687,3,3,3,3,-9.6,0.75,-1.51,0.07000000000000001,0.06,-0.11
0.7683109045028687,3,3,3,3,-9.6,0.75,-1.51,0.07000000000000001,0.06,-0.11
0.7883108854293823,3,3,3,3,-9.630000000000001,0.83,-1.65,0.02,0.18,-0.01
0.7883108854293823,3,3,3,3,-9.630000000000001,0.83,-1.65,0.02,0.18,-0.01
0.8083111047744751,3,3,3,3,-9.609999999999999,0.8100000000000001,-1.64,-0.03,0.08,-0.03
0.8083111047744751,3,3,3,3,-9.609999999999999,0.8100000000000001,-1.64,-0.03,0.08,-0.03
0.8283110857009888,3,3,3,3,-9.619999999999999,0.6899999999999999,-1.54,0.01,-0.14,0.04
0.8283110857009888,3,3,3,3,-9.619999999999999,0.6899999999999999,-1.54,0.01,-0.14,0.04
0.8483110666275024,3,3,3,3,-9.630000000000001,0.59,-1.53,0.09,0.01,0
0.8483110666275024,3,3,3,3,-9.630000000000001,0.59,-1.53,0.09,0.01,0
0.8683110475540161,3,3,3,3,-9.68,0.6,-1.44,0.04,0.07000000000000001,-0.06
0.8683110475540161,3,3,3,3,-9.68,0.6,-1.44,0.04,0.07000000000000001,-0.06
0.8883110284805298,3,3,3,3,-9.67,0.64,-1.63,0.02,-0.02,-0.09
0.8883110284805298,3,3,3,3,-9.67,0.64,-1.63,0.02,-0.02,-0.09
0.9083110094070435,3,3,3,3,-9.619999999999999,0.66,-1.55,0,-0.01,-0.01
0.9083110094070435,3,3,3,3,-9.619999999999999,0.66,-1.55,0,-0.01,-0.01
0.9283109903335571,3,3,3,3,-9.640000000000001,0.67,-1.5,0.04,0.13,-0.05
0.9283109903335571,3,3,3,3,-9.640000000000001,0.67,-1.5,0.04,0.13,-0.05
0.9483109712600708,3,3,3,3,-9.640000000000001,0.63,-1.49,-0.08,0.07000000000000001,-0.13
0.9483109712600708,3,3,3,3,-9.640000000000001,0.63,-1.49,-0.08,0.07000000000000001,-0.13
0.9683109521865845,3,3,3,3,-9.67,0.65,-1.52,-0.16,0.04,-0.1
0.9683109521865845,3,3,3,3,-9.67,0.65,-1.52,-0.16,0.04,-0.1
0.9883109331130981,3,3,3,3,-9.630000000000001,0.57,-1.6,-0.08,0.11,-0.09
0.9883109331130981,3,3,3,3,-9.630000000000001,0.57,-1.6,-0.08,0.11,-0.09
1.008310914039612,3,3,3,3,-9.640000000000001,0.59,-1.55,0.05,0.07000000000000001,-0.08
1.008310914039612,3,3,3,3,-9.640000000000001,0.59,-1.55,0.05,0.07000000000000001,-0.08
1.028310894966125,3,3,3,3,-9.67,0.64,-1.53,0.04,0,0.07000000000000001
1.028310894966125,3,3,3,3,-9.67,0.64,-1.53,0.04,0,0.07000000000000001
1.048310875892639,3,3,3,3,-9.630000000000001,0.7,-1.57,0.08,-0.02,0
1.048310875892639,3,3,3,3,-9.630000000000001,0.7,-1.57,0.08,-0.02,0
1.068311095237732,3,3,3,3,-9.58,0.75,-1.53,0.08,0.15,0.08
1.068311095237732,3,3,3,3,-9.58,0.75,-1.53,0.08,0.15,0.08
1.088311076164246,3,3,3,3,-9.68,0.66,-1.64,0.11,0.13,0.12
1.088311076164246,3,3,3,3,-9.68,0.66,-1.64,0.11,0.13,0.12
1.108311057090759,3,3,3,3,-9.619999999999999,0.67,-1.52,-0.02,-0.02,0.11
1.108311057090759,3,3,3,3,-9.619999999999999,0.67,-1.52,-0.02,-0.02,0.11
1.128311038017273,3,3,3,3,-9.68,0.66,-1.57,-0.01,0.16,0.04
1.128311038017273,3,3,3,3,-9.68,0.66,-1.57,-0.01,0.16,0.04
1.148311018943787,3,3,3,3,-9.66,0.68,-1.56,-0.01,0.06,0.12
1.148311018943787,3,3,3,3,-9.66,0.68,-1.56,-0.01,0.06,0.12
1.1683109998703,3,3,3,3,-9.66,0.68,-1.56,0,0.11,0.06
1.1683109998703,3,3,3,3,-9.66,0.68,-1.56,0,0.11,0.06
1.188310980796814,3,3,3,3,-9.630000000000001,0.6,-1.55,-0.07000000000000001,0.05,0.09
1.188310980796814,3,3,3,3,-9.630000000000001,0.6,-1.55,-0.07000000000000001,0.05,0.09
1.208310961723328,3,3,3,3,-9.65,0.62,-1.49,0,0.03,0.04
1.208310961723328,3,3,3,3,-9.65,0.62,-1.49,0,0.03,0.04
1.228310942649841,3,3,3,3,-9.65,0.62,-1.64,-0.09,-0.03,0.15
1.228310942649841,3,3,3,3,-9.65,0.62,-1.64,-0.09,-0.03,0.15
1.248310923576355,3,3,3,3,-9.640000000000001,0.65,-1.5,0.01,0.07000000000000001,0.19
1.248310923576355,3,3,3,3,-9.640000000000001,0.65,-1.5,0.01,0.07000000000000001,0.19
1.268310904502869,3,3,3,3,-9.619999999999999,0.67,-1.54,0.03,0,0.14
1.268310904502869,3,3,3,3,-9.619999999999999,0.67,-1.54,0.03,0,0.14
1.288310885429382,3,3,3,3,-9.630000000000001,0.67,-1.58,0.01,0.05,0.12
1.288310885429382,3,3,3,3,-9.630000000000001,0.67,-1.58,0.01,0.05,0.12
1.308311104774475,3,3,3,3,-9.609999999999999,0.65,-1.52,0.03,0.18,0.17
1.308311104774475,3,3,3,3,-9.609999999999999,0.65,-1.52,0.03,0.18,0.17
1.328311085700989,3,3,3,3,-9.65,0.6899999999999999,-1.61,0.03,0.07000000000000001,0.15
1.328311085700989,3,3,3,3,-9.65,0.6899999999999999,-1.61,0.03,0.07000000000000001,0.15
1.348311066627502,3,3,3,3,-9.619999999999999,0.7,-1.53,-0.06,0.01,0.16
1.348311066627502,3,3,3,3,-9.619999999999999,0.7,-1.53,-0.06,0.01,0.16
1.368311047554016,3,3,3,3,-9.630000000000001,0.63,-1.53,0.1,0.3,0.23
1.368311047554016,3,3,3,3,-9.630000000000001,0.63,-1.53,0.1,0.3,0.23
1.38831102848053,3,3,3,3,-9.640000000000001,0.55,-1.53,0.12,0.15,0.15
1.38831102848053,3,3,3,3,-9.640000000000001,0.55,-1.53,0.12,0.15,0.15
1.408311009407043,3,3,3,3,-9.67,0.59,-1.45,0.16,0.08,0.19
1.408311009407043,3,3,3,3,-9.67,0.59,-1.45,0.16,0.08,0.19
1.429310917854309,3,3,3,3,-9.66,0.6899999999999999,-1.62,0.19,0.06,0.24
1.429310917854309,3,3,3,3,-9.66,0.6899999999999999,-1.62,0.19,0.06,0.24
1.449310898780823,3,3,3,3,-9.6,0.64,-1.55,0.16,0.16,0.26
1.449310898780823,3,3,3,3,-9.6,0.64,-1.55,0.16,0.16,0.26
1.469310879707336,3,3,3,3,-9.65,0.72,-1.61,0.13,0.14,0.29
1.469310879707336,3,3,3,3,-9.65,0.72,-1.61,0.13,0.14,0.29
1.489311099052429,3,3,3,3,-9.640000000000001,0.78,-1.69,0.11,0.15,0.25
1.489311099052429,3,3,3,3,-9.640000000000001,0.78,-1.69,0.11,0.15,0.25
1.509311079978943,3,3,3,3,-9.640000000000001,0.66,-1.55,0.08,0.06,0.32
1.509311079978943,3,3,3,3,-9.640000000000001,0.66,-1.55,0.08,0.06,0.32
1.529311060905457,3,3,3,3,-9.619999999999999,0.7,-1.63,0.07000000000000001,0.21,0.36
1.529311060905457,3,3,3,3,-9.619999999999999,0.7,-1.63,0.07000000000000001,0.21,0.36
1.54931104183197,3,3,3,3,-9.67,0.61,-1.53,0.02,0.11,0.32
1.54931104183197,3,3,3,3,-9.67,0.61,-1.53,0.02,0.11,0.32
1.569311022758484,3,3,3,3,-9.640000000000001,0.66,-1.56,0.2,0.17,0.31
1.569311022758484,3,3,3,3,-9.640000000000001,0.66,-1.56,0.2,0.17,0.31
1.589311003684998,3,3,3,3,-9.609999999999999,0.67,-1.61,0.18,0.05,0.39
1.589311003684998,3,3,3,3,-9.609999999999999,0.67,-1.61,0.18,0.05,0.39
1.609310984611511,3,3,3,3,-9.619999999999999,0.73,-1.58,0.27,0.23,0.37
1.609310984611511,3,3,3,3,-9.619999999999999,0.73,-1.58,0.27,0.23,0.37
1.629310965538025,3,3,3,3,-9.619999999999999,0.71,-1.67,0.15,0.23,0.36
1.629310965538025,3,3,3,3,-9.619999999999999,0.71,-1.67,0.15,0.23,0.36
1.649310946464539,3,3,3,3,-9.640000000000001,0.64,-1.61,0.22,0.21,0.39
1.649310946464539,3,3,3,3,-9.640000000000001,0.64,-1.61,0.22,0.21,0.39
1.669310927391052,3,3,3,3,-9.65,0.63,-1.6,0.29,0.1,0.39
1.669310927391052,3,3,3,3,-9.65,0.63,-1.6,0.29,0.1,0.39
1.689310908317566,3,3,3,3,-9.6,0.78,-1.6,0.23,0.08,0.4
1.689310908317566,3,3,3,3,-9.6,0.78,-1.6,0.23,0.08,0.4
1.70931088924408,3,3,3,3,-9.609999999999999,0.76,-1.58,0.31,0.15,0.41
1.70931088924408,3,3,3,3,-9.609999999999999,0.76,-1.58,0.31,0.15,0.41
1.729310870170593,3,3,3,3,-9.59,0.8,-1.73,0.35,0.15,0.43
1.729310870170593,3,3,3,3,-9.59,0.8,-1.73,0.35,0.15,0.43
1.749311089515686,3,3,3,3,-9.640000000000001,0.82,-1.63,0.33,0.13,0.42
1.749311089515686,3,3,3,3,-9.640000000000001,0.82,-1.63,0.33,0.13,0.42
1.7693110704422,3,3,3,3,-9.59,0.91,-1.66,0.32,0.09,0.35
1.7693110704422,3,3,3,3,-9.59,0.91,-1.66,0.32,0.09,0.35
1.789311051368713,3,3,3,3,-9.57,0.87,-1.71,0.28,0.17,0.38
1.789311051368713,3,3,3,3,-9.57,0.87,-1.71,0.28,0.17,0.38
1.809311032295227,3,3,3,3,-9.640000000000001,0.9399999999999999,-1.67,0.31,0.2,0.39
1.809311032295227,3,3,3,3,-9.640000000000001,0.9399999999999999,-1.67,0.31,0.2,0.39
1.829311013221741,3,3,3,3,-9.6,0.88,-1.7,0.22,0.05,0.27
1.829311013221741,3,3,3,3,-9.6,0.88,-1.7,0.22,0.05,0.27
1.849310994148254,3,3,3,3,-9.6,0.83,-1.59,0.23,0.19,0.26
1.849310994148254,3,3,3,3,-9.6,0.83,-1.59,0.23,0.19,0.26
1.869310975074768,3,3,3,3,-9.59,0.88,-1.59,0.21,0.2,0.3
1.869310975074768,3,3,3,3,-9.59,0.88,-1.59,0.21,0.2,0.3
1.889310956001282,3,3,3,3,-9.6,0.95,-1.66,0.23,0.1,0.24
1.889310956001282,3,3,3,3,-9.6,0.95,-1.66,0.23,0.1,0.24
1.909310936927795,3,3,3,3,-9.59,0.89,-1.67,0.13,0.08,0.21
1.909310936927795,3,3,3,3,-9.59,0.89,-1.67,0.13,0.08,0.21
1.929310917854309,3,3,3,3,-9.58,0.9399999999999999,-1.77,0.12,0.16,0.27
1.929310917854309,3,3,3,3,-9.58,0.9399999999999999,-1.77,0.12,0.16,0.27
1.949310898780823,3,3,3,3,-9.609999999999999,0.9,-1.71,0.14,0.15,0.2
1.949310898780823,3,3,3,3,-9.609999999999999,0.9,-1.71,0.14,0.15,0.2
1.969310879707336,3,3,3,3,-9.609999999999999,0.86,-1.64,0.03,0.09,0.2
1.969310879707336,3,3,3,3,-9.609999999999999,0.86,-1.64,0.03,0.09,0.2
1.989311099052429,3,3,3,3,-9.609999999999999,0.83,-1.73,0.23,0.19,0.24
1.989311099052429,3,3,3,3,-9.609999999999999,0.83,-1.73,0.23,0.19,0.24
2.009311079978943,3,3,3,3,-9.6,0.86,-1.65,0.21,0.07000000000000001,0.27
2.009311079978943,3,3,3,3,-9.6,0.86,-1.65,0.21,0.07000000000000001,0.27
2.029311060905457,3,3,3,3,-9.6,0.87,-1.77,0.31,0.11,0.23
2.029311060905457,3,3,3,3,-9.6,0.87,-1.77,0.31,0.11,0.23
2.04931104183197,3,3,3,3,-9.57,0.85,-1.65,0.26,-0.02,0.25
2.04931104183197,3,3,3,3,-9.57,0.85,-1.65,0.26,-0.02,0.25
2.069311022758484,3,3,3,3,-9.630000000000001,0.82,-1.59,0.28,0.15,0.3
2.069311022758484,3,3,3,3,-9.630000000000001,0.82,-1.59,0.28,0.15,0.3
2.089311003684998,3,3,3,3,-9.66,0.8,-1.72,0.22,0.07000000000000001,0.3
2.089311003684998,3,3,3,3,-9.66,0.8,-1.72,0.22,0.07000000000000001,0.3
2.109310984611511,3,3,3,3,-9.58,0.79,-1.67,0.17,0.04,0.2
2.109310984611511,3,3,3,3,-9.58,0.79,-1.67,0.17,0.04,0.2
2.129310965538025,3,3,3,3,-9.6,0.87,-1.78,0.16,-0.02,0.16
2.129310965538025,3,3,3,3,-9.6,0.87,-1.78,0.16,-0.02,0.16
2.149310946464539,3,3,3,3,-9.609999999999999,0.82,-1.71,0.07000000000000001,0.11,0.18
2.149310946464539,3,3,3,3,-9.609999999999999,0.82,-1.71,0.07000000000000001,0.11,0.18
2.169310927391052,3,3,3,3,-9.640000000000001,0.87,-1.73,0.09,0.1,0.1
2.169310927391052,3,3,3,3,-9.640000000000001,0.87,-1.73,0.09,0.1,0.1
2.189310908317566,3,3,3,3,-9.609999999999999,0.83,-1.69,0.05,-0.03,0.15
2.189310908317566,3,3,3,3,-9.609999999999999,0.83,-1.69,0.05,-0.03,0.15
2.20931088924408,3,3,3,3,-9.609999999999999,0.8100000000000001,-1.67,0.13,0.01,0.09
2.20931088924408,3,3,3,3,-9.609999999999999,0.8100000000000001,-1.67,0.13,0.01,0.09
2.229310870170593,3,3,3,3,-9.6,0.79,-1.73,0.14,0.03,0.1
2.229310870170593,3,3,3,3,-9.6,0.79,-1.73,0.14,0.03,0.1
2.249311089515686,3,3,3,3,-9.67,0.86,-1.71,0.15,0.07000000000000001,0.04
2.249311089515686,3,3,3,3,-9.67,0.86,-1.71,0.15,0.07000000000000001,0.04
2.2693110704422,3,3,3,3,-9.65,0.87,-1.7,0.03,0.05,0.03
2.2693110704422,3,3,3,3,-9.65,0.87,-1.7,0.03,0.05,0.03
2.289311051368713,3,3,3,3,-9.59,0.85,-1.77,-0.02,-0.04,0.01
2.289311051368713,3,3,3,3,-9.59,0.85,-1.77,-0.02,-0.04,0.01
2.309311032295227,3,3,3,3,-9.57,0.82,-1.62,0.09,0.01,0.01
2.309311032295227,3,3,3,3,-9.57,0.82,-1.62,0.09,0.01,0.01
2.329311013221741,3,3,3,3,-9.65,0.8,-1.76,0.09,0,0.05
2.329311013221741,3,3,3,3,-9.65,0.8,-1.76,0.09,0,0.05
2.349310994148254,3,3,3,3,-9.640000000000001,0.79,-1.66,-0.02,0.01,0.01
2.349310994148254,3,3,3,3,-9.640000000000001,0.79,-1.66,-0.02,0.01,0.01
2.369310975074768,3,3,3,3,-9.6,0.79,-1.61,-0.04,-0.01,-0.03
2.369310975074768,3,3,3,3,-9.6,0.79,-1.61,-0.04,-0.01,-0.03
2.389310956001282,3,3,3,3,-9.6,0.82,-1.72,0.08,0.08,-0.04
2.389310956001282,3,3,3,3,-9.6,0.82,-1.72,0.08,0.08,-0.04
2.409310936927795,3,3,3,3,-9.6,0.79,-1.65,0.05,0.01,0.04
2.409310936927795,3,3,3,3,-9.6,0.79,-1.65,0.05,0.01,0.04
2.429310917854309,3,3,3,3,-9.59,0.82,-1.73,0,0,0.03
2.429310917854309,3,3,3,3,-9.59,0.82,-1.73,0,0,0.03
2.450311064720154,3,3,3,3,-9.609999999999999,0.83,-1.71,-0.03,0,-0.02
2.450311064720154,3,3,3,3,-9.609999999999999,0.83,-1.71,-0.03,0,-0.02
2.470311045646667,3,3,3,3,-9.619999999999999,0.83,-1.73,-0.02,-0.07000000000000001,0.01
2.470311045646667,3,3,3,3,-9.619999999999999,0.83,-1.73,-0.02,-0.07000000000000001,0.01
2.490311026573181,3,3,3,3,-9.58,0.83,-1.73,0.01,-0.03,0.01
2.490311026573181,3,3,3,3,-9.58,0.83,-1.73,0.01,-0.03,0.01
2.510311007499695,3,3,3,3,-9.65,0.83,-1.65,-0.06,0.03,0.03
2.510311007499695,3,3,3,3,-9.65,0.83,-1.65,-0.06,0.03,0.03
2.530310988426208,3,3,3,3,-9.609999999999999,0.8,-1.78,-0.11,-0.11,-0.07000000000000001
2.530310988426208,3,3,3,3,-9.609999999999999,0.8,-1.78,-0.11,-0.11,-0.07000000000000001
2.550310969352722,3,3,3,3,-9.57,0.67,-1.65,0,-0.04,-0.06
2.550310969352722,3,3,3,3,-9.57,0.67,-1.65,0,-0.04,-0.06
2.570310950279236,3,3,3,3,-9.630000000000001,0.7,-1.6,-0.02,-0.1,-0.08
2.570310950279236,3,3,3,3,-9.630000000000001,0.7,-1.6,-0.02,-0.1,-0.08
2.59031093120575,3,3,3,3,-9.619999999999999,0.65,-1.62,-0.08,-0.13,-0.14
2.59031093120575,3,3,3,3,-9.619999999999999,0.65,-1.62,-0.08,-0.13,-0.14
2.610310912132263,3,3,3,3,-9.619999999999999,0.39,-1.52,-0.06,0.01,-0.24
2.610310912132263,3,3,3,3,-9.619999999999999,0.39,-1.52,-0.06,0.01,-0.24
2.630310893058777,3,3,3,3,-9.69,0.32,-1.62,-0.16,-0.07000000000000001,-0.45
2.630310893058777,3,3,3,3,-9.69,0.32,-1.62,-0.16,-0.07000000000000001,-0.45
2.650310873985291,3,3,3,3,-9.66,0.43,-1.5,-0.16,-0.18,-0.54
2.650310873985291,3,3,3,3,-9.66,0.43,-1.5,-0.16,-0.18,-0.54
2.670311093330383,3,3,3,3,-9.68,0.52,-1.55,-0.07000000000000001,-0.09,-0.66
2.670311093330383,3,3,3,3,-9.68,0.52,-1.55,-0.07000000000000001,-0.09,-0.66
2.690311074256897,3,3,3,3,-9.630000000000001,0.57,-1.59,-0.11,-0.1,-0.68
2.690311074256897,3,3,3,3,-9.630000000000001,0.57,-1.59,-0.11,-0.1,-0.68
2.710311055183411,3,3,3,3,-9.59,0.85,-1.54,0.07000000000000001,0.03,-0.6899999999999999
2.710311055183411,3,3,3,3,-9.59,0.85,-1.54,0.07000000000000001,0.03,-0.6899999999999999
2.730311036109924,3,3,3,3,-9.550000000000001,0.98,-1.77,0.08,0.19,-0.57
2.730311036109924,3,3,3,3,-9.550000000000001,0.98,-1.77,0.08,0.19,-0.57
2.750311017036438,3,3,3,3,-9.609999999999999,0.91,-1.65,0.01,0.05,-0.5
2.750311017036438,3,3,3,3,-9.609999999999999,0.91,-1.65,0.01,0.05,-0.5
2.770310997962952,3,3,3,3,-9.58,0.73,-1.75,0.1,-0.13,-0.44
2.770310997962952,3,3,3,3,-9.58,0.73,-1.75,0.1,-0.13,-0.44
2.790310978889465,3,3,3,3,-9.6,0.68,-1.71,0.21,-0.07000000000000001,-0.43
2.790310978889465,3,3,3,3,-9.6,0.68,-1.71,0.21,-0.07000000000000001,-0.43
2.810310959815979,3,3,3,3,-9.609999999999999,0.54,-1.62,0.27,-0.04,-0.43
2.810310959815979,3,3,3,3,-9.609999999999999,0.54,-1.62,0.27,-0.04,-0.43
2.830310940742493,3,3,3,3,-9.710000000000001,0.1,-1.58,0.31,0,-0.54
2.830310940742493,3,3,3,3,-9.710000000000001,0.1,-1.58,0.31,0,-0.54
2.850310921669006,3,3,3,3,-9.65,0.24,-1.49,0.28,-0.2,-0.79
2.850310921669006,3,3,3,3,-9.65,0.24,-1.49,0.28,-0.2,-0.79
2.87031090259552,3,3,3,3,-9.609999999999999,-0.2,-1.25,0.03,-0.16,-1.04
2.87031090259552,3,3,3,3,-9.609999999999999,-0.2,-1.25,0.03,-0.16,-1.04
2.890310883522034,3,3,3,3,-9.74,-0.9399999999999999,-1.07,-0.11,-0.08,-1.29
2.890310883522034,3,3,3,3,-9.74,-0.9399999999999999,-1.07,-0.11,-0.08,-1.29
2.910311102867126,3,3,3,3,-9.960000000000001,-1.39,-0.73,-0.07000000000000001,-0.71,-1.79
2.910311102867126,3,3,3,3,-9.960000000000001,-1.39,-0.73,-0.07000000000000001,-0.71,-1.79
2.93031108379364,3,3,3,3,-9.529999999999999,-1,-0.82,-0.08,-0.93,-2.72
2.93031108379364,3,3,3,3,-9.529999999999999,-1,-0.82,-0.08,-0.93,-2.72
2.950311064720154,3,3,3,3,-9.48,-1.81,-0.58,0.36,-0.12,-3.28
2.950311064720154,3,3,3,3,-9.48,-1.81,-0.58,0.36,-0.12,-3.28
2.970311045646667,3,3,3,3,-9.67,-2.63,-0.43,0.16,-0.79,-3.96
2.970311045646667,3,3,3,3,-9.67,-2.63,-0.43,0.16,-0.79,-3.96
2.990311026573181,3,3,3,3,-9.4,-2.3,0.23,0.08,-1.94,-4.92
2.990311026573181,3,3,3,3,-9.4,-2.3,0.23,0.08,-1.94,-4.92
3.010311007499695,3,3,3,2,-9.279999999999999,-3.42,1.09,0.17,-2.43,-6.2
3.010311007499695,3,3,3,2,-9.279999999999999,-3.42,1.09,0.17,-2.43,-6.2
3.030310988426208,3,3,3,2,-9.029999999999999,-2.82,0.42,-1.31,-3.21,-7.92
3.030310988426208,3,3,3,2,-9.029999999999999,-2.82,0.42,-1.31,-3.21,-7.92
3.050310969352722,3,3,3,2,-8.27,-0.57,0.05,-3.48,-2.96,-8.51
3.050310969352722,3,3,3,2,-8.27,-0.57,0.05,-3.48,-2.96,-8.51
3.070310950279236,3,3,3,2,-8.359999999999999,0.04,-0.96,-2.7,-2.81,-8.67
3.070310950279236,3,3,3,2,-8.359999999999999,0.04,-0.96,-2.7,-2.81,-8.67
3.09031093120575,3,3,3,2,-8.550000000000001,-0.21,-1.33,-1.92,-4.16,-9.19
3.09031093120575,3,3,3,2,-8.550000000000001,-0.21,-1.33,-1.92,-4.16,-9.19
3.110310912132263,3,3,3,2,-9.09,-0.24,-1.25,-3.67,-4.48,-8.81
3.110310912132263,3,3,3,2,-9.09,-0.24,-1.25,-3.67,-4.48,-8.81
3.130310893058777,3,3,3,2,-8.9,-1.36,-1.34,-6.9,-4.84,-8.199999999999999
3.130310893058777,3,3,3,2,-8.9,-1.36,-1.34,-6.9,-4.84,-8.199999999999999
3.150310873985291,3,3,3,2,-9.050000000000001,-0.58,-1.87,-0.18,-3.47,-9.56
3.150310873985291,3,3,3,2,-9.050000000000001,-0.58,-1.87,-0.18,-3.47,-9.56
3.170311093330383,3,3,3,2,-8.99,-1.37,-0.47,-0.96,-4.44,-9.69
3.170311093330383,3,3,3,2,-8.99,-1.37,-0.47,-0.96,-4.44,-9.69
3.190311074256897,3,3,3,2,-8.75,-1.41,-1.15,-0.3,-1.72,-9.380000000000001
3.190311074256897,3,3,3,2,-8.75,-1.41,-1.15,-0.3,-1.72,-9.380000000000001
3.210311055183411,3,3,3,2,-8.73,-0.95,-1.62,2,-0.93,-9.710000000000001
3.210311055183411,3,3,3,2,-8.73,-0.95,-1.62,2,-0.93,-9.710000000000001
3.230311036109924,3,3,3,2,-9.4,-1.23,-0.95,1.93,-1.74,-9.369999999999999
3.230311036109924,3,3,3,2,-9.4,-1.23,-0.95,1.93,-1.74,-9.369999999999999
3.250311017036438,3,3,3,2,-9.460000000000001,-1.79,-0.79,1.57,-2.93,-9.220000000000001
3.250311017036438,3,3,3,2,-9.460000000000001,-1.79,-0.79,1.57,-2.93,-9.220000000000001
3.270310997962952,3,3,3,2,-9.210000000000001,-1.52,-1.2,2.82,-1.53,-9.44
3.270310997962952,3,3,3,2,-9.210000000000001,-1.52,-1.2,2.82,-1.53,-9.44
3.290310978889465,3,3,3,2,-10.34,-0.37,-1.58,1.71,-0.28,-9.470000000000001
3.290310978889465,3,3,3,2,-10.34,-0.37,-1.58,1.71,-0.28,-9.470000000000001
3.310310959815979,3,3,3,2,-10.83,-0.12,-1.34,1.06,-0.43,-8.4
3.310310959815979,3,3,3,2,-10.83,-0.12,-1.34,1.06,-0.43,-8.4
3.330310940742493,3,3,3,2,-11.51,-1.75,-1.87,-1.47,0.13,-7.88
3.330310940742493,3,3,3,2,-11.51,-1.75,-1.87,-1.47,0.13,-7.88
3.350310921669006,3,3,3,2,-11.64,-1.5,-2.03,-3.03,0.42,-7.24
3.350310921669006,3,3,3,2,-11.64,-1.5,-2.03,-3.03,0.42,-7.24
3.37031090259552,3,3,3,2,-11.93,-0.23,-2.6,-2.91,0.8100000000000001,-5.75
3.37031090259552,3,3,3,2,-11.93,-0.23,-2.6,-2.91,0.8100000000000001,-5.75
3.390310883522034,3,3,3,2,-11.75,1.4,-3.18,-2.29,1.3,-3.21
3.390310883522034,3,3,3,2,-11.75,1.4,-3.18,-2.29,1.3,-3.21
3.410311102867126,3,3,3,2,-13.55,1.17,-3.37,-2.49,1.49,0.8100000000000001
3.410311102867126,3,3,3,2,-13.55,1.17,-3.37,-2.49,1.49,0.8100000000000001
3.43031108379364,3,3,3,2,-16.16,-0.46,-2.91,-3.8,0.61,4.71
3.43031108379364,3,3,3,2,-16.16,-0.46,-2.91,-3.8,0.61,4.71
3.450311064720154,3,3,3,2,-18.22,1.16,-1.88,-3.75,-0.45,7.63
3.450311064720154,3,3,3,2,-18.22,1.16,-1.88,-3.75,-0.45,7.63
3.471310973167419,3,3,3,2,-18.6,4.01,-0.89,-2.6,-1.63,10.14
3.471310973167419,3,3,3,2,-18.6,4.01,-0.89,-2.6,-1.63,10.14
3.491310954093933,3,3,3,2,-20.31,8.42,0,-5.39,-3.16,14.22
3.491310954093933,3,3,3,2,-20.31,8.42,0,-5.39,-3.16,14.22
3.511310935020447,3,3,3,2,-22.74,10.99,-2.55,-9.99,-4.9,20.67
3.511310935020447,3,3,3,2,-22.74,10.99,-2.55,-9.99,-4.9,20.67
3.53131091594696,3,3,3,2,-27.94,8.960000000000001,-9.83,-15.35,-4.67,26.43
3.53131091594696,3,3,3,2,-27.94,8.960000000000001,-9.83,-15.35,-4.67,26.43
3.551310896873474,3,3,3,2,-29.5,-4.25,-12.48,-14.98,2.14,26.91
3.551310896873474,3,3,3,2,-29.5,-4.25,-12.48,-14.98,2.14,26.91
3.571310877799988,3,3,3,2,-24.65,-9.539999999999999,-8.23,-3.78,8.539999999999999,25.12
3.571310877799988,3,3,3,2,-24.65,-9.539999999999999,-8.23,-3.78,8.539999999999999,25.12
3.591311097145081,3,3,3,2,-11.51,-1.98,-0.6,7.1,9.380000000000001,24.39
3.591311097145081,3,3,3,2,-11.51,-1.98,-0.6,7.1,9.380000000000001,24.39
3.611311078071594,3,3,3,2,-2.05,-19.08,1,-10.29,7.04,22.89
3.611311078071594,3,3,3,2,-2.05,-19.08,1,-10.29,7.04,22.89
3.631311058998108,3,3,3,2,-2.25,-38.71,20.95,-7.25,-0.45,9.51
3.631311058998108,3,3,3,2,-2.25,-38.71,20.95,-7.25,-0.45,9.51
3.651311039924622,3,3,3,2,-4.84,-7.09,2.79,8.050000000000001,4.59,-1
3.651311039924622,3,3,3,2,-4.84,-7.09,2.79,8.050000000000001,4.59,-1
3.671311020851135,3,3,3,2,-2.86,8.27,-0.25,-2.49,4.4,-6.09
3.671311020851135,3,3,3,2,-2.86,8.27,-0.25,-2.49,4.4,-6.09
3.691311001777649,3,3,3,2,-0.59,1.1,-4.98,-9.119999999999999,-0.25,-10.21
3.691311001777649,3,3,3,2,-0.59,1.1,-4.98,-9.119999999999999,-0.25,-10.21
3.711310982704163,3,3,3,2,1.84,0.89,-6.14,-0.25,-6.76,-10.91
3.711310982704163,3,3,3,2,1.84,0.89,-6.14,-0.25,-6.76,-10.91
3.731310963630676,3,3,3,2,1.14,5.66,-2.45,10.91,-3.75,-6.22
3.731310963630676,3,3,3,2,1.14,5.66,-2.45,10.91,-3.75,-6.22
3.75131094455719,3,3,3,2,0.86,4.1,-0.82,11.86,-3.8,-1.47
3.75131094455719,3,3,3,2,0.86,4.1,-0.82,11.86,-3.8,-1.47
3.771310925483704,3,3,3,2,0.91,1.74,-0.85,3.32,-5.53,0.25
3.771310925483704,3,3,3,2,0.91,1.74,-0.85,3.32,-5.53,0.25
3.791310906410217,3,3,3,2,0.02,-0.71,1.24,-1.89,-6.58,-1.03
3.791310906410217,3,3,3,2,0.02,-0.71,1.24,-1.89,-6.58,-1.03
3.811310887336731,3,3,3,2,-0.48,-0.16,1.48,0.82,-5.63,-2.32
3.811310887336731,3,3,3,2,-0.48,-0.16,1.48,0.82,-5.63,-2.32
3.831310868263245,3,3,3,2,-0.09,0.09,0.06,4.26,-3.69,-1.81
3.831310868263245,3,3,3,2,-0.09,0.09,0.06,4.26,-3.69,-1.81
3.851311087608337,3,3,3,2,0.72,-0.04,-0.73,6.99,-1.51,-0.77
3.851311087608337,3,3,3,2,0.72,-0.04,-0.73,6.99,-1.51,-0.77
3.871311068534851,3,3,3,2,0.21,0.89,-1.3,6.55,0.33,0.77
3.871311068534851,3,3,3,2,0.21,0.89,-1.3,6.55,0.33,0.77
3.891311049461365,3,3,3,2,0.34,1.64,-1.04,5.72,-0.32,2.74
3.891311049461365,3,3,3,2,0.34,1.64,-1.04,5.72,-0.32,2.74
3.911311030387878,3,3,3,2,1.22,0.72,-0.67,4.37,-0.65,3.56
3.911311030387878,3,3,3,2,1.22,0.72,-0.67,4.37,-0.65,3.56
3.931311011314392,3,3,3,2,0.11,-0.37,0.05,4.39,-0.04,1.93
3.931311011314392,3,3,3,2,0.11,-0.37,0.05,4.39,-0.04,1.93
3.951310992240906,3,3,3,2,-1.84,-1.92,1.69,5.68,0.66,0.13
3.951310992240906,3,3,3,2,-1.84,-1.92,1.69,5.68,0.66,0.13
3.971310973167419,3,3,3,2,-2.97,-2.5,4.56,4.68,0.75,-0.41
3.971310973167419,3,3,3,2,-2.97,-2.5,4.56,4.68,0.75,-0.41
3.991310954093933,3,3,3,2,-7.9,-20.93,10.48,-11.07,-1.75,-1.85
3.991310954093933,3,3,3,2,-7.9,-20.93,10.48,-11.07,-1.75,-1.85
4.011310935020447,3,3,3,2,-19,5.17,-4.87,-13.1,-3.64,-4.82
4.011310935020447,3,3,3,2,-19,5.17,-4.87,-13.1,-3.64,-4.82
4.03131091594696,3,3,3,2,-26.23,-1.11,-7.01,-7.77,-10.64,-7.78
4.03131091594696,3,3,3,2,-26.23,-1.11,-7.01,-7.77,-10.64,-7.78
4.051310896873474,3,3,3,2,-31.51,-32.9,9.67,-26.03,6.07,-17.25
4.051310896873474,3,3,3,2,-31.51,-32.9,9.67,-26.03,6.07,-17.25
4.071310877799988,3,3,3,2,-16.56,12.54,3.4,30.7,-3.53,-18.19
4.071310877799988,3,3,3,2,-16.56,12.54,3.4,30.7,-3.53,-18.19
4.091311097145081,3,3,3,2,4.88,39.35,-11.88,66.66,13.09,-26.25
4.091311097145081,3,3,3,2,4.88,39.35,-11.88,66.66,13.09,-26.25
4.111311078071594,3,3,3,2,-6.95,-1.05,-1.86,-34.87,1.72,-14.94
4.111311078071594,3,3,3,2,-6.95,-1.05,-1.86,-34.87,1.72,-14.94
4.131311058998108,3,3,3,2,-21.12,-18.28,-4.68,-45.97,-8.85,1.34
4.131311058998108,3,3,3,2,-21.12,-18.28,-4.68,-45.97,-8.85,1.34
4.151311039924622,3,3,3,2,-28.29,5.03,-3.61,4.96,-4.77,1.86
4.151311039924622,3,3,3,2,-28.29,5.03,-3.61,4.96,-4.77,1.86
4.171311020851135,3,3,3,2,-12.96,5.42,-3.99,13.39,-0.57,-2.73
4.171311020851135,3,3,3,2,-12.96,5.42,-3.99,13.39,-0.57,-2.73
4.191311001777649,3,3,3,2,-9.380000000000001,2.99,-2,6.1,0.47,1.38
4.191311001777649,3,3,3,2,-9.380000000000001,2.99,-2,6.1,0.47,1.38
4.211310982704163,3,3,3,2,-13.91,-1.68,-2.11,2.83,-1.43,4.37
4.211310982704163,3,3,3,2,-13.91,-1.68,-2.11,2.83,-1.43,4.37
4.231310963630676,3,3,3,2,-12.42,-0.73,-2.57,9.789999999999999,-0.06,8.4
4.231310963630676,3,3,3,2,-12.42,-0.73,-2.57,9.789999999999999,-0.06,8.4
4.25131094455719,3,3,3,2,-9.31,4.39,-1.81,14.24,1.21,10.05
4.25131094455719,3,3,3,2,-9.31,4.39,-1.81,14.24,1.21,10.05
4.271310925483704,3,3,3,2,-8.75,4.35,-1.05,7.48,2.79,8.44
4.271310925483704,3,3,3,2,-8.75,4.35,-1.05,7.48,2.79,8.44
4.291310906410217,3,3,3,2,-9.02,1.12,-0.37,-1.76,4.41,7.68
4.291310906410217,3,3,3,2,-9.02,1.12,-0.37,-1.76,4.41,7.68
4.311310887336731,3,3,3,2,-8.5,-1.46,0,-6.72,5.66,7.5
4.311310887336731,3,3,3,2,-8.5,-1.46,0,-6.72,5.66,7.5
4.331310868263245,3,3,3,2,-7.98,-3.35,0.9399999999999999,-5.15,5.92,7.45
4.331310868263245,3,3,3,2,-7.98,-3.35,0.9399999999999999,-5.15,5.92,7.45
4.351311087608337,3,3,3,2,-8.42,-3.58,1.61,-1.92,4.65,7.16
4.351311087608337,3,3,3,2,-8.42,-3.58,1.61,-1.92,4.65,7.16
4.371311068534851,3,3,3,2,-8.109999999999999,-2.34,1.68,0.09,3.24,6.31
4.371311068534851,3,3,3,2,-8.109999999999999,-2.34,1.68,0.09,3.24,6.31
4.391311049461365,3,3,3,2,-8.26,-2.45,1.34,0.55,3.22,5.59
4.391311049461365,3,3,3,2,-8.26,-2.45,1.34,0.55,3.22,5.59
4.411311030387878,3,3,3,2,-8.859999999999999,-1.82,0.46,0.15,2.16,4.13
4.411311030387878,3,3,3,2,-8.859999999999999,-1.82,0.46,0.15,2.16,4.13
4.431311011314392,3,3,3,2,-8.74,-2.07,-0.31,-2.04,1.95,2.72
4.431311011314392,3,3,3,2,-8.74,-2.07,-0.31,-2.04,1.95,2.72
4.451310992240906,3,3,3,2,-8.960000000000001,-2.88,-1.01,-1.77,2.14,2.09
4.451310992240906,3,3,3,2,-8.960000000000001,-2.88,-1.01,-1.77,2.14,2.09
4.471310973167419,3,3,3,2,-9.18,-2.81,-1.1,0.42,1.49,1.74
4.471310973167419,3,3,3,2,-9.18,-2.81,-1.1,0.42,1.49,1.74
4.492310881614685,3,3,3,2,-9.67,-0.44,-1.2,3.23,1.32,2.25
4.492310881614685,3,3,3,2,-9.67,-0.44,-1.2,3.23,1.32,2.25
4.512311100959778,3,3,3,2,-10,0.72,-1.1,3.96,0.97,2.21
4.512311100959778,3,3,3,2,-10,0.72,-1.1,3.96,0.97,2.21
4.532311081886292,3,3,3,2,-10.29,1.54,-1.21,2.59,0.62,2.46
4.532311081886292,3,3,3,2,-10.29,1.54,-1.21,2.59,0.62,2.46
4.552311062812805,3,3,3,2,-10.18,1.63,-1.16,1.32,0.86,2.87
4.552311062812805,3,3,3,2,-10.18,1.63,-1.16,1.32,0.86,2.87
4.572311043739319,3,3,3,2,-9.67,1.39,-1.16,-0.35,1.57,3.22
4.572311043739319,3,3,3,2,-9.67,1.39,-1.16,-0.35,1.57,3.22
4.592311024665833,3,3,3,2,-9.539999999999999,1.38,-0.89,-1.48,1.21,3.32
4.592311024665833,3,3,3,2,-9.539999999999999,1.38,-0.89,-1.48,1.21,3.32
4.612311005592346,3,3,3,2,-9.59,0.45,-0.65,-2.98,1.48,3.35
4.612311005592346,3,3,3,2,-9.59,0.45,-0.65,-2.98,1.48,3.35
4.63231098651886,3,3,3,2,-9.57,-0.42,-0.63,-4.51,1.15,2.99
4.63231098651886,3,3,3,2,-9.57,-0.42,-0.63,-4.51,1.15,2.99
4.652310967445374,3,3,3,2,-9.35,-1.6,-0.61,-4.53,0.83,2.49
4.652310967445374,3,3,3,2,-9.35,-1.6,-0.61,-4.53,0.83,2.49
4.672310948371887,3,3,3,2,-9.25,-1.81,-0.72,-2.98,0.71,2.12
4.672310948371887,3,3,3,2,-9.25,-1.81,-0.72,-2.98,0.71,2.12
4.692310929298401,3,3,3,2,-9.470000000000001,-1.8,-0.9,-0.46,0.14,2.04
4.692310929298401,3,3,3,2,-9.470000000000001,-1.8,-0.9,-0.46,0.14,2.04
4.712310910224915,3,3,3,2,-9.49,-1.27,-0.9,2.73,0,2.06
4.712310910224915,3,3,3,2,-9.49,-1.27,-0.9,2.73,0,2.06
4.732310891151428,3,3,3,2,-9.550000000000001,-0.47,-0.76,4.44,0.26,2
4.732310891151428,3,3,3,2,-9.550000000000001,-0.47,-0.76,4.44,0.26,2
4.752310872077942,3,3,3,2,-9.710000000000001,-0.54,-0.77,5.09,-0.19,1.68
4.752310872077942,3,3,3,2,-9.710000000000001,-0.54,-0.77,5.09,-0.19,1.68
4.772311091423035,3,3,3,2,-9.75,-0.42,-0.39,4.76,-0.53,1.16
4.772311091423035,3,3,3,2,-9.75,-0.42,-0.39,4.76,-0.53,1.16
4.792311072349548,3,3,3,2,-9.74,0.3,-0.19,3.8,-0.31,0.36
4.792311072349548,3,3,3,2,-9.74,0.3,-0.19,3.8,-0.31,0.36
4.812311053276062,3,3,3,2,-9.789999999999999,1.54,-0.25,1.59,-0.33,-0.4
4.812311053276062,3,3,3,2,-9.789999999999999,1.54,-0.25,1.59,-0.33,-0.4
4.832311034202576,3,3,3,2,-9.869999999999999,1.44,-0.89,-0.58,-0.39,-0.65
4.832311034202576,3,3,3,2,-9.869999999999999,1.44,-0.89,-0.58,-0.39,-0.65
4.852311015129089,3,3,3,2,-9.57,1.4,-1.3,-2.38,0.01,-0.77
4.852311015129089,3,3,3,2,-9.57,1.4,-1.3,-2.38,0.01,-0.77
4.872310996055603,3,3,3,2,-9.289999999999999,1.37,-1.48,-2.36,0.02,-0.78
4.872310996055603,3,3,3,2,-9.289999999999999,1.37,-1.48,-2.36,0.02,-0.78
4.892310976982117,3,3,3,2,-9.85,0.53,-1.31,-2.48,-0.06,-0.98
4.892310976982117,3,3,3,2,-9.85,0.53,-1.31,-2.48,-0.06,-0.98
4.91231095790863,3,3,3,2,-10.26,0.12,-1.19,-2.45,-0.92,-1.31
4.91231095790863,3,3,3,2,-10.26,0.12,-1.19,-2.45,-0.92,-1.31
4.932310938835144,3,3,3,2,-9.9,1.14,-1.55,-1.13,-0.46,-1.1
4.932310938835144,3,3,3,2,-9.9,1.14,-1.55,-1.13,-0.46,-1.1
4.952310919761658,3,3,3,2,-9.289999999999999,1.5,-1.53,0.06,0.28,-0.66
4.952310919761658,3,3,3,2,-9.289999999999999,1.5,-1.53,0.06,0.28,-0.66
4.972310900688171,3,3,3,2,-9.109999999999999,0.39,-1.29,0.55,0.18,-0.55
4.972310900688171,3,3,3,2,-9.109999999999999,0.39,-1.29,0.55,0.18,-0.55
4.992310881614685,3,3,3,2,-8.92,-2.32,-0.53,0.91,-0.55,-0.99
4.992310881614685,3,3,3,2,-8.92,-2.32,-0.53,0.91,-0.55,-0.99
5.012311100959778,3,3,3,2,-9.17,-3.68,0.36,2.3,-1.83,-1.99
5.012311100959778,3,3,3,2,-9.17,-3.68,0.36,2.3,-1.83,-1.99
5.032311081886292,3,3,3,2,-8.16,-3.36,0.23,3.83,-2.91,-3.79
5.032311081886292,3,3,3,2,-8.16,-3.36,0.23,3.83,-2.91,-3.79
5.052311062812805,3,3,3,2,-8.1,-0.05,-0.39,5.94,0.65,-3.73
5.052311062812805,3,3,3,2,-8.1,-0.05,-0.39,5.94,0.65,-3.73
5.072311043739319,3,3,3,2,-9.199999999999999,-1.05,0.5,4.45,-1.66,-3.62
5.072311043739319,3,3,3,2,-9.199999999999999,-1.05,0.5,4.45,-1.66,-3.62
5.092311024665833,3,3,3,2,-9.460000000000001,-2.98,0.77,1.35,-3.74,-4.94
5.092311024665833,3,3,3,2,-9.460000000000001,-2.98,0.77,1.35,-3.74,-4.94
5.112311005592346,3,3,3,2,-8.69,-3.51,0.36,0.75,-4.6,-6.23
5.112311005592346,3,3,3,2,-8.69,-3.51,0.36,0.75,-4.6,-6.23
5.13231098651886,3,3,3,2,-8.56,-0.73,0.44,4.12,-3.47,-7.62
5.13231098651886,3,3,3,2,-8.56,-0.73,0.44,4.12,-3.47,-7.62
5.152310967445374,3,3,3,2,-8.44,2.13,0.15,3.03,-4.61,-8.85
5.152310967445374,3,3,3,2,-8.44,2.13,0.15,3.03,-4.61,-8.85
5.172310948371887,3,3,3,2,-8.199999999999999,2.51,-0.2,-0.63,-3.59,-10.49
5.172310948371887,3,3,3,2,-8.199999999999999,2.51,-0.2,-0.63,-3.59,-10.49
5.192310929298401,3,3,3,2,-9.24,-1.21,1.02,-5.85,-3.54,-11.05
5.192310929298401,3,3,3,2,-9.24,-1.21,1.02,-5.85,-3.54,-11.05
5.212310910224915,3,3,3,2,-9.56,-3.43,0.2,-6.01,-2.54,-11.36
5.212310910224915,3,3,3,2,-9.56,-3.43,0.2,-6.01,-2.54,-11.36
5.232310891151428,3,3,3,2,-9.51,-2.26,-1.1,-3.26,-2.49,-11.7
5.232310891151428,3,3,3,2,-9.51,-2.26,-1.1,-3.26,-2.49,-11.7
5.252310872077942,3,3,3,2,-9.289999999999999,-1.05,-1.05,-0.75,-3.53,-12.78
5.252310872077942,3,3,3,2,-9.289999999999999,-1.05,-1.05,-0.75,-3.53,-12.78
5.272311091423035,3,3,3,2,-11.06,-0.29,-2.22,-0.77,-2.99,-12.47
5.272311091423035,3,3,3,2,-11.06,-0.29,-2.22,-0.77,-2.99,-12.47
5.292311072349548,3,3,3,2,-11.54,-1.77,-1.61,-1.82,-2.4,-12
5.292311072349548,3,3,3,2,-11.54,-1.77,-1.61,-1.82,-2.4,-12
5.312311053276062,3,3,3,2,-10.83,-1.09,-0.8100000000000001,1.2,0.17,-12.39
5.312311053276062,3,3,3,2,-10.83,-1.09,-0.8100000000000001,1.2,0.17,-12.39
5.332311034202576,3,3,3,2,-11.26,0.11,-1.61,2.16,0.61,-10.65
5.332311034202576,3,3,3,2,-11.26,0.11,-1.61,2.16,0.61,-10.65
5.352311015129089,3,3,3,2,-12.45,3.71,-1.95,-0.32,0.45,-7.22
5.352311015129089,3,3,3,2,-12.45,3.71,-1.95,-0.32,0.45,-7.22
5.372310996055603,3,3,3,2,-11.95,3.91,-2.45,-4.49,0.24,-3.91
5.372310996055603,3,3,3,2,-11.95,3.91,-2.45,-4.49,0.24,-3.91
5.392310976982117,3,3,3,2,-13.79,1.54,-4.06,-7.71,1.03,0.22
5.392310976982117,3,3,3,2,-13.79,1.54,-4.06,-7.71,1.03,0.22
5.41231095790863,3,3,3,2,-16.22,-1.24,-4.46,-8.220000000000001,0.52,4.62
5.41231095790863,3,3,3,2,-16.22,-1.24,-4.46,-8.220000000000001,0.52,4.62
5.432310938835144,3,3,3,2,-19.01,-0.5600000000000001,-3.04,-1.88,-0.63,9.130000000000001
5.432310938835144,3,3,3,2,-19.01,-0.5600000000000001,-3.04,-1.88,-0.63,9.130000000000001
5.452310919761658,3,3,3,2,-19.39,2.26,-1.75,-0.29,-0.58,10.38
5.452310919761658,3,3,3,2,-19.39,2.26,-1.75,-0.29,-0.58,10.38
5.472310900688171,3,3,3,2,-19.83,6.89,-0.42,-2.73,-1.07,17.81
5.472310900688171,3,3,3,2,-19.83,6.89,-0.42,-2.73,-1.07,17.81
5.492310881614685,3,3,3,2,-22.12,9.91,-1.29,-7.89,-2.44,24.51
5.492310881614685,3,3,3,2,-22.12,9.91,-1.29,-7.89,-2.44,24.51
5.51331102848053,3,3,3,2,-28.13,10.03,-6.26,-10.93,-2.37,27.06
5.51331102848053,3,3,3,2,-28.13,10.03,-6.26,-10.93,-2.37,27.06
5.533311009407043,3,3,3,2,-31.83,5.96,-8.949999999999999,-9.720000000000001,6.5,25.89
5.533311009407043,3,3,3,2,-31.83,5.96,-8.949999999999999,-9.720000000000001,6.5,25.89
5.553310990333557,3,3,3,2,-26.48,-6.97,-5.59,-6.66,9.15,25.43
5.553310990333557,3,3,3,2,-26.48,-6.97,-5.59,-6.66,9.15,25.43
5.573310971260071,3,3,3,2,-17.06,-6.79,-1.13,-5.26,11.62,23.89
5.573310971260071,3,3,3,2,-17.06,-6.79,-1.13,-5.26,11.62,23.89
5.593310952186584,3,3,3,2,-1.71,-19.27,-2.24,-15.35,7.19,19.22
5.593310952186584,3,3,3,2,-1.71,-19.27,-2.24,-15.35,7.19,19.22
5.613310933113098,3,3,3,2,-1.46,-39.05,22.11,-9.050000000000001,-0.49,7.77
5.613310933113098,3,3,3,2,-1.46,-39.05,22.11,-9.050000000000001,-0.49,7.77
5.633310914039612,3,3,3,2,-6.11,-9.26,8,20.77,4.1,-5.85
5.633310914039612,3,3,3,2,-6.11,-9.26,8,20.77,4.1,-5.85
5.653310894966125,3,3,3,2,-2.5,10.47,0.07000000000000001,6.32,0.3,-7.59
5.653310894966125,3,3,3,2,-2.5,10.47,0.07000000000000001,6.32,0.3,-7.59
5.673310875892639,3,3,3,2,0.32,1.83,-4.78,-10.35,-3.41,-14.45
5.673310875892639,3,3,3,2,0.32,1.83,-4.78,-10.35,-3.41,-14.45
5.693311095237732,3,3,3,2,3.03,3.77,-8.09,3.79,-0.52,-10.95
5.693311095237732,3,3,3,2,3.03,3.77,-8.09,3.79,-0.52,-10.95
5.713311076164246,3,3,3,2,1.24,6.94,-3.63,11.14,-2.19,-7.39
5.713311076164246,3,3,3,2,1.24,6.94,-3.63,11.14,-2.19,-7.39
5.733311057090759,3,3,3,2,0.43,4.02,-0.86,5.29,-5.53,-0.16
5.733311057090759,3,3,3,2,0.43,4.02,-0.86,5.29,-5.53,-0.16
5.753311038017273,3,3,3,2,1.41,1.85,-1.42,1.69,-5.65,0.9399999999999999
5.753311038017273,3,3,3,2,1.41,1.85,-1.42,1.69,-5.65,0.9399999999999999
5.773311018943787,3,3,3,2,0.34,0.41,0.6,-0.24,-5.43,-0.59
5.773311018943787,3,3,3,2,0.34,0.41,0.6,-0.24,-5.43,-0.59
5.7933109998703,3,3,3,2,0.46,0.63,0.1,2.44,-2.06,-0.95
5.7933109998703,3,3,3,2,0.46,0.63,0.1,2.44,-2.06,-0.95
5.813310980796814,3,3,3,2,-0.43,-0.48,0.12,4.11,-1.22,-1.3
5.813310980796814,3,3,3,2,-0.43,-0.48,0.12,4.11,-1.22,-1.3
5.833310961723328,3,3,3,2,0.32,-1.19,0.25,9.029999999999999,-1.2,-0.83
5.833310961723328,3,3,3,2,0.32,-1.19,0.25,9.029999999999999,-1.2,-0.83
5.853310942649841,3,3,3,2,0.1,-1.05,-0.18,10.51,-0.82,-0.38
5.853310942649841,3,3,3,2,0.1,-1.05,-0.18,10.51,-0.82,-0.38
5.873310923576355,3,3,3,2,0.03,-0.15,-0.9399999999999999,9.33,0.78,0.72
5.873310923576355,3,3,3,2,0.03,-0.15,-0.9399999999999999,9.33,0.78,0.72
5.893310904502869,3,3,3,2,0.59,1.01,-1.14,7.47,-0.41,0.55
5.893310904502869,3,3,3,2,0.59,1.01,-1.14,7.47,-0.41,0.55
5.913310885429382,3,3,3,2,-0.23,0.06,0.2,6.5,-1.13,-0.62
5.913310885429382,3,3,3,2,-0.23,0.06,0.2,6.5,-1.13,-0.62
5.933311104774475,3,3,3,2,-1.5,-1.74,2.1,9.01,0.26,-2.95
5.933311104774475,3,3,3,2,-1.5,-1.74,2.1,9.01,0.26,-2.95
5.953311085700989,3,3,3,2,-1.97,-3.34,2.69,8.960000000000001,0.64,-3.02
5.953311085700989,3,3,3,2,-1.97,-3.34,2.69,8.960000000000001,0.64,-3.02
5.973311066627502,3,3,3,2,-6.5,-19.28,2.05,-20.45,4.42,-8.039999999999999
5.973311066627502,3,3,3,2,-6.5,-19.28,2.05,-20.45,4.42,-8.039999999999999
5.993311047554016,3,3,3,2,-11.02,-5.75,5.43,-0.34,-17.44,-6.54
5.993311047554016,3,3,3,2,-11.02,-5.75,5.43,-0.34,-17.44,-6.54
6.01331102848053,3,3,3,2,-32.57,-6.04,-0.23,-11.95,-15.33,-7.93
6.01331102848053,3,3,3,2,-32.57,-6.04,-0.23,-11.95,-15.33,-7.93
6.033311009407043,3,3,3,2,-27.33,-6.43,-11.35,-16.27,-0.28,-17.44
6.033311009407043,3,3,3,2,-27.33,-6.43,-11.35,-16.27,-0.28,-17.44
6.053310990333557,3,3,3,2,-28.63,-22.05,-8.359999999999999,-11.76,1.46,-19.98
6.053310990333557,3,3,3,2,-28.63,-22.05,-8.359999999999999,-11.76,1.46,-19.98
6.073310971260071,3,3,3,2,-39.24,-6.22,-5.01,30.18,-1.1,-15.07
6.073310971260071,3,3,3,2,-39.24,-6.22,-5.01,30.18,-1.1,-15.07
6.093310952186584,3,3,3,2,-9.470000000000001,34.74,-4.14,15.99,7.06,-9.85
6.093310952186584,3,3,3,2,-9.470000000000001,34.74,-4.14,15.99,7.06,-9.85
6.113310933113098,3,3,3,2,-11.85,14.4,-1.17,-5.31,4.56,-7.75
6.113310933113098,3,3,3,2,-11.85,14.4,-1.17,-5.31,4.56,-7.75
6.133310914039612,3,3,3,2,-19.65,-6.53,-0.7,-9.470000000000001,-2.93,0.85
6.133310914039612,3,3,3,2,-19.65,-6.53,-0.7,-9.470000000000001,-2.93,0.85
6.153310894966125,3,3,3,2,-20.9,0.64,-1.83,0.33,-2.71,1.92
6.153310894966125,3,3,3,2,-20.9,0.64,-1.83,0.33,-2.71,1.92
6.173310875892639,3,3,3,2,-14.31,1.52,-1.45,7.98,0.45,1.69
6.173310875892639,3,3,3,2,-14.31,1.52,-1.45,7.98,0.45,1.69
6.193311095237732,3,3,3,2,-11.83,2.33,-0.89,6.11,0.17,4.62
6.193311095237732,3,3,3,2,-11.83,2.33,-0.89,6.11,0.17,4.62
6.213311076164246,3,3,3,2,-12.62,0.32,-0.23,6.04,0.05,6.43
6.213311076164246,3,3,3,2,-12.62,0.32,-0.23,6.04,0.05,6.43
6.233311057090759,3,3,3,2,-11.31,1.68,-0.9399999999999999,5.94,0.49,11.23
6.233311057090759,3,3,3,2,-11.31,1.68,-0.9399999999999999,5.94,0.49,11.23
6.253311038017273,3,3,3,2,-8.859999999999999,2.81,-1.49,2.91,0.72,11.13
6.253311038017273,3,3,3,2,-8.859999999999999,2.81,-1.49,2.91,0.72,11.13
6.273311018943787,3,3,3,2,-9.220000000000001,0.7,-1.89,-5.65,2.81,8.09
6.273311018943787,3,3,3,2,-9.220000000000001,0.7,-1.89,-5.65,2.81,8.09
6.2933109998703,3,3,3,2,-8.93,-1.24,-1.65,-7.57,4.35,7.09
6.2933109998703,3,3,3,2,-8.93,-1.24,-1.65,-7.57,4.35,7.09
6.313310980796814,3,3,3,2,-8.050000000000001,-3.31,-1.32,-7.08,4.56,7.01
6.313310980796814,3,3,3,2,-8.050000000000001,-3.31,-1.32,-7.08,4.56,7.01
6.333310961723328,3,3,3,2,-7.55,-3.26,-1.03,-1.56,4.77,7.34
6.333310961723328,3,3,3,2,-7.55,-3.26,-1.03,-1.56,4.77,7.34
6.353310942649841,3,3,3,2,-7.05,-3.18,0.02,0.24,4.58,7.42
6.353310942649841,3,3,3,2,-7.05,-3.18,0.02,0.24,4.58,7.42
6.373310923576355,3,3,3,2,-7.36,-3.52,0.91,3.68,3.55,6.01
6.373310923576355,3,3,3,2,-7.36,-3.52,0.91,3.68,3.55,6.01
6.393310904502869,3,3,3,2,-8.59,-2.95,1.21,4.88,2.98,5.01
6.393310904502869,3,3,3,2,-8.59,-2.95,1.21,4.88,2.98,5.01
6.413310885429382,3,3,3,2,-9.19,-2.16,1.07,4.66,2.5,4.56
6.413310885429382,3,3,3,2,-9.19,-2.16,1.07,4.66,2.5,4.56
6.433311104774475,3,3,3,2,-9.140000000000001,-1.76,-0.02,0.75,2.21,2.06
6.433311104774475,3,3,3,2,-9.140000000000001,-1.76,-0.02,0.75,2.21,2.06
6.453311085700989,3,3,3,2,-8.859999999999999,-1.98,-0.54,0.19,1.92,1.37
6.453311085700989,3,3,3,2,-8.859999999999999,-1.98,-0.54,0.19,1.92,1.37
6.473311066627502,3,3,3,2,-9.449999999999999,-2.42,-1.36,0.99,1.04,0.78
6.473311066627502,3,3,3,2,-9.449999999999999,-2.42,-1.36,0.99,1.04,0.78
6.493311047554016,3,3,3,2,-9.869999999999999,-1.08,-1.16,2.38,0.85,1.42
6.493311047554016,3,3,3,2,-9.869999999999999,-1.08,-1.16,2.38,0.85,1.42
6.51331102848053,3,3,3,2,-10.11,0.44,-1.18,3.42,0.76,1.82
6.51331102848053,3,3,3,2,-10.11,0.44,-1.18,3.42,0.76,1.82
6.533311009407043,3,3,3,2,-10.13,1.54,-1.06,2.38,0.52,2.4
6.533311009407043,3,3,3,2,-10.13,1.54,-1.06,2.38,0.52,2.4
6.554310917854309,3,3,3,2,-9.99,1.78,-1.09,1.77,0.61,2.51
6.554310917854309,3,3,3,2,-9.99,1.78,-1.09,1.77,0.61,2.51
6.574310898780823,3,3,3,2,-9.92,1.39,-1.07,-0.71,1.02,3.15
6.574310898780823,3,3,3,2,-9.92,1.39,-1.07,-0.71,1.02,3.15
6.594310879707336,3,3,3,2,-9.449999999999999,0.57,-1,-2.15,1.27,3.19
6.594310879707336,3,3,3,2,-9.449999999999999,0.57,-1,-2.15,1.27,3.19
6.614311099052429,3,3,3,3,-9.359999999999999,0.24,-0.99,-2.72,1.32,3.03
6.614311099052429,3,3,3,3,-9.359999999999999,0.24,-0.99,-2.72,1.32,3.03
6.634311079978943,3,3,3,3,-9.359999999999999,-1.15,-0.75,-2.86,1,2.64
6.634311079978943,3,3,3,3,-9.359999999999999,-1.15,-0.75,-2.86,1,2.64
6.654311060905457,3,3,3,3,-9.57,-1.19,-0.75,-1.8,1.02,2.6
6.654311060905457,3,3,3,3,-9.57,-1.19,-0.75,-1.8,1.02,2.6
6.67431104183197,3,3,3,3,-9.59,-1.02,-0.87,1.6,0.6899999999999999,2.88
6.67431104183197,3,3,3,3,-9.59,-1.02,-0.87,1.6,0.6899999999999999,2.88
6.694311022758484,3,3,3,3,-9.619999999999999,-0.8100000000000001,-0.73,3.29,0.48,2.92
6.694311022758484,3,3,3,3,-9.619999999999999,-0.8100000000000001,-0.73,3.29,0.48,2.92
6.714311003684998,3,3,3,3,-9.699999999999999,-0.36,-0.67,3.8,0,2.75
6.714311003684998,3,3,3,3,-9.699999999999999,-0.36,-0.67,3.8,0,2.75
6.734310984611511,3,3,3,3,-9.77,0.98,-1.2,2.81,-0.1,2.43
6.734310984611511,3,3,3,3,-9.77,0.98,-1.2,2.81,-0.1,2.43
6.754310965538025,3,3,3,3,-9.630000000000001,0.84,-1.2,1.42,0.09,2.29
6.754310965538025,3,3,3,3,-9.630000000000001,0.84,-1.2,1.42,0.09,2.29
6.774310946464539,3,3,3,3,-9.6,0.33,-0.99,0.39,0.43,2.03
6.774310946464539,3,3,3,3,-9.6,0.33,-0.99,0.39,0.43,2.03
6.794310927391052,3,3,3,3,-9.66,0.21,-0.79,-0.08,0.48,1.4
6.794310927391052,3,3,3,3,-9.66,0.21,-0.79,-0.08,0.48,1.4
6.814310908317566,3,3,3,3,-9.69,0.29,-0.6,-0.93,-0.02,0.76
6.814310908317566,3,3,3,3,-9.69,0.29,-0.6,-0.93,-0.02,0.76
6.83431088924408,3,3,3,3,-9.82,0.39,-0.92,-1.34,0.12,0.44
6.83431088924408,3,3,3,3,-9.82,0.39,-0.92,-1.34,0.12,0.44
6.854310870170593,3,3,3,3,-9.85,0.35,-1.15,-1.77,0.09,0.33
6.854310870170593,3,3,3,3,-9.85,0.35,-1.15,-1.77,0.09,0.33
6.874311089515686,3,3,3,3,-9.529999999999999,0.4,-1.73,-1.18,0.49,0.47
6.874311089515686,3,3,3,3,-9.529999999999999,0.4,-1.73,-1.18,0.49,0.47
6.8943110704422,3,3,3,3,-9.42,0.18,-1.56,0.01,0.25,0.77
6.8943110704422,3,3,3,3,-9.42,0.18,-1.56,0.01,0.25,0.77
6.914311051368713,3,3,3,3,-9.6,0.39,-1.28,0.77,-0.09,0.85
6.914311051368713,3,3,3,3,-9.6,0.39,-1.28,0.77,-0.09,0.85
6.934311032295227,3,3,3,3,-9.99,0.8,-1.14,1.64,-0.39,0.6899999999999999
6.934311032295227,3,3,3,3,-9.99,0.8,-1.14,1.64,-0.39,0.6899999999999999
6.954311013221741,3,3,3,3,-9.789999999999999,0.82,-1.15,1.56,-0.21,0.9399999999999999
6.954311013221741,3,3,3,3,-9.789999999999999,0.82,-1.15,1.56,-0.21,0.9399999999999999
6.974310994148254,3,3,3,3,-9.619999999999999,0.55,-1.37,1.59,-0.18,0.83
6.974310994148254,3,3,3,3,-9.619999999999999,0.55,-1.37,1.59,-0.18,0.83
6.994310975074768,3,3,3,3,-9.35,0.63,-1.17,0.64,-0.01,0.54
6.994310975074768,3,3,3,3,-9.35,0.63,-1.17,0.64,-0.01,0.54
7.014310956001282,3,3,3,3,-9.609999999999999,0.4,-1.17,0.29,-0.13,0.25
7.014310956001282,3,3,3,3,-9.609999999999999,0.4,-1.17,0.29,-0.13,0.25
7.034310936927795,3,3,3,3,-9.58,-0.06,-1.08,0.11,-0.39,-0.08
7.034310936927795,3,3,3,3,-9.58,-0.06,-1.08,0.11,-0.39,-0.08
7.054310917854309,3,3,3,3,-9.42,-0.82,-0.71,0.39,-0.49,-0.48
7.054310917854309,3,3,3,3,-9.42,-0.82,-0.71,0.39,-0.49,-0.48
7.074310898780823,3,3,3,3,-9.359999999999999,-1.2,-0.17,0.62,-0.74,-1.13
7.074310898780823,3,3,3,3,-9.359999999999999,-1.2,-0.17,0.62,-0.74,-1.13
7.094310879707336,3,3,3,3,-9.550000000000001,-1.67,-0.14,0.47,-1.64,-2.01
7.094310879707336,3,3,3,3,-9.550000000000001,-1.67,-0.14,0.47,-1.64,-2.01
7.114311099052429,3,3,3,3,-9.66,-0.9,-0.42,0.74,-1.43,-2.95
7.114311099052429,3,3,3,3,-9.66,-0.9,-0.42,0.74,-1.43,-2.95
7.134311079978943,3,3,3,3,-9.42,-0.17,-1.26,2.03,-0.5,-2.83
7.134311079978943,3,3,3,3,-9.42,-0.17,-1.26,2.03,-0.5,-2.83
7.154311060905457,3,3,3,3,-9.27,0.55,-1.03,1.46,-1.62,-3.39
7.154311060905457,3,3,3,3,-9.27,0.55,-1.03,1.46,-1.62,-3.39
7.17431104183197,3,3,3,3,-9.06,-0.46,0.2,1.31,-1.82,-3.2
7.17431104183197,3,3,3,3,-9.06,-0.46,0.2,1.31,-1.82,-3.2
7.194311022758484,3,3,3,3,-9.01,-2.86,0.98,-0.99,-4.28,-4.7
7.194311022758484,3,3,3,3,-9.01,-2.86,0.98,-0.99,-4.28,-4.7
7.214311003684998,3,3,3,3,-8.27,-3.98,0.93,-0.36,-4.39,-7.46
7.214311003684998,3,3,3,3,-8.27,-3.98,0.93,-0.36,-4.39,-7.46
7.234310984611511,3,3,3,3,-8.02,-0.72,-0.71,3.21,-4.41,-9.18
7.234310984611511,3,3,3,3,-8.02,-0.72,-0.71,3.21,-4.41,-9.18
7.254310965538025,3,3,3,3,-8.33,0.9,-0.76,2.13,-5.37,-8.390000000000001
7.254310965538025,3,3,3,3,-8.33,0.9,-0.76,2.13,-5.37,-8.390000000000001
7.274310946464539,3,3,3,3,-9.970000000000001,0.41,-0.5600000000000001,-1.04,-5.02,-8.25
7.274310946464539,3,3,3,3,-9.970000000000001,0.41,-0.5600000000000001,-1.04,-5.02,-8.25
7.294310927391052,3,3,3,3,-9.35,-1.43,-0.1,-2.82,-4.11,-9.98
7.294310927391052,3,3,3,3,-9.35,-1.43,-0.1,-2.82,-4.11,-9.98
7.314310908317566,3,3,3,3,-9,0.97,-0.2,0.85,-2.1,-11.19
7.314310908317566,3,3,3,3,-9,0.97,-0.2,0.85,-2.1,-11.19
7.33431088924408,3,3,3,3,-8.99,1.29,0.9,1.51,-2.44,-12.48
7.33431088924408,3,3,3,3,-8.99,1.29,0.9,1.51,-2.44,-12.48
7.354310870170593,3,3,3,2,-10.03,-2.3,1.02,-1.71,-2.39,-12.66
7.354310870170593,3,3,3,2,-10.03,-2.3,1.02,-1.71,-2.39,-12.66
7.374311089515686,3,3,3,2,-10.7,-3.35,0.24,-5.2,-4.24,-12.81
7.374311089515686,3,3,3,2,-10.7,-3.35,0.24,-5.2,-4.24,-12.81
7.3943110704422,3,3,3,2,-10.51,-1,0.01,0.35,-2.99,-13.33
7.3943110704422,3,3,3,2,-10.51,-1,0.01,0.35,-2.99,-13.33
7.414311051368713,3,3,3,2,-11.13,0.11,-0.78,1.23,-3.41,-14.19
7.414311051368713,3,3,3,2,-11.13,0.11,-0.78,1.23,-3.41,-14.19
7.434311032295227,3,3,3,2,-10.63,0.15,-1.67,-0.41,-2.33,-13.28
7.434311032295227,3,3,3,2,-10.63,0.15,-1.67,-0.41,-2.33,-13.28
7.454311013221741,3,3,3,2,-10.26,-1.42,-1.82,-0.3,-1.19,-11.68
7.454311013221741,3,3,3,2,-10.26,-1.42,-1.82,-0.3,-1.19,-11.68
7.474310994148254,3,3,3,2,-11.02,-0.88,-2.32,0.76,-0.72,-8.130000000000001
7.474310994148254,3,3,3,2,-11.02,-0.88,-2.32,0.76,-0.72,-8.130000000000001
7.494310975074768,3,3,3,2,-12.24,-1.03,-3.03,0.26,-0.44,-5.25
7.494310975074768,3,3,3,2,-12.24,-1.03,-3.03,0.26,-0.44,-5.25
7.514310956001282,3,3,3,2,-12.06,0.98,-4.65,-1.03,1.02,-2.55
7.514310956001282,3,3,3,2,-12.06,0.98,-4.65,-1.03,1.02,-2.55
7.534310936927795,3,3,3,2,-12.57,0.72,-4.84,-3.16,2.83,0.47
7.534310936927795,3,3,3,2,-12.57,0.72,-4.84,-3.16,2.83,0.47
7.554310917854309,3,3,3,2,-14.66,-1.5,-3.11,-3.28,3.37,4.37
7.554310917854309,3,3,3,2,-14.66,-1.5,-3.11,-3.28,3.37,4.37
7.575311064720154,3,3,3,2,-16.7,-0.5600000000000001,-1.88,-0.41,1.66,8.710000000000001
7.575311064720154,3,3,3,2,-16.7,-0.5600000000000001,-1.88,-0.41,1.66,8.710000000000001
7.595311045646667,3,3,3,2,-19.13,4.86,0.66,1.08,0.45,12.28
7.595311045646667,3,3,3,2,-19.13,4.86,0.66,1.08,0.45,12.28
7.615311026573181,3,3,3,2,-19.83,7.36,2.32,-3.13,-0.25,15.36
7.615311026573181,3,3,3,2,-19.83,7.36,2.32,-3.13,-0.25,15.36
7.635311007499695,3,3,3,2,-22.49,8.17,-0.25,-9.17,-2.3,20.49
7.635311007499695,3,3,3,2,-22.49,8.17,-0.25,-9.17,-2.3,20.49
7.655310988426208,3,3,3,2,-25.68,9.619999999999999,-3.45,-14.01,-3.81,26.12
7.655310988426208,3,3,3,2,-25.68,9.619999999999999,-3.45,-14.01,-3.81,26.12
7.675310969352722,3,3,3,2,-30.6,7.44,-9.699999999999999,-16.27,0.45,27.2
7.675310969352722,3,3,3,2,-30.6,7.44,-9.699999999999999,-16.27,0.45,27.2
7.695310950279236,3,3,3,2,-27.74,-2.88,-12.32,-12.62,6.96,25.39
7.695310950279236,3,3,3,2,-27.74,-2.88,-12.32,-12.62,6.96,25.39
7.71531093120575,3,3,3,2,-18.85,-9.539999999999999,-4.18,-6.33,8.94,24.88
7.71531093120575,3,3,3,2,-18.85,-9.539999999999999,-4.18,-6.33,8.94,24.88
7.735310912132263,3,3,3,2,-2.65,-2.43,0.49,-11.68,10.6,30.92
7.735310912132263,3,3,3,2,-2.65,-2.43,0.49,-11.68,10.6,30.92
7.755310893058777,3,3,3,2,-1.23,-39.08,20.02,-8.99,-0.5,15.25
7.755310893058777,3,3,3,2,-1.23,-39.08,20.02,-8.99,-0.5,15.25
7.775310873985291,3,3,3,2,-7.15,-20.77,16.77,12.03,2.68,-1.18
7.775310873985291,3,3,3,2,-7.15,-20.77,16.77,12.03,2.68,-1.18
7.795311093330383,3,3,3,2,-2.43,15.26,0.36,-1.86,4.6,-4.21
7.795311093330383,3,3,3,2,-2.43,15.26,0.36,-1.86,4.6,-4.21
7.815311074256897,3,3,3,2,-1.52,-0.37,1.32,-14.67,0.5600000000000001,-12.07
7.815311074256897,3,3,3,2,-1.52,-0.37,1.32,-14.67,0.5600000000000001,-12.07
7.835311055183411,3,3,3,2,1.71,-6.24,-3.85,-6.34,-6.32,-14.16
7.835311055183411,3,3,3,2,1.71,-6.24,-3.85,-6.34,-6.32,-14.16
7.855311036109924,3,3,3,2,-0.27,1.36,-3.84,6.15,-4.35,-8.33
7.855311036109924,3,3,3,2,-0.27,1.36,-3.84,6.15,-4.35,-8.33
7.875311017036438,3,3,3,2,1.2,4.24,-1.71,8.890000000000001,-3.23,-2.5
7.875311017036438,3,3,3,2,1.2,4.24,-1.71,8.890000000000001,-3.23,-2.5
7.895310997962952,3,3,3,2,1.57,1.74,-2.21,5.85,-2.71,-1.33
7.895310997962952,3,3,3,2,1.57,1.74,-2.21,5.85,-2.71,-1.33
7.915310978889465,3,3,3,2,0.76,-0.19,-1.06,1.49,-3.49,-3.79
7.915310978889465,3,3,3,2,0.76,-0.19,-1.06,1.49,-3.49,-3.79
7.935310959815979,3,3,3,2,-0.01,1.66,-0.22,1.68,-3.62,-3.64
7.935310959815979,3,3,3,2,-0.01,1.66,-0.22,1.68,-3.62,-3.64
7.955310940742493,3,3,3,2,-0.37,1.29,0.32,1.99,-2.18,-3.08
7.955310940742493,3,3,3,2,-0.37,1.29,0.32,1.99,-2.18,-3.08
7.975310921669006,3,3,3,2,-0.49,0.68,0.02,6.56,-0.89,-2.79
7.975310921669006,3,3,3,2,-0.49,0.68,0.02,6.56,-0.89,-2.79
7.99531090259552,3,3,3,2,0.36,-0.9,-1.18,11.08,0.86,-1.42
7.99531090259552,3,3,3,2,0.36,-0.9,-1.18,11.08,0.86,-1.42
8.015310883522034,3,3,3,2,0.38,0.18,-2.12,12.19,2.75,0.62
8.015310883522034,3,3,3,2,0.38,0.18,-2.12,12.19,2.75,0.62
8.035311102867126,3,3,3,2,1.3,0.79,-1.84,13.53,0.86,2.2
8.035311102867126,3,3,3,2,1.3,0.79,-1.84,13.53,0.86,2.2
8.05531108379364,3,3,3,2,0.47,1.05,-0.62,11.38,-1.33,0.78
8.05531108379364,3,3,3,2,0.47,1.05,-0.62,11.38,-1.33,0.78
8.075311064720154,3,3,3,2,-0.15,0.71,0.9399999999999999,7.48,-1.93,-1.93
8.075311064720154,3,3,3,2,-0.15,0.71,0.9399999999999999,7.48,-1.93,-1.93
8.095311045646667,3,3,3,2,-1.52,-1.77,4.12,6.8,-0.23,-3.63
8.095311045646667,3,3,3,2,-1.52,-1.77,4.12,6.8,-0.23,-3.63
8.115311026573181,3,3,3,2,-4.14,-18.85,5.61,-7.08,3.38,-8.69
8.115311026573181,3,3,3,2,-4.14,-18.85,5.61,-7.08,3.38,-8.69
8.135311007499695,3,3,3,2,-20.31,6.75,1.17,-26.29,-3.92,-5.9
8.135311007499695,3,3,3,2,-20.31,6.75,1.17,-26.29,-3.92,-5.9
8.155310988426208,3,3,3,2,-24.85,4.02,-4.24,-13.72,-11.91,-5.17
8.155310988426208,3,3,3,2,-24.85,4.02,-4.24,-13.72,-11.91,-5.17
8.175310969352722,3,3,3,2,-20.83,-25.8,0.6899999999999999,-17.15,7.74,-15.73
8.175310969352722,3,3,3,2,-20.83,-25.8,0.6899999999999999,-17.15,7.74,-15.73
8.195310950279236,3,3,3,2,-39.24,-30.61,0.93,-6.14,-4.37,-27.41
8.195310950279236,3,3,3,2,-39.24,-30.61,0.93,-6.14,-4.37,-27.41
8.21531093120575,3,3,3,2,1.76,39.35,-18.79,59.6,3.8,-15.57
8.21531093120575,3,3,3,2,1.76,39.35,-18.79,59.6,3.8,-15.57
8.235310912132263,3,3,3,2,-13.24,36.15,-3.76,-7.78,6.1,-9.48
8.235310912132263,3,3,3,2,-13.24,36.15,-3.76,-7.78,6.1,-9.48
8.255310893058777,3,3,3,2,-21.52,-10.29,-3.37,-41.39,-3.43,-0.73
8.255310893058777,3,3,3,2,-21.52,-10.29,-3.37,-41.39,-3.43,-0.73
8.275310873985291,3,3,3,2,-28.97,-8.58,-0.51,-3.31,-1.14,4.72
8.275310873985291,3,3,3,2,-28.97,-8.58,-0.51,-3.31,-1.14,4.72
8.295311093330383,3,3,3,2,-14.09,7.37,-1.06,18.83,1.59,4.56
8.295311093330383,3,3,3,2,-14.09,7.37,-1.06,18.83,1.59,4.56
8.315311074256897,3,3,3,2,-7.7,7.53,-1.88,11.73,1.99,6.42
8.315311074256897,3,3,3,2,-7.7,7.53,-1.88,11.73,1.99,6.42
8.335311055183411,3,3,3,2,-13.61,0.98,-1.69,4.11,0.58,9.49
8.335311055183411,3,3,3,2,-13.61,0.98,-1.69,4.11,0.58,9.49
8.355311036109924,3,3,3,2,-13,-2.08,-1.54,8.58,2.27,12.77
8.355311036109924,3,3,3,2,-13,-2.08,-1.54,8.58,2.27,12.77
8.375311017036438,3,3,3,2,-8.470000000000001,2.74,-1.28,14.24,3.47,14.51
8.375311017036438,3,3,3,2,-8.470000000000001,2.74,-1.28,14.24,3.47,14.51
8.395310997962952,3,3,3,2,-8.119999999999999,4.87,-0.96,9.390000000000001,4.98,11.76
8.395310997962952,3,3,3,2,-8.119999999999999,4.87,-0.96,9.390000000000001,4.98,11.76
8.415310978889465,3,3,3,2,-6.87,3.77,-1.65,1.04,7.27,9.619999999999999
8.415310978889465,3,3,3,2,-6.87,3.77,-1.65,1.04,7.27,9.619999999999999
8.435310959815979,3,3,3,2,-6.15,1.7,-1.87,-5.23,8.81,9.52
8.435310959815979,3,3,3,2,-6.15,1.7,-1.87,-5.23,8.81,9.52
8.455310940742493,3,3,3,2,-5.72,-2.3,-0.87,-7.05,7.59,9.76
8.455310940742493,3,3,3,2,-5.72,-2.3,-0.87,-7.05,7.59,9.76
8.475310921669006,3,3,3,2,-6.28,-3.93,-0.17,-5.75,4.46,7.78
8.475310921669006,3,3,3,2,-6.28,-3.93,-0.17,-5.75,4.46,7.78
8.49531090259552,3,3,3,2,-8.67,-5.41,2.48,-1.97,2.14,6.18
8.49531090259552,3,3,3,2,-8.67,-5.41,2.48,-1.97,2.14,6.18
8.515310883522034,3,3,3,2,-10.74,-4.41,3.37,4.6,2.03,5.68
8.515310883522034,3,3,3,2,-10.74,-4.41,3.37,4.6,2.03,5.68
8.535311102867126,3,3,3,2,-11.11,-2.28,2.28,6.98,2.91,5.34
8.535311102867126,3,3,3,2,-11.11,-2.28,2.28,6.98,2.91,5.34
8.55531108379364,3,3,3,3,-10.08,-1.73,0.31,7.07,2.76,4
8.55531108379364,3,3,3,3,-10.08,-1.73,0.31,7.07,2.76,4
8.575311064720154,3,3,3,3,-9.68,-1.04,-1.59,3.49,1.81,3.45
8.575311064720154,3,3,3,3,-9.68,-1.04,-1.59,3.49,1.81,3.45
8.596310973167419,3,3,3,3,-9.539999999999999,-0.49,-1.74,3.78,1.03,3.01
8.596310973167419,3,3,3,3,-9.539999999999999,-0.49,-1.74,3.78,1.03,3.01
8.616310954093933,3,3,3,3,-9.199999999999999,1.9,-2.29,3.7,0.8,3.26
8.616310954093933,3,3,3,3,-9.199999999999999,1.9,-2.29,3.7,0.8,3.26
8.636310935020447,3,3,3,3,-9.49,3.14,-2.86,1.14,0.41,3.17
8.636310935020447,3,3,3,3,-9.49,3.14,-2.86,1.14,0.41,3.17
8.65631091594696,3,3,3,3,-9.67,2.99,-2.44,-2.84,0.07000000000000001,3.51
8.65631091594696,3,3,3,3,-9.67,2.99,-2.44,-2.84,0.07000000000000001,3.51
8.676310896873474,3,3,3,3,-9.220000000000001,1.63,-1.65,-4.05,0.01,4.26
8.676310896873474,3,3,3,3,-9.220000000000001,1.63,-1.65,-4.05,0.01,4.26
8.696310877799988,3,3,3,3,-9.109999999999999,1.41,-0.77,-2.88,-0.09,5.09
8.696310877799988,3,3,3,3,-9.109999999999999,1.41,-0.77,-2.88,-0.09,5.09
8.716311097145081,3,3,3,3,-9.42,-0.36,0.12,-3.13,0.22,5.82
8.716311097145081,3,3,3,3,-9.42,-0.36,0.12,-3.13,0.22,5.82
8.736311078071594,3,3,3,3,-9.34,-1.95,0.04,-2.41,1.4,6.11
8.736311078071594,3,3,3,3,-9.34,-1.95,0.04,-2.41,1.4,6.11
8.756311058998108,3,3,3,3,-9.31,-2.35,0.02,0.36,1.67,6.13
8.756311058998108,3,3,3,3,-9.31,-2.35,0.02,0.36,1.67,6.13
8.776311039924622,3,3,3,3,-10.11,-1.88,-1.55,6.03,1.46,5.1
8.776311039924622,3,3,3,3,-10.11,-1.88,-1.55,6.03,1.46,5.1
8.796311020851135,3,3,3,3,-10.79,0.62,-2.39,10.4,0.42,2.88
8.796311020851135,3,3,3,3,-10.79,0.62,-2.39,10.4,0.42,2.88
8.816311001777649,3,3,3,3,-10.15,2.46,-2.41,9.960000000000001,-1.3,2.28
8.816311001777649,3,3,3,3,-10.15,2.46,-2.41,9.960000000000001,-1.3,2.28
8.836310982704163,3,3,3,3,-9.539999999999999,3.01,-1.63,4.95,-1.9,2.3
8.836310982704163,3,3,3,3,-9.539999999999999,3.01,-1.63,4.95,-1.9,2.3
8.856310963630676,3,3,3,3,-9.4,1.98,-0.9399999999999999,1.22,-1.99,1.54
8.856310963630676,3,3,3,3,-9.4,1.98,-0.9399999999999999,1.22,-1.99,1.54
8.87631094455719,3,3,3,3,-9.48,1.64,-0.52,-1,-1.29,-0.27
8.87631094455719,3,3,3,3,-9.48,1.64,-0.52,-1,-1.29,-0.27
8.896310925483704,3,3,3,3,-9.65,1.89,-0.51,-2.75,-0.09,-0.97
8.896310925483704,3,3,3,3,-9.65,1.89,-0.51,-2.75,-0.09,-0.97
8.916310906410217,3,3,3,3,-9.289999999999999,2.09,-1.41,-4.53,1.55,-0.6
8.916310906410217,3,3,3,3,-9.289999999999999,2.09,-1.41,-4.53,1.55,-0.6
8.936310887336731,3,3,3,3,-9.17,1.82,-1.92,-4.5,1.44,0.5600000000000001
8.936310887336731,3,3,3,3,-9.17,1.82,-1.92,-4.5,1.44,0.5600000000000001
8.956310868263245,3,3,3,3,-9.25,1.66,-1.88,-2.11,0.55,1.68
8.956310868263245,3,3,3,3,-9.25,1.66,-1.88,-2.11,0.55,1.68
8.976311087608337,3,3,3,3,-9.09,1.51,-2.06,0.63,-0.01,2.25
8.976311087608337,3,3,3,3,-9.09,1.51,-2.06,0.63,-0.01,2.25
8.996311068534851,3,3,3,3,-9.5,1.76,-2.09,3.95,-0.53,2.33
8.996311068534851,3,3,3,3,-9.5,1.76,-2.09,3.95,-0.53,2.33
9.016311049461365,3,3,3,3,-9.699999999999999,2.25,-1.77,6.58,-1.64,2.46
9.016311049461365,3,3,3,3,-9.699999999999999,2.25,-1.77,6.58,-1.64,2.46
9.036311030387878,3,3,3,3,-9.51,2.81,-1.43,6.53,-1.37,2.14
9.036311030387878,3,3,3,3,-9.51,2.81,-1.43,6.53,-1.37,2.14
9.056311011314392,3,3,3,3,-9.32,2.81,-1.25,4.71,-0.64,1.66
9.056311011314392,3,3,3,3,-9.32,2.81,-1.25,4.71,-0.64,1.66
9.076310992240906,3,3,3,3,-9.449999999999999,2.43,-1.16,2.28,-0.14,1.09
9.076310992240906,3,3,3,3,-9.449999999999999,2.43,-1.16,2.28,-0.14,1.09
9.096310973167419,3,3,3,3,-9.380000000000001,2.17,-0.96,-0.22,0.22,0.5
9.096310973167419,3,3,3,3,-9.380000000000001,2.17,-0.96,-0.22,0.22,0.5
9.116310954093933,3,3,3,3,-9.359999999999999,2.17,-1.11,-2.19,0.61,0.17
9.116310954093933,3,3,3,3,-9.359999999999999,2.17,-1.11,-2.19,0.61,0.17
9.136310935020447,3,3,3,3,-9.470000000000001,2.29,-1.4,-3.46,1.06,0.02
9.136310935020447,3,3,3,3,-9.470000000000001,2.29,-1.4,-3.46,1.06,0.02
9.15631091594696,3,3,3,3,-9.51,2.27,-1.66,-3.58,1.19,-0.1
9.15631091594696,3,3,3,3,-9.51,2.27,-1.66,-3.58,1.19,-0.1
9.176310896873474,3,3,3,3,-9.41,2.12,-1.88,-2.45,0.74,-0.06
9.176310896873474,3,3,3,3,-9.41,2.12,-1.88,-2.45,0.74,-0.06
9.196310877799988,3,3,3,3,-9.27,1.91,-1.78,-0.46,-0.04,0.14
9.196310877799988,3,3,3,3,-9.27,1.91,-1.78,-0.46,-0.04,0.14
9.216311097145081,3,3,3,3,-9.279999999999999,1.95,-1.72,1.63,-0.49,0.43
9.216311097145081,3,3,3,3,-9.279999999999999,1.95,-1.72,1.63,-0.49,0.43
9.236311078071594,3,3,3,3,-9.32,2.1,-1.69,2.87,-0.65,0.66
9.236311078071594,3,3,3,3,-9.32,2.1,-1.69,2.87,-0.65,0.66
9.256311058998108,3,3,3,3,-9.460000000000001,2.27,-1.58,2.98,-0.48,0.67
9.256311058998108,3,3,3,3,-9.460000000000001,2.27,-1.58,2.98,-0.48,0.67
9.276311039924622,3,3,3,3,-9.369999999999999,2.41,-1.58,2.3,-0.44,0.44
9.276311039924622,3,3,3,3,-9.369999999999999,2.41,-1.58,2.3,-0.44,0.44
9.296311020851135,3,3,3,3,-9.380000000000001,2.49,-1.49,0.97,-0.26,0.1
9.296311020851135,3,3,3,3,-9.380000000000001,2.49,-1.49,0.97,-0.26,0.1
9.316311001777649,3,3,3,3,-9.43,2.37,-1.37,-0.42,-0.02,-0.12
9.316311001777649,3,3,3,3,-9.43,2.37,-1.37,-0.42,-0.02,-0.12
9.336310982704163,3,3,3,3,-9.369999999999999,2.26,-1.41,-1.43,0.31,-0.34
9.336310982704163,3,3,3,3,-9.369999999999999,2.26,-1.41,-1.43,0.31,-0.34
9.356310963630676,3,3,3,3,-9.4,2.08,-1.34,-1.8,0.53,-0.37
9.356310963630676,3,3,3,3,-9.4,2.08,-1.34,-1.8,0.53,-0.37
9.37631094455719,3,3,3,3,-9.619999999999999,2.03,-1.68,-1.62,0.52,-0.28
9.37631094455719,3,3,3,3,-9.619999999999999,2.03,-1.68,-1.62,0.52,-0.28
9.396310925483704,3,3,3,3,-9.5,1.96,-1.78,-1.01,0.33,-0.33
9.396310925483704,3,3,3,3,-9.5,1.96,-1.78,-1.01,0.33,-0.33
9.416310906410217,3,3,3,3,-9.34,2.03,-1.76,-0.1,-0.03,-0.41
9.416310906410217,3,3,3,3,-9.34,2.03,-1.76,-0.1,-0.03,-0.41
9.436310887336731,3,3,3,3,-9.279999999999999,2.15,-1.72,0.74,-0.2,-0.36
9.436310887336731,3,3,3,3,-9.279999999999999,2.15,-1.72,0.74,-0.2,-0.36
9.456310868263245,3,3,3,3,-9.359999999999999,2.42,-1.61,0.96,-0.26,-0.14
9.456310868263245,3,3,3,3,-9.359999999999999,2.42,-1.61,0.96,-0.26,-0.14
9.476311087608337,3,3,3,3,-9.42,2.52,-1.6,0.66,0.04,-0.05
9.476311087608337,3,3,3,3,-9.42,2.52,-1.6,0.66,0.04,-0.05
9.496311068534851,3,3,3,3,-9.33,2.37,-1.44,-0.23,0.11,-0.17
9.496311068534851,3,3,3,3,-9.33,2.37,-1.44,-0.23,0.11,-0.17
9.516311049461365,3,3,3,3,-9.359999999999999,2.18,-1.46,-1.02,0.3,-0.34
9.516311049461365,3,3,3,3,-9.359999999999999,2.18,-1.46,-1.02,0.3,-0.34
9.536311030387878,3,3,3,3,-9.449999999999999,1.99,-1.57,-1.22,0.44,-0.33
9.536311030387878,3,3,3,3,-9.449999999999999,1.99,-1.57,-1.22,0.44,-0.33
9.556311011314392,3,3,3,3,-9.550000000000001,1.94,-1.54,-1,0.5,-0.22
9.556311011314392,3,3,3,3,-9.550000000000001,1.94,-1.54,-1,0.5,-0.22
9.576310992240906,3,3,3,3,-9.44,1.99,-1.73,-0.75,0.48,-0.23
9.576310992240906,3,3,3,3,-9.44,1.99,-1.73,-0.75,0.48,-0.23
9.596310973167419,3,3,3,3,-9.4,1.88,-1.68,-0.55,0.28,-0.21
9.596310973167419,3,3,3,3,-9.4,1.88,-1.68,-0.55,0.28,-0.21
9.617310881614685,3,3,3,3,-9.460000000000001,1.79,-1.76,-0.04,0.14,-0.15
9.617310881614685,3,3,3,3,-9.460000000000001,1.79,-1.76,-0.04,0.14,-0.15
9.637311100959778,3,3,3,3,-9.630000000000001,1.98,-1.8,0.3,-0.11,-0.24
9.637311100959778,3,3,3,3,-9.630000000000001,1.98,-1.8,0.3,-0.11,-0.24
9.657311081886292,3,3,3,3,-9.369999999999999,2.1,-1.52,0.35,-0.32,-0.44
9.657311081886292,3,3,3,3,-9.369999999999999,2.1,-1.52,0.35,-0.32,-0.44
9.677311062812805,3,3,3,3,-9.25,2.05,-1.63,0.12,0.05,-0.32
9.677311062812805,3,3,3,3,-9.25,2.05,-1.63,0.12,0.05,-0.32
9.697311043739319,3,3,3,3,-9.359999999999999,1.8,-1.59,0,0.06,-0.09
9.697311043739319,3,3,3,3,-9.359999999999999,1.8,-1.59,0,0.06,-0.09
9.717311024665833,3,3,3,3,-9.460000000000001,1.87,-1.54,0.3,0.08,0.1
9.717311024665833,3,3,3,3,-9.460000000000001,1.87,-1.54,0.3,0.08,0.1
9.737311005592346,3,3,3,3,-9.460000000000001,1.98,-1.57,0.34,0.05,0.21
9.737311005592346,3,3,3,3,-9.460000000000001,1.98,-1.57,0.34,0.05,0.21
9.75731098651886,3,3,3,3,-9.5,1.96,-1.6,0.27,0.01,0.25
9.75731098651886,3,3,3,3,-9.5,1.96,-1.6,0.27,0.01,0.25
9.777310967445374,3,3,3,3,-9.51,1.93,-1.79,0.25,0.13,0.26
9.777310967445374,3,3,3,3,-9.51,1.93,-1.79,0.25,0.13,0.26
9.797310948371887,3,3,3,3,-9.460000000000001,1.88,-1.74,0.38,-0.22,0.09
9.797310948371887,3,3,3,3,-9.460000000000001,1.88,-1.74,0.38,-0.22,0.09
9.817310929298401,3,3,3,3,-9.460000000000001,2.07,-1.42,0.88,-0.64,-0.21
9.817310929298401,3,3,3,3,-9.460000000000001,2.07,-1.42,0.88,-0.64,-0.21
9.837310910224915,3,3,3,3,-9.41,2.14,-1.47,0.82,-0.38,-0.16
9.837310910224915,3,3,3,3,-9.41,2.14,-1.47,0.82,-0.38,-0.16
9.857310891151428,3,3,3,3,-9.279999999999999,2.19,-1.57,0.3,-0.22,0.18
9.857310891151428,3,3,3,3,-9.279999999999999,2.19,-1.57,0.3,-0.22,0.18
9.877310872077942,3,3,3,3,-9.31,2.21,-1.71,-0.02,-0.18,0.52
9.877310872077942,3,3,3,3,-9.31,2.21,-1.71,-0.02,-0.18,0.52
9.897311091423035,3,3,3,3,-9.42,2.1,-1.66,-0.04,0.02,0.59
9.897311091423035,3,3,3,3,-9.42,2.1,-1.66,-0.04,0.02,0.59
9.917311072349548,3,3,3,3,-9.539999999999999,1.94,-1.69,-0.28,0.1,0.55
9.917311072349548,3,3,3,3,-9.539999999999999,1.94,-1.69,-0.28,0.1,0.55
9.937311053276062,3,3,3,3,-9.460000000000001,1.79,-1.77,-0.19,-0.02,0.36
9.937311053276062,3,3,3,3,-9.460000000000001,1.79,-1.77,-0.19,-0.02,0.36
9.957311034202576,3,3,3,3,-9.42,1.92,-1.69,0.14,-0.21,0.25
9.957311034202576,3,3,3,3,-9.42,1.92,-1.69,0.14,-0.21,0.25
9.977311015129089,3,3,3,3,-9.390000000000001,2.08,-1.65,0.29,-0.5,0.27
9.977311015129089,3,3,3,3,-9.390000000000001,2.08,-1.65,0.29,-0.5,0.27
9.997310996055603,3,3,3,3,-9.4,2.08,-1.57,0.32,-0.38,0.36
9.997310996055603,3,3,3,3,-9.4,2.08,-1.57,0.32,-0.38,0.36
10.01731097698212,3,3,3,3,-9.44,2.18,-1.57,0.06,-0.24,0.34
10.01731097698212,3,3,3,3,-9.44,2.18,-1.57,0.06,-0.24,0.34
10.03731095790863,3,3,3,3,-9.42,2.22,-1.55,-0.29,-0.13,0.32
10.03731095790863,3,3,3,3,-9.42,2.22,-1.55,-0.29,-0.13,0.32
10.05731093883514,3,3,3,3,-9.300000000000001,2.09,-1.53,-0.71,-0.08,0.18
10.05731093883514,3,3,3,3,-9.300000000000001,2.09,-1.53,-0.71,-0.08,0.18
10.07731091976166,3,3,3,3,-9.380000000000001,2.06,-1.69,-0.76,-0.18,0.2
10.07731091976166,3,3,3,3,-9.380000000000001,2.06,-1.69,-0.76,-0.18,0.2
10.09731090068817,3,3,3,3,-9.51,2.13,-1.74,-0.5600000000000001,-0.09,0.31
10.09731090068817,3,3,3,3,-9.51,2.13,-1.74,-0.5600000000000001,-0.09,0.31
10.11731088161469,3,3,3,3,-9.33,2.1,-1.67,-0.21,-0.35,0.34
10.11731088161469,3,3,3,3,-9.33,2.1,-1.67,-0.21,-0.35,0.34
10.13731110095978,3,3,3,3,-9.32,1.97,-1.51,0.16,-0.42,0.3
10.13731110095978,3,3,3,3,-9.32,1.97,-1.51,0.16,-0.42,0.3
10.15731108188629,3,3,3,3,-9.35,1.93,-1.28,0.34,-0.51,0.32
10.15731108188629,3,3,3,3,-9.35,1.93,-1.28,0.34,-0.51,0.32
10.17731106281281,3,3,3,3,-9.470000000000001,2.16,-1.41,0.25,-0.44,0.45
10.17731106281281,3,3,3,3,-9.470000000000001,2.16,-1.41,0.25,-0.44,0.45
10.19731104373932,3,3,3,3,-9.49,2.54,-1.42,-0.32,-0.4,0.58
10.19731104373932,3,3,3,3,-9.49,2.54,-1.42,-0.32,-0.4,0.58
10.21731102466583,3,3,3,3,-9.470000000000001,2.13,-1.32,-1.36,-0.39,0.41
10.21731102466583,3,3,3,3,-9.470000000000001,2.13,-1.32,-1.36,-0.39,0.41
10.23731100559235,3,3,3,3,-9.48,1.58,-1.44,-1.28,-0.19,0.23
10.23731100559235,3,3,3,3,-9.48,1.58,-1.44,-1.28,-0.19,0.23
10.25731098651886,3,3,3,3,-9.449999999999999,1.71,-1.58,-0.74,-0.09,0.22
10.25731098651886,3,3,3,3,-9.449999999999999,1.71,-1.58,-0.74,-0.09,0.22
10.27731096744537,3,3,3,3,-9.57,2.25,-2.06,-0.75,0.07000000000000001,0.34
10.27731096744537,3,3,3,3,-9.57,2.25,-2.06,-0.75,0.07000000000000001,0.34
10.29731094837189,3,3,3,3,-9.539999999999999,2.28,-2.02,-1.13,-0.36,0.22
10.29731094837189,3,3,3,3,-9.539999999999999,2.28,-2.02,-1.13,-0.36,0.22
10.3173109292984,3,3,3,3,-9.390000000000001,2.12,-1.78,-0.87,-0.46,0.02
10.3173109292984,3,3,3,3,-9.390000000000001,2.12,-1.78,-0.87,-0.46,0.02
10.33731091022491,3,3,3,3,-9.279999999999999,2.04,-1.51,-0.53,-0.85,-0.12
10.33731091022491,3,3,3,3,-9.279999999999999,2.04,-1.51,-0.53,-0.85,-0.12
10.35731089115143,3,3,3,3,-9.199999999999999,2.09,-1.21,-0.02,-0.93,-0.02
10.35731089115143,3,3,3,3,-9.199999999999999,2.09,-1.21,-0.02,-0.93,-0.02
10.37731087207794,3,3,3,3,-9.300000000000001,2.27,-1.28,0.28,-0.84,0.37
10.37731087207794,3,3,3,3,-9.300000000000001,2.27,-1.28,0.28,-0.84,0.37
10.39731109142303,3,3,3,3,-9.43,2.37,-1.32,0.01,-0.52,0.51
10.39731109142303,3,3,3,3,-9.43,2.37,-1.32,0.01,-0.52,0.51
10.41731107234955,3,3,3,3,-9.460000000000001,2.28,-1.39,-0.53,-0.26,0.55
10.41731107234955,3,3,3,3,-9.460000000000001,2.28,-1.39,-0.53,-0.26,0.55
10.43731105327606,3,3,3,3,-9.69,2.24,-1.73,-1.06,-0.35,0.49
10.43731105327606,3,3,3,3,-9.69,2.24,-1.73,-1.06,-0.35,0.49
10.45731103420258,3,3,3,3,-9.710000000000001,2.05,-1.56,-1.23,-0.57,0.31
10.45731103420258,3,3,3,3,-9.710000000000001,2.05,-1.56,-1.23,-0.57,0.31
10.47731101512909,3,3,3,3,-9.470000000000001,2.03,-1.48,-0.16,-1.07,-0.23
10.47731101512909,3,3,3,3,-9.470000000000001,2.03,-1.48,-0.16,-1.07,-0.23
10.4973109960556,3,3,3,3,-9.41,2.16,-1.25,0.2,-0.99,-0.44
10.4973109960556,3,3,3,3,-9.41,2.16,-1.25,0.2,-0.99,-0.44
10.51731097698212,3,3,3,3,-9.33,2.06,-0.99,0.39,-0.97,-0.41
10.51731097698212,3,3,3,3,-9.33,2.06,-0.99,0.39,-0.97,-0.41
10.53731095790863,3,3,3,3,-9.41,2.05,-1.04,-0.08,-0.83,0.12
10.53731095790863,3,3,3,3,-9.41,2.05,-1.04,-0.08,-0.83,0.12
10.55731093883514,3,3,3,3,-9.300000000000001,2.17,-1.12,-0.27,-0.75,0.24
10.55731093883514,3,3,3,3,-9.300000000000001,2.17,-1.12,-0.27,-0.75,0.24
10.57731091976166,3,3,3,3,-9.18,2.22,-1.33,-0.43,-0.93,0.49
10.57731091976166,3,3,3,3,-9.18,2.22,-1.33,-0.43,-0.93,0.49
10.59731090068817,3,3,3,3,-9.31,2.19,-1.21,-0.41,-0.92,0.58
10.59731090068817,3,3,3,3,-9.31,2.19,-1.21,-0.41,-0.92,0.58
10.61731088161469,3,3,3,3,-9.44,2.31,-1.25,-0.71,-0.86,0.84
10.61731088161469,3,3,3,3,-9.44,2.31,-1.25,-0.71,-0.86,0.84
10.63831102848053,3,3,3,3,-9.52,2.25,-1.25,-0.78,-0.76,0.8
10.63831102848053,3,3,3,3,-9.52,2.25,-1.25,-0.78,-0.76,0.8
10.65831100940704,3,3,3,3,-9.619999999999999,2.04,-1.13,-0.75,-0.89,0.74
10.65831100940704,3,3,3,3,-9.619999999999999,2.04,-1.13,-0.75,-0.89,0.74
10.67831099033356,3,3,3,3,-9.550000000000001,1.81,-0.93,-0.3,-0.92,0.6899999999999999
10.67831099033356,3,3,3,3,-9.550000000000001,1.81,-0.93,-0.3,-0.92,0.6899999999999999
10.69831097126007,3,3,3,3,-9.539999999999999,1.66,-0.73,-0.19,-1.18,0.71
10.69831097126007,3,3,3,3,-9.539999999999999,1.66,-0.73,-0.19,-1.18,0.71
10.71831095218658,3,3,3,3,-9.640000000000001,1.47,-0.5,0.61,-1.48,0.5
10.71831095218658,3,3,3,3,-9.640000000000001,1.47,-0.5,0.61,-1.48,0.5
10.7383109331131,3,3,3,3,-9.640000000000001,1.43,-0.6899999999999999,0.72,-1.28,0.42
10.7383109331131,3,3,3,3,-9.640000000000001,1.43,-0.6899999999999999,0.72,-1.28,0.42
10.75831091403961,3,3,3,3,-9.69,1.45,-0.78,0.65,-1.38,0.4
10.75831091403961,3,3,3,3,-9.69,1.45,-0.78,0.65,-1.38,0.4
10.77831089496613,3,3,3,3,-9.970000000000001,-0.01,0.03,3.4,-1.6,-0.48
10.77831089496613,3,3,3,3,-9.970000000000001,-0.01,0.03,3.4,-1.6,-0.48
10.79831087589264,3,3,3,3,-10.26,-1.17,0.73,5.31,-1.01,-1.06
10.79831087589264,3,3,3,3,-10.26,-1.17,0.73,5.31,-1.01,-1.06
10.81831109523773,3,3,3,3,-11.2,-2.16,0.07000000000000001,6.44,-2.61,-2.91
10.81831109523773,3,3,3,3,-11.2,-2.16,0.07000000000000001,6.44,-2.61,-2.91
10.83831107616425,3,3,3,3,-10.88,-2.14,0.27,6.34,-5.07,-5.02
10.83831107616425,3,3,3,3,-10.88,-2.14,0.27,6.34,-5.07,-5.02
10.85831105709076,3,3,3,3,-10.82,-3.17,1.08,6.79,-5.46,-6.18
10.85831105709076,3,3,3,3,-10.82,-3.17,1.08,6.79,-5.46,-6.18
10.87831103801727,3,3,3,3,-11.35,-3.96,0.73,6.06,-6.47,-10.81
10.87831103801727,3,3,3,3,-11.35,-3.96,0.73,6.06,-6.47,-10.81
10.89831101894379,3,3,3,3,-12.39,-4.8,0.05,5.9,-7.13,-12.35
10.89831101894379,3,3,3,3,-12.39,-4.8,0.05,5.9,-7.13,-12.35
10.9183109998703,3,3,3,3,-12.7,-4.85,-0.32,3.7,-6.13,-15.51
10.9183109998703,3,3,3,3,-12.7,-4.85,-0.32,3.7,-6.13,-15.51
10.93831098079681,3,3,3,3,-10.81,-1.96,-0.54,-1.5,-5.31,-10.66
10.93831098079681,3,3,3,3,-10.81,-1.96,-0.54,-1.5,-5.31,-10.66
10.95831096172333,3,3,3,3,-11.43,0.49,-0.1,-1.13,-4.94,-10.55
10.95831096172333,3,3,3,3,-11.43,0.49,-0.1,-1.13,-4.94,-10.55
10.97831094264984,3,3,3,3,-11.73,3.84,-0.15,-1.12,-5.49,-10.71
10.97831094264984,3,3,3,3,-11.73,3.84,-0.15,-1.12,-5.49,-10.71
10.99831092357635,3,3,3,3,-10.73,5.71,-0.48,-3.85,-2.63,-10.77
10.99831092357635,3,3,3,3,-10.73,5.71,-0.48,-3.85,-2.63,-10.77
11.01831090450287,3,3,3,3,-9.59,3.39,-1.89,-6.56,-1.47,-12.34
11.01831090450287,3,3,3,3,-9.59,3.39,-1.89,-6.56,-1.47,-12.34
11.03831088542938,3,3,3,3,-9.57,1.5,-2.22,-7.58,-0.52,-13.51
11.03831088542938,3,3,3,3,-9.57,1.5,-2.22,-7.58,-0.52,-13.51
11.05831110477448,3,3,3,3,-10.03,0.16,-2.64,-4.94,0.42,-13.61
11.05831110477448,3,3,3,3,-10.03,0.16,-2.64,-4.94,0.42,-13.61
11.07831108570099,3,3,3,3,-9.390000000000001,-0.63,-2.85,-0.9,0.21,-13.11
11.07831108570099,3,3,3,3,-9.390000000000001,-0.63,-2.85,-0.9,0.21,-13.11
11.0983110666275,3,3,3,3,-8.6,-0.23,-2.2,1.87,0.33,-12.61
11.0983110666275,3,3,3,3,-8.6,-0.23,-2.2,1.87,0.33,-12.61
11.11831104755402,3,3,3,3,-8.44,0.23,-1.98,9.289999999999999,1.18,-10.79
11.11831104755402,3,3,3,3,-8.44,0.23,-1.98,9.289999999999999,1.18,-10.79
11.13831102848053,3,3,3,3,-8.07,-0.1,-1.45,12.42,1.3,-9.699999999999999
11.13831102848053,3,3,3,3,-8.07,-0.1,-1.45,12.42,1.3,-9.699999999999999
11.15831100940704,3,3,3,3,-8.220000000000001,-0.58,-0.84,14.86,1.44,-8.65
11.15831100940704,3,3,3,3,-8.220000000000001,-0.58,-0.84,14.86,1.44,-8.65
11.17831099033356,3,3,3,3,-8.630000000000001,-0.65,0.01,17.14,0.88,-7.49
11.17831099033356,3,3,3,3,-8.630000000000001,-0.65,0.01,17.14,0.88,-7.49
11.19831097126007,3,3,3,3,-8.59,-0.41,0.28,17.9,0.57,-7.12
11.19831097126007,3,3,3,3,-8.59,-0.41,0.28,17.9,0.57,-7.12
11.21831095218658,3,3,3,3,-8.460000000000001,0.3,0.6,17.4,-0.39,-6.1
11.21831095218658,3,3,3,3,-8.460000000000001,0.3,0.6,17.4,-0.39,-6.1
11.2383109331131,3,3,3,3,-8.17,0.18,0.48,14.66,-0.51,-4.99
11.2383109331131,3,3,3,3,-8.17,0.18,0.48,14.66,-0.51,-4.99
11.25831091403961,3,3,3,3,-7.54,-0.9399999999999999,0.28,12.56,-0.52,-4.52
11.25831091403961,3,3,3,3,-7.54,-0.9399999999999999,0.28,12.56,-0.52,-4.52
11.27831089496613,3,3,3,3,-8.17,-1.87,0.36,6.79,2.17,-5.07
11.27831089496613,3,3,3,3,-8.17,-1.87,0.36,6.79,2.17,-5.07
11.29831087589264,3,3,3,3,-8.390000000000001,-2.19,1.26,5.23,2.34,-5.35
11.29831087589264,3,3,3,3,-8.390000000000001,-2.19,1.26,5.23,2.34,-5.35
11.31831109523773,3,3,3,3,-8.31,-2.23,1.64,4.25,2.65,-2.65
11.31831109523773,3,3,3,3,-8.31,-2.23,1.64,4.25,2.65,-2.65
11.33831107616425,3,3,3,3,-9.69,-3.25,2.09,1.31,2.52,-1.65
11.33831107616425,3,3,3,3,-9.69,-3.25,2.09,1.31,2.52,-1.65
11.35831105709076,3,3,3,3,-9.85,-4.32,3.24,-0.06,1.9,-1.83
11.35831105709076,3,3,3,3,-9.85,-4.32,3.24,-0.06,1.9,-1.83
11.37831103801727,3,3,3,3,-9.529999999999999,-5.91,2.86,0.48,2.53,-2.15
11.37831103801727,3,3,3,3,-9.529999999999999,-5.91,2.86,0.48,2.53,-2.15
11.39831101894379,3,3,3,3,-9.23,-6.03,1.67,0.54,2.88,-2.18
11.39831101894379,3,3,3,3,-9.23,-6.03,1.67,0.54,2.88,-2.18
11.4183109998703,3,3,3,3,-8.699999999999999,-5.31,1.36,2.31,2.31,-0.73
11.4183109998703,3,3,3,3,-8.699999999999999,-5.31,1.36,2.31,2.31,-0.73
11.43931090831757,3,3,3,3,-8.460000000000001,-3.72,0.15,5,3.09,0.66
11.43931090831757,3,3,3,3,-8.460000000000001,-3.72,0.15,5,3.09,0.66
11.45831096172333,3,3,3,3,-9.01,-3.22,-0.12,5.95,3.59,1.14
11.45831096172333,3,3,3,3,-9.01,-3.22,-0.12,5.95,3.59,1.14
11.47831094264984,3,3,3,3,-11.39,-1.85,0,5.16,1.73,1.27
11.47831094264984,3,3,3,3,-11.39,-1.85,0,5.16,1.73,1.27
11.49931108951569,3,3,3,3,-12.92,-5.8,2.85,4.47,1.74,0.54
11.49931108951569,3,3,3,3,-12.92,-5.8,2.85,4.47,1.74,0.54
11.51831090450287,3,3,3,3,-12.79,-7.15,3.48,1.64,4.3,0.53
11.51831090450287,3,3,3,3,-12.79,-7.15,3.48,1.64,4.3,0.53
11.53831088542938,3,3,3,3,-12.35,-4.97,1.73,1.44,5.32,3.57
11.53831088542938,3,3,3,3,-12.35,-4.97,1.73,1.44,5.32,3.57
11.55931103229523,3,3,3,3,-7.7,4.95,0.67,0.07000000000000001,5.79,5.03
11.55931103229523,3,3,3,3,-7.7,4.95,0.67,0.07000000000000001,5.79,5.03
11.57831108570099,3,3,3,3,-6.33,2.51,-3.35,0.72,11.78,7.72
11.57831108570099,3,3,3,3,-6.33,2.51,-3.35,0.72,11.78,7.72
11.5983110666275,3,3,3,3,-7.93,-0.31,-3.17,-2.1,9.09,5.31
11.5983110666275,3,3,3,3,-7.93,-0.31,-3.17,-2.1,9.09,5.31
11.61931097507477,3,3,3,3,-8.960000000000001,0.55,-3.78,-1.5,6.43,6.98
11.61931097507477,3,3,3,3,-8.960000000000001,0.55,-3.78,-1.5,6.43,6.98
11.63831102848053,3,3,3,3,-11.28,1.12,-2.18,-0.49,5.16,7.54
11.63831102848053,3,3,3,3,-11.28,1.12,-2.18,-0.49,5.16,7.54
11.65831100940704,3,3,3,3,-10.99,1.24,-2.2,0.62,5.51,8.029999999999999
11.65831100940704,3,3,3,3,-10.99,1.24,-2.2,0.62,5.51,8.029999999999999
11.67931091785431,3,3,3,3,-9.720000000000001,1.89,-2.46,1.06,7.04,9.19
11.67931091785431,3,3,3,3,-9.720000000000001,1.89,-2.46,1.06,7.04,9.19
11.69931089878082,3,3,3,2,-9.779999999999999,2.03,-2.62,0.9399999999999999,7.35,9.9
11.69931089878082,3,3,3,2,-9.779999999999999,2.03,-2.62,0.9399999999999999,7.35,9.9
11.71931087970734,3,3,3,2,-9.710000000000001,1.58,-3.36,0.46,7.17,10.39
11.71931087970734,3,3,3,2,-9.710000000000001,1.58,-3.36,0.46,7.17,10.39
11.73931109905243,3,3,3,2,-9.710000000000001,1,-2.76,0.9,6.64,10.77
11.73931109905243,3,3,3,2,-9.710000000000001,1,-2.76,0.9,6.64,10.77
11.75931107997894,3,3,3,2,-9.75,1.34,-2.66,1.38,5.97,11.06
11.75931107997894,3,3,3,2,-9.75,1.34,-2.66,1.38,5.97,11.06
11.77931106090546,3,3,3,2,-9.869999999999999,1.97,-2.22,-0.2,5.32,11.05
11.77931106090546,3,3,3,2,-9.869999999999999,1.97,-2.22,-0.2,5.32,11.05
11.79931104183197,3,3,3,1,-9.800000000000001,2.56,-2.78,-3.26,4.95,10.58
11.79931104183197,3,3,3,1,-9.800000000000001,2.56,-2.78,-3.26,4.95,10.58
11.81931102275848,3,3,3,1,-9.09,1.09,-4.17,-7.2,5,9.77
11.81931102275848,3,3,3,1,-9.09,1.09,-4.17,-7.2,5,9.77
11.839311003685,3,3,3,1,-9.07,0.24,-4.09,-9.41,4.79,9.59
11.839311003685,3,3,3,1,-9.07,0.24,-4.09,-9.41,4.79,9.59
11.85931098461151,3,3,3,1,-9.06,-0.26,-3.95,-9.140000000000001,3.9,10.54
11.85931098461151,3,3,3,1,-9.06,-0.26,-3.95,-9.140000000000001,3.9,10.54
11.87931096553802,3,3,3,1,-9.460000000000001,-0.34,-3.06,-12.46,3.91,11.2
11.87931096553802,3,3,3,1,-9.460000000000001,-0.34,-3.06,-12.46,3.91,11.2
11.89931094646454,3,3,3,1,-9.619999999999999,-0.58,-2.97,-13.87,3.41,11.67
11.89931094646454,3,3,3,1,-9.619999999999999,-0.58,-2.97,-13.87,3.41,11.67
11.91931092739105,3,3,3,1,-9.550000000000001,-2.64,-2.77,-10.68,3.77,11.99
11.91931092739105,3,3,3,1,-9.550000000000001,-2.64,-2.77,-10.68,3.77,11.99
11.93931090831757,3,3,3,1,-9.369999999999999,-0.32,-2.47,-7.3,5.36,11.05
11.93931090831757,3,3,3,1,-9.369999999999999,-0.32,-2.47,-7.3,5.36,11.05
11.95931088924408,3,3,3,1,-9.970000000000001,0.98,-2.97,-4.94,4.91,8.31
11.95931088924408,3,3,3,1,-9.970000000000001,0.98,-2.97,-4.94,4.91,8.31
11.97931087017059,3,3,3,1,-9.529999999999999,1.69,-2.82,-3.59,2.13,5.94
11.97931087017059,3,3,3,1,-9.529999999999999,1.69,-2.82,-3.59,2.13,5.94
11.99931108951569,3,3,3,1,-8.91,1.48,-2.51,-4.42,1.41,5.63
11.99931108951569,3,3,3,1,-8.91,1.48,-2.51,-4.42,1.41,5.63
12.0193110704422,3,3,3,1,-8.91,1.28,-2.57,-5.19,2.08,5.65
12.0193110704422,3,3,3,1,-8.91,1.28,-2.57,-5.19,2.08,5.65
12.03931105136871,3,3,3,1,-8.970000000000001,1.23,-2.25,-6.22,3.32,5.07
12.03931105136871,3,3,3,1,-8.970000000000001,1.23,-2.25,-6.22,3.32,5.07
12.05931103229523,3,3,3,1,-9.619999999999999,1.56,-2.57,-6.97,3.9,4.55
12.05931103229523,3,3,3,1,-9.619999999999999,1.56,-2.57,-6.97,3.9,4.55
12.07931101322174,3,3,3,1,-9.67,1.57,-2.44,-6.95,3.05,4.45
12.07931101322174,3,3,3,1,-9.67,1.57,-2.44,-6.95,3.05,4.45
12.09931099414825,3,3,3,1,-9.44,1.32,-2.27,-6.29,2.5,4.42
12.09931099414825,3,3,3,1,-9.44,1.32,-2.27,-6.29,2.5,4.42
12.11931097507477,3,3,3,1,-9.039999999999999,1.7,-2.45,-4.65,2.22,4.4
12.11931097507477,3,3,3,1,-9.039999999999999,1.7,-2.45,-4.65,2.22,4.4
12.13931095600128,3,3,3,1,-9,1.96,-2.64,-3.71,2.32,4.49
12.13931095600128,3,3,3,1,-9,1.96,-2.64,-3.71,2.32,4.49
12.1593109369278,3,3,3,1,-9.16,2.01,-2.55,-3.87,2.3,4.63
12.1593109369278,3,3,3,1,-9.16,2.01,-2.55,-3.87,2.3,4.63
12.17931091785431,3,3,3,1,-9.279999999999999,2.06,-2.46,-4.72,2.14,5.01
12.17931091785431,3,3,3,1,-9.279999999999999,2.06,-2.46,-4.72,2.14,5.01
12.19931089878082,3,3,3,1,-9.050000000000001,1.65,-2.42,-6.23,2.32,5.13
12.19931089878082,3,3,3,1,-9.050000000000001,1.65,-2.42,-6.23,2.32,5.13
12.21931087970734,3,3,3,1,-9.300000000000001,1.05,-2.83,-7.07,2.55,4.95
12.21931087970734,3,3,3,1,-9.300000000000001,1.05,-2.83,-7.07,2.55,4.95
12.23931109905243,3,3,3,1,-9.92,1.48,-3.03,-6.64,2.08,4.94
12.23931109905243,3,3,3,1,-9.92,1.48,-3.03,-6.64,2.08,4.94
12.25931107997894,3,3,3,1,-10.46,1.57,-2.92,-5.66,0.87,4.95
12.25931107997894,3,3,3,1,-10.46,1.57,-2.92,-5.66,0.87,4.95
12.27931106090546,3,3,3,1,-10.59,1.31,-2.92,-5.38,0.5600000000000001,4.74
12.27931106090546,3,3,3,1,-10.59,1.31,-2.92,-5.38,0.5600000000000001,4.74
12.29931104183197,3,3,3,1,-11.48,0.79,-2.17,-5.96,0.99,4.34
12.29931104183197,3,3,3,1,-11.48,0.79,-2.17,-5.96,0.99,4.34
12.31931102275848,3,3,3,1,-12.11,-0.37,-1.63,-6.87,0.47,3.57
12.31931102275848,3,3,3,1,-12.11,-0.37,-1.63,-6.87,0.47,3.57
12.339311003685,3,3,3,1,-12.57,-2.59,-0.74,-7.66,-0.31,2.18
12.339311003685,3,3,3,1,-12.57,-2.59,-0.74,-7.66,-0.31,2.18
12.35931098461151,3,3,3,1,-13.18,-4.22,0.1,-7.16,-1.95,-0.04
12.35931098461151,3,3,3,1,-13.18,-4.22,0.1,-7.16,-1.95,-0.04
12.37931096553802,3,3,3,1,-14.08,-5.7,1.48,-5.31,-5.24,-3.04
12.37931096553802,3,3,3,1,-14.08,-5.7,1.48,-5.31,-5.24,-3.04
12.39931094646454,3,3,3,1,-13.99,-7.22,1.95,-5.71,-8.08,-7.49
12.39931094646454,3,3,3,1,-13.99,-7.22,1.95,-5.71,-8.08,-7.49
12.41931092739105,3,3,3,1,-12.35,-3.05,3.26,-4.64,-10.74,-10.4
12.41931092739105,3,3,3,1,-12.35,-3.05,3.26,-4.64,-10.74,-10.4
12.43931090831757,3,3,3,1,-10.85,-3.71,-0.99,-10.82,-10.76,-12.45
12.43931090831757,3,3,3,1,-10.85,-3.71,-0.99,-10.82,-10.76,-12.45
12.45931088924408,3,3,3,1,-13.38,0.83,-2.79,-6.93,-9.460000000000001,-17.44
12.45931088924408,3,3,3,1,-13.38,0.83,-2.79,-6.93,-9.460000000000001,-17.44
12.47931087017059,3,3,3,1,-15.27,5.59,-3.42,-4.06,-9.23,-18.71
12.47931087017059,3,3,3,1,-15.27,5.59,-3.42,-4.06,-9.23,-18.71
12.49931108951569,3,3,3,1,-14.21,6.31,-3.46,-5.05,-7.54,-18.43
12.49931108951569,3,3,3,1,-14.21,6.31,-3.46,-5.05,-7.54,-18.43
12.5193110704422,3,3,3,1,-11.24,5.02,-2.25,-4.97,-6.04,-20.42
12.5193110704422,3,3,3,1,-11.24,5.02,-2.25,-4.97,-6.04,-20.42
12.53931105136871,3,3,3,1,-11.61,5.22,-1.82,-3.31,-4.36,-22.02
12.53931105136871,3,3,3,1,-11.61,5.22,-1.82,-3.31,-4.36,-22.02
12.55931103229523,3,3,3,1,-10.97,6.63,-2.4,-2.5,-3.65,-21.16
12.55931103229523,3,3,3,1,-10.97,6.63,-2.4,-2.5,-3.65,-21.16
12.57931101322174,3,3,3,1,-9.5,6.63,-2.59,-2.46,-3.01,-20.8
12.57931101322174,3,3,3,1,-9.5,6.63,-2.59,-2.46,-3.01,-20.8
12.59931099414825,3,3,3,1,-8.93,4.84,-3.09,-3.21,-1.87,-21.55
12.59931099414825,3,3,3,1,-8.93,4.84,-3.09,-3.21,-1.87,-21.55
12.61931097507477,3,3,3,1,-8.59,3.62,-3.29,-3.72,-0.83,-21.78
12.61931097507477,3,3,3,1,-8.59,3.62,-3.29,-3.72,-0.83,-21.78
12.63931095600128,3,3,3,1,-7.84,2.33,-3.19,0.17,-0.42,-20.8
12.63931095600128,3,3,3,1,-7.84,2.33,-3.19,0.17,-0.42,-20.8
12.6593109369278,3,3,3,1,-7.54,2.52,-3.14,7.01,0.06,-18.93
12.6593109369278,3,3,3,1,-7.54,2.52,-3.14,7.01,0.06,-18.93
12.67931091785431,3,3,3,1,-7.75,3.43,-3.03,13.39,0.38,-17.08
12.67931091785431,3,3,3,1,-7.75,3.43,-3.03,13.39,0.38,-17.08
12.70031106472015,3,3,3,1,-7.64,3.94,-2.66,17.17,0.14,-15.31
12.70031106472015,3,3,3,1,-7.64,3.94,-2.66,17.17,0.14,-15.31
12.72031104564667,3,3,3,1,-7.3,4.33,-2.78,18.18,-0.13,-13.61
12.72031104564667,3,3,3,1,-7.3,4.33,-2.78,18.18,-0.13,-13.61
12.74031102657318,3,3,3,1,-6.94,4.44,-2.9,16.68,0.85,-11.34
12.74031102657318,3,3,3,1,-6.94,4.44,-2.9,16.68,0.85,-11.34
12.76031100749969,3,3,3,1,-6.39,4.05,-2.66,13.67,2.05,-9.15
12.76031100749969,3,3,3,1,-6.39,4.05,-2.66,13.67,2.05,-9.15
12.78031098842621,3,3,3,1,-6.3,3.72,-2.03,11.05,2.58,-7.87
12.78031098842621,3,3,3,1,-6.3,3.72,-2.03,11.05,2.58,-7.87
12.80031096935272,3,3,3,1,-5.94,3.05,-1.15,9.130000000000001,2.83,-6.06
12.80031096935272,3,3,3,1,-5.94,3.05,-1.15,9.130000000000001,2.83,-6.06
12.82031095027924,3,3,3,1,-6,2.18,-0.95,7.4,3.87,-4.14
12.82031095027924,3,3,3,1,-6,2.18,-0.95,7.4,3.87,-4.14
12.84031093120575,3,3,3,1,-6.68,0.41,-0.74,4.57,5.82,-1.4
12.84031093120575,3,3,3,1,-6.68,0.41,-0.74,4.57,5.82,-1.4
12.86031091213226,3,3,3,1,-7.64,-0.28,-0.87,1.74,7,0.98
12.86031091213226,3,3,3,1,-7.64,-0.28,-0.87,1.74,7,0.98
12.88031089305878,3,3,3,1,-10.06,-3.41,0.8100000000000001,1.56,6.75,0.86
12.88031089305878,3,3,3,1,-10.06,-3.41,0.8100000000000001,1.56,6.75,0.86
12.90031087398529,3,3,3,1,-10.79,-7.39,2.44,2.12,7.7,-2.21
12.90031087398529,3,3,3,1,-10.79,-7.39,2.44,2.12,7.7,-2.21
12.92031109333038,3,3,3,1,-13.33,-14.12,5.03,4.39,8.08,-4.71
12.92031109333038,3,3,3,1,-13.33,-14.12,5.03,4.39,8.08,-4.71
12.9403110742569,3,3,3,1,-15.22,-17.19,3.71,8.91,1.14,-6.43
12.9403110742569,3,3,3,1,-15.22,-17.19,3.71,8.91,1.14,-6.43
12.96031105518341,3,3,3,1,-11.21,-6.4,2.33,5.21,-6.81,-5.41
12.96031105518341,3,3,3,1,-11.21,-6.4,2.33,5.21,-6.81,-5.41
12.98031103610992,3,3,3,1,-8.949999999999999,-0.5600000000000001,0,6.69,-4.14,-3.23
12.98031103610992,3,3,3,1,-8.949999999999999,-0.5600000000000001,0,6.69,-4.14,-3.23
13.00031101703644,3,3,3,1,-6.42,2.07,-1.83,6.24,3.24,-6.44
13.00031101703644,3,3,3,1,-6.42,2.07,-1.83,6.24,3.24,-6.44
13.02031099796295,3,3,3,1,-6.36,3.65,-2.42,-9.380000000000001,3.21,7.35
13.02031099796295,3,3,3,1,-6.36,3.65,-2.42,-9.380000000000001,3.21,7.35
13.04031097888947,3,3,3,1,-18.82,-15.25,6.6,2.08,-0.96,4.76
13.04031097888947,3,3,3,1,-18.82,-15.25,6.6,2.08,-0.96,4.76
13.06031095981598,3,3,3,1,-16.46,-6.56,1.08,8.859999999999999,3.47,5.11
13.06031095981598,3,3,3,1,-16.46,-6.56,1.08,8.859999999999999,3.47,5.11
13.08031094074249,3,3,3,1,-8.43,9.5,-2.47,14.3,4.22,9.98
13.08031094074249,3,3,3,1,-8.43,9.5,-2.47,14.3,4.22,9.98
13.10031092166901,3,3,3,0,-5.45,6.36,-8.130000000000001,6.88,11.65,10.47
13.10031092166901,3,3,3,0,-5.45,6.36,-8.130000000000001,6.88,11.65,10.47
13.12031090259552,3,3,3,0,-7.3,0.51,-7.04,1.74,9.890000000000001,11.47
13.12031090259552,3,3,3,0,-7.3,0.51,-7.04,1.74,9.890000000000001,11.47
13.14031088352203,3,3,3,0,-9.199999999999999,3.97,-5.38,3.03,7.92,13.8
13.14031088352203,3,3,3,0,-9.199999999999999,3.97,-5.38,3.03,7.92,13.8
13.16031110286713,3,3,3,0,-9.83,5.18,-3.48,7.13,6.74,14.09
13.16031110286713,3,3,3,0,-9.83,5.18,-3.48,7.13,6.74,14.09
13.18031108379364,3,3,3,0,-10.88,2.86,-0.41,5.31,7.5,13.39
13.18031108379364,3,3,3,0,-10.88,2.86,-0.41,5.31,7.5,13.39
13.20031106472015,3,3,3,0,-10.53,2.87,-0.89,2.93,6.8,14.23
13.20031106472015,3,3,3,0,-10.53,2.87,-0.89,2.93,6.8,14.23
13.22031104564667,3,3,3,0,-9.029999999999999,2.46,-3.21,0.83,7.06,14
13.22031104564667,3,3,3,0,-9.029999999999999,2.46,-3.21,0.83,7.06,14
13.24031102657318,3,3,3,0,-8.83,0.57,-3.71,-0.47,6.34,13.49
13.24031102657318,3,3,3,0,-8.83,0.57,-3.71,-0.47,6.34,13.49
13.26031100749969,3,3,3,0,-8.65,1.27,-4.2,0.36,6.39,13.56
13.26031100749969,3,3,3,0,-8.65,1.27,-4.2,0.36,6.39,13.56
13.28031098842621,3,3,3,0,-8.619999999999999,1.41,-3.69,-0.11,5.96,13.61
13.28031098842621,3,3,3,0,-8.619999999999999,1.41,-3.69,-0.11,5.96,13.61
13.30031096935272,3,3,3,0,-9.140000000000001,1.4,-2.5,-1.56,4.67,13.37
13.30031096935272,3,3,3,0,-9.140000000000001,1.4,-2.5,-1.56,4.67,13.37
13.32031095027924,3,3,3,0,-9.31,1.19,-2.53,-6.41,4.82,14.09
13.32031095027924,3,3,3,0,-9.31,1.19,-2.53,-6.41,4.82,14.09
13.34031093120575,3,3,3,0,-9.289999999999999,-2.39,-3.17,-13.98,4.35,13.85
13.34031093120575,3,3,3,0,-9.289999999999999,-2.39,-3.17,-13.98,4.35,13.85
13.36031091213226,3,3,3,0,-10.08,-4.77,-1.44,-13.25,6.14,12.93
13.36031091213226,3,3,3,0,-10.08,-4.77,-1.44,-13.25,6.14,12.93
13.38031089305878,3,3,3,0,-11.03,-2.42,-2.55,-12.16,7.29,10.67
13.38031089305878,3,3,3,0,-11.03,-2.42,-2.55,-12.16,7.29,10.67
13.40031087398529,3,3,3,0,-11.14,0.26,-4.12,-7.98,5.61,6.11
13.40031087398529,3,3,3,0,-11.14,0.26,-4.12,-7.98,5.61,6.11
13.42031109333038,3,3,3,0,-9.109999999999999,2.7,-3.44,-6.09,1.88,4.23
13.42031109333038,3,3,3,0,-9.109999999999999,2.7,-3.44,-6.09,1.88,4.23
13.4403110742569,3,3,3,0,-8.68,2.47,-2.91,-7.95,1.87,4.76
13.4403110742569,3,3,3,0,-8.68,2.47,-2.91,-7.95,1.87,4.76
13.46031105518341,3,3,3,0,-8.9,1.65,-2.39,-8.859999999999999,2.09,5.38
13.46031105518341,3,3,3,0,-8.9,1.65,-2.39,-8.859999999999999,2.09,5.38
13.48031103610992,3,3,3,0,-8.93,1.64,-2.34,-9.58,3.75,5.35
13.48031103610992,3,3,3,0,-8.93,1.64,-2.34,-9.58,3.75,5.35
13.50031101703644,3,3,3,0,-9.32,1.59,-2.92,-11.06,4.72,4.92
13.50031101703644,3,3,3,0,-9.32,1.59,-2.92,-11.06,4.72,4.92
13.52031099796295,3,3,3,0,-9.81,1.64,-2.89,-10.49,3.65,5.02
13.52031099796295,3,3,3,0,-9.81,1.64,-2.89,-10.49,3.65,5.02
13.54031097888947,3,3,3,0,-9.92,1.41,-2.56,-8.630000000000001,2.36,5.14
13.54031097888947,3,3,3,0,-9.92,1.41,-2.56,-8.630000000000001,2.36,5.14
13.56031095981598,3,3,3,0,-9.69,1.5,-2.53,-6.44,1.92,4.95
13.56031095981598,3,3,3,0,-9.69,1.5,-2.53,-6.44,1.92,4.95
13.58031094074249,3,3,3,0,-9.49,2.16,-2.4,-5.29,2.14,4.7
13.58031094074249,3,3,3,0,-9.49,2.16,-2.4,-5.29,2.14,4.7
13.60031092166901,3,3,3,0,-9.35,2.13,-2.41,-5.85,2.48,4.66
13.60031092166901,3,3,3,0,-9.35,2.13,-2.41,-5.85,2.48,4.66
13.62031090259552,3,3,3,0,-9.029999999999999,1.49,-2.61,-6.97,2.34,4.94
13.62031090259552,3,3,3,0,-9.029999999999999,1.49,-2.61,-6.97,2.34,4.94
13.64031088352203,3,3,3,0,-8.970000000000001,1.21,-2.34,-7.17,2.33,5.55
13.64031088352203,3,3,3,0,-8.970000000000001,1.21,-2.34,-7.17,2.33,5.55
13.66031110286713,3,3,3,1,-9.460000000000001,0.73,-2.06,-7.35,2.35,6.08
13.66031110286713,3,3,3,1,-9.460000000000001,0.73,-2.06,-7.35,2.35,6.08
13.68031108379364,3,3,3,1,-9.52,0.75,-2.38,-6.9,2.14,6.26
13.68031108379364,3,3,3,1,-9.52,0.75,-2.38,-6.9,2.14,6.26
13.70031106472015,3,3,3,1,-10,0.52,-2.77,-6.83,1.51,6.12
13.70031106472015,3,3,3,1,-10,0.52,-2.77,-6.83,1.51,6.12
13.72131097316742,3,3,3,1,-10.73,0.53,-2.46,-5.37,0.1,5.43
13.72131097316742,3,3,3,1,-10.73,0.53,-2.46,-5.37,0.1,5.43
13.74131095409393,3,3,3,1,-10.64,-0.2,-2.58,-5.54,-0.16,4.59
13.74131095409393,3,3,3,1,-10.64,-0.2,-2.58,-5.54,-0.16,4.59
13.76131093502045,3,3,3,1,-10.99,-0.9399999999999999,-2.34,-6.69,0.6899999999999999,3.79
13.76131093502045,3,3,3,1,-10.99,-0.9399999999999999,-2.34,-6.69,0.6899999999999999,3.79
13.78131091594696,3,3,3,1,-11.67,-2.13,-1.42,-6.54,-0.01,2.75
13.78131091594696,3,3,3,1,-11.67,-2.13,-1.42,-6.54,-0.01,2.75
13.80131089687347,3,3,3,1,-12.33,-3.84,0,-6.55,-2.12,1.5
13.80131089687347,3,3,3,1,-12.33,-3.84,0,-6.55,-2.12,1.5
13.82131087779999,3,3,3,1,-13.65,-5.16,1.28,-4.32,-4.98,-1.4
13.82131087779999,3,3,3,1,-13.65,-5.16,1.28,-4.32,-4.98,-1.4
13.84131109714508,3,3,3,1,-13.51,-2.75,2.92,-3.43,-7.79,-6.89
13.84131109714508,3,3,3,1,-13.51,-2.75,2.92,-3.43,-7.79,-6.89
13.86131107807159,3,3,3,1,-11.65,-1.42,3.07,-5.62,-10.22,-8.83
13.86131107807159,3,3,3,1,-11.65,-1.42,3.07,-5.62,-10.22,-8.83
13.88131105899811,3,3,3,1,-11,-2.79,-2.82,-14.11,-8.76,-12.11
13.88131105899811,3,3,3,1,-11,-2.79,-2.82,-14.11,-8.76,-12.11
13.90131103992462,3,3,3,1,-12.89,0.39,-3.61,-7.17,-8.42,-16.24
13.90131103992462,3,3,3,1,-12.89,0.39,-3.61,-7.17,-8.42,-16.24
13.92131102085114,3,3,3,1,-14.48,3.4,-3.98,-2.05,-7.99,-17.3
13.92131102085114,3,3,3,1,-14.48,3.4,-3.98,-2.05,-7.99,-17.3
13.94131100177765,3,3,3,1,-13.8,5.22,-3.66,0.84,-6.66,-17.88
13.94131100177765,3,3,3,1,-13.8,5.22,-3.66,0.84,-6.66,-17.88
13.96131098270416,3,3,3,2,-12.54,5.07,-2.14,0.53,-5.16,-19.85
13.96131098270416,3,3,3,2,-12.54,5.07,-2.14,0.53,-5.16,-19.85
13.98131096363068,3,3,3,2,-12.13,5.52,-2.03,1.18,-4.35,-20.73
13.98131096363068,3,3,3,2,-12.13,5.52,-2.03,1.18,-4.35,-20.73
14.00131094455719,3,3,3,2,-12,6.13,-2.14,1.72,-3.18,-20.61
14.00131094455719,3,3,3,2,-12,6.13,-2.14,1.72,-3.18,-20.61
14.0213109254837,3,3,3,2,-11.09,6.03,-2.02,1.94,-2.67,-20.39
14.0213109254837,3,3,3,2,-11.09,6.03,-2.02,1.94,-2.67,-20.39
14.04131090641022,3,3,3,2,-10.98,4.27,-2.23,1.74,-2.32,-21.16
14.04131090641022,3,3,3,2,-10.98,4.27,-2.23,1.74,-2.32,-21.16
14.06131088733673,3,3,3,2,-10.24,4.25,-2.15,2.84,-2.68,-21.34
14.06131088733673,3,3,3,2,-10.24,4.25,-2.15,2.84,-2.68,-21.34
14.08131086826324,3,3,3,2,-8.869999999999999,3.82,-2.39,5.41,-2.77,-20.97
14.08131086826324,3,3,3,2,-8.869999999999999,3.82,-2.39,5.41,-2.77,-20.97
14.10131108760834,3,3,3,2,-8.359999999999999,3.56,-2.59,9.16,-2.51,-19.76
14.10131108760834,3,3,3,2,-8.359999999999999,3.56,-2.59,9.16,-2.51,-19.76
14.12131106853485,3,3,3,2,-7.81,4.03,-2.97,12.69,-3.02,-19.11
14.12131106853485,3,3,3,2,-7.81,4.03,-2.97,12.69,-3.02,-19.11
14.14131104946136,3,3,3,2,-7.57,4.32,-2.66,13.65,-3.44,-17.81
14.14131104946136,3,3,3,2,-7.57,4.32,-2.66,13.65,-3.44,-17.81
14.16131103038788,3,3,3,2,-6.78,4.82,-2.67,15.73,-3.49,-15.49
14.16131103038788,3,3,3,2,-6.78,4.82,-2.67,15.73,-3.49,-15.49
14.18131101131439,3,3,3,2,-5.99,4.94,-2.48,14.38,-1.9,-12.11
14.18131101131439,3,3,3,2,-5.99,4.94,-2.48,14.38,-1.9,-12.11
14.20131099224091,3,3,3,2,-5.36,5.27,-1.99,12.03,-1.18,-9.82
14.20131099224091,3,3,3,2,-5.36,5.27,-1.99,12.03,-1.18,-9.82
14.22131097316742,3,3,3,2,-4.9,5.22,-1.78,9.56,-0.85,-8.01
14.22131097316742,3,3,3,2,-4.9,5.22,-1.78,9.56,-0.85,-8.01
14.24131095409393,3,3,3,2,-4.62,3.56,-2.02,5.74,0.49,-5.94
14.24131095409393,3,3,3,2,-4.62,3.56,-2.02,5.74,0.49,-5.94
14.26131093502045,3,3,3,1,-4.92,1.11,-1.86,1.21,2.82,-3.12
14.26131093502045,3,3,3,1,-4.92,1.11,-1.86,1.21,2.82,-3.12
14.28131091594696,3,3,3,1,-6.37,-2.54,-0.99,0.33,4.43,-0.79
14.28131091594696,3,3,3,1,-6.37,-2.54,-0.99,0.33,4.43,-0.79
14.30131089687347,3,3,3,1,-8.779999999999999,-3.23,0.1,6.47,5.82,0.14
14.30131089687347,3,3,3,1,-8.779999999999999,-3.23,0.1,6.47,5.82,0.14
14.32131087779999,3,3,3,1,-11.81,-7.06,2.32,15.88,3.28,-0.21
14.32131087779999,3,3,3,1,-11.81,-7.06,2.32,15.88,3.28,-0.21
14.34131109714508,3,3,3,1,-12.93,-9.76,4.41,19.37,1.37,-1.85
14.34131109714508,3,3,3,1,-12.93,-9.76,4.41,19.37,1.37,-1.85
14.36131107807159,3,3,3,1,-14.26,-15.26,4.5,15.14,-5.39,-1.61
14.36131107807159,3,3,3,1,-14.26,-15.26,4.5,15.14,-5.39,-1.61
14.38131105899811,3,3,3,1,-12.16,-10.34,3.33,6.51,-6.23,-3.33
14.38131105899811,3,3,3,1,-12.16,-10.34,3.33,6.51,-6.23,-3.33
14.40131103992462,3,3,3,1,-9.56,-2.07,0.92,3.3,-1.61,-5.61
14.40131103992462,3,3,3,1,-9.56,-2.07,0.92,3.3,-1.61,-5.61
14.42131102085114,3,3,3,1,-8.130000000000001,-0.89,-3,-1.28,5.7,-10.01
14.42131102085114,3,3,3,1,-8.130000000000001,-0.89,-3,-1.28,5.7,-10.01
14.44131100177765,3,3,3,1,-11.17,-1.84,6.4,-17.54,4.83,4.82
14.44131100177765,3,3,3,1,-11.17,-1.84,6.4,-17.54,4.83,4.82
14.46131098270416,3,3,3,0,-14.18,-10.22,4.22,-0.53,1.04,4.06
14.46131098270416,3,3,3,0,-14.18,-10.22,4.22,-0.53,1.04,4.06
14.48131096363068,3,3,3,0,-12.33,5.87,-2.6,8.800000000000001,7.69,7.85
14.48131096363068,3,3,3,0,-12.33,5.87,-2.6,8.800000000000001,7.69,7.85
14.50131094455719,3,3,3,0,-9.300000000000001,8.539999999999999,-4.35,7.5,5.93,8.73
14.50131094455719,3,3,3,0,-9.300000000000001,8.539999999999999,-4.35,7.5,5.93,8.73
14.5213109254837,3,3,3,0,-8.460000000000001,4.24,-9.6,1.15,8.84,9.869999999999999
14.5213109254837,3,3,3,0,-8.460000000000001,4.24,-9.6,1.15,8.84,9.869999999999999
14.54131090641022,3,3,3,0,-8.970000000000001,0.5600000000000001,-5.11,0.25,8.31,12.43
14.54131090641022,3,3,3,0,-8.970000000000001,0.5600000000000001,-5.11,0.25,8.31,12.43
14.56131088733673,3,3,3,0,-10.03,3.57,-4.13,8.199999999999999,9.960000000000001,16.13
14.56131088733673,3,3,3,0,-10.03,3.57,-4.13,8.199999999999999,9.960000000000001,16.13
14.58131086826324,3,3,3,0,-9.300000000000001,3.07,-1.87,8.199999999999999,9.41,16.36
14.58131086826324,3,3,3,0,-9.300000000000001,3.07,-1.87,8.199999999999999,9.41,16.36
14.60131108760834,3,3,3,0,-9.380000000000001,1.33,-1.22,6.81,8.970000000000001,15.7
14.60131108760834,3,3,3,0,-9.380000000000001,1.33,-1.22,6.81,8.970000000000001,15.7
14.62131106853485,3,3,3,0,-9.33,0.83,-1.78,6.22,8.029999999999999,15.08
14.62131106853485,3,3,3,0,-9.33,0.83,-1.78,6.22,8.029999999999999,15.08
14.64131104946136,3,3,3,0,-9.109999999999999,1.43,-2.55,6.3,7.63,14.58
14.64131104946136,3,3,3,0,-9.109999999999999,1.43,-2.55,6.3,7.63,14.58
14.66131103038788,3,3,3,0,-8.68,1.19,-2.68,5.29,7.24,13.83
14.66131103038788,3,3,3,0,-8.68,1.19,-2.68,5.29,7.24,13.83
14.68131101131439,3,3,3,0,-9.23,0.91,-2.62,3.53,6.93,13.25
14.68131101131439,3,3,3,0,-9.23,0.91,-2.62,3.53,6.93,13.25
14.70131099224091,3,3,3,0,-9.550000000000001,0.54,-2.29,0.64,6.9,12.81
14.70131099224091,3,3,3,0,-9.550000000000001,0.54,-2.29,0.64,6.9,12.81
14.72131097316742,3,3,3,0,-9.66,0.44,-2.1,-2.6,6.73,12.53
14.72131097316742,3,3,3,0,-9.66,0.44,-2.1,-2.6,6.73,12.53
14.74231088161469,3,3,3,0,-9.66,-1.56,-2,-7.36,6.2,11.67
14.74231088161469,3,3,3,0,-9.66,-1.56,-2,-7.36,6.2,11.67
14.76231110095978,3,3,3,0,-9.529999999999999,-2.27,-2.19,-9.289999999999999,4.45,10.3
14.76231110095978,3,3,3,0,-9.529999999999999,-2.27,-2.19,-9.289999999999999,4.45,10.3
14.78231108188629,3,3,3,0,-10.08,-1.8,-1.68,-10.78,4.18,9.48
14.78231108188629,3,3,3,0,-10.08,-1.8,-1.68,-10.78,4.18,9.48
14.80231106281281,3,3,3,1,-10.04,-1.58,-2.29,-12.78,4.41,9.18
14.80231106281281,3,3,3,1,-10.04,-1.58,-2.29,-12.78,4.41,9.18
14.82231104373932,3,3,3,1,-9.32,0.19,-2.94,-13.06,4.78,8.859999999999999
14.82231104373932,3,3,3,1,-9.32,0.19,-2.94,-13.06,4.78,8.859999999999999
14.84231102466583,3,3,3,1,-9.35,1.94,-3.47,-11.12,5.12,7.54
14.84231102466583,3,3,3,1,-9.35,1.94,-3.47,-11.12,5.12,7.54
14.86231100559235,3,3,3,1,-9.529999999999999,3.35,-3.03,-9.94,4.23,5.64
14.86231100559235,3,3,3,1,-9.529999999999999,3.35,-3.03,-9.94,4.23,5.64
14.88231098651886,3,3,3,1,-9.050000000000001,2.4,-2.85,-10.68,3.81,5.35
14.88231098651886,3,3,3,1,-9.050000000000001,2.4,-2.85,-10.68,3.81,5.35
14.90231096744537,3,3,3,1,-9.289999999999999,1.14,-2.55,-10.77,4.24,5.92
14.90231096744537,3,3,3,1,-9.289999999999999,1.14,-2.55,-10.77,4.24,5.92
14.92231094837189,3,3,3,1,-9.52,1.16,-2.58,-9.32,3.99,6.33
14.92231094837189,3,3,3,1,-9.52,1.16,-2.58,-9.32,3.99,6.33
14.9423109292984,3,3,3,1,-9.5,1.18,-2.61,-7.89,3.33,6.51
14.9423109292984,3,3,3,1,-9.5,1.18,-2.61,-7.89,3.33,6.51
14.96231091022491,3,3,3,1,-9.359999999999999,1.5,-2.3,-5.87,2.55,6.66
14.96231091022491,3,3,3,1,-9.359999999999999,1.5,-2.3,-5.87,2.55,6.66
14.98231089115143,3,3,3,1,-9.56,2.01,-2.04,-5,2.47,7.09
14.98231089115143,3,3,3,1,-9.56,2.01,-2.04,-5,2.47,7.09
15.00231087207794,3,3,3,1,-9.69,2.11,-2.13,-5.6,3.02,7.33
15.00231087207794,3,3,3,1,-9.69,2.11,-2.13,-5.6,3.02,7.33
15.02231109142303,3,3,3,1,-9.869999999999999,1.72,-2,-6.81,2.95,7.62
15.02231109142303,3,3,3,1,-9.869999999999999,1.72,-2,-6.81,2.95,7.62
15.04231107234955,3,3,3,1,-9.720000000000001,0.63,-1.92,-8.140000000000001,2.8,7.73
15.04231107234955,3,3,3,1,-9.720000000000001,0.63,-1.92,-8.140000000000001,2.8,7.73
15.06231105327606,3,3,3,1,-9.31,-0.37,-2.06,-7.99,2.96,7.9
15.06231105327606,3,3,3,1,-9.31,-0.37,-2.06,-7.99,2.96,7.9
15.08231103420258,3,3,3,1,-10.14,-0.66,-2.71,-7.33,1.25,7.33
15.08231103420258,3,3,3,1,-10.14,-0.66,-2.71,-7.33,1.25,7.33
15.10231101512909,3,3,3,1,-11.1,-0.29,-1.95,-5.91,-0.01,6.62
15.10231101512909,3,3,3,1,-11.1,-0.29,-1.95,-5.91,-0.01,6.62
15.1223109960556,3,3,3,1,-11.76,-1.23,-2.27,-6.77,0.74,4.39
15.1223109960556,3,3,3,1,-11.76,-1.23,-2.27,-6.77,0.74,4.39
15.14231097698212,3,3,3,1,-12.9,-2.33,-1.11,-7.19,0.66,2.43
15.14231097698212,3,3,3,1,-12.9,-2.33,-1.11,-7.19,0.66,2.43
15.16231095790863,3,3,3,1,-13.93,-4.79,1.11,-8.199999999999999,-1.47,0.27
15.16231095790863,3,3,3,1,-13.93,-4.79,1.11,-8.199999999999999,-1.47,0.27
15.18231093883514,3,3,3,1,-14.95,-7.54,2.19,-7.86,-5.34,-3.13
15.18231093883514,3,3,3,1,-14.95,-7.54,2.19,-7.86,-5.34,-3.13
15.20231091976166,3,3,3,1,-13.79,-3.23,4.18,-5.27,-9.09,-8.24
15.20231091976166,3,3,3,1,-13.79,-3.23,4.18,-5.27,-9.09,-8.24
15.22231090068817,3,3,3,1,-10.35,-4.71,1.31,-10.25,-11.21,-11.35
15.22231090068817,3,3,3,1,-10.35,-4.71,1.31,-10.25,-11.21,-11.35
15.24231088161469,3,3,3,1,-12.02,-3.18,-4.24,-12.68,-8.130000000000001,-15.79
15.24231088161469,3,3,3,1,-12.02,-3.18,-4.24,-12.68,-8.130000000000001,-15.79
15.26231110095978,3,3,3,1,-14.89,1.14,-3.94,-2.39,-8.83,-19.22
15.26231110095978,3,3,3,1,-14.89,1.14,-3.94,-2.39,-8.83,-19.22
15.28231108188629,3,3,3,1,-17.01,6.06,-3.97,4.36,-8.970000000000001,-18.98
15.28231108188629,3,3,3,1,-17.01,6.06,-3.97,4.36,-8.970000000000001,-18.98
15.30231106281281,3,3,3,1,-15.11,7.73,-3.57,3.81,-7.58,-19.76
15.30231106281281,3,3,3,1,-15.11,7.73,-3.57,3.81,-7.58,-19.76
15.32231104373932,3,3,3,1,-11.75,5.17,-1.84,-3.37,-7.27,-22.55
15.32231104373932,3,3,3,1,-11.75,5.17,-1.84,-3.37,-7.27,-22.55
15.34231102466583,3,3,3,1,-12.45,4.63,-1.78,-0.85,-4.51,-23.69
15.34231102466583,3,3,3,1,-12.45,4.63,-1.78,-0.85,-4.51,-23.69
15.36231100559235,3,3,3,1,-11.2,7.26,-2.14,2.28,-3.14,-22.44
15.36231100559235,3,3,3,1,-11.2,7.26,-2.14,2.28,-3.14,-22.44
15.38231098651886,3,3,3,1,-9.68,6.34,-2.45,1.97,-2.5,-22.27
15.38231098651886,3,3,3,1,-9.68,6.34,-2.45,1.97,-2.5,-22.27
15.40231096744537,3,3,3,1,-9.539999999999999,5.37,-2.74,0.66,-1.87,-23.35
15.40231096744537,3,3,3,1,-9.539999999999999,5.37,-2.74,0.66,-1.87,-23.35
15.42231094837189,3,3,3,1,-8.92,4.27,-2.89,0.97,-1.82,-22.69
15.42231094837189,3,3,3,1,-8.92,4.27,-2.89,0.97,-1.82,-22.69
15.4423109292984,3,3,3,1,-7.6,3.56,-3,5.18,-1.38,-20.9
15.4423109292984,3,3,3,1,-7.6,3.56,-3,5.18,-1.38,-20.9
15.46231091022491,3,3,3,1,-7.01,3.67,-3.08,10.69,-1.59,-19.78
15.46231091022491,3,3,3,1,-7.01,3.67,-3.08,10.69,-1.59,-19.78
15.48231089115143,3,3,3,1,-7.08,4.59,-2.88,13.8,-2.07,-18.26
15.48231089115143,3,3,3,1,-7.08,4.59,-2.88,13.8,-2.07,-18.26
15.50231087207794,3,3,3,1,-6.3,5.4,-2.72,16.42,-2.45,-16.43
15.50231087207794,3,3,3,1,-6.3,5.4,-2.72,16.42,-2.45,-16.43
15.52231109142303,3,3,3,1,-5.67,5.47,-3.26,14.98,-0.77,-13.1
15.52231109142303,3,3,3,1,-5.67,5.47,-3.26,14.98,-0.77,-13.1
15.54231107234955,3,3,3,1,-5.01,4.93,-3.24,12.24,0.48,-10.23
15.54231107234955,3,3,3,1,-5.01,4.93,-3.24,12.24,0.48,-10.23
15.56231105327606,3,3,3,1,-5.33,4.58,-2.88,10.33,1.82,-8.17
15.56231105327606,3,3,3,1,-5.33,4.58,-2.88,10.33,1.82,-8.17
15.58231103420258,3,3,3,1,-5,4.97,-2.65,8.550000000000001,2.47,-5.82
15.58231103420258,3,3,3,1,-5,4.97,-2.65,8.550000000000001,2.47,-5.82
15.60231101512909,3,3,3,1,-4.73,3.56,-1.78,5.14,3.12,-3.36
15.60231101512909,3,3,3,1,-4.73,3.56,-1.78,5.14,3.12,-3.36
15.6223109960556,3,3,3,1,-5.54,1.89,-1.28,0.85,4.98,-0.73
15.6223109960556,3,3,3,1,-5.54,1.89,-1.28,0.85,4.98,-0.73
15.64231097698212,3,3,3,1,-7.8,-1.25,-1.02,-1.61,6.44,1.03
15.64231097698212,3,3,3,1,-7.8,-1.25,-1.02,-1.61,6.44,1.03
15.66231095790863,3,3,3,1,-10.76,-4.21,0.99,1.61,8.52,0.02
15.66231095790863,3,3,3,1,-10.76,-4.21,0.99,1.61,8.52,0.02
15.68231093883514,3,3,3,1,-12.75,-12.08,3.17,5.77,11.76,-4.01
15.68231093883514,3,3,3,1,-12.75,-12.08,3.17,5.77,11.76,-4.01
15.70231091976166,3,3,3,1,-15.69,-17.6,4.61,10,8.140000000000001,-5.48
15.70231091976166,3,3,3,1,-15.69,-17.6,4.61,10,8.140000000000001,-5.48
15.72231090068817,3,3,3,1,-14.03,-15.18,4.48,7.61,-8.58,-5.69
15.72231090068817,3,3,3,1,-14.03,-15.18,4.48,7.61,-8.58,-5.69
15.74231088161469,3,3,3,1,-10.89,-1.96,1.27,7.06,-3.97,-3.25
15.74231088161469,3,3,3,1,-10.89,-1.96,1.27,7.06,-3.97,-3.25
15.76331102848053,3,3,3,1,-5.69,-0.97,-3.33,7.22,-0.15,-3.58
15.76331102848053,3,3,3,1,-5.69,-0.97,-3.33,7.22,-0.15,-3.58
15.78331100940704,3,3,3,1,-6.34,4.52,-4.22,-13.11,5.2,9.43
15.78331100940704,3,3,3,1,-6.34,4.52,-4.22,-13.11,5.2,9.43
15.80331099033356,3,3,3,1,-17.42,-10.56,8.51,-4.44,0.76,8.99
15.80331099033356,3,3,3,1,-17.42,-10.56,8.51,-4.44,0.76,8.99
15.82331097126007,3,3,3,1,-19.16,-9.44,6.1,14.35,0.58,8.65
15.82331097126007,3,3,3,1,-19.16,-9.44,6.1,14.35,0.58,8.65
15.84331095218658,3,3,3,1,-9.75,14.02,-2.5,11.51,0.6899999999999999,10.63
15.84331095218658,3,3,3,1,-9.75,14.02,-2.5,11.51,0.6899999999999999,10.63
15.8633109331131,3,3,3,1,-7.83,6.25,-11.98,-5.69,14.18,8.970000000000001
15.8633109331131,3,3,3,1,-7.83,6.25,-11.98,-5.69,14.18,8.970000000000001
15.88331091403961,3,3,3,1,-7.81,0.35,-8.83,-6.56,8.76,13.5
15.88331091403961,3,3,3,1,-7.81,0.35,-8.83,-6.56,8.76,13.5
15.90331089496613,3,3,3,2,-9.76,2.62,-5.16,0.14,7.73,15.89
15.90331089496613,3,3,3,2,-9.76,2.62,-5.16,0.14,7.73,15.89
15.92331087589264,3,3,3,2,-9.119999999999999,5.52,-3.7,5.42,7.34,16.9
15.92331087589264,3,3,3,2,-9.119999999999999,5.52,-3.7,5.42,7.34,16.9
15.94331109523773,3,3,3,2,-10.25,3.73,-1.23,3.95,7.15,16.25
15.94331109523773,3,3,3,2,-10.25,3.73,-1.23,3.95,7.15,16.25
15.96331107616425,3,3,3,2,-10.56,3.22,-1.09,-0.28,6.2,14.93
15.96331107616425,3,3,3,2,-10.56,3.22,-1.09,-0.28,6.2,14.93
15.98331105709076,3,3,3,2,-8.94,1.56,-2.5,-1.3,6.26,14.63
15.98331105709076,3,3,3,2,-8.94,1.56,-2.5,-1.3,6.26,14.63
16.00331103801727,3,3,3,2,-8.630000000000001,0.64,-3.12,-1.35,5.94,14.43
16.00331103801727,3,3,3,2,-8.630000000000001,0.64,-3.12,-1.35,5.94,14.43
16.02331101894379,3,3,3,2,-8.539999999999999,0.07000000000000001,-3.9,-3.72,5.54,13.07
16.02331101894379,3,3,3,2,-8.539999999999999,0.07000000000000001,-3.9,-3.72,5.54,13.07
16.0433109998703,3,3,3,2,-9.01,0.12,-3.32,-5.2,5.27,12.78
16.0433109998703,3,3,3,2,-9.01,0.12,-3.32,-5.2,5.27,12.78
16.06331098079681,3,3,3,2,-9.59,-0.67,-2.21,-10.22,3.54,12.88
16.06331098079681,3,3,3,2,-9.59,-0.67,-2.21,-10.22,3.54,12.88
16.08331096172333,3,3,3,2,-9.93,-2.67,-1.55,-12.14,3.02,12.42
16.08331096172333,3,3,3,2,-9.93,-2.67,-1.55,-12.14,3.02,12.42
16.10331094264984,3,3,3,2,-9.5,-4.95,-1.74,-14.43,1.46,12.27
16.10331094264984,3,3,3,2,-9.5,-4.95,-1.74,-14.43,1.46,12.27
16.12331092357635,3,3,3,2,-10.54,-2.09,-1.68,-11.15,3.99,8.43
16.12331092357635,3,3,3,2,-10.54,-2.09,-1.68,-11.15,3.99,8.43
16.14331090450287,3,3,3,2,-10.43,0.98,-2.21,-11.47,4.31,6.68
16.14331090450287,3,3,3,2,-10.43,0.98,-2.21,-11.47,4.31,6.68
16.16331088542938,3,3,3,2,-9.210000000000001,1.85,-3.06,-10.59,3.67,4.83
16.16331088542938,3,3,3,2,-9.210000000000001,1.85,-3.06,-10.59,3.67,4.83
16.18331110477448,3,3,3,2,-8.73,1.99,-3.64,-7.61,1.23,6.52
16.18331110477448,3,3,3,2,-8.73,1.99,-3.64,-7.61,1.23,6.52
16.20331108570099,3,3,3,2,-8.859999999999999,1.89,-2.87,-6.87,1.19,7.42
16.20331108570099,3,3,3,2,-8.859999999999999,1.89,-2.87,-6.87,1.19,7.42
16.2233110666275,3,3,3,2,-9.31,2.03,-2.73,-7.99,2.29,8.029999999999999
16.2233110666275,3,3,3,2,-9.31,2.03,-2.73,-7.99,2.29,8.029999999999999
16.24331104755402,3,3,3,2,-9.529999999999999,1.71,-2.57,-8.68,2.19,7.56
16.24331104755402,3,3,3,2,-9.529999999999999,1.71,-2.57,-8.68,2.19,7.56
16.26331102848053,3,3,3,2,-9.17,1.82,-2.02,-7.08,2.01,6.92
16.26331102848053,3,3,3,2,-9.17,1.82,-2.02,-7.08,2.01,6.92
16.28331100940704,3,3,3,2,-9.06,2.11,-2.08,-6.83,2.22,7.33
16.28331100940704,3,3,3,2,-9.06,2.11,-2.08,-6.83,2.22,7.33
16.30331099033356,3,3,3,2,-9.19,2.14,-2.18,-6.8,2.41,7.61
16.30331099033356,3,3,3,2,-9.19,2.14,-2.18,-6.8,2.41,7.61
16.32331097126007,3,3,3,2,-9.109999999999999,1.96,-2.47,-5.3,2.41,8.039999999999999
16.32331097126007,3,3,3,2,-9.109999999999999,1.96,-2.47,-5.3,2.41,8.039999999999999
16.34331095218658,3,3,3,2,-9.390000000000001,2.26,-2.64,-4.88,2.27,8.35
16.34331095218658,3,3,3,2,-9.390000000000001,2.26,-2.64,-4.88,2.27,8.35
16.3633109331131,3,3,3,2,-9.630000000000001,1.88,-2.34,-4.62,1.24,9.109999999999999
16.3633109331131,3,3,3,2,-9.630000000000001,1.88,-2.34,-4.62,1.24,9.109999999999999
16.38331091403961,3,3,3,2,-9.880000000000001,0.68,-2.17,-4.86,1.09,9.17
16.38331091403961,3,3,3,2,-9.880000000000001,0.68,-2.17,-4.86,1.09,9.17
16.40331089496613,3,3,3,2,-10.08,-0.33,-1.7,-4.81,1.16,9.08
16.40331089496613,3,3,3,2,-10.08,-0.33,-1.7,-4.81,1.16,9.08
16.42331087589264,3,3,3,2,-9.800000000000001,-0.31,-1.16,-5.19,1.13,7.97
16.42331087589264,3,3,3,2,-9.800000000000001,-0.31,-1.16,-5.19,1.13,7.97
16.44331109523773,3,3,3,2,-9.49,-0.09,-1.27,-5.55,0.84,7.69
16.44331109523773,3,3,3,2,-9.49,-0.09,-1.27,-5.55,0.84,7.69
16.46331107616425,3,3,3,2,-10.53,0.17,-1.9,-5.04,-0.84,6.68
16.46331107616425,3,3,3,2,-10.53,0.17,-1.9,-5.04,-0.84,6.68
16.48331105709076,3,3,3,2,-11.86,-0.49,-2.1,-4.77,-0.84,5.63
16.48331105709076,3,3,3,2,-11.86,-0.49,-2.1,-4.77,-0.84,5.63
16.50331103801727,3,3,3,2,-13.49,-2.48,-0.99,-4.21,-1.45,4.29
16.50331103801727,3,3,3,2,-13.49,-2.48,-0.99,-4.21,-1.45,4.29
16.52331101894379,3,3,3,2,-13.85,-4.4,0.38,-4.7,-4.38,-1.28
16.52331101894379,3,3,3,2,-13.85,-4.4,0.38,-4.7,-4.38,-1.28
16.5433109998703,3,3,3,2,-14.44,-8.9,1.11,-5.35,-5.83,-4.74
16.5433109998703,3,3,3,2,-14.44,-8.9,1.11,-5.35,-5.83,-4.74
16.56331098079681,3,3,3,2,-12.45,-5.03,3.5,-7.96,-11.71,-13.39
16.56331098079681,3,3,3,2,-12.45,-5.03,3.5,-7.96,-11.71,-13.39
16.58331096172333,3,3,3,2,-11.54,-7.93,0,-10.23,-9.390000000000001,-15.1
16.58331096172333,3,3,3,2,-11.54,-7.93,0,-10.23,-9.390000000000001,-15.1
16.60331094264984,3,3,3,2,-14.43,-1.47,-4.36,-4.73,-9.57,-16.57
16.60331094264984,3,3,3,2,-14.43,-1.47,-4.36,-4.73,-9.57,-16.57
16.62331092357635,3,3,3,2,-16.25,2.87,-4.62,6.42,-9.32,-19.36
16.62331092357635,3,3,3,2,-16.25,2.87,-4.62,6.42,-9.32,-19.36
16.64331090450287,3,3,3,2,-16.07,6.7,-4.34,7.16,-8.720000000000001,-19.77
16.64331090450287,3,3,3,2,-16.07,6.7,-4.34,7.16,-8.720000000000001,-19.77
16.66331088542938,3,3,3,2,-13.84,6.24,-3.13,5.23,-6.29,-22.62
16.66331088542938,3,3,3,2,-13.84,6.24,-3.13,5.23,-6.29,-22.62
16.68331110477448,3,3,3,2,-12.89,6.36,-2.05,5.8,-4.95,-23.48
16.68331110477448,3,3,3,2,-12.89,6.36,-2.05,5.8,-4.95,-23.48
16.70331108570099,3,3,3,2,-12.63,6.94,-2.26,5.3,-4.26,-23.32
16.70331108570099,3,3,3,2,-12.63,6.94,-2.26,5.3,-4.26,-23.32
16.7233110666275,3,3,3,2,-10.73,7.21,-2.69,2.08,-3.78,-23.75
16.7233110666275,3,3,3,2,-10.73,7.21,-2.69,2.08,-3.78,-23.75
16.74331104755402,3,3,3,2,-9.890000000000001,6.2,-3.22,0.33,-3.6,-24.08
16.74331104755402,3,3,3,2,-9.890000000000001,6.2,-3.22,0.33,-3.6,-24.08
16.76331102848053,3,3,3,2,-9.039999999999999,4.6,-3.55,-1.2,-2.57,-24.31
16.76331102848053,3,3,3,2,-9.039999999999999,4.6,-3.55,-1.2,-2.57,-24.31
16.78331100940704,3,3,3,2,-8.16,3.87,-3.69,2.14,-1.85,-23.12
16.78331100940704,3,3,3,2,-8.16,3.87,-3.69,2.14,-1.85,-23.12
16.80431091785431,3,3,3,2,-7.78,2.73,-3.93,5.58,-1.34,-22.11
16.80431091785431,3,3,3,2,-7.78,2.73,-3.93,5.58,-1.34,-22.11
16.82431089878082,3,3,3,2,-7.31,3.84,-3.77,15.65,-1.72,-19.67
16.82431089878082,3,3,3,2,-7.31,3.84,-3.77,15.65,-1.72,-19.67
16.84431087970734,3,3,3,2,-6.9,5.31,-3.07,17.85,-1.85,-18.58
16.84431087970734,3,3,3,2,-6.9,5.31,-3.07,17.85,-1.85,-18.58
16.86431109905243,3,3,3,2,-5.98,6.08,-2.79,19.69,-1.27,-15.02
16.86431109905243,3,3,3,2,-5.98,6.08,-2.79,19.69,-1.27,-15.02
16.88431107997894,3,3,3,2,-5.25,6.12,-3.05,17.24,0.13,-11.22
16.88431107997894,3,3,3,2,-5.25,6.12,-3.05,17.24,0.13,-11.22
16.90431106090546,3,3,3,2,-5.33,5.93,-3.16,15.4,1.02,-9.81
16.90431106090546,3,3,3,2,-5.33,5.93,-3.16,15.4,1.02,-9.81
16.92431104183197,3,3,3,2,-5.77,4.78,-2.49,10.67,2.18,-6.26
16.92431104183197,3,3,3,2,-5.77,4.78,-2.49,10.67,2.18,-6.26
16.94431102275848,3,3,3,2,-5.66,5.09,-1.79,11.21,1.94,-5.47
16.94431102275848,3,3,3,2,-5.66,5.09,-1.79,11.21,1.94,-5.47
16.964311003685,3,3,3,2,-5.33,4.06,-0.82,7.19,4.26,-2.42
16.964311003685,3,3,3,2,-5.33,4.06,-0.82,7.19,4.26,-2.42
16.98431098461151,3,3,3,2,-6.04,0.59,0,2.52,5.96,-0.31
16.98431098461151,3,3,3,2,-6.04,0.59,0,2.52,5.96,-0.31
17.00431096553802,3,3,3,2,-6.62,-0.31,-0.08,1.73,7.42,0.82
17.00431096553802,3,3,3,2,-6.62,-0.31,-0.08,1.73,7.42,0.82
17.02431094646454,3,3,3,2,-11.23,-8.859999999999999,0.13,1.51,12.73,-0.45
17.02431094646454,3,3,3,2,-11.23,-8.859999999999999,0.13,1.51,12.73,-0.45
17.04431092739105,3,3,3,3,-12.1,-11.55,0.95,0.11,13.6,-2.78
17.04431092739105,3,3,3,3,-12.1,-11.55,0.95,0.11,13.6,-2.78
17.06431090831757,3,3,3,3,-15.51,-17.51,4.81,5.12,0.9399999999999999,-3.24
17.06431090831757,3,3,3,3,-15.51,-17.51,4.81,5.12,0.9399999999999999,-3.24
17.08431088924408,3,3,3,3,-12.88,-12.11,4.46,7.12,-5.8,-2.52
17.08431088924408,3,3,3,3,-12.88,-12.11,4.46,7.12,-5.8,-2.52
17.10431087017059,3,3,3,3,-12.13,-7.09,2.87,5.47,-3.46,-2.15
17.10431087017059,3,3,3,3,-12.13,-7.09,2.87,5.47,-3.46,-2.15
17.12431108951569,3,3,3,3,-9.33,2.03,-3.77,3.25,5.24,-5.81
17.12431108951569,3,3,3,3,-9.33,2.03,-3.77,3.25,5.24,-5.81
17.1443110704422,3,3,3,3,-9.720000000000001,3.65,-2.34,-7.47,4.52,0.29
17.1443110704422,3,3,3,3,-9.720000000000001,3.65,-2.34,-7.47,4.52,0.29
17.16431105136871,3,3,3,3,-17.16,-14.24,4.55,4.11,-2.35,5.3
17.16431105136871,3,3,3,3,-17.16,-14.24,4.55,4.11,-2.35,5.3
17.18431103229523,3,3,3,3,-9.91,9.5,-3.87,14.65,2.9,10.83
17.18431103229523,3,3,3,3,-9.91,9.5,-3.87,14.65,2.9,10.83
17.20431101322174,3,3,3,3,-8.52,12.89,-8.710000000000001,14.52,5.97,9.98
17.20431101322174,3,3,3,3,-8.52,12.89,-8.710000000000001,14.52,5.97,9.98
17.22431099414825,3,3,3,3,-7.25,4.61,-6.45,-1.37,10.84,10.48
17.22431099414825,3,3,3,3,-7.25,4.61,-6.45,-1.37,10.84,10.48
17.24431097507477,3,3,3,3,-9.16,2.18,-6.02,-4.68,8.69,12.07
17.24431097507477,3,3,3,3,-9.16,2.18,-6.02,-4.68,8.69,12.07
17.26431095600128,3,3,3,3,-9.789999999999999,4.6,-3.86,4.1,7.61,15.34
17.26431095600128,3,3,3,3,-9.789999999999999,4.6,-3.86,4.1,7.61,15.34
17.2843109369278,3,3,3,3,-9.789999999999999,2.81,-2.16,3.38,7.59,14.9
17.2843109369278,3,3,3,3,-9.789999999999999,2.81,-2.16,3.38,7.59,14.9
17.30431091785431,3,3,3,3,-9.84,2.21,-1.24,2.81,6.6,14.35
17.30431091785431,3,3,3,3,-9.84,2.21,-1.24,2.81,6.6,14.35
17.32431089878082,3,3,3,3,-9.25,1.3,-2.65,2.61,6.22,13.9
17.32431089878082,3,3,3,3,-9.25,1.3,-2.65,2.61,6.22,13.9
17.34431087970734,3,3,3,3,-8.76,1.45,-3.48,2.08,5.83,13.67
17.34431087970734,3,3,3,3,-8.76,1.45,-3.48,2.08,5.83,13.67
17.36431109905243,3,3,3,3,-8.720000000000001,1.24,-4.01,1.05,6.09,13.16
17.36431109905243,3,3,3,3,-8.720000000000001,1.24,-4.01,1.05,6.09,13.16
17.38431107997894,3,3,3,3,-9.09,0.36,-3.19,-1.59,6.23,12.02
17.38431107997894,3,3,3,3,-9.09,0.36,-3.19,-1.59,6.23,12.02
17.40431106090546,3,3,3,3,-9.19,1.01,-2.47,-3.93,4.82,12.01
17.40431106090546,3,3,3,3,-9.19,1.01,-2.47,-3.93,4.82,12.01
17.42431104183197,3,3,3,3,-9.67,0.01,-1.75,-9.6,4.98,12.45
17.42431104183197,3,3,3,3,-9.67,0.01,-1.75,-9.6,4.98,12.45
17.44431102275848,3,3,3,3,-9.52,-0.82,-2.01,-14.06,4.48,12.9
17.44431102275848,3,3,3,3,-9.52,-0.82,-2.01,-14.06,4.48,12.9
17.464311003685,3,3,3,3,-9.85,-3.58,-2.66,-11.6,5.42,12.37
17.464311003685,3,3,3,3,-9.85,-3.58,-2.66,-11.6,5.42,12.37
17.48431098461151,3,3,3,3,-9.76,-3.14,-1.31,-10.21,6.32,11.54
17.48431098461151,3,3,3,3,-9.76,-3.14,-1.31,-10.21,6.32,11.54
17.50431096553802,3,3,3,3,-10.37,-0.49,-2.91,-8.800000000000001,6.46,9.470000000000001
17.50431096553802,3,3,3,3,-10.37,-0.49,-2.91,-8.800000000000001,6.46,9.470000000000001
17.52431094646454,3,3,3,3,-10.34,1.44,-3.37,-7.42,2.77,6.47
17.52431094646454,3,3,3,3,-10.34,1.44,-3.37,-7.42,2.77,6.47
17.54431092739105,3,3,3,3,-9.49,2.04,-2.43,-7.4,1.18,5.16
17.54431092739105,3,3,3,3,-9.49,2.04,-2.43,-7.4,1.18,5.16
17.56431090831757,3,3,3,3,-8.619999999999999,1.1,-1.75,-8.609999999999999,2.11,5.41
17.56431090831757,3,3,3,3,-8.619999999999999,1.1,-1.75,-8.609999999999999,2.11,5.41
17.58431088924408,3,3,3,3,-8.65,1.24,-1.44,-9.26,3.84,5.84
17.58431088924408,3,3,3,3,-8.65,1.24,-1.44,-9.26,3.84,5.84
17.60431087017059,3,3,3,3,-9.42,2.06,-2.41,-9.970000000000001,5.07,5.89
17.60431087017059,3,3,3,3,-9.42,2.06,-2.41,-9.970000000000001,5.07,5.89
17.62431108951569,3,3,3,3,-9.300000000000001,2.24,-3.1,-9.289999999999999,3.88,6.07
17.62431108951569,3,3,3,3,-9.300000000000001,2.24,-3.1,-9.289999999999999,3.88,6.07
17.6443110704422,3,3,3,3,-9.130000000000001,2.16,-2.68,-6.67,2.26,6.9
17.6443110704422,3,3,3,3,-9.130000000000001,2.16,-2.68,-6.67,2.26,6.9
17.66431105136871,3,3,3,3,-9.529999999999999,1.99,-2.73,-4.81,1.97,7.42
17.66431105136871,3,3,3,3,-9.529999999999999,1.99,-2.73,-4.81,1.97,7.42
17.68431103229523,3,3,3,3,-9.76,2.05,-2.29,-4.43,2.66,7.43
17.68431103229523,3,3,3,3,-9.76,2.05,-2.29,-4.43,2.66,7.43
17.70431101322174,3,3,3,3,-10.06,1.44,-2.56,-6.42,2.71,7.68
17.70431101322174,3,3,3,3,-10.06,1.44,-2.56,-6.42,2.71,7.68
17.72431099414825,3,3,3,3,-10.04,-0.41,-2.45,-7.99,2.6,7.84
17.72431099414825,3,3,3,3,-10.04,-0.41,-2.45,-7.99,2.6,7.84
17.74431097507477,3,3,3,2,-10.5,-1.34,-2.2,-7.51,2.16,7.82
17.74431097507477,3,3,3,2,-10.5,-1.34,-2.2,-7.51,2.16,7.82
17.76431095600128,3,3,3,2,-10.66,-1.33,-1.99,-6.44,1.26,7.06
17.76431095600128,3,3,3,2,-10.66,-1.33,-1.99,-6.44,1.26,7.06
17.7843109369278,3,3,3,2,-10.76,-1.09,-1.66,-5.86,0.01,5.77
17.7843109369278,3,3,3,2,-10.76,-1.09,-1.66,-5.86,0.01,5.77
17.80431091785431,3,3,3,2,-11.91,-2.51,-1.94,-6.69,-0.36,4.25
17.80431091785431,3,3,3,2,-11.91,-2.51,-1.94,-6.69,-0.36,4.25
17.82531106472015,3,3,3,2,-14.2,-3.09,0.17,-5.87,-1.64,2.08
17.82531106472015,3,3,3,2,-14.2,-3.09,0.17,-5.87,-1.64,2.08
17.84531104564667,3,3,3,2,-13.72,-5.02,1.76,-5.84,-4.97,-1.8
17.84531104564667,3,3,3,2,-13.72,-5.02,1.76,-5.84,-4.97,-1.8
17.86531102657318,3,3,3,2,-14.38,-6.85,2.88,-8.35,-7.07,-6.36
17.86531102657318,3,3,3,2,-14.38,-6.85,2.88,-8.35,-7.07,-6.36
17.88531100749969,3,3,3,2,-14.61,-3.02,5.79,-9.24,-11,-9.75
17.88531100749969,3,3,3,2,-14.61,-3.02,5.79,-9.24,-11,-9.75
17.90531098842621,3,3,3,2,-11.31,-3.58,1.16,-16.08,-12.37,-12.02
17.90531098842621,3,3,3,2,-11.31,-3.58,1.16,-16.08,-12.37,-12.02
17.92531096935272,3,3,3,2,-12.31,-2.18,-4.74,-12.22,-10.22,-17.92
17.92531096935272,3,3,3,2,-12.31,-2.18,-4.74,-12.22,-10.22,-17.92
17.94531095027924,3,3,3,2,-15.79,1.51,-4.82,-4.32,-9.65,-19.41
17.94531095027924,3,3,3,2,-15.79,1.51,-4.82,-4.32,-9.65,-19.41
17.96531093120575,3,3,3,2,-16.93,5.81,-4.5,-0.95,-8.17,-18.79
17.96531093120575,3,3,3,2,-16.93,5.81,-4.5,-0.95,-8.17,-18.79
17.98531091213226,3,3,3,2,-15.11,6.34,-3.36,-0.08,-5.87,-20.89
17.98531091213226,3,3,3,2,-15.11,6.34,-3.36,-0.08,-5.87,-20.89
18.00531089305878,3,3,3,2,-11.75,5.73,-2.08,1.22,-4.6,-23.58
18.00531089305878,3,3,3,2,-11.75,5.73,-2.08,1.22,-4.6,-23.58
18.02531087398529,3,3,3,2,-12.1,5.89,-2.42,1.55,-2.54,-23.93
18.02531087398529,3,3,3,2,-12.1,5.89,-2.42,1.55,-2.54,-23.93
18.04531109333038,3,3,3,2,-11,6.49,-2,1.31,-2.08,-23.77
18.04531109333038,3,3,3,2,-11,6.49,-2,1.31,-2.08,-23.77
18.0653110742569,3,3,3,2,-9.9,6.23,-2.29,-0.22,-2.05,-25.08
18.0653110742569,3,3,3,2,-9.9,6.23,-2.29,-0.22,-2.05,-25.08
18.08531105518341,3,3,3,2,-9.49,4.73,-2.3,-2.64,-1.8,-25.63
18.08531105518341,3,3,3,2,-9.49,4.73,-2.3,-2.64,-1.8,-25.63
18.10531103610992,3,3,3,1,-8.35,3.36,-2.26,-1.13,-1.12,-24.21
18.10531103610992,3,3,3,1,-8.35,3.36,-2.26,-1.13,-1.12,-24.21
18.12531101703644,3,3,3,1,-7.55,2.8,-2.27,5.23,-0.84,-22.21
18.12531101703644,3,3,3,1,-7.55,2.8,-2.27,5.23,-0.84,-22.21
18.14531099796295,3,3,3,1,-7.19,3.48,-2.47,11.35,-1.22,-20.38
18.14531099796295,3,3,3,1,-7.19,3.48,-2.47,11.35,-1.22,-20.38
18.16531097888947,3,3,3,1,-6.64,3.89,-2.56,14.09,-1.52,-17.96
18.16531097888947,3,3,3,1,-6.64,3.89,-2.56,14.09,-1.52,-17.96
18.18531095981598,3,3,3,1,-6.54,4.34,-2.69,16.45,-0.8100000000000001,-14.92
18.18531095981598,3,3,3,1,-6.54,4.34,-2.69,16.45,-0.8100000000000001,-14.92
18.20531094074249,3,3,3,1,-5.59,5.27,-2.85,17.76,-0.5,-10.83
18.20531094074249,3,3,3,1,-5.59,5.27,-2.85,17.76,-0.5,-10.83
18.22531092166901,3,3,3,1,-5.43,5.76,-2.21,15.87,-0.2,-8.4
18.22531092166901,3,3,3,1,-5.43,5.76,-2.21,15.87,-0.2,-8.4
18.24531090259552,3,3,3,1,-4.74,6.41,-1.85,12.46,-0.51,-6.3
18.24531090259552,3,3,3,1,-4.74,6.41,-1.85,12.46,-0.51,-6.3
18.26531088352203,3,3,3,1,-3.96,5.88,-1.83,9.52,0.31,-4.28
18.26531088352203,3,3,3,1,-3.96,5.88,-1.83,9.52,0.31,-4.28
18.28531110286713,3,3,3,1,-4.42,5.05,-1.99,4.11,2.47,-2.05
18.28531110286713,3,3,3,1,-4.42,5.05,-1.99,4.11,2.47,-2.05
18.30531108379364,3,3,3,1,-5.15,-0.48,-1.63,-2.9,5.11,0.33
18.30531108379364,3,3,3,1,-5.15,-0.48,-1.63,-2.9,5.11,0.33
18.32531106472015,3,3,3,1,-7,-4.14,-0.53,-2.9,10.26,2.3
18.32531106472015,3,3,3,1,-7,-4.14,-0.53,-2.9,10.26,2.3
18.34531104564667,3,3,3,1,-12.46,-6.08,1.43,5.18,12.13,1.86
18.34531104564667,3,3,3,1,-12.46,-6.08,1.43,5.18,12.13,1.86
18.36531102657318,3,3,3,1,-13.13,-9.19,3.6,15.09,4.89,1.04
18.36531102657318,3,3,3,1,-13.13,-9.19,3.6,15.09,4.89,1.04
18.38531100749969,3,3,3,1,-14.92,-14.83,6.2,16.78,-2.54,0.72
18.38531100749969,3,3,3,1,-14.92,-14.83,6.2,16.78,-2.54,0.72
18.40531098842621,3,3,3,1,-15.75,-17.72,5.98,10.73,-8.31,-0.97
18.40531098842621,3,3,3,1,-15.75,-17.72,5.98,10.73,-8.31,-0.97
18.42531096935272,3,3,3,1,-10.76,-2.71,1.94,4.51,-3.47,-2.35
18.42531096935272,3,3,3,1,-10.76,-2.71,1.94,4.51,-3.47,-2.35
18.44531095027924,3,3,3,1,-7.86,-0.85,-0.67,0.59,1.78,-3.36
18.44531095027924,3,3,3,1,-7.86,-0.85,-0.67,0.59,1.78,-3.36
18.46531093120575,3,3,3,1,-9.77,0.41,-3.13,-3.75,11.17,-4.05
18.46531093120575,3,3,3,1,-9.77,0.41,-3.13,-3.75,11.17,-4.05
