timestamp,magCalib,accCalib,gyrCalib,sysCalib,accX,accY,accZ,gyrX,gyrY,gyrZ
0.05331099033355713,2,3,3,2,-9.51,2.38,1.34,-0.57,-0.21,0.23
0.06331098079681396,2,3,3,2,-9.44,2.38,1.12,-0.38,-0.24,0.37
0.0733109712600708,2,3,3,2,-9.5,2.37,1.12,-0.36,-0.01,0.33
0.08331096172332764,2,3,3,2,-9.619999999999999,2.35,1.22,-0.66,0.18,0.28
0.09331095218658447,2,3,3,2,-9.619999999999999,2.35,1.22,-0.66,0.18,0.28
0.1033109426498413,2,3,3,2,-9.58,2.29,1.2,-0.9,0.15,0.21
0.1133109331130981,2,3,3,2,-9.52,2.21,1.21,-1.02,-0.05,0.09
0.123310923576355,2,3,3,2,-9.48,2.09,1.19,-1.05,-0.03,0.01
0.1333109140396118,2,3,3,2,-9.5,2.01,1.26,-1.03,-0.04,-0.06
0.1433109045028687,2,3,3,2,-9.56,1.99,1.34,-1.03,-0.04,-0.06
0.1533108949661255,2,3,3,2,-9.550000000000001,1.96,1.31,-0.9399999999999999,-0.1,-0.11
0.1633108854293823,2,3,3,2,-9.529999999999999,1.94,1.22,-0.5,-0.11,-0.07000000000000001
0.1733108758926392,2,3,3,2,-9.51,1.9,1.17,-0.41,-0.02,-0.1
0.1833111047744751,2,3,3,2,-9.550000000000001,1.9,1.24,-0.39,-0.06,-0.11
0.1933110952377319,2,3,3,2,-9.609999999999999,1.9,1.27,-0.39,-0.06,-0.11
0.2033110857009888,2,3,3,2,-9.609999999999999,1.91,1.27,-0.27,-0.16,-0.18
0.2133110761642456,2,3,3,2,-9.550000000000001,1.94,1.25,0,-0.25,-0.15
0.2233110666275024,2,3,3,2,-9.529999999999999,1.94,1.18,0.02,-0.18,-0.1
0.2333110570907593,2,3,3,2,-9.529999999999999,1.93,1.21,0.08,-0.15,-0.06
0.2433110475540161,2,3,3,2,-9.56,1.96,1.24,0.2,-0.18,-0.04
0.2533110380172729,2,3,3,2,-9.539999999999999,2.02,1.26,0.29,-0.16,-0.01
0.2633110284805298,2,3,3,2,-9.550000000000001,2.06,1.27,0.42,-0.16,0.04
0.2733110189437866,2,3,3,2,-9.550000000000001,2.13,1.17,0.42,-0.06,0.06
0.2833110094070435,2,3,3,2,-9.550000000000001,2.14,1.19,0.32,-0.06,0.08
0.2933109998703003,2,3,3,2,-9.51,2.14,1.22,0.32,-0.06,0.08
0.3033109903335571,2,3,3,2,-9.49,2.13,1.2,0.28,-0.1,0.07000000000000001
0.313310980796814,2,3,3,2,-9.5,2.11,1.19,0.19,-0.2,-0.06
0.3233109712600708,2,3,3,2,-9.49,2.09,1.15,0.17,-0.24,-0.13
0.3333109617233276,2,3,3,2,-9.5,2.03,1.18,0.2,-0.15,-0.11
0.3433109521865845,2,3,3,2,-9.52,2.05,1.23,0.2,-0.15,-0.11
0.3533109426498413,2,3,3,2,-9.52,2.03,1.3,0.21,-0.06,-0.09
0.3633109331130981,2,3,3,2,-9.529999999999999,2.04,1.27,0.35,-0.03,-0.08
0.373310923576355,2,3,3,2,-9.529999999999999,2.05,1.19,0.4,-0.03,-0.04
0.3833109140396118,2,3,3,2,-9.52,2.08,1.21,0.44,0.01,-0.05
0.3933109045028687,2,3,3,2,-9.609999999999999,2.02,1.24,0.44,0.01,-0.05
0.4033108949661255,2,3,3,2,-9.6,2.05,1.26,0.38,-0.03,-0.08
0.4133108854293823,2,3,3,2,-9.58,2.02,1.26,0.34,-0.11,-0.14
0.4233108758926392,2,3,3,2,-9.539999999999999,2.01,1.19,0.3,-0.08,-0.12
0.4333111047744751,2,3,3,2,-9.529999999999999,2.01,1.24,0.3,-0.09,-0.13
0.4433110952377319,2,3,3,2,-9.529999999999999,2,1.29,0.3,-0.09,-0.13
0.4533110857009888,2,3,3,2,-9.529999999999999,2.01,1.32,0.31,-0.11,-0.15
0.4633110761642456,2,3,3,2,-9.550000000000001,2.03,1.35,0.33,-0.13,-0.28
0.4733110666275024,2,3,3,2,-9.52,2.04,1.21,0.39,-0.19,-0.29
0.4833110570907593,2,3,3,2,-9.539999999999999,2.03,1.24,0.42,-0.15,-0.35
0.4933110475540161,2,3,3,2,-9.57,2.05,1.26,0.42,-0.15,-0.35
0.5033110380172729,2,3,3,2,-9.539999999999999,2.08,1.27,0.31,-0.08,-0.34
0.5133110284805298,2,3,3,2,-9.539999999999999,2.1,1.22,0.25,-0.06,-0.26
0.5233110189437866,2,3,3,2,-9.529999999999999,2.1,1.14,0.24,0,-0.17
0.5333110094070435,2,3,3,2,-9.5,2.09,1.17,0.23,-0.03,-0.12
0.5433109998703003,2,3,3,2,-9.56,2.06,1.24,0.23,-0.03,-0.12
0.5533109903335571,2,3,3,2,-9.550000000000001,2.08,1.28,0.24,-0.05,-0.12
0.563310980796814,2,3,3,2,-9.529999999999999,2.09,1.27,0.3,-0.01,-0.1
0.5733109712600708,2,3,3,2,-9.5,2.11,1.19,0.25,0.01,-0.08
0.5833109617233276,2,3,3,2,-9.52,2.17,1.19,0.19,0.01,-0.09
0.5933109521865845,2,3,3,2,-9.529999999999999,2.18,1.24,0.16,-0.01,-0.11
0.6033109426498413,2,3,3,2,-9.550000000000001,2.16,1.24,0.12,-0.12,-0.14
0.6133109331130981,2,3,3,2,-9.539999999999999,2.14,1.2,0.1,-0.09,-0.18
0.623310923576355,2,3,3,2,-9.529999999999999,2.14,1.13,0.01,-0.04,-0.2
0.6333109140396118,2,3,3,2,-9.49,2.12,1.19,-0.08,0,-0.18
0.6433109045028687,2,3,3,2,-9.539999999999999,2.1,1.24,-0.2,0.03,-0.19
0.6533108949661255,2,3,3,2,-9.539999999999999,2.09,1.28,-0.17,-0.05,-0.17
0.6633108854293823,2,3,3,2,-9.539999999999999,2.05,1.23,-0.11,-0.13,-0.22
0.6733108758926392,2,3,3,2,-9.58,2.04,1.18,-0.04,-0.08,-0.27
0.6833111047744751,2,3,3,2,-9.58,2.01,1.22,-0.01,-0.11,-0.29
0.6933110952377319,2,3,3,2,-9.56,2.02,1.26,0.01,-0.09,-0.28
0.7033110857009888,2,3,3,2,-9.5,2.04,1.26,0.03,0.02,-0.24
0.7133110761642456,2,3,3,2,-9.51,2.08,1.23,0,0.04,-0.19
0.7233110666275024,2,3,3,2,-9.539999999999999,2.08,1.18,-0.03,0.04,-0.16
0.7333110570907593,2,3,3,2,-9.57,2.05,1.21,-0.13,0,-0.13
0.7433110475540161,2,3,3,2,-9.57,2.07,1.25,-0.17,-0.08,-0.13
0.7533110380172729,2,3,3,2,-9.56,2.01,1.25,-0.13,-0.07000000000000001,-0.18
0.7633110284805298,2,3,3,2,-9.57,1.96,1.27,-0.16,-0.04,-0.21
0.7733110189437866,2,3,3,2,-9.57,1.9,1.22,-0.16,0.03,-0.21
0.7833110094070435,2,3,3,2,-9.539999999999999,1.93,1.29,-0.08,0.01,-0.14
0.7933109998703003,2,3,3,2,-9.539999999999999,1.93,1.28,0,0.05,-0.14
0.8033109903335571,2,3,3,2,-9.52,1.97,1.29,0.05,0.04,-0.1
0.813310980796814,2,3,3,2,-9.550000000000001,2.01,1.25,0.11,0.01,-0.07000000000000001
0.8233109712600708,2,3,3,2,-9.56,2,1.19,0.2,-0.01,-0.05
0.8333109617233276,2,3,3,2,-9.609999999999999,2.05,1.21,0.21,-0.06,-0.06
0.8433109521865845,2,3,3,2,-9.59,2.06,1.24,0.21,-0.12,-0.05
0.8533109426498413,2,3,3,2,-9.529999999999999,2.06,1.24,0.1,-0.05,-0.07000000000000001
0.8633109331130981,2,3,3,2,-9.5,2.07,1.24,-0.02,0,-0.07000000000000001
0.873310923576355,2,3,3,2,-9.51,2.08,1.17,-0.07000000000000001,-0.01,-0.11
0.8933109045028687,2,3,3,2,-9.529999999999999,2.03,1.28,-0.13,-0.12,-0.19
0.9033108949661255,2,3,3,2,-9.56,1.98,1.28,-0.13,-0.11,-0.21
0.9133108854293823,2,3,3,2,-9.56,1.98,1.31,-0.14,-0.08,-0.22
0.9233108758926392,2,3,3,2,-9.539999999999999,1.96,1.2,-0.1,-0.04,-0.18
0.9343110322952271,2,3,3,2,-9.56,1.92,1.29,-0.06,0,-0.17
0.9443110227584839,2,3,3,2,-9.56,1.93,1.3,0.02,0.08,-0.15
0.9543110132217407,2,3,3,2,-9.59,1.95,1.3,-0.01,0.06,-0.15
0.9643110036849976,2,3,3,2,-9.609999999999999,1.94,1.22,-0.04,0.02,-0.15
0.9743109941482544,2,3,3,2,-9.59,1.92,1.16,-0.03,-0.08,-0.12
0.9843109846115112,2,3,3,2,-9.57,1.91,1.24,-0.1,-0.11,-0.17
0.9943109750747681,2,3,3,2,-9.539999999999999,1.91,1.31,-0.09,-0.18,-0.2
1.004310965538025,2,3,3,2,-9.56,1.91,1.38,-0.04,-0.21,-0.22
1.014310956001282,2,3,3,2,-9.56,1.89,1.38,0.02,-0.23,-0.25
1.024310946464539,2,3,3,2,-9.56,1.89,1.27,0.08,-0.23,-0.26
1.034310936927795,2,3,3,2,-9.529999999999999,1.88,1.28,0.11,-0.12,-0.29
1.044310927391052,2,3,3,2,-9.550000000000001,1.92,1.33,0.17,-0.1,-0.3
1.054310917854309,2,3,3,2,-9.56,1.92,1.35,0.15,-0.1,-0.33
1.064310908317566,2,3,3,2,-9.56,1.94,1.33,0.14,-0.1,-0.33
1.074310898780823,2,3,3,2,-9.6,1.96,1.27,0.15,-0.08,-0.35
1.08431088924408,2,3,3,2,-9.57,1.98,1.34,0.13,-0.12,-0.31
1.094310879707336,2,3,3,2,-9.529999999999999,1.98,1.27,0.11,-0.14,-0.23
1.104310870170593,2,3,3,2,-9.52,2,1.31,0.04,-0.11,-0.23
1.114311099052429,2,3,3,2,-9.539999999999999,1.98,1.27,-0.08,-0.05,-0.21
1.124311089515686,2,3,3,2,-9.57,1.96,1.23,-0.13,-0.11,-0.26
1.134311079978943,2,3,3,2,-9.619999999999999,1.93,1.26,-0.12,-0.21,-0.29
1.1443110704422,2,3,3,2,-9.56,1.92,1.34,-0.08,-0.21,-0.28
1.154311060905457,2,3,3,2,-9.49,1.93,1.36,-0.07000000000000001,-0.08,-0.31
1.164311051368713,2,3,3,2,-9.49,1.91,1.34,-0.12,0.02,-0.25
1.17431104183197,2,3,3,2,-9.51,1.97,1.26,-0.16,0.05,-0.23
1.184311032295227,2,3,3,2,-9.52,1.96,1.26,-0.16,0.02,-0.2
1.194311022758484,2,3,3,2,-9.6,1.93,1.34,-0.12,-0.02,-0.23
1.204311013221741,2,3,3,2,-9.58,1.9,1.31,-0.12,-0.08,-0.26
1.214311003684998,2,3,3,2,-9.550000000000001,1.88,1.32,-0.07000000000000001,-0.06,-0.3
1.224310994148254,2,3,3,2,-9.550000000000001,1.9,1.27,-0.14,-0.04,-0.32
1.234310984611511,2,3,3,2,-9.539999999999999,1.89,1.34,-0.19,-0.08,-0.32
1.244310975074768,2,3,3,2,-9.550000000000001,1.88,1.33,-0.19,-0.08,-0.34
1.254310965538025,2,3,3,2,-9.56,1.89,1.36,-0.12,-0.11,-0.37
1.264310956001282,2,3,3,2,-9.57,1.88,1.36,-0.06,-0.06,-0.35
1.274310946464539,2,3,3,2,-9.58,1.87,1.25,-0.03,-0.07000000000000001,-0.33
1.284310936927795,2,3,3,2,-9.56,1.85,1.32,-0.03,-0.03,-0.32
1.294310927391052,2,3,3,2,-9.57,1.83,1.34,-0.05,0.01,-0.27
1.304310917854309,2,3,3,2,-9.630000000000001,1.84,1.38,-0.09,-0.01,-0.26
1.314310908317566,2,3,3,2,-9.6,1.81,1.33,-0.09,-0.08,-0.21
1.324310898780823,2,3,3,2,-9.6,1.81,1.27,-0.05,-0.11,-0.24
1.33431088924408,2,3,3,2,-9.609999999999999,1.81,1.31,0.02,-0.13,-0.22
1.344310879707336,2,3,3,2,-9.6,1.78,1.39,0.01,-0.15,-0.2
1.354310870170593,2,3,3,2,-9.58,1.81,1.38,0.04,-0.11,-0.18
1.364311099052429,2,3,3,2,-9.56,1.81,1.38,0.12,-0.1,-0.17
1.374311089515686,2,3,3,2,-9.550000000000001,1.84,1.3,0.14,-0.13,-0.18
1.384311079978943,2,3,3,2,-9.539999999999999,1.84,1.3,0.18,-0.1,-0.2
1.3943110704422,2,3,3,2,-9.56,1.85,1.36,0.18,-0.08,-0.19
1.404311060905457,2,3,3,2,-9.56,1.87,1.36,0.15,-0.05,-0.2
1.414311051368713,2,3,3,2,-9.58,1.88,1.38,0.09,-0.07000000000000001,-0.24
1.42431104183197,2,3,3,2,-9.59,1.83,1.28,0.04,-0.1,-0.28
1.434311032295227,2,3,3,2,-9.59,1.82,1.33,0.03,-0.11,-0.34
1.444311022758484,2,3,3,2,-9.59,1.79,1.36,0.02,-0.16,-0.36
1.454311013221741,2,3,3,2,-9.550000000000001,1.76,1.41,0.07000000000000001,-0.13,-0.37
1.464311003684998,2,3,3,2,-9.56,1.75,1.38,0.1,-0.07000000000000001,-0.36
1.474310994148254,2,3,3,2,-9.57,1.78,1.31,0.15,-0.02,-0.32
1.484310984611511,2,3,3,2,-9.59,1.81,1.36,0.22,-0.06,-0.26
1.494310975074768,2,3,3,2,-9.59,1.82,1.36,0.27,-0.09,-0.24
1.504310965538025,2,3,3,2,-9.59,1.84,1.38,0.26,-0.11,-0.22
1.514310956001282,2,3,3,2,-9.58,1.86,1.36,0.19,-0.16,-0.25
1.524310946464539,2,3,3,2,-9.550000000000001,1.85,1.28,0.12,-0.19,-0.26
1.534310936927795,2,3,3,2,-9.529999999999999,1.86,1.37,0.07000000000000001,-0.18,-0.29
1.544310927391052,2,3,3,2,-9.539999999999999,1.85,1.39,0.02,-0.16,-0.32
1.554310917854309,2,3,3,2,-9.550000000000001,1.83,1.4,-0.05,-0.2,-0.32
1.564310908317566,2,3,3,2,-9.56,1.79,1.41,-0.01,-0.12,-0.35
1.574310898780823,2,3,3,2,-9.609999999999999,1.72,1.34,-0.04,-0.04,-0.38
1.58431088924408,2,3,3,2,-9.609999999999999,1.7,1.4,-0.04,0,-0.39
1.594310879707336,2,3,3,2,-9.58,1.72,1.41,0.08,-0.02,-0.35
1.604310870170593,2,3,3,2,-9.56,1.71,1.43,0.19,0.01,-0.32
1.614311099052429,2,3,3,2,-9.56,1.79,1.38,0.2,0,-0.28
1.624311089515686,2,3,3,2,-9.56,1.82,1.26,0.23,-0.06,-0.25
1.634311079978943,2,3,3,2,-9.56,1.87,1.29,0.23,-0.17,-0.28
1.6443110704422,2,3,3,2,-9.58,1.89,1.32,0.22,-0.27,-0.32
1.654311060905457,2,3,3,2,-9.57,1.9,1.34,0.13,-0.29,-0.39
1.664311051368713,2,3,3,2,-9.59,1.87,1.36,0,-0.29,-0.5
1.67431104183197,2,3,3,2,-9.57,1.83,1.3,-0.11,-0.3,-0.61
1.684311032295227,2,3,3,2,-9.539999999999999,1.78,1.38,-0.2,-0.29,-0.67
1.694311022758484,2,3,3,2,-9.52,1.75,1.41,-0.18,-0.3,-0.73
1.704311013221741,2,3,3,2,-9.52,1.76,1.43,-0.08,-0.31,-0.68
1.714311003684998,2,3,3,2,-9.52,1.74,1.43,-0.03,-0.23,-0.65
1.724310994148254,2,3,3,2,-9.58,1.74,1.29,0.04,-0.19,-0.58
1.734310984611511,2,3,3,2,-9.630000000000001,1.78,1.34,0.13,-0.16,-0.53
1.744310975074768,2,3,3,2,-9.68,1.79,1.38,0.17,-0.15,-0.47
1.754310965538025,2,3,3,2,-9.69,1.79,1.39,0.15,-0.18,-0.4
1.764310956001282,2,3,3,2,-9.57,1.8,1.38,0.11,-0.2,-0.36
1.774310946464539,2,3,3,2,-9.58,1.81,1.3,0.09,-0.18,-0.26
1.784310936927795,2,3,3,2,-9.58,1.81,1.33,0.07000000000000001,-0.14,-0.23
1.794310927391052,2,3,3,2,-9.56,1.8,1.35,0.1,-0.18,-0.17
1.804310917854309,2,3,3,2,-9.56,1.79,1.46,0.14,-0.19,-0.13
1.814310908317566,2,3,3,2,-9.550000000000001,1.82,1.42,0.18,-0.18,-0.1
1.824310898780823,2,3,3,2,-9.52,1.87,1.34,0.27,-0.13,-0.08
1.83431088924408,2,3,3,2,-9.529999999999999,1.9,1.29,0.32,-0.05,-0.11
1.844310879707336,2,3,3,2,-9.609999999999999,1.9,1.36,0.3,-0.01,-0.11
1.854310870170593,2,3,3,2,-9.609999999999999,1.9,1.35,0.22,0.01,-0.13
1.864311099052429,2,3,3,2,-9.57,1.87,1.38,0.12,-0.02,-0.12
1.874311089515686,2,3,3,2,-9.529999999999999,1.84,1.31,0,-0.01,-0.08
1.884311079978943,2,3,3,2,-9.57,1.75,1.42,-0.12,0.06,-0.02
1.8943110704422,2,3,3,2,-9.58,1.75,1.47,-0.13,0.14,0.02
1.904311060905457,2,3,3,2,-9.58,1.76,1.44,-0.03,0.07000000000000001,0.05
1.914311051368713,2,3,3,2,-9.58,1.76,1.37,0.14,0.09,0.09
1.92431104183197,2,3,3,2,-9.57,1.76,1.33,0.29,0.12,0.15
1.934311032295227,2,3,3,2,-9.6,1.77,1.32,0.38,0.17,0.18
1.944311022758484,2,3,3,2,-9.630000000000001,1.78,1.36,0.34,0.14,0.19
1.954311013221741,2,3,3,2,-9.66,1.76,1.39,0.27,0.06,0.21
1.96531093120575,2,3,3,2,-9.609999999999999,1.78,1.39,0.15,0.06,0.19
1.975310921669006,2,3,3,2,-9.56,1.76,1.31,0.19,-0.01,0.22
1.985310912132263,2,3,3,2,-9.529999999999999,1.77,1.34,0.27,0.09,0.23
1.99531090259552,2,3,3,2,-9.550000000000001,1.76,1.43,0.28,0.2,0.26
2.005310893058777,2,3,3,2,-9.58,1.75,1.48,0.28,0.23,0.25
2.015310883522034,2,3,3,2,-9.6,1.75,1.44,0.39,0.19,0.22
2.025310873985291,2,3,3,2,-9.609999999999999,1.78,1.32,0.49,0.17,0.18
2.035311102867126,2,3,3,2,-9.57,1.83,1.35,0.52,0.13,0.15
2.045311093330383,2,3,3,2,-9.58,1.83,1.35,0.52,0.13,0.16
2.05531108379364,2,3,3,2,-9.56,1.85,1.37,0.51,0.09,0.21
2.065311074256897,2,3,3,2,-9.6,1.84,1.38,0.51,0.1,0.19
2.075311064720154,2,3,3,2,-9.539999999999999,1.83,1.25,0.5,0.13,0.19
2.085311055183411,2,3,3,2,-9.539999999999999,1.86,1.27,0.46,0.19,0.15
2.095311045646667,2,3,3,2,-9.529999999999999,1.89,1.27,0.33,0.3,0.1
2.105311036109924,2,3,3,2,-9.59,1.86,1.32,0.17,0.32,0.07000000000000001
2.115311026573181,2,3,3,2,-9.59,1.86,1.32,0.08,0.23,0.06
2.125311017036438,2,3,3,2,-9.56,1.84,1.26,0.01,0.17,0.1
2.135311007499695,2,3,3,2,-9.539999999999999,1.82,1.3,0,0.21,0.12
2.145310997962952,2,3,3,2,-9.57,1.77,1.36,0.01,0.24,0.16
2.155310988426208,2,3,3,2,-9.57,1.77,1.36,0.06,0.24,0.18
2.165310978889465,2,3,3,2,-9.6,1.77,1.4,0.12,0.16,0.16
2.175310969352722,2,3,3,2,-9.619999999999999,1.77,1.27,0.21,0.11,0.14
2.185310959815979,2,3,3,2,-9.6,1.81,1.27,0.31,0.14,0.09
2.195310950279236,2,3,3,2,-9.56,1.85,1.31,0.29,0.16,0.09
2.205310940742493,2,3,3,2,-9.56,1.85,1.31,0.29,0.16,0.09
2.21531093120575,2,3,3,2,-9.550000000000001,1.85,1.31,0.22,0.2,0.16
2.225310921669006,2,3,3,2,-9.58,1.83,1.26,0.1,0.2,0.22
2.235310912132263,2,3,3,2,-9.619999999999999,1.82,1.33,0.11,0.17,0.16
2.24531090259552,2,3,3,2,-9.640000000000001,1.77,1.39,0.13,0.08,0.08
2.255310893058777,2,3,3,2,-9.640000000000001,1.77,1.39,0.13,0.08,0.08
2.265310883522034,2,3,3,2,-9.619999999999999,1.8,1.39,0.23,0.05,0
2.275310873985291,2,3,3,2,-9.51,1.85,1.27,0.12,0.18,0
2.285311102867126,2,3,3,2,-9.52,1.84,1.28,0,0.22,0.09
2.295311093330383,2,3,3,2,-9.6,1.82,1.33,0.01,0.19,0.13
2.30531108379364,2,3,3,2,-9.6,1.82,1.33,0.03,0.12,0.12
2.315311074256897,2,3,3,2,-9.59,1.82,1.35,0.12,0.06,0.07000000000000001
2.325311064720154,2,3,3,2,-9.619999999999999,1.84,1.35,0.19,-0.02,0
2.335311055183411,2,3,3,2,-9.609999999999999,1.81,1.25,0.17,0.04,-0.03
2.345311045646667,2,3,3,2,-9.59,1.82,1.3,0.07000000000000001,0.04,0
2.355311036109924,2,3,3,2,-9.57,1.84,1.33,-0.01,0.06,-0.04
2.365311026573181,2,3,3,2,-9.57,1.83,1.36,-0.02,0.06,0
2.375311017036438,2,3,3,2,-9.58,1.84,1.37,0.02,0.07000000000000001,-0.02
2.385311007499695,2,3,3,2,-9.57,1.82,1.27,0.11,0.08,-0.04
2.395310997962952,2,3,3,2,-9.6,1.8,1.31,0.13,0.06,-0.07000000000000001
2.405310988426208,2,3,3,2,-9.609999999999999,1.78,1.35,0.11,-0.01,-0.08
2.415310978889465,2,3,3,2,-9.609999999999999,1.81,1.36,0.05,-0.07000000000000001,-0.1
2.425310969352722,2,3,3,2,-9.550000000000001,1.84,1.28,0.07000000000000001,-0.03,-0.07000000000000001
2.435310959815979,2,3,3,2,-9.539999999999999,1.85,1.23,0,0.02,-0.05
2.445310950279236,2,3,3,2,-9.57,1.84,1.28,-0.08,0.06,-0.03
2.455310940742493,2,3,3,2,-9.59,1.82,1.32,-0.14,0.02,-0.07000000000000001
2.46531093120575,2,3,3,2,-9.6,1.8,1.38,-0.08,-0.04,-0.12
2.475310921669006,2,3,3,2,-9.56,1.79,1.39,0,-0.09,-0.14
2.485310912132263,2,3,3,2,-9.550000000000001,1.79,1.28,0.04,-0.07000000000000001,-0.15
2.49531090259552,2,3,3,2,-9.550000000000001,1.83,1.32,0.04,-0.04,-0.14
2.505310893058777,2,3,3,2,-9.6,1.82,1.33,0.01,-0.01,-0.13
2.515310883522034,2,3,3,2,-9.6,1.83,1.34,0,-0.04,-0.11
2.525310873985291,2,3,3,2,-9.58,1.84,1.34,-0.02,0,-0.11
2.535311102867126,2,3,3,2,-9.57,1.84,1.23,-0.05,0,-0.08
2.545311093330383,2,3,3,2,-9.56,1.85,1.28,-0.1,-0.07000000000000001,-0.06
2.55531108379364,2,3,3,2,-9.58,1.84,1.29,-0.2,-0.11,-0.03
2.565311074256897,2,3,3,2,-9.6,1.82,1.35,-0.27,-0.13,-0.02
2.575311064720154,2,3,3,2,-9.619999999999999,1.78,1.38,-0.31,-0.17,-0.05
2.585311055183411,2,3,3,2,-9.59,1.78,1.33,-0.26,-0.2,-0.09
2.595311045646667,2,3,3,2,-9.58,1.78,1.36,-0.19,-0.21,-0.08
2.605311036109924,2,3,3,2,-9.550000000000001,1.8,1.39,-0.19,-0.21,-0.08
2.615311026573181,2,3,3,2,-9.52,1.77,1.37,-0.16,-0.24,-0.09
2.625311017036438,2,3,3,2,-9.56,1.78,1.38,-0.22,-0.28,-0.09
2.635311007499695,2,3,3,2,-9.57,1.76,1.3,-0.3,-0.42,-0.09
2.645310997962952,2,3,3,2,-9.609999999999999,1.75,1.35,-0.41,-0.5,-0.18
2.655310988426208,2,3,3,2,-9.66,1.75,1.45,-0.41,-0.5,-0.18
2.665310978889465,2,3,3,2,-9.65,1.76,1.53,-0.53,-0.59,-0.26
2.675310969352722,2,3,3,2,-9.609999999999999,1.72,1.53,-0.74,-0.9399999999999999,-0.45
2.685310959815979,2,3,3,2,-9.58,1.71,1.43,-0.73,-1,-0.53
2.695310950279236,2,3,3,2,-9.49,1.7,1.52,-0.71,-0.97,-0.58
2.705310940742493,2,3,3,2,-9.49,1.68,1.57,-0.71,-0.97,-0.58
2.71531093120575,2,3,3,2,-9.52,1.64,1.58,-0.61,-0.92,-0.58
2.725310921669006,2,3,3,2,-9.5,1.64,1.5,-0.43,-0.89,-0.54
2.735310912132263,2,3,3,2,-9.51,1.64,1.41,-0.32,-0.87,-0.42
2.74531090259552,2,3,3,2,-9.48,1.67,1.47,-0.25,-0.74,-0.25
2.755310893058777,2,3,3,2,-9.5,1.77,1.51,-0.32,-0.57,-0.1
2.765310883522034,2,3,3,2,-9.57,1.83,1.52,-0.46,-0.47,0.09
2.775310873985291,2,3,3,2,-9.609999999999999,1.86,1.52,-0.58,-0.45,0.23
2.785311102867126,2,3,3,2,-9.65,1.86,1.43,-0.68,-0.52,0.32
2.795311093330383,2,3,3,2,-9.630000000000001,1.87,1.41,-0.73,-0.54,0.39
2.80531108379364,2,3,3,2,-9.609999999999999,1.88,1.48,-0.74,-0.59,0.43
2.815311074256897,2,3,3,2,-9.57,1.87,1.46,-0.49,-0.76,0.59
2.825311064720154,2,3,3,2,-9.529999999999999,1.83,1.38,-0.49,-0.76,0.59
2.835311055183411,2,3,3,2,-9.49,1.86,1.33,-0.32,-0.76,0.65
2.845311045646667,2,3,3,2,-9.449999999999999,1.9,1.5,-0.59,-0.6,0.68
2.855311036109924,2,3,3,2,-9.42,1.87,1.54,-0.57,-0.59,0.66
2.865311026573181,2,3,3,2,-9.380000000000001,1.88,1.55,-0.47,-0.59,0.67
2.875311017036438,2,3,3,2,-9.359999999999999,1.89,1.63,-0.22,-0.49,0.7
2.885311007499695,2,3,3,2,-9.359999999999999,1.98,1.48,0.11,-0.42,0.82
2.895310997962952,2,3,3,2,-9.369999999999999,2,1.43,0.5600000000000001,-0.33,1.06
2.905310988426208,2,3,3,2,-9.390000000000001,2.07,1.37,0.8100000000000001,-0.18,1.4
2.915310978889465,2,3,3,2,-9.23,2.01,1.29,0.58,-0.08,1.77
2.925310969352722,2,3,3,2,-9.119999999999999,2.02,1.23,0.22,0.07000000000000001,2.1
2.935310959815979,2,3,3,2,-9.109999999999999,2.09,1.2,-0.14,0.32,2.31
2.945310950279236,2,3,3,2,-9.02,2.18,1.32,-0.38,0.34,2.45
2.955310940742493,2,3,3,2,-8.630000000000001,2.18,1.31,-0.17,0.2,2.48
2.96531093120575,2,3,3,2,-8.4,2.15,1.32,0.14,0.26,2.54
2.975310921669006,2,3,3,2,-8.24,2.09,1.36,0.35,0.62,2.67
2.986311078071594,2,3,3,2,-8.06,2.1,1.2,0.5600000000000001,0.9,2.92
2.996311068534851,2,3,3,2,-7.64,2.21,1.03,0.86,1.19,3.27
3.006311058998108,2,3,3,2,-7.41,2.25,1.05,1.09,1.37,3.72
3.016311049461365,2,3,3,2,-7.17,2.24,0.92,1.18,1.47,4.09
3.026311039924622,2,3,3,2,-6.88,2.13,0.78,1.21,1.73,4.3
3.036311030387878,2,3,3,2,-6.33,1.84,0.9399999999999999,0.66,2.15,4.31
3.046311020851135,2,3,3,2,-6.21,1.79,1.19,0,2.11,4.2
3.056311011314392,2,3,3,2,-6.07,1.67,1.3,-0.19,1.57,4.04
3.066311001777649,2,3,3,2,-6.06,1.58,1.48,-0.2,0.82,3.68
3.076310992240906,2,3,3,2,-6.26,1.56,1.67,0.25,-0.15,3.3
3.086310982704163,2,3,3,2,-6.44,1.49,1.41,1.36,-0.8,2.84
3.096310973167419,2,3,3,2,-6.7,1.51,1.13,2.27,-0.76,2.26
3.106310963630676,2,3,3,2,-7.49,1.67,0.95,2.32,-0.2,1.87
3.116310954093933,2,3,3,2,-7.94,1.77,1.21,1.85,0.19,1.89
3.12631094455719,2,3,3,2,-8.27,1.71,1.35,1.15,-0.19,2.22
3.136310935020447,2,3,3,2,-8.56,1.68,1.28,0.77,-0.68,2.48
3.146310925483704,2,3,3,2,-8.539999999999999,1.87,0.88,0.93,-0.97,2.63
3.15631091594696,2,3,3,2,-8.34,1.85,0.68,1.14,-0.83,3.13
3.166310906410217,2,3,3,2,-8.23,1.83,0.64,0.79,-0.32,3.72
3.176310896873474,2,3,3,2,-7.97,1.72,0.68,-0.38,0.39,4.15
3.186310887336731,2,3,3,2,-8.24,1.55,1.56,-1.7,0.49,4.2
3.196310877799988,2,3,3,2,-8.27,1.52,1.95,-2,-0.78,3.6
3.206310868263245,2,3,3,2,-8.34,1.6,2.18,-1.45,-2.75,2.64
3.216311097145081,2,3,3,2,-8.279999999999999,1.77,2.17,-0.39,-4.01,1.5
3.226311087608337,2,3,3,2,-8.25,1.79,1.67,0.36,-3.78,0.74
3.236311078071594,2,3,3,2,-8.31,1.82,1.29,0.25,-2.54,0.7
3.246311068534851,2,3,3,2,-8.470000000000001,1.68,1.54,-0.35,-0.71,1.09
3.256311058998108,2,3,3,2,-8.890000000000001,1.91,2.1,-0.64,-0.04,1.4
3.266311049461365,2,3,3,2,-9.73,2.55,2.23,0.12,-0.89,1.27
3.276311039924622,2,3,3,2,-10.22,2.82,2.29,0.66,-1.94,0.89
3.286311030387878,2,3,3,2,-10.94,3.02,2.43,0.16,-2.22,0.35
3.296311020851135,2,3,3,2,-12.53,3.34,2.05,-1.02,-2.24,-0.21
3.306311011314392,2,3,3,2,-13.01,3.42,1.82,-1.77,-1.81,-0.58
3.316311001777649,2,3,3,2,-13.64,3.45,2.02,-2.84,-0.86,-0.46
3.326310992240906,2,3,3,2,-14.12,3.2,2.05,-3.66,0.02,-0.4
3.336310982704163,2,3,3,2,-14.33,3.09,2.35,-3.67,0.19,-0.51
3.346310973167419,2,3,3,2,-14.65,3.12,2.58,-3.22,-0.07000000000000001,-0.58
3.356310963630676,2,3,3,2,-15.07,3.08,2.74,-1.98,-0.37,-0.93
3.366310954093933,2,3,3,2,-15.45,3.31,3.08,-0.32,-0.08,-1.77
3.37631094455719,2,3,3,2,-16.98,3.96,4.18,-0.28,0.07000000000000001,-2.51
3.416310906410217,2,3,3,2,-20.34,3.9,4.32,-0.52,2.36,-1.19
3.426310896873474,2,3,3,2,-21.1,3.72,4.77,-1.31,2.89,-0.43
3.436310887336731,2,3,3,2,-22.21,3.64,5.37,-2.36,2.83,-0.45
3.446310877799988,2,3,3,2,-23.23,3.42,5.91,-3.23,1.65,-1.22
3.456310868263245,2,3,3,2,-24.62,3.37,6.15,-3.55,0.71,-2.58
3.466311097145081,2,3,3,2,-25.14,3.22,6.11,-3.96,0.88,-4.15
3.476311087608337,2,3,3,2,-25.48,2.86,6.51,-5.32,2.61,-5.82
3.486311078071594,2,3,3,2,-25.82,2.26,6.59,-5.98,4.88,-7.21
3.496311068534851,2,3,3,2,-26.77,1.41,6.82,-5.7,6.34,-9.02
3.506311058998108,2,3,3,2,-26.28,0.75,6.04,-4.58,5.75,-10.68
3.516311049461365,2,3,3,2,-25.49,0.45,5.18,-2.54,3.89,-11.42
3.526311039924622,2,3,3,2,-22.14,0.93,2.55,-0.97,1.95,-10.77
3.536311030387878,2,3,3,2,-18.45,2.44,1.07,1.59,1.24,-9.119999999999999
3.546311020851135,2,3,3,2,-14.92,5.72,0.52,4.53,0.76,-4.62
3.556311011314392,2,3,3,2,-12.71,6.67,-0.52,6.68,0.21,0.64
3.566311001777649,2,3,3,2,-7.85,8.380000000000001,-4.02,10.46,1.52,2.86
3.576310992240906,2,3,3,2,-5.22,7.64,-5.33,11.84,3.21,3.39
3.586310982704163,2,3,3,2,-2.17,7.22,-4.73,9.5,3.66,2.09
3.596310973167419,2,3,3,2,0.98,8.619999999999999,-2.29,4.3,1.84,0.86
3.606310963630676,2,3,3,2,8.130000000000001,12.83,-1.66,1.43,-3.82,1.64
3.616310954093933,2,3,3,2,9.92,14.39,-3.57,4.61,-5.29,2.91
3.62631094455719,2,3,3,2,9.289999999999999,13.52,-7.22,7.05,-2.91,4.01
3.636310935020447,2,3,3,2,8.5,9.99,-8.359999999999999,2.64,-1.31,4.57
3.646310925483704,2,3,3,2,5.08,2.47,-2.02,-8.960000000000001,2.54,2.71
3.65631091594696,2,3,3,2,3.09,0.59,-0.33,-15.64,6.54,-0.18
3.666310906410217,2,3,3,2,1.06,-0.51,0.78,-18.51,6.21,-2.48
3.676310896873474,2,3,3,2,-0.07000000000000001,-0.64,1.41,-20.29,1.26,-4.73
3.686310887336731,2,3,3,2,0.18,-1.25,1.32,-20.27,-3.26,-6.35
3.696310877799988,2,3,3,2,0.75,-1.66,0.48,-17.57,-5.64,-6.74
3.706310868263245,2,3,3,2,1.1,-2.44,0.05,-14.56,-6.39,-6.3
3.716311097145081,2,3,3,2,-0.67,-3.52,0.42,-10.84,-3.85,-6.26
3.726311087608337,2,3,3,2,-2.08,-3.88,0.6,-7.07,-1.68,-6.11
3.736311078071594,2,3,3,2,-2.67,-3.9,0.63,-4.06,-1.58,-6
3.746311068534851,2,3,3,2,-2.79,-4.01,0.65,-2.01,-0.55,-5.43
3.756311058998108,2,3,3,2,-3.43,-3.4,0.67,-0.01,0.33,-4.08
3.766311049461365,2,3,3,2,-3.49,-2.67,0.45,2.07,1.11,-2.35
3.776311039924622,2,3,3,2,-3.08,-2.44,0.11,3.41,0.87,-0.42
3.786311030387878,2,3,3,2,-2.21,-1.86,0.04,4.83,0.54,1.34
3.796311020851135,2,3,3,2,-0.99,-1.14,0.58,5.72,0.88,2.73
3.806311011314392,2,3,3,2,-0.38,-1.15,0.6,6.28,1.2,4.05
3.816311001777649,2,3,3,2,0.08,-1.12,0.58,7.3,1.46,5.01
3.826310992240906,2,3,3,2,0.4,-0.98,0.5,8.52,0.85,5.85
3.836310982704163,2,3,3,2,1.27,-0.28,0.37,9.4,-0.17,6.8
3.846310973167419,2,3,3,2,1.39,0.03,0.54,9.789999999999999,-1,7.74
3.856310963630676,2,3,3,2,1.25,0.13,0.53,10.12,-1.67,8.140000000000001
3.866310954093933,2,3,3,2,1.18,0.31,0.37,10.23,-2.05,7.65
3.87631094455719,2,3,3,2,1.04,0.77,-0.23,9.81,-2.18,6.69
3.886310935020447,2,3,3,2,1.15,1.06,-0.48,8.98,-2,5.25
3.896310925483704,2,3,3,2,1.01,1.36,-0.24,7.58,-1.83,3.8
3.90631091594696,2,3,3,2,0.57,1.82,0.08,5.79,-2.62,2.37
3.916310906410217,2,3,3,2,0.47,1.98,0,4.38,-4.26,1.12
3.926310896873474,2,3,3,2,0.35,2.15,-0.21,3.15,-5.73,0.19
3.936310887336731,2,3,3,2,0.17,2.27,-0.49,1.45,-6.76,-0.41
3.946310877799988,2,3,3,2,0.71,2.67,0.03,-0.7,-7.1,-0.8
3.956310868263245,2,3,3,2,0.44,3.2,-0.43,-2.33,-6.01,-1.49
3.966311097145081,2,3,3,2,-0.63,3.79,0.03,-2.84,-4.56,-2.52
3.976311087608337,2,3,3,2,-1.59,4.66,0.44,-3.7,-3.98,-3.56
3.986311078071594,2,3,3,2,-2.65,7.82,1.62,-2.83,-2.45,-4.8
3.996311068534851,2,3,3,2,-6.92,10.4,2.14,-4.09,0.75,-7.67
4.00731098651886,2,3,3,2,-11.07,13.3,1.46,-4.39,-0.5600000000000001,-11.54
4.017310976982117,2,3,3,2,-18.03,10.5,5.05,-10.19,-0.04,-15.3
4.027310967445374,2,3,3,2,-39.28,16.45,5.39,-23.44,-4.12,-23.66
4.03731095790863,2,3,3,2,-39.26,12.67,-3.69,-30.84,-21.14,-35.12
4.047310948371887,2,3,3,2,-39.27,-16.55,-5.06,-42.92,1.64,-14.93
4.057310938835144,2,3,3,2,-39.28,-28.86,0.68,-30.23,20.58,13.71
4.067310929298401,2,3,3,2,-15.3,-7.21,14,-9.01,-3.47,1.52
4.077310919761658,2,3,3,2,-9.09,-0.31,13.28,4.52,3.31,-0.98
4.087310910224915,2,3,3,2,-6.85,-0.93,10.62,12.5,-0.54,-2.56
4.097310900688171,2,3,3,2,-9.24,-5.76,4.74,14.54,-8.300000000000001,-5.09
4.107310891151428,2,3,3,2,-15.25,-4.91,5.25,16.39,-1.74,-5.51
4.117310881614685,2,3,3,2,-20.93,-4.3,5.48,14.53,3.65,-4.74
4.127310872077942,2,3,3,2,-22.66,-1.58,4.61,14.36,3.92,-1.71
4.137311100959778,2,3,3,2,-23.77,1.32,2.21,12.35,7.48,4.08
4.147311091423035,2,3,3,2,-21.38,2.01,2.36,8.369999999999999,10.54,7.7
4.157311081886292,2,3,3,2,-17.88,2.16,2.68,5.77,6.12,8.630000000000001
4.167311072349548,2,3,3,2,-17.03,2.24,2.69,3.93,1.61,9.49
4.177311062812805,2,3,3,2,-15.46,2.73,2.98,3.42,0.13,9.279999999999999
4.197311043739319,2,3,3,2,-11.64,2.84,3.36,3.33,-8.67,3.93
4.207311034202576,2,3,3,2,-9.42,2.96,3.48,4.71,-10.06,0.57
4.217311024665833,2,3,3,2,-7.63,2.58,3.31,6.31,-3.51,-2.07
4.227311015129089,2,3,3,2,-7.37,2.36,2.94,6.98,4.09,-3.85
4.237311005592346,2,3,3,2,-7.33,1.88,2.04,5.73,8.76,-4.43
4.247310996055603,2,3,3,2,-8.18,1.64,1.16,3.94,11.25,-3.57
4.25731098651886,2,3,3,2,-9.98,1.15,0.38,1.76,10.21,-2.09
4.267310976982117,2,3,3,2,-9.9,0.82,0.65,0.01,6.15,-0.45
4.277310967445374,2,3,3,2,-9.34,0.95,1.26,-0.74,2.03,1.02
4.28731095790863,2,3,3,2,-8.279999999999999,1.06,1.59,-0.97,-0.6899999999999999,2.34
4.297310948371887,2,3,3,2,-5.37,0.72,1.65,-0.67,-1.62,3.72
4.307310938835144,2,3,3,2,-4.38,0.74,1.68,-0.22,-0.37,4.82
4.317310929298401,2,3,3,2,-4.03,0.52,1.58,0.14,1.4,5.68
4.327310919761658,2,3,3,2,-4.03,0.52,1.58,1.05,1.85,5.51
4.337310910224915,2,3,3,2,-4.73,0.74,1,2.31,3.6,5.09
4.347310900688171,2,3,3,2,-5.43,0.63,1.01,3.49,3.72,3.94
4.357310891151428,2,3,3,2,-6.09,0.57,1.1,3.87,3.7,2.38
4.367310881614685,2,3,3,2,-6.09,0.57,1.1,4.29,3.14,0.83
4.377310872077942,2,3,3,2,-6.97,1.45,1.04,4.43,1.43,-0.31
4.387311100959778,2,3,3,2,-7.5,2.38,0.88,4.07,0.01,-0.93
4.397311091423035,2,3,3,2,-7.97,2.62,0.98,3.3,-0.33,-1.48
4.407311081886292,2,3,3,2,-9,2.99,1.14,2.43,-0.03,-2.03
4.417311072349548,2,3,3,2,-9,2.99,1.14,2.43,-0.03,-2.03
4.427311062812805,2,3,3,2,-9.279999999999999,3.05,1.07,1.37,0.05,-2.5
4.437311053276062,2,3,3,2,-9.640000000000001,2.67,0.82,-1.5,-0.73,-2.95
4.447311043739319,2,3,3,2,-9.359999999999999,1.67,1.04,-2.91,-1.47,-2.81
4.457311034202576,2,3,3,2,-9.130000000000001,1.2,1.36,-3.92,-2.28,-2.42
4.467311024665833,2,3,3,2,-9.130000000000001,1.2,1.36,-3.92,-2.28,-2.42
4.477311015129089,2,3,3,2,-9.109999999999999,0.85,1.65,-4.41,-2.48,-1.84
4.487311005592346,2,3,3,2,-9.210000000000001,0.63,1.94,-3.54,-1.86,-0.92
4.497310996055603,2,3,3,2,-9.859999999999999,0.46,2.18,-2.26,-1.37,-0.77
4.50731098651886,2,3,3,2,-10.16,0.44,2.27,-1.01,-0.9399999999999999,-0.78
4.517310976982117,2,3,3,2,-10.33,0.58,2.24,-1.01,-0.9399999999999999,-0.78
4.527310967445374,2,3,3,2,-10.22,1.02,1.99,-0.3,-0.62,-0.85
4.53731095790863,2,3,3,2,-10.13,1.21,1.84,-0.4,0.21,-0.74
4.547310948371887,2,3,3,2,-10.12,1.35,1.7,-1.35,0.73,-0.59
4.557310938835144,2,3,3,2,-10.04,1.36,1.72,-2.49,0.86,-0.28
4.567310929298401,2,3,3,2,-10.07,1.28,1.7,-2.49,0.86,-0.28
4.577310919761658,2,3,3,2,-10,1.12,1.75,-3.46,0.85,0.15
4.587310910224915,2,3,3,2,-9.859999999999999,0.93,1.82,-3.91,0.43,1.23
4.597310900688171,2,3,3,2,-9.65,0.8,1.87,-3.07,0.22,1.79
4.607310891151428,2,3,3,2,-9.210000000000001,0.61,1.95,-1.8,0.17,2.15
4.617310881614685,2,3,3,2,-9.050000000000001,0.63,1.93,-1.8,0.17,2.15
4.627310872077942,2,3,3,2,-8.84,0.74,1.84,-0.58,0.25,2.42
4.637311100959778,2,3,3,2,-8.68,0.9399999999999999,1.75,0.8,0.36,2.6
4.647311091423035,2,3,3,2,-8.279999999999999,1.43,1.58,1.04,0.35,2.6
4.657311081886292,2,3,3,2,-8.130000000000001,1.66,1.66,0.99,0.38,2.46
4.667311072349548,2,3,3,2,-8.23,1.87,1.68,0.99,0.38,2.46
4.677311062812805,2,3,3,2,-8.4,2.06,1.69,1.15,0.24,2.11
4.687311053276062,2,3,3,2,-8.82,2.25,1.46,0.84,0.02,0.88
4.697311043739319,2,3,3,2,-9.06,2.22,1.29,0.32,0.03,0.14
4.707311034202576,2,3,3,2,-9.26,2.18,1.27,-0.36,-0.26,-0.6
4.717311024665833,2,3,3,2,-9.51,2.09,1.38,-0.36,-0.26,-0.6
4.727311015129089,2,3,3,2,-9.6,2.04,1.53,-1.08,-0.79,-1.18
4.737311005592346,2,3,3,2,-9.65,1.98,1.62,-1.78,-2.06,-1.91
4.747310996055603,2,3,3,2,-9.68,1.89,1.62,-1.57,-2.33,-2.05
4.75731098651886,2,3,3,2,-9.66,1.69,1.66,-0.9399999999999999,-2.36,-1.99
4.767310976982117,2,3,3,2,-9.56,1.59,1.67,-0.9399999999999999,-2.36,-1.99
4.777310967445374,2,3,3,2,-9.43,1.51,1.77,-0.25,-2.13,-1.67
4.78731095790863,2,3,3,2,-9.35,1.51,1.9,0.85,-1.2,-0.52
4.797310948371887,2,3,3,2,-9.16,1.51,1.74,1.62,-0.58,-0.17
4.807310938835144,2,3,3,2,-9.24,1.49,1.67,2.35,0.5,0.04
4.817310929298401,2,3,3,2,-9.369999999999999,1.46,1.73,2.35,0.5,0.04
4.827310919761658,2,3,3,2,-9.49,1.43,1.87,2.55,1.41,0.11
4.837310910224915,2,3,3,2,-9.210000000000001,1.55,1.72,2.23,1.61,0.22
4.847310900688171,2,3,3,2,-9.140000000000001,1.66,1.66,0.77,1.42,0.61
4.857310891151428,2,3,3,2,-9.19,1.77,1.78,-0.07000000000000001,1.24,0.65
4.867310881614685,2,3,3,2,-9.31,1.88,1.98,-0.07000000000000001,1.24,0.65
4.877310872077942,2,3,3,2,-9.67,2.07,2.22,-0.18,0.75,0.58
4.887311100959778,2,3,3,2,-9.890000000000001,2.11,2,1.68,-0.07000000000000001,0.28
4.897311091423035,2,3,3,2,-10.21,2.07,1.73,1.68,-0.07000000000000001,0.28
4.907311081886292,2,3,3,2,-10.6,1.58,1.58,2.28,0.26,0.38
4.917311072349548,2,3,3,2,-10.49,1.31,1.47,1.95,0.79,0.68
4.927311062812805,2,3,3,2,-10.19,1.22,1.48,1.04,1.22,1.2
4.937311053276062,2,3,3,2,-9.789999999999999,1.24,1.55,-0.12,1.51,1.87
4.947311043739319,2,3,3,2,-9.24,1.61,1.63,-0.9,1.68,2.49
4.957311034202576,2,3,3,2,-8.960000000000001,1.82,1.64,-0.95,1.59,2.95
4.967311024665833,2,3,3,2,-8.710000000000001,2,1.59,-0.31,1.28,3.04
4.977311015129089,2,3,3,2,-8.52,2.16,1.5,0.72,1.08,2.99
4.987311005592346,2,3,3,2,-8.130000000000001,2.39,1.16,1.68,1.02,3
4.997310996055603,2,3,3,2,-7.89,2.52,0.89,2.32,0.88,3.14
5.00731098651886,2,3,3,2,-7.61,2.61,0.65,2.74,0.84,3.43
5.017310976982117,2,3,3,2,-7.32,2.59,0.7,2.83,0.95,3.8
5.027310967445374,2,3,3,2,-7.04,2.57,1.18,2.11,1.37,3.97
5.038310885429382,2,3,3,2,-6.84,2.52,1.09,0.53,1.61,3.75
5.048310875892639,2,3,3,2,-6.59,2.55,0.89,-0.55,0.77,3.26
5.058311104774475,2,3,3,2,-6.48,2.62,0.9399999999999999,-1.07,-0.43,2.5
5.068311095237732,2,3,3,2,-6.55,2.82,1.22,-1.42,-1.37,1.63
5.078311085700989,2,3,3,2,-6.8,2.81,1.26,-0.53,-1.54,0.26
5.088311076164246,2,3,3,2,-6.97,2.68,1.02,-0.53,-1.54,0.26
5.098311066627502,2,3,3,2,-7.06,2.15,0.58,0.54,-1.21,0.04
5.108311057090759,2,3,3,2,-7.16,1.87,0.7,1.36,-0.09,1.2
5.118311047554016,2,3,3,2,-7.11,1.62,0.73,1.42,-0.12,2.32
5.128311038017273,2,3,3,2,-6.84,1.44,0.63,1.84,-0.45,3.58
5.13831102848053,2,3,3,2,-6.73,1.27,0.95,1.63,-0.55,4.78
5.148311018943787,2,3,3,2,-6.86,1.2,1.34,0.96,-0.99,5.61
5.158311009407043,2,3,3,2,-7.02,1.24,1.55,0.96,-1.89,5.73
5.1683109998703,2,3,3,2,-7.12,1.33,1.32,2.43,-2.8,5.47
5.178310990333557,2,3,3,2,-6.71,1.65,0.48,4.4,-2.97,5.27
5.188310980796814,2,3,3,2,-6.54,1.76,0.25,4.62,-1.88,5.34
5.198310971260071,2,3,3,2,-6.51,1.81,0.29,3.18,0.04,5.35
5.208310961723328,2,3,3,2,-6.52,1.75,0.59,1.55,1.43,5.05
5.218310952186584,2,3,3,2,-6.25,1.64,1.59,0.72,1.86,4.54
5.228310942649841,2,3,3,2,-6.34,1.78,1.94,1.03,1.74,3.91
5.238310933113098,2,3,3,2,-6.74,2.19,2.31,1.95,1.11,3.2
5.248310923576355,2,3,3,2,-7.41,2.7,2.4,2.45,0.7,2.69
5.258310914039612,2,3,3,2,-10.04,3.51,2.65,1.99,0.45,2.09
5.268310904502869,2,3,3,2,-11.28,3.36,2.69,0.72,0.13,1.14
5.278310894966125,2,3,3,2,-12.13,3.2,2.5,-0.87,-0.31,0.38
5.288310885429382,2,3,3,2,-13.12,3.02,2.24,-2.36,0.2,-0.73
5.298310875892639,2,3,3,2,-13.7,2.48,1.95,-3.38,1.25,-1.41
5.338311076164246,2,3,3,2,-18.03,1.06,3.62,-8.279999999999999,-3.09,-3.84
5.348311066627502,2,3,3,2,-18.32,0.8,4.46,-5.31,-3.03,-4.08
5.358311057090759,2,3,3,2,-18.76,0.88,5.12,-1.22,-1.08,-3.79
5.368311047554016,2,3,3,2,-20.28,1.53,5.36,2.39,1.44,-3.33
5.378311038017273,2,3,3,2,-21.19,1.96,5.72,4.52,3.21,-2.46
5.38831102848053,2,3,3,2,-21.92,2.4,5.44,5.14,3.49,-0.9
5.398311018943787,2,3,3,2,-22.55,2.74,4.73,5.12,3.43,0.77
5.408311009407043,2,3,3,2,-23.06,3.23,4.84,3.51,2.54,1.88
5.4183109998703,2,3,3,2,-22.66,3.11,5.11,1.39,1.18,2.28
5.428310990333557,2,3,3,2,-22.75,3.19,5.57,-0.03,0.58,1.55
5.438310980796814,2,3,3,2,-23.05,2.97,6.23,-2.3,0.5600000000000001,-0.37
5.448310971260071,2,3,3,2,-24.21,1.5,6.51,-4.36,1.21,-3.4
5.458310961723328,2,3,3,2,-24.58,0.48,6.87,-6.19,2.33,-6.76
5.468310952186584,2,3,3,2,-25.26,-0.72,6.62,-5.76,4.86,-9.81
5.478310942649841,2,3,3,2,-27.98,-1.51,6.19,-2.81,6.92,-12.13
5.488310933113098,2,3,3,2,-27.87,-1.71,4.9,0.08,5.66,-12.83
5.498310923576355,2,3,3,2,-25.72,-1.65,3.43,3.6,2.44,-11.82
5.508310914039612,2,3,3,2,-23.27,-0.11,3.55,5.76,1.19,-9.699999999999999
5.518310904502869,2,3,3,2,-17.5,5.45,1.75,7.41,0.29,-6.3
5.528310894966125,2,3,3,2,-15.37,7.58,-0.04,10.42,-0.93,-2.88
5.538310885429382,2,3,3,2,-13.41,9.470000000000001,-2.48,14.92,-1.27,-0.76
5.548310875892639,2,3,3,2,-10.81,10.77,-5.38,18.45,-0.95,0.52
5.558311104774475,2,3,3,2,-4.47,11.89,-5.87,16.03,-0.34,1.1
5.568311095237732,2,3,3,2,-0.25,12.53,-2.89,6.15,-0.84,2.65
5.578311085700989,2,3,3,2,3.71,13.54,-1.63,-3.66,-2.96,2.91
5.588311076164246,2,3,3,2,8.17,14.01,-1.96,-4.51,-5.36,5.06
5.598311066627502,2,3,3,2,10.91,11.46,-8.92,0.32,-6.03,7.44
5.608311057090759,2,3,3,2,8.4,8.34,-11.24,3.96,-2.98,8.66
5.618311047554016,2,3,3,2,5.96,4.67,-7.49,-5.14,4.72,5.08
5.628311038017273,2,3,3,2,3.29,1.3,-1.73,-16.49,12.41,0.43
5.63831102848053,2,3,3,2,2.36,-0.25,0.43,-18.46,7.17,-2.55
5.648311018943787,2,3,3,2,3.1,-0.27,-0.06,-17.3,0.73,-4.76
5.658311009407043,2,3,3,2,3.04,-0.78,0.58,-19.09,-0.46,-6.73
5.6683109998703,2,3,3,2,2.42,-2.15,1.12,-20.08,-1.43,-8.27
5.678310990333557,2,3,3,3,1.82,-4.09,0.73,-17,-4.49,-8.24
5.688310980796814,2,3,3,3,1.43,-5.18,0.72,-12.11,-5.75,-7.52
5.698310971260071,2,3,3,3,0.33,-5.41,1.1,-6.34,-4.72,-6.52
5.708310961723328,2,3,3,3,-3.04,-4.53,0.87,0.49,-3.14,-5.39
5.718310952186584,2,3,3,3,-4.3,-3.54,1.08,5.55,-1.51,-5.04
5.728310942649841,2,3,3,3,-5.36,-2.48,1.06,7.07,-0.96,-4.3
5.738310933113098,2,3,3,3,-5.56,-1.97,0.5,7.08,-0.22,-2.83
5.748310923576355,2,3,3,3,-5.46,-1.57,-0.06,6.32,1,-0.9
5.758310914039612,2,3,3,3,-4.42,-1.07,0.39,5.42,0.55,1.16
5.768310904502869,2,3,3,3,-2.89,-0.21,0.67,5.01,-1.19,3.38
5.778310894966125,2,3,3,3,-1.15,0.28,0.51,5.21,-1.95,5.23
5.788310885429382,2,3,3,3,1.71,0.36,-0.26,6.13,-1.19,6.42
5.798310875892639,2,3,3,3,2.27,0.22,-0.32,6.79,0.15,6.78
5.808311104774475,2,3,3,3,2.34,0.12,-0.19,7.18,0.38,7.06
5.818311095237732,2,3,3,3,2.24,0.18,-0.09,7.97,-0.28,7.4
5.828311085700989,2,3,3,3,1.71,0.26,0.03,8.890000000000001,-0.77,7.33
5.838311076164246,2,3,3,3,1.51,0.14,-0.02,9.32,-1.68,6.44
5.848311066627502,2,3,3,3,1.61,0.13,-0.32,9.42,-2.96,4.88
5.858311057090759,2,3,3,3,1.89,0.52,-0.63,9.359999999999999,-3.73,2.97
5.868311047554016,2,3,3,3,2.11,1.92,-0.68,8.460000000000001,-3.79,1.1
5.878311038017273,2,3,3,3,1.77,2.61,-0.46,6.67,-3.7,-0.5
5.88831102848053,2,3,3,3,1.09,3.05,-0.36,4.39,-4.28,-1.6
5.898311018943787,2,3,3,3,-0.2,3.03,-1.21,1.82,-5.69,-2.12
5.908311009407043,2,3,3,3,0.08,2.66,-2.14,-0.4,-6.79,-2.34
5.9183109998703,2,3,3,3,0.35,2.4,-2.71,-2.33,-5.28,-2.43
5.928310990333557,2,3,3,3,0.03,2.35,-1.42,-5.9,-1.63,-2.56
5.938310980796814,2,3,3,3,-1.01,2.79,0.1,-9.4,-0.83,-2.81
5.948310971260071,2,3,3,3,-1.7,2.69,0.02,-9.82,-1.57,-3.4
5.958310961723328,2,3,3,3,-2.71,2.66,0.48,-9.08,-1.76,-4.38
5.968310952186584,2,3,3,3,-3.01,3.92,1.75,-6.89,-3.48,-4.82
5.978310942649841,2,3,3,3,-6.29,8.23,2.22,-4.24,-4.32,-5.58
5.988310933113098,2,3,3,3,-11.2,12.11,2.27,-1.86,-3.83,-8.77
5.998310923576355,2,3,3,3,-17.49,10.32,3.99,-5.72,-2.56,-13.24
6.008310914039612,2,3,3,3,-26.48,12.09,6.69,-14.66,-9.92,-16.96
6.018310904502869,2,3,3,3,-36.04,3.54,-2.05,-30.7,-13.99,-25.42
6.028310894966125,2,3,3,3,-36.43,-11.68,0.39,-40.8,3.45,-19.64
6.038310885429382,2,3,3,3,-39.28,-14.11,8.57,-31.81,16.52,-7.18
6.048310875892639,2,3,3,3,-39.28,-12.77,7.34,-18.63,1.16,-6.64
6.059311032295227,2,3,3,3,-20.07,-5.18,10.36,-0.53,-6.68,-5.86
6.069311022758484,2,3,3,3,-14.99,-4.27,10.19,4.25,0.73,-1.73
6.079311013221741,2,3,3,3,-14.22,-6.44,9.69,2.41,2.63,-1.28
6.089311003684998,2,3,3,3,-19.44,-5.37,6.16,4.75,2.69,-2
6.099310994148254,2,3,3,3,-20.66,-4.55,4.22,7.81,3.26,-1.7
6.109310984611511,2,3,3,3,-20.02,-3.33,4.17,9.220000000000001,2.58,-0.61
6.119310975074768,2,3,3,3,-19.04,-2.02,4.82,8.94,4.43,1.13
6.129310965538025,2,3,3,2,-19.88,-0.24,4.64,7.71,6.96,3.28
6.139310956001282,2,3,3,2,-20.39,0,3.59,6.97,7.33,4.99
6.149310946464539,2,3,3,2,-19.76,0.07000000000000001,2.87,6.42,4.05,6.75
6.159310936927795,2,3,3,2,-18.41,0.15,3.02,5.45,0.14,8.19
6.169310927391052,2,3,3,2,-14.32,0.47,3.05,4.22,-1.74,8.039999999999999
6.179310917854309,2,3,3,2,-12.79,0.9399999999999999,3.11,3.06,-2.63,7.05
6.189310908317566,2,3,3,2,-11.45,0.82,3.37,1.49,-2.46,4.89
6.199310898780823,2,3,3,2,-10.02,0.4,3.41,0.35,-1.26,2.45
6.20931088924408,2,3,3,2,-8.380000000000001,-0.08,3.25,1.61,0.58,0.51
6.219310879707336,2,3,3,2,-7.88,-0.36,3.07,3.51,3,-0.34
6.229310870170593,2,3,3,2,-7.77,-0.42,2.16,5.71,4.67,-0.21
6.239311099052429,2,3,3,2,-7.95,-0.15,1.45,7.95,6.32,0.87
6.249311089515686,2,3,3,2,-8.48,0.64,0.77,8.300000000000001,7.49,2.28
6.259311079978943,2,3,3,2,-8.44,1.27,0.6899999999999999,8.029999999999999,6.94,3.75
6.2693110704422,2,3,3,2,-8.119999999999999,1.79,0.54,7.57,4.88,5.2
6.279311060905457,2,3,3,2,-6.5,2.55,0.43,6.9,2.78,6.23
6.289311051368713,2,3,3,2,-5.46,2.64,0.37,5.95,1.28,6.81
6.29931104183197,2,3,3,2,-4.83,2.94,0.55,4.45,-0.21,6.77
6.309311032295227,2,3,3,2,-4.43,2.68,0.7,2.83,0.65,6.35
6.319311022758484,2,3,3,2,-4.53,2.78,0.8100000000000001,1.85,1.56,5.66
6.329311013221741,2,3,3,2,-4.84,2.04,0.63,0.73,1.18,4.01
6.339311003684998,2,3,3,2,-4.84,2.04,0.63,-0.02,0.19,2.77
6.349310994148254,2,3,3,2,-4.66,1.94,0.71,0.21,-0.2,1.51
6.359310984611511,2,3,3,2,-5.21,1.84,0.72,0.12,-0.76,0.2
6.369310975074768,2,3,3,2,-5.7,1.87,1.12,-0.1,-1.33,-1.13
6.379310965538025,2,3,3,2,-5.7,1.87,1.12,-0.12,-1.47,-2.34
6.389310956001282,2,3,3,2,-6.36,1.82,1.45,0.63,-1.54,-3.21
6.399310946464539,2,3,3,2,-8.550000000000001,1.53,1.3,1.43,-1.34,-3.88
6.409310936927795,2,3,3,2,-9.199999999999999,1.32,1.16,1.67,-0.88,-4.37
6.419310927391052,2,3,3,2,-9.640000000000001,1.24,0.98,1.43,-0.23,-4.61
6.429310917854309,2,3,3,2,-9.640000000000001,1.24,0.98,0.84,0.22,-4.38
6.439310908317566,2,3,3,2,-9.81,1.21,1,-0.14,0.1,-3.65
6.449310898780823,2,3,3,2,-9.609999999999999,0.9,1.07,-0.99,-0.77,-2.73
6.45931088924408,2,3,3,2,-9.550000000000001,0.6899999999999999,1.23,-1.62,-1.49,-1.81
6.469310879707336,2,3,3,2,-9.779999999999999,0.48,1.52,-1.85,-1.6,-0.98
6.479310870170593,2,3,3,2,-9.779999999999999,0.48,1.52,-1.78,-1.91,-0.32
6.489311099052429,2,3,3,2,-10.33,0.25,2.37,-1.78,-1.91,-0.32
6.499311089515686,2,3,3,2,-10.54,0.37,2.31,-0.07000000000000001,-2.31,0.43
6.509311079978943,2,3,3,2,-10.32,0.6,2.09,0.74,-1.76,0.62
6.5193110704422,2,3,3,2,-10.05,0.74,1.96,0.96,-0.95,0.67
6.529311060905457,2,3,3,2,-10.05,0.74,1.96,0.96,-0.95,0.67
6.539311051368713,2,3,3,2,-9.779999999999999,0.9399999999999999,1.94,0.86,-0.31,0.65
6.54931104183197,2,3,3,2,-9.859999999999999,1.19,2.18,-0.21,0.52,0.1
6.559311032295227,2,3,3,2,-9.779999999999999,1.16,2.21,-0.67,0.43,-0.07000000000000001
6.569311022758484,2,3,3,2,-9.57,1.09,2.12,-0.83,0.35,-0.08
6.579311013221741,2,3,3,2,-9.57,1.09,2.12,-0.83,0.35,-0.08
6.589311003684998,2,3,3,2,-9.42,1.04,2.06,-0.8100000000000001,0.58,0.2
6.599310994148254,2,3,3,2,-9.08,0.98,1.68,-0.89,1.23,1.25
6.609310984611511,2,3,3,2,-9.06,1.06,1.62,-0.9399999999999999,1.38,1.77
6.619310975074768,2,3,3,2,-9.050000000000001,1.13,1.58,-0.92,1.27,2.17
6.629310965538025,2,3,3,2,-9.050000000000001,1.13,1.58,-0.92,1.27,2.17
6.639310956001282,2,3,3,2,-9.01,1.29,1.67,-0.82,0.92,2.26
6.649310946464539,2,3,3,2,-9.039999999999999,1.33,1.7,-0.59,-0.02,1.61
6.659310936927795,2,3,3,2,-9.029999999999999,1.41,1.61,-0.55,-0.4,1.09
6.669310927391052,2,3,3,2,-9.039999999999999,1.47,1.68,-0.62,-0.67,0.55
6.679310917854309,2,3,3,2,-9.039999999999999,1.69,1.71,-0.62,-0.67,0.55
6.689310908317566,2,3,3,2,-9.039999999999999,1.73,1.65,-0.61,-0.95,0.08
6.699310898780823,2,3,3,2,-9.06,1.76,1.67,-0.9399999999999999,-1.09,-0.73
6.70931088924408,2,3,3,2,-9.279999999999999,1.71,1.74,-1.18,-1.09,-1.12
6.719310879707336,2,3,3,2,-9.41,1.63,1.86,-1.32,-1.04,-1.45
6.729310870170593,2,3,3,2,-9.56,1.47,1.87,-1.32,-1.04,-1.45
6.739311099052429,2,3,3,2,-9.65,1.33,1.92,-1.44,-1.05,-1.72
6.749311089515686,2,3,3,2,-9.710000000000001,1.04,1.9,-1.43,-1.02,-1.77
6.759311079978943,2,3,3,2,-9.710000000000001,0.9,1.88,-1.22,-1,-1.47
6.7693110704422,2,3,3,2,-9.68,0.89,1.93,-0.8100000000000001,-1.01,-0.98
6.779311060905457,2,3,3,2,-9.67,0.9,1.96,-0.8100000000000001,-1.01,-0.98
6.789311051368713,2,3,3,2,-9.41,0.96,1.9,-0.28,-1,-0.43
6.79931104183197,2,3,3,2,-9.33,1.04,1.81,0.59,-0.37,0.5600000000000001
6.809311032295227,2,3,3,2,-9.279999999999999,1.09,1.72,0.75,0.26,0.89
6.819311022758484,2,3,3,2,-9.34,1.2,1.81,0.73,0.6899999999999999,1.06
6.829311013221741,2,3,3,2,-9.49,1.19,1.88,0.73,0.6899999999999999,1.06
6.839311003684998,2,3,3,2,-9.529999999999999,1.22,1.9,0.68,0.83,1.04
6.869310975074768,2,3,3,2,-9.550000000000001,1.15,1.99,-0.9,0.35,0.77
6.879310965538025,2,3,3,2,-9.48,1.08,2.04,-0.9,0.35,0.77
6.889310956001282,2,3,3,2,-9.44,1.06,2.06,-0.83,-0.01,0.66
6.899310946464539,2,3,3,2,-9.42,1.03,1.9,0.21,-0.15,0.58
6.909310936927795,2,3,3,2,-9.550000000000001,1.08,1.81,0.73,0.08,0.5600000000000001
6.919310927391052,2,3,3,2,-9.720000000000001,1.15,1.84,1.19,0.17,0.51
6.929310917854309,2,3,3,2,-9.85,1.22,1.72,1.19,0.17,0.51
6.939310908317566,2,3,3,2,-9.91,1.32,1.49,1.66,0.17,0.39
6.949310898780823,2,3,3,2,-9.82,1.35,1.39,1.56,0.42,0.44
6.95931088924408,2,3,3,2,-9.76,1.41,1.37,1.18,0.31,0.61
6.969310879707336,2,3,3,2,-9.640000000000001,1.43,1.46,0.82,-0.07000000000000001,0.79
6.979310870170593,2,3,3,2,-9.34,1.48,1.67,0.82,-0.07000000000000001,0.79
6.989311099052429,2,3,3,2,-9.19,1.54,1.75,0.6899999999999999,-0.46,0.9
6.999311089515686,2,3,3,2,-9.15,1.64,1.81,0.72,-0.68,0.68
7.009311079978943,2,3,3,2,-9.130000000000001,1.73,1.78,0.73,-0.55,0.39
7.0193110704422,2,3,3,2,-9.140000000000001,1.78,1.75,0.86,-0.4,0.15
7.029311060905457,2,3,3,2,-9.1,1.76,1.71,0.86,-0.4,0.15
7.039311051368713,2,3,3,2,-9.08,1.71,1.63,1,-0.14,0.01
7.04931104183197,2,3,3,2,-9.07,1.72,1.59,1.1,0.25,-0.01
7.059311032295227,2,3,3,2,-8.970000000000001,1.75,1.42,1.11,0.6,0.21
7.069311022758484,2,3,3,2,-8.92,1.8,1.34,0.99,0.86,0.44
7.079311013221741,2,3,3,2,-8.83,1.89,1.38,0.95,1.02,0.75
7.09031093120575,2,3,3,2,-8.83,2.08,1.48,0.89,1.07,0.92
7.100310921669006,2,3,3,2,-8.85,2.08,1.47,0.72,0.82,1.01
7.110310912132263,2,3,3,2,-8.92,2.09,1.48,0.67,0.55,0.99
7.12031090259552,2,3,3,2,-9,2.09,1.57,0.43,0.52,0.9
7.130310893058777,2,3,3,2,-9.109999999999999,1.92,1.39,0.25,0.61,0.77
7.140310883522034,2,3,3,2,-9.06,1.78,1.37,0.36,0.63,0.82
7.150310873985291,2,3,3,2,-8.99,1.75,1.6,0.55,0.55,1.03
7.160311102867126,2,3,3,2,-8.77,1.76,1.61,0.38,0.4,1.4
7.170311093330383,2,3,3,2,-8.109999999999999,2.08,1.08,0.66,0.15,1.89
7.18031108379364,2,3,3,2,-7.73,2.38,0.74,1.69,-0.04,2.51
7.190311074256897,2,3,3,2,-7.2,2.57,0.5600000000000001,2.47,0.16,3.25
7.200311064720154,2,3,3,2,-6.68,2.61,0.58,2.7,0.79,4.17
7.210311055183411,2,3,3,2,-5.73,2.42,0.72,2.4,1.66,5.02
7.220311045646667,2,3,3,2,-5.37,2.31,1.12,1.74,2.35,5.71
7.230311036109924,2,3,3,2,-5.32,2.26,1.64,0.84,2.85,6.05
7.240311026573181,2,3,3,2,-5.46,2.29,2.01,-0.14,2.87,5.99
7.250311017036438,2,3,3,2,-6.05,2.71,1.75,0.1,2.05,5.61
7.260311007499695,2,3,3,2,-6.33,2.85,1.25,1.79,0.98,5.07
7.270310997962952,2,3,3,2,-6.71,2.9,0.82,3.84,0.21,4.76
7.280310988426208,2,3,3,2,-7.12,2.84,0.66,5.01,0.42,4.83
7.290310978889465,2,3,3,2,-7.82,2.21,0.36,3.22,2.71,6.32
7.300310969352722,2,3,3,2,-8.01,2.19,0.43,3.22,2.71,6.32
7.310310959815979,2,3,3,2,-7.87,2,0.4,1.47,2.65,7.24
7.320310950279236,2,3,3,2,-7.21,1.66,0.59,0.27,1.77,8.31
7.330310940742493,2,3,3,2,-6.9,1.4,0.88,-0.52,-0.38,9.449999999999999
7.34031093120575,2,3,3,2,-6.75,1.28,1.13,-0.02,-0.65,8.99
7.350310921669006,2,3,3,2,-6.57,1.14,0.93,-0.02,-0.65,8.99
7.360310912132263,2,3,3,2,-6.34,0.96,1.08,2.09,-0.39,6.78
7.37031090259552,2,3,3,2,-6.44,1.19,1.35,2.43,-0.01,5.6
7.380310893058777,2,3,3,2,-6.63,1.57,1.48,3.39,0.52,4.83
7.390310883522034,2,3,3,2,-7.08,2.17,1.58,3.81,1.62,4.27
7.400310873985291,2,3,3,2,-9.83,3.45,2.39,2.89,2.13,3.84
7.410311102867126,2,3,3,2,-11.74,3.56,2.76,1.23,1.2,3.12
7.420311093330383,2,3,3,2,-13.86,3.78,3.29,0.04,-0.7,1.58
7.43031108379364,2,3,3,2,-14.74,3.43,3.47,0.06,-2.33,-0.09
7.440311074256897,2,3,3,2,-14.9,2.81,2.82,0.26,-1.79,-2.32
7.450311064720154,2,3,3,2,-15.47,2.45,2.13,-0.8,0.11,-2.15
7.460311055183411,2,3,3,2,-16.71,3.03,1.67,-3,0.37,-1.93
7.470311045646667,2,3,3,2,-17.43,3.26,1.51,-5.54,-0.33,-1.59
7.480311036109924,2,3,3,2,-17.2,2.8,1.41,-5.4,-2.32,-1.15
7.490311026573181,2,3,3,2,-16.37,2.71,2.44,-3.15,-2.86,-1.32
7.500311017036438,2,3,3,2,-16.94,3.12,4.4,-2.56,-1.28,-1.89
7.510311007499695,2,3,3,2,-18.24,2.7,5.47,-2.21,-1.43,-2.43
7.520310997962952,2,3,3,2,-18.86,2.33,5.57,-0.58,-1.15,-2.66
7.530310988426208,2,3,3,2,-19.15,1.65,5.23,0.66,0.46,-2.65
7.540310978889465,2,3,3,2,-19.35,1.25,4.92,2.74,2.39,-2.06
7.550310969352722,2,3,3,2,-20.75,1.4,5.15,3.53,3.2,-0.88
7.560310959815979,2,3,3,2,-21.39,1.86,5.07,4.37,2.35,0.52
7.570310950279236,2,3,3,2,-21.85,2.5,5.05,5.33,0.41,1.87
7.580310940742493,2,3,3,2,-22.36,3.09,5.13,4.8,-1.45,2.39
7.59031093120575,2,3,3,2,-22.93,3.33,4.78,3.28,-2.28,1.68
7.600310921669006,2,3,3,2,-23.26,3.34,4.87,1.79,-1,-0.33
7.610310912132263,2,3,3,2,-23.67,2.93,5.39,-0.02,2.03,-3.22
7.62031090259552,2,3,3,2,-24.25,3.01,5.8,-0.3,4.93,-6.31
7.630310893058777,2,3,3,2,-25.18,2.21,4.19,1.4,6.56,-9.48
7.640310883522034,2,3,3,2,-25.6,1.94,3.75,2.38,7.28,-12.1
7.650310873985291,2,3,3,2,-25.73,2.03,4.04,1.15,6.2,-12.89
7.660311102867126,2,3,3,2,-25.03,2.74,4.59,-0.73,3.37,-11.34
7.670311093330383,2,3,3,2,-19.32,3.88,2.39,0.37,0.47,-8.23
7.68031108379364,2,3,3,2,-15.66,5.92,-0.52,5.35,-3.5,-4.28
7.690311074256897,2,3,3,2,-12.99,7.49,-3.19,11.46,-3.74,-0.04
7.700311064720154,2,3,3,2,-8.33,9.640000000000001,-6.73,13.92,-1.5,3.49
7.710311055183411,2,3,3,2,-5.43,9.609999999999999,-6.2,10.15,2.93,4.45
7.720311045646667,2,3,3,2,-1.25,9.539999999999999,-2.85,-0.06,5.46,3.94
7.730311036109924,2,3,3,2,2.68,10.67,-0.55,-8.380000000000001,1.64,3.01
7.740311026573181,2,3,3,2,11.41,14.17,-2.11,-7.71,-1.45,0.99
7.750311017036438,2,3,3,2,11.51,12.99,-5.77,-3.21,-1.88,1.98
7.760311007499695,2,3,3,2,10.14,10.03,-8.09,-0.41,-4.45,2.31
7.770310997962952,2,3,3,2,9.25,6.49,-5.99,-4.95,1.99,1.58
7.780310988426208,2,3,3,2,4.53,2.41,-0.9,-11.72,10.46,0.86
7.790310978889465,2,3,3,2,2.67,2.08,-1.01,-16.88,10.9,0.26
7.800310969352722,2,3,3,2,0.54,1.87,-0.75,-21.99,6.68,-0.87
7.810310959815979,2,3,3,2,-0.38,0.66,-0.04,-24.98,1.15,-2.31
7.820310950279236,2,3,3,2,0.85,-1.45,0.42,-23.36,-4.34,-4.56
7.830310940742493,2,3,3,2,1.82,-2.77,0.43,-20.47,-5.29,-6.32
7.84031093120575,2,3,3,2,1.44,-3.71,1.12,-18.47,-2.61,-6.94
7.850310921669006,2,3,3,2,0.72,-4.61,1.6,-14.83,-1.27,-6.73
7.860310912132263,2,3,3,2,-2.04,-3.63,1.62,-7.81,-1.75,-5.56
7.87031090259552,2,3,3,2,-3.29,-3.2,1.34,-1.82,-1.96,-4.05
7.880310893058777,2,3,3,2,-3.74,-2.92,0.52,2.01,-1.36,-3.21
7.890310883522034,2,3,3,2,-4.37,-2.15,-0.23,2.91,0.34,-2.83
7.900310873985291,2,3,3,2,-4.56,-1.94,-0.38,2.01,0.59,-1.63
7.910311102867126,2,3,3,2,-3.93,-1.74,-0.35,2.13,-0.86,-0.09
7.920311093330383,2,3,3,2,-2.85,-1.09,0.03,3.11,-2.44,1.06
7.93031108379364,2,3,3,2,-0.93,-0.23,0.84,3.65,-3.62,1.93
7.940311074256897,2,3,3,2,-0.15,-0.27,0.82,4.45,-3.98,2.52
7.980311036109924,2,3,3,2,1.18,-0.01,0.53,9.119999999999999,-1.35,5.21
7.990311026573181,2,3,3,2,1.32,-0.07000000000000001,0.38,9.140000000000001,-2.05,5.91
8.000311017036438,2,3,3,2,1.48,0.11,0.25,9.73,-2.47,5.96
8.010311007499695,2,3,3,2,2.11,0.65,-0.66,9.970000000000001,-2.62,5.61
8.020310997962952,2,3,3,2,2.41,0.93,-0.85,9.539999999999999,-1.88,4.79
8.030310988426208,2,3,3,2,2.23,1.07,-0.68,7.77,-0.75,3.19
8.040310978889465,2,3,3,2,1.75,1.23,-0.43,5.6,-0.96,1.39
8.050310969352722,2,3,3,2,0.67,1.55,-0.49,3.82,-2.22,-0.37
8.071310877799988,2,3,3,2,-0.66,1.62,-0.27,-1.95,-3.81,-3.06
8.080310940742493,2,3,3,2,-0.64,1.96,0.74,-4.61,-4.17,-3.9
8.09031093120575,2,3,3,2,-0.85,2.58,0.89,-6.61,-4.32,-4.81
8.101311087608337,2,3,3,2,-1.45,3.04,0.42,-6.99,-4.48,-5.97
8.111311078071594,2,3,3,2,-2.42,4.29,1.34,-5.8,-4.48,-6.93
8.121311068534851,2,3,3,2,-2.95,7.95,0.82,-3.67,-4.01,-6.59
8.131311058998108,2,3,3,2,-6.41,10.9,1.16,-3.23,-1.97,-7.18
8.141311049461365,2,3,3,2,-11.75,12.03,0.8,-6.64,0.4,-8.98
8.151311039924622,2,3,3,2,-24.34,12.77,6.5,-16.12,2.69,-17.95
8.161311030387878,2,3,3,2,-39.28,5.21,-0.42,-29.21,-11.1,-31.16
8.171311020851135,2,3,3,2,-39.23,-2.64,-6.73,-29.36,-14.31,-36.06
8.181311011314392,2,3,3,2,-39.28,-17.35,-0.85,-33.65,31.35,-9.43
8.191311001777649,2,3,3,2,-39.28,-21.66,3.3,-25.99,19.81,11.09
8.201310992240906,2,3,3,2,-23.18,-3.07,15.93,-5.2,-15.99,-1.41
8.211310982704163,2,3,3,2,-12.04,-2.14,12.21,13.32,-9.050000000000001,-6.6
8.221310973167419,2,3,3,2,-11.01,-2.69,10.81,20.65,-6.99,-10.95
8.231310963630676,2,3,3,2,-13.31,-4.94,10.13,18.74,-6.09,-10.93
8.241310954093933,2,3,3,2,-23.32,-4.43,3.83,15.96,4.46,-5.84
8.25131094455719,2,3,3,2,-26.87,-2.81,1.36,10.08,11.58,0.37
8.261310935020447,2,3,3,2,-25.54,-0.8100000000000001,0.1,6.45,10.34,7.3
8.271310925483704,2,3,3,2,-17.27,3.18,3.52,4.96,1.64,11.44
8.28131091594696,2,3,3,2,-15.31,3.29,5.15,4.28,-4.15,11.46
8.291310906410217,2,3,3,2,-14.8,2.54,5.23,3.78,-0.16,9.98
8.301310896873474,2,3,3,2,-14.31,1.6,4.64,3.33,4.66,8.550000000000001
8.311310887336731,2,3,3,2,-13.36,0.8,3.18,3.67,6.28,6.45
8.321310877799988,2,3,3,2,-12.7,0.71,2.93,5.06,3.29,4.86
8.331310868263245,2,3,3,2,-11.76,0.9399999999999999,2.64,6.56,-1.45,3.56
8.341311097145081,2,3,3,2,-10.4,1.05,2,7.92,-2.37,1.24
8.351311087608337,2,3,3,2,-7.29,0.96,0.84,9.029999999999999,-0.13,-0.75
8.371311068534851,2,3,3,2,-5.47,1.21,0.31,8.609999999999999,6.19,-0.62
8.381311058998108,2,3,3,2,-5.12,1.07,0.21,7.62,7.66,1.14
8.391311049461365,2,3,3,2,-5.13,1.2,0.62,6.96,6.64,2.93
8.401311039924622,2,3,3,2,-4.78,1.4,0.79,7.02,3.83,4.75
8.411311030387878,2,3,3,2,-4.37,1.67,0.7,7.33,0.59,6.4
8.421311020851135,2,3,3,2,-3.69,2.2,0.88,7.94,-1.57,7
8.431311011314392,2,3,3,2,-2.32,3.29,0.96,7.96,-1.94,7.01
8.441311001777649,2,3,3,2,-2.32,3.29,0.96,7.59,-0.24,6.81
8.451310992240906,2,3,3,2,-1.7,3.63,0.79,7.54,2.19,6.44
8.461310982704163,2,3,3,2,-1.32,3.89,0.12,6.47,3.4,5.87
8.471310973167419,2,3,3,2,-3.01,3.91,-0.29,5.05,3.48,4.97
8.481310963630676,2,3,3,2,-4.3,4.06,-0.34,3.71,3.45,3.52
8.491310954093933,2,3,3,2,-4.3,4.06,-0.34,2.21,2.59,1.82
8.50131094455719,2,3,3,2,-5.52,4.15,-0.16,0.53,0.53,0.1
8.511310935020447,2,3,3,2,-8.49,4.72,0.25,-1,-1.5,-1.52
8.521310925483704,2,3,3,2,-9.949999999999999,4.81,0.5600000000000001,-2.7,-1.66,-3.14
8.53131091594696,2,3,3,2,-11.29,4.31,0.67,-4.38,-0.7,-4.89
8.541310906410217,2,3,3,2,-11.29,4.31,0.67,-5.34,0.05,-6.74
8.551310896873474,2,3,3,2,-12.53,2.42,0.42,-5.63,0.63,-7.95
8.561310887336731,2,3,3,2,-12.06,0.47,0.08,-5.4,1.19,-7.86
8.571310877799988,2,3,3,2,-12.01,-0.27,0.6,-4.87,1.38,-6.25
8.581310868263245,2,3,3,2,-12.43,-0.76,1.74,-4.44,0.93,-3.91
8.591311097145081,2,3,3,2,-12.43,-0.76,1.74,-4.44,0.93,-3.91
8.601311087608337,2,3,3,2,-11.96,-0.72,1.78,-3.51,-0.34,-1.47
8.611311078071594,2,3,3,2,-10.46,0.62,1.75,0.79,-2.99,1.74
8.621311068534851,2,3,3,2,-8.94,1.22,1.64,2.04,-3.48,2.41
8.631311058998108,2,3,3,2,-8.49,1.66,1.55,2.38,-2.39,2.85
8.641311049461365,2,3,3,2,-8.49,1.66,1.55,2.38,-2.39,2.85
8.651311039924622,2,3,3,2,-8.25,1.79,1.43,1.39,-0.29,2.84
8.661311030387878,2,3,3,2,-7.81,1.41,0.79,-1.25,2.03,1.98
8.671311020851135,2,3,3,2,-7.53,1.25,0.92,-2.33,2.04,1.24
8.681311011314392,2,3,3,2,-7.55,1.14,1.19,-3.41,1.86,0.59
8.691311001777649,2,3,3,2,-7.55,1.14,1.19,-3.74,1.45,0.05
8.701310992240906,2,3,3,2,-8.43,0.91,1.63,-3.17,0.96,-0.41
8.711310982704163,2,3,3,2,-9.609999999999999,0.65,1.53,-2.14,0.35,-0.71
8.721310973167419,2,3,3,2,-9.949999999999999,0.64,1.29,-1.01,-0.21,-0.73
8.731310963630676,2,3,3,2,-10.23,1,0.85,-0.1,-0.68,-0.44
8.741310954093933,2,3,3,2,-10.23,1,0.85,-0.1,-0.68,-0.44
8.75131094455719,2,3,3,2,-10.3,1.25,0.9,0.36,-1.13,0.11
8.761310935020447,2,3,3,2,-10.23,1.7,0.88,0.77,-2.18,1.17
8.771310925483704,2,3,3,2,-10.23,1.7,0.88,0.82,-2.11,1.3
8.78131091594696,2,3,3,2,-10.06,2.1,0.87,0.8100000000000001,-1.67,1.15
8.791310906410217,2,3,3,2,-9.869999999999999,2.32,0.9399999999999999,0.8100000000000001,-1.67,1.15
8.801310896873474,2,3,3,2,-9.75,2.46,1.02,0.72,-1.13,0.83
8.811310887336731,2,3,3,2,-9.76,2.49,1.13,0.5600000000000001,-0.57,-0.19
8.821310877799988,2,3,3,2,-10.06,2.35,1.18,0.57,-0.78,-0.68
8.831310868263245,2,3,3,2,-10.01,2.13,1.16,0.47,-0.93,-1.14
8.841311097145081,2,3,3,2,-9.800000000000001,1.86,1.12,0.47,-0.93,-1.14
8.851311087608337,2,3,3,2,-9.390000000000001,1.66,1.16,0.19,-0.8,-1.51
8.861311078071594,2,3,3,2,-8.94,1.54,1.53,-0.61,-0.21,-1.73
8.871311068534851,2,3,3,2,-9.07,1.52,1.61,-0.5600000000000001,-0.33,-1.7
8.881311058998108,2,3,3,2,-9.26,1.52,1.72,-0.12,-0.58,-1.73
8.891311049461365,2,3,3,2,-9.640000000000001,1.5,1.53,-0.12,-0.58,-1.73
8.901311039924622,2,3,3,2,-9.609999999999999,1.49,1.52,0.2,-0.66,-1.73
8.911311030387878,2,3,3,2,-9.529999999999999,1.51,1.48,0.01,-0.8,-1.3
8.921311020851135,2,3,3,2,-9.52,1.43,1.38,-0.08,-0.8100000000000001,-1.13
8.931311011314392,2,3,3,2,-9.880000000000001,1.26,1.77,-0.11,-1.22,-0.99
8.941311001777649,2,3,3,2,-9.82,1.19,1.84,-0.11,-1.22,-0.99
8.951310992240906,2,3,3,2,-9.58,1.18,1.83,0.31,-1.7,-0.82
8.961310982704163,2,3,3,2,-9.41,1.23,1.92,1.26,-0.78,-0.27
8.971310973167419,2,3,3,2,-9.359999999999999,1.45,1.81,1.66,-0.19,0.16
8.981310963630676,2,3,3,2,-9.48,1.63,1.76,1.95,0.2,0.47
8.991310954093933,2,3,3,2,-9.65,1.77,1.66,1.95,0.2,0.47
9.00131094455719,2,3,3,2,-9.789999999999999,1.94,1.62,2.21,0.33,0.58
9.011310935020447,2,3,3,2,-9.859999999999999,2.13,1.35,2.44,-0.25,0.32
9.021310925483704,2,3,3,2,-9.779999999999999,2.16,1.2,2.06,-0.44,0.13
9.03131091594696,2,3,3,2,-9.720000000000001,2.2,1.19,1.49,-0.44,-0.06
9.041310906410217,2,3,3,2,-9.65,2.21,1.23,1.49,-0.44,-0.06
9.051310896873474,2,3,3,2,-9.57,2.22,1.33,1,-0.53,-0.15
9.062311053276062,2,3,3,2,-9.550000000000001,2.2,1.32,0.26,-0.51,-0.08
9.071310877799988,2,3,3,2,-9.52,2.24,1.28,0.09,-0.41,0.03
9.081310868263245,2,3,3,2,-9.279999999999999,2.17,1.27,-0.04,-0.07000000000000001,0.11
9.091311097145081,2,3,3,2,-9.289999999999999,2.09,1.41,-0.04,-0.07000000000000001,0.11
9.101311087608337,2,3,3,2,-9.33,1.96,1.58,-0.36,0.34,0.15
9.111311078071594,2,3,3,2,-9.32,1.91,1.64,-0.77,0.44,0.12
9.121311068534851,2,3,3,2,-9.380000000000001,1.79,1.61,-0.77,0.49,0
9.13231098651886,2,3,3,2,-9.44,1.73,1.69,-0.72,0.54,-0.17
9.142310976982117,2,3,3,2,-9.57,1.68,1.82,-0.72,0.54,-0.17
9.152310967445374,2,3,3,2,-9.59,1.57,1.83,-0.65,0.36,-0.33
9.16231095790863,2,3,3,2,-9.57,1.4,1.76,0.07000000000000001,0.17,-0.51
9.172310948371887,2,3,3,2,-9.609999999999999,1.32,1.72,0.3,0.12,-0.47
9.182310938835144,2,3,3,2,-9.630000000000001,1.33,1.72,0.66,0.05,-0.33
9.192310929298401,2,3,3,2,-9.630000000000001,1.41,1.6,0.66,0.05,-0.33
9.202310919761658,2,3,3,2,-9.69,1.61,1.43,0.97,0.04,-0.12
9.212310910224915,2,3,3,2,-9.67,1.66,1.38,1.09,0.15,0.05
9.222310900688171,2,3,3,2,-9.66,1.79,1.27,1.06,0.13,0.19
9.232310891151428,2,3,3,2,-9.710000000000001,1.89,1.3,1.06,0.13,0.32
9.242310881614685,2,3,3,2,-9.789999999999999,1.96,1.4,1.01,0.13,0.38
9.252310872077942,2,3,3,2,-9.76,1.98,1.42,0.85,0.01,0.38
9.262311100959778,2,3,3,2,-9.69,1.97,1.38,0.68,-0.21,0.38
9.272311091423035,2,3,3,2,-9.359999999999999,1.98,1.31,0.53,-0.41,0.31
9.282311081886292,2,3,3,2,-9.26,2.03,1.37,0.37,-0.4,0.23
9.292311072349548,2,3,3,2,-9.31,2.03,1.45,0.17,-0.25,0.16
9.302311062812805,2,3,3,2,-9.359999999999999,2.05,1.47,-0.05,-0.1,0.09
9.312311053276062,2,3,3,2,-9.449999999999999,2.01,1.32,-0.16,0.1,-0.04
9.322311043739319,2,3,3,2,-9.460000000000001,1.94,1.34,-0.35,0.33,-0.15
9.332311034202576,2,3,3,2,-9.51,1.88,1.43,-0.6899999999999999,0.47,-0.24
9.342311024665833,2,3,3,2,-9.529999999999999,1.85,1.56,-0.9399999999999999,0.43,-0.26
9.352311015129089,2,3,3,2,-9.640000000000001,1.88,1.55,-0.89,0.29,-0.31
9.362311005592346,2,3,3,2,-9.74,1.9,1.5,-0.64,0.21,-0.37
9.372310996055603,2,3,3,2,-9.880000000000001,1.87,1.34,-0.46,0.21,-0.47
9.38231098651886,2,3,3,2,-9.949999999999999,1.77,1.32,-0.44,0.18,-0.55
9.392310976982117,2,3,3,2,-9.720000000000001,1.61,1.4,-0.64,0.02,-0.52
9.402310967445374,2,3,3,3,-9.57,1.6,1.47,-0.86,-0.09,-0.45
9.41231095790863,2,3,3,3,-9.470000000000001,1.61,1.51,-1.06,-0.2,-0.28
9.422310948371887,2,3,3,3,-9.449999999999999,1.62,1.48,-1.13,-0.21,-0.15
9.432310938835144,2,3,3,3,-9.48,1.66,1.59,-1.05,-0.19,-0.1
9.442310929298401,2,3,3,3,-9.5,1.68,1.56,-0.82,-0.22,-0.13
9.452310919761658,2,3,3,3,-9.56,1.69,1.58,-0.5,-0.1,-0.15
9.462310910224915,2,3,3,3,-9.66,1.66,1.61,-0.32,0.14,-0.19
9.472310900688171,2,3,3,3,-9.619999999999999,1.61,1.45,-0.25,0.19,-0.19
9.482310891151428,2,3,3,3,-9.56,1.63,1.42,-0.27,0.11,-0.17
9.492310881614685,2,3,3,3,-9.5,1.63,1.46,-0.27,0.09,-0.05
9.502310872077942,2,3,3,3,-9.57,1.66,1.49,-0.35,0.12,0.07000000000000001
9.512311100959778,2,3,3,3,-9.6,1.66,1.44,-0.54,0.16,0.16
9.522311091423035,2,3,3,3,-9.619999999999999,1.65,1.34,-0.73,0.15,0.17
9.532311081886292,2,3,3,3,-9.68,1.64,1.36,-0.87,0.12,0.11
9.542311072349548,2,3,3,3,-9.640000000000001,1.59,1.49,-0.92,0.07000000000000001,0.03
9.552311062812805,2,3,3,3,-9.58,1.53,1.54,-0.9,0.04,-0.08
9.562311053276062,2,3,3,3,-9.56,1.5,1.56,-0.87,0.03,-0.11
9.572311043739319,2,3,3,3,-9.550000000000001,1.43,1.5,-0.85,0.07000000000000001,-0.12
9.582311034202576,2,3,3,3,-9.58,1.47,1.57,-0.78,0.04,-0.08
9.592311024665833,2,3,3,3,-9.609999999999999,1.45,1.5,-0.71,-0.05,-0.04
9.602311015129089,2,3,3,3,-9.69,1.42,1.52,-0.38,0.01,-0.01
9.612311005592346,2,3,3,3,-9.800000000000001,1.42,1.54,-0.38,0.01,-0.01
9.622310996055603,2,3,3,3,-9.779999999999999,1.36,1.39,-0.3,-0.09,-0.05
9.63231098651886,2,3,3,3,-9.69,1.34,1.44,-0.34,-0.18,-0.14
9.642310976982117,2,3,3,3,-9.59,1.29,1.44,-0.34,-0.18,-0.14
9.652310967445374,2,3,3,3,-9.539999999999999,1.3,1.53,-0.52,-0.14,-0.11
9.66231095790863,2,3,3,3,-9.5,1.31,1.58,-0.46,-0.21,-0.02
9.672310948371887,2,3,3,3,-9.5,1.32,1.51,-0.24,-0.19,0.03
9.682310938835144,2,3,3,3,-9.5,1.35,1.52,0.01,-0.13,0.05
9.692310929298401,2,3,3,3,-9.6,1.37,1.64,0.23,-0.04,0.06
9.702310919761658,2,3,3,3,-9.630000000000001,1.35,1.63,0.44,-0.03,0.02
9.712310910224915,2,3,3,3,-9.630000000000001,1.37,1.6,0.58,-0.02,0.01
9.722310900688171,2,3,3,3,-9.619999999999999,1.42,1.47,0.57,0,-0.01
9.732310891151428,2,3,3,3,-9.59,1.48,1.5,0.5,0.05,0.04
9.742310881614685,2,3,3,3,-9.609999999999999,1.54,1.49,0.49,0.07000000000000001,0.05
9.752310872077942,2,3,3,3,-9.640000000000001,1.55,1.5,0.46,0.02,0.04
9.762311100959778,2,3,3,3,-9.69,1.61,1.5,0.39,-0.05,0.05
9.772311091423035,2,3,3,3,-9.710000000000001,1.54,1.42,0.25,-0.12,0
9.782311081886292,2,3,3,3,-9.67,1.53,1.5,0.11,-0.24,-0.04
9.792311072349548,2,3,3,3,-9.630000000000001,1.49,1.59,0.1,-0.3,-0.11
9.802311062812805,2,3,3,3,-9.619999999999999,1.52,1.64,0.17,-0.3,-0.16
9.812311053276062,2,3,3,3,-9.539999999999999,1.48,1.59,0.28,-0.31,-0.2
9.822311043739319,2,3,3,3,-9.470000000000001,1.44,1.48,0.37,-0.26,-0.2
9.832311034202576,2,3,3,3,-9.470000000000001,1.42,1.47,0.36,-0.15,-0.14
9.842311024665833,2,3,3,3,-9.470000000000001,1.42,1.52,0.33,-0.07000000000000001,-0.03
9.852311015129089,2,3,3,3,-9.539999999999999,1.42,1.5,0.37,-0.12,0.08
9.862311005592346,2,3,3,3,-9.619999999999999,1.45,1.49,0.47,-0.15,0.19
9.872310996055603,2,3,3,3,-9.68,1.46,1.47,0.52,-0.17,0.22
9.88231098651886,2,3,3,3,-9.710000000000001,1.6,1.47,0.63,-0.24,0.25
9.892310976982117,2,3,3,3,-9.73,1.66,1.41,0.83,-0.15,0.23
9.902310967445374,2,3,3,3,-9.76,1.66,1.43,0.79,-0.08,0.22
9.91231095790863,2,3,3,3,-9.75,1.67,1.44,0.66,-0.12,0.16
9.922310948371887,2,3,3,3,-9.6,1.66,1.32,0.53,-0.18,0.1
9.932310938835144,2,3,3,3,-9.57,1.67,1.36,0.35,-0.16,0.11
9.942310929298401,2,3,3,3,-9.529999999999999,1.66,1.42,0.11,-0.13,0.16
9.952310919761658,2,3,3,3,-9.52,1.66,1.47,-0.05,-0.15,0.16
9.962310910224915,2,3,3,3,-9.49,1.71,1.44,-0.06,-0.17,0.2
9.972310900688171,2,3,3,3,-9.529999999999999,1.68,1.37,-0.02,-0.12,0.2
9.982310891151428,2,3,3,3,-9.57,1.64,1.4,-0.09,-0.06,0.17
9.992310881614685,2,3,3,3,-9.6,1.6,1.47,-0.16,-0.02,0.15
10.00231087207794,2,3,3,3,-9.58,1.58,1.51,-0.23,0.07000000000000001,0.13
10.01231110095978,2,3,3,3,-9.59,1.58,1.52,-0.32,0.17,0.14
10.02231109142303,2,3,3,3,-9.58,1.57,1.42,-0.42,0.25,0.21
10.03231108188629,2,3,3,3,-9.56,1.53,1.41,-0.37,0.32,0.32
10.04231107234955,2,3,3,3,-9.58,1.54,1.46,-0.35,0.29,0.46
10.05231106281281,2,3,3,3,-9.57,1.57,1.48,-0.25,0.25,0.5600000000000001
10.06231105327606,2,3,3,3,-9.6,1.57,1.51,-0.17,0.2,0.59
10.07231104373932,2,3,3,3,-9.68,1.57,1.45,-0.11,0.16,0.55
10.08231103420258,2,3,3,3,-9.65,1.62,1.45,0.01,0.07000000000000001,0.5
10.10231101512909,2,3,3,3,-9.609999999999999,1.61,1.51,0.09,0.16,0.47
10.11231100559235,2,3,3,3,-9.49,1.64,1.46,-0.01,0.18,0.54
10.1223109960556,2,3,3,3,-9.44,1.66,1.41,-0.02,0.22,0.66
10.13231098651886,2,3,3,3,-9.369999999999999,1.67,1.51,-0.05,0.33,0.77
10.14231097698212,2,3,3,3,-9.359999999999999,1.7,1.57,-0.1,0.33,0.77
10.15231096744537,2,3,3,3,-9.51,1.66,1.82,-0.09,0.19,0.64
10.16331088542938,2,3,3,3,-9.58,1.61,1.74,-0.13,-0.19,0.38
10.17331087589264,2,3,3,3,-9.51,1.57,1.4,-0.08,-0.47,0.14
10.18331110477448,2,3,3,3,-9.529999999999999,1.52,1.2,0.18,-0.07000000000000001,0
10.19331109523773,2,3,3,3,-9.75,1.56,1.4,0.31,0.28,0.03
10.20331108570099,2,3,3,3,-9.76,1.57,1.48,0.4,0.2,0.19
10.21331107616425,2,3,3,3,-9.800000000000001,1.61,1.41,0.66,0.11,0.41
10.2233110666275,2,3,3,3,-9.84,1.64,1.18,0.91,0.15,0.59
10.23331105709076,2,3,3,3,-9.81,1.72,1.12,0.83,0.15,0.74
10.24331104755402,2,3,3,3,-9.710000000000001,1.75,1.21,0.5,0.06,0.83
10.25331103801727,2,3,3,2,-9.609999999999999,1.78,1.26,0.07000000000000001,0.01,0.86
10.26331102848053,2,3,3,2,-9.51,1.86,1.28,-0.13,-0.01,0.8100000000000001
10.27331101894379,2,3,3,2,-9.630000000000001,1.87,1.32,-0.29,0.1,0.6899999999999999
10.28331100940704,2,3,3,2,-9.75,1.78,1.44,-0.44,0.13,0.48
10.2933109998703,2,3,3,2,-9.83,1.67,1.45,-0.41,0.11,0.3
10.30331099033356,2,3,3,2,-9.69,1.47,1.46,-0.38,0.1,0.28
10.31331098079681,2,3,3,2,-9.58,1.43,1.49,-0.39,0.16,0.38
10.32331097126007,2,3,3,2,-9.44,1.52,1.39,-0.26,0.2,0.68
10.33331096172333,2,3,3,2,-9.390000000000001,1.62,1.41,-0.09,0.22,0.9399999999999999
10.34331095218658,2,3,3,2,-9.369999999999999,1.76,1.39,0.05,0.25,1.13
10.35331094264984,2,3,3,2,-9.34,1.79,1.34,0.15,0.15,1.2
10.3633109331131,2,3,3,2,-9.369999999999999,1.86,1.33,0.29,0.15,1.14
10.37331092357635,2,3,3,2,-9.42,1.85,1.2,0.27,0.34,1.03
10.38331091403961,2,3,3,2,-9.539999999999999,1.78,1.28,0.05,0.38,0.88
10.39331090450287,2,3,3,2,-9.529999999999999,1.77,1.32,-0.1,0.17,0.77
10.40331089496613,2,3,3,2,-9.56,1.79,1.41,-0.32,-0.01,0.6899999999999999
10.41331088542938,2,3,3,2,-9.640000000000001,1.87,1.46,-0.51,-0.1,0.57
10.42331087589264,2,3,3,2,-9.82,1.95,1.64,-0.67,-0.22,0.43
10.43331110477448,2,3,3,2,-9.91,2.1,2.16,-0.98,-0.55,0.27
10.44331109523773,2,3,3,2,-9.94,2.08,2.5,-1.97,-1.14,0.17
10.45331108570099,2,3,3,2,-10.02,1.84,1.98,-2.75,-1.92,-0.16
10.46331107616425,2,3,3,2,-10.2,1.73,1.03,-1.27,-2.88,-0.4
10.4733110666275,2,3,3,2,-9.92,1.69,1.5,-0.8,-3.67,-0.32
10.48331105709076,2,3,3,2,-9.33,1.47,1.65,-1.02,-4.13,-0.01
10.49331104755402,2,3,3,2,-9.109999999999999,1.7,1.39,0.14,-3.17,0.44
10.50331103801727,2,3,3,2,-9.369999999999999,1.76,1.56,0.62,-1.66,0.75
10.51331102848053,2,3,3,2,-9.34,1.72,1.73,-0.15,-1.21,0.95
10.52331101894379,2,3,3,2,-9.210000000000001,1.7,1.63,-0.6899999999999999,-1.09,1.05
10.53331100940704,2,3,3,2,-8.98,1.75,1.65,-0.6899999999999999,-0.71,1.07
10.5433109998703,2,3,3,2,-8.91,1.77,1.73,-0.65,-0.25,1.03
10.55331099033356,2,3,3,2,-8.949999999999999,1.75,1.8,-0.44,0.28,0.95
10.56331098079681,2,3,3,2,-9.07,1.76,1.83,-0.24,0.61,0.84
10.57331097126007,2,3,3,2,-9.33,1.78,1.66,-0.06,0.82,0.67
10.58331096172333,2,3,3,2,-9.48,1.76,1.74,-0.01,0.9399999999999999,0.43
10.59331095218658,2,3,3,2,-9.58,1.73,1.83,-0.04,0.89,0.27
10.60331094264984,2,3,3,2,-9.65,1.7,1.86,-0.04,0.63,0.24
10.6133109331131,2,3,3,2,-9.85,1.72,1.94,-0.15,0.35,0.27
10.62331092357635,2,3,3,2,-9.9,1.75,1.79,-0.05,-0.08,0.35
10.63331091403961,2,3,3,2,-9.869999999999999,1.76,1.66,0.14,-0.43,0.44
10.64331090450287,2,3,3,2,-9.779999999999999,1.77,1.62,0.11,-0.47,0.53
10.65331089496613,2,3,3,2,-9.57,1.73,1.68,-0.1,-0.41,0.65
10.66331088542938,2,3,3,2,-9.460000000000001,1.73,1.7,-0.26,-0.29,0.75
10.67331087589264,2,3,3,2,-9.380000000000001,1.71,1.64,-0.23,-0.06,0.9
10.68331110477448,2,3,3,2,-9.35,1.74,1.74,-0.08,0.12,1.01
10.69331109523773,2,3,3,2,-9.359999999999999,1.69,1.73,0.09,0.22,1.04
10.70331108570099,2,3,3,2,-9.4,1.67,1.64,0.43,0.34,1
10.71331107616425,2,3,3,2,-9.52,1.64,1.63,0.62,0.54,0.87
10.7233110666275,2,3,3,2,-9.619999999999999,1.63,1.5,0.47,0.6,0.73
10.73331105709076,2,3,3,2,-9.720000000000001,1.73,1.64,0.23,0.51,0.62
10.74331104755402,2,3,3,2,-10,1.84,1.89,-0.13,0.08,0.66
10.75331103801727,2,3,3,2,-10,1.84,1.89,-0.43,-1.28,0.93
10.76331102848053,2,3,3,2,-10.05,1.92,1.97,0.39,-2.73,1.32
10.77331101894379,2,3,3,2,-9.59,2.06,1.15,1.58,-2.21,1.34
10.78331100940704,2,3,3,2,-10.12,2.24,1.5,1.57,-0.93,0.9399999999999999
10.7933109998703,2,3,3,2,-10.34,2.31,1.7,0.7,-1.17,0.53
10.80331099033356,2,3,3,3,-10.34,2.31,1.7,0.41,-2.05,0.21
10.81331098079681,2,3,3,3,-10.16,2.45,1.5,0.09,-2.44,-0.12
10.82331097126007,2,3,3,3,-9.91,2.54,1.7,-0.5600000000000001,-2.95,-0.35
10.83331096172333,2,3,3,3,-9.51,2.51,1.78,-0.79,-3.79,-0.47
10.84331095218658,2,3,3,3,-8.94,2.49,1.93,-0.37,-3.99,-0.72
10.85331094264984,2,3,3,3,-8.94,2.49,1.93,-0.37,-3.99,-0.72
10.8633109331131,2,3,3,3,-8.99,2.49,2.18,-0.16,-3.56,-1.15
10.87331092357635,2,3,3,3,-9.27,2.69,2.36,-0.21,-3.85,-2.11
10.88331091403961,2,3,3,3,-9.630000000000001,2.87,2.31,-0.22,-4.29,-2.48
10.91331088542938,2,3,3,3,-9.56,2.68,2.13,-1.33,-4.71,-2.74
10.94331109523773,2,3,3,3,-8.91,0.76,3.4,-6.75,-3.34,-2.92
10.9733110666275,2,3,3,3,-9.33,-0.52,4.5,-4.88,-4.27,-3.81
10.98331105709076,2,3,3,3,-9.69,-0.75,4.58,-2.43,-5.31,-4.33
10.99331104755402,2,3,3,3,-10.1,-0.84,4.44,0.48,-5.97,-4.64
11.00331103801727,2,3,3,3,-10.37,-1,3.43,0.48,-5.97,-4.64
11.01331102848053,2,3,3,3,-10.44,-0.96,3.17,2.86,-5.58,-4.58
11.02331101894379,2,3,3,3,-10.59,-0.8,3.08,4.21,-3.19,-2.65
11.03331100940704,2,3,3,3,-10.57,-0.57,2.9,4.51,-2.72,-1.23
11.0433109998703,2,3,3,3,-10.01,0.16,2.92,4.58,-2.79,0.07000000000000001
11.05331099033356,2,3,3,3,-9.710000000000001,0.51,3.03,4.58,-2.79,0.07000000000000001
11.06331098079681,2,3,3,3,-9.34,0.87,3.09,4.57,-3,0.68
11.07331097126007,2,3,3,3,-8.92,1.08,3.19,4.05,-4.13,0.39
11.08331096172333,2,3,3,3,-8.029999999999999,1.26,3.26,3.41,-4.32,-0.28
11.09331095218658,2,3,3,3,-7.77,1.29,3.42,2.38,-4.29,-1.13
11.10331094264984,2,3,3,3,-7.57,1.22,3.49,2.38,-4.29,-1.13
11.1133109331131,2,3,3,3,-7.54,0.82,3.68,1.6,-4,-2
11.12331092357635,2,3,3,3,-7.67,0.6,3.7,0.98,-3.48,-3.66
11.13331091403961,2,3,3,3,-7.79,0.4,3.57,1.21,-3.41,-4.11
11.14331090450287,2,3,3,3,-7.87,0.17,3.54,1.45,-3.32,-4.2
11.15331089496613,2,3,3,3,-8.199999999999999,-0.29,3.46,1.45,-3.32,-4.2
11.16331088542938,2,3,3,3,-8.390000000000001,-0.51,3.5,1.63,-3,-4.09
11.17331087589264,2,3,3,3,-8.59,-0.59,3.62,2.19,-2.68,-3.55
11.18431103229523,2,3,3,3,-8.74,-0.72,3.62,2.79,-2.65,-3.12
11.19431102275848,2,3,3,3,-8.85,-0.76,3.67,3.62,-2.43,-2.69
11.20431101322174,2,3,3,3,-8.93,-0.78,3.76,3.62,-2.43,-2.69
11.214311003685,2,3,3,3,-9.07,-0.64,3.86,4.21,-2.21,-2.32
11.22431099414825,2,3,3,3,-8.94,-0.75,3.55,4.89,-1.89,-1.74
11.23431098461151,2,3,3,3,-8.119999999999999,-0.84,3.07,5.5,-0.26,-1.37
11.24431097507477,2,3,3,3,-8.24,-0.68,3.4,5.46,0.84,-1.17
11.25431096553802,2,3,3,3,-8.289999999999999,-0.57,3.6,5.46,0.84,-1.17
11.26431095600128,2,3,3,3,-8.199999999999999,-0.38,3.74,5.3,0.96,-1.02
11.27431094646454,2,3,3,3,-8.24,0,3.85,5.69,0.65,-1.06
11.2843109369278,2,3,3,3,-8.369999999999999,0.18,3.77,5.77,0.58,-1.2
11.29431092739105,2,3,3,3,-8.529999999999999,0.23,3.7,5.72,0.72,-1.36
11.30431091785431,2,3,3,3,-8.92,0.25,3.63,5.72,0.72,-1.36
11.31431090831757,2,3,3,3,-9.07,0.2,3.59,5.5,0.98,-1.47
11.32431089878082,2,3,3,3,-9.210000000000001,0.12,3.68,4.59,1.4,-1.41
11.33431088924408,2,3,3,3,-9.33,0.11,3.78,4.43,1.2,-1.22
11.34431087970734,2,3,3,3,-9.17,0.12,3.92,4.52,1.07,-1
11.35431087017059,2,3,3,3,-9.039999999999999,0.19,3.94,4.52,1.07,-1
11.36431109905243,2,3,3,3,-8.890000000000001,0.2,3.91,4.65,1.01,-0.76
11.37431108951569,2,3,3,3,-8.73,0.21,3.92,4.96,1.23,-0.43
11.38431107997894,2,3,3,3,-8.73,0.07000000000000001,4.04,4.71,1.37,-0.36
11.3943110704422,2,3,3,3,-8.710000000000001,-0.04,4.23,4.47,1.4,-0.52
11.40431106090546,2,3,3,3,-8.74,-0.18,4.42,4.47,1.4,-0.52
11.41431105136871,2,3,3,3,-8.84,-0.31,4.63,4.32,1.38,-0.9399999999999999
11.42431104183197,2,3,3,3,-9.09,-0.57,4.76,4.31,1.22,-1.53
11.43431103229523,2,3,3,3,-9.4,-0.68,4.99,4.59,1.06,-2.15
11.44431102275848,2,3,3,3,-9.91,-0.57,5.19,4.8,0.6899999999999999,-2.79
11.45431101322174,2,3,3,3,-10.51,-0.37,5.28,5.52,-0.6,-3.3
11.464311003685,2,3,3,3,-11.98,0.04,5.13,6.78,-2.11,-3.64
11.47431099414825,2,3,3,3,-12.73,0.4,5.17,8.109999999999999,-3.17,-3.75
11.48431098461151,2,3,3,3,-13.5,0.6899999999999999,5.03,8.57,-3.42,-3.67
11.49431097507477,2,3,3,3,-13.29,2.87,4.42,8.32,-2.58,-2.65
11.50431096553802,2,3,3,3,-12.49,3.27,3.75,8.4,-1.06,-0.5
11.51431095600128,2,3,3,3,-12.01,3.07,3.74,6.27,-2.78,-0.28
11.52431094646454,2,3,3,3,-10.99,2.91,3.59,4.87,-4.81,0.88
11.5343109369278,2,3,3,3,-9.640000000000001,1.65,4.87,2.82,-3.33,1.91
11.54431092739105,2,3,3,3,-8.83,0.86,5.91,-1.04,-1.82,1.95
11.57431089878082,2,3,3,3,-7.04,-0.47,5.64,-3.92,-3.11,-2.79
11.58431088924408,2,3,3,3,-7.98,-0.36,5.68,-1.39,-1.59,-4.2
11.59431087970734,2,3,3,3,-8.56,0.07000000000000001,4.6,1.27,0.19,-4.59
11.60431087017059,2,3,3,3,-9.039999999999999,0.49,3.24,3.56,1.83,-3.48
11.61431109905243,2,3,3,3,-10.67,1.38,2.12,4.14,4.32,-1.41
11.62431108951569,2,3,3,3,-10.89,2.12,1.67,3.14,5.62,0.98
11.63431107997894,2,3,3,3,-10.9,2.7,1.22,2.43,5.61,2.97
11.6443110704422,2,3,3,3,-10.73,3.23,1.41,0.79,5,4.33
11.65431106090546,2,3,3,3,-9.75,3.76,2.06,-1.18,3.84,4.9
11.66431105136871,2,3,3,3,-9.01,3.66,2.07,-2.64,2.31,4.72
11.67431104183197,2,3,3,3,-8.35,3.48,2.12,-3.05,1.33,3.9
11.68431103229523,2,3,3,3,-7.93,3.24,1.91,-3.07,1.27,2.65
11.69431102275848,2,3,3,3,-7.94,2.76,1.89,-2.86,1.82,1.45
11.70431101322174,2,3,3,3,-8.34,2.61,1.89,-2.59,2.89,0.66
11.714311003685,2,3,3,2,-8.56,2.37,1.23,-2.59,3.65,0.36
11.72431099414825,2,3,3,2,-8.94,2.1,0.71,-2.17,4.07,0.27
11.73431098461151,2,3,3,2,-9.26,2.12,0.64,-1.77,4.96,0.41
11.74431097507477,2,3,3,2,-9.220000000000001,2.12,0.6,-1.37,4.98,0.45
11.75431096553802,2,3,3,2,-9.18,2.18,0.8,-1.02,4.32,0.48
11.76431095600128,2,3,3,2,-9.19,2.42,0.91,-0.9,3.62,0.57
11.77431094646454,2,3,3,2,-9.1,2.49,1.14,-0.55,2.92,0.74
11.7843109369278,2,3,3,2,-9.07,2.62,1.36,-0.29,2.5,0.93
11.79431092739105,2,3,3,2,-8.94,2.72,1.44,-0.29,2.27,1.16
11.80431091785431,2,3,3,2,-8.58,2.99,1.38,-0.38,2.34,1.57
11.81431090831757,2,3,3,2,-8.390000000000001,2.94,1.44,-0.78,2.76,2.12
11.82431089878082,2,3,3,2,-8.16,2.94,1.45,-1.53,3.59,2.71
11.83431088924408,2,3,3,2,-7.98,3.02,1.31,-2.25,4.35,3.06
11.84431087970734,2,3,3,2,-8.199999999999999,2.9,1.19,-3.06,4.67,3.15
11.85431087017059,2,3,3,2,-8.27,2.73,1.16,-3.83,4.93,2.98
11.86431109905243,2,3,3,2,-8.48,2.59,1.09,-4.67,5.43,2.59
11.87431108951569,2,3,3,2,-8.710000000000001,2.43,1.1,-5.63,5.89,2.34
11.88431107997894,2,3,3,2,-9.140000000000001,2.13,0.89,-6.19,5.97,1.9
11.8943110704422,2,3,3,2,-9.24,2.13,0.78,-6.26,5.49,1.53
11.90431106090546,2,3,3,2,-9.58,1.96,0.75,-5.87,5.13,1.07
11.91431105136871,2,3,3,2,-9.41,1.53,0.87,-6.2,4.11,0.46
11.92431104183197,2,3,3,2,-9.359999999999999,1.5,0.96,-6.2,4.11,0.46
11.93431103229523,2,3,3,2,-9.42,1.56,1.02,-6.23,4.12,0.85
11.94431102275848,2,3,3,2,-9.369999999999999,1.52,1.29,-6.34,3.62,1.26
11.95431101322174,2,3,3,2,-9.51,1.98,1.49,-6.35,2.58,1.65
11.964311003685,2,3,3,2,-9.52,1.76,1.45,-5,2.16,2.1
11.97431099414825,2,3,3,2,-9.449999999999999,1.68,1.44,-5,2.16,2.1
11.98431098461151,2,3,3,2,-9.44,1.66,1.15,-4.71,2.33,2.26
11.99431097507477,2,3,3,2,-9.48,1.23,1.5,-5.47,2.67,2.54
12.00431096553802,2,3,3,2,-9.48,1.24,1.6,-5.57,2.32,2.63
12.01431095600128,2,3,3,2,-9.42,1.3,1.78,-5.51,2.05,2.7
12.02431094646454,2,3,3,2,-9.390000000000001,1.3,1.87,-5.41,1.87,2.68
12.0343109369278,2,3,3,2,-9.43,1.4,1.94,-5.18,1.63,2.6
12.04431092739105,2,3,3,2,-9.56,1.48,2.06,-4.94,1.31,2.46
12.05431091785431,2,3,3,2,-9.710000000000001,1.46,2,-4.68,1.11,2.28
12.06431090831757,2,3,3,2,-9.720000000000001,1.36,1.84,-4.53,1.01,2.07
12.07431089878082,2,3,3,2,-9.82,1.22,1.62,-4.91,0.96,1.88
12.08431088924408,2,3,3,2,-9.869999999999999,1.01,1.67,-6.13,0.42,1.75
12.09431087970734,2,3,3,2,-9.68,0.74,1.67,-7.01,-0.49,1.72
12.10431087017059,2,3,3,2,-9.33,0.41,1.92,-7.84,-1.05,1.69
12.11431109905243,2,3,3,2,-9.220000000000001,0.28,2.05,-8.4,-1.48,1.49
12.12431108951569,2,3,3,2,-9.119999999999999,0.1,1.99,-8.51,-1.92,1.12
12.13431107997894,2,3,3,2,-9.1,-0.03,1.92,-8.41,-2.31,0.7
12.1443110704422,2,3,3,2,-9.15,-0.18,2.18,-8.34,-2.45,0.41
12.15431106090546,2,3,3,2,-9.23,-0.14,2.26,-8.08,-2.58,0.33
12.16431105136871,2,3,3,2,-9.27,-0.16,2.16,-7.41,-2.49,0.49
12.17431104183197,2,3,3,2,-9.300000000000001,-0.1,1.97,-6.62,-1.86,0.98
12.18431103229523,2,3,3,2,-9.49,-0.24,1.69,-5.94,-0.79,1.65
12.19431102275848,2,3,3,2,-9.68,-0.26,1.75,-5.17,0.17,2.37
12.20431101322174,2,3,3,2,-9.859999999999999,-0.48,1.66,-4.36,0.9399999999999999,3.02
12.21531093120575,2,3,3,2,-10,-0.58,1.72,-3.78,1.59,3.55
12.22531092166901,2,3,3,2,-10.45,-0.67,1.71,-3.87,1.97,3.84
12.23531091213226,2,3,3,2,-10.65,-0.5600000000000001,1.75,-4.49,1.86,4
12.24531090259552,2,3,3,2,-10.75,-0.42,2.03,-5.45,1.39,4.17
12.25531089305878,2,3,3,2,-10.82,-0.22,2.4,-6.15,0.9,4.21
12.26531088352203,2,3,3,2,-10.6,0.13,3.19,-6.14,0.72,4.11
12.27531087398529,2,3,3,2,-10.65,0.33,3.51,-5.66,1.03,3.81
12.28531110286713,2,3,3,2,-10.79,0.47,3.44,-4.49,1.64,3.27
12.29531109333038,2,3,3,2,-11.04,0.5,2.82,-2.78,2.52,2.71
12.30531108379364,2,3,3,2,-11.19,0.33,2.66,-1.58,4.05,2.18
12.3153110742569,2,3,3,2,-11.76,0.12,2.62,-0.95,5.38,1.73
12.32531106472015,2,3,3,2,-11.97,0,2.4,-0.51,5.6,1.19
12.33531105518341,2,3,3,2,-11.97,-0.52,2.18,-0.36,5.87,0.74
12.34531104564667,2,3,3,2,-11.95,-0.38,2.05,0.23,5.92,0.45
12.35531103610992,2,3,3,2,-11.89,0.05,1.78,1.73,5.74,0.24
12.36531102657318,2,3,3,2,-11.91,0.8,1.7,3.29,5.79,0.1
12.37531101703644,2,3,3,2,-12.24,2.85,1.61,4.8,5.93,0.03
12.38531100749969,2,3,3,2,-12.05,3.85,0.85,7,5.57,-0.18
12.39531099796295,2,3,3,2,-11.57,5.07,0.5600000000000001,8.279999999999999,5.22,-1.26
12.40531098842621,2,3,3,2,-10.72,5.38,0.29,7.6,4.43,-2.56
12.41531097888947,2,3,3,2,-8.31,6.51,-0.58,7.62,3.73,-2.77
12.42531096935272,2,3,3,2,-7.54,6.08,-0.91,6.2,3.82,-3.25
12.43531095981598,2,3,3,2,-7.8,7.01,-0.74,3.33,5.8,-3
12.44531095027924,2,3,3,2,-8.24,7.12,-0.66,-2.68,6.3,-4.06
12.45531094074249,2,3,3,2,-9.43,6.39,1.03,-9.07,4.81,-5.5
12.46531093120575,2,3,3,2,-9.32,5.45,1.91,-13.68,2.79,-7.47
12.47531092166901,2,3,3,2,-9.48,4.32,2.51,-15.76,1.41,-9.02
12.48531091213226,2,3,3,2,-9.529999999999999,3.2,2.63,-16.02,0.85,-10.15
12.49531090259552,2,3,3,2,-9.41,0.78,3.39,-15.51,-0.01,-10.79
12.50531089305878,2,3,3,2,-9.48,-0.18,3.64,-13.37,-1.45,-10.8
12.51531088352203,2,3,3,2,-9.69,-0.96,3.65,-9.390000000000001,-2.86,-10.3
12.52531087398529,2,3,3,2,-10.11,-1.74,2.81,-5.49,-4.22,-9.119999999999999
12.53531110286713,2,3,3,2,-10.22,-1.86,2.24,-2.38,-4.6,-7.8
12.54531109333038,2,3,3,2,-10.31,-1.78,1.97,-0.02,-4.58,-6.32
12.55531108379364,2,3,3,2,-10.57,-1.56,1.91,1.85,-4.92,-4.97
12.5653110742569,2,3,3,2,-10.23,-0.75,1.59,3.64,-6.16,-3.58
12.57531106472015,2,3,3,2,-9.800000000000001,-0.2,1.42,5.32,-7.21,-2.54
12.58531105518341,2,3,3,2,-9.65,0.19,1.57,6.01,-7.88,-2.07
12.59531104564667,2,3,3,2,-9.16,0.28,1.72,6.22,-8.92,-2.13
12.60531103610992,2,3,3,2,-7.76,0.6899999999999999,2,6.98,-9.699999999999999,-2.32
12.61531102657318,2,3,3,2,-7.31,0.86,2.25,7.8,-9.529999999999999,-2.63
12.62531101703644,2,3,3,2,-7.03,0.95,2.49,8.109999999999999,-8.85,-3.12
12.63531100749969,2,3,3,2,-7.04,1.09,2.54,8.16,-8.380000000000001,-3.61
12.64531099796295,2,3,3,2,-7.12,1.25,2.59,8.18,-8.109999999999999,-3.84
12.65531098842621,2,3,3,2,-7.09,1.36,2.6,8.199999999999999,-7.52,-3.9
12.66531097888947,2,3,3,2,-7.16,1.45,2.6,8.029999999999999,-6.57,-3.74
12.67531096935272,2,3,3,2,-7.39,1.41,2.62,7.62,-5.26,-3.53
12.68531095981598,2,3,3,2,-7.83,1.32,2.51,7.22,-4.22,-3.2
12.69531095027924,2,3,3,2,-8.09,1.3,2.49,6.77,-3.5,-2.66
12.70531094074249,2,3,3,2,-8.279999999999999,1.3,2.52,6.1,-2.68,-2
12.71531093120575,2,3,3,2,-8.369999999999999,1.58,2.82,5.46,-2.2,-1.09
12.72531092166901,2,3,3,2,-8.42,1.55,2.75,5.05,-1.77,-0.54
12.73531091213226,2,3,3,2,-8.27,1.53,2.7,4.74,-1.81,-0.21
12.74531090259552,2,3,3,2,-8.08,1.34,2.82,4.39,-1.3,0.02
12.75531089305878,2,3,3,2,-7.98,0.96,3.04,3.69,-0.43,0.18
12.76531088352203,2,3,3,2,-7.83,0.57,3,2.74,0.08,0.26
12.77531087398529,2,3,3,2,-7.74,0.4,2.97,1.94,0.52,0.4
12.78531110286713,2,3,3,2,-7.83,0.04,2.87,0.88,0.76,0.18
12.80531108379364,2,3,3,2,-7.54,-0.85,2.68,0.7,2.18,0.03
12.8153110742569,2,3,3,2,-7.72,-1.06,2.83,0.58,3.11,-0.02
12.82531106472015,2,3,3,2,-7.87,-1.35,2.89,0.33,3.38,-0.05
12.83531105518341,2,3,3,2,-8.220000000000001,-1.75,2.96,0.58,3.46,0.06
12.84531104564667,2,3,3,2,-8.539999999999999,-1.95,3.12,1.33,3.53,0.18
12.85531103610992,2,3,3,2,-8.92,-1.96,3.36,2.58,3.4,0.3
12.86531102657318,2,3,3,1,-9.31,-1.79,3.72,4.22,2.89,0.39
12.87531101703644,2,3,3,1,-9.84,-1.07,3.93,6.04,1.64,0.44
12.88531100749969,2,3,3,1,-9.67,-0.71,3.33,8.4,0.08,0.45
12.89531099796295,2,3,3,1,-9.640000000000001,-0.15,2.89,11.11,-0.28,0.43
12.90531098842621,2,3,3,1,-9.83,0.99,2.35,12.81,0.04,0.49
12.91531097888947,2,3,3,1,-9.81,1.32,1.98,13.13,0.25,0.92
12.92531096935272,2,3,3,1,-9.779999999999999,1.28,1.55,12.53,0.65,1.54
12.93531095981598,2,3,3,1,-9.970000000000001,0.99,1.62,10.37,2.19,1.71
12.94531095027924,2,3,3,1,-11.35,-0.08,3.52,5.91,3.23,1.01
12.95531094074249,2,3,3,1,-11.76,-0.75,4.2,1.1,2.3,-0.64
12.96531093120575,2,3,3,1,-11.76,-1.58,4.44,-2.07,0.28,-3
12.97531092166901,2,3,3,1,-11.66,-2.4,5.08,-2.89,-1.71,-5.55
12.98531091213226,2,3,3,1,-11.66,-2.95,6.07,-1.64,-4.22,-7.89
12.99531090259552,2,3,3,1,-12.12,-2.56,6.33,3.24,-6.76,-9.52
13.00531089305878,2,3,3,1,-12.89,-2.18,5.72,10.23,-8.98,-10.01
13.01531088352203,2,3,3,1,-12.89,-2.18,5.72,15.28,-9,-9.92
13.02531087398529,2,3,3,1,-17.28,1,4.38,16.88,-7.21,-8.609999999999999
13.03531110286713,2,3,3,1,-17.9,3.16,2.42,16.5,-5.05,-5.2
13.04531109333038,2,3,3,1,-18.31,4.69,0.73,14.01,-2.61,-0.6
13.07531106472015,2,3,3,0,-10.36,4.59,3.77,-1.84,-3.45,6.64
13.08531105518341,2,3,3,0,-5.11,4.07,5.03,-7.38,-10.51,5.89
13.09531104564667,2,3,3,0,-3.71,3.44,5.18,-6.13,-8.34,3.26
13.10531103610992,2,3,3,0,-4.76,1.52,4.84,-3.58,-3.82,0.1
13.11531102657318,2,3,3,0,-4.76,1.52,4.84,-3.58,-3.82,0.1
13.12531101703644,2,3,3,0,-6.27,0.75,3.86,2.79,3.32,-3.17
13.13531100749969,2,3,3,0,-9.41,0.48,-0.16,4.68,6.15,-2.5
13.14531099796295,2,3,3,0,-9.98,1.02,-0.89,4.54,7.72,-0.59
13.15531098842621,2,3,3,0,-10.58,1.93,-1.05,4.05,7.52,2.17
13.16531097888947,2,3,3,0,-10.58,1.93,-1.05,4.05,7.52,2.17
13.17531096935272,2,3,3,0,-10.63,2.69,-0.79,3.79,5.38,4.33
13.18531095981598,2,3,3,0,-9.08,3.67,1.15,3.25,-0.55,5.15
13.19531095027924,2,3,3,0,-8.56,3.65,1.42,2.8,-1.47,4.05
13.20531094074249,2,3,3,0,-8.56,3.65,1.42,2.42,-1.29,3.31
13.21531093120575,2,3,3,0,-7.92,3.57,1.43,2.42,-1.29,3.31
13.22531092166901,2,3,3,0,-6.97,3.36,1.42,2.51,-0.72,3.16
13.23631107807159,2,3,3,0,-6.8,3.22,1.42,3.02,1.16,3.39
13.24631106853485,2,3,3,0,-6.65,3.17,1.35,2.58,2.26,3.28
13.25631105899811,2,3,3,0,-6.63,3.12,1.4,1.84,3.37,3.16
13.26631104946136,2,3,3,0,-6.57,3.43,1.14,1.84,3.37,3.16
13.27631103992462,2,3,3,0,-6.69,3.68,1.06,0.76,4.08,2.91
13.28631103038788,2,3,3,0,-7.24,3.66,1.09,-2.35,5.35,2.48
13.29631102085114,2,3,3,0,-7.7,3.68,1.06,-3.9,5.49,2.21
13.30631101131439,2,3,3,0,-8.56,3.34,0.93,-5.25,5.55,1.91
13.31631100177765,2,3,3,0,-8.76,3.14,0.96,-5.25,5.55,1.91
13.32631099224091,2,3,3,0,-8.77,3.01,0.91,-6.09,5.93,1.97
13.33631098270416,2,3,3,0,-8.91,2.66,0.78,-6.54,7.07,2.95
13.34631097316742,2,3,3,0,-9.109999999999999,2.66,0.66,-6.26,7.43,3.51
13.35631096363068,2,3,3,0,-9.359999999999999,2.55,0.59,-6.07,7.12,3.72
13.36631095409393,2,3,3,0,-9.6,2.51,0.5600000000000001,-6.07,7.12,3.72
13.37631094455719,2,3,3,0,-10.04,2.29,0.82,-6.42,6.53,3.59
13.38631093502045,2,3,3,0,-10.18,2.2,1.04,-7.39,4.69,2.61
13.3963109254837,2,3,3,0,-10.18,1.96,1,-7.41,3.85,2.51
13.40631091594696,2,3,3,0,-10.1,1.93,0.99,-7.87,3.49,2.25
13.41631090641022,2,3,3,0,-9.9,1.25,1.1,-7.87,3.49,2.25
13.42631089687347,2,3,3,0,-9.640000000000001,0.84,1.29,-8.119999999999999,2.94,2.05
13.43631088733673,2,3,3,0,-9.58,0.51,1.5,-7.82,2.91,1.99
13.44631087779999,2,3,3,0,-9.56,0.39,1.64,-7.52,3.29,2.01
13.45631086826324,2,3,3,0,-9.720000000000001,0.15,2.18,-6.65,3.63,2.35
13.46631109714508,2,3,3,0,-9.539999999999999,0.42,2.32,-6.65,3.63,2.35
13.47631108760834,2,3,3,0,-9.449999999999999,0.58,2.34,-5.76,3.21,2.74
13.48631107807159,2,3,3,0,-9.41,0.85,2.32,-4.04,3.51,3.58
13.49631106853485,2,3,3,0,-9.550000000000001,1.17,1.95,-3.36,3.56,4.07
13.50631105899811,2,3,3,0,-9.529999999999999,1.33,1.93,-3.14,3.34,4.41
13.52631103992462,2,3,3,0,-10.18,1.42,1.66,-3.21,3.13,4.5
13.53631103038788,2,3,3,0,-10.27,1.3,1.6,-4.46,1.56,4.33
13.54631102085114,2,3,3,0,-10.31,1.17,1.35,-5.22,0.8100000000000001,4.11
13.55631101131439,2,3,3,0,-10.35,0.96,1.38,-6.27,-0.02,3.96
13.56631100177765,2,3,3,0,-10.04,0.52,1.52,-6.27,-0.02,3.96
13.57631099224091,2,3,3,0,-9.82,0.33,1.65,-7.09,-0.83,3.74
13.58631098270416,2,3,3,0,-9.539999999999999,0.18,1.67,-8.07,-2.04,2.91
13.59631097316742,2,3,3,0,-9.18,0.06,1.55,-8.26,-2.17,2.43
13.60631096363068,2,3,3,0,-8.83,-0.19,1.8,-8.69,-1.99,2.01
13.61631095409393,2,3,3,0,-8.75,-0.27,2.18,-8.69,-1.99,2.01
13.62631094455719,2,3,3,0,-8.710000000000001,-0.27,2.31,-9.06,-1.95,1.71
13.63631093502045,2,3,3,0,-8.75,-0.21,2.16,-7.84,-1.5,1.49
13.6463109254837,2,3,3,0,-8.91,-0.36,1.32,-6.87,-0.66,1.64
13.65631091594696,2,3,3,0,-9.16,-0.41,1.46,-6.87,-0.66,1.64
13.66631090641022,2,3,3,0,-9.449999999999999,-0.64,1.72,-5.86,0.61,1.85
13.67631089687347,2,3,3,0,-9.74,-0.8,1.78,-4.29,1.51,1.98
13.68631088733673,2,3,3,0,-10.37,-1.19,1.16,-2.53,2.09,1.93
13.69631087779999,2,3,3,0,-10.8,-1.19,1.25,-2.02,2.25,1.92
13.70631086826324,2,3,3,0,-11.11,-0.96,1.62,-3.13,1.8,2.12
13.71631109714508,2,3,3,0,-10.87,0.07000000000000001,2.85,-4.51,0.6899999999999999,2.64
13.72631108760834,2,3,3,0,-10.55,0.61,3.22,-5.79,-0.26,3.22
13.73631107807159,2,3,3,0,-10.31,1.08,3.42,-6.27,-0.6899999999999999,3.54
13.74631106853485,2,3,3,0,-10.25,1.22,3.4,-5.96,-0.24,3.29
13.75631105899811,2,3,3,0,-9.85,0.61,2.54,-5.15,0.88,2.38
13.76631104946136,2,3,3,0,-9.699999999999999,0.22,2.31,-3.06,2.58,0.9399999999999999
13.77631103992462,2,3,3,1,-9.949999999999999,0.04,2.4,-0.76,5.37,-0.38
13.78631103038788,2,3,3,1,-10.59,0.19,2.56,1.1,8.029999999999999,-1.35
13.79631102085114,2,3,3,1,-11.83,0.86,0.97,2.58,9.27,-1.71
13.80631101131439,2,3,3,1,-12.4,1.61,0.12,4.25,9.99,-1.56
13.81631100177765,2,3,3,1,-12.98,2.64,-0.23,5.76,10.33,-1.26
13.82631099224091,2,3,3,1,-13.15,3.32,-0.42,6.59,8.74,-0.8
13.83631098270416,2,3,3,1,-11.85,5.41,0.06,7.51,6.29,-0.9
13.84631097316742,2,3,3,1,-11.22,7.11,-0.1,7.2,4.66,-0.9
13.85631096363068,2,3,3,1,-10.16,7.3,-0.52,5.92,3.34,-2.32
13.86631095409393,2,3,3,1,-8.83,7.35,-0.51,3.44,1.67,-2.63
13.87631094455719,2,3,3,1,-8.76,8.52,-0.31,0.83,3.39,-3.02
13.88631093502045,2,3,3,1,-8.57,7.73,0.37,-4.15,3.23,-5.29
13.8963109254837,2,3,3,1,-8.34,7.37,1.24,-9.449999999999999,0.51,-7.32
13.90631091594696,2,3,3,1,-8.76,6.67,1.88,-13.45,1.94,-8.65
13.91631090641022,2,3,3,1,-9.65,4.4,2.7,-16.04,2.93,-9.789999999999999
13.92631089687347,2,3,3,1,-9.98,2.95,2.74,-17.27,3.19,-10.53
13.93631088733673,2,3,3,1,-10.37,1.32,2.7,-17,3.32,-11.07
13.94631087779999,2,3,3,1,-11.64,-1.63,3.1,-15.78,3.1,-11.59
13.95631086826324,2,3,3,1,-11.79,-2.45,3.64,-13.34,0.98,-11.69
13.96631109714508,2,3,3,1,-11.54,-2.87,3.33,-9.49,-3.09,-10.88
13.97631108760834,2,3,3,2,-11.23,-2.76,2.64,-4.18,-6.24,-9.25
13.98631107807159,2,3,3,2,-11.28,-1.23,2.3,1.14,-6.67,-7.43
13.99631106853485,2,3,3,2,-11.53,-0.53,2.28,3.45,-6.27,-5.85
14.00631105899811,2,3,3,2,-11.02,0.07000000000000001,1.93,4.21,-7.89,-4.5
14.01631104946136,2,3,3,2,-10.15,0.5600000000000001,1.3,6.3,-11.3,-3.38
14.02631103992462,2,3,3,2,-9.15,1.69,1.13,8.890000000000001,-12.95,-2.39
14.03631103038788,2,3,3,2,-8.369999999999999,1.75,1.01,9.5,-12.75,-1.8
14.04631102085114,2,3,3,2,-7.87,1.65,0.98,8.9,-12.47,-1.54
14.05631101131439,2,3,3,2,-7.67,1.54,1.35,8.140000000000001,-10.66,-1.75
14.06631100177765,2,3,3,2,-7.04,1.41,2.18,6.41,-9.710000000000001,-1.98
14.07631099224091,2,3,3,2,-7.03,1.34,2.65,5.15,-9.34,-2.36
14.08631098270416,2,3,3,2,-7.03,1.43,2.85,4.21,-8.630000000000001,-2.77
14.09631097316742,2,3,3,2,-6.96,1.54,2.65,3.94,-8.48,-3.17
14.10631096363068,2,3,3,2,-6.56,1.36,2.18,4.22,-8.35,-3.49
14.11631095409393,2,3,3,2,-6.8,1.3,2.21,4.56,-7.34,-3.68
14.12631094455719,2,3,3,2,-7.22,0.91,2.32,3.92,-5.74,-3.57
14.13631093502045,2,3,3,2,-7.5,0.63,2.36,2.76,-4.31,-3.13
14.1463109254837,2,3,3,2,-7.83,0.41,2.52,1.96,-3.28,-2.44
14.15631091594696,2,3,3,2,-7.95,0.41,2.76,0.9399999999999999,-2.31,-1.5
14.16631090641022,2,3,3,2,-7.99,0.38,2.93,0.44,-1.78,-0.66
14.17631089687347,2,3,3,2,-7.92,-0.07000000000000001,3,0.46,-1.77,-0.13
14.18631088733673,2,3,3,2,-7.85,-0.31,3,1.1,-1.53,0.21
14.19631087779999,2,3,3,2,-7.93,-0.67,2.98,1.84,-1.28,0.5
14.20631086826324,2,3,3,2,-7.9,-0.82,3.24,2.1,-0.75,0.7
14.21631109714508,2,3,3,2,-7.3,-1.08,2.91,2.11,-0.27,0.89
14.22631108760834,2,3,3,2,-7.01,-1.26,2.89,2.25,-0.37,1.03
14.23631107807159,2,3,3,2,-7.04,-1.37,2.95,2.52,0.19,1.31
14.24631106853485,2,3,3,2,-7.09,-1.52,2.78,2.89,1.03,1.49
14.25731098651886,2,3,3,2,-7.36,-1.95,2.86,3.47,1.41,1.27
14.26731097698212,2,3,3,2,-7.73,-1.97,3.04,3.89,1.81,0.75
14.27731096744537,2,3,3,2,-8.109999999999999,-2,3.39,4.23,2.23,0.27
14.30731093883514,2,3,3,2,-9.76,-0.9,4.39,6.47,-1,-1.05
14.3173109292984,2,3,3,2,-9.75,-0.26,3.95,8.880000000000001,-2.67,-1.6
14.32731091976166,2,3,3,2,-10.55,1.14,4,13.45,-2.72,-2.25
14.33731091022491,2,3,3,2,-10.82,1.74,3.7,13.45,-2.72,-2.25
14.34731090068817,2,3,3,2,-10.86,1.9,2.96,13.92,-1.85,-1.5
14.35731089115143,2,3,3,2,-11.11,1.43,2.76,12.11,0.03,-1.33
14.36731088161469,2,3,3,2,-11.97,-0.54,4.16,8.07,1.62,-1.51
14.37731087207794,2,3,3,2,-12.17,-1.59,4.98,3.08,1.45,-2.3
14.38731110095978,2,3,3,2,-11.66,-2.61,5.45,0.39,-0.09,-3.77
14.39731109142303,2,3,3,2,-11.11,-2.93,5.88,1.09,-1.88,-5.78
14.40731108188629,2,3,3,2,-11.18,-2.32,5.85,5.45,-4.84,-7.45
14.41731107234955,2,3,3,2,-11.46,-1.49,5.51,10.66,-7.42,-8.140000000000001
14.42731106281281,2,3,3,2,-12.35,-0.74,5.35,12.05,-7.58,-8.6
14.43731105327606,2,3,3,2,-14.28,-0.71,5.61,11.56,-5.53,-8.119999999999999
14.44731104373932,2,3,3,2,-16.82,1.96,3.07,10.87,-2.97,-5.43
14.45731103420258,2,3,3,2,-17.27,2.64,1.87,7.51,-1.17,-1.49
14.46731102466583,2,3,3,2,-16.54,3,2.18,2.67,-2.67,1.94
14.47731101512909,2,3,3,2,-14.06,3.14,2.74,-0.01,-7.32,3.65
14.48731100559235,2,3,3,2,-8.279999999999999,3.86,5.04,-2.17,-9.390000000000001,4.07
14.4973109960556,2,3,3,2,-7.27,3.8,4.95,-3.59,-7.05,3.78
14.50731098651886,2,3,3,2,-7.22,3.38,4.99,-4.18,-3.52,2.51
14.51731097698212,2,3,3,2,-7.72,2.4,4.83,-3.98,-1.52,1.23
14.52731096744537,2,3,3,2,-8.68,1.33,3.18,-2.43,0.44,1.07
14.53731095790863,2,3,3,2,-8.779999999999999,1.08,1.99,-0.73,3.02,1.62
14.54731094837189,2,3,3,2,-8.66,0.88,0.8,0.89,5.1,2.29
14.55731093883514,2,3,3,2,-8.16,0.63,0.02,2.4,6.27,3.19
14.5673109292984,2,3,3,2,-7.92,0.95,0.15,3.41,5.85,4.12
14.57731091976166,2,3,3,2,-7.74,1.48,0.35,4.11,3.77,4.82
14.58731091022491,2,3,3,2,-7.42,1.85,0.27,4.87,1.54,5.1
14.59731090068817,2,3,3,2,-7.27,2.39,0.66,5.67,0.24,4.85
14.60731089115143,2,3,3,2,-7.44,2.53,0.9,6.15,-0.39,3.81
14.61731088161469,2,3,3,2,-7.54,2.64,1.12,6.13,-0.76,2.56
14.62731087207794,2,3,3,2,-7.51,2.83,1.42,5.86,-1.15,1.81
14.63731110095978,2,3,3,2,-7.42,2.63,1.55,5.35,-1.23,1.17
14.64731109142303,2,3,3,2,-7.35,2.53,1.63,5.15,-0.95,0.57
14.65731108188629,2,3,3,2,-7.14,2.59,1.74,5.05,-0.05,0.4
14.66731107234955,2,3,3,2,-7.15,2.68,1.77,5.01,1.59,0.42
14.67731106281281,2,3,3,2,-7.4,2.82,1.61,4.69,3.45,0.62
14.68731105327606,2,3,3,2,-7.83,2.86,1.54,3.7,5.35,1.05
14.69731104373932,2,3,3,2,-8.220000000000001,3.11,1.33,2.63,6.58,1.82
14.70731103420258,2,3,3,2,-8.449999999999999,3.17,1.22,1.27,7.38,2.55
14.71731102466583,2,3,3,2,-9.02,3.46,1.14,-0.41,7.68,3.1
14.72731101512909,2,3,3,2,-9.19,3.64,1.03,-2.15,7.56,3.37
14.73731100559235,2,3,3,2,-9.02,3.16,1.05,-3.7,7.52,3.97
14.7473109960556,2,3,3,2,-9.48,3.04,1.17,-4.7,7.42,4.65
14.75731098651886,2,3,3,2,-9.460000000000001,2.84,1.25,-5.32,6.65,4.69
14.76731097698212,2,3,3,2,-9.34,2.54,1.16,-5.9,5.89,4.19
14.77731096744537,2,3,3,2,-9.279999999999999,2.5,1.15,-6.79,5.64,3.21
14.78731095790863,2,3,3,2,-9.050000000000001,1.38,1.29,-7.71,5.29,2.33
14.79731094837189,2,3,3,2,-9.49,0.96,1.41,-8.109999999999999,5.19,1.75
14.80731093883514,2,3,3,2,-9.48,0.79,1.45,-8.199999999999999,4.31,1.27
14.8173109292984,2,3,3,2,-9.6,0.39,1.55,-8.44,3.53,0.74
14.82731091976166,2,3,3,2,-9.640000000000001,-0.24,1.98,-8.199999999999999,2.79,0.38
14.83731091022491,2,3,3,2,-9.640000000000001,-0.45,2.01,-7.43,2.17,0.22
14.84731090068817,2,3,3,2,-9.67,-0.5600000000000001,1.88,-6.14,2.05,0.27
14.85731089115143,2,3,3,2,-9.609999999999999,-0.57,1.94,-4.98,2.02,0.7
14.86731088161469,2,3,3,2,-9.59,-0.34,1.97,-3.97,2.19,1.4
14.87731087207794,2,3,3,2,-9.630000000000001,-0.29,2.01,-3.22,2.45,2.25
14.88731110095978,2,3,3,2,-9.77,-0.08,2.06,-2.56,2.56,3.12
14.89731109142303,2,3,3,2,-9.82,0.05,1.87,-2.01,2.34,3.92
14.90731108188629,2,3,3,2,-9.91,0.35,1.88,-1.7,2.03,4.62
14.91731107234955,2,3,3,2,-9.859999999999999,0.31,1.67,-1.78,1.61,5.17
14.92731106281281,2,3,3,2,-9.69,0.26,1.58,-1.9,1.1,5.5
14.93731105327606,2,3,3,2,-9.720000000000001,0.09,1.57,-2.51,0.75,5.6
14.94731104373932,2,3,3,2,-9.529999999999999,-0.05,1.72,-3.26,0.17,5.45
14.95731103420258,2,3,3,2,-9.470000000000001,-0.11,1.82,-4.13,-0.47,5.23
14.96731102466583,2,3,3,2,-9.380000000000001,-0.16,1.86,-4.81,-1.04,4.85
14.97731101512909,2,3,3,2,-9.220000000000001,-0.18,2.37,-5.64,-1.41,4.41
14.98731100559235,2,3,3,2,-9.119999999999999,-0.12,2.38,-6.24,-1.65,3.86
14.9973109960556,2,3,3,2,-9.08,0,2.24,-6.19,-1.81,3.24
15.00731098651886,2,3,3,2,-9.01,0.01,1.99,-6.07,-1.82,2.74
15.01731097698212,2,3,3,2,-8.859999999999999,0.06,1.24,-5.46,-1.38,2.59
15.02731096744537,2,3,3,2,-8.85,0.18,2.06,-5.02,-0.28,2.79
15.03731095790863,2,3,3,2,-8.93,0.08,2.59,-3.62,1.07,3.08
15.04731094837189,2,3,3,2,-8.98,-0.16,2.18,-0.55,2.2,2.98
15.05731093883514,2,3,3,2,-9.77,-0.6,1.01,1.16,3.24,2.43
15.0673109292984,2,3,3,2,-10.29,-0.6,1.49,-0.43,3.66,1.81
15.07731091976166,2,3,3,2,-10.66,-0.28,2.47,-3.83,3.02,1.69
15.08731091022491,2,3,3,2,-10.92,0.32,3.03,-6.09,1.45,1.99
15.09731090068817,2,3,3,2,-11.43,1.22,3.54,-6.37,-0.25,2.12
15.10731089115143,2,3,3,2,-11.31,1.47,4.1,-5.64,-0.85,1.78
15.11731088161469,2,3,3,2,-11.02,1.71,4.32,-3.75,0.52,0.9
15.12731087207794,2,3,3,2,-10.98,1.49,3.57,-0.95,4.01,-0.38
15.13731110095978,2,3,3,2,-11.41,0.82,2.29,1.26,8.44,-1.68
15.14731109142303,2,3,3,2,-12.76,0.66,2.21,1.49,12.68,-2.5
15.15731108188629,2,3,3,2,-13.48,0.99,1.69,2.26,13.77,-2.49
15.16731107234955,2,3,3,2,-14.08,2.36,-0.87,4.18,12.7,-1.07
15.17731106281281,2,3,3,2,-14.08,2.36,-0.87,4.31,11.09,0.13
15.18731105327606,2,3,3,2,-14.19,3.38,-0.46,2.97,7.77,0.88
15.19731104373932,2,3,3,2,-11.98,6.16,0.02,3.59,3.92,1.53
15.20731103420258,2,3,3,2,-8.41,8.48,-1.53,4.45,0.65,0.06
15.21731102466583,2,3,3,2,-6.94,7.15,-1.08,2.33,-1.93,-2.9
15.22731101512909,2,3,3,2,-6.94,7.15,-1.08,-0.78,1.48,-5.07
15.23731100559235,2,3,3,2,-6.42,7.53,-0.44,-5.15,5.47,-7.92
15.2473109960556,2,3,3,2,-10.24,7.23,1.7,-11.3,4.13,-10.81
15.25731098651886,2,3,3,2,-11.23,6.32,2.8,-16.07,1.96,-13.04
15.26731097698212,2,3,3,2,-11.31,4.92,3.24,-17.88,0.71,-14.39
15.27731096744537,2,3,3,2,-11.31,4.92,3.24,-17.38,0.08,-14.6
15.28831088542938,2,3,3,2,-11.08,3.15,3.08,-17.38,0.08,-14.6
15.29831087589264,2,3,3,2,-11.49,-1.98,2.92,-13.86,1.74,-13.11
15.30831110477448,2,3,3,2,-11.7,-3.08,3.13,-11.13,0.95,-11.14
15.31831109523773,2,3,3,2,-11.94,-3.91,3.18,-7.35,-1.18,-8.42
15.32831108570099,2,3,3,2,-11.94,-3.91,3.18,-7.35,-1.18,-8.42
15.33831107616425,2,3,3,2,-11.7,-3.39,2.34,-2.51,-3.79,-5.79
15.3483110666275,2,3,3,2,-10.55,-1.43,1.9,5.22,-7.26,-1.81
15.35831105709076,2,3,3,2,-8.779999999999999,-0.18,1.59,7.49,-10.33,-1.7
15.36831104755402,2,3,3,2,-7.91,0.34,1.18,10.55,-13.09,-1.38
15.37831103801727,2,3,3,3,-7.91,0.34,1.18,13.17,-13.17,-0.84
15.38831102848053,2,3,3,3,-7.63,1.01,1.15,13.17,-13.17,-0.84
15.39831101894379,2,3,3,3,-6.63,1.78,1.45,12.02,-11.71,-1.3
15.40831100940704,2,3,3,3,-6.25,1.85,1.66,10.89,-11.23,-1.7
15.4183109998703,2,3,3,3,-6.25,1.82,1.99,9.57,-10.4,-2.27
15.42831099033356,2,3,3,3,-6.25,1.82,1.99,9.57,-10.4,-2.27
15.43831098079681,2,3,3,3,-6.25,1.75,2.21,8.460000000000001,-9.76,-2.61
15.44831097126007,2,3,3,3,-6.07,1.55,2.11,7.34,-6.85,-3.42
15.45831096172333,2,3,3,3,-6.24,1.64,2.22,6.11,-4.85,-3.77
15.46831095218658,2,3,3,3,-6.65,1.53,2.52,4.79,-3.37,-3.89
15.47831094264984,2,3,3,3,-7.06,1.29,2.6,4.79,-3.37,-3.89
15.4883109331131,2,3,3,3,-7.74,1.02,2.67,3.9,-2.54,-3.52
15.49831092357635,2,3,3,3,-7.92,0.92,2.64,1.71,-1.41,-2.11
15.50831091403961,2,3,3,3,-7.98,0.6899999999999999,2.62,1.35,-0.9399999999999999,-0.97
15.51831090450287,2,3,3,3,-8,0.22,2.75,1.89,-0.34,0.2
15.52831089496613,2,3,3,3,-7.83,0.18,2.95,1.89,-0.34,0.2
15.53831088542938,2,3,3,3,-7.74,0.03,3.03,1.96,-0.09,0.83
15.54831087589264,2,3,3,3,-7.73,0,3.07,2.66,0.68,1.64
15.55831110477448,2,3,3,3,-7.57,-0.5,2.88,3.21,1.18,1.67
15.56831109523773,2,3,3,3,-7.5,-0.67,2.87,3.74,1.85,1.7
15.57831108570099,2,3,3,3,-7.39,-0.83,2.81,3.74,1.85,1.7
15.58831107616425,2,3,3,3,-7.42,-0.95,2.73,4.27,2.66,1.74
15.5983110666275,2,3,3,3,-7.7,-1.25,2.71,4.77,3.62,1.48
15.60831105709076,2,3,3,3,-7.97,-1.55,2.89,4.4,3.52,1.15
15.61831104755402,2,3,3,3,-8.34,-1.64,3.23,4.34,3.09,0.87
15.62831103801727,2,3,3,3,-8.69,-1.63,3.58,4.34,3.09,0.87
15.63831102848053,2,3,3,3,-9.029999999999999,-1.12,4.08,4.72,2.04,0.71
15.64831101894379,2,3,3,3,-9.199999999999999,-0.75,4.16,7.63,0.29,0
15.65831100940704,2,3,3,3,-9.369999999999999,-0.28,3.62,9.550000000000001,-0.33,-0.55
15.6683109998703,2,3,3,3,-9.43,0.11,3.13,11.34,-0.11,-0.95
15.67831099033356,2,3,3,3,-10.33,1.14,3.42,11.34,-0.11,-0.95
15.68831098079681,2,3,3,3,-10.4,1.93,3,12.83,-0.6899999999999999,-0.89
15.69831097126007,2,3,3,3,-10.17,2.17,1.83,14.32,-0.36,0.53
15.70831096172333,2,3,3,3,-10.34,1.95,0.85,9.59,3.22,0.73
15.71831095218658,2,3,3,3,-12.43,0.09,3.44,1.81,4.09,0.14
15.72831094264984,2,3,3,3,-13.28,-1.05,4.81,1.81,4.09,0.14
15.7383109331131,2,3,3,3,-13.03,-2.39,5.2,-4.8,1.23,-1.53
15.74831092357635,2,3,3,3,-11.85,-3.16,5.13,-5.54,-4.09,-6.73
15.75831091403961,2,3,3,3,-11.37,-4.32,6.5,-0.15,-6.74,-8.58
15.76831090450287,2,3,3,3,-11.6,-3.42,6.72,7.3,-8.67,-9.93
15.77831089496613,2,3,3,3,-11.74,-2,5.72,7.3,-8.67,-9.93
15.78831088542938,2,3,3,3,-14.21,-1.93,4.53,10.12,-10.18,-10.54
15.79831087589264,2,3,3,3,-16.23,-0.41,3.72,14.15,-3.84,-6
15.80831110477448,2,3,3,3,-17.68,1.91,1.87,14.99,0.18,-0.52
15.81831109523773,2,3,3,3,-18.87,4.27,0.63,11.44,2.15,5.26
15.82831108570099,2,3,3,3,-16.82,5.65,1.31,11.44,2.15,5.26
15.83831107616425,2,3,3,3,-13.37,6.45,3.56,4.27,0.19,9.460000000000001
15.8483110666275,2,3,3,3,-10.08,6.47,4.11,-3.88,-9.26,10.42
15.85831105709076,2,3,3,3,-7.36,5.96,3.84,-3.71,-8.35,7.64
15.86831104755402,2,3,3,3,-4.06,3.76,3.46,-2.57,-3.92,4.53
15.87831103801727,2,3,3,3,-4.07,2.94,3.05,-2.57,-3.92,4.53
15.88831102848053,2,3,3,3,-4.78,2.08,2.31,-0.18,1.61,1.99
15.89831101894379,2,3,3,3,-5.69,1.41,1.46,2.19,5.88,0.41
15.90831100940704,2,3,3,3,-7.44,1.02,-0.19,3.74,8.33,0.17
15.9183109998703,2,3,3,3,-8.380000000000001,1.25,-0.6,3.88,9.43,0.96
15.92831099033356,2,3,3,3,-9.06,1.67,-0.6899999999999999,3.51,9.08,2.13
15.93831098079681,2,3,3,3,-9.44,2.39,-0.24,3.71,6.81,3.23
15.94831097126007,2,3,3,3,-9.08,3.29,0.57,3.94,2.96,3.79
15.95831096172333,2,3,3,3,-8.539999999999999,3.59,0.74,4.36,-0.26,3.54
15.96831095218658,2,3,3,3,-8,3.82,1.05,4.47,-0.83,2.89
15.97831094264984,2,3,3,3,-7.1,3.6,1.38,3.92,0.22,2.44
15.9883109331131,2,3,3,3,-6.85,3.54,1.45,3.45,1.48,2.36
15.99831092357635,2,3,3,3,-6.75,3.56,1.39,3.17,2.46,2.52
16.00831091403961,2,3,3,3,-6.58,3.83,1.29,3.22,2.82,2.86
16.01831090450287,2,3,3,3,-6.39,4.11,1.08,2.59,3.49,3.19
16.02831089496613,2,3,3,3,-6.66,4.5,0.97,1.61,4.57,3.62
16.03831088542938,2,3,3,3,-7.06,4.97,0.97,0.03,5.97,3.98
16.04831087589264,2,3,3,3,-7.66,5.13,0.92,-2.62,6.3,4.23
16.05831110477448,2,3,3,3,-8.52,4.92,0.29,-5.1,6.48,4.31
16.06831109523773,2,3,3,3,-8.73,4.19,0.06,-7.67,6.61,3.57
16.07831108570099,2,3,3,3,-8.789999999999999,3.93,0.08,-10.07,6.63,3.48
16.08831107616425,2,3,3,3,-9.050000000000001,3.25,0.16,-12.18,6.87,3.4
16.0983110666275,2,3,3,3,-9.99,1.84,0.5600000000000001,-14.06,6.6,2.73
16.10831105709076,2,3,3,3,-10.28,1.06,0.88,-14.99,5.89,1.65
16.11831104755402,2,3,3,3,-10.44,0.63,1.33,-15.35,5.45,0.59
16.13831102848053,2,3,3,3,-9.869999999999999,-0.98,1.75,-13.55,4.62,-1.27
16.14831101894379,2,3,3,3,-9.970000000000001,-1.36,2.02,-12.15,3.57,-1.68
16.15831100940704,2,3,3,3,-9.970000000000001,-1.44,1.86,-9.94,2.39,-1.7
16.1683109998703,2,3,3,3,-9.93,-0.96,1.8,-7.32,1.28,-1.33
16.17831099033356,2,3,3,3,-9.869999999999999,-0.6899999999999999,1.66,-5.53,1.24,-0.65
16.18831098079681,2,3,3,3,-9.68,-0.53,1.57,-3.92,1.44,0.25
16.19831097126007,2,3,3,3,-9.720000000000001,-0.12,1.63,-2.73,1.63,1.32
16.20831096172333,2,3,3,3,-9.67,0.46,1.54,-2.01,1.79,2.27
16.21831095218658,2,3,3,3,-9.58,0.72,1.46,-1.6,1.72,3.15
16.22831094264984,2,3,3,3,-9.449999999999999,0.9,1.43,-1.47,1.79,3.99
16.2383109331131,2,3,3,3,-9.34,0.86,1.46,-1.79,1.95,4.71
16.24831092357635,2,3,3,3,-9.24,0.83,1.44,-2.35,2.01,5.27
16.25831091403961,2,3,3,3,-9.220000000000001,0.84,1.41,-3.07,1.98,5.51
16.26831090450287,2,3,3,3,-9.199999999999999,0.78,1.47,-3.67,1.86,5.53
16.27831089496613,2,3,3,3,-9.130000000000001,0.67,1.64,-4.21,1.62,5.4
16.28931105136871,2,3,3,3,-9.23,0.23,1.76,-4.68,1.38,5.19
16.29831087589264,2,3,3,3,-9.23,-0.07000000000000001,1.77,-5.14,1.1,4.94
16.30931103229523,2,3,3,3,-9.17,-0.31,1.7,-5.42,0.73,4.74
16.31931102275848,2,3,3,3,-9.279999999999999,-0.54,1.81,-5.54,0.4,4.53
16.32931101322174,2,3,3,3,-9.44,-0.78,1.78,-5.5,-0.12,4.29
16.339311003685,2,3,3,3,-9.52,-0.9,1.66,-5.13,-0.73,4.01
16.34931099414825,2,3,3,3,-9.48,-0.9,1.68,-4.73,-1.24,3.76
16.35931098461151,2,3,3,3,-9.52,-0.77,1.81,-4.33,-1.83,3.58
16.36931097507477,2,3,3,3,-9.44,-0.23,2.06,-3.84,-2.27,3.43
16.37931096553802,2,3,3,3,-9.470000000000001,0.07000000000000001,1.93,-2.81,-2.73,3.36
16.38931095600128,2,3,3,3,-9.57,0.27,1.56,-1.8,-2.85,3.41
16.39931094646454,2,3,3,3,-9.44,0.37,1.03,-1.09,-2.54,3.49
16.4093109369278,2,3,3,3,-9.4,0.23,1.42,-1.08,-1.74,3.78
16.41931092739105,2,3,3,3,-9.32,-0.02,1.64,-1.46,-0.75,4.09
16.42931091785431,2,3,3,3,-9.18,-0.28,1.34,-0.84,0,4.13
16.43931090831757,2,3,3,3,-9.33,-0.24,2.25,-0.35,0.89,3.63
16.44931089878082,2,3,3,3,-9.84,0.17,3.05,-1.99,2.02,2.92
16.45931088924408,2,3,3,3,-10.52,0.89,3.76,-4.16,2.22,2.33
16.46931087970734,2,3,3,3,-11.28,1.73,4.33,-4.93,1.33,1.72
16.47931087017059,2,3,3,3,-11.59,2.94,3.9,-3.96,0.61,0.95
16.48931109905243,2,3,3,3,-11.6,2.93,3.36,-1.23,1.15,0.29
16.49931108951569,2,3,3,3,-11.75,2.87,2.82,2.14,2.94,-0.51
16.50931107997894,2,3,3,3,-12.8,2.59,1.85,5.46,6.25,-1.93
16.5193110704422,2,3,3,3,-13.73,2.21,-0.77,7.43,10.53,-3.88
16.52931106090546,2,3,3,3,-14.77,3.8,-1.37,9.630000000000001,13.71,-4.3
16.53931105136871,2,3,3,3,-14.58,2.96,-1.39,9.85,13.75,-3.83
16.54931104183197,2,3,3,3,-13.81,4.82,-0.87,7.2,9.130000000000001,-0.15
16.55931103229523,2,3,3,3,-12.21,8.15,-1.24,5.83,4.72,2.98
16.56931102275848,2,3,3,3,-10.39,8.94,-1.32,3.4,1.16,3.69
16.57931101322174,2,3,3,3,-8.529999999999999,9.52,-1.26,-0.38,-1.4,1.66
16.589311003685,2,3,3,3,-6.32,7.66,1.17,-5.42,-2.93,-3.45
16.59931099414825,2,3,3,3,-7.33,7.94,2.28,-11.8,-4.13,-9.81
16.60931098461151,2,3,3,3,-9.01,6.97,2.54,-15.2,2.16,-12.44
16.61931097507477,2,3,3,3,-10.48,5.38,2.68,-17.98,4.11,-15.09
16.62931096553802,2,3,3,3,-10.32,1.65,2.6,-18.75,2.53,-16.54
16.63931095600128,2,3,3,3,-10.42,-0.24,2.8,-14.83,3.01,-15.73
16.64931094646454,2,3,3,3,-10.78,-1.92,3.31,-14.83,3.01,-15.73
16.6593109369278,2,3,3,3,-11.34,-3.47,3.66,-12.43,3.08,-14.24
16.66931092739105,2,3,3,3,-11.8,-3.93,2.78,-3.11,-1.69,-9.6
16.67931091785431,2,3,3,3,-11.77,-3.66,1.97,1.5,-4.14,-6.72
16.68931090831757,2,3,3,3,-11.7,-2.6,1.37,5.03,-5.92,-4.51
16.69931089878082,2,3,3,3,-11.21,-1.15,1.1,7.34,-7.86,-3.48
16.70931088924408,2,3,3,3,-9.529999999999999,-0.12,1.09,9.300000000000001,-9.69,-2.91
16.71931087970734,2,3,3,3,-8.81,0.7,1.37,11.22,-10.7,-2.62
16.72931087017059,2,3,3,3,-8.42,1.37,1.4,11.95,-11.42,-2.5
16.73931109905243,2,3,3,3,-7.52,1.55,1.25,11.64,-11.56,-2.63
16.74931108951569,2,3,3,3,-6.68,1.72,1.35,11.35,-10.48,-2.94
16.75931107997894,2,3,3,3,-6.18,1.97,1.62,10.74,-10.25,-3.52
16.7693110704422,2,3,3,3,-5.89,2.05,1.9,9.84,-9.800000000000001,-4.37
16.77931106090546,2,3,3,3,-5.59,1.76,2.28,9.17,-9.26,-5.11
16.78931105136871,2,3,3,3,-5.67,1.71,2.42,8.630000000000001,-8.050000000000001,-5.78
16.79931104183197,2,3,3,3,-5.99,1.6,2.54,7.89,-6.73,-6.4
16.80931103229523,2,3,3,3,-6.37,1.44,2.51,7.16,-5.94,-6.67
16.81931102275848,2,3,3,3,-7.13,1.12,2.48,6.48,-4.93,-6.52
16.82931101322174,2,3,3,3,-7.54,0.96,2.48,5.79,-3.92,-5.88
16.839311003685,2,3,3,3,-8.06,0.72,2.38,5.05,-2.89,-4.93
16.84931099414825,2,3,3,3,-8.31,0.6899999999999999,2.37,4.5,-2.47,-3.55
16.85931098461151,2,3,3,3,-8.58,0.01,2.5,4.11,-2.04,-2.22
16.86931097507477,2,3,3,3,-8.56,0.1,2.78,4.6,-0.93,0.05
16.87931096553802,2,3,3,3,-8.35,0.98,2.65,5.17,-0.8100000000000001,0.21
16.88931095600128,2,3,3,2,-8.26,0.42,2.71,5.13,-1.3,0.84
16.89931094646454,2,3,3,2,-8.130000000000001,0.39,2.83,5.5,-0.65,1.2
16.9093109369278,2,3,3,2,-7.97,0.21,2.76,5.51,-0.17,1.42
16.91931092739105,2,3,3,2,-7.76,0.03,2.73,5.41,0.26,1.59
16.92931091785431,2,3,3,2,-7.61,-0.15,2.69,5.11,0.63,1.6
16.93931090831757,2,3,3,2,-7.58,-0.47,2.98,4.38,1.24,1.58
16.94931089878082,2,3,3,2,-7.94,-0.57,3.34,3.32,1.3,1.31
16.95931088924408,2,3,3,2,-8.16,-0.65,3.3,2.71,0.24,1.04
16.96931087970734,2,3,3,2,-7.56,-0.95,2.47,3.57,-0.26,1.04
16.97931087017059,2,3,3,2,-7.84,-1.13,2.87,4.28,1.34,1.09
16.98931109905243,2,3,3,2,-8.48,-1.18,3.26,3.67,2.71,0.78
16.99931108951569,2,3,3,2,-8.970000000000001,-1.39,3.6,2.89,2.44,0.19
17.00931107997894,2,3,3,2,-9.279999999999999,-1.46,3.78,2.46,0.91,-0.43
17.0193110704422,2,3,3,2,-9.26,-1.3,3.57,3.55,-0.41,-1.15
17.02931106090546,2,3,3,2,-9.51,-1.16,3.41,6.13,-0.64,-1.71
17.03931105136871,2,3,3,2,-9.949999999999999,-0.76,3.32,9.199999999999999,-0.57,-1.83
17.04931104183197,2,3,3,2,-10.67,-0.03,2.39,11.44,-0.3,-1.14
17.05931103229523,2,3,3,2,-11.07,0.04,1.74,11.92,0.84,-0.11
17.06931102275848,2,3,3,2,-11.56,-0.28,1.99,9.949999999999999,2.8,0.65
17.07931101322174,2,3,3,2,-12.25,-0.7,3.27,5.81,3.33,0.84
17.089311003685,2,3,3,2,-13.12,-1.96,5.17,1.61,0.68,-0.2
17.09931099414825,2,3,3,2,-12.92,-2.14,5.74,-1.23,-3.27,-2.65
17.10931098461151,2,3,3,2,-12.92,-1.9,5.44,0.03,-7.72,-5.84
17.11931097507477,2,3,3,2,-12.47,-0.97,4.59,5.76,-11.36,-7.97
17.12931096553802,2,3,3,2,-14.04,0.08,5.36,8.619999999999999,-9.380000000000001,-8.859999999999999
17.13931095600128,2,3,3,2,-16.06,0.58,5.94,6.98,-6.89,-9.210000000000001
17.14931094646454,2,3,3,2,-16.6,1.91,4.11,7.76,-5.06,-6.63
17.1593109369278,2,3,3,2,-16.8,3.69,1.85,7.75,-2.83,-2.65
17.16931092739105,2,3,3,2,-16.7,3.63,2.39,1.93,-3.15,1.3
17.17931091785431,2,3,3,2,-13.32,3.94,3.07,-2.43,-5.09,4.35
17.18931090831757,2,3,3,2,-10.69,4.36,4.01,-6.81,-7.35,5.39
17.19931089878082,2,3,3,2,-6.3,3.05,4.58,-8.27,-7.22,5.33
17.20931088924408,2,3,3,2,-5.34,2.31,4.12,-5.96,-4.15,4.56
17.21931087970734,2,3,3,2,-5.29,2.08,3.99,-1.85,-0.55,3.39
17.22931087017059,2,3,3,2,-6.23,1.71,3.06,2.32,2.28,2.72
17.23931109905243,2,3,3,2,-8.33,1.29,0.85,5.22,4.95,2.57
17.24931108951569,2,3,3,2,-8.93,1.36,-0.22,6.11,7.32,3
17.25931107997894,2,3,3,2,-9.289999999999999,1.96,-0.77,5.97,8.1,3.97
17.2693110704422,2,3,3,2,-9.43,2.66,-0.71,5.35,5.67,4.96
17.27931106090546,2,3,3,2,-8.42,4.22,0.58,4.88,1.2,5.38
17.28931105136871,2,3,3,2,-7.71,4.43,1.18,4,-2.89,4.88
17.29931104183197,2,3,3,2,-7.11,4.73,1.61,3.38,-4.55,3.6
17.30931103229523,2,3,3,2,-6.76,4.65,1.75,2.81,-3.44,2.25
17.31931102275848,2,3,3,2,-6.52,3.95,1.9,2.2,-0.97,1.14
17.32931101322174,2,3,3,2,-6.74,3.63,1.91,1.48,1.41,0.49
17.34031093120575,2,3,3,2,-6.9,3.46,1.86,0.9399999999999999,3.25,0.27
17.35031092166901,2,3,3,2,-7.1,3.1,1.55,0.32,4.87,0.61
17.40031087398529,2,3,3,2,-8.359999999999999,3.25,0.7,-9.4,8.779999999999999,3.98
17.41031110286713,2,3,3,2,-8.94,2.47,0.77,-11.53,7.76,3.22
17.42031109333038,2,3,3,2,-9.06,1.84,1.05,-12.68,7.25,2.86
17.43031108379364,2,3,3,2,-9.529999999999999,0.84,1.47,-12.78,6.6,2.14
17.4403110742569,2,3,3,2,-9.529999999999999,0.84,1.47,-11.87,5.41,1.54
17.45031106472015,2,3,3,2,-9.380000000000001,0.53,1.7,-10.45,5.2,1.02
17.46031105518341,2,3,3,2,-9.31,-0.29,1.53,-8.18,5.6,0.82
17.47031104564667,2,3,3,2,-9.24,0.05,1.66,-5.72,5.06,0.89
17.49031102657318,2,3,3,2,-9.49,0.34,1.65,-3.13,4.07,1.24
17.50031101703644,2,3,3,2,-9.67,0.6899999999999999,1.39,-3.13,4.07,1.24
17.51031100749969,2,3,3,2,-9.869999999999999,1.29,1.39,-4.04,3.18,1.5
17.52031099796295,2,3,3,2,-9.83,1.48,1.53,-5.17,2.35,1.59
17.53031098842621,2,3,3,2,-9.720000000000001,1.19,1.51,-6.51,1.46,1.57
17.54031097888947,2,3,3,2,-9.720000000000001,1.19,1.51,-6.51,1.46,1.57
17.55031096935272,2,3,3,2,-9.44,0.76,1.63,-7.54,1.36,1.64
17.56031095981598,2,3,3,2,-8.98,-0.14,2.05,-8.08,1.94,1.88
17.57031095027924,2,3,3,2,-9.039999999999999,-0.27,2.38,-7.93,2.08,2.04
17.58031094074249,2,3,3,2,-9.18,-0.09,2.45,-7.13,2.03,2.28
17.59031093120575,2,3,3,2,-9.18,-0.09,2.45,-7.13,2.03,2.28
17.60031092166901,2,3,3,2,-9.359999999999999,-0.02,2.19,-6.08,2.14,2.52
17.61031091213226,2,3,3,2,-9.359999999999999,0.04,1.84,-5.68,2.08,3.05
17.62031090259552,2,3,3,2,-9.76,-0.28,1.61,-5.43,1.78,3.52
17.63031089305878,2,3,3,2,-9.869999999999999,-0.47,1.5,-5.08,0.84,3.95
17.64031088352203,2,3,3,2,-9.869999999999999,-0.47,1.5,-5.08,0.84,3.95
17.65031087398529,2,3,3,2,-10.07,-0.77,1.47,-5.26,-0.02,4.27
17.67031109333038,2,3,3,2,-10.16,-1.38,1.64,-5.53,-2.01,4.69
17.68031108379364,2,3,3,2,-10.07,-1.38,1.66,-4.97,-2.57,4.36
17.6903110742569,2,3,3,2,-9.98,-1.39,1.56,-4.97,-2.57,4.36
17.70031106472015,2,3,3,2,-9.699999999999999,-1.39,1.45,-4.46,-3.08,4.07
17.71031105518341,2,3,3,2,-9.34,-1.11,2.18,-4.18,-2.59,3.93
17.72031104564667,2,3,3,2,-9.380000000000001,-0.95,2.28,-2.76,-2.07,3.8
17.73031103610992,2,3,3,2,-9.449999999999999,-0.8100000000000001,2.25,-0.84,-1.43,3.54
17.74031102657318,2,3,3,2,-9.619999999999999,-0.73,1.97,-0.84,-1.43,3.54
17.75031101703644,2,3,3,2,-9.75,-0.86,1.7,0.84,-0.63,3.18
17.76031100749969,2,3,3,2,-9.869999999999999,-0.95,1.66,2.4,1.06,2.63
17.77031099796295,2,3,3,2,-10,-0.97,1.59,2.1,2.18,2.57
17.78031098842621,2,3,3,2,-10.22,0.12,3.19,1,3.11,2.77
17.79031097888947,2,3,3,2,-10.71,1.07,3.68,1,3.11,2.77
17.80031096935272,2,3,3,2,-11.66,2.05,3.8,0.76,3.02,3.07
17.81031095981598,2,3,3,2,-12.33,2.75,2.92,2.42,2.6,2.37
17.82031095027924,2,3,3,2,-12.2,2.77,2.05,1.25,4.26,1.29
17.83031094074249,2,3,3,2,-12.01,2.02,2.29,1.97,5.27,0.36
17.84031093120575,2,3,3,2,-11.89,1.73,2.33,1.97,5.27,0.36
17.85031092166901,2,3,3,2,-12.16,1.6,1.89,4.63,7.22,-0.74
17.86031091213226,2,3,3,2,-12.76,1.98,-0.19,8.880000000000001,10.74,-1.99
17.87031090259552,2,3,3,2,-12.71,3,-0.18,7.99,9.529999999999999,-1.62
17.88031089305878,2,3,3,2,-12.48,4.2,0.42,7.31,5.6,-0.86
17.89031088352203,2,3,3,2,-11.75,5.36,0.34,7.31,5.6,-0.86
17.90031087398529,2,3,3,2,-9.039999999999999,7.27,-1,8.380000000000001,2.27,-1.31
17.91031110286713,2,3,3,2,-7.81,7.89,-1.04,3.85,2.77,-5.24
17.92031109333038,2,3,3,2,-7.87,8.56,-0.79,-3.03,0.02,-9.19
17.93031108379364,2,3,3,2,-8.869999999999999,9.470000000000001,-0.27,-11.07,-2.2,-10.66
17.9403110742569,2,3,3,2,-10.39,7.88,3.01,-11.07,-2.2,-10.66
17.95031106472015,2,3,3,2,-11.39,7.11,3.09,-15.14,0.77,-11.2
17.96031105518341,2,3,3,2,-11.32,5.81,3,-18.47,0.3,-12.18
17.97031104564667,2,3,3,2,-10.69,2.43,2.82,-17.19,2.6,-11.93
17.98031103610992,2,3,3,2,-10.8,0.51,3.08,-15.68,3.89,-10.95
17.99031102657318,2,3,3,2,-11.18,-1.13,3.54,-15.68,3.89,-10.95
18.00031101703644,2,3,3,2,-11.56,-2.42,3.59,-13.51,2.11,-9.19
18.01031100749969,2,3,3,2,-11.49,-3.55,2.74,-4.69,-4,-4.86
18.02031099796295,2,3,3,2,-11.21,-3.51,2.34,-0.38,-6.92,-2.99
18.03031098842621,2,3,3,2,-10.62,-2.88,2.17,3.74,-9.039999999999999,-1.64
18.04031097888947,2,3,3,2,-9.94,-2.42,1.86,3.74,-9.039999999999999,-1.64
18.05031096935272,2,3,3,2,-8.640000000000001,-0.6,1.6,7.5,-10.64,-1.02
18.06031095981598,2,3,3,2,-7.79,0.13,1.54,10.99,-12.38,-0.88
18.07031095027924,2,3,3,2,-7.24,0.74,1.3,10.99,-12.38,-0.88
18.11031091213226,2,3,3,2,-5.88,1.43,2.21,8.32,-10.02,-3.32
18.12031090259552,2,3,3,2,-5.93,1.33,2.3,7.39,-9.369999999999999,-3.72
18.13031089305878,2,3,3,2,-6.27,1.27,2.62,6.45,-8.130000000000001,-4.09
18.14031088352203,2,3,3,2,-6.29,1.2,2.57,5.7,-7.11,-4.32
18.15031087398529,2,3,3,2,-6.51,1.21,2.62,5.18,-5.89,-4.25
18.16031110286713,2,3,3,2,-6.84,1.11,2.58,4.45,-4.26,-3.83
18.17031109333038,2,3,3,2,-7.32,0.97,2.58,3.87,-3.12,-3.2
18.18031108379364,2,3,3,2,-7.79,0.78,2.75,3.27,-2.19,-2.34
18.20031106472015,2,3,3,2,-8.08,0.61,2.8,2.7,-1.4,-0.96
18.21031105518341,2,3,3,2,-8.130000000000001,0.48,2.75,2.42,-1.02,-0.35
18.22031104564667,2,3,3,2,-8.220000000000001,0.36,2.66,2.55,0.05,0.46
18.23031103610992,2,3,3,2,-8.210000000000001,0.1,2.76,2.32,0.83,1.03
18.24031102657318,2,3,3,2,-8.039999999999999,-0.5,2.96,1.95,1.36,1.41
18.25031101703644,2,3,3,2,-7.83,-0.74,3.08,1.8,1.77,1.47
18.26031100749969,2,3,3,2,-7.63,-0.91,3.11,1.52,1.78,1.37
18.27031099796295,2,3,3,2,-7.47,-1.05,3.1,1.52,1.72,1.13
18.28031098842621,2,3,3,2,-7.62,-1.31,3.33,1.36,1.86,0.77
18.29031097888947,2,3,3,2,-7.63,-1.41,3.35,1.03,1.89,0.35
18.30031096935272,2,3,3,2,-7.62,-1.53,3.23,1.15,1.84,0.04
18.31031095981598,2,3,3,2,-7.63,-1.74,3.19,1.44,2.22,0.05
18.32031095027924,2,3,3,2,-8,-2.2,3.3,1.73,3.06,0.32
18.33031094074249,2,3,3,2,-8.300000000000001,-1.89,3.59,2.29,4.14,0.8100000000000001
18.34031093120575,2,3,3,2,-8.699999999999999,-2.04,3.76,3.13,3.72,0.49
18.35031092166901,2,3,3,2,-9.789999999999999,-1.25,4.29,5.18,2.3,0.42
18.36131107807159,2,3,3,2,-10.28,-1.03,3.96,7.52,0.34,-0.15
18.37131106853485,2,3,3,2,-10.81,-0.31,3.86,10.18,-1.17,-0.45
18.38131105899811,2,3,3,2,-11.7,0.59,4.03,12.39,-1.32,-0.26
18.39131104946136,2,3,3,2,-12.64,2.41,3.28,13.45,-1.69,0.27
18.40131103992462,2,3,3,2,-12.83,2.62,3.1,13.47,-2.21,0.96
18.41131103038788,2,3,3,2,-13.02,2.29,3.61,10.55,-2.57,1.42
18.42131102085114,2,3,3,2,-13.16,1.6,4.29,4.76,-2.81,1.27
18.43131101131439,2,3,3,2,-11.93,-0.19,5.74,-0.8,-3.13,0.3
18.44131100177765,2,3,3,2,-11.51,-0.98,6.5,-4.33,-3.01,-1.46
18.45131099224091,2,3,3,2,-10.89,-1.87,6.02,-5.44,-4.35,-3.87
18.46131098270416,2,3,3,2,-9.74,-2.06,5.55,-1.78,-6.92,-6.49
18.47131097316742,2,3,3,2,-12.63,-2.89,6.92,2.64,-7.69,-8.33
18.48131096363068,2,3,3,2,-14.28,-2.71,6.28,4.36,-6.4,-9.24
18.49131095409393,2,3,3,2,-14.92,-0.98,4.77,6.73,-5.76,-8.93
18.50131094455719,2,3,3,2,-15.47,1.53,2.99,10.61,-3.87,-5.63
18.51131093502045,2,3,3,2,-17,3.2,0.72,10.75,-0.55,-1.48
18.5213109254837,2,3,3,2,-15.12,3.38,1.99,4.99,0.75,2.73
18.53131091594696,2,3,3,2,-12.55,4.19,3.39,-1.75,-1.56,6.03
18.54131090641022,2,3,3,2,-10.12,4.04,3.19,-4.65,-5.95,7.8
18.55131089687347,2,3,3,2,-6.28,2.48,3.96,-4.73,-7.66,7.27
18.56131088733673,2,3,3,2,-5.39,1.88,3.61,-4.5,-6.59,5.25
18.57131087779999,2,3,3,2,-5.12,1.48,2.88,-2.51,-3.73,3.03
18.58131086826324,2,3,3,2,-6.35,0.79,1.36,0.85,0.37,1.59
18.59131109714508,2,3,3,2,-7.01,0.84,0.8,4.65,3.55,0.85
18.60131108760834,2,3,3,2,-7.86,1.15,0.14,7.06,5.33,1.13
18.61131107807159,2,3,3,2,-8.48,1.88,-0.43,7.56,6.33,2.12
18.62131106853485,2,3,3,2,-9.529999999999999,3.45,-0.43,7.19,6.47,3.51
18.63131105899811,2,3,3,2,-9.73,4.18,0.28,6.18,4.7,4.65
18.64131104946136,2,3,3,2,-9.48,4.37,0.79,4.79,1.71,4.83
18.65131103992462,2,3,3,2,-8.779999999999999,4.61,1.07,3.62,-1.07,3.95
18.66131103038788,2,3,3,2,-7.43,4.25,1.42,3.16,-2.17,2.53
18.67131102085114,2,3,3,2,-7.09,4.05,1.43,2.64,-1.61,1.32
18.68131101131439,2,3,3,2,-6.79,3.85,1.53,2.43,-0.09,0.49
18.69131100177765,2,3,3,2,-6.82,3.37,1.46,1.95,1.82,0.14
18.70131099224091,2,3,3,2,-6.93,3.23,1.24,1.71,3.67,-0.02
18.71131098270416,2,3,3,2,-6.99,3.19,1.06,1,4.5,0.1
18.72131097316742,2,3,3,2,-7.21,3.42,0.74,-0.15,5.72,0.49
18.75131094455719,2,3,3,2,-8.59,3.33,0.99,-5.93,7.97,2.48
18.76131093502045,2,3,3,2,-8.57,2.56,1.18,-7.86,7.47,2.18
18.7713109254837,2,3,3,2,-8.960000000000001,2.4,1.23,-8.970000000000001,7.37,2.85
18.78131091594696,2,3,3,2,-8.74,2.13,1.22,-9.5,7.07,2.9
18.79131090641022,2,3,3,2,-8.890000000000001,1.8,1.39,-9.57,6.19,2.79
18.80131089687347,2,3,3,2,-9.26,1.34,1.54,-9.220000000000001,6.22,2.36
18.81131088733673,2,3,3,2,-9.19,0.76,1.51,-8.35,5.71,1.54
18.82131087779999,2,3,3,2,-9.06,0.9,1.46,-7.14,4.88,1.13
18.83131086826324,2,3,3,2,-9.43,0.91,1.64,-6.17,4.7,0.91
18.84131109714508,2,3,3,2,-9.93,1.09,1.71,-5.74,4.24,0.84
18.85131108760834,2,3,3,2,-10.35,1.1,1.45,-5.05,3.03,0.68
18.86131107807159,2,3,3,2,-10.3,0.89,1.31,-4.78,2.07,0.73
18.87131106853485,2,3,3,2,-9.93,0.46,1.19,-4.93,1.54,0.84
18.88131105899811,2,3,3,2,-9.49,0.27,1.37,-5.8,1.05,0.97
18.89131104946136,2,3,3,2,-9.359999999999999,-0.43,1.83,-6.84,1.02,1.34
18.90131103992462,2,3,3,2,-9.800000000000001,-0.31,2.29,-7.37,1.43,1.49
18.91131103038788,2,3,3,2,-9.69,-0.34,2.48,-6.56,1.15,1.71
18.92131102085114,2,3,3,2,-9.779999999999999,-0.3,2.42,-5.71,0.47,1.82
18.93131101131439,2,3,3,2,-9.630000000000001,-0.25,2.27,-4.39,0.44,2.12
18.94131100177765,2,3,3,2,-9.67,-0.16,2.08,-3.54,0.68,2.53
18.95131099224091,2,3,3,2,-9.390000000000001,-0.08,1.79,-2.45,1.07,3.77
18.96131098270416,2,3,3,2,-9.31,-0.29,1.34,-2.45,1.07,3.77
18.97131097316742,2,3,3,2,-9.34,-0.42,1.27,-2.66,1.47,4.37
18.98131096363068,2,3,3,2,-9.449999999999999,-0.64,1.3,-3.46,0.9399999999999999,5.14
18.99131095409393,2,3,3,2,-9.609999999999999,-0.79,1.37,-3.63,0.13,5.08
19.00131094455719,2,3,3,2,-9.82,-0.87,1.62,-3.72,-1.02,4.83
19.01131093502045,2,3,3,2,-9.779999999999999,-0.79,1.63,-3.47,-2.12,4.49
19.0213109254837,2,3,3,2,-9.75,-0.61,1.75,-3.53,-2.81,4.06
19.03131091594696,2,3,3,2,-9.720000000000001,-0.46,2,-3.63,-3.31,3.71
19.04131090641022,2,3,3,2,-9.74,0.26,2.29,-3.78,-3.69,3.57
19.05131089687347,2,3,3,2,-9.75,0.64,2.24,-4.05,-3.54,3.65
19.06131088733673,2,3,3,2,-9.609999999999999,0.71,1.86,-3.72,-2.92,3.98
19.07131087779999,2,3,3,2,-9.289999999999999,0.48,1.39,-2.62,-1.62,4.24
19.08131086826324,2,3,3,2,-8.949999999999999,-0.42,1.66,-1.6,0.28,4.1
19.09131109714508,2,3,3,2,-8.91,-0.98,1.64,-0.61,1.83,3.64
19.10131108760834,2,3,3,2,-9.08,-1.2,1.78,-0.72,2.86,3.04
19.11131107807159,2,3,3,2,-9.32,-1.06,2.21,-2.17,3.65,2.72
19.12131106853485,2,3,3,2,-10.28,0.22,3.34,-3.83,3.87,2.48
19.13131105899811,2,3,3,2,-11.09,1.01,3.71,-3.88,2.9,2.15
19.14131104946136,2,3,3,2,-11.78,1.73,4.02,-3.17,1.37,1.67
19.15131103992462,2,3,3,2,-11.41,2.31,3.41,-1.31,1.23,1.03
19.16131103038788,2,3,3,2,-11.38,2.17,2.88,-0.06,3.04,0.31
19.17131102085114,2,3,3,2,-11.52,1.58,2.61,0.87,5.84,-0.9
19.18131101131439,2,3,3,2,-11.86,1.13,2.67,2.29,9.140000000000001,-1.49
19.19131100177765,2,3,3,2,-13.1,1.23,0.32,5.07,11.52,-1.71
19.20131099224091,2,3,3,2,-13.37,2.03,-0.4,7.35,12.47,-1.48
19.21131098270416,2,3,3,2,-13.43,3.24,0.15,6.52,11.11,-0.92
19.22131097316742,2,3,3,2,-13.14,4.51,0.29,6.21,6.96,-0.41
19.23131096363068,2,3,3,2,-10.15,6.52,-0.25,7.42,3.67,0.34
19.24131095409393,2,3,3,2,-9.16,7.66,-1.01,7.66,4.19,-1.06
19.25131094455719,2,3,3,2,-8.869999999999999,9.359999999999999,-1.87,4.55,1.82,-4.89
19.26131093502045,2,3,3,2,-8.6,7.26,-0.76,-2.18,0.58,-7.19
19.2713109254837,2,3,3,2,-10.66,8.44,1.67,-8.27,3.37,-8.449999999999999
19.28131091594696,2,3,3,2,-11.48,7.53,2.44,-14.84,1.36,-10.12
19.29131090641022,2,3,3,2,-11.6,6.55,2.98,-18.12,-0.88,-11.35
19.30131089687347,2,3,3,2,-11.25,5.15,3.09,-18.7,-0.33,-11.9
19.31131088733673,2,3,3,2,-11.1,1.84,3.13,-18.27,1.38,-11.88
19.32131087779999,2,3,3,2,-10.93,0.05,3.23,-17.31,1.73,-11.03
19.33131086826324,2,3,3,2,-11.19,-1.34,3.39,-15.07,0.46,-9.460000000000001
19.34131109714508,2,3,3,2,-11.43,-3.06,2.95,-11.46,-1.95,-7.31
19.35131108760834,2,3,3,2,-11.29,-3.46,2.59,-7.26,-4.86,-5.29
19.36131107807159,2,3,3,2,-10.56,-3.22,2.26,-2.57,-7.47,-3.49
19.37131106853485,2,3,3,2,-9.76,-2.75,1.84,2.06,-8.720000000000001,-2.03
19.38231098651886,2,3,3,2,-8.77,-1.36,1.88,6.02,-9.57,-1.3
19.39231097698212,2,3,3,2,-8.01,-0.53,1.77,8.94,-11.34,-0.9
19.40231096744537,2,3,3,2,-7.27,0.24,1.7,10.73,-11.88,-0.92
19.41231095790863,2,3,3,2,-6.82,0.85,1.58,11.31,-11.7,-1.34
19.42231094837189,2,3,3,2,-6.33,1.47,1.7,10.85,-11.07,-2.16
19.43231093883514,2,3,3,2,-6.2,1.71,1.91,9.970000000000001,-10.38,-3.06
19.4423109292984,2,3,3,2,-5.99,1.92,2.11,9.02,-10.09,-3.94
19.45231091976166,2,3,3,3,-6.05,1.97,2.31,8.029999999999999,-9.65,-4.5
19.46231091022491,2,3,3,3,-6.02,1.79,2.38,7.24,-9.08,-4.9
19.47231090068817,2,3,3,3,-6.18,1.67,2.4,6.52,-7.59,-5.16
19.48231089115143,2,3,3,3,-6.66,1.57,2.52,5.55,-5.79,-5.17
19.49231088161469,2,3,3,3,-7.04,1.4,2.66,4.3,-4.36,-4.96
19.50231087207794,2,3,3,3,-7.76,1.2,2.77,3.3,-3.03,-4.29
19.51231110095978,2,3,3,3,-7.82,1.1,2.61,2.67,-2.28,-3.86
19.52231109142303,2,3,3,3,-8.17,0.9399999999999999,2.67,1.82,-2.26,-3.17
19.53231108188629,2,3,3,3,-8.31,0.85,2.97,1.42,-1.14,-2.3
19.54231107234955,2,3,3,3,-8.23,0.75,3.19,1.2,-0.85,-1.55
19.55231106281281,2,3,3,3,-7.98,0.6,3.06,1.25,-1.08,-0.86
19.56231105327606,2,3,3,3,-7.77,0.26,2.95,1.4,-0.78,-0.35
19.57231104373932,2,3,3,3,-7.54,-0.15,3.14,1.31,0.26,-0.01
19.58231103420258,2,3,3,3,-7.52,-0.33,3.27,1.1,1.14,0.17
