timestamp,magCalib,accCalib,gyrCalib,sysCalib,accX,accY,accZ,gyrX,gyrY,gyrZ
-0.02568900585174561,3,3,3,3,-9.699999999999999,-1.29,0.06,-0.15,0.05,-0.17
-0.01568901538848877,3,3,3,3,-9.69,-1.27,0.1,-0.25,0,-0.14
-0.005689024925231934,3,3,3,3,-9.69,-1.27,0.1,-0.25,0.01,-0.15
0.004310965538024902,3,3,3,3,-9.77,-1.32,0.12,-0.17,0.03,-0.08
0.01431095600128174,3,3,3,3,-9.699999999999999,-1.3,0.11,0.01,-0.03,-0.12
0.02531087398529053,3,3,3,3,-9.74,-1.35,0.16,0.06,-0.02,-0.1
0.03531110286712646,3,3,3,3,-9.720000000000001,-1.28,0.18,0.14,-0.04,-0.09
0.0453110933303833,3,3,3,3,-9.720000000000001,-1.17,0.25,0.22,-0.07000000000000001,-0.08
0.05531108379364014,3,3,3,3,-9.720000000000001,-1.17,0.25,0.1,-0.09,-0.01
0.06531107425689697,3,3,3,3,-9.710000000000001,-1.2,0.13,0.04,-0.08,0.02
0.07531106472015381,3,3,3,3,-9.74,-1.25,0.14,-0.02,-0.01,0.05
0.08531105518341064,3,3,3,3,-9.74,-1.28,0.25,0.03,-0.08,0.04
0.09531104564666748,3,3,3,3,-9.69,-1.3,0.23,0.06,-0.1,0.02
0.1053110361099243,3,3,3,3,-9.720000000000001,-1.39,0.21,0.14,-0.08,0.04
0.1153110265731812,3,3,3,3,-9.74,-1.39,0.09,0.27,-0.05,-0.01
0.125311017036438,3,3,3,3,-9.68,-1.37,0.1,0.31,-0.1,-0.01
0.1353110074996948,3,3,3,3,-9.699999999999999,-1.32,0.14,0.36,-0.09,0
0.1453109979629517,3,3,3,3,-9.699999999999999,-1.32,0.14,0.39,-0.06,0.02
0.1553109884262085,3,3,3,3,-9.710000000000001,-1.35,0.25,0.38,-0.04,0.03
0.1653109788894653,3,3,3,3,-9.720000000000001,-1.43,0.11,0.41,-0.03,0.02
0.1753109693527222,3,3,3,3,-9.710000000000001,-1.41,0.22,0.51,-0.09,0.01
0.185310959815979,3,3,3,3,-9.69,-1.36,0.24,0.5600000000000001,-0.11,0
0.1953109502792358,3,3,3,3,-9.69,-1.33,0.28,0.63,-0.06,0
0.2053109407424927,3,3,3,3,-9.69,-1.33,0.28,0.71,-0.14,0
0.2153109312057495,3,3,3,3,-9.720000000000001,-1.26,0.15,0.67,-0.15,0.02
0.2253109216690063,3,3,3,3,-9.720000000000001,-1.3,0.18,0.57,-0.08,0.07000000000000001
0.2353109121322632,3,3,3,3,-9.67,-1.19,0.21,0.58,-0.07000000000000001,0.07000000000000001
0.24531090259552,3,3,3,3,-9.710000000000001,-1.23,0.27,0.53,-0.05,0.09
0.2553108930587769,3,3,3,3,-9.710000000000001,-1.26,0.28,0.54,-0.04,0.1
0.2653108835220337,3,3,3,3,-9.74,-1.26,0.16,0.53,-0.06,0.15
0.2753108739852905,3,3,3,3,-9.720000000000001,-1.26,0.21,0.5,-0.03,0.19
0.2853111028671265,3,3,3,3,-9.710000000000001,-1.22,0.3,0.53,-0.03,0.19
0.2953110933303833,3,3,3,3,-9.73,-1.19,0.29,0.63,-0.06,0.2
0.3053110837936401,3,3,3,3,-9.75,-1.16,0.32,0.67,-0.06,0.2
0.315311074256897,3,3,3,3,-9.75,-1.18,0.16,0.58,-0.06,0.2
0.3253110647201538,3,3,3,3,-9.73,-1.15,0.24,0.62,-0.06,0.2
0.3353110551834106,3,3,3,3,-9.74,-1.2,0.25,0.57,-0.06,0.19
0.3453110456466675,3,3,3,3,-9.720000000000001,-1.19,0.29,0.6,-0.06,0.16
0.3553110361099243,3,3,3,3,-9.67,-1.25,0.17,0.54,-0.06,0.13
0.3653110265731812,3,3,3,3,-9.68,-1.23,0.14,0.55,-0.04,0.13
0.375311017036438,3,3,3,3,-9.720000000000001,-1.22,0.16,0.52,-0.03,0.05
0.3853110074996948,3,3,3,3,-9.74,-1.19,0.2,0.53,-0.03,0.06
0.3953109979629517,3,3,3,3,-9.720000000000001,-1.19,0.32,0.43,-0.03,0.07000000000000001
0.4053109884262085,3,3,3,3,-9.720000000000001,-1.16,0.26,0.34,-0.01,0.03
0.4153109788894653,3,3,3,3,-9.73,-1.19,0.22,0.25,0,0.03
0.4253109693527222,3,3,3,3,-9.73,-1.19,0.28,0.27,-0.04,0.02
0.435310959815979,3,3,3,3,-9.73,-1.23,0.28,0.29,-0.05,-0.01
0.4453109502792358,3,3,3,3,-9.720000000000001,-1.26,0.27,0.28,-0.05,-0.01
0.4553109407424927,3,3,3,3,-9.68,-1.2,0.31,0.26,-0.06,0.01
0.4653109312057495,3,3,3,3,-9.710000000000001,-1.24,0.18,0.19,-0.05,0.04
0.4753109216690063,3,3,3,3,-9.68,-1.24,0.28,0.12,-0.03,0.04
0.4853109121322632,3,3,3,3,-9.720000000000001,-1.28,0.27,0.07000000000000001,-0.08,-0.01
0.49531090259552,3,3,3,3,-9.720000000000001,-1.23,0.29,0.07000000000000001,-0.08,0.01
0.5053108930587769,3,3,3,3,-9.74,-1.24,0.31,0.08,-0.08,-0.02
0.5153108835220337,3,3,3,3,-9.73,-1.23,0.23,0.12,-0.11,-0.03
0.5253108739852905,3,3,3,3,-9.720000000000001,-1.21,0.28,0.16,-0.08,-0.01
0.5353111028671265,3,3,3,3,-9.699999999999999,-1.22,0.31,0.18,-0.06,0.02
0.5453110933303833,3,3,3,3,-9.68,-1.22,0.3,0.16,-0.08,0.02
0.5553110837936401,3,3,3,3,-9.710000000000001,-1.2,0.27,0.19,-0.1,0.01
0.565311074256897,3,3,3,3,-9.73,-1.2,0.21,0.22,-0.07000000000000001,0.02
0.5753110647201538,3,3,3,3,-9.73,-1.26,0.25,0.14,-0.07000000000000001,0
0.5853110551834106,3,3,3,3,-9.710000000000001,-1.22,0.28,0.18,-0.07000000000000001,0.01
0.5953110456466675,3,3,3,3,-9.720000000000001,-1.24,0.33,0.1,-0.05,0.03
0.6053110361099243,3,3,3,3,-9.699999999999999,-1.21,0.3,0.1,-0.1,0.06
0.6153110265731812,3,3,3,3,-9.710000000000001,-1.25,0.19,0.03,-0.05,0.04
0.625311017036438,3,3,3,3,-9.710000000000001,-1.27,0.22,0.07000000000000001,-0.07000000000000001,0.03
0.6353110074996948,3,3,3,3,-9.73,-1.17,0.3,0.09,-0.08,0.02
0.6453109979629517,3,3,3,3,-9.710000000000001,-1.18,0.33,0,-0.09,0.03
0.6553109884262085,3,3,3,3,-9.710000000000001,-1.25,0.35,-0.04,-0.04,0.03
0.6653109788894653,3,3,3,3,-9.73,-1.23,0.26,-0.04,-0.06,0.04
0.6753109693527222,3,3,3,3,-9.710000000000001,-1.26,0.29,-0.04,-0.05,0.03
0.685310959815979,3,3,3,3,-9.710000000000001,-1.25,0.32,-0.01,-0.05,0.03
0.6953109502792358,3,3,3,3,-9.720000000000001,-1.34,0.31,-0.06,-0.04,0.05
0.7053109407424927,3,3,3,3,-9.720000000000001,-1.35,0.25,-0.02,-0.06,0.05
0.7153109312057495,3,3,3,3,-9.720000000000001,-1.25,0.18,0.04,-0.08,0.02
0.7253109216690063,3,3,3,3,-9.720000000000001,-1.22,0.23,0.1,-0.06,0.02
0.7353109121322632,3,3,3,3,-9.720000000000001,-1.19,0.26,0.1,-0.09,0.01
0.74531090259552,3,3,3,3,-9.73,-1.14,0.34,0.08,-0.08,0
0.7553108930587769,3,3,3,3,-9.74,-1.16,0.28,0.06,-0.02,0.01
0.7653108835220337,3,3,3,3,-9.710000000000001,-1.13,0.27,0.01,-0.07000000000000001,0.01
0.7753108739852905,3,3,3,3,-9.699999999999999,-1.2,0.3,0.02,-0.06,0.05
0.7853111028671265,3,3,3,3,-9.74,-1.22,0.31,-0.02,-0.03,0.06
0.7953110933303833,3,3,3,3,-9.710000000000001,-1.18,0.32,-0.01,-0.02,0.06
0.8053110837936401,3,3,3,3,-9.73,-1.19,0.34,0,-0.05,0.07000000000000001
0.815311074256897,3,3,3,3,-9.74,-1.25,0.22,-0.08,-0.06,0.06
0.8253110647201538,3,3,3,3,-9.720000000000001,-1.21,0.26,-0.03,-0.02,0.06
0.8353110551834106,3,3,3,3,-9.710000000000001,-1.28,0.31,-0.06,-0.01,0.1
0.8453110456466675,3,3,3,3,-9.710000000000001,-1.25,0.35,0,-0.03,0.09
0.8553110361099243,3,3,3,3,-9.73,-1.25,0.36,-0.04,-0.06,0.08
0.8653110265731812,3,3,3,3,-9.720000000000001,-1.25,0.23,-0.02,-0.06,0.04
0.875311017036438,3,3,3,3,-9.710000000000001,-1.27,0.28,0.03,-0.03,0.05
0.8853110074996948,3,3,3,3,-9.699999999999999,-1.2,0.33,0.08,-0.06,0.06
0.8953109979629517,3,3,3,3,-9.699999999999999,-1.11,0.33,0.07000000000000001,-0.02,0.04
0.9053109884262085,3,3,3,3,-9.76,-1.12,0.29,0,-0.04,0.06
0.9153109788894653,3,3,3,3,-9.720000000000001,-1.13,0.21,-0.06,-0.02,0.07000000000000001
0.9253109693527222,3,3,3,3,-9.74,-1.13,0.25,-0.03,-0.01,0.05
0.935310959815979,3,3,3,3,-9.77,-1.15,0.31,0.02,-0.04,0.05
0.9453109502792358,3,3,3,3,-9.73,-1.19,0.35,0.04,-0.04,0.03
0.9553109407424927,3,3,3,3,-9.73,-1.19,0.29,0.12,-0.01,-0.01
0.9653109312057495,3,3,3,3,-9.710000000000001,-1.21,0.22,0.15,-0.01,-0.01
0.9753109216690063,3,3,3,3,-9.720000000000001,-1.16,0.24,0.18,-0.03,-0.01
0.9853109121322632,3,3,3,3,-9.720000000000001,-1.11,0.28,0.19,-0.03,-0.06
0.99531090259552,3,3,3,3,-9.74,-1.17,0.32,0.15,-0.02,-0.02
1.005310893058777,3,3,3,3,-9.74,-1.12,0.33,0.2,-0.05,-0.05
1.015310883522034,3,3,3,3,-9.720000000000001,-1.11,0.25,0.14,-0.01,-0.04
1.025310873985291,3,3,3,3,-9.74,-1.17,0.29,0.08,-0.01,-0.03
1.035311102867126,3,3,3,3,-9.710000000000001,-1.19,0.29,0.03,0.02,-0.01
1.045311093330383,3,3,3,3,-9.73,-1.28,0.31,-0.01,-0.02,0
1.056311011314392,3,3,3,3,-9.74,-1.27,0.34,0.01,0,-0.01
1.066311001777649,3,3,3,3,-9.69,-1.24,0.18,0,0.01,-0.08
1.076310992240906,3,3,3,3,-9.720000000000001,-1.2,0.27,-0.01,-0.08,-0.1
1.086310982704163,3,3,3,3,-9.720000000000001,-1.19,0.3,-0.01,-0.03,-0.13
1.096310973167419,3,3,3,3,-9.710000000000001,-1.17,0.37,-0.12,-0.05,-0.09
1.106310963630676,3,3,3,3,-9.73,-1.12,0.28,-0.14,-0.05,-0.07000000000000001
1.116310954093933,3,3,3,3,-9.69,-1.13,0.22,-0.19,-0.01,-0.07000000000000001
1.12631094455719,3,3,3,3,-9.75,-1.2,0.27,-0.23,0.02,-0.05
1.136310935020447,3,3,3,3,-9.74,-1.23,0.3,-0.18,-0.02,-0.05
1.146310925483704,3,3,3,3,-9.720000000000001,-1.25,0.35,-0.14,-0.05,-0.06
1.15631091594696,3,3,3,3,-9.73,-1.24,0.33,-0.07000000000000001,-0.02,-0.09
1.166310906410217,3,3,3,3,-9.720000000000001,-1.26,0.23,-0.08,-0.04,-0.1
1.176310896873474,3,3,3,3,-9.720000000000001,-1.2,0.28,-0.01,-0.05,-0.09
1.186310887336731,3,3,3,3,-9.720000000000001,-1.19,0.32,-0.01,-0.03,-0.11
1.196310877799988,3,3,3,3,-9.710000000000001,-1.22,0.31,-0.03,-0.03,-0.08
1.206310868263245,3,3,3,3,-9.710000000000001,-1.18,0.32,0.01,-0.02,-0.08
1.216311097145081,3,3,3,3,-9.74,-1.18,0.24,0,-0.01,-0.07000000000000001
1.226311087608337,3,3,3,3,-9.710000000000001,-1.24,0.3,-0.03,-0.03,-0.05
1.236311078071594,3,3,3,3,-9.720000000000001,-1.25,0.31,-0.01,-0.03,-0.03
1.276311039924622,3,3,3,3,-9.75,-1.26,0.25,0.02,-0.02,-0.13
1.286311030387878,3,3,3,3,-9.73,-1.21,0.28,0.08,-0.04,-0.14
1.296311020851135,3,3,3,3,-9.710000000000001,-1.21,0.38,0.05,-0.04,-0.14
1.306311011314392,3,3,3,3,-9.710000000000001,-1.21,0.32,0.03,-0.02,-0.12
1.316311001777649,3,3,3,3,-9.720000000000001,-1.17,0.25,-0.01,-0.02,-0.15
1.326310992240906,3,3,3,3,-9.710000000000001,-1.19,0.26,-0.06,-0.04,-0.12
1.336310982704163,3,3,3,3,-9.720000000000001,-1.22,0.31,-0.04,-0.05,-0.16
1.346310973167419,3,3,3,3,-9.710000000000001,-1.18,0.37,0,-0.04,-0.15
1.356310963630676,3,3,3,3,-9.720000000000001,-1.19,0.32,-0.03,-0.02,-0.12
1.366310954093933,3,3,3,3,-9.75,-1.23,0.24,-0.08,-0.03,-0.14
1.37631094455719,3,3,3,3,-9.710000000000001,-1.26,0.29,-0.04,-0.04,-0.14
1.386310935020447,3,3,3,3,-9.720000000000001,-1.27,0.28,-0.04,-0.02,-0.14
1.396310925483704,3,3,3,3,-9.73,-1.26,0.32,0.04,-0.07000000000000001,-0.18
1.40631091594696,3,3,3,3,-9.720000000000001,-1.26,0.38,0.09,-0.02,-0.21
1.416310906410217,3,3,3,3,-9.720000000000001,-1.23,0.24,0.11,-0.04,-0.24
1.426310896873474,3,3,3,3,-9.720000000000001,-1.23,0.28,0.08,-0.04,-0.26
1.446310877799988,3,3,3,3,-9.720000000000001,-1.2,0.35,0.02,-0.02,-0.21
1.456310868263245,3,3,3,3,-9.710000000000001,-1.14,0.32,-0.01,-0.07000000000000001,-0.25
1.486311078071594,3,3,3,3,-9.720000000000001,-1.26,0.31,-0.07000000000000001,-0.05,-0.23
1.496311068534851,3,3,3,3,-9.710000000000001,-1.29,0.3,-0.06,-0.07000000000000001,-0.22
1.506311058998108,3,3,3,3,-9.74,-1.3,0.3,-0.07000000000000001,-0.04,-0.23
1.516311049461365,3,3,3,3,-9.74,-1.35,0.18,-0.01,-0.04,-0.24
1.526311039924622,3,3,3,3,-9.74,-1.26,0.29,0.05,-0.03,-0.28
1.536311030387878,3,3,3,3,-9.699999999999999,-1.25,0.3,0.04,-0.01,-0.29
1.546311020851135,3,3,3,3,-9.699999999999999,-1.23,0.36,-0.02,0.02,-0.29
1.556311011314392,3,3,3,3,-9.73,-1.28,0.38,-0.05,0.04,-0.32
1.566311001777649,3,3,3,3,-9.74,-1.23,0.26,-0.04,0.02,-0.33
1.576310992240906,3,3,3,3,-9.73,-1.21,0.32,-0.08,-0.02,-0.3
1.586310982704163,3,3,3,3,-9.69,-1.29,0.37,-0.13,-0.03,-0.29
1.596310973167419,3,3,3,3,-9.69,-1.26,0.37,-0.08,0,-0.31
1.606310963630676,3,3,3,3,-9.699999999999999,-1.3,0.29,-0.07000000000000001,0.01,-0.32
1.616310954093933,3,3,3,3,-9.67,-1.35,0.23,-0.08,0.02,-0.27
1.62631094455719,3,3,3,3,-9.699999999999999,-1.36,0.24,-0.05,0.04,-0.25
1.636310935020447,3,3,3,3,-9.710000000000001,-1.42,0.28,0.02,0,-0.26
1.646310925483704,3,3,3,3,-9.710000000000001,-1.36,0.31,-0.01,0,-0.29
1.65631091594696,3,3,3,3,-9.69,-1.35,0.29,0,-0.02,-0.29
1.666310906410217,3,3,3,3,-9.69,-1.38,0.22,-0.03,0,-0.27
1.676310896873474,3,3,3,3,-9.720000000000001,-1.41,0.25,0,0.02,-0.27
1.686310887336731,3,3,3,3,-9.69,-1.39,0.37,0.02,0,-0.26
1.696310877799988,3,3,3,3,-9.69,-1.4,0.36,0.05,-0.02,-0.25
1.706310868263245,3,3,3,3,-9.720000000000001,-1.41,0.34,0.02,-0.01,-0.25
1.716311097145081,3,3,3,3,-9.720000000000001,-1.42,0.21,0,-0.06,-0.23
1.726311087608337,3,3,3,3,-9.69,-1.45,0.25,0.01,-0.02,-0.21
1.736311078071594,3,3,3,3,-9.67,-1.43,0.25,-0.02,-0.02,-0.23
1.746311068534851,3,3,3,3,-9.68,-1.4,0.3,0.02,-0.07000000000000001,-0.22
1.786311030387878,3,3,3,3,-9.699999999999999,-1.39,0.36,0.01,-0.07000000000000001,-0.17
1.796311020851135,3,3,3,3,-9.699999999999999,-1.45,0.35,0,-0.05,-0.15
1.806311011314392,3,3,3,3,-9.69,-1.45,0.3,0,-0.01,-0.1
1.817310929298401,3,3,3,3,-9.67,-1.45,0.23,0.03,-0.04,-0.12
1.826310992240906,3,3,3,3,-9.699999999999999,-1.45,0.21,0.03,-0.01,-0.13
1.836310982704163,3,3,3,3,-9.69,-1.48,0.28,0.08,-0.05,-0.12
1.846310973167419,3,3,3,3,-9.699999999999999,-1.37,0.36,0.08,-0.05,-0.14
1.856310963630676,3,3,3,3,-9.69,-1.41,0.35,0.05,-0.07000000000000001,-0.11
1.866310954093933,3,3,3,3,-9.69,-1.4,0.25,0.01,-0.09,-0.08
1.87631094455719,3,3,3,3,-9.68,-1.44,0.3,-0.02,-0.09,-0.09
1.886310935020447,3,3,3,3,-9.69,-1.43,0.31,-0.04,-0.07000000000000001,-0.1
1.896310925483704,3,3,3,3,-9.68,-1.4,0.34,-0.02,-0.08,-0.11
1.90631091594696,3,3,3,3,-9.699999999999999,-1.44,0.34,-0.02,-0.1,-0.09
1.916310906410217,3,3,3,3,-9.699999999999999,-1.43,0.23,-0.03,-0.07000000000000001,-0.08
1.926310896873474,3,3,3,3,-9.720000000000001,-1.36,0.28,-0.01,-0.09,-0.07000000000000001
1.936310887336731,3,3,3,3,-9.720000000000001,-1.35,0.3,-0.01,-0.08,-0.05
1.946310877799988,3,3,3,3,-9.710000000000001,-1.36,0.32,0.01,-0.13,-0.03
1.956310868263245,3,3,3,3,-9.69,-1.35,0.3,0.06,-0.11,-0.06
1.966311097145081,3,3,3,3,-9.68,-1.37,0.29,0.1,-0.12,-0.03
1.976311087608337,3,3,3,3,-9.67,-1.4,0.32,0.15,-0.12,0
1.986311078071594,3,3,3,3,-9.699999999999999,-1.36,0.32,0.13,-0.11,0
1.996311068534851,3,3,3,3,-9.710000000000001,-1.4,0.37,0.13,-0.08,0.01
2.006311058998108,3,3,3,3,-9.699999999999999,-1.41,0.35,0.14,-0.12,0.03
2.016311049461365,3,3,3,3,-9.69,-1.41,0.25,0.15,-0.14,0.01
2.027310967445374,3,3,3,3,-9.710000000000001,-1.41,0.25,0.14,-0.1,-0.01
2.036311030387878,3,3,3,3,-9.68,-1.44,0.36,0.15,-0.09,0.02
2.046311020851135,3,3,3,3,-9.67,-1.36,0.37,0.19,-0.1,-0.01
2.057310938835144,3,3,3,3,-9.68,-1.37,0.39,0.15,-0.1,-0.01
2.066311001777649,3,3,3,3,-9.69,-1.35,0.3,0.05,-0.1,-0.01
2.077310919761658,3,3,3,3,-9.710000000000001,-1.35,0.34,0.01,-0.09,0.03
2.087310910224915,3,3,3,3,-9.73,-1.38,0.39,-0.01,-0.12,0.02
2.097310900688171,3,3,3,3,-9.699999999999999,-1.35,0.4,0.01,-0.09,0.04
2.107310891151428,3,3,3,3,-9.710000000000001,-1.32,0.41,0.03,-0.08,0.04
2.117310881614685,3,3,3,3,-9.69,-1.34,0.3,0.03,-0.07000000000000001,0.05
2.127310872077942,3,3,3,3,-9.699999999999999,-1.3,0.34,0.03,-0.07000000000000001,0.05
2.137311100959778,3,3,3,3,-9.69,-1.32,0.37,-0.03,-0.07000000000000001,0.05
2.147311091423035,3,3,3,3,-9.68,-1.37,0.37,-0.06,-0.05,0.06
2.157311081886292,3,3,3,3,-9.699999999999999,-1.43,0.32,-0.06,-0.05,0.06
2.167311072349548,3,3,3,3,-9.720000000000001,-1.43,0.25,-0.06,-0.04,0.08
2.177311062812805,3,3,3,3,-9.68,-1.42,0.3,0.01,-0.1,0.07000000000000001
2.187311053276062,3,3,3,3,-9.69,-1.41,0.32,0.07000000000000001,-0.08,0.03
2.197311043739319,3,3,3,3,-9.699999999999999,-1.41,0.39,0.15,-0.01,0.03
2.207311034202576,3,3,3,3,-9.710000000000001,-1.41,0.4,0.15,-0.01,0.03
2.217311024665833,3,3,3,3,-9.68,-1.33,0.27,0.13,-0.05,0.01
2.227311015129089,3,3,3,3,-9.699999999999999,-1.31,0.32,0.17,-0.05,0.04
2.237311005592346,3,3,3,3,-9.73,-1.23,0.36,0.11,-0.04,0.06
2.247310996055603,3,3,3,3,-9.699999999999999,-1.22,0.41,0.1,-0.04,0.02
2.25731098651886,3,3,3,3,-9.699999999999999,-1.26,0.45,0.04,-0.04,0.03
2.267310976982117,3,3,3,3,-9.73,-1.28,0.3,-0.02,0.01,0.04
2.277310967445374,3,3,3,3,-9.68,-1.37,0.31,-0.06,0.02,0.04
2.28731095790863,3,3,3,3,-9.720000000000001,-1.37,0.37,-0.04,0,0.03
2.297310948371887,3,3,3,3,-9.67,-1.36,0.35,0.02,-0.01,0.04
2.307310938835144,3,3,3,3,-9.710000000000001,-1.39,0.31,0.01,-0.05,0.07000000000000001
2.317310929298401,3,3,3,3,-9.699999999999999,-1.36,0.27,-0.03,-0.05,0.06
2.327310919761658,3,3,3,3,-9.710000000000001,-1.39,0.36,0.02,-0.07000000000000001,0.06
2.337310910224915,3,3,3,3,-9.710000000000001,-1.35,0.34,0.01,-0.03,0.04
2.347310900688171,3,3,3,3,-9.69,-1.35,0.4,0.03,-0.07000000000000001,0.05
2.357310891151428,3,3,3,3,-9.68,-1.33,0.38,0.06,-0.05,0.03
2.367310881614685,3,3,3,3,-9.710000000000001,-1.34,0.26,0.07000000000000001,-0.02,0.01
2.377310872077942,3,3,3,3,-9.710000000000001,-1.3,0.27,0.06,0,0.02
2.387311100959778,3,3,3,3,-9.699999999999999,-1.33,0.37,0,0,0.06
2.397311091423035,3,3,3,3,-9.699999999999999,-1.33,0.38,-0.03,-0.02,0.06
2.407311081886292,3,3,3,3,-9.699999999999999,-1.35,0.4,-0.01,0,0.01
2.417311072349548,3,3,3,3,-9.699999999999999,-1.35,0.32,0,0.02,0.02
2.427311062812805,3,3,3,3,-9.720000000000001,-1.3,0.35,0.08,-0.02,0.03
2.437311053276062,3,3,3,3,-9.699999999999999,-1.27,0.37,0.08,-0.02,0.01
2.447311043739319,3,3,3,3,-9.699999999999999,-1.33,0.43,0.02,-0.02,0.04
2.457311034202576,3,3,3,3,-9.699999999999999,-1.32,0.39,0.01,0.02,0.02
2.467311024665833,3,3,3,3,-9.710000000000001,-1.34,0.29,-0.06,0,0.03
2.477311015129089,3,3,3,3,-9.68,-1.32,0.36,-0.05,0,0.08
2.487311005592346,3,3,3,3,-9.69,-1.34,0.34,-0.06,0.02,0.04
2.497310996055603,3,3,3,3,-9.710000000000001,-1.4,0.4,-0.09,0.03,0.05
2.50731098651886,3,3,3,3,-9.710000000000001,-1.4,0.33,-0.13,-0.01,0.08
2.517310976982117,3,3,3,3,-9.69,-1.29,0.3,-0.07000000000000001,0.01,0.1
2.527310967445374,3,3,3,3,-9.720000000000001,-1.25,0.31,-0.01,-0.01,0.09
2.53731095790863,3,3,3,3,-9.720000000000001,-1.19,0.36,-0.06,-0.05,0.09
2.547310948371887,3,3,3,3,-9.73,-1.02,0.38,-0.1,-0.05,0.12
2.557310938835144,3,3,3,3,-9.720000000000001,-0.93,0.43,-0.17,-0.05,0.16
2.567310929298401,3,3,3,3,-9.74,-0.91,0.37,-0.18,-0.08,0.22
2.577310919761658,3,3,3,3,-9.710000000000001,-0.9399999999999999,0.35,-0.23,-0.06,0.24
2.587310910224915,3,3,3,3,-9.76,-1.01,0.4,-0.31,0,0.29
2.597310900688171,3,3,3,3,-9.74,-1.03,0.39,-0.35,-0.06,0.36
2.607310891151428,3,3,3,3,-9.699999999999999,-1.05,0.4,-0.39,-0.09,0.41
2.617310881614685,3,3,3,3,-9.74,-1.23,0.26,-0.44,-0.09,0.42
2.627310872077942,3,3,3,3,-9.67,-1.41,0.21,-0.46,-0.09,0.43
2.637311100959778,3,3,3,3,-9.69,-1.45,0.24,-0.42,-0.07000000000000001,0.38
2.647311091423035,3,3,3,3,-9.710000000000001,-1.45,0.26,-0.3,-0.05,0.32
2.657311081886292,3,3,3,3,-9.69,-1.47,0.28,-0.17,-0.02,0.24
2.667311072349548,3,3,3,3,-9.68,-1.22,0.23,-0.03,-0.07000000000000001,0.21
2.677311062812805,3,3,3,3,-9.710000000000001,-1.13,0.32,0.05,-0.02,0.2
2.687311053276062,3,3,3,3,-9.710000000000001,-0.88,0.42,0.09,0.01,0.22
2.697311043739319,3,3,3,3,-9.74,-0.68,0.44,0.13,0.03,0.25
2.707311034202576,3,3,3,3,-9.74,-0.47,0.49,0.04,0.04,0.35
2.717311024665833,3,3,3,3,-9.699999999999999,-0.33,0.47,-0.05,-0.01,0.47
2.727311015129089,3,3,3,3,-9.74,-0.33,0.52,-0.17,0.06,0.5600000000000001
2.737311005592346,3,3,3,3,-9.75,-0.3,0.46,-0.29,0.11,0.7
2.747310996055603,3,3,3,3,-9.74,-0.3,0.48,-0.44,0.15,0.89
2.75731098651886,3,3,3,3,-9.710000000000001,-0.22,0.45,-0.43,0.2,1.06
2.767310976982117,3,3,3,3,-9.68,-0.2,0.32,-0.32,0.2,1.21
2.777310967445374,3,3,3,3,-9.75,0,0.33,-0.29,0.29,1.36
2.78731095790863,3,3,3,3,-9.69,0.18,0.3,-0.27,0.3,1.61
2.797310948371887,3,3,3,3,-9.720000000000001,0.49,0.34,-0.27,0.27,1.86
2.807310938835144,3,3,3,3,-9.68,0.66,0.51,-0.23,0.25,2.18
2.817310929298401,3,3,3,3,-9.73,-0.09,0.5600000000000001,-0.44,0.35,2.56
2.827310919761658,3,3,3,3,-9.630000000000001,-0.1,0.44,-0.95,0.49,2.92
2.837310910224915,3,3,3,3,-9.56,0.05,0.52,-0.65,0.55,3.21
2.847310900688171,3,3,3,3,-9.52,0.16,0.71,-0.06,0.59,3.43
2.857310891151428,3,3,3,3,-9.460000000000001,0.66,0.66,0.79,0.72,3.68
2.867310881614685,3,3,3,3,-9.6,1.06,0.58,1.55,0.8100000000000001,3.87
2.877310872077942,3,3,3,3,-9.51,0.57,0.87,1.5,0.6,4.26
2.887311100959778,3,3,3,3,-9.35,0.68,0.88,1.14,0.45,4.61
2.897311091423035,3,3,3,3,-9.33,0.32,1.11,1.31,0.59,4.96
2.907311081886292,3,3,3,3,-9.15,0.88,0.88,1.4,0.48,5.43
2.917311072349548,3,3,3,3,-9.199999999999999,2.03,0.8100000000000001,2.46,0.63,5.63
2.927311062812805,3,3,3,3,-9.26,2.97,0.99,3.3,0.78,6.03
2.937311053276062,3,3,3,3,-9.01,3.2,1.52,3.29,0.48,6.77
2.947311043739319,3,3,3,3,-8.65,2.7,1.47,2.38,0.08,7.74
2.957311034202576,3,3,3,3,-8.58,2.69,1.11,1.55,0.04,8.359999999999999
2.967311024665833,3,3,3,3,-8.550000000000001,1.93,1.11,0.6,0.08,8.77
2.977311015129089,3,3,3,3,-8.210000000000001,1.65,0.6899999999999999,-0.2,0.17,8.9
2.987311005592346,3,3,3,3,-8.23,1.28,0.62,0.29,0.61,8.960000000000001
2.997310996055603,3,3,3,3,-8.41,1.33,0.35,1.26,0.71,9.029999999999999
3.00731098651886,3,3,3,3,-8.51,0.59,0.28,2.21,0.46,9.09
3.017310976982117,3,3,3,3,-8.630000000000001,-0.76,-0.21,1.23,0.03,9.1
3.027310967445374,3,3,3,3,-9.08,-0.13,-0.08,2.9,0.17,8.869999999999999
3.03731095790863,3,3,3,3,-9.029999999999999,0.3,0.08,5.14,0.18,8.5
3.047310948371887,3,3,3,3,-8.82,1.1,0,7.47,0.23,8.359999999999999
3.057310938835144,3,3,3,3,-8.43,0.71,0.09,7.92,0.36,8.92
3.067310929298401,3,3,3,3,-8.52,1,-0.6,7.33,0.51,9.65
3.077310919761658,3,3,3,3,-8.550000000000001,1.49,-0.57,8.050000000000001,0.63,10.19
3.087310910224915,3,3,3,3,-8.539999999999999,1.24,-0.3,8.35,0.99,10.25
3.098311066627502,3,3,3,3,-8.66,1.96,-0.93,8.609999999999999,1.63,10.11
3.108311057090759,3,3,3,3,-8.56,1.12,-0.37,7.93,1.61,9.77
3.118311047554016,3,3,3,3,-8.550000000000001,1.27,-0.25,6.02,1.76,9.5
3.128311038017273,3,3,3,3,-9.34,-0.39,-0.25,4.68,2.91,9.17
3.13831102848053,3,3,3,3,-9.56,-0.55,-0.53,2.3,3.36,8.83
3.148311018943787,3,3,3,3,-9.32,-0.86,-0.23,3.19,2.82,8.550000000000001
3.158311009407043,3,3,3,3,-9.390000000000001,-0.88,-0.42,4.42,2.39,8.01
3.1683109998703,3,3,3,3,-9.869999999999999,0.18,-0.7,6.22,2.31,7.53
3.178310990333557,3,3,3,3,-10.36,0.9,-0.66,7.53,2.48,7.05
3.188310980796814,3,3,3,3,-10.73,1.46,-0.45,8.210000000000001,2.77,6.69
3.198310971260071,3,3,3,3,-11.02,1.41,0.09,7.81,3.42,6.86
3.208310961723328,3,3,3,3,-10.82,0.63,-0.82,5.56,3.47,7.26
3.218310952186584,3,3,3,3,-10.67,0.38,-1.02,3.51,3.15,7.32
3.228310942649841,3,3,3,3,-11.02,0.45,-1.1,2.45,3.03,6.98
3.238310933113098,3,3,3,3,-11.41,0.89,-1.18,2.14,3.17,6.25
3.248310923576355,3,3,3,3,-11.66,0.54,-0.8100000000000001,1.14,3.18,5.56
3.258310914039612,3,3,3,3,-11.7,0.36,-1.13,-0.9399999999999999,2.87,5.07
3.268310904502869,3,3,3,3,-12.08,0.14,-0.7,-2.72,2.76,4.41
3.278310894966125,3,3,3,3,-12.19,-0.75,-0.17,-3.6,2.75,3.5
3.288310885429382,3,3,3,3,-12.39,-1.95,-0.37,-4.23,2.32,2.35
3.298310875892639,3,3,3,3,-12.97,-1.98,-0.34,-4.03,1.89,1.01
3.308311104774475,3,3,3,3,-13.73,-2.07,-0.13,-2.79,0.96,-0.49
3.318311095237732,3,3,3,3,-14.51,-2.06,0.01,-1.67,-0.13,-2.19
3.328311085700989,3,3,3,3,-16.01,-2.21,0.43,-0.68,-0.99,-3.92
3.338311076164246,3,3,3,3,-16.8,-3.11,0.73,-0.8,-1.76,-5.23
3.348311066627502,3,3,3,3,-17.44,-3.64,1.03,-1.54,-2.41,-6.21
3.358311057090759,3,3,3,3,-17.92,-3.9,1.82,-2.01,-2.88,-7.11
3.368311047554016,3,3,3,3,-18.13,-4.84,4.82,-2.72,-3.57,-7.84
3.378311038017273,3,3,3,3,-18.04,-5.81,6.07,-3.31,-4.57,-8.859999999999999
3.38831102848053,3,3,3,3,-18.24,-7.03,6.7,-3.54,-5.85,-10.49
3.398311018943787,3,3,3,2,-18.9,-8.25,6.25,-2.63,-7.48,-12.84
3.408311009407043,3,3,3,2,-21.03,-10.13,3.3,-0.39,-9.33,-15.62
3.4183109998703,3,3,3,2,-22.43,-11.6,1.38,1.59,-10.46,-18.18
3.428310990333557,3,3,3,2,-24.12,-13.02,-0.52,2.76,-11.24,-20.36
3.438310980796814,3,3,3,2,-25.89,-15,-2.71,3.33,-11.23,-21.93
3.448310971260071,3,3,3,2,-28.37,-15.53,-8.52,4.21,-10.29,-23.29
3.458310961723328,3,3,3,2,-29.32,-12.65,-10.68,6.57,-8.83,-24.32
3.468310952186584,3,3,3,2,-30.44,-7.37,-12.73,8.460000000000001,-6.92,-25.68
3.478310942649841,3,3,3,2,-30.02,0.96,-14.02,7.06,-5.38,-27.13
3.488310933113098,3,3,3,2,-23.66,6.68,-6.19,1.44,-3.21,-27.22
3.498310923576355,3,3,3,1,-18.27,5.69,-1.89,0.22,-0.89,-27.73
3.508310914039612,3,3,3,1,-13.89,1.83,0.61,1.99,0.55,-29.31
3.518310904502869,3,3,3,1,-8.94,-1.99,2.7,8.42,0.82,-29.83
3.528310894966125,3,3,3,1,-0.57,37.89,5.75,29.06,-1.68,-29.58
3.538310885429382,3,3,3,1,-4.24,39.23,15.57,31.18,-5.55,-22.92
3.548310875892639,3,3,3,1,-0.27,39.13,11.93,15.81,-7.3,-5.32
3.558311104774475,3,3,3,1,-0.64,11.25,-0.12,-2.09,1.41,5.24
3.568311095237732,3,3,3,1,-3.56,-4,-4.05,-12.41,10.12,10.6
3.578311085700989,3,3,3,1,-8.220000000000001,-5.78,-0.42,-11.87,11.18,11.48
3.588311076164246,3,3,3,1,-7.04,-0.14,2.44,-3.56,9.470000000000001,7.31
3.598311066627502,3,3,3,1,-1.42,-3.02,3.08,-0.25,3.83,7.71
3.608311057090759,3,3,3,1,-0.04,-5.4,-0.43,-0.76,3.93,9.15
3.618311047554016,3,3,3,1,0.83,-9.27,-1.89,-4.54,3.65,9.17
3.628311038017273,3,3,3,1,1.52,-11.38,-1.66,-8.91,2.68,8.640000000000001
3.63831102848053,3,3,3,1,0.41,-9.199999999999999,-4.3,-7.86,2.07,6.96
3.648311018943787,3,3,3,1,0.04,-7.11,-4.38,-3.6,0.85,5.11
3.658311009407043,3,3,3,1,0.12,-3.68,-4.37,4.96,-1.47,3.69
3.6683109998703,3,3,3,1,0.3,-1.1,-4.11,9.470000000000001,-4.2,3.55
3.678310990333557,3,3,3,1,1.54,0.9,-2.32,7.12,-6.58,4.1
3.688310980796814,3,3,3,1,1.38,1,-1.42,3.37,-7.24,4.8
3.698310971260071,3,3,3,1,0.86,-0.34,-0.71,-0.9,-6.16,4.98
3.708310961723328,3,3,3,1,0.7,-1.7,-0.11,-2.09,-4.08,4.63
3.718310952186584,3,3,3,1,1.59,-2.2,1.01,-1.01,-1.55,4.34
3.728310942649841,3,3,3,1,1.46,-1.41,1.37,-0.71,1.18,3.8
3.738310933113098,3,3,3,1,0.84,-0.55,1.18,0,3.47,3.13
3.748310923576355,3,3,3,1,0.01,0,0.8100000000000001,0.74,4.52,2.58
3.758310914039612,3,3,3,1,-0.66,1.55,0.93,1.47,4.4,2.14
3.768310904502869,3,3,3,1,-0.73,2.72,0.99,1.14,3.72,2.57
3.778310894966125,3,3,3,1,-0.96,3.58,1.29,-1.36,3.31,3.39
3.788310885429382,3,3,3,1,-1.35,3.63,0.97,-6.07,3.34,4.31
3.798310875892639,3,3,3,1,-0.52,2.71,-1.12,-8.69,2.84,5.21
3.808311104774475,3,3,3,1,-0.38,2.09,-1.51,-8.359999999999999,2.11,5.68
3.818311095237732,3,3,3,1,-0.74,1.39,-1.97,-7.8,1.86,5.21
3.828311085700989,3,3,3,1,-0.89,1.53,-1.98,-6.39,1.31,4.35
3.838311076164246,3,3,3,1,-0.86,0.5,-0.44,-5.57,0.04,3.43
3.848311066627502,3,3,3,1,-0.53,0.02,0.6,-5.08,-1.55,2.74
3.858311057090759,3,3,3,1,-0.22,-0.27,1.99,-3.54,-3.14,1.99
3.868311047554016,3,3,3,1,0.04,-0.61,2.63,-1.69,-4.7,1.74
3.878311038017273,3,3,3,1,-1.48,5.6,0.71,0.22,-4.98,1.28
3.88831102848053,3,3,3,1,-4.22,16.52,1.38,4.38,-5.02,0.34
3.898311018943787,3,3,3,1,-4.86,14.09,4.68,3.51,-6.35,-0.6899999999999999
3.908311009407043,3,3,3,1,-5.06,-6,6.32,-11.41,-1.84,-2.61
3.9183109998703,3,3,3,1,-19.77,-4.14,-6.39,-14.03,0.58,-5.48
3.928310990333557,3,3,3,1,-27.41,6.24,-2.38,4.93,-4.13,-8.49
3.938310980796814,3,3,3,1,-26.48,8.460000000000001,-2.17,15.18,-2.45,-4.75
3.948310971260071,3,3,3,1,-18.26,0.39,-20,2.43,7.74,6.54
3.958310961723328,3,3,3,1,-31.41,34.33,-29.2,2.34,10.73,13.78
3.968310952186584,3,3,3,1,-39.33,39.23,33.3,-14.12,10.6,30.52
3.978310942649841,3,3,3,1,-38.64,15.84,9.52,-85.38,2.79,31.28
3.988310933113098,3,3,3,2,-2.7,-36.42,-7.63,-85.38,2.79,31.28
3.998310923576355,3,3,3,2,-9.859999999999999,-39.21,-16.69,-123.82,10.49,34.19
4.009311079978943,3,3,3,2,-11.66,-39.07,-14.53,45.07,7.84,11.03
4.018310904502869,3,3,3,2,-2.21,-38.61,-12.93,115.53,13.72,3.09
4.028310894966125,3,3,3,2,-15.62,0.09,-4.49,102.87,4.61,-6.36
4.038310885429382,3,3,3,2,-18.77,11.48,1.5,102.87,4.61,-6.36
4.048310875892639,3,3,3,2,-18.98,23.49,2.65,69.59999999999999,-10.22,-13.67
4.058311104774475,3,3,3,2,-19.92,25.91,1.83,-14.27,-3.64,-2.34
4.068311095237732,3,3,3,2,-30.52,5.62,-0.7,-37.81,1.37,7.37
4.078311085700989,3,3,3,2,-26.15,-4.57,-1.93,-46.03,1.45,11.35
4.088311076164246,3,3,3,2,-13.9,-8.93,-0.63,-46.03,1.45,11.35
4.098311066627502,3,3,3,2,-6.1,-8.93,-0.24,-36.08,0.55,8.609999999999999
4.108311057090759,3,3,3,2,-8.869999999999999,-7.5,0.96,-18.68,0.64,2.45
4.118311047554016,3,3,3,2,-11.93,-5.39,0.97,-12.1,0.57,-1.03
4.129310965538025,3,3,3,2,-13.93,-3.92,0.97,-8.67,0.37,-4.94
4.149310946464539,3,3,3,2,-11.84,-5.91,-1.57,-4.56,-0.31,-8.42
4.159310936927795,3,3,3,2,-9.800000000000001,-5.91,-1.78,10.16,-1.85,-10.8
4.169310927391052,3,3,3,2,-8.859999999999999,-5.42,-2.12,16.13,-2.27,-10.23
4.179310917854309,3,3,3,2,-8.880000000000001,-3.96,-2.39,19.67,-2.32,-9.07
4.189310908317566,3,3,3,2,-9.83,1.35,-1.98,19.67,-2.32,-9.07
4.199310898780823,3,3,3,2,-10.24,3.44,-1.7,18.5,-1.94,-7.64
4.20931088924408,3,3,3,2,-10.13,4.73,-1.41,6.28,-0.95,-4.99
4.219310879707336,3,3,3,2,-9.800000000000001,5.48,-1.2,-0.14,-0.35,-4.16
4.229310870170593,3,3,3,2,-8.43,5.56,-0.19,-6.16,0.03,-4.03
4.239311099052429,3,3,3,2,-7.81,4.82,0,-6.16,0.03,-4.03
4.249311089515686,3,3,3,2,-7.25,4.01,0.15,-10.85,0.3,-4.45
4.259311079978943,3,3,3,2,-6.96,3.17,0.41,-15.39,0.72,-5.84
4.2693110704422,3,3,3,2,-7.28,1.39,0.28,-14.74,0.91,-6.17
4.279311060905457,3,3,3,2,-7.57,1.18,0.26,-12.09,0.96,-6
4.289311051368713,3,3,3,2,-7.75,1.11,0.48,-12.09,0.96,-6
4.29931104183197,3,3,3,2,-7.87,0.92,0.6,-9.050000000000001,0.97,-5.43
4.309311032295227,3,3,3,2,-8.27,0.98,0.19,-3.24,0.63,-3.83
4.319311022758484,3,3,3,2,-8.07,1.04,0.13,-0.67,0.36,-3.25
4.329311013221741,3,3,3,2,-7.92,1.41,0.13,1.68,0.33,-3.24
4.339311003684998,3,3,3,2,-8.4,2.43,0.13,1.68,0.33,-3.24
4.349310994148254,3,3,3,2,-8.640000000000001,2.71,0.28,2.64,0.11,-3.43
4.359310984611511,3,3,3,2,-8.94,3.16,0.48,3.26,-0.06,-3.55
4.369310975074768,3,3,3,2,-9.31,3.51,0.45,2.07,0.01,-3.34
4.379310965538025,3,3,3,2,-9.56,3.09,0.61,-0.09,0.19,-2.91
4.389310956001282,3,3,3,2,-9.539999999999999,2.39,0.57,-0.09,0.19,-2.91
4.399310946464539,3,3,3,2,-9.48,1.51,0.47,-2.01,0.43,-2.51
4.409310936927795,3,3,3,2,-9.52,0.49,0.31,-4.28,0.67,-2.1
4.419310927391052,3,3,3,2,-9.779999999999999,-1.18,-0.13,-4.01,0.71,-2.2
4.429310917854309,3,3,3,2,-10.04,-1.68,-0.22,-3.09,0.6899999999999999,-2.51
4.439310908317566,3,3,3,2,-10.34,-1.84,-0.13,-3.09,0.6899999999999999,-2.51
4.449310898780823,3,3,3,2,-10.39,-1.84,-0.08,-1.6,0.67,-2.92
4.45931088924408,3,3,3,2,-10.22,-1.74,-0.17,1.04,0.53,-3.73
4.469310879707336,3,3,3,2,-10.17,-1.53,-0.07000000000000001,1.92,0.35,-4.06
4.479310870170593,3,3,3,2,-10.03,-1.44,0.07000000000000001,2.56,0.09,-4.3
4.489311099052429,3,3,3,2,-9.869999999999999,-0.9,0.03,2.56,0.09,-4.3
4.499311089515686,3,3,3,2,-9.75,-0.29,0,2.72,-0.04,-4.3
4.509311079978943,3,3,3,2,-9.66,-0.09,-0.09,1.46,-0.03,-3.97
4.5193110704422,3,3,3,2,-9.539999999999999,-0.07000000000000001,-0.15,0.63,0.11,-3.81
4.529311060905457,3,3,3,2,-9.56,-0.13,-0.23,-0.17,0.2,-3.79
4.539311051368713,3,3,3,2,-9.66,-0.57,0.03,-0.17,0.2,-3.79
4.54931104183197,3,3,3,2,-9.619999999999999,-0.32,0.05,-0.28,0.33,-3.91
4.559311032295227,3,3,3,2,-9.52,-0.16,0.04,-0.77,0.35,-4.04
4.569311022758484,3,3,3,2,-9.44,-0.04,0.06,-0.79,0.34,-3.95
4.579311013221741,3,3,3,2,-9.380000000000001,0.75,0.16,-1.02,0.2,-3.67
4.589311003684998,3,3,3,2,-9.390000000000001,0.83,0.36,-1.02,0.2,-3.67
4.599310994148254,3,3,3,2,-9.41,0.85,0.59,-1.73,0.19,-3.28
4.609310984611511,3,3,3,2,-9.33,0.82,0.68,-2.38,0.45,-2.36
4.619310975074768,3,3,3,2,-9.300000000000001,-0.09,0.14,-2.46,0.52,-1.96
4.629310965538025,3,3,3,2,-9.35,-0.4,0.08,-2.14,0.57,-1.67
4.639310956001282,3,3,3,2,-9.449999999999999,-0.5600000000000001,-0.09,-2.14,0.57,-1.67
4.649310946464539,3,3,3,2,-9.56,-0.44,-0.14,-1.31,0.42,-1.43
4.659310936927795,3,3,3,2,-9.51,-0.19,0.01,0.22,-0.12,-0.9399999999999999
4.669310927391052,3,3,3,2,-9.4,0.08,-0.02,0.61,-0.14,-0.57
4.679310917854309,3,3,3,2,-9.470000000000001,0.3,-0.11,0.7,-0.12,-0.11
4.689310908317566,3,3,3,2,-9.619999999999999,0.13,0.05,0.7,-0.12,-0.11
4.699310898780823,3,3,3,2,-9.460000000000001,0.01,0.25,0.91,-0.16,0.27
4.70931088924408,3,3,3,2,-9.529999999999999,-0.08,0.35,1.67,-0.04,0.92
4.719310879707336,3,3,3,2,-9.66,-0.26,0.12,1.56,-0.11,1.24
4.729310870170593,3,3,3,2,-9.619999999999999,-0.8,0.09,1.78,-0.03,1.48
4.739311099052429,3,3,3,2,-9.57,-1.09,-0.2,1.78,-0.03,1.48
4.749311089515686,3,3,3,2,-9.77,-1.45,-0.4,2,-0.01,1.54
4.759311079978943,3,3,3,2,-9.82,-2.16,-0.33,1.87,-0.27,1.21
4.7693110704422,3,3,3,2,-9.67,-1.96,-0.35,2.16,-0.21,1.06
4.779311060905457,3,3,3,2,-9.720000000000001,-1.89,-0.23,2.19,-0.16,0.87
4.789311051368713,3,3,3,2,-9.73,-1.75,-0.22,2.19,-0.16,0.87
4.79931104183197,3,3,3,2,-9.789999999999999,-1.54,-0.08,1.86,-0.29,0.71
4.809311032295227,3,3,3,2,-10.01,-1.48,-0.08,0.44,-0.61,0.64
4.819311022758484,3,3,3,2,-10.08,-1.48,-0.23,-0.19,-0.64,0.67
4.829311013221741,3,3,3,2,-10.07,-1.53,-0.12,-0.7,-0.47,0.65
4.839311003684998,3,3,3,3,-9.99,-1.87,-0.07000000000000001,-0.7,-0.47,0.65
4.849310994148254,3,3,3,3,-9.789999999999999,-2.44,-0.19,-1.24,-0.32,0.55
4.859310984611511,3,3,3,3,-9.73,-2.29,-0.3,-0.78,-0.07000000000000001,0.24
4.869310975074768,3,3,3,3,-9.800000000000001,-1.95,-0.4,-0.3,-0.17,0.09
4.879310965538025,3,3,3,3,-9.82,-1.47,-0.27,-0.02,-0.29,0.08
4.889310956001282,3,3,3,3,-9.59,-0.01,-0.03,-0.02,-0.29,0.08
4.899310946464539,3,3,3,3,-9.369999999999999,0.72,0.04,-0.02,-0.35,0.3
4.909310936927795,3,3,3,3,-9.06,1.31,0.31,-0.71,-0.22,1.57
4.919310927391052,3,3,3,3,-8.630000000000001,2.25,0.54,-0.8100000000000001,-0.11,2.52
4.929310917854309,3,3,3,3,-8.18,4.47,1.11,-0.73,-0.13,3.61
4.939310908317566,3,3,3,3,-8.130000000000001,5.81,1.25,-0.73,-0.13,3.61
4.949310898780823,3,3,3,3,-8.19,5.56,1.14,-1.88,-0.29,4.96
4.95931088924408,3,3,3,3,-8.32,3.72,1,-7.15,-0.16,6.44
4.969310879707336,3,3,3,3,-8.960000000000001,1.32,0.88,-7.81,0.08,6.41
4.979310870170593,3,3,3,3,-9.17,-0.07000000000000001,0.6,-6.07,0,6.1
4.989311099052429,3,3,3,3,-9.359999999999999,-0.51,0.12,-6.07,0,6.1
4.999311089515686,3,3,3,3,-9.359999999999999,0.1,0.11,-2.65,-0.45,5.87
5.009311079978943,3,3,3,3,-8.640000000000001,0.79,0.37,1.42,-0.8100000000000001,6.94
5.0193110704422,3,3,3,3,-8.109999999999999,2.04,0.31,2.56,-0.21,7.66
5.030310988426208,3,3,3,3,-7.55,2.41,0.63,2.07,0.18,8.449999999999999
5.039311051368713,3,3,3,3,-7.55,2.41,0.63,2.07,0.18,8.449999999999999
5.04931104183197,3,3,3,3,-7.51,3.09,0.02,2.25,-0.12,8.82
5.059311032295227,3,3,3,3,-7.65,3,0.27,4.32,-0.66,9.640000000000001
5.069311022758484,3,3,3,3,-7.63,0.79,0.38,4.99,-0.6899999999999999,10.53
5.079311013221741,3,3,3,3,-7.42,-2.56,-0.5600000000000001,5.13,-0.37,11.22
5.089311003684998,3,3,3,3,-7.42,-2.56,-0.5600000000000001,5.13,-0.37,11.22
5.099310994148254,3,3,3,3,-7.77,-3.05,-1.17,6.41,0.34,10.94
5.109310984611511,3,3,3,3,-9.67,-0.85,-1.99,14.35,0.85,7.9
5.119310975074768,3,3,3,3,-10.42,0.21,-1.36,14.19,0.72,7.3
5.129310965538025,3,3,3,3,-10.46,1.22,-1.84,12.71,1.28,7.64
5.139310956001282,3,3,3,3,-10.46,1.22,-1.84,12.71,1.28,7.64
5.150310873985291,3,3,3,3,-10.55,1.72,-1.38,9.94,2.86,8.289999999999999
5.170311093330383,3,3,3,3,-10.81,0.26,-0.24,1.53,3.98,9.359999999999999
5.18031108379364,3,3,3,3,-10.79,-0.1,0.03,1.51,4.12,9.24
5.190311074256897,3,3,3,3,-10.79,-0.1,0.03,1.51,4.12,9.24
5.200311064720154,3,3,3,3,-10.21,0.45,-0.21,1.2,3.99,9.31
5.210311055183411,3,3,3,3,-10.63,0.28,-0.19,-0.74,3.67,8.27
5.220311045646667,3,3,3,3,-11.1,-0.03,-0.61,-2.43,3.21,7.21
5.230311036109924,3,3,3,3,-11.92,-1.28,0.02,-3.47,2.75,6.15
5.240311026573181,3,3,3,3,-11.92,-1.28,0.02,-3.47,2.75,6.15
5.250311017036438,3,3,3,3,-12.22,-2.37,-0.36,-4.67,1.81,3.93
5.260311007499695,3,3,3,3,-13.24,-2.85,-1.2,-3.23,1.18,2.55
5.270310997962952,3,3,3,3,-15.1,-2.77,-0.93,-1.82,0.62,0.95
5.280310988426208,3,3,3,3,-15.9,-2.77,-0.5,-0.89,0.16,-0.41
5.290310978889465,3,3,3,3,-15.9,-2.77,-0.5,-0.89,0.16,-0.41
5.300310969352722,3,3,3,3,-16.35,-3.23,0.39,-0.4,-0.31,-1.43
5.310310959815979,3,3,3,3,-17.11,-3.81,2.27,0.58,-1.32,-3.4
5.320310950279236,3,3,3,3,-17.37,-4.04,2.85,0.79,-2.19,-4.36
5.330310940742493,3,3,3,3,-17.68,-4.37,3.31,0.27,-3.58,-5.62
5.34031093120575,3,3,3,2,-17.68,-4.37,3.31,0.27,-3.58,-5.62
5.350310921669006,3,3,3,2,-17.98,-5.22,3.97,-0.65,-5.04,-7.03
5.360310912132263,3,3,3,2,-19.15,-7.8,4.13,-1.54,-7.89,-10.29
5.37031090259552,3,3,3,2,-19.58,-8.73,3.44,-1.12,-9.23,-12.04
5.380310893058777,3,3,3,2,-20.3,-9.5,2.51,-0.24,-10.29,-14.05
5.390310883522034,3,3,3,2,-20.3,-9.5,2.51,-0.24,-10.29,-14.05
5.400310873985291,3,3,3,2,-22.8,-12.06,-0.05,0.5600000000000001,-10.78,-16.18
5.410311102867126,3,3,3,2,-26.22,-15.74,-3.86,2.21,-10.15,-20.53
5.420311093330383,3,3,3,2,-27.57,-16.68,-5.64,3.51,-9.06,-22.49
5.43031108379364,3,3,3,2,-30.62,-13.49,-9.91,6.1,-7.41,-24.66
5.440311074256897,3,3,3,2,-30.62,-13.49,-9.91,8.84,-5.84,-27.4
5.450311064720154,3,3,3,2,-31.27,-7.34,-10.83,8.59,-4.21,-29
5.460311055183411,3,3,3,2,-27.02,1.72,-7.99,11.82,-2.13,-30.19
5.470311045646667,3,3,3,2,-18.06,5.09,-4.14,14.34,-1.72,-31.47
5.480311036109924,3,3,3,2,-13.16,0.44,-2.7,13.05,-2.97,-32.25
5.490311026573181,3,3,3,2,-13.16,0.44,-2.7,26.07,-5.36,-33.01
5.500311017036438,3,3,3,2,-7.38,2.95,-0.26,40.68,-11.03,-31.12
5.510311007499695,3,3,3,2,-1.28,39.08,16.7,27.1,-9.720000000000001,-12.43
5.520310997962952,3,3,3,2,5,36.62,4.63,-6.45,5.56,4.75
5.530310988426208,3,3,3,2,4.65,10.86,1.09,-13.04,11.02,12.08
5.540310978889465,3,3,3,2,4.65,10.86,1.09,-11.35,12.17,14.26
5.550310969352722,3,3,3,2,-12.18,-12.56,1.01,5.15,9.58,8.970000000000001
5.560310959815979,3,3,3,2,-3.37,-2.11,6.26,13.25,2.4,7.68
5.570310950279236,3,3,3,2,-1.46,-2.03,4.01,14.56,3.61,9.6
5.580310940742493,3,3,3,2,0.7,-10.35,-0.58,4.62,2.41,12.69
5.59031093120575,3,3,3,2,0.7,-10.35,-0.58,-2.72,-0.96,13.41
5.600310921669006,3,3,3,2,4.07,-10.43,-4.73,-4.41,2.83,11.78
5.610310912132263,3,3,3,2,1.44,-9.58,-5.32,-5.75,4.79,10.39
5.62031090259552,3,3,3,2,-0.58,-6.44,-4.9,0.24,-0.03,7.29
5.630310893058777,3,3,3,2,0.18,-0.93,-5.18,10.19,-4.55,4.59
5.640310883522034,3,3,3,2,0.18,-0.93,-5.18,7.98,-7.71,5.13
5.650310873985291,3,3,3,2,1.73,1.66,-3.53,-0.87,-9.199999999999999,5.62
5.660311102867126,3,3,3,2,0.78,0.8100000000000001,-0.78,-7.16,-8.24,5.41
5.670311093330383,3,3,3,2,-0.33,-1.1,0.38,-9.24,-5.97,4.66
5.68031108379364,3,3,3,2,-0.24,-2.2,0.72,-7.3,-3.79,3.62
5.690311074256897,3,3,3,2,-0.24,-2.2,0.72,-5.03,-1.25,3.82
5.700311064720154,3,3,3,2,0.42,0.63,2.39,-4.82,1,4.9
5.710311055183411,3,3,3,2,-0.14,1.46,2.59,-6.54,2.86,6.05
5.720311045646667,3,3,3,2,-0.75,1.94,2.46,-8.210000000000001,3.65,6.41
5.730311036109924,3,3,3,2,-1.51,2.02,2.25,-9.300000000000001,3.26,5.93
5.740311026573181,3,3,3,2,-1.51,2.02,2.25,-10.41,2.15,4.93
5.750311017036438,3,3,3,2,-1.31,0.42,-0.39,-11.47,1.88,3.97
5.760311007499695,3,3,3,2,-1.4,0.16,-1.43,-11.67,2.43,3.3
5.770310997962952,3,3,3,2,-1.12,0,-1.75,-11.4,2.24,3.14
5.780310988426208,3,3,3,2,0.3,-1.05,-2.52,-11.39,1.46,3.34
5.790310978889465,3,3,3,2,0.3,-1.05,-2.52,-9.35,0.8100000000000001,3.47
5.800310969352722,3,3,3,2,0.74,-0.86,-2.41,-6.66,0.02,3.45
5.810310959815979,3,3,3,2,0.57,-1.08,-1.84,-4.67,-0.62,3.34
5.820310950279236,3,3,3,2,0.32,-2.2,-0.45,-2.17,-1.19,3.17
5.830310940742493,3,3,3,2,0.01,-2.31,-0.14,0.51,-1.67,2.8
5.84031093120575,3,3,3,2,0.01,-2.31,-0.14,3.64,-1.61,2.25
5.850310921669006,3,3,3,2,-0.59,-0.28,0.06,6.59,-1.25,1.71
5.860310912132263,3,3,3,2,-3.19,9.710000000000001,1.78,9.65,-1.82,1.27
5.87031090259552,3,3,3,2,-5.6,18.88,7.45,18.51,-3.96,1.38
5.880310893058777,3,3,3,2,-7.12,15.36,12.38,13.02,-3.67,-0.03
5.890310883522034,3,3,3,2,-7.12,15.36,12.38,0.31,0.58,-2.61
5.900310873985291,3,3,3,2,-8.550000000000001,-3.26,2.98,0.19,0.34,-4.41
5.910311102867126,3,3,3,2,-24.77,-5.92,-0.04,9.56,-0.14,-6.1
5.920311093330383,3,3,3,2,-29.4,2.77,-0.77,19.55,0.54,-2.24
5.93031108379364,3,3,3,2,-22.18,3.05,-8.039999999999999,19.71,6.15,7.75
5.940311074256897,3,3,3,2,-16.35,3.03,-12.21,9.32,11.34,14.16
5.950311064720154,3,3,3,2,-21.37,17.59,-20.33,15.42,10.47,12.75
5.960311055183411,3,3,3,2,-37.32,38.98,-15.26,31.27,8.26,12.66
5.970311045646667,3,3,3,2,-36.79,10.46,11.68,-23.53,6.22,24.57
5.980311036109924,3,3,3,2,-14.78,-17.42,3.01,-67.77,4.98,26.93
5.990311026573181,3,3,3,2,-9.58,-38.23,-6.76,-92.75,10.73,16.71
6.000311017036438,3,3,3,2,-9.94,-39.21,-4.82,-79.18000000000001,11.85,12.65
6.010311007499695,3,3,3,2,-10.29,-36.04,-6.27,3.81,8.390000000000001,8.800000000000001
6.020310997962952,3,3,3,2,-6.3,-21.38,-4.97,56.16,6.79,3.26
6.030310988426208,3,3,3,2,-9.289999999999999,-7.63,-1.35,74.11,4.52,-4.94
6.040310978889465,3,3,3,2,-16.17,5.26,2.14,69.34,-0.47,-12.26
6.050310969352722,3,3,3,2,-23.24,19.85,5.79,43.44,-6.89,-15.09
6.060310959815979,3,3,3,2,-23.27,16.19,4.99,5.61,-9.27,-9.960000000000001
6.070310950279236,3,3,3,2,-24.53,4.8,1.78,-25.96,-3.53,1.02
6.080310940742493,3,3,3,2,-21.64,-5.38,0.35,-35.78,0.72,8.460000000000001
6.09031093120575,3,3,3,2,-9.48,-9.27,0.32,-29.92,0.46,8.52
6.100310921669006,3,3,3,2,-8.65,-9.23,-0.55,-20.26,-0.41,4.56
6.110310912132263,3,3,3,2,-8.960000000000001,-8.029999999999999,-0.04,-10.31,-0.3,0.82
6.12031090259552,3,3,3,2,-10.06,-5.78,0.44,-2.99,-0.43,-2.39
6.130310893058777,3,3,3,2,-12.43,-0.95,0.42,-0.1,-0.82,-5.63
6.140310883522034,3,3,3,2,-12.61,-0.35,0,-1.29,-1.27,-8.35
6.150310873985291,3,3,3,2,-11.7,-1.13,-0.34,-3.17,-1.75,-9.710000000000001
6.160311102867126,3,3,3,2,-10.36,-2.3,-0.89,-2.87,-2.11,-9.59
6.170311093330383,3,3,3,2,-9.16,-2.54,-1.39,-0.71,-2.35,-8.77
6.181311011314392,3,3,3,2,-9.27,-1.22,-1.7,2.08,-2.45,-7.73
6.191311001777649,3,3,3,2,-9.48,0.19,-1.79,3.49,-2.05,-6.58
6.201310992240906,3,3,3,2,-9.220000000000001,1.25,-1.99,3.15,-1.19,-5.89
6.211310982704163,3,3,3,2,-8.199999999999999,2.48,-2.09,2.05,-0.11,-5.51
6.221310973167419,3,3,3,2,-7.72,2.97,-1.77,1.09,0.63,-5.27
6.231310963630676,3,3,3,2,-7.2,3.51,-1.28,-0.21,0.99,-5.31
6.241310954093933,3,3,3,2,-6.69,3.6,-0.8,-2.58,1.09,-5.26
6.25131094455719,3,3,3,2,-6.3,3.86,0.37,-5.29,0.99,-5.36
6.261310935020447,3,3,3,2,-6.62,4.05,1.04,-7.41,0.95,-5.47
6.271310925483704,3,3,3,2,-7.12,4.12,1.7,-8.67,0.74,-5.47
6.28131091594696,3,3,3,2,-7.66,3.19,2.54,-9.27,0.35,-5.29
6.291310906410217,3,3,3,2,-7.85,2.66,2.73,-8.869999999999999,0.08,-4.94
6.301310896873474,3,3,3,2,-8.1,1.89,2.78,-7.64,-0.02,-4.21
6.311310887336731,3,3,3,2,-8.18,0.8100000000000001,2.36,-6.05,-0.08,-3.17
6.321310877799988,3,3,3,2,-8.75,-0.74,1.68,-3.3,0.21,-2.19
6.341311097145081,3,3,3,2,-9,-0.62,1.04,3.41,-0.05,-1.24
6.351311087608337,3,3,3,2,-8.970000000000001,-0.13,0.7,5.95,-0.23,-1.26
6.361311078071594,3,3,3,2,-9.33,0.63,-0.05,7.11,-0.21,-1.45
6.371311068534851,3,3,3,2,-9.74,1.49,-0.45,7.49,-0.18,-1.78
6.381311058998108,3,3,3,2,-9.98,2.33,-0.64,7.15,-0.32,-2.06
6.391311049461365,3,3,3,2,-10.04,2.92,-0.57,5.78,-0.24,-2.1
6.401311039924622,3,3,3,2,-9.720000000000001,2.54,-0.22,3.34,-0.15,-1.83
6.411311030387878,3,3,3,2,-9.58,2.15,-0.18,0.72,0.2,-1.53
6.421311020851135,3,3,3,2,-9.630000000000001,1.06,0.01,-2.03,0.49,-1.26
6.431311011314392,3,3,3,2,-9.720000000000001,-0.03,0.16,-3.86,0.64,-1.22
6.441311001777649,3,3,3,2,-10.09,-2.16,0.19,-4.4,0.83,-1.52
6.451310992240906,3,3,3,2,-10.3,-2.41,0.29,-3.49,0.73,-2.13
6.461310982704163,3,3,3,2,-10.4,-2.61,0.55,-1.99,0.54,-2.67
6.491310954093933,3,3,3,2,-9.91,-0.91,0.5,0.7,0.52,-3.67
6.50131094455719,3,3,3,2,-9.699999999999999,-0.57,0.45,0.38,0.47,-3.63
6.511310935020447,3,3,3,2,-9.56,-0.27,0.14,-0.18,0.57,-3.45
6.521310925483704,3,3,3,2,-9.52,0.15,-0.07000000000000001,-0.85,0.63,-3.31
6.53131091594696,3,3,3,2,-9.48,0.05,-0.06,-1.64,0.59,-3.18
6.541310906410217,3,3,3,2,-9.49,0.15,-0.1,-2.02,0.62,-3.25
6.551310896873474,3,3,3,2,-9.56,0.39,-0.08,-2.21,0.64,-3.44
6.561310887336731,3,3,3,2,-9.58,0.29,0.13,-2.43,0.5600000000000001,-3.56
6.571310877799988,3,3,3,2,-9.56,0.33,0.33,-2.53,0.58,-3.63
6.581310868263245,3,3,3,2,-9.52,0.38,0.53,-2.37,0.48,-3.68
6.591311097145081,3,3,3,2,-9.4,0.26,0.68,-2.1,0.4,-3.57
6.601311087608337,3,3,3,2,-9.34,-0.01,0.76,-1.45,0.29,-3.36
6.611311078071594,3,3,3,2,-9.41,-0.04,0.55,-0.87,0.2,-2.97
6.621311068534851,3,3,3,2,-9.52,-0.22,0.65,-0.57,0.15,-2.57
6.631311058998108,3,3,3,2,-9.470000000000001,-0.15,0.58,-0.03,0.09,-2.19
6.641311049461365,3,3,3,2,-9.6,-0.24,0.28,0.35,0.09,-1.88
6.651311039924622,3,3,3,2,-9.710000000000001,-0.34,0.28,0.63,-0.06,-1.64
6.661311030387878,3,3,3,2,-9.68,-0.38,0.09,0.84,-0.19,-1.38
6.671311020851135,3,3,3,2,-9.57,-0.75,0.16,0.86,-0.17,-1.18
6.681311011314392,3,3,3,2,-9.6,-1.1,0.24,0.87,-0.26,-1.02
6.691311001777649,3,3,3,2,-9.6,-1.32,0.41,0.87,-0.26,-0.9
6.701310992240906,3,3,3,2,-9.640000000000001,-1.29,0.36,0.86,-0.16,-0.86
6.711310982704163,3,3,3,2,-9.77,-1.76,0.33,0.5,-0.07000000000000001,-0.86
6.721310973167419,3,3,3,2,-9.76,-1.76,0.41,0.43,0.04,-0.95
6.731310963630676,3,3,3,2,-9.74,-1.67,0.41,0.59,0.07000000000000001,-0.97
6.741310954093933,3,3,3,2,-9.76,-1.58,0.44,0.72,0,-1.03
6.75131094455719,3,3,3,2,-9.710000000000001,-1.61,0.26,0.59,-0.08,-1
6.761310935020447,3,3,3,2,-9.640000000000001,-1.44,0.11,0.44,-0.08,-0.9
6.771310925483704,3,3,3,2,-9.619999999999999,-1.41,0.11,0.26,-0.02,-0.78
6.78131091594696,3,3,3,2,-9.6,-1.17,0.07000000000000001,0.21,-0.07000000000000001,-0.7
6.791310906410217,3,3,3,2,-9.56,-0.77,0.2,0.2,-0.18,-0.63
6.801310896873474,3,3,3,2,-9.6,-0.6899999999999999,0.23,0.11,-0.29,-0.5
6.811310887336731,3,3,3,2,-9.67,-0.73,0.22,-0.17,-0.26,-0.47
6.821310877799988,3,3,3,2,-9.710000000000001,-0.7,0.29,-0.5,-0.19,-0.4
6.831310868263245,3,3,3,2,-9.710000000000001,-0.8100000000000001,0.36,-0.86,-0.04,-0.34
6.841311097145081,3,3,3,2,-9.74,-1.13,0.43,-1.37,0.07000000000000001,-0.25
6.851311087608337,3,3,3,2,-9.73,-1.31,0.45,-1.5,0.21,-0.18
6.861311078071594,3,3,3,2,-9.720000000000001,-1.29,0.33,-1.41,0.3,-0.22
6.871311068534851,3,3,3,2,-9.57,-1.46,0.47,-1.33,0.28,-0.26
6.881311058998108,3,3,3,2,-9.44,-1.42,0.49,-1.01,0.2,-0.22
6.891311049461365,3,3,3,2,-9.42,-1.6,0.5600000000000001,-0.64,0.24,-0.16
6.901311039924622,3,3,3,2,-9.49,-1.56,0.57,-0.08,0.28,-0.11
6.911311030387878,3,3,3,2,-9.65,-1.42,0.34,0.27,0.23,-0.02
6.921311020851135,3,3,3,2,-9.65,-1.41,0.39,0.61,0.1,0.14
6.931311011314392,3,3,3,2,-9.6,-1.21,0.39,1.05,0.01,0.31
6.941311001777649,3,3,3,2,-9.56,-0.99,0.38,1.64,-0.08,0.49
6.951310992240906,3,3,3,2,-9.42,-0.5,0.38,1.89,-0.14,0.7
6.961310982704163,3,3,3,2,-9.380000000000001,-0.65,0.38,1.62,-0.04,1.05
6.971310973167419,3,3,3,2,-9.44,-0.68,0.39,1.43,0.04,1.39
6.981310963630676,3,3,3,2,-9.470000000000001,-0.6,0.44,1.45,0.16,1.6
6.991310954093933,3,3,3,2,-9.65,-0.47,0.51,1.49,0.27,1.71
7.00131094455719,3,3,3,2,-9.789999999999999,-0.48,0.55,0.9,0.15,1.73
7.011310935020447,3,3,3,2,-9.68,-0.44,0.55,0.58,-0.01,1.8
7.021310925483704,3,3,3,2,-9.460000000000001,-0.13,0.52,0.62,-0.03,1.99
7.03131091594696,3,3,3,2,-9.119999999999999,0.98,0.63,0.55,-0.05,2.39
7.041310906410217,3,3,3,2,-8.91,1.62,0.7,0.07000000000000001,-0.06,3.06
7.051310896873474,3,3,3,2,-8.66,1.25,0.93,-1.27,0.12,4.07
7.061310887336731,3,3,3,2,-8.49,1.4,0.77,-1.8,0.2,4.97
7.071310877799988,3,3,3,2,-8.31,1.22,0.93,-1.89,0.25,5.7
7.081310868263245,3,3,3,2,-8.65,1.07,0.63,-1.19,0.09,5.76
7.091311097145081,3,3,3,2,-9.34,1.1,0.66,-0.89,-0.16,5.5
7.101311087608337,3,3,3,2,-10.05,1.25,0.47,-0.58,-0.29,5.56
7.111311078071594,3,3,3,2,-9.98,1.63,0.17,-0.6,-0.38,5.92
7.121311068534851,3,3,3,2,-9.550000000000001,1.5,0.11,-1.32,-0.2,6.52
7.131311058998108,3,3,3,2,-9.109999999999999,1.33,0.13,-2.18,0.35,7.28
7.141311049461365,3,3,3,2,-8.460000000000001,0.2,-0.01,-3.07,0.73,7.77
7.151311039924622,3,3,3,2,-8.26,-0.03,0.02,-2.88,1.41,7.9
7.161311030387878,3,3,3,2,-8.43,-0.18,0.2,-1.78,2.14,7.97
7.171311020851135,3,3,3,2,-8.48,-0.51,0.6899999999999999,-0.12,1.75,8.07
7.181311011314392,3,3,3,2,-7.96,0.17,1.18,2.13,0.74,8.32
7.191311001777649,3,3,3,2,-7.41,0.48,1.3,3.94,-0.02,8.73
7.202310919761658,3,3,3,2,-6.92,1.43,0.9399999999999999,5.74,-0.28,9.07
7.212310910224915,3,3,3,2,-6.9,1.32,0.74,5.44,0,9.65
7.222310900688171,3,3,3,2,-7.53,0.13,0.39,4.9,0.57,9.98
7.232310891151428,3,3,3,2,-8.24,-0.03,-0.67,5.92,1.23,10.3
7.242310881614685,3,3,3,2,-8.93,0.43,-0.97,7.63,1.03,10.26
7.252310872077942,3,3,3,2,-9.48,0.45,-0.43,8.81,0.9,10.16
7.262311100959778,3,3,3,2,-9.869999999999999,-0.43,-0.83,8.27,0.98,10.15
7.272311091423035,3,3,3,2,-9.9,-1.23,-0.74,6.54,1.79,10.33
7.282311081886292,3,3,3,2,-10.35,-1.26,-1.43,5.24,2.26,10.16
7.292311072349548,3,3,3,2,-10.47,-1.32,-2.1,4.21,2.67,9.609999999999999
7.302311062812805,3,3,3,2,-11.21,-0.33,-1.43,4.21,2.67,9.609999999999999
7.312311053276062,3,3,3,2,-11.23,0.19,-1.25,4.68,3.36,9
7.322311043739319,3,3,3,2,-11.33,0.98,-0.89,3.29,4.42,8.869999999999999
7.332311034202576,3,3,3,2,-11.13,1.49,-0.33,3.29,4.42,8.869999999999999
7.342311024665833,3,3,3,2,-10.61,1.1,0.16,-0.36,4.8,9.199999999999999
7.352311015129089,3,3,3,2,-10.42,1.15,0.38,-0.36,4.8,9.199999999999999
7.362311005592346,3,3,3,2,-10.67,0.77,0.18,-0.58,4.71,8.720000000000001
7.372310996055603,3,3,3,2,-10.66,-0.16,-0.38,-0.53,4.18,7.96
7.38231098651886,3,3,3,2,-11.23,-0.97,-1.43,-1.12,3.37,7.09
7.392310976982117,3,3,3,2,-11.68,-1.38,-1.52,-1.95,2.17,5.09
7.402310967445374,3,3,3,2,-12.14,-2.04,-1.67,-1.95,2.17,5.09
7.41231095790863,3,3,3,2,-12.78,-2.41,-1.76,-2.58,1.46,3.74
7.422310948371887,3,3,3,2,-14.37,-1.91,-1.66,-2.16,0.95,2.13
7.432310938835144,3,3,3,2,-15.34,-2.38,-1.35,-1.34,0.46,0.52
7.442310929298401,3,3,3,2,-16.12,-2.94,-1.08,-1.51,0.02,-1.03
7.452310919761658,3,3,3,2,-16.96,-3.61,-0.51,-1.62,-0.71,-2.41
7.462310910224915,3,3,3,2,-17.98,-5.1,1.5,-1.67,-1.22,-3.43
7.472310900688171,3,3,3,2,-17.96,-5.58,2.99,-1.58,-1.64,-4.2
7.482310891151428,3,3,3,2,-17.84,-6.2,4.41,-1.26,-2.11,-4.73
7.492310881614685,3,3,3,1,-17.45,-5.89,6.73,-0.71,-2.97,-5.56
7.502310872077942,3,3,3,1,-17.49,-6.44,7.31,0.12,-4.39,-6.81
7.512311100959778,3,3,3,1,-17.46,-6.89,6.56,0.19,-6.43,-8.5
7.522311091423035,3,3,3,1,-18.03,-7.8,5.87,0.27,-8.279999999999999,-10.15
7.532311081886292,3,3,3,1,-20.11,-9.789999999999999,2.54,0.72,-9.83,-12.08
7.542311072349548,3,3,3,1,-21.71,-10.85,1.16,1.49,-11.17,-14.38
7.552311062812805,3,3,3,1,-23.55,-12.69,-0.33,2.12,-11.61,-16.79
7.562311053276062,3,3,3,1,-25.2,-14.81,-3.13,2.03,-11.47,-18.91
7.572311043739319,3,3,3,1,-27.29,-15.21,-8.68,2.45,-10.4,-20.7
7.582311034202576,3,3,3,1,-27.88,-12.32,-10.76,4.67,-8.57,-22.31
7.592311024665833,3,3,3,1,-28.67,-5.8,-12.69,7.37,-6.84,-23.9
7.602311015129089,3,3,3,1,-27.97,-0.59,-12.61,7.99,-5.17,-26.59
7.612311005592346,3,3,3,1,-23.77,5.63,-8.51,5.74,-3.26,-28.3
7.622310996055603,3,3,3,1,-21.04,5.31,-6.34,5.5,-1.1,-29.68
7.63231098651886,3,3,3,1,-17.04,0.88,-4.15,7.46,0.17,-30.99
7.642310976982117,3,3,3,0,-12.9,-3.75,-1.71,9.699999999999999,0.51,-31.78
7.652310967445374,3,3,3,0,-5.86,39.23,9.26,27.4,-1.87,-33.8
7.66231095790863,3,3,3,0,-1.63,39.23,20.87,41.03,-10.37,-31.87
7.672310948371887,3,3,3,0,-1.6,39.16,9.51,21.2,-9.67,-15.47
7.682310938835144,3,3,3,0,4.88,29.71,4.36,-4.2,6.24,-2.65
7.692310929298401,3,3,3,0,-4.45,-10.87,-0.19,-10.13,11.84,7.3
7.702310919761658,3,3,3,0,-9.26,-9.640000000000001,1.09,-10.26,11,10.77
7.712310910224915,3,3,3,0,-7.52,-1.17,5.32,-0.82,10.02,3.96
7.722310900688171,3,3,3,0,-1.98,0.67,6.27,9.76,4.14,0.49
7.732310891151428,3,3,3,0,0.08,-2.66,2.22,12.42,3.44,4.41
7.742310881614685,3,3,3,0,2.11,-8.529999999999999,-0.54,2.09,4.07,9.81
7.752310872077942,3,3,3,0,3.33,-10.7,-4.82,-10.69,0.9,12.83
7.762311100959778,3,3,3,0,1.83,-9.039999999999999,-7.09,-14.66,2.04,11.85
7.772311091423035,3,3,3,0,0.13,-7.91,-3.5,-15.49,2.52,10.52
7.782311081886292,3,3,3,0,-0.51,-6.38,-2.54,-12.19,0.16,8.43
7.792311072349548,3,3,3,0,-0.15,-4.33,-2.68,-5.62,-2.54,6.26
7.802311062812805,3,3,3,0,0.51,-1.13,-2.67,-1.18,-4.69,5.06
7.812311053276062,3,3,3,0,2,2.95,-1.89,1.29,-5.7,4.58
7.822311043739319,3,3,3,0,1.57,2.56,-1.77,-1.53,-6.47,4.86
7.832311034202576,3,3,3,0,0.45,1.05,-1.57,-3.94,-6.92,5.12
7.842311024665833,3,3,3,0,-0.42,-0.93,-0.9,-4.26,-6.26,5.47
7.852311015129089,3,3,3,0,0.12,-1.93,-1.04,-2.9,-5.4,6.23
7.862311005592346,3,3,3,0,0.49,-0.95,-0.92,0.49,-4.34,7.38
7.872310996055603,3,3,3,0,0.68,0.26,-0.64,1.33,-1.97,8.58
7.88231098651886,3,3,3,0,0.27,2.46,0.75,0,0.68,9.41
7.892310976982117,3,3,3,0,-0.85,2.48,1.66,-3.31,2.95,9.710000000000001
7.902310967445374,3,3,3,0,-1.87,1.87,1.73,-8.27,4.49,9.300000000000001
7.91231095790863,3,3,3,0,-2.26,1.54,1,-11.57,4.43,7.81
7.922310948371887,3,3,3,0,-1.54,0.11,-0.46,-12.14,3.51,6.08
7.932310938835144,3,3,3,0,-1.12,-0.4,-0.17,-12.24,2.82,4.7
7.942310929298401,3,3,3,0,-0.83,-1.5,-0.19,-12.22,2.58,4.4
7.952310919761658,3,3,3,0,-0.6899999999999999,-2.51,-0.75,-11.57,2.03,4.58
7.962310910224915,3,3,3,0,-0.38,-4.03,-2.02,-8.43,1.83,4.36
7.972310900688171,3,3,3,0,0.19,-3.35,-2.73,-3.03,1.35,3.95
7.992310881614685,3,3,3,0,0.68,-0.59,-1.77,7.79,-0.5600000000000001,5.11
8.002310872077942,3,3,3,0,-0.65,2.09,-1.63,8.869999999999999,-1.59,5.8
8.012311100959778,3,3,3,0,-2.46,8.32,-0.61,7.51,-1.91,5.5
8.022311091423035,3,3,3,0,-3.77,21.2,5.21,8.56,-2.75,4.62
8.032311081886292,3,3,3,0,-6.87,23.69,13.13,15.49,-5.02,3.69
8.042311072349548,3,3,3,0,-11.41,-13.3,0.78,0.15,-1.07,-0.34
8.052311062812805,3,3,3,0,-23.84,-10.53,-1.09,-20.06,3.12,-4.46
8.062311053276062,3,3,3,0,-30.79,9.74,1.21,-5.97,0.25,-10.66
8.072311043739319,3,3,3,0,-30.68,13.35,0.02,19.08,-2.54,-7.7
8.082311034202576,3,3,3,0,-18.74,0.83,-11.23,5.05,5.17,5.9
8.092311024665833,3,3,3,1,-14.71,2.1,-10.98,-1.63,10.41,15.47
8.102311015129089,3,3,3,1,-25.04,17.59,-16.94,5.51,10.5,14.33
8.112311005592346,3,3,3,1,-39.15,37.27,-4.41,19.64,10.15,12.07
8.122310996055603,3,3,3,1,-34.68,-9.4,11.58,-4.66,7.46,16.96
8.13231098651886,3,3,3,1,-13.81,-27.24,4.67,-53.61,6.17,23.79
8.142310976982117,3,3,3,2,-6.87,-39.21,-1.33,-67.08,9.279999999999999,18.03
8.152310967445374,3,3,3,2,-6.89,-39.21,-1.19,-54.22,12.47,7.79
8.16231095790863,3,3,3,2,-15.76,-15.44,-2.11,12.11,9.199999999999999,0.51
8.172310948371887,3,3,3,2,-16.46,-4.57,2.51,57.17,4.24,-2.38
8.182310938835144,3,3,3,2,-17.8,1.08,5.79,60.42,0.2,-6.39
8.192310929298401,3,3,3,2,-19.71,4.07,4.8,42.72,-4.58,-10.54
8.202310919761658,3,3,3,2,-22.29,4.26,3.61,17.97,-7.07,-10.14
8.212310910224915,3,3,3,2,-23.04,-1.34,1.59,-5.24,-6,-4.72
8.223311066627502,3,3,3,2,-19.45,-6.43,0.53,-19.82,-3.48,2.11
8.233311057090759,3,3,3,2,-13.71,-7.11,0.21,-22.25,-1.57,4.59
8.243311047554016,3,3,3,2,-11.31,-6.27,-0.53,-17.17,-0.6,2.11
8.253311038017273,3,3,3,2,-11.09,-5.2,-1.01,-12.38,-0.25,-1.33
8.26331102848053,3,3,3,2,-10.73,-3.48,-1.82,-8.02,-0.5,-4.24
8.273311018943787,3,3,3,2,-10.15,-1.81,-3.07,-5.39,-0.71,-6.57
8.283311009407043,3,3,3,2,-9.51,-2.25,-3.6,-5.13,-0.87,-8.48
8.2933109998703,3,3,3,2,-8.640000000000001,-2.83,-3.83,-5.17,-1.02,-10.06
8.303310990333557,3,3,3,2,-8.029999999999999,-3.11,-3.93,-3.7,-0.9399999999999999,-10.83
8.313310980796814,3,3,3,2,-7.74,-2.53,-4.15,-0.67,-0.88,-10.62
8.323310971260071,3,3,3,2,-7.52,-2.09,-3.81,2.46,-0.68,-9.82
8.333310961723328,3,3,3,2,-6.76,-1.25,-3.55,4.36,-0.28,-8.82
8.343310952186584,3,3,3,2,-6.23,-0.19,-3.01,5.17,0.26,-8.94
8.353310942649841,3,3,3,2,-5.74,2.04,-2.13,5.73,0.7,-9.609999999999999
8.363310933113098,3,3,3,2,-5.86,3.4,-1.12,4.84,0.49,-10.46
8.373310923576355,3,3,3,2,-5.92,5.17,0.26,3.61,-0.26,-11.49
8.383310914039612,3,3,3,2,-6.28,6.71,1.69,0.66,-1.32,-11.74
8.393310904502869,3,3,3,1,-7.81,6.73,4.48,-4.72,-2.52,-11.18
8.403310894966125,3,3,3,1,-8.31,6.03,5.05,-10.92,-3.36,-10.25
8.413310885429382,3,3,3,1,-8.77,5.09,4.72,-14.81,-2.87,-9.06
8.423310875892639,3,3,3,1,-9.15,3.1,4.15,-16.74,-1.4,-7.53
8.433311104774475,3,3,3,1,-9.25,0.73,3.25,-16.24,-0.28,-5.62
8.443311095237732,3,3,3,1,-9.470000000000001,0.78,2.67,-12.37,0.67,-3.85
8.453311085700989,3,3,3,1,-9.25,1.23,1.8,-6.79,1.31,-2.09
8.463311076164246,3,3,3,1,-8.720000000000001,1.51,0.9399999999999999,-2.56,1.07,-0.8
8.473311066627502,3,3,3,1,-8.69,1.88,-0.21,-0.38,0.6899999999999999,-0.35
8.483311057090759,3,3,3,1,-9.49,2.05,-0.66,0.92,0.55,-0.64
8.493311047554016,3,3,3,1,-10.29,1.69,-0.8,1.37,0.44,-1.21
8.503311038017273,3,3,3,1,-10.58,1.15,-0.89,1.54,-0.01,-1.73
8.51331102848053,3,3,3,1,-10.75,-0.47,-0.76,1.9,-0.33,-2.14
8.523311018943787,3,3,3,1,-10.58,-1.65,-0.58,2.65,-0.45,-2.47
8.533311009407043,3,3,3,1,-10.46,-3.04,-0.37,2.55,-0.78,-2.75
8.5433109998703,3,3,3,1,-10.39,-4.05,-0.2,2.56,-0.88,-3.18
8.553310990333557,3,3,3,1,-10.12,-5.21,0.14,2.77,-0.92,-3.65
8.563310980796814,3,3,3,1,-9.75,-4.83,0.24,3.46,-1.1,-4.14
8.573310971260071,3,3,3,1,-9.41,-4.28,0.5,4.25,-1.25,-4.54
8.583310961723328,3,3,3,1,-9.23,-3.57,0.68,4.46,-1.3,-4.75
8.593310952186584,3,3,3,1,-9.06,-2.61,1.07,3.86,-1.3,-4.84
8.603310942649841,3,3,3,1,-9,-2.01,1.22,2.63,-1.2,-4.9
8.613310933113098,3,3,3,1,-9,-1.37,1.33,1.61,-0.99,-5.04
8.623310923576355,3,3,3,1,-9,-1.05,1.42,0.43,-0.79,-5.09
8.633310914039612,3,3,3,1,-9.279999999999999,-0.47,1.34,-1.04,-0.5600000000000001,-5.02
8.643310904502869,3,3,3,1,-9.359999999999999,0.07000000000000001,1.27,-2.21,-0.67,-5.07
8.653310894966125,3,3,3,1,-9.449999999999999,0.46,1.11,-3.34,-0.86,-5.11
8.663310885429382,3,3,3,1,-9.5,0.45,1.03,-5.12,-0.89,-4.85
8.673310875892639,3,3,3,1,-9.4,1.62,0.64,-5.89,-1.04,-4.55
8.683311104774475,3,3,3,1,-9.56,1.54,0.52,-6.78,-1.04,-4.06
8.693311095237732,3,3,3,1,-9.68,1.25,0.35,-7.68,-0.8100000000000001,-3.23
8.703311085700989,3,3,3,1,-9.9,1.18,0,-7.26,-0.63,-2.5
8.713311076164246,3,3,3,1,-10,0.72,-0.12,-6.17,-0.49,-1.75
8.723311066627502,3,3,3,1,-10.02,0.11,-0.15,-5.08,-0.26,-1.03
8.733311057090759,3,3,3,1,-10.02,-0.63,-0.13,-3.9,-0.06,-0.51
8.743311047554016,3,3,3,1,-10.08,-2.18,0.11,-2.56,0.19,-0.23
8.753311038017273,3,3,3,1,-9.99,-2.79,0.21,-1.35,0.55,-0.03
8.76331102848053,3,3,3,1,-9.949999999999999,-3.24,0.37,-0.17,0.71,0.04
8.773311018943787,3,3,3,1,-9.67,-3.5,0.67,0.95,0.82,-0.05
8.783311009407043,3,3,3,1,-9.18,-3.6,0.76,2.62,0.8,-0.13
8.7933109998703,3,3,3,1,-8.92,-3.63,0.7,3.79,0.73,-0.08
8.803310990333557,3,3,3,1,-8.960000000000001,-3.6,0.58,4.77,0.49,-0.17
8.813310980796814,3,3,3,1,-9.06,-3.31,0.36,5.18,0.17,-0.28
8.823310971260071,3,3,3,1,-9.27,-2.75,0.03,5.24,0.03,-0.36
8.833310961723328,3,3,3,1,-9.42,-2.37,-0.07000000000000001,5,-0.09,-0.45
8.843310952186584,3,3,3,2,-9.5,-2,-0.03,4.3,-0.09,-0.64
8.853310942649841,3,3,3,2,-9.550000000000001,-1.73,-0.08,3.47,-0.12,-0.77
8.863310933113098,3,3,3,2,-9.52,-1.29,0.01,2.36,-0.03,-1.02
8.873310923576355,3,3,3,2,-9.5,-1.12,0.14,1.19,-0.02,-1.17
8.883310914039612,3,3,3,2,-9.550000000000001,-1.28,0.24,-0.22,0.02,-1.17
8.893310904502869,3,3,3,2,-9.619999999999999,-1.37,0.32,-1.63,0.03,-1.18
8.903310894966125,3,3,3,2,-9.66,-1.82,0.32,-2.74,0,-1.08
8.913310885429382,3,3,3,2,-9.630000000000001,-2.01,0.25,-3.47,-0.07000000000000001,-1.03
8.923310875892639,3,3,3,2,-9.529999999999999,-2.32,0.31,-3.75,-0.1,-0.93
8.933311104774475,3,3,3,2,-9.529999999999999,-2.59,0.29,-3.48,-0.08,-0.86
8.943311095237732,3,3,3,2,-9.57,-2.84,0.17,-2.81,-0.14,-0.84
8.953311085700989,3,3,3,2,-9.619999999999999,-2.96,0.19,-1.97,-0.17,-0.8
8.963311076164246,3,3,3,2,-9.59,-3.06,0.14,-1.01,-0.07000000000000001,-0.76
8.973311066627502,3,3,3,2,-9.6,-2.91,0.13,0.18,-0.01,-0.73
8.983311057090759,3,3,3,2,-9.470000000000001,-2.76,0.28,1.23,0.1,-0.6
8.993311047554016,3,3,3,2,-9.41,-2.69,0.25,2.08,0.03,-0.55
9.003311038017273,3,3,3,2,-9.48,-2.54,0.37,2.58,-0.05,-0.52
9.103310942649841,3,3,3,2,-9.68,-2.52,0.4,-1.43,-0.05,0
9.113310933113098,3,3,3,2,-9.65,-2.59,0.33,-1.95,0.03,0.1
9.123310923576355,3,3,3,2,-9.609999999999999,-2.59,0.24,-1.74,0.06,0.09
9.133310914039612,3,3,3,2,-9.44,-2.62,0.24,-1.63,0.06,0.05
9.143310904502869,3,3,3,2,-9.390000000000001,-2.71,0.33,-1.48,0.06,0.03
9.153310894966125,3,3,3,2,-9.33,-2.57,0.22,-1.22,0.05,0.08
9.163310885429382,3,3,3,2,-9.35,-2.43,0.04,-0.8,0.02,0.06
9.173310875892639,3,3,3,2,-9.470000000000001,-2.46,0.19,-0.63,0.08,0.07000000000000001
9.183311104774475,3,3,3,2,-9.52,-2.41,0.19,-0.1,-0.01,0.1
9.193311095237732,3,3,3,2,-9.56,-2.32,0.2,0.34,0.03,0.04
9.203311085700989,3,3,3,2,-9.539999999999999,-2.34,0.29,0.54,-0.01,0.06
9.213311076164246,3,3,3,2,-9.539999999999999,-2.24,0.23,0.68,0.02,0.14
9.223311066627502,3,3,3,2,-9.51,-2.2,0.34,0.61,0.19,0.32
9.233311057090759,3,3,3,2,-9.460000000000001,-2.22,0.39,0.45,0.27,0.43
9.243311047554016,3,3,3,2,-9.470000000000001,-2.18,0.37,0.36,0.34,0.52
9.254310965538025,3,3,3,2,-9.529999999999999,-2.07,0.31,0.13,0.27,0.52
9.264310956001282,3,3,3,2,-9.550000000000001,-2.12,0.3,-0.42,0.23,0.55
9.274310946464539,3,3,3,2,-9.529999999999999,-2.22,0.38,-0.79,0.22,0.52
9.284310936927795,3,3,3,2,-9.57,-2.25,0.32,-1.12,0.2,0.44
9.294310927391052,3,3,3,2,-9.56,-2.29,0.25,-1.41,0.18,0.31
9.304310917854309,3,3,3,2,-9.529999999999999,-2.42,0.17,-1.68,0.17,0.33
9.314310908317566,3,3,3,2,-9.460000000000001,-2.45,0.06,-1.72,0.2,0.41
9.344310879707336,3,3,3,2,-9.5,-2.48,0.17,-1.06,0.03,0.31
9.354310870170593,3,3,3,2,-9.5,-2.45,0.17,-0.82,0.05,0.29
9.364311099052429,3,3,3,2,-9.49,-2.44,0.08,-0.74,0.04,0.26
9.374311089515686,3,3,3,2,-9.44,-2.47,0.26,-0.64,0.06,0.34
9.384311079978943,3,3,3,2,-9.43,-2.32,0.26,-0.21,0.08,0.32
9.3943110704422,3,3,3,2,-9.49,-2.22,0.27,0.04,0.03,0.28
9.404311060905457,3,3,3,2,-9.51,-2.22,0.33,0,0.01,0.35
9.414311051368713,3,3,3,2,-9.609999999999999,-2.17,0.17,-0.03,0.05,0.36
9.42431104183197,3,3,3,2,-9.630000000000001,-2.27,0.26,-0.18,0.03,0.35
9.434311032295227,3,3,3,2,-9.609999999999999,-2.25,0.26,-0.3,0.12,0.41
9.444311022758484,3,3,3,2,-9.51,-2.28,0.22,-0.31,0.12,0.43
9.454311013221741,3,3,3,2,-9.460000000000001,-2.34,0.17,-0.32,0.1,0.4
9.464311003684998,3,3,3,2,-9.42,-2.32,0.13,-0.31,0.07000000000000001,0.36
9.474310994148254,3,3,3,2,-9.44,-2.23,0.15,-0.27,0.06,0.36
9.484310984611511,3,3,3,2,-9.52,-2.34,0.22,-0.35,0.1,0.34
9.494310975074768,3,3,3,2,-9.51,-2.24,0.21,-0.45,0.16,0.36
9.504310965538025,3,3,3,2,-9.51,-2.23,0.23,-0.38,0.14,0.38
9.514310956001282,3,3,3,2,-9.529999999999999,-2.29,0.16,-0.35,0.15,0.41
9.524310946464539,3,3,3,2,-9.58,-2.18,0.23,-0.25,0.05,0.37
9.534310936927795,3,3,3,2,-9.550000000000001,-2.33,0.33,-0.34,0.03,0.34
9.544310927391052,3,3,3,2,-9.550000000000001,-2.32,0.3,-0.43,0.13,0.4
9.554310917854309,3,3,3,2,-9.56,-2.37,0.22,-0.44,0.14,0.35
9.564310908317566,3,3,3,2,-9.529999999999999,-2.49,0.16,-0.47,0.14,0.28
9.574310898780823,3,3,3,2,-9.49,-2.44,0.17,-0.33,0.11,0.26
9.58431088924408,3,3,3,2,-9.460000000000001,-2.38,0.14,-0.13,0.12,0.25
9.594310879707336,3,3,3,2,-9.44,-2.41,0.24,-0.03,0.1,0.23
9.604310870170593,3,3,3,2,-9.460000000000001,-2.26,0.18,0.13,0.1,0.22
9.614311099052429,3,3,3,2,-9.550000000000001,-2.14,0.06,0.18,0.07000000000000001,0.24
9.624311089515686,3,3,3,2,-9.58,-2.23,0.16,0.06,0.07000000000000001,0.21
9.634311079978943,3,3,3,2,-9.59,-2.26,0.23,0.06,0.11,0.23
9.6443110704422,3,3,3,2,-9.56,-2.16,0.25,0.18,0.14,0.23
9.654311060905457,3,3,3,2,-9.470000000000001,-2.1,0.23,0.24,0.18,0.32
9.664311051368713,3,3,3,2,-9.449999999999999,-2.07,0.14,0.4,0.15,0.33
9.67431104183197,3,3,3,2,-9.5,-2.07,0.14,0.35,0.16,0.3
9.684311032295227,3,3,3,2,-9.59,-2.14,0.24,0.27,0.13,0.29
9.694311022758484,3,3,3,2,-9.640000000000001,-2.14,0.19,0.1,0.12,0.23
9.704311013221741,3,3,3,2,-9.67,-2.27,0.2,-0.13,0.16,0.25
9.714311003684998,3,3,3,2,-9.6,-2.3,0.12,-0.16,0.19,0.24
9.724310994148254,3,3,3,2,-9.52,-2.3,0.12,-0.02,0.18,0.2
9.734310984611511,3,3,3,2,-9.49,-2.35,0.19,0.02,0.23,0.17
9.744310975074768,3,3,3,2,-9.460000000000001,-2.25,0.22,0.2,0.24,0.18
9.754310965538025,3,3,3,2,-9.5,-2.25,0.24,0.23,0.27,0.19
9.764310956001282,3,3,3,2,-9.5,-1.95,0.05,0.47,0.19,0.2
9.774310946464539,3,3,3,2,-9.529999999999999,-1.92,0.16,0.43,0.21,0.19
9.784310936927795,3,3,3,2,-9.470000000000001,-1.72,0.24,0.4,0.23,0.24
9.794310927391052,3,3,3,2,-9.470000000000001,-1.46,0.26,0.46,0.22,0.33
9.804310917854309,3,3,3,2,-9.52,-1.91,0.32,0.22,0.25,0.41
9.814310908317566,3,3,3,2,-9.710000000000001,-2.13,0.16,0.04,0.18,0.3
9.824310898780823,3,3,3,2,-9.800000000000001,-2.17,0.16,-0.1,0.18,0.22
9.83431088924408,3,3,3,2,-9.82,-2.08,0.09,-0.19,0.24,0.21
9.844310879707336,3,3,3,2,-9.58,-2.6,0.16,-0.34,0.31,0.18
9.854310870170593,3,3,3,2,-9.449999999999999,-2.53,0.11,0.19,0.33,-0.06
9.864311099052429,3,3,3,2,-9.390000000000001,-2.52,0.06,0.19,0.33,-0.06
9.874311089515686,3,3,3,2,-9.359999999999999,-2.5,0.14,0.45,0.14,-0.24
9.884311079978943,3,3,3,2,-9.52,-2.35,0.25,0.45,0.14,-0.24
9.8943110704422,3,3,3,2,-9.51,-2.28,0.22,0.42,0.02,-0.26
9.904311060905457,3,3,3,2,-9.59,-2.28,0.24,0.12,0.09,-0.35
9.914311051368713,3,3,3,2,-9.59,-2.28,0.14,-0.05,0.15,-0.36
9.92431104183197,3,3,3,2,-9.550000000000001,-2.31,0.2,-0.12,0.19,-0.4
9.934311032295227,3,3,3,2,-9.5,-2.28,0.16,-0.12,0.19,-0.4
9.944311022758484,3,3,3,2,-9.470000000000001,-2.27,0.22,-0.17,0.21,-0.43
9.954311013221741,3,3,3,2,-9.49,-2.15,0.19,-0.17,0.14,-0.47
9.964311003684998,3,3,3,2,-9.52,-2.2,0.18,-0.51,0.17,-0.41
9.974310994148254,3,3,3,2,-9.49,-2.17,0.2,-0.54,0.17,-0.45
9.984310984611511,3,3,3,2,-9.529999999999999,-2.17,0.23,-0.54,0.17,-0.45
9.994310975074768,3,3,3,2,-9.529999999999999,-2.28,0.2,-0.61,0.14,-0.45
10.00431096553802,3,3,3,2,-9.56,-2.3,0.16,-0.58,0.11,-0.48
10.01431095600128,3,3,3,2,-9.56,-2.28,0.04,-0.41,0.16,-0.51
10.02431094646454,3,3,3,2,-9.550000000000001,-2.29,0.08,-0.25,0.19,-0.47
10.0343109369278,3,3,3,2,-9.539999999999999,-2.09,0.06,-0.25,0.19,-0.47
10.04431092739105,3,3,3,2,-9.550000000000001,-2.11,0.17,-0.33,0.26,-0.41
10.05431091785431,3,3,3,2,-9.48,-2.03,0.16,-0.22,0.36,-0.34
10.06431090831757,3,3,3,2,-9.51,-2,0.03,-0.18,0.49,-0.1
10.07431089878082,3,3,3,2,-9.52,-2.06,0.15,-0.16,0.54,-0.01
10.08431088924408,3,3,3,2,-9.52,-1.99,0.09,-0.16,0.54,-0.01
10.09431087970734,3,3,3,2,-9.57,-2.06,0.18,-0.23,0.55,0.05
10.10431087017059,3,3,3,2,-9.539999999999999,-2.13,0.17,-0.28,0.51,0.11
10.11431109905243,3,3,3,2,-9.529999999999999,-2.02,-0.03,-0.32,0.57,0.16
10.12431108951569,3,3,3,2,-9.51,-1.96,0.12,-0.33,0.58,0.17
10.13431107997894,3,3,3,2,-9.5,-1.86,0.11,-0.33,0.58,0.17
10.1443110704422,3,3,3,2,-9.51,-1.97,0.2,-0.68,0.74,0.2
10.15431106090546,3,3,3,2,-9.43,-1.81,0.33,-0.6899999999999999,0.84,0.27
10.16431105136871,3,3,3,2,-9.380000000000001,-1.67,0.3,-0.6,0.85,0.37
10.17431104183197,3,3,3,2,-9.42,-2.11,0.27,-0.85,0.73,0.24
10.18431103229523,3,3,3,2,-9.65,-2.59,0.21,-0.85,0.73,0.24
10.19431102275848,3,3,3,2,-9.67,-2.71,0.07000000000000001,-0.74,0.52,0.08
10.20431101322174,3,3,3,2,-9.699999999999999,-3.01,-0.07000000000000001,-0.7,0.58,-0.19
10.214311003685,3,3,3,2,-9.66,-3.15,-0.3,-0.43,0.5600000000000001,-0.37
10.22431099414825,3,3,3,2,-9.550000000000001,-3.15,-0.3,-0.02,0.61,-0.5
10.24431097507477,3,3,3,2,-9.34,-2.7,0.19,0.33,0.59,-0.64
10.25431096553802,3,3,3,2,-9.35,-2.58,0.31,0.43,0.47,-0.6899999999999999
10.26431095600128,3,3,3,2,-9.43,-2.32,0.17,0.16,0.45,-0.65
10.27531087398529,3,3,3,2,-9.49,-1.99,0.15,-0.23,0.49,-0.57
10.28531110286713,3,3,3,2,-9.470000000000001,-1.9,0.17,-0.23,0.49,-0.57
10.29531109333038,3,3,3,2,-9.449999999999999,-1.62,0.14,-0.47,0.51,-0.52
10.30531108379364,3,3,3,2,-9.49,-1.6,0.06,-1.67,0.68,-0.18
10.3153110742569,3,3,3,2,-9.51,-1.76,0.02,-1.89,0.71,-0.15
10.32531106472015,3,3,3,2,-9.550000000000001,-1.85,-0.03,-2.17,0.72,-0.19
10.33531105518341,3,3,3,2,-9.609999999999999,-2,-0.06,-2.17,0.72,-0.19
10.34531104564667,3,3,3,2,-9.710000000000001,-2.79,0.1,-2.2,0.77,-0.25
10.35531103610992,3,3,3,2,-9.609999999999999,-2.9,0.04,-1.52,0.72,-0.57
10.36531102657318,3,3,3,2,-9.48,-2.82,-0.06,-1.09,0.59,-0.68
10.37531101703644,3,3,3,2,-9.449999999999999,-2.48,-0.05,-1.22,0.57,-0.7
10.38531100749969,3,3,3,2,-9.529999999999999,-2.59,0,-1.22,0.57,-0.7
10.39531099796295,3,3,3,2,-9.49,-2.4,-0.25,-1.06,0.53,-0.67
10.40531098842621,3,3,3,2,-9.550000000000001,-2.35,-0.43,-0.74,0.68,-0.47
10.41531097888947,3,3,3,2,-9.52,-2.45,-0.47,-0.22,0.77,-0.43
10.42531096935272,3,3,3,2,-9.390000000000001,-2.03,-0.39,-0.02,0.8100000000000001,-0.45
10.43531095981598,3,3,3,2,-9.34,-2.06,-0.11,-0.02,0.8100000000000001,-0.45
10.44531095027924,3,3,3,2,-9.35,-2.03,-0.05,0.02,0.79,-0.45
10.45531094074249,3,3,3,2,-9.43,-2.05,-0.06,-0.62,0.84,-0.34
10.46531093120575,3,3,3,2,-9.56,-2.12,-0.27,-1.04,0.83,-0.21
10.47531092166901,3,3,3,2,-9.56,-2.16,-0.18,-1.27,0.82,-0.23
10.48531091213226,3,3,3,2,-9.51,-2.19,-0.17,-1.27,0.82,-0.23
10.49531090259552,3,3,3,2,-9.42,-2.19,-0.2,-1.7,0.83,-0.24
10.50531089305878,3,3,3,2,-9.369999999999999,-2.21,-0.23,-1.96,0.72,-0.37
10.51531088352203,3,3,3,2,-9.48,-2.25,-0.4,-2.22,0.67,-0.47
10.52531087398529,3,3,3,2,-9.56,-2.46,-0.35,-2.09,0.67,-0.59
10.53531110286713,3,3,3,2,-9.539999999999999,-2.55,-0.36,-2.09,0.67,-0.59
10.54531109333038,3,3,3,2,-9.529999999999999,-2.48,-0.36,-1.78,0.6899999999999999,-0.65
10.55531108379364,3,3,3,2,-9.529999999999999,-2.44,-0.42,-1.28,0.76,-0.78
10.5653110742569,3,3,3,2,-9.51,-2.43,-0.47,-1.04,0.8100000000000001,-0.8
10.57531106472015,3,3,3,2,-9.49,-2.44,-0.39,-0.92,0.8,-0.76
10.58531105518341,3,3,3,2,-9.42,-2.35,-0.2,-0.92,0.8,-0.76
10.59531104564667,3,3,3,2,-9.41,-2.3,-0.1,-0.98,0.8,-0.71
10.60531103610992,3,3,3,2,-9.41,-2.2,-0.19,-1.22,0.59,-0.7
10.61531102657318,3,3,3,2,-9.41,-2.18,-0.3,-1.53,0.55,-0.6899999999999999
10.62531101703644,3,3,3,2,-9.460000000000001,-2.07,-0.35,-1.8,0.51,-0.62
10.63531100749969,3,3,3,2,-9.42,-2,-0.33,-1.8,0.51,-0.62
10.64531099796295,3,3,3,2,-9.5,-2.19,-0.19,-2.07,0.54,-0.65
10.65531098842621,3,3,3,2,-9.51,-2.34,-0.13,-2.43,0.42,-0.8100000000000001
10.66531097888947,3,3,3,2,-9.48,-2.53,-0.29,-2.46,0.42,-0.9
10.67531096935272,3,3,3,2,-9.44,-2.43,-0.3,-2.64,0.38,-0.89
10.68531095981598,3,3,3,2,-9.34,-2.44,-0.19,-2.64,0.38,-0.89
10.69531095027924,3,3,3,2,-9.24,-2.38,-0.18,-2.9,0.45,-0.82
10.70531094074249,3,3,3,2,-9.27,-2.64,-0.13,-2.98,0.55,-0.9
10.71531093120575,3,3,3,2,-9.359999999999999,-2.85,-0.33,-2.57,0.49,-1.13
10.72531092166901,3,3,3,2,-9.4,-2.73,-0.42,-2.32,0.41,-1.11
10.73531091213226,3,3,3,2,-9.449999999999999,-2.39,-0.47,-2.32,0.41,-1.11
10.74531090259552,3,3,3,2,-9.44,-2.24,-0.48,-2.18,0.39,-1.08
10.75531089305878,3,3,3,2,-9.449999999999999,-2.13,-0.53,-2.08,0.5600000000000001,-1
10.76531088352203,3,3,3,2,-9.390000000000001,-2.1,-0.55,-1.97,0.66,-0.95
10.77531087398529,3,3,3,2,-9.279999999999999,-2.54,-0.3,-1.81,0.7,-0.96
10.78531110286713,3,3,3,2,-9.24,-2.78,-0.24,-1.81,0.7,-0.96
10.79531109333038,3,3,3,2,-9.19,-2.83,-0.39,-1.61,0.74,-1.03
10.80531108379364,3,3,3,2,-9.27,-3.07,-0.65,-1.28,0.7,-1.06
10.8153110742569,3,3,3,2,-9.44,-3.19,-1.25,-0.9399999999999999,0.68,-1.19
10.82531106472015,3,3,3,2,-9.44,-3.19,-1.25,-0.7,0.59,-1.41
10.83531105518341,3,3,3,2,-9.369999999999999,-2.97,-1.38,-0.7,0.59,-1.41
10.84531104564667,3,3,3,2,-9.390000000000001,-2.82,-1.39,-0.47,0.52,-1.52
10.87531101703644,3,3,3,2,-9.77,-2.33,-1.25,0.99,0.68,-2.02
10.88531100749969,3,3,3,2,-9.710000000000001,-2.23,-1.17,0.99,0.68,-2.02
10.89531099796295,3,3,3,2,-9.609999999999999,-2.13,-1.18,1.73,0.76,-2.09
10.90531098842621,3,3,3,2,-9.67,-1.75,-1.48,3.38,0.5600000000000001,-2.44
10.91531097888947,3,3,3,2,-9.67,-1.75,-1.48,3.43,0.58,-2.6
10.92531096935272,3,3,3,2,-9.619999999999999,-1.68,-1.57,3.34,0.8,-2.48
10.93531095981598,3,3,3,2,-9.779999999999999,-1.94,-1.55,3.34,0.8,-2.48
10.94531095027924,3,3,3,2,-9.789999999999999,-2.14,-1.38,3.39,1.03,-2.15
10.95531094074249,3,3,3,2,-9.699999999999999,-2.34,-1.13,3.91,1.1,-2.08
10.96531093120575,3,3,3,2,-9.210000000000001,-2.58,-0.64,4.03,0.96,-2.32
10.97531092166901,3,3,3,2,-9.210000000000001,-2.58,-0.64,3.79,0.8,-2.54
10.98531091213226,3,3,3,2,-9.220000000000001,-2.52,-0.6,3.79,0.8,-2.54
10.99531090259552,3,3,3,2,-9.32,-2.6,-0.66,3.44,0.7,-2.74
11.00531089305878,3,3,3,2,-9.33,-2.47,-0.98,3.2,0.5600000000000001,-3.16
11.01531088352203,3,3,3,2,-9.27,-2.5,-0.9399999999999999,3.1,0.52,-3.42
11.02531087398529,3,3,3,2,-9.26,-2.5,-0.93,3.03,0.45,-3.72
11.03531110286713,3,3,3,2,-9.26,-2.5,-0.93,3.03,0.45,-3.72
11.04531109333038,3,3,3,2,-9.16,-2.86,-0.71,2.86,0.5,-4
11.05531108379364,3,3,3,2,-9.17,-2.99,-0.8,2.65,0.62,-4.08
11.0653110742569,3,3,3,2,-9.24,-3.01,-0.72,2.52,0.64,-3.91
11.07531106472015,3,3,3,2,-9.220000000000001,-2.78,-0.6899999999999999,2.5,0.6899999999999999,-3.76
11.08531105518341,3,3,3,2,-9.220000000000001,-2.78,-0.6899999999999999,2.46,0.77,-3.64
11.09531104564667,3,3,3,2,-9.23,-2.75,-0.6,2.46,0.77,-3.64
11.10531103610992,3,3,3,2,-9.210000000000001,-2.67,-0.62,2.63,0.91,-3.7
11.11531102657318,3,3,3,2,-9.33,-2.51,-0.41,2.69,0.96,-3.7
11.12531101703644,3,3,3,2,-9.390000000000001,-2.45,-0.41,2.74,0.93,-3.78
11.13531100749969,3,3,3,2,-9.390000000000001,-2.45,-0.41,2.74,0.93,-3.78
11.14531099796295,3,3,3,2,-9.35,-2.43,-0.4,2.83,0.97,-3.84
11.15531098842621,3,3,3,2,-9.33,-2.86,-0.53,2.84,1.06,-3.99
11.16531097888947,3,3,3,2,-9.32,-3.15,-0.42,2.99,1.15,-4.1
11.17531096935272,3,3,3,2,-9.31,-3.47,-0.44,3.21,1.22,-4.27
11.18531095981598,3,3,3,2,-9.31,-3.47,-0.44,3.21,1.22,-4.27
11.19531095027924,3,3,3,2,-9.32,-3.57,-0.49,3.86,1.29,-4.45
11.20631086826324,3,3,3,2,-9.23,-3.33,-0.75,5.06,1.28,-4.63
11.21531093120575,3,3,3,2,-9.210000000000001,-3.17,-0.73,5.58,1.29,-4.7
11.22531092166901,3,3,3,2,-9.17,-3.08,-0.74,5.86,1.28,-4.72
11.23631107807159,3,3,3,2,-9.17,-3.08,-0.74,6.02,1.32,-4.75
11.24531090259552,3,3,3,2,-9.109999999999999,-2.98,-0.74,6.19,1.28,-4.81
11.25531089305878,3,3,3,2,-9.09,-2.7,-0.76,6.26,1.23,-4.83
11.26531088352203,3,3,3,2,-9.18,-2.65,-0.87,6.19,1.14,-4.96
11.27531087398529,3,3,3,2,-9.550000000000001,-2.74,-0.68,5.99,1.03,-5.1
11.28531110286713,3,3,3,2,-9.550000000000001,-2.74,-0.68,5.82,0.92,-5.27
11.29531109333038,3,3,3,2,-9.65,-2.93,-0.68,5.69,0.79,-5.45
11.30631101131439,3,3,3,2,-9.68,-3.14,-0.87,5.5,0.68,-5.63
11.31631100177765,3,3,3,2,-9.75,-2.98,-0.64,5.62,0.52,-5.76
11.32631099224091,3,3,3,2,-9.77,-3.07,-0.5,5.76,0.38,-5.85
11.33631098270416,3,3,3,2,-9.77,-3.07,-0.5,5.78,0.21,-5.97
11.34631097316742,3,3,3,2,-9.84,-3.02,-0.53,5.84,0.07000000000000001,-6.03
11.35631096363068,3,3,3,2,-10.14,-3.11,-0.63,5.81,-0.03,-6.1
11.36631095409393,3,3,3,2,-10.25,-3.18,-0.66,5.66,-0.2,-6.2
11.37631094455719,3,3,3,2,-10.62,-3.11,-0.65,5.58,-0.4,-6.31
11.38631093502045,3,3,3,2,-10.62,-3.11,-0.65,5.33,-0.64,-6.39
11.3963109254837,3,3,3,2,-10.94,-2.87,-0.53,5.06,-0.86,-6.42
11.40631091594696,3,3,3,2,-11.32,-2.77,-0.49,4.99,-1.04,-6.39
11.41631090641022,3,3,3,2,-11.33,-2.41,-0.4,4.9,-1.33,-6.27
11.42631089687347,3,3,3,2,-11.41,-1.99,-0.08,4.66,-1.59,-6.18
11.43631088733673,3,3,3,1,-11.41,-1.99,-0.08,4.22,-1.92,-6.02
11.44631087779999,3,3,3,1,-11.61,-1.99,0.62,3.92,-2.22,-5.73
11.45631086826324,3,3,3,1,-11.47,-1.9,0.73,3.69,-2.43,-5.2
11.46631109714508,3,3,3,1,-11.13,-1.57,0.8100000000000001,3.78,-2.62,-4.64
11.47631108760834,3,3,3,1,-11.06,-1.38,0.65,4.07,-2.68,-4.05
11.48631107807159,3,3,3,1,-11.06,-1.38,0.65,4.43,-2.65,-3.42
11.49631106853485,3,3,3,1,-11.03,-0.95,0.24,5.02,-2.49,-2.84
11.50631105899811,3,3,3,1,-11.17,-0.64,0.43,6.17,-2.34,-2.27
11.51631104946136,3,3,3,1,-11.08,-0.24,0.57,7.76,-2.06,-1.43
11.52631103992462,3,3,3,1,-10.81,0.45,0.54,9.720000000000001,-1.53,-0.16
11.53631103038788,3,3,3,0,-10.35,1.47,0.36,11.45,-0.79,1.55
11.54631102085114,3,3,3,0,-10.35,1.47,0.36,11.41,-0.14,3.63
11.55631101131439,3,3,3,0,-9.449999999999999,1.94,1.36,8.9,0.02,5.49
11.56631100177765,3,3,3,0,-9.460000000000001,1.56,2.14,7.22,-1.01,6.86
11.57631099224091,3,3,3,0,-9.43,1.72,1.93,6.77,-2.8,7.4
11.58631098270416,3,3,3,0,-9.43,1.72,1.93,6.13,-3.85,8.1
11.59631097316742,3,3,3,0,-10.24,0.67,1.2,6.49,-4.15,9.130000000000001
11.60631096363068,3,3,3,0,-10.25,0.38,0.88,7.26,-4.95,10.49
11.61631095409393,3,3,3,0,-10.17,0.15,0.49,7.89,-5.14,11.81
11.62631094455719,3,3,3,0,-10.43,-0.77,-0.28,7.48,-4.63,12.75
11.63631093502045,3,3,3,0,-10.43,-0.77,-0.28,6.46,-3.59,13.39
11.6463109254837,3,3,3,0,-10.56,-1.17,-0.37,5.33,-2.2,13.72
11.65631091594696,3,3,3,0,-11.37,-2.69,-0.54,4.45,-0.76,13.69
11.66631090641022,3,3,3,0,-11.74,-4.21,-0.74,3.72,0.66,13.61
11.67631089687347,3,3,3,0,-11.92,-4.19,-0.76,3.81,1.87,13.94
11.68631088733673,3,3,3,0,-11.91,-3.75,-0.75,4.25,2.9,14.73
11.69631087779999,3,3,3,0,-12.41,-3.86,-0.2,3.61,4.02,15.35
11.70631086826324,3,3,3,0,-12.04,-5.74,0.38,2.8,4.58,15.72
11.71631109714508,3,3,3,0,-11.2,-5.57,0.2,2.06,5.4,15.99
11.72631108760834,3,3,3,0,-11.04,-4.56,0.33,1.18,6.57,16.53
11.73631107807159,3,3,3,0,-11.04,-4.56,0.33,-0.77,6.91,17.43
11.74631106853485,3,3,3,0,-10.79,-4.84,0.32,-3.4,6.65,18.56
11.75631105899811,3,3,3,0,-10.66,-4.98,0.01,-5.75,6.36,19.7
11.76631104946136,3,3,3,0,-10.6,-4.88,-0.12,-7.46,6.24,20.63
11.77631103992462,3,3,3,0,-10.8,-4.54,-0.05,-9.369999999999999,6.16,21.39
11.78631103038788,3,3,3,0,-10.55,-4.74,0.01,-11.11,5.83,22.17
11.79631102085114,3,3,3,0,-10.33,-4.85,0.02,-12.82,5.54,22.59
11.80631101131439,3,3,3,0,-10.17,-5.25,-0.01,-14.28,5.32,22.88
11.81631100177765,3,3,3,0,-9.789999999999999,-5.18,-0.03,-14.93,4.89,23.09
11.82631099224091,3,3,3,0,-9.35,-5.4,-0.17,-15.47,4.41,23.06
11.83631098270416,3,3,3,0,-9.109999999999999,-5.35,-0.31,-15.36,4.03,23.05
11.84631097316742,3,3,3,0,-9.050000000000001,-5.36,-0.43,-15.02,3.54,23.01
11.85631096363068,3,3,3,0,-8.74,-5.05,-0.76,-14.41,2.88,22.97
11.86631095409393,3,3,3,0,-8.869999999999999,-5.02,-0.72,-13.81,2.46,22.94
11.87631094455719,3,3,3,0,-8.800000000000001,-5.17,-0.71,-13.51,2.01,22.68
11.88631093502045,3,3,3,0,-8.57,-5.43,-0.91,-13,1.45,22.22
11.8963109254837,3,3,3,0,-8.41,-5.27,-0.36,-12.35,1.06,21.68
11.90631091594696,3,3,3,0,-8.5,-5.76,-0.16,-13.18,0.8,20.86
11.91631090641022,3,3,3,0,-8.17,-5.44,-0.6,-12.65,0.68,19.49
11.92631089687347,3,3,3,0,-8.43,-5.48,-0.41,-12.28,0.84,18.39
11.93631088733673,3,3,3,0,-8.220000000000001,-4.67,0.44,-12.16,0.27,17.21
11.94631087779999,3,3,3,0,-7.71,-4.8,0.66,-12.66,-0.76,16.61
11.95631086826324,3,3,3,0,-7.08,-4.76,0.73,-12.75,-1.76,15.86
11.96631109714508,3,3,3,0,-6.71,-5.07,0.93,-12.41,-2.15,14.79
11.97631108760834,3,3,3,0,-6.29,-5.52,1.15,-11.52,-2.11,13.54
11.98631107807159,3,3,3,0,-6.24,-5.19,1.08,-10.04,-1.89,11.81
11.99631106853485,3,3,3,0,-6.21,-4.26,0.91,-8.369999999999999,-1.57,9.94
12.00631105899811,3,3,3,0,-6.16,-3.49,0.62,-7.51,-1.33,7.98
12.01631104946136,3,3,3,0,-6.78,-2.51,0.17,-7,-1.16,5.75
12.02631103992462,3,3,3,0,-7.26,-1.78,0.32,-7.5,-1.27,3.44
12.03631103038788,3,3,3,0,-7.81,-1.19,0.78,-9.220000000000001,-1.49,1.18
12.04631102085114,3,3,3,0,-8.24,-0.05,1.19,-10.53,-2.28,-0.19
12.05631101131439,3,3,3,0,-9.23,3.51,1.59,-11.21,-2.9,-0.49
12.06631100177765,3,3,3,0,-10.34,5.87,2.36,-12.38,-3.05,0.7
12.07631099224091,3,3,3,0,-11.14,7.13,3.38,-14.62,-3.57,1.87
12.08631098270416,3,3,3,0,-11.35,8.07,4.24,-16.66,-3.85,2.48
12.09631097316742,3,3,3,0,-10.73,9.57,4.44,-18.19,-3.09,3.24
12.10631096363068,3,3,3,0,-10.48,9.91,3.38,-17.99,-1.32,4.1
12.11631095409393,3,3,3,0,-10.57,10.11,2.17,-15.26,0.27,4.62
12.12631094455719,3,3,3,0,-11.05,10.04,0.89,-11.46,0.15,4.67
12.13631093502045,3,3,3,0,-10.12,7.6,-0.12,-7.67,-0.18,4.66
12.1463109254837,3,3,3,0,-9.789999999999999,5.48,0.76,-4.14,0.91,4.77
12.15631091594696,3,3,3,0,-9.56,3.69,1.19,-0.5,2.53,5.4
12.16631090641022,3,3,3,0,-9.279999999999999,2.71,0.95,1.89,4.01,5.89
12.17631089687347,3,3,3,0,-10.11,2.7,1.38,1.84,5.12,5.69
12.18631088733673,3,3,3,0,-10.58,1.93,1.14,1.23,5.46,5.01
12.19631087779999,3,3,3,0,-11.37,1.02,1.2,1.3,4.93,4.2
12.20631086826324,3,3,3,0,-12.52,2.34,2.74,-1.4,2.6,4.12
12.21631109714508,3,3,3,0,-14.81,6.27,7.98,-9.6,-1.3,3.86
12.22631108760834,3,3,3,0,-10.26,3.76,9.49,-12.32,-6.85,0.43
12.23631107807159,3,3,3,0,-6.68,3.48,6.19,-7.77,-2.36,-3.99
12.24631106853485,3,3,3,0,-9.449999999999999,2.07,3.43,-7.64,2.26,-4.75
12.25631105899811,3,3,3,0,-9.94,-3.87,0.35,-6.6,2.12,-4.87
12.26631104946136,3,3,3,0,-10.04,-6.45,-0.22,-3.29,3.5,-5.63
12.27631103992462,3,3,3,0,-10.21,-8.029999999999999,-1.67,-0.83,5.3,-7.01
12.28731095790863,3,3,3,0,-9.73,-4.4,-5.49,2.14,5.65,-8.65
12.29631102085114,3,3,3,0,-10.25,-1.49,-5.33,4.19,5,-10.59
12.30631101131439,3,3,3,0,-11.22,-1.79,-3.72,1.8,4.58,-12.25
12.31631100177765,3,3,3,0,-11.84,-1.85,-2.35,0.18,4.74,-13.95
12.32731091976166,3,3,3,0,-11.52,-3.57,0.09,-0.64,4.96,-14.8
12.33731091022491,3,3,3,0,-10.91,-4.97,-0.06,-1.46,5.34,-14.63
12.34731090068817,3,3,3,0,-10.2,-4.85,-0.42,-1.46,5.34,-14.63
12.35731089115143,3,3,3,0,-9.93,-3.79,-0.13,-0.89,5.39,-14.28
12.36731088161469,3,3,3,0,-9.83,-1.62,1.15,1.74,5.16,-14.54
12.37731087207794,3,3,3,0,-9.720000000000001,-1.34,0.98,0.63,5.3,-14.38
12.38731110095978,3,3,3,0,-9.67,-0.75,0.83,-0.78,5.16,-14.29
12.39731109142303,3,3,3,0,-9.529999999999999,-0.38,0.7,-0.78,5.16,-14.29
12.40731108188629,3,3,3,0,-9.42,-0.77,-0.65,-2.44,4.77,-14.04
12.41731107234955,3,3,3,0,-9.52,-0.62,-1.05,-3.5,4.58,-13.88
12.42731106281281,3,3,3,0,-9.56,-0.72,-1.02,-3.47,4.75,-13.74
12.43731105327606,3,3,3,0,-9.67,-1.47,-0.95,-2.06,5.18,-13.9
12.44731104373932,3,3,3,0,-9.779999999999999,-1.41,-1.51,-2.06,5.18,-13.9
12.45731103420258,3,3,3,0,-9.98,-1.77,-1.49,-0.22,5.41,-14.03
12.46731102466583,3,3,3,0,-9.960000000000001,-1.98,-1.35,1.29,5.47,-14.05
12.47731101512909,3,3,3,0,-10.06,-1.69,-1.02,2.95,5.35,-14.2
12.48731100559235,3,3,3,0,-9.93,-1.19,-0.38,4.46,4.97,-14.37
12.4973109960556,3,3,3,0,-9.859999999999999,-1.2,-0.29,5.62,4.4,-14.59
12.50731098651886,3,3,3,0,-9.92,-1.03,-0.37,6.28,3.73,-14.72
12.51731097698212,3,3,3,0,-9.789999999999999,-0.79,-0.62,6.98,2.96,-14.74
12.52731096744537,3,3,3,0,-9.289999999999999,-0.16,-1.15,7.39,2.44,-14.6
12.53731095790863,3,3,3,0,-9.300000000000001,0.14,-1.27,7.3,2.3,-14.46
12.54731094837189,3,3,3,0,-9.44,0.5,-1.26,6.7,2.29,-14.3
12.55731093883514,3,3,3,0,-9.550000000000001,1,-1.22,6.07,2.13,-14.06
12.5673109292984,3,3,3,0,-9.779999999999999,2.35,-1.09,5.54,1.86,-13.86
12.57731091976166,3,3,3,0,-9.789999999999999,2.6,-0.88,5.46,1.7,-13.74
12.58731091022491,3,3,3,0,-9.69,2.29,-0.63,5.33,1.84,-13.34
12.59731090068817,3,3,3,0,-9.76,1.86,-0.45,5.82,2.22,-12.73
12.60731089115143,3,3,3,0,-10.09,0.76,-0.77,6.83,2.82,-11.76
12.61731088161469,3,3,3,0,-10.16,-0.31,-0.78,7.11,3.27,-10.47
12.62731087207794,3,3,3,0,-10.22,-1.25,-0.75,6.4,3.4,-9.19
12.63731110095978,3,3,3,0,-9.869999999999999,-2.51,-0.71,5.4,3.19,-8.44
12.64731109142303,3,3,3,0,-9.710000000000001,-2.83,-0.78,4.26,2.78,-8.16
12.65731108188629,3,3,3,0,-9.470000000000001,-2.89,-0.85,3.12,2.54,-8.08
12.66731107234955,3,3,3,0,-9.31,-2.66,-0.66,2.64,2.37,-8.23
12.67731106281281,3,3,3,0,-9.220000000000001,-2.06,-0.2,2.66,2.42,-8.470000000000001
12.68731105327606,3,3,3,0,-9.24,-2.15,0.27,3.12,2.54,-8.6
12.69731104373932,3,3,3,0,-9.289999999999999,-2.17,-1.23,3.73,2.65,-8.710000000000001
12.70731103420258,3,3,3,0,-9.42,-2.28,-1.03,4.11,2.89,-8.550000000000001
12.71731102466583,3,3,3,0,-9.720000000000001,-2.76,-0.23,5.04,3.04,-8.31
12.72731101512909,3,3,3,0,-9.529999999999999,-2.67,-0.26,6,2.67,-8.23
12.73731100559235,3,3,3,0,-9.279999999999999,-2.54,-0.3,5.93,2.48,-8.279999999999999
12.7473109960556,3,3,3,0,-9.210000000000001,-2.55,-0.43,5.61,2.31,-8.199999999999999
12.75731098651886,3,3,3,0,-9.09,-2.7,-0.59,5.27,2.32,-8.23
12.76731097698212,3,3,3,0,-9.01,-2.72,-0.51,5.16,2.4,-8.380000000000001
12.77731096744537,3,3,3,0,-9.1,-2.89,-0.47,5.16,2.54,-8.5
12.78731095790863,3,3,3,0,-9.25,-3.03,-0.4,5.19,2.69,-8.609999999999999
12.79731094837189,3,3,3,0,-9.57,-2.91,-0.42,5.64,2.69,-8.81
12.80731093883514,3,3,3,0,-9.81,-2.57,-0.44,6.15,2.58,-9.06
12.8173109292984,3,3,3,0,-9.91,-1.98,-0.39,7,2.44,-9.16
12.82731091976166,3,3,3,0,-9.85,-1.46,-0.53,7.73,2.24,-9.140000000000001
12.83731091022491,3,3,3,0,-9.66,-0.77,-0.46,8.02,2.11,-8.94
12.84731090068817,3,3,3,0,-9.619999999999999,-0.8,-0.55,7.85,2.07,-8.69
12.85731089115143,3,3,3,0,-9.539999999999999,-1.01,-0.74,7.14,1.92,-8.48
12.86731088161469,3,3,3,0,-9.49,-1.4,-0.77,6.43,1.79,-8.300000000000001
12.87731087207794,3,3,3,0,-9.82,-2.27,-0.77,5.96,1.72,-8.029999999999999
12.88731110095978,3,3,3,0,-10.06,-2.52,-0.75,6.06,1.77,-7.76
12.89731109142303,3,3,3,0,-10.2,-2.7,-0.8,6.96,1.92,-7.58
12.90731108188629,3,3,3,0,-10.32,-2.73,-1.1,8.34,2.07,-7.38
12.91731107234955,3,3,3,0,-11.08,-2.52,-1.6,9.82,2.17,-7.41
12.92731106281281,3,3,3,0,-11.71,-2.1,-1.49,11.02,2.11,-7.72
12.93731105327606,3,3,3,0,-12.41,-1.46,-0.87,12.08,1.83,-8.109999999999999
12.94731104373932,3,3,3,0,-12.89,-0.63,-0.17,12.91,1.43,-8.33
12.95731103420258,3,3,3,0,-12.65,0.93,0.27,13.14,0.83,-8.15
12.96731102466583,3,3,3,0,-12.39,1.61,0.58,12.89,0.22,-7.39
12.97731101512909,3,3,3,0,-12.36,2.29,1.18,12.32,-0.26,-6.47
12.98731100559235,3,3,3,0,-12.68,2.8,1.71,11.8,-0.63,-5.36
12.9973109960556,3,3,3,0,-13.14,3.78,1.52,11.42,-0.89,-3.48
13.00731098651886,3,3,3,0,-12.97,3.5,1.47,11.06,-0.86,-0.75
13.01731097698212,3,3,3,0,-12.47,2.86,1.53,9.539999999999999,-1.09,2.38
13.02731096744537,3,3,3,0,-11.61,2.91,1.92,7.97,-1.53,5.25
13.03731095790863,3,3,3,0,-11.29,2.51,1.66,6.39,-2.04,8.050000000000001
13.04731094837189,3,3,3,0,-10.87,2.97,0.67,4.57,-3.25,10.55
13.05731093883514,3,3,3,0,-11.05,2.78,0.1,4.06,-5.01,11.95
13.0673109292984,3,3,3,0,-11.28,-0.07000000000000001,-0.32,3.4,-6.3,12.8
13.07731091976166,3,3,3,0,-11.13,-1.39,-0.35,3.38,-7.13,13.21
13.08731091022491,3,3,3,0,-11.14,-2.17,-0.58,3.57,-6.59,13.56
13.09731090068817,3,3,3,0,-11.48,-2.56,-0.76,4.19,-4.77,14.02
13.10731089115143,3,3,3,0,-12.22,-3.95,-1.16,4.53,-2.7,14.38
13.11731088161469,3,3,3,0,-12.32,-4.34,-0.64,5.79,-0.78,14.62
13.12831103801727,3,3,3,0,-12.12,-4.71,-0.24,7.51,0.3,14.87
13.13731110095978,3,3,3,0,-11.7,-4.6,-0.1,8.4,1.1,15.24
13.14731109142303,3,3,3,0,-11.21,-4.16,0.39,8.91,2.08,15.77
13.15831100940704,3,3,3,0,-11.2,-4.74,1.24,8.050000000000001,3.11,16.58
13.16731107234955,3,3,3,0,-10.94,-5.48,1.44,4.97,3.47,17.42
13.17731106281281,3,3,3,0,-10.9,-5.81,0.96,2.43,3.77,17.77
13.18831098079681,3,3,3,0,-11.32,-5.34,0.58,1.7,4.72,17.93
13.19731104373932,3,3,3,0,-11.59,-5.7,0.39,0.8,5.35,18.14
13.20731103420258,3,3,3,0,-11.37,-5.66,-0.3,-0.6,5.48,18.54
13.21831095218658,3,3,3,0,-11.08,-5.21,-0.76,-1.37,5.36,19.14
13.22731101512909,3,3,3,0,-10.51,-4.46,-0.98,-1.88,5.23,20.16
13.23731100559235,3,3,3,0,-10.33,-4.17,-0.9399999999999999,-2.63,5.11,21.33
13.24831092357635,3,3,3,0,-10.01,-4.03,-0.98,-4.33,4.93,22.25
13.25731098651886,3,3,3,0,-9.91,-3.76,-1.08,-6.27,4.8,22.88
13.26731097698212,3,3,3,0,-9.550000000000001,-4.13,-0.78,-8.470000000000001,4.63,23.04
13.27831089496613,3,3,3,0,-9.44,-4.41,-0.63,-10.85,4.5,23.03
13.28731095790863,3,3,3,0,-9.279999999999999,-4.28,-0.71,-13.11,4.21,22.81
13.29731094837189,3,3,3,0,-9.23,-4.55,-0.87,-14.97,3.75,22.55
13.30831110477448,3,3,3,0,-9.01,-5.18,-1.31,-16.37,3.17,22.57
13.3173109292984,3,3,3,0,-9.08,-5.19,-1.25,-16.96,2.75,22.5
13.32731091976166,3,3,3,0,-8.890000000000001,-5.19,-1.13,-16.81,2.36,22.24
13.33831107616425,3,3,3,0,-8.83,-5.34,-0.89,-16.3,1.88,21.98
13.3483110666275,3,3,3,0,-8.56,-5.15,-0.66,-15.59,0.82,21.55
13.35831105709076,3,3,3,0,-8.6,-5.17,-0.48,-14.18,0.36,20.85
13.36831104755402,3,3,3,0,-8.449999999999999,-5.15,-0.3,-13.34,-0.29,19.95
13.37831103801727,3,3,3,0,-8.08,-5.2,-0.36,-12.79,-1.08,18.95
13.38831102848053,3,3,3,0,-7.73,-5.26,-0.14,-12.72,-1.15,18
13.39831101894379,3,3,3,0,-7.57,-5.1,-0.06,-12.52,-1.28,16.64
13.40831100940704,3,3,3,0,-7.47,-5.22,-0.03,-12.93,-1.4,15.36
13.4183109998703,3,3,3,0,-7.02,-4.83,0.33,-13.35,-1.65,14.14
13.42831099033356,3,3,3,0,-6.57,-4.84,0.6899999999999999,-13.83,-2.04,13.1
13.43831098079681,3,3,3,0,-6.16,-5.22,1.15,-14.66,-2.87,12.28
13.44831097126007,3,3,3,0,-5.72,-5.84,1.23,-15.3,-3.69,11.16
13.45831096172333,3,3,3,0,-5.73,-6.46,0.8,-14.62,-3.58,9.57
13.46831095218658,3,3,3,0,-6.03,-5.66,0.6,-11.64,-2.74,7.61
13.47831094264984,3,3,3,0,-6.3,-4.42,0.46,-7.93,-1.79,5.21
13.4883109331131,3,3,3,1,-6.22,-3.42,0.27,-5.91,-0.84,2.31
13.49831092357635,3,3,3,1,-6.39,-2.4,-0.7,-5.57,-0.38,-0.45
13.50831091403961,3,3,3,1,-7.19,-1.71,-0.9,-6.3,-0.6,-2.44
13.51831090450287,3,3,3,1,-8.41,0.48,-0.49,-6.12,-1.39,-3.73
13.52831089496613,3,3,3,1,-9.75,2.49,0.41,-4.84,-1.87,-3.81
13.53831088542938,3,3,3,1,-12.29,7.22,3.15,-4.28,-2.66,-2.74
13.54831087589264,3,3,3,1,-12.27,10.64,5.04,-5.05,-4,-1.68
13.55831110477448,3,3,3,1,-12.08,14.53,6.26,-6.8,-5.28,-0.54
13.56831109523773,3,3,3,1,-12.27,17.44,6.02,-9.23,-3.57,1.09
13.57831108570099,3,3,3,1,-13.2,16.93,-0.37,-11.83,1.72,3.41
13.58831107616425,3,3,3,2,-12.94,14.58,-1.77,-11.27,4.61,4.87
13.5983110666275,3,3,3,2,-11.07,10.11,0.15,-8.199999999999999,0.61,5.49
13.60831105709076,3,3,3,2,-9.470000000000001,4.41,2.19,-3.58,-1.43,5.46
13.61831104755402,3,3,3,2,-7.48,-1.47,1.13,0.65,1.43,5.87
13.62831103801727,3,3,3,2,-7.17,-1.28,-0.19,4.31,4.22,5.28
13.63831102848053,3,3,3,2,-7.41,0.38,-1.29,6.52,5.09,3.16
13.64831101894379,3,3,3,2,-9.09,1.08,-1.13,6.6,5.18,0.34
13.65831100940704,3,3,3,2,-12.93,5.29,1.64,4.52,4.29,-2.22
13.6683109998703,3,3,3,2,-13.95,8.779999999999999,7.05,-2.12,1.77,-3.05
13.67831099033356,3,3,3,2,-13.62,10,12.11,-12.55,-3.37,-1.43
13.68831098079681,3,3,3,2,-12.15,12.4,10.42,-19.35,-9.31,-1.22
13.69831097126007,3,3,3,2,-12.84,7.76,0.19,-25.05,-4.97,-2.62
13.70831096172333,3,3,3,2,-11.35,1.8,-0.16,-29.66,1.78,-1.92
13.71831095218658,3,3,3,2,-10.07,-4.63,0.97,-30.09,3.84,-2.5
13.72831094264984,3,3,3,2,-9.550000000000001,-9.16,-0.42,-25.02,5.64,-3.39
13.7383109331131,3,3,3,2,-9.380000000000001,-9.65,-5.44,-18.23,7.88,-3.96
13.74831092357635,3,3,3,2,-8.15,-9.17,-7.78,-13.19,9.24,-4.99
13.75831091403961,3,3,3,2,-7.25,-6.35,-7.63,-10.17,9.039999999999999,-7.36
13.76831090450287,3,3,3,2,-8.550000000000001,-3.25,-3.19,-3.06,7.62,-11.14
13.77831089496613,3,3,3,2,-11.94,-6.36,-0.53,2.05,7.07,-14.19
13.78831088542938,3,3,3,2,-10.87,-7.24,-3.2,1.8,7.3,-15.06
13.79831087589264,3,3,3,2,-9.92,-6.41,-2.57,2.18,6.18,-14.36
13.80831110477448,3,3,3,2,-10.16,-2.72,-1.41,6.35,5.29,-13.96
13.81831109523773,3,3,3,2,-10.43,-1.09,-0.09,8.77,5.09,-13.67
13.82831108570099,3,3,3,2,-10.4,0.2,1.35,7.31,4.86,-13.38
13.83831107616425,3,3,3,2,-10.36,0.71,1.77,3.51,4.9,-13.16
13.8483110666275,3,3,3,2,-9.800000000000001,0.66,1.32,-1.47,5.24,-12.72
13.85831105709076,3,3,3,2,-8.890000000000001,0.23,0.38,-6.05,5.14,-12.23
13.86831104755402,3,3,3,2,-8.68,-0.46,-0.8,-9.619999999999999,4.84,-11.82
13.87831103801727,3,3,3,2,-9.140000000000001,-1.12,-1.38,-10.99,4.91,-11.52
13.88831102848053,3,3,3,2,-9.51,-1.6,-2.02,-10.13,5,-11.42
13.89831101894379,3,3,3,2,-9.77,-2.12,-2.01,-8.56,5.11,-11.31
13.90831100940704,3,3,3,2,-9.85,-2.69,-2.12,-6.56,5.51,-11.25
13.9183109998703,3,3,3,2,-9.960000000000001,-3.12,-1.88,-3.72,5.87,-11.37
13.92831099033356,3,3,3,2,-9.859999999999999,-3.35,-0.96,-0.3,5.94,-11.61
13.93831098079681,3,3,3,2,-9.69,-2.8,-0.48,3.4,5.55,-11.99
13.94831097126007,3,3,3,2,-9.699999999999999,-1.94,-0.14,6.68,4.92,-12.47
13.95831096172333,3,3,3,2,-9.640000000000001,-1.86,-0.04,8.31,4.08,-12.73
13.96831095218658,3,3,3,2,-9.4,-1.54,-0.33,8.800000000000001,3.44,-12.59
13.97831094264984,3,3,3,2,-9.369999999999999,-1.32,-0.45,8.57,3.22,-12.27
13.9883109331131,3,3,3,2,-9.41,-1.49,-0.53,8.289999999999999,3.19,-11.91
13.99831092357635,3,3,3,2,-9.5,-1.27,-0.63,8.09,3.31,-11.52
14.00831091403961,3,3,3,2,-9.58,-1.57,-0.8,7.84,3.34,-11.29
14.01831090450287,3,3,3,2,-9.59,-1.45,-0.61,7.78,3.24,-11.39
14.02831089496613,3,3,3,2,-9.550000000000001,-1.29,-0.64,7.87,3,-11.79
14.03831088542938,3,3,3,2,-9.59,-1.08,-0.75,7.47,2.66,-12.23
14.04831087589264,3,3,3,2,-9.640000000000001,-0.43,-0.84,6.63,2.3,-12.57
14.05831110477448,3,3,3,2,-9.529999999999999,-0.72,-1.03,4.86,1.99,-12.64
14.06831109523773,3,3,3,2,-9.470000000000001,-1.12,-1.11,2.85,1.82,-12.72
14.07831108570099,3,3,3,2,-9.42,-1.51,-1.3,1.09,1.67,-12.98
14.08831107616425,3,3,3,2,-9.220000000000001,-2.36,-1.5,-0.32,1.69,-13.3
14.0983110666275,3,3,3,2,-9.210000000000001,-2.75,-1.49,-1.37,1.85,-13.59
14.10831105709076,3,3,3,2,-9.25,-2.82,-1.54,-1.48,1.95,-13.74
14.11831104755402,3,3,3,2,-9.369999999999999,-2.72,-1.37,-0.79,2.02,-13.71
14.12831103801727,3,3,3,2,-9.640000000000001,-2.09,-1.09,0.06,2.07,-13.39
14.13831102848053,3,3,3,2,-9.76,-1.28,-0.72,1.49,2.29,-12.93
14.14831101894379,3,3,3,2,-9.85,-0.53,-0.51,3.08,2.5,-12.12
14.15831100940704,3,3,3,2,-9.880000000000001,0.01,-0.38,4.11,2.75,-11.21
14.1683109998703,3,3,3,2,-9.85,0.45,-0.13,5.01,2.99,-10.35
14.17831099033356,3,3,3,2,-9.869999999999999,0.11,-0.16,5.61,3.19,-9.630000000000001
14.18831098079681,3,3,3,2,-9.91,-0.37,-0.21,6.11,3.41,-9.130000000000001
14.19831097126007,3,3,3,2,-9.93,-0.89,-0.38,6.88,3.65,-8.800000000000001
14.20831096172333,3,3,3,2,-10.07,-1.8,-0.8100000000000001,7.99,3.85,-8.619999999999999
14.21831095218658,3,3,3,2,-10.13,-2.19,-0.74,8.98,4.03,-8.6
14.22831094264984,3,3,3,2,-10.16,-2.28,-0.61,9.970000000000001,4.13,-8.69
14.2383109331131,3,3,3,2,-10.09,-2.3,-0.39,10.91,4.22,-8.81
14.24831092357635,3,3,3,2,-10.04,-2.17,-0.6,11.49,4.2,-8.880000000000001
14.25831091403961,3,3,3,2,-9.94,-1.9,-0.96,11.47,4.05,-8.859999999999999
14.26831090450287,3,3,3,2,-10.05,-1.4,-0.84,11.34,3.79,-8.85
14.27831089496613,3,3,3,2,-10.42,-1.06,-1.06,10.65,3.32,-8.84
14.28831088542938,3,3,3,2,-10.55,-0.91,-1.27,9.25,2.78,-8.75
14.29831087589264,3,3,3,2,-10.68,-0.9,-1.43,7.98,2.41,-8.51
14.30831110477448,3,3,3,2,-10.81,-1.02,-1.66,7.23,2.25,-8.24
14.31831109523773,3,3,3,2,-11.19,-1.57,-1.35,7.11,2.31,-8.01
14.32831108570099,3,3,3,2,-11.59,-1.58,-1.51,7.79,2.41,-7.92
14.33831107616425,3,3,3,2,-12.17,-1.49,-1.73,8.640000000000001,2.46,-7.94
14.3483110666275,3,3,3,2,-12.85,-1.05,-0.9399999999999999,9.94,2.71,-8.08
14.35831105709076,3,3,3,2,-13.43,0.27,0.26,12.01,2.84,-7.94
14.36831104755402,3,3,3,2,-13.35,1.32,0.34,13.74,2.77,-7.3
14.37931096553802,3,3,3,2,-13.19,2.53,0.88,14.81,2.7,-6.32
14.38931095600128,3,3,3,2,-13.06,3.24,1.51,15.5,2.69,-5.1
14.39931094646454,3,3,3,2,-13.62,3.81,1.8,15.95,2.63,-3.64
14.4093109369278,3,3,3,2,-13.72,4.35,1.46,16.27,2.45,-1.58
14.41931092739105,3,3,3,2,-13.82,5.07,1.97,17.01,2.47,1.01
14.42931091785431,3,3,3,2,-13.68,4.38,3.14,16.38,1.92,3.89
14.43931090831757,3,3,3,2,-12.62,3.57,3.79,14.1,0.29,6.61
14.44931089878082,3,3,3,2,-12.01,3.59,4.08,12.89,-1.69,9.57
14.45931088924408,3,3,3,2,-10.92,3.67,2.8,13.44,-4.28,11.89
14.46931087970734,3,3,3,2,-10.07,3.67,1.95,14.43,-5.8,13.36
14.47931087017059,3,3,3,2,-9.33,0.71,0.18,15.58,-5.97,14.42
14.48931109905243,3,3,3,2,-10.09,-1.78,-0.32,13.88,-4.46,15.48
14.49931108951569,3,3,3,2,-11.33,-3.38,-0.34,11.69,-2.79,16.36
14.50931107997894,3,3,3,2,-12.35,-3.77,-0.47,11.59,-1.67,16.8
14.5193110704422,3,3,3,2,-14,-3.81,-0.37,12.57,-0.23,16.68
14.52931106090546,3,3,3,2,-14.21,-4.34,-0.03,12.52,1.9,16.42
14.53931105136871,3,3,3,2,-13.57,-4.77,0.03,11.25,3.74,16.55
14.54931104183197,3,3,3,2,-12.66,-4.1,-0.1,10.58,5.35,17.64
14.55931103229523,3,3,3,2,-12.39,-4.4,1.26,9.109999999999999,6.82,19.14
14.56931102275848,3,3,3,2,-11.89,-5.72,1.58,5.79,6.9,20.19
14.57931101322174,3,3,3,2,-11.25,-6.14,0.73,3.88,6.13,20.56
14.589311003685,3,3,3,1,-11.74,-5.39,0.82,3.66,6.83,20.82
14.59931099414825,3,3,3,1,-11.99,-5.31,0.98,3.45,7.39,21.15
14.60931098461151,3,3,3,1,-12.04,-5.28,0.67,1.35,7.16,21.87
14.61931097507477,3,3,3,1,-11.9,-5.16,0.42,-0.58,6.9,22.83
14.62931096553802,3,3,3,1,-11.44,-5.22,0.54,-2.12,6.62,24
14.63931095600128,3,3,3,1,-11.26,-4.88,0.62,-3.55,6.33,25.27
14.64931094646454,3,3,3,1,-10.64,-4.75,0.66,-4.78,5.88,26.16
14.6593109369278,3,3,3,1,-9.92,-4.75,0.75,-6.36,5.24,26.65
14.66931092739105,3,3,3,1,-9.07,-5.24,0.36,-7.97,4.77,26.77
14.67931091785431,3,3,3,1,-8.67,-4.99,0.03,-9.18,4.42,26.54
14.68931090831757,3,3,3,0,-8.380000000000001,-4.88,-0.27,-10.27,3.91,26.15
14.69931089878082,3,3,3,0,-8.09,-4.75,-0.46,-11.53,3.3,25.64
14.70931088924408,3,3,3,0,-7.63,-4.98,-0.53,-12.95,2.71,24.99
14.71931087970734,3,3,3,0,-7.58,-5.23,-0.32,-14.56,2.29,24.21
14.72931087017059,3,3,3,0,-7.43,-5.54,-0.33,-15.75,1.88,23.24
14.73931109905243,3,3,3,0,-7.4,-5.81,-0.19,-16.31,1.19,22.09
14.74931108951569,3,3,3,0,-7.07,-6.07,-0.29,-15.95,0.5600000000000001,20.56
14.75931107997894,3,3,3,0,-6.88,-6.06,-0.2,-14.99,0.27,18.73
14.7693110704422,3,3,3,0,-6.56,-6.13,-0.11,-13.9,-0.28,17.07
14.77931106090546,3,3,3,0,-6.31,-6.29,-0.21,-12.87,-1.01,15.29
14.78931105136871,3,3,3,0,-5.73,-6.24,-0.65,-11.47,-1.5,13.27
14.79931104183197,3,3,3,0,-5.65,-6.69,-0.9399999999999999,-9.859999999999999,-1.64,11.92
14.80931103229523,3,3,3,0,-5.56,-6.49,-1.22,-7.87,-1.67,10.26
14.81931102275848,3,3,3,0,-5.54,-5.97,-1.3,-5.44,-1.58,8.49
14.82931101322174,3,3,3,0,-5.67,-5.08,-0.92,-4.22,-1.68,7.05
14.839311003685,3,3,3,0,-5.57,-4.92,-0.71,-4.37,-1.96,5.69
14.84931099414825,3,3,3,0,-5.45,-5.12,-0.62,-4.67,-1.94,4.44
14.85931098461151,3,3,3,0,-5.58,-5.16,-0.75,-3.92,-1.54,2.98
14.86931097507477,3,3,3,0,-6.47,-4.19,-0.93,-2.37,-0.62,0.88
14.87931096553802,3,3,3,0,-6.64,-3,-0.45,-0.75,0.16,-1.62
14.88931095600128,3,3,3,0,-6.75,-1.59,0.16,-0.98,0.05,-3.78
14.89931094646454,3,3,3,0,-7.04,-0.03,0.62,-3.11,-0.37,-4.89
14.9093109369278,3,3,3,0,-10,3.67,1.86,-5.31,-0.14,-4.65
14.91931092739105,3,3,3,0,-11.69,6.62,3.29,-5.39,-0.74,-3.1
14.92931091785431,3,3,3,0,-12.88,11.69,5.9,-5.31,-2.27,-1.54
14.93931090831757,3,3,3,0,-13.23,17.53,8.34,-6.63,-1.92,-0.34
14.94931089878082,3,3,3,0,-13.68,27.13,2.23,-7.89,4.06,0.79
14.95931088924408,3,3,3,0,-18.05,29.12,-2.54,-8.68,10.98,3.65
14.96931087970734,3,3,3,0,-17.77,23.56,-2.73,-11.42,5,7.67
14.97931087017059,3,3,3,0,-12.61,12.59,1.49,-8.529999999999999,-3.68,7.89
14.98931109905243,3,3,3,0,-7.76,-2.39,2.95,-3.81,-2.2,6.95
14.99931108951569,3,3,3,0,-7.78,-3.69,1.12,-2.43,1.95,6.54
15.00931107997894,3,3,3,0,-8.1,-2.24,-1.36,-0.28,3.82,4.81
15.0193110704422,3,3,3,0,-11.85,3.03,-2.64,2.57,4.04,2.72
15.02931106090546,3,3,3,0,-11.94,7.56,-2.7,0.3,4.39,0.43
15.06931102275848,3,3,3,0,-13.74,2.17,1.23,-30.38,-6.23,-3.96
15.07931101322174,3,3,3,0,-11.57,-4.42,-2.27,-29.12,3.64,-2.74
15.089311003685,3,3,3,0,-10.29,-10.93,-1.44,-23.94,5.46,-3.24
15.09931099414825,3,3,3,0,-10.51,-12.35,-5.86,-16.35,6.12,-4.22
15.10931098461151,3,3,3,0,-10.08,-10.24,-6.97,-9.18,7.44,-4.95
15.11931097507477,3,3,3,0,-9.119999999999999,-7.68,-7.82,-6.19,7.68,-6.96
15.12931096553802,3,3,3,0,-9.949999999999999,-3.76,-4.05,-2.54,7.13,-10.83
15.13931095600128,3,3,3,0,-11.44,-4.81,1.43,1.78,6.76,-15.04
15.14931094646454,3,3,3,0,-11.16,-7.92,-2.72,-0.91,7.65,-17.01
15.1593109369278,3,3,3,0,-10.31,-9.16,-4.31,-3.15,7.05,-17.05
15.16931092739105,3,3,3,0,-9.94,-7.98,-3.32,2.43,6.35,-16.71
15.17931091785431,3,3,3,0,-10.18,-3.09,-1.58,7.52,5.6,-15.8
15.18931090831757,3,3,3,0,-10.15,-0.9,0.12,9.029999999999999,4.69,-15.07
15.19931089878082,3,3,3,0,-10.04,0.09,1.18,6.87,4.48,-14.71
15.20931088924408,3,3,3,0,-10.11,0.44,1.2,2.66,4.93,-14.12
15.21931087970734,3,3,3,0,-9.710000000000001,0.22,0.61,-1.17,5.21,-13.89
15.22931087017059,3,3,3,0,-9.17,-0.26,-0.27,-3.95,5.26,-14
15.23931109905243,3,3,3,0,-9.09,-0.63,-1.02,-5.23,5,-13.89
15.24931108951569,3,3,3,0,-9.23,-1.09,-1.56,-5.35,4.8,-13.65
15.25931107997894,3,3,3,0,-9.779999999999999,-2.14,-1.98,-4.26,5.07,-13.63
15.2693110704422,3,3,3,0,-10.02,-2.14,-1.88,-2.36,5.29,-13.61
15.27931106090546,3,3,3,0,-10.12,-2.03,-1.77,-0.44,5.31,-13.48
15.28931105136871,3,3,3,0,-10.03,-2.77,-1.68,1.83,5.26,-13.33
15.29931104183197,3,3,3,0,-9.630000000000001,-2.97,-1.1,5.04,5.13,-13.56
15.30931103229523,3,3,3,0,-9.619999999999999,-2.88,-0.91,8.359999999999999,4.66,-13.99
15.31931102275848,3,3,3,0,-9.67,-2.09,-0.47,11.74,3.92,-14.53
15.32931101322174,3,3,3,0,-9.65,-1.61,-0.01,13.21,3.04,-14.68
15.339311003685,3,3,3,0,-9.48,-0.93,-0.11,13.29,2.43,-14.48
15.34931099414825,3,3,3,0,-9.33,-0.64,-0.37,12.46,2.16,-14.08
15.35931098461151,3,3,3,0,-9.32,-0.41,-0.72,11.14,2.01,-13.83
15.36931097507477,3,3,3,0,-9.460000000000001,-0.16,-0.91,9.369999999999999,1.91,-13.69
15.37931096553802,3,3,3,0,-9.710000000000001,-0.03,-1.04,7.42,1.71,-13.82
15.38931095600128,3,3,3,0,-9.800000000000001,0.11,-1.15,5.99,1.58,-14.3
15.40031087398529,3,3,3,0,-9.720000000000001,0.26,-1.25,4.95,1.55,-14.94
15.41031110286713,3,3,3,0,-9.48,-0.28,-1.52,3.89,1.53,-15.23
15.42031109333038,3,3,3,0,-9.35,-0.72,-1.25,3.42,1.87,-14.93
15.43031108379364,3,3,3,0,-9.32,-1.11,-1.21,3.43,2.14,-14.28
15.4403110742569,3,3,3,1,-9.49,-1.29,-1.15,3.8,2.29,-13.46
15.45031106472015,3,3,3,1,-9.81,-1.28,-1.08,3.99,2.24,-12.66
15.46031105518341,3,3,3,1,-9.84,-1.03,-1.04,3.61,2.08,-12.05
15.47031104564667,3,3,3,1,-9.859999999999999,-0.77,-0.88,3.04,1.96,-11.53
15.48031103610992,3,3,3,1,-9.92,-0.62,-0.73,2.45,2.02,-11.24
15.49031102657318,3,3,3,1,-10.03,-0.67,-0.58,2.24,2.2,-11.01
15.50031101703644,3,3,3,1,-10.04,-0.9399999999999999,-0.45,2.71,2.49,-10.69
15.51031100749969,3,3,3,1,-9.92,-1.26,-0.6,3.81,2.72,-10.31
15.52031099796295,3,3,3,1,-9.800000000000001,-1.53,-0.9,5.15,3.01,-9.94
15.53031098842621,3,3,3,1,-9.51,-1.88,-0.36,6.72,3.17,-9.6
15.54031097888947,3,3,3,2,-9.44,-1.99,-0.29,8.25,3.08,-9.42
15.55031096935272,3,3,3,2,-9.44,-2.04,-0.44,8.94,3,-9.4
15.56031095981598,3,3,3,2,-9.59,-2,-0.52,9.460000000000001,3.02,-9.390000000000001
15.57031095027924,3,3,3,2,-9.869999999999999,-2.28,-0.57,9.82,3.06,-9.390000000000001
15.58031094074249,3,3,3,2,-9.91,-2.4,-0.66,9.98,3.09,-9.49
15.59031093120575,3,3,3,2,-9.84,-2.24,-0.76,10.01,3.04,-9.66
15.60031092166901,3,3,3,2,-9.779999999999999,-1.94,-0.88,9.85,2.82,-9.75
15.61031091213226,3,3,3,2,-9.970000000000001,-1.42,-0.58,9.380000000000001,2.48,-9.869999999999999
15.62031090259552,3,3,3,2,-10.01,-1.18,-0.37,8.81,2.05,-9.98
15.63031089305878,3,3,3,2,-9.99,-0.91,-0.38,7.99,1.64,-9.9
15.64031088352203,3,3,3,2,-9.92,-0.79,-0.63,7.06,1.32,-9.67
15.65031087398529,3,3,3,2,-10.13,-1.13,-0.6899999999999999,6.32,1.16,-9.35
15.66031110286713,3,3,3,2,-10.41,-1.51,-0.78,6.22,1.28,-9.09
15.67031109333038,3,3,3,2,-10.77,-1.68,-0.75,6.84,1.53,-8.83
15.68031108379364,3,3,3,2,-11.12,-1.79,-0.98,7.89,1.79,-8.57
15.6903110742569,3,3,3,2,-12.06,-1.61,-1.6,9.15,2.09,-8.49
15.70031106472015,3,3,3,2,-12.8,-0.6899999999999999,-1.09,13.32,1.98,-8.220000000000001
15.71031105518341,3,3,3,2,-13.4,0.15,-0.32,15.02,1.61,-7.46
15.72031104564667,3,3,3,2,-13.74,1.31,0.41,16.07,1.09,-6.17
15.73031103610992,3,3,3,2,-13.55,3.17,1.11,16.07,1.09,-6.17
15.74031102657318,3,3,3,2,-13.58,4.23,1.82,17.19,0.77,-4.69
15.75031101703644,3,3,3,2,-13.87,5.23,2.33,19.9,0.54,-0.06
15.76031100749969,3,3,3,2,-14.43,6.19,2.74,18.08,-0.09,3.37
15.77031099796295,3,3,3,2,-14.16,4.11,3.76,15.01,-1.26,6.95
15.78031098842621,3,3,3,2,-12.96,4.2,3.21,15.01,-1.26,6.95
15.79031097888947,3,3,3,2,-12.34,5.08,3.08,13.15,-2.33,10.72
15.80031096935272,3,3,3,2,-11.43,6.15,2.23,9.02,-5.6,15.02
15.81031095981598,3,3,3,2,-11.59,5.34,0.13,6.03,-6.27,16.4
15.82031095027924,3,3,3,2,-11.95,2.92,-0.8100000000000001,3.86,-5.77,17.41
15.83031094074249,3,3,3,2,-12.77,-0.22,-1.41,3.86,-5.77,17.41
15.84031093120575,3,3,3,2,-14.27,-4.03,-2.54,4.6,-4.38,17.96
15.85031092166901,3,3,3,2,-14.89,-4.72,-2.02,8.82,-0.1,18.41
15.86031091213226,3,3,3,2,-14.86,-5,-1.64,8.119999999999999,1.98,19.2
15.87031090259552,3,3,3,2,-14.58,-4.49,-0.7,5.79,3.94,19.95
15.88031089305878,3,3,3,2,-13.26,-3.91,0.85,5.79,3.94,19.95
15.89031088352203,3,3,3,2,-12.76,-4.3,0.97,2.9,5.57,20.73
15.90031087398529,3,3,3,2,-12.24,-5.66,1.47,-2.56,6.8,21.06
15.91031110286713,3,3,3,2,-11.68,-6.94,1.03,-1.55,7.05,21.09
15.92031109333038,3,3,3,2,-11.12,-7.64,0.23,0.44,7.15,21.33
15.93031108379364,3,3,3,2,-11.13,-7.24,0.2,0.44,7.15,21.33
15.9403110742569,3,3,3,2,-11.13,-6.67,0.01,2.03,6.79,21.76
15.95031106472015,3,3,3,2,-10.94,-5.75,-0.19,1.91,5.87,23.06
15.96031105518341,3,3,3,2,-10.55,-5.36,-0.58,0.9,5.2,24.24
15.97031104564667,3,3,3,2,-10.58,-4.1,-0.32,-1.66,4.44,24.59
15.98031103610992,3,3,3,2,-10.79,-4.2,0.02,-1.66,4.44,24.59
15.99031102657318,3,3,3,2,-10.24,-4.53,0.12,-5.12,3.79,24.63
16.00031101703644,3,3,3,2,-9.33,-5.44,-1.04,-8.26,3.84,24.17
16.01031100749969,3,3,3,2,-9.17,-5.09,-1.44,-8.960000000000001,4.4,23.91
16.02031099796295,3,3,3,2,-9.08,-4.62,-1.53,-10.45,4.73,23.85
16.03031098842621,3,3,3,2,-9.06,-4.34,-1.47,-10.45,4.73,23.85
16.04031097888947,3,3,3,2,-8.83,-4.29,-1.51,-12.2,4.67,24
16.05031096935272,3,3,3,2,-8.76,-4.12,-1.66,-15.47,4.13,24.12
16.06031095981598,3,3,3,2,-8.550000000000001,-4.17,-1.74,-16.83,3.61,23.89
16.07031095027924,3,3,3,2,-8.26,-4.18,-1.58,-18.27,2.71,23.45
16.08031094074249,3,3,3,2,-8.08,-4.44,-0.84,-18.27,2.71,23.45
16.09031093120575,3,3,3,2,-7.83,-4.93,-0.63,-19.37,1.78,22.79
16.10031092166901,3,3,3,2,-7.64,-5.32,-0.38,-19.52,1.02,20.73
16.11031091213226,3,3,3,2,-7.54,-5.34,-0.43,-18.78,0.1,19.06
16.12031090259552,3,3,3,2,-6.86,-5.64,-0.21,-17.85,-0.52,17.26
16.13031089305878,3,3,3,2,-6.74,-5.87,-0.07000000000000001,-17.85,-0.52,17.26
16.14031088352203,3,3,3,2,-6.42,-5.84,-0.22,-16.73,-1.02,15.32
16.15031087398529,3,3,3,2,-6.17,-6.07,-0.27,-14.89,-1.55,12.01
16.16031110286713,3,3,3,2,-5.87,-6.27,-0.63,-15,-2.07,10.5
16.17031109333038,3,3,3,2,-5.54,-7.07,-1.01,-13.84,-1.93,8.99
16.18031108379364,3,3,3,2,-5.4,-7.58,-1.32,-13.84,-1.93,8.99
16.1903110742569,3,3,3,2,-5.25,-7.95,-1.56,-12.14,-1.81,7.16
16.20031106472015,3,3,3,2,-5.18,-7.79,-1.2,-8.51,-2.06,3.05
16.21031105518341,3,3,3,2,-5.13,-7.47,-0.86,-7.11,-2.52,0.79
16.22031104564667,3,3,3,2,-4.91,-7.43,-0.61,-4.97,-2.54,-1.55
16.23031103610992,3,3,3,2,-4.81,-5.88,-0.09,-4.97,-2.54,-1.55
16.24031102657318,3,3,3,2,-4.93,-3.9,0.27,-1.95,-1.69,-3.89
16.25031101703644,3,3,3,2,-5.61,-1.69,0.88,-0.16,0.87,-7.33
16.26031100749969,3,3,3,2,-6.91,0.73,1.59,-2.3,1.45,-8.380000000000001
16.27031099796295,3,3,3,2,-9.51,4.34,1.93,-4.12,2.29,-8.18
16.28031098842621,3,3,3,2,-11.42,5.63,1.83,-4.12,2.29,-8.18
16.29031097888947,3,3,3,2,-13.97,7.3,1.91,-4.1,2.15,-6.4
16.30031096935272,3,3,3,2,-14.99,8.85,2.6,-3.7,-1.64,-2.25
16.31031095981598,3,3,3,2,-13.07,15.72,5.86,-5.04,-1.13,-0.1
16.32031095027924,3,3,3,2,-12.1,20.06,5.97,-6.3,3.31,1.99
16.33031094074249,3,3,3,2,-11.91,23.57,3.12,-6.3,3.31,1.99
16.34031093120575,3,3,3,2,-12.51,25.17,0.14,-5.46,6.34,2.72
16.35031092166901,3,3,3,2,-11.47,13.96,0.96,-5.75,5.74,3.55
16.36031091213226,3,3,3,2,-10.6,6.63,1.55,-4.95,5.93,3.87
16.37031090259552,3,3,3,2,-11.09,1.37,2.06,-2.79,3.47,2.85
16.38031089305878,3,3,3,2,-12.19,-2.72,1.9,-2.79,3.47,2.85
16.39031088352203,3,3,3,2,-14.9,3.74,2.47,0.82,1.33,2.09
16.40031087398529,3,3,3,2,-17.47,15.44,10.61,-8.390000000000001,-9.85,4.73
16.41031110286713,3,3,3,2,-19.07,22.5,15.53,-24.67,-11.74,2.79
16.42031109333038,3,3,3,2,-15.44,17.05,15.08,-25.05,-1.15,-1.73
16.43131101131439,3,3,3,2,-5.91,0.03,-1.06,-25.05,-1.15,-1.73
16.44131100177765,3,3,3,2,-7.6,-9.82,-3.4,-25.73,5.12,-1.19
16.45131099224091,3,3,3,2,-9.640000000000001,-17.89,-5.56,-8.4,8.23,-4.01
16.46131098270416,3,3,3,2,-10.13,-16.54,-10.49,-2.69,7.12,-6.96
16.47131097316742,3,3,3,2,-7.71,-10.43,-12.84,6.11,5.86,-11.2
16.48131096363068,3,3,3,2,-8.58,-3.15,-7.4,6.11,5.86,-11.2
16.49131095409393,3,3,3,2,-10.77,-0.52,-0.15,7.71,6.12,-15.54
16.50131094455719,3,3,3,2,-12.57,-2.19,0.9,-3.75,6.79,-15.73
16.51131093502045,3,3,3,2,-11.49,-10.05,-3.19,1.97,6.58,-15.68
16.5213109254837,3,3,3,2,-10.75,-8.25,-1.11,5.91,6.26,-15.46
16.53131091594696,3,3,3,2,-10.9,-6.51,0.1,5.91,6.26,-15.46
16.54131090641022,3,3,3,2,-11.3,-5.41,1.25,6.85,5.74,-14.88
16.55131089687347,3,3,3,2,-9.880000000000001,-2.3,1.94,4.67,5.4,-14.06
16.56131088733673,3,3,3,2,-9.76,-1.3,1.47,1.79,5.16,-14.31
16.57131087779999,3,3,3,2,-9.949999999999999,-0.49,0.33,-1.84,4.81,-14.77
16.58131086826324,3,3,3,2,-9.800000000000001,-0.2,-0.72,-1.84,4.81,-14.77
16.59131109714508,3,3,3,2,-9.359999999999999,-0.44,-1.85,-3.95,4.72,-15.23
16.60131108760834,3,3,3,2,-9.460000000000001,-0.75,-2.08,-3.33,5.64,-15.38
16.61131107807159,3,3,3,2,-9.630000000000001,-1.37,-2.42,-1.5,6.05,-15.26
16.62131106853485,3,3,3,2,-9.640000000000001,-2.27,-2.68,1.12,6.24,-15.02
16.63131105899811,3,3,3,2,-9.699999999999999,-2.51,-2.4,1.12,6.24,-15.02
16.64131104946136,3,3,3,2,-9.869999999999999,-3.24,-1.84,4.45,6.17,-14.83
16.65131103992462,3,3,3,2,-9.949999999999999,-2.27,-0.97,11.1,4.59,-15.32
16.66131103038788,3,3,3,2,-10.04,-2.46,0.15,13.69,3.57,-15.61
16.67131102085114,3,3,3,2,-10.16,-2.07,0.04,15.21,2.93,-15.39
16.68131101131439,3,3,3,2,-10.09,-1.39,-0.21,15.21,2.93,-15.39
16.69131100177765,3,3,3,2,-9.76,-0.9399999999999999,-0.46,15.68,2.62,-14.99
16.70131099224091,3,3,3,2,-9.369999999999999,-0.31,-1.31,13.87,2.07,-14.89
16.71131098270416,3,3,3,2,-9.19,0.55,-1.64,10.82,1.57,-14.89
16.72131097316742,3,3,3,2,-9.140000000000001,0.6899999999999999,-1.54,7.98,1.07,-15.31
16.73131096363068,3,3,3,3,-9.27,0.6,-1.42,7.98,1.07,-15.31
16.74131095409393,3,3,3,3,-9.52,0.79,-1.41,6.22,1.04,-15.83
16.75131094455719,3,3,3,3,-9.77,0.98,-1.53,5.37,1.87,-15.04
16.76131093502045,3,3,3,3,-9.630000000000001,0.52,-1.49,6.42,2.38,-13.58
16.7713109254837,3,3,3,3,-9.369999999999999,0.33,-1.11,6.88,2.96,-12.03
16.78131091594696,3,3,3,3,-9.619999999999999,-0.07000000000000001,-1.82,6.88,2.96,-12.03
16.79131090641022,3,3,3,3,-9.76,-0.47,-1.38,6.48,2.93,-10.95
16.80131089687347,3,3,3,3,-9.83,-1.34,-1.1,2.89,2.09,-10.61
16.81131088733673,3,3,3,3,-9.82,-1.57,-0.74,1.29,1.85,-10.63
16.82131087779999,3,3,3,3,-9.859999999999999,-1.28,-0.52,0.79,1.72,-10.82
16.83131086826324,3,3,3,3,-9.859999999999999,-1.28,-0.52,0.79,1.72,-10.82
16.84131109714508,3,3,3,3,-9.890000000000001,-1.02,-0.43,1.22,1.89,-10.95
16.85131108760834,3,3,3,3,-9.699999999999999,-1.15,-0.11,3.74,2.3,-10.78
16.86131107807159,3,3,3,3,-9.66,-1.46,-0.13,4.95,2.47,-10.45
16.87131106853485,3,3,3,3,-9.609999999999999,-1.83,-0.36,5.96,2.43,-10.09
16.88131105899811,3,3,3,3,-9.609999999999999,-1.83,-0.36,5.96,2.43,-10.09
16.89131104946136,3,3,3,3,-9.74,-2.01,-0.48,6.67,2.44,-9.9
16.90131103992462,3,3,3,3,-9.83,-2.25,-0.67,7.64,2.56,-9.800000000000001
16.91131103038788,3,3,3,3,-9.710000000000001,-2.19,-0.76,8.029999999999999,2.65,-9.82
16.92131102085114,3,3,3,3,-9.6,-2.03,-0.74,8.380000000000001,2.67,-9.859999999999999
16.93131101131439,3,3,3,3,-9.6,-2.03,-0.74,8.380000000000001,2.67,-9.859999999999999
16.94131100177765,3,3,3,3,-9.460000000000001,-1.54,-0.62,8.5,2.73,-9.93
16.95131099224091,3,3,3,3,-9.6,-1.55,-0.72,8.35,2.59,-10.09
16.96131098270416,3,3,3,3,-9.67,-1.46,-0.66,8.35,2.43,-10.1
16.97131097316742,3,3,3,3,-10.04,-1.16,-0.02,8.59,2.18,-9.970000000000001
16.98131096363068,3,3,3,3,-10.04,-1.16,-0.02,8.59,2.18,-9.970000000000001
16.99131095409393,3,3,3,3,-10.2,-1,0.05,8.49,1.88,-9.789999999999999
17.00131094455719,3,3,3,3,-10.23,-0.44,-0.25,7.98,1.45,-9.17
17.01131093502045,3,3,3,3,-10.36,-0.57,-0.25,7.82,1.53,-8.73
17.0213109254837,3,3,3,3,-10.73,-0.78,-0.23,8.289999999999999,1.7,-8.44
17.03131091594696,3,3,3,3,-10.73,-0.78,-0.23,8.82,1.7,-8.109999999999999
17.04131090641022,3,3,3,3,-11.22,-0.9399999999999999,-0.7,9.52,1.71,-7.87
17.05131089687347,3,3,3,3,-13.59,0.73,0.12,11.25,1.67,-7.45
17.06131088733673,3,3,3,3,-13.98,1.69,0.6,13.11,1.21,-6.31
17.07131087779999,3,3,3,3,-13.82,2.88,0.41,14.23,0.75,-4.82
17.08131086826324,3,3,3,3,-13.82,2.88,0.41,15.15,0.6,-3.14
17.09131109714508,3,3,3,3,-13.36,5.63,0.96,16.22,0.49,-0.95
17.10131108760834,3,3,3,3,-14.31,7.16,1.89,15.54,0.01,2.17
17.11131107807159,3,3,3,3,-14.42,6.07,2.03,12.6,-1.29,5.62
17.12131106853485,3,3,3,3,-13.28,5.84,2.44,10.46,-2.67,9.33
17.13131105899811,3,3,3,3,-13.28,5.84,2.44,9.91,-4.89,12.31
17.14131104946136,3,3,3,3,-12.39,6.49,2.32,9.91,-7.19,13.9
17.15131103992462,3,3,3,3,-12.4,6.29,1.14,8.279999999999999,-8.33,15.41
17.16131103038788,3,3,3,3,-13.05,-0.16,-0.58,4.06,-7,16.66
17.17131102085114,3,3,3,3,-14.23,-2.74,-1.59,1.95,-4.38,17.32
17.18131101131439,3,3,3,3,-14.23,-2.74,-1.59,3.57,-2.42,18.09
17.19131100177765,3,3,3,3,-15.16,-4.33,-2.07,7.7,-1.13,18.66
17.20131099224091,3,3,3,3,-16.49,-5.58,-1.07,10.79,0.53,19.33
17.21131098270416,3,3,3,3,-15.75,-5,0.16,11.03,2.72,20.48
17.22131097316742,3,3,3,3,-14.94,-4.52,0.87,8.59,4.95,21.85
17.23131096363068,3,3,3,3,-14.94,-4.52,0.87,4.46,6.55,23.3
17.24131095409393,3,3,3,3,-13.66,-4.51,1.18,0.06,7.14,23.84
17.25131094455719,3,3,3,3,-12.37,-7,0.51,-0.47,7.87,24.07
17.26131093502045,3,3,3,3,-12.48,-6.85,0.08,0.55,8.31,24.07
17.2713109254837,3,3,3,3,-13.06,-6.44,-0.09,1.23,8.109999999999999,24.4
17.28131091594696,3,3,3,3,-13.06,-6.44,-0.09,1.44,7.53,25.4
17.29131090641022,3,3,3,3,-12.07,-5.79,-0.83,1.68,7.09,25.99
17.30131089687347,3,3,3,3,-12.71,-4.77,-1.17,1.02,6.54,26.9
17.31131088733673,3,3,3,3,-12.83,-4.57,-0.89,-1.63,5.99,27.74
17.32131087779999,3,3,3,3,-11.71,-4.63,-0.55,-5.31,5.37,28.26
17.33131086826324,3,3,3,2,-11.71,-4.63,-0.55,-8.369999999999999,4.7,28.55
17.34131109714508,3,3,3,2,-10.98,-5.81,-0.76,-9.449999999999999,4.6,28.6
17.35131108760834,3,3,3,2,-9.59,-5.42,-1.43,-10.66,4.76,28.54
17.36131107807159,3,3,3,2,-8.75,-5.19,-1.35,-12.02,4.75,28.37
17.37131106853485,3,3,3,2,-8.300000000000001,-4.95,-1.39,-13.58,4.55,27.95
17.38131105899811,3,3,3,2,-8.300000000000001,-4.95,-1.39,-15.25,4.36,27.32
17.39131104946136,3,3,3,2,-7.8,-4.88,-1.33,-17.22,3.84,26.53
17.40131103992462,3,3,3,2,-7.64,-4.85,-1.29,-18.46,3.03,25.7
17.41131103038788,3,3,3,2,-7.82,-4.83,-1.06,-19.74,2.01,24.68
17.42131102085114,3,3,3,2,-7.7,-5.04,-0.64,-21.44,1.02,23.37
17.43131101131439,3,3,3,1,-7.7,-5.04,-0.64,-22.84,0.31,21.86
17.44131100177765,3,3,3,1,-7.11,-5.37,-0.3,-24.02,-0.23,20.57
17.45231091976166,3,3,3,1,-6.62,-6.67,-0.57,-24.45,-0.78,19.28
17.46231091022491,3,3,3,1,-6.15,-7.31,-0.62,-24.02,-1.84,17.58
17.47231090068817,3,3,3,1,-4.84,-8.81,-0.8,-22.49,-2.48,15.89
17.48231089115143,3,3,3,1,-4.84,-8.81,-0.8,-19.96,-3.31,13.47
17.49231088161469,3,3,3,1,-4.21,-9.34,-0.92,-17.32,-4.14,10.99
17.50231087207794,3,3,3,1,-3.96,-9.17,-0.82,-15.07,-5.13,8.470000000000001
17.51231110095978,3,3,3,1,-3.34,-9.470000000000001,-0.58,-13.06,-6.22,5.91
17.52231109142303,3,3,3,1,-3.29,-9.74,-0.43,-10.28,-6.89,3.26
17.53231108188629,3,3,3,1,-3.29,-9.74,-0.43,-6.48,-6.75,0.5
17.54231107234955,3,3,3,1,-3.3,-9.630000000000001,-0.42,-6.48,-6.75,0.5
17.55231106281281,3,3,3,1,-4.17,-4.42,1.04,-3.05,-5.92,-2.37
17.56231105327606,3,3,3,1,-4.81,-2.48,1.39,-2.09,-5.16,-4.34
17.57231104373932,3,3,3,1,-6.02,-0.49,1.06,-2.78,-3.81,-5.47
17.58231103420258,3,3,3,1,-6.02,-0.49,1.06,-3.92,-1.03,-8.01
17.59231102466583,3,3,3,1,-12.3,5.95,1.8,-3.92,-1.03,-8.01
17.60231101512909,3,3,3,1,-14.38,7.51,2.6,-7.17,-0.8100000000000001,-8.58
17.61231100559235,3,3,3,1,-15.13,8.49,2.64,-10.39,-1.36,-7.77
17.6223109960556,3,3,3,1,-14.45,8.67,3.23,-10.26,-0.96,-5.34
17.63231098651886,3,3,3,0,-12.04,11.49,4.57,-8.460000000000001,-1.08,-2.41
17.64231097698212,3,3,3,0,-11.72,14.07,4.26,-8.460000000000001,-1.08,-2.41
17.65231096744537,3,3,3,0,-11.37,15.82,3.42,-8.99,-1.58,-1.16
17.66231095790863,3,3,3,0,-11.21,16.18,2.51,-8.69,-0.6899999999999999,0.03
17.67231094837189,3,3,3,0,-10.96,11.55,1.09,-8.52,1.7,0.6
17.68231093883514,3,3,3,0,-10.5,8.02,1.11,-7.54,4.23,1.44
17.71231091022491,3,3,3,0,-17.19,-0.64,3.39,2.29,4.6,3.86
17.72231090068817,3,3,3,0,-14.85,-4.31,10.71,-5.97,1.95,0.34
17.73231089115143,3,3,3,0,-9.789999999999999,4.42,15.06,-6.78,-7.57,-4.89
17.74231088161469,3,3,3,0,-10.62,16.53,12.31,8.039999999999999,-10.68,-7.8
17.75231087207794,3,3,3,0,-12.36,7.92,1.96,5.12,-4.71,-6.48
17.76231110095978,3,3,3,0,-10.6,2.78,-1.84,-7.57,3.42,-4.91
17.77231109142303,3,3,3,0,-10.35,-4.45,-1.63,-13.64,4.56,-4.1
17.78231108188629,3,3,3,0,-10.07,-10.67,-5.51,-13.39,4.73,-4.83
17.79231107234955,3,3,3,0,-10.86,-8.02,-7.45,-8.75,5.48,-6.73
17.80231106281281,3,3,3,0,-11.3,-6.79,-6.67,-2.76,6.2,-8.35
17.81231105327606,3,3,3,0,-10.97,-5.87,-6.32,-0.11,6.59,-10.09
17.82231104373932,3,3,3,0,-11.43,-2.39,-1.03,0.46,7.25,-12.2
17.83231103420258,3,3,3,0,-10.92,-3.58,0.23,1.44,7.5,-13.96
17.84231102466583,3,3,3,0,-10.25,-5.11,-0.72,-0.88,7.09,-14.25
17.85231101512909,3,3,3,0,-9.81,-5.38,-1.22,-4.09,6.64,-13.76
17.86231100559235,3,3,3,0,-9.949999999999999,-3.73,0.17,-3.44,6.24,-13.61
17.8723109960556,3,3,3,0,-10.07,-3.08,0.22,-1.45,6.1,-13.68
17.88231098651886,3,3,3,0,-10.12,-1.94,0.44,-0.95,5.91,-13.53
17.89231097698212,3,3,3,0,-10.21,-1.13,0.72,-1.47,5.68,-13.39
17.90231096744537,3,3,3,0,-9.92,-0.65,0.05,-2.95,5.36,-13.25
17.91231095790863,3,3,3,0,-9.57,-0.42,-0.26,-4.41,5.1,-13.19
17.92231094837189,3,3,3,0,-9.23,-0.47,-0.45,-5.64,4.91,-13.2
17.93231093883514,3,3,3,0,-9.17,-0.9,-0.7,-6.75,4.95,-13.22
17.9423109292984,3,3,3,0,-9.49,-1.93,-1.27,-7.12,5.18,-13.32
17.95231091976166,3,3,3,0,-9.57,-2.08,-1.49,-6.05,5.5,-13.41
17.96231091022491,3,3,3,0,-9.75,-2.49,-1.41,-3.78,5.76,-13.4
17.97231090068817,3,3,3,0,-9.84,-2.94,-1.07,-0.79,5.93,-13.59
17.98231089115143,3,3,3,0,-9.77,-2.49,-0.24,2.91,5.69,-13.98
17.99231088161469,3,3,3,0,-9.869999999999999,-1.96,0.11,6.75,5.07,-14.47
18.00231087207794,3,3,3,0,-9.970000000000001,-1.35,0.25,9.98,4.21,-14.79
18.01231110095978,3,3,3,0,-9.9,-0.67,0.29,11.82,3.41,-14.85
18.02231109142303,3,3,3,0,-9.18,0.71,-0.03,12.19,2.9,-14.46
18.03231108188629,3,3,3,0,-9.039999999999999,1.22,-0.34,11.43,2.72,-13.84
18.04231107234955,3,3,3,0,-9.15,1.5,-0.71,9.68,2.81,-13.14
18.05231106281281,3,3,3,0,-9.44,1.5,-1.04,7.51,3.02,-12.54
18.06231105327606,3,3,3,0,-10.02,0.89,-0.8100000000000001,5.74,3.19,-12.35
18.07231104373932,3,3,3,0,-10.12,0.51,-0.7,4.92,3.13,-12.46
18.08231103420258,3,3,3,0,-10.1,0.6,-0.63,4.62,3.02,-12.84
18.09231102466583,3,3,3,0,-9.880000000000001,1.04,-0.62,4.83,2.75,-13.31
18.10231101512909,3,3,3,0,-9.41,1.13,-0.61,4.51,2.46,-13.54
18.11231100559235,3,3,3,0,-9.140000000000001,0.58,-0.45,3.58,2.32,-13.42
18.1223109960556,3,3,3,0,-9.109999999999999,-0.14,-0.49,2.49,2.42,-13.05
18.13231098651886,3,3,3,0,-9.27,-0.64,-0.52,2.05,2.62,-12.7
18.14231097698212,3,3,3,0,-9.609999999999999,-1.51,-0.63,1.92,2.81,-12.21
18.15231096744537,3,3,3,0,-9.75,-1.83,-0.86,1.75,2.92,-11.62
18.16231095790863,3,3,3,0,-9.73,-2.08,-0.98,1.85,2.99,-10.97
18.17231094837189,3,3,3,0,-9.529999999999999,-2.24,-0.92,2.04,3.07,-10.46
18.18231093883514,3,3,3,1,-9.460000000000001,-2.27,-0.74,2.58,3.18,-10.05
18.1923109292984,3,3,3,1,-9.34,-2.47,-0.6899999999999999,3.28,3.37,-9.970000000000001
18.22231090068817,3,3,3,1,-9.449999999999999,-2.61,-0.15,6.65,3.61,-9.93
18.23231089115143,3,3,3,1,-9.460000000000001,-2.37,-0.31,7.6,3.49,-9.93
18.24231088161469,3,3,3,1,-9.56,-2.02,-0.24,8.380000000000001,3.42,-9.9
18.25231087207794,3,3,3,1,-9.609999999999999,-2.14,-0.55,8.75,3.32,-9.84
18.26231110095978,3,3,3,1,-9.68,-2.22,-0.83,8.380000000000001,3.41,-9.859999999999999
18.27231109142303,3,3,3,1,-9.869999999999999,-2.05,-0.7,8.119999999999999,3.58,-9.880000000000001
18.28231108188629,3,3,3,1,-10.03,-2,-0.26,8.24,3.64,-9.98
18.29231107234955,3,3,3,1,-9.99,-1.8,-0.32,8.220000000000001,3.38,-10.08
18.30231106281281,3,3,3,1,-10.14,-1.67,-0.55,7.98,2.93,-10.16
18.31231105327606,3,3,3,1,-10.39,-1.41,-0.54,7.55,2.51,-10.28
18.32231104373932,3,3,3,1,-10.73,-1.26,-0.82,6.98,2.01,-10.45
18.33231103420258,3,3,3,1,-11.39,-1.01,-1.3,6.15,1.49,-10.51
18.34231102466583,3,3,3,1,-11.62,-0.86,-1.49,5.41,1.06,-10.33
18.35231101512909,3,3,3,1,-11.8,-0.67,-1.45,5.11,0.8100000000000001,-10.15
18.36231100559235,3,3,3,1,-11.96,-0.61,-1.52,5.32,0.67,-9.84
18.3723109960556,3,3,3,1,-12.64,0.11,-1.8,5.71,0.66,-9.49
18.38231098651886,3,3,3,1,-13,0.64,-1.02,6.81,0.74,-9.199999999999999
18.39231097698212,3,3,3,1,-13.22,0.96,0.16,8.470000000000001,0.99,-8.85
18.40231096744537,3,3,3,1,-13.15,1.42,0.6,10.43,1.04,-8.17
18.41231095790863,3,3,3,1,-12.81,2.94,1.15,11.79,0.77,-7.16
18.42231094837189,3,3,3,1,-12.93,3.76,2.01,12.9,0.53,-6
18.43231093883514,3,3,3,1,-13.17,4.35,2.39,14.01,0.33,-4.64
18.4423109292984,3,3,3,1,-13.52,5.2,2.26,15.2,0.22,-2.63
18.45231091976166,3,3,3,1,-13.55,5.77,2.74,16.79,0.42,0.34
18.46231091022491,3,3,3,1,-13.01,4.09,2.64,15.57,0.21,4.07
18.4733110666275,3,3,3,1,-12.34,3.06,2.46,10.79,-0.87,7.09
18.48331105709076,3,3,3,1,-11.2,3.83,1.86,9.050000000000001,-2.82,9.619999999999999
18.49331104755402,3,3,3,1,-11.07,5.26,1.05,9.94,-4.7,11.35
18.50331103801727,3,3,3,1,-11.4,4.44,-0.19,9.91,-6.02,12.97
18.51331102848053,3,3,3,1,-11.91,1.8,-0.37,8.9,-6.9,14.71
18.52331101894379,3,3,3,1,-12.72,-0.9,-0.77,6.38,-6.14,15.48
18.53331100940704,3,3,3,1,-14.36,-4.39,-1.48,4.9,-3.91,15.71
18.5433109998703,3,3,3,1,-14.72,-5.43,-1.51,5.74,-1.41,16.05
18.55331099033356,3,3,3,1,-14.62,-5.68,-1.32,7.35,0.05,16.57
18.56331098079681,3,3,3,1,-13.5,-4.24,0.34,8.539999999999999,1.72,17.64
18.57331097126007,3,3,3,1,-12.75,-3.39,0.99,8.77,3.52,19.03
18.58331096172333,3,3,3,1,-12.48,-4.18,2.02,6.78,5.42,20.35
18.59331095218658,3,3,3,1,-12.42,-6.14,2.49,1.99,6.74,21.21
18.60331094264984,3,3,3,1,-12.16,-7.02,0.97,-1.28,6.93,21.32
18.6133109331131,3,3,3,1,-12.25,-6.96,0.87,-1.23,7.57,21.38
18.62331092357635,3,3,3,1,-12.37,-6.76,0.7,-0.19,8.039999999999999,21.64
18.63331091403961,3,3,3,1,-12.23,-6.5,0.46,0.59,7.79,22.17
18.64331090450287,3,3,3,1,-11.33,-5.7,0.14,1.41,7.34,23.15
18.65331089496613,3,3,3,1,-11.46,-5.21,0.1,2.05,6.53,24.21
18.66331088542938,3,3,3,1,-11.61,-4.21,0.42,1.9,6.13,25.33
18.67331087589264,3,3,3,1,-11.23,-4.43,1.03,-0.26,5.74,25.82
18.68331110477448,3,3,3,1,-9.710000000000001,-5.72,0.5600000000000001,-3.67,5.02,26.3
18.69331109523773,3,3,3,1,-9.23,-5.69,0.11,-5.38,4.41,26.3
18.70331108570099,3,3,3,1,-8.98,-5.54,-0.26,-5.58,4.48,26.08
18.71331107616425,3,3,3,1,-8.74,-5.25,-0.27,-5.78,4.62,25.77
18.7233110666275,3,3,3,1,-8.289999999999999,-4.87,-0.34,-6.42,4.48,25.42
18.73331105709076,3,3,3,1,-8.17,-4.8,-0.3,-7.48,4.27,25.26
18.74331104755402,3,3,3,1,-7.84,-4.97,-0.29,-8.94,3.89,25.05
18.75331103801727,3,3,3,1,-7.57,-4.64,-0.34,-10.48,3.25,24.61
18.76331102848053,3,3,3,1,-7.58,-5.1,-0.25,-12.52,2.58,23.87
18.77331101894379,3,3,3,1,-7.3,-5.35,-0.26,-14.63,1.67,23.06
18.78331100940704,3,3,3,1,-6.98,-5.81,-0.29,-16.52,0.96,22.05
