timestamp,magCalib,accCalib,gyrCalib,sysCalib,accX,accY,accZ,gyrX,gyrY,gyrZ
-0.006688952445983887,2,3,3,3,-9.470000000000001,-1.53,1.74,-0.28,0.07000000000000001,0.26
0.003311038017272949,2,3,3,3,-9.44,-1.55,1.81,-0.43,0.2,0.2
0.01331102848052979,2,3,3,3,-9.550000000000001,-1.56,1.6,-0.57,0.3,0.14
0.02331101894378662,2,3,3,3,-9.6,-1.59,1.71,-0.73,0.25,0.1
0.03331100940704346,2,3,3,3,-9.609999999999999,-1.65,1.73,-0.89,0.12,0.01
0.04331099987030029,2,3,3,3,-9.609999999999999,-1.65,1.73,-0.96,0.1,-0.01
0.05331099033355713,2,3,3,3,-9.59,-1.67,1.72,-0.96,0.11,0
0.06331098079681396,2,3,3,3,-9.550000000000001,-1.75,1.61,-0.89,0.1,0.05
0.0733109712600708,2,3,3,3,-9.5,-1.77,1.64,-0.77,0.09,0.08
0.08331096172332764,2,3,3,3,-9.460000000000001,-1.77,1.73,-0.67,0.05,0.09
0.09331095218658447,2,3,3,3,-9.460000000000001,-1.77,1.73,-0.67,0.05,0.09
0.1033109426498413,2,3,3,3,-9.449999999999999,-1.81,1.82,-0.62,-0.02,0.14
0.1133109331130981,2,3,3,3,-9.460000000000001,-1.84,1.65,-0.52,-0.06,0.27
0.123310923576355,2,3,3,3,-9.42,-1.85,1.68,-0.36,-0.02,0.29
0.1333109140396118,2,3,3,3,-9.449999999999999,-1.8,1.78,-0.25,0.04,0.28
0.1433109045028687,2,3,3,3,-9.449999999999999,-1.8,1.78,-0.25,0.04,0.28
0.1533108949661255,2,3,3,3,-9.51,-1.79,1.82,-0.07000000000000001,0.06,0.29
0.1633108854293823,2,3,3,3,-9.550000000000001,-1.74,1.71,0.15,0.04,0.23
0.1733108758926392,2,3,3,3,-9.460000000000001,-1.69,1.81,0.24,0.02,0.18
0.1833111047744751,2,3,3,3,-9.470000000000001,-1.67,1.86,0.23,0.12,0.12
0.1933110952377319,2,3,3,3,-9.470000000000001,-1.67,1.86,0.23,0.12,0.12
0.2033110857009888,2,3,3,3,-9.52,-1.66,1.85,0.24,0.16,0.1
0.2133110761642456,2,3,3,3,-9.6,-1.66,1.72,0.18,0.14,0.04
0.2233110666275024,2,3,3,3,-9.539999999999999,-1.62,1.74,0.15,0.12,0
0.2333110570907593,2,3,3,3,-9.51,-1.67,1.77,0.15,0.12,-0.04
0.2433110475540161,2,3,3,3,-9.51,-1.67,1.77,0.15,0.12,-0.04
0.2533110380172729,2,3,3,3,-9.5,-1.69,1.81,0.24,0.16,-0.09
0.2633110284805298,2,3,3,3,-9.52,-1.73,1.72,0.28,0.1,-0.11
0.2733110189437866,2,3,3,3,-9.52,-1.74,1.73,0.3,0.06,-0.1
0.2833110094070435,2,3,3,3,-9.460000000000001,-1.69,1.79,0.41,0.06,-0.04
0.2933109998703003,2,3,3,3,-9.460000000000001,-1.69,1.79,0.41,0.06,-0.04
0.3033109903335571,2,3,3,3,-9.449999999999999,-1.68,1.89,0.49,0.04,0.01
0.313310980796814,2,3,3,3,-9.44,-1.64,1.74,0.47,-0.01,0.08
0.3233109712600708,2,3,3,3,-9.51,-1.61,1.79,0.52,0.01,0.09
0.3333109617233276,2,3,3,3,-9.51,-1.61,1.79,0.5600000000000001,0.06,0.16
0.3433109521865845,2,3,3,3,-9.539999999999999,-1.56,1.82,0.5600000000000001,0.06,0.16
0.3533109426498413,2,3,3,3,-9.550000000000001,-1.57,1.87,0.5600000000000001,0.02,0.15
0.3633109331130981,2,3,3,3,-9.57,-1.56,1.86,0.5600000000000001,0.01,0.09
0.373310923576355,2,3,3,3,-9.56,-1.52,1.71,0.61,0.01,0.09
0.3843110799789429,2,3,3,3,-9.59,-1.49,1.81,0.61,-0.05,0.08
0.3943110704421997,2,3,3,3,-9.550000000000001,-1.47,1.86,0.61,-0.05,0.08
0.4043110609054565,2,3,3,3,-9.49,-1.45,1.93,0.59,-0.07000000000000001,0.09
0.4143110513687134,2,3,3,3,-9.460000000000001,-1.47,1.88,0.47,-0.05,0.14
0.4243110418319702,2,3,3,3,-9.44,-1.51,1.82,0.38,-0.05,0.2
0.4343110322952271,2,3,3,3,-9.449999999999999,-1.52,1.85,0.38,-0.05,0.22
0.4443110227584839,2,3,3,3,-9.539999999999999,-1.53,1.85,0.38,-0.05,0.22
0.4543110132217407,2,3,3,3,-9.539999999999999,-1.53,1.85,0.38,-0.04,0.23
0.4643110036849976,2,3,3,3,-9.56,-1.51,1.85,0.43,-0.12,0.26
0.4743109941482544,2,3,3,3,-9.56,-1.53,1.69,0.48,-0.15,0.23
0.4843109846115112,2,3,3,3,-9.539999999999999,-1.52,1.84,0.47,-0.1,0.23
0.4943109750747681,2,3,3,3,-9.48,-1.51,1.89,0.47,-0.1,0.23
0.5043109655380249,2,3,3,3,-9.48,-1.5,1.91,0.45,-0.06,0.19
0.5143109560012817,2,3,3,3,-9.470000000000001,-1.52,1.94,0.3,0.01,0.11
0.5243109464645386,2,3,3,3,-9.5,-1.51,1.81,0.19,-0.02,0.11
0.5343109369277954,2,3,3,3,-9.550000000000001,-1.52,1.85,0.17,-0.02,0.14
0.5443109273910522,2,3,3,3,-9.550000000000001,-1.52,1.83,0.17,-0.02,0.14
0.5543109178543091,2,3,3,3,-9.529999999999999,-1.55,1.87,0.15,-0.03,0.13
0.5643109083175659,2,3,3,3,-9.52,-1.54,1.83,0.12,-0.07000000000000001,0.13
0.5743108987808228,2,3,3,3,-9.51,-1.59,1.75,0.07000000000000001,-0.06,0.13
0.5843108892440796,2,3,3,3,-9.5,-1.59,1.77,0.1,-0.08,0.14
0.5943108797073364,2,3,3,3,-9.52,-1.56,1.81,0.15,-0.13,0.12
0.6043108701705933,2,3,3,3,-9.49,-1.54,1.86,0.19,-0.16,0.12
0.6143110990524292,2,3,3,3,-9.51,-1.54,1.86,0.22,-0.16,0.19
0.624311089515686,2,3,3,3,-9.49,-1.56,1.82,0.17,-0.15,0.24
0.6343110799789429,2,3,3,3,-9.460000000000001,-1.55,1.83,0.13,-0.09,0.25
0.6443110704421997,2,3,3,3,-9.470000000000001,-1.53,1.9,0.13,-0.09,0.25
0.6543110609054565,2,3,3,3,-9.49,-1.54,1.93,0.14,-0.06,0.25
0.6643110513687134,2,3,3,3,-9.52,-1.54,1.95,0.08,-0.13,0.29
0.6743110418319702,2,3,3,3,-9.539999999999999,-1.5,1.76,0.07000000000000001,-0.11,0.26
0.6843110322952271,2,3,3,3,-9.52,-1.54,1.81,0.09,-0.13,0.25
0.6943110227584839,2,3,3,3,-9.5,-1.54,1.85,0.09,-0.13,0.25
0.7043110132217407,2,3,3,3,-9.48,-1.55,1.92,0.1,-0.11,0.23
0.7143110036849976,2,3,3,3,-9.56,-1.51,1.83,0.13,-0.09,0.17
0.7243109941482544,2,3,3,3,-9.57,-1.49,1.77,0.18,-0.14,0.15
0.7343109846115112,2,3,3,3,-9.56,-1.44,1.83,0.19,-0.12,0.12
0.7443109750747681,2,3,3,3,-9.529999999999999,-1.46,1.9,0.19,-0.12,0.12
0.7543109655380249,2,3,3,3,-9.460000000000001,-1.5,1.94,0.06,-0.09,0.09
0.7643109560012817,2,3,3,3,-9.48,-1.54,1.86,0.05,-0.07000000000000001,0.14
0.7743109464645386,2,3,3,3,-9.5,-1.51,1.78,0.04,-0.15,0.15
0.7843109369277954,2,3,3,3,-9.529999999999999,-1.54,1.88,0.04,-0.11,0.14
0.7943109273910522,2,3,3,3,-9.529999999999999,-1.56,1.88,0.1,-0.06,0.14
0.8043109178543091,2,3,3,3,-9.51,-1.57,1.86,0.16,-0.07000000000000001,0.13
0.8143109083175659,2,3,3,3,-9.5,-1.56,1.87,0.22,-0.12,0.12
0.8243108987808228,2,3,3,3,-9.52,-1.54,1.8,0.21,-0.2,0.14
0.8343108892440796,2,3,3,3,-9.51,-1.52,1.81,0.14,-0.24,0.17
0.8443108797073364,2,3,3,3,-9.5,-1.46,1.85,0.14,-0.24,0.17
0.8543108701705933,2,3,3,3,-9.48,-1.48,1.91,0.07000000000000001,-0.14,0.2
0.8643110990524292,2,3,3,3,-9.470000000000001,-1.49,1.91,0.05,-0.08,0.22
0.874311089515686,2,3,3,3,-9.51,-1.5,1.85,0.03,-0.07000000000000001,0.19
0.8843110799789429,2,3,3,3,-9.550000000000001,-1.51,1.87,0.08,-0.1,0.18
0.8943110704421997,2,3,3,3,-9.57,-1.49,1.92,0.08,-0.1,0.18
0.9043110609054565,2,3,3,3,-9.59,-1.45,1.88,0.1,-0.21,0.14
0.9143110513687134,2,3,3,3,-9.5,-1.44,1.87,0.17,-0.16,0.12
0.9243110418319702,2,3,3,3,-9.48,-1.46,1.79,0.17,-0.1,0.14
0.9343110322952271,2,3,3,3,-9.44,-1.48,1.86,0.16,-0.07000000000000001,0.15
0.9443110227584839,2,3,3,3,-9.49,-1.5,1.93,0.16,-0.07000000000000001,0.15
0.9543110132217407,2,3,3,3,-9.539999999999999,-1.49,1.92,0.15,-0.08,0.23
0.9643110036849976,2,3,3,3,-9.56,-1.46,1.91,0.16,-0.13,0.23
0.9743109941482544,2,3,3,3,-9.58,-1.42,1.76,0.27,-0.2,0.21
0.9843109846115112,2,3,3,3,-9.58,-1.4,1.86,0.35,-0.2,0.24
0.9943109750747681,2,3,3,3,-9.51,-1.35,1.93,0.35,-0.2,0.24
1.004310965538025,2,3,3,3,-9.5,-1.44,1.95,0.33,-0.18,0.25
1.014310956001282,2,3,3,3,-9.449999999999999,-1.39,1.92,0.36,-0.12,0.3
1.024310946464539,2,3,3,3,-9.470000000000001,-1.38,1.9,0.39,-0.13,0.31
1.034310936927795,2,3,3,3,-9.51,-1.38,1.89,0.28,-0.13,0.32
1.044310927391052,2,3,3,3,-9.51,-1.37,1.88,0.28,-0.13,0.32
1.054310917854309,2,3,3,3,-9.539999999999999,-1.32,1.93,0.24,-0.12,0.33
1.064310908317566,2,3,3,3,-9.550000000000001,-1.32,1.92,0.22,-0.15,0.34
1.074310898780823,2,3,3,3,-9.550000000000001,-1.33,1.84,0.19,-0.1,0.31
1.08431088924408,2,3,3,3,-9.529999999999999,-1.33,1.85,0.18,-0.18,0.32
1.094310879707336,2,3,3,3,-9.57,-1.32,1.95,0.18,-0.18,0.32
1.104310870170593,2,3,3,3,-9.57,-1.31,2,0.15,-0.27,0.3
1.114311099052429,2,3,3,3,-9.539999999999999,-1.33,1.98,0.12,-0.33,0.3
1.124311089515686,2,3,3,3,-9.529999999999999,-1.36,1.87,0.08,-0.35,0.3
1.134311079978943,2,3,3,3,-9.52,-1.42,1.9,0.05,-0.34,0.3
1.1443110704422,2,3,3,3,-9.529999999999999,-1.41,1.9,0.05,-0.34,0.3
1.154311060905457,2,3,3,3,-9.51,-1.42,1.93,0,-0.34,0.3
1.164311051368713,2,3,3,3,-9.52,-1.44,1.84,0.1,-0.3,0.3
1.17431104183197,2,3,3,3,-9.51,-1.45,1.83,0.15,-0.3,0.31
1.184311032295227,2,3,3,3,-9.529999999999999,-1.45,1.9,0.2,-0.36,0.29
1.194311022758484,2,3,3,3,-9.550000000000001,-1.44,1.89,0.2,-0.36,0.29
1.204311013221741,2,3,3,3,-9.5,-1.39,1.98,0.24,-0.4,0.33
1.214311003684998,2,3,3,3,-9.449999999999999,-1.38,1.94,0.16,-0.27,0.35
1.224310994148254,2,3,3,3,-9.44,-1.37,1.87,0.17,-0.2,0.37
1.234310984611511,2,3,3,3,-9.460000000000001,-1.39,1.91,0.15,-0.18,0.34
1.244310975074768,2,3,3,3,-9.52,-1.36,1.95,0.15,-0.18,0.34
1.254310965538025,2,3,3,3,-9.52,-1.33,1.96,0.17,-0.2,0.32
1.264310956001282,2,3,3,3,-9.550000000000001,-1.32,1.96,0.38,-0.34,0.27
1.274310946464539,2,3,3,3,-9.57,-1.3,1.9,0.37,-0.37,0.22
1.284310936927795,2,3,3,3,-9.58,-1.31,1.98,0.27,-0.41,0.2
1.294310927391052,2,3,3,3,-9.550000000000001,-1.31,2.01,0.27,-0.41,0.2
1.304310917854309,2,3,3,3,-9.529999999999999,-1.34,1.99,0.23,-0.33,0.18
1.314310908317566,2,3,3,3,-9.529999999999999,-1.35,2.05,0.25,-0.32,0.17
1.324310898780823,2,3,3,3,-9.48,-1.34,1.91,0.28,-0.36,0.19
1.33431088924408,2,3,3,3,-9.449999999999999,-1.33,1.96,0.3,-0.41,0.23
1.344310879707336,2,3,3,3,-9.460000000000001,-1.33,2.01,0.3,-0.41,0.23
1.354310870170593,2,3,3,3,-9.49,-1.35,1.98,0.28,-0.42,0.26
1.364311099052429,2,3,3,3,-9.52,-1.35,1.94,0.32,-0.36,0.26
1.374311089515686,2,3,3,3,-9.529999999999999,-1.33,1.91,0.51,-0.44,0.26
1.384311079978943,2,3,3,3,-9.52,-1.31,1.97,0.63,-0.55,0.24
1.3943110704422,2,3,3,3,-9.470000000000001,-1.31,2,0.5600000000000001,-0.66,0.27
1.405310988426208,2,3,3,3,-9.48,-1.27,2.04,0.5,-0.57,0.3
1.415310978889465,2,3,3,3,-9.5,-1.26,2.03,0.45,-0.46,0.3
1.425310969352722,2,3,3,3,-9.51,-1.26,2.01,0.4,-0.35,0.32
1.435310959815979,2,3,3,3,-9.529999999999999,-1.23,2.04,0.36,-0.31,0.31
1.445310950279236,2,3,3,3,-9.550000000000001,-1.21,2.1,0.33,-0.32,0.3
1.455310940742493,2,3,3,3,-9.59,-1.21,2.12,0.47,-0.42,0.29
1.46531093120575,2,3,3,3,-9.58,-1.2,2.1,0.57,-0.6,0.29
1.475310921669006,2,3,3,3,-9.460000000000001,-1.25,1.99,0.58,-0.71,0.3
1.485310912132263,2,3,3,3,-9.42,-1.29,2,0.48,-0.66,0.32
1.49531090259552,2,3,3,3,-9.43,-1.29,2.01,0.43,-0.51,0.33
1.505310893058777,2,3,3,3,-9.460000000000001,-1.28,2.01,0.38,-0.37,0.33
1.515310883522034,2,3,3,3,-9.539999999999999,-1.22,2.04,0.33,-0.32,0.32
1.525310873985291,2,3,3,3,-9.539999999999999,-1.18,2.03,0.3,-0.31,0.31
1.535311102867126,2,3,3,3,-9.550000000000001,-1.19,2.06,0.37,-0.35,0.27
1.545311093330383,2,3,3,3,-9.5,-1.21,2.14,0.32,-0.4,0.27
1.55531108379364,2,3,3,3,-9.49,-1.18,2.15,0.29,-0.4,0.3
1.565311074256897,2,3,3,3,-9.5,-1.21,2.11,0.19,-0.36,0.32
1.575311064720154,2,3,3,3,-9.51,-1.23,2,0.16,-0.34,0.32
1.585311055183411,2,3,3,3,-9.529999999999999,-1.27,2.02,0.13,-0.34,0.32
1.595311045646667,2,3,3,3,-9.51,-1.28,2.1,0.22,-0.31,0.33
1.605311036109924,2,3,3,3,-9.5,-1.32,2.11,0.22,-0.3,0.35
1.615311026573181,2,3,3,3,-9.51,-1.33,2.1,0.29,-0.27,0.41
1.625311017036438,2,3,3,3,-9.49,-1.29,2.05,0.45,-0.35,0.44
1.635311007499695,2,3,3,3,-9.49,-1.29,2.11,0.55,-0.47,0.46
1.645310997962952,2,3,3,3,-9.470000000000001,-1.28,2.1,0.61,-0.6,0.49
1.655310988426208,2,3,3,3,-9.460000000000001,-1.26,2.15,0.61,-0.65,0.5
1.665310978889465,2,3,3,3,-9.42,-1.23,2.13,0.55,-0.6,0.54
1.675310969352722,2,3,3,3,-9.41,-1.23,2.05,0.53,-0.5,0.55
1.685310959815979,2,3,3,3,-9.42,-1.23,2.11,0.44,-0.37,0.5600000000000001
1.695310950279236,2,3,3,3,-9.470000000000001,-1.24,2.15,0.41,-0.19,0.53
1.705310940742493,2,3,3,3,-9.550000000000001,-1.22,2.18,0.33,-0.12,0.46
1.71531093120575,2,3,3,3,-9.57,-1.19,2.14,0.28,-0.12,0.37
1.725310921669006,2,3,3,3,-9.57,-1.2,2.06,0.34,-0.13,0.29
1.735310912132263,2,3,3,3,-9.59,-1.19,2.11,0.37,-0.29,0.22
1.74531090259552,2,3,3,3,-9.550000000000001,-1.19,2.14,0.32,-0.4,0.17
1.755310893058777,2,3,3,3,-9.49,-1.24,2.13,0.28,-0.36,0.12
1.765310883522034,2,3,3,3,-9.470000000000001,-1.2,2.18,0.28,-0.29,0.09
1.775310873985291,2,3,3,3,-9.390000000000001,-1.27,2.05,0.22,-0.16,0.07000000000000001
1.785311102867126,2,3,3,3,-9.43,-1.28,2.12,0.18,-0.07000000000000001,0.06
1.795311093330383,2,3,3,3,-9.44,-1.29,2.16,0.22,-0.03,0.09
1.80531108379364,2,3,3,3,-9.48,-1.28,2.2,0.19,-0.08,0.12
1.815311074256897,2,3,3,3,-9.5,-1.23,2.05,0.13,-0.12,0.14
1.825311064720154,2,3,3,3,-9.5,-1.25,2.01,0.09,-0.1,0.11
1.835311055183411,2,3,3,3,-9.51,-1.22,2.06,0.19,-0.06,0.03
1.845311045646667,2,3,3,3,-9.539999999999999,-1.17,2.12,0.18,-0.05,-0.03
1.855311036109924,2,3,3,3,-9.52,-1.18,2.21,0.18,-0.02,-0.09
1.865311026573181,2,3,3,3,-9.48,-1.15,2.2,0.1,-0.02,-0.13
1.875311017036438,2,3,3,3,-9.460000000000001,-1.18,2.09,-0.02,0.04,-0.15
1.885311007499695,2,3,3,3,-9.43,-1.21,2.12,-0.07000000000000001,0.03,-0.17
1.895310997962952,2,3,3,3,-9.49,-1.27,2.24,-0.08,0.06,-0.21
1.905310988426208,2,3,3,3,-9.550000000000001,-1.24,2.23,-0.07000000000000001,0.05,-0.21
1.915310978889465,2,3,3,3,-9.57,-1.21,2.13,-0.06,0.03,-0.22
1.925310969352722,2,3,3,3,-9.5,-1.22,2.01,0.01,0.1,-0.27
1.935310959815979,2,3,3,3,-9.49,-1.22,2.12,0.07000000000000001,0.1,-0.28
1.945310950279236,2,3,3,3,-9.460000000000001,-1.25,2.16,0.1,0.05,-0.31
1.955310940742493,2,3,3,3,-9.470000000000001,-1.27,2.21,0.1,0.07000000000000001,-0.34
1.96531093120575,2,3,3,3,-9.5,-1.23,2.12,0.15,0.08,-0.33
1.975310921669006,2,3,3,3,-9.49,-1.26,2.09,0.12,0.09,-0.29
1.985310912132263,2,3,3,3,-9.460000000000001,-1.24,2.13,0.08,0.01,-0.29
1.99531090259552,2,3,3,3,-9.43,-1.24,2.15,0.03,0.01,-0.28
2.005310893058777,2,3,3,3,-9.44,-1.27,2.18,0.06,0.07000000000000001,-0.26
2.015310883522034,2,3,3,3,-9.48,-1.26,2.13,0.1,0.15,-0.27
2.025310873985291,2,3,3,3,-9.51,-1.26,2.04,0.15,0.22,-0.31
2.035311102867126,2,3,3,3,-9.51,-1.27,2.05,0.12,0.21,-0.3
2.045311093330383,2,3,3,3,-9.52,-1.25,2.2,0.16,0.16,-0.32
2.05531108379364,2,3,3,3,-9.550000000000001,-1.24,2.27,0.27,0.05,-0.28
2.065311074256897,2,3,3,3,-9.51,-1.21,2.23,0.27,-0.04,-0.25
2.075311064720154,2,3,3,3,-9.460000000000001,-1.19,2.15,0.13,0.01,-0.22
2.085311055183411,2,3,3,3,-9.4,-1.17,2.17,0.02,0.05,-0.2
2.095311045646667,2,3,3,3,-9.449999999999999,-1.19,2.2,-0.06,0.06,-0.2
2.105311036109924,2,3,3,3,-9.48,-1.19,2.24,-0.08,0.08,-0.19
2.115311026573181,2,3,3,3,-9.539999999999999,-1.29,2.11,-0.08,0.04,-0.19
2.125311017036438,2,3,3,3,-9.550000000000001,-1.31,2.03,-0.04,0.06,-0.24
2.135311007499695,2,3,3,3,-9.52,-1.34,2.11,0.03,0.01,-0.26
2.145310997962952,2,3,3,3,-9.52,-1.34,2.14,0.06,-0.05,-0.24
2.155310988426208,2,3,3,3,-9.48,-1.33,2.14,0.09,-0.01,-0.25
2.165310978889465,2,3,3,3,-9.449999999999999,-1.32,2.1,0.09,-0.01,-0.23
2.175310969352722,2,3,3,3,-9.41,-1.28,2.06,0.18,0.01,-0.2
2.185310959815979,2,3,3,3,-9.44,-1.3,2.11,0.2,0.03,-0.16
2.195310950279236,2,3,3,3,-9.470000000000001,-1.27,2.19,0.16,0.03,-0.14
2.205310940742493,2,3,3,3,-9.51,-1.22,2.22,0.12,0.07000000000000001,-0.12
2.21531093120575,2,3,3,3,-9.539999999999999,-1.19,2.22,0.08,0.07000000000000001,-0.12
2.225310921669006,2,3,3,3,-9.52,-1.16,2.14,0.07000000000000001,0.07000000000000001,-0.1
2.235310912132263,2,3,3,3,-9.48,-1.21,2.15,0.06,0.03,-0.12
2.24531090259552,2,3,3,3,-9.470000000000001,-1.25,2.17,0.02,0,-0.1
2.255310893058777,2,3,3,3,-9.51,-1.27,2.19,-0.02,0,-0.11
2.265310883522034,2,3,3,3,-9.52,-1.27,2.19,-0.03,-0.03,-0.09
2.275310873985291,2,3,3,3,-9.5,-1.3,2.06,-0.04,-0.02,-0.1
2.285311102867126,2,3,3,3,-9.470000000000001,-1.33,2.08,-0.02,0,-0.07000000000000001
2.295311093330383,2,3,3,3,-9.48,-1.33,2.11,0.06,0,-0.09
2.30531108379364,2,3,3,3,-9.48,-1.32,2.17,0.19,0.01,-0.04
2.315311074256897,2,3,3,3,-9.51,-1.26,2.14,0.24,-0.03,-0.02
2.325311064720154,2,3,3,3,-9.48,-1.22,2.03,0.25,-0.09,0.03
2.335311055183411,2,3,3,3,-9.43,-1.21,2.11,0.23,-0.09,0.05
2.345311045646667,2,3,3,3,-9.44,-1.23,2.24,0.15,-0.11,0.07000000000000001
2.355311036109924,2,3,3,3,-9.470000000000001,-1.23,2.22,0.06,-0.04,0.08
2.365311026573181,2,3,3,3,-9.550000000000001,-1.21,2.23,0.04,0.01,0.09
2.375311017036438,2,3,3,3,-9.550000000000001,-1.23,2.14,-0.01,-0.07000000000000001,0.09
2.385311007499695,2,3,3,3,-9.529999999999999,-1.23,2.09,-0.03,-0.14,0.05
2.395310997962952,2,3,3,3,-9.48,-1.24,2.1,0.01,-0.14,0.06
2.405310988426208,2,3,3,3,-9.48,-1.25,2.13,0.1,-0.05,0.02
2.415310978889465,2,3,3,3,-9.51,-1.23,2.2,0.15,-0.05,0.03
2.426310896873474,2,3,3,3,-9.49,-1.24,2.08,0.16,-0.14,0.03
2.436310887336731,2,3,3,3,-9.449999999999999,-1.26,2.12,0.1,-0.12,0.07000000000000001
2.446310877799988,2,3,3,3,-9.449999999999999,-1.26,2.19,0.15,-0.13,0.09
2.456310868263245,2,3,3,3,-9.470000000000001,-1.25,2.27,0.17,-0.18,0.13
2.466311097145081,2,3,3,3,-9.449999999999999,-1.24,2.14,0.17,-0.19,0.15
2.476311087608337,2,3,3,3,-9.49,-1.22,2.04,0.13,-0.18,0.17
2.486311078071594,2,3,3,3,-9.48,-1.22,2.1,0.22,-0.22,0.22
2.496311068534851,2,3,3,3,-9.470000000000001,-1.26,2.21,0.23,-0.26,0.2
2.506311058998108,2,3,3,3,-9.449999999999999,-1.25,2.21,0.15,-0.23,0.22
2.516311049461365,2,3,3,3,-9.5,-1.24,2.21,0.14,-0.15,0.16
2.526311039924622,2,3,3,3,-9.52,-1.23,2.15,0.14,-0.2,0.17
2.536311030387878,2,3,3,3,-9.539999999999999,-1.21,2.15,0.19,-0.32,0.16
2.546311020851135,2,3,3,3,-9.550000000000001,-1.22,2.22,0.3,-0.44,0.14
2.556311011314392,2,3,3,3,-9.5,-1.21,2.19,0.25,-0.58,0.11
2.566311001777649,2,3,3,3,-9.44,-1.22,2.16,0.17,-0.5600000000000001,0.1
2.576310992240906,2,3,3,3,-9.44,-1.28,2.08,0.14,-0.41,0.15
2.586310982704163,2,3,3,3,-9.44,-1.29,2.14,0.12,-0.33,0.17
2.596310973167419,2,3,3,3,-9.49,-1.32,2.13,0.15,-0.3,0.19
2.606310963630676,2,3,3,3,-9.460000000000001,-1.33,2.16,0.26,-0.34,0.2
2.616310954093933,2,3,3,3,-9.52,-1.23,2.23,0.65,-0.51,0.26
2.62631094455719,2,3,3,3,-9.43,-1.17,2.03,0.75,-0.83,0.32
2.636310935020447,2,3,3,3,-9.380000000000001,-1.15,2.04,0.71,-0.8100000000000001,0.33
2.646310925483704,2,3,3,3,-9.42,-1.13,2.14,0.83,-0.7,0.36
2.65631091594696,2,3,3,3,-9.449999999999999,-0.99,2.25,0.86,-0.68,0.32
2.666310906410217,2,3,3,3,-9.44,-0.9399999999999999,2.29,0.89,-0.54,0.33
2.676310896873474,2,3,3,3,-9.460000000000001,-0.88,2.23,0.85,-0.42,0.29
2.686310887336731,2,3,3,3,-9.460000000000001,-0.88,2.3,0.59,-0.33,0.19
2.696310877799988,2,3,3,3,-9.5,-0.88,2.37,0.42,-0.22,0.14
2.706310868263245,2,3,3,3,-9.539999999999999,-0.93,2.38,0.14,-0.24,0.01
2.716311097145081,2,3,3,3,-9.56,-0.97,2.34,-0.08,-0.17,-0.11
2.726311087608337,2,3,3,3,-9.59,-1.08,2.16,-0.28,-0.15,-0.21
2.736311078071594,2,3,3,3,-9.6,-1.13,2.23,-0.37,-0.12,-0.31
2.746311068534851,2,3,3,3,-9.59,-1.14,2.23,-0.45,-0.2,-0.43
2.756311058998108,2,3,3,3,-9.550000000000001,-1.19,2.18,-0.54,-0.19,-0.5600000000000001
2.766311049461365,2,3,3,3,-9.460000000000001,-1.31,2.16,-0.49,-0.13,-0.65
2.776311039924622,2,3,3,3,-9.449999999999999,-1.36,2.16,-0.29,-0.22,-0.66
2.786311030387878,2,3,3,3,-9.380000000000001,-1.39,2.12,-0.26,-0.41,-0.64
2.796311020851135,2,3,3,3,-9.289999999999999,-1.44,2.1,-0.24,-0.45,-0.58
2.806311011314392,2,3,3,3,-9.25,-1.38,2.26,-0.04,-0.35,-0.51
2.816311001777649,2,3,3,3,-9.23,-1.33,2.25,-0.03,-0.25,-0.48
2.826310992240906,2,3,3,3,-9.210000000000001,-1.33,2.16,-0.25,-0.08,-0.51
2.836310982704163,2,3,3,3,-9.19,-1.34,2.19,-0.46,0.13,-0.6
2.846310973167419,2,3,3,3,-9.17,-1.34,2.07,-0.74,0.33,-0.76
2.856310963630676,2,3,3,3,-9.25,-1.29,2.12,-0.6899999999999999,0.62,-0.91
2.866310954093933,2,3,3,3,-9.34,-1.24,2.18,-0.59,0.68,-1.03
2.87631094455719,2,3,3,3,-9.23,-1.23,2.15,-0.71,0.53,-1.13
2.886310935020447,2,3,3,3,-9.109999999999999,-1.27,2.11,-1.05,0.4,-1.19
2.896310925483704,2,3,3,3,-8.970000000000001,-1.3,1.93,-1.5,0.41,-1.33
2.90631091594696,2,3,3,3,-8.9,-1.37,1.95,-1.5,0.59,-1.54
2.916310906410217,2,3,3,3,-8.859999999999999,-1.45,2.11,-1.43,0.53,-1.79
2.926310896873474,2,3,3,3,-8.76,-1.44,1.79,-1.72,0.27,-2.05
2.936310887336731,2,3,3,3,-8.699999999999999,-1.42,1.64,-1.97,0.27,-2.37
2.946310877799988,2,3,3,3,-8.699999999999999,-1.46,1.75,-1.89,0.31,-2.58
2.956310868263245,2,3,3,3,-8.59,-1.78,1.79,-2.05,-0.04,-2.86
2.966311097145081,2,3,3,3,-8.33,-1.87,1.63,-2.58,-0.74,-3.38
2.976311087608337,2,3,3,3,-8.050000000000001,-1.93,1.47,-3.1,-1.36,-4.05
2.986311078071594,2,3,3,3,-7.73,-1.9,1.28,-3.38,-1.91,-4.57
2.996311068534851,2,3,3,3,-6.72,-1.73,1.04,-3.93,-2.08,-4.91
3.006311058998108,2,3,3,3,-6.49,-1.72,1.13,-3.79,-2.08,-4.97
3.016311049461365,2,3,3,3,-6.31,-1.62,1.2,-3.15,-2.62,-4.94
3.026311039924622,2,3,3,3,-6.07,-1.57,1.03,-2.51,-3,-4.88
3.036311030387878,2,3,3,3,-5.65,-1.4,1.42,-1.52,-2.92,-4.56
3.046311020851135,2,3,3,3,-5.8,-1.42,1.93,-0.44,-2.56,-3.73
3.056311011314392,2,3,3,3,-6.15,-1.41,2.27,0.04,-2.7,-2.68
3.066311001777649,2,3,3,3,-6.61,-1.25,1.91,-0.32,-2.76,-1.8
3.076310992240906,2,3,3,3,-6.76,-1.05,1.76,-0.6,-2.26,-1.46
3.086310982704163,2,3,3,3,-6.86,-0.87,1.96,-0.31,-1.67,-1.39
3.096310973167419,2,3,3,3,-6.95,-0.73,2.27,0.14,-1.62,-1.34
3.106310963630676,2,3,3,3,-6.96,-0.71,2.48,-0.52,-2.08,-1.28
3.116310954093933,2,3,3,3,-7.01,-0.88,2.04,-1.43,-2.22,-1.41
3.12631094455719,2,3,3,3,-7.02,-0.93,1.66,-1.51,-1.61,-1.49
3.136310935020447,2,3,3,3,-7.06,-0.8,1.84,-1.36,-0.47,-1.44
3.146310925483704,2,3,3,3,-7.6,-0.85,2.64,-1.39,0.03,-1.21
3.15631091594696,2,3,3,3,-7.87,-0.96,2.7,-1.68,-0.32,-1.04
3.166310906410217,2,3,3,3,-8.16,-1.04,2.69,-1.63,-0.79,-0.77
3.176310896873474,2,3,3,3,-8.48,-1.15,2.59,-1.43,-1.18,-0.5
3.186310887336731,2,3,3,3,-9.31,-1.29,3.06,-1,-1.57,-0.34
3.196310877799988,2,3,3,3,-9.92,-1.31,3.36,-0.71,-2.14,-0.29
3.206310868263245,2,3,3,3,-10.17,-1.21,3.4,-1.01,-2.6,-0.4
3.216311097145081,2,3,3,3,-10.32,-1.35,3.36,-1.55,-2.18,-0.92
3.226311087608337,2,3,3,3,-10.73,-1.55,3.18,-1.98,-1.21,-1.57
3.236311078071594,2,3,3,3,-11.07,-1.65,3.34,-1.74,-1.3,-1.69
3.246311068534851,2,3,3,3,-11.34,-1.9,3.62,-1.62,-2.06,-1.5
3.256311058998108,2,3,3,3,-12.18,-2.38,4.33,-1.57,-3.09,-0.84
3.266311049461365,2,3,3,3,-12.57,-2.57,4.58,-1.81,-4.42,-0.2
3.276311039924622,2,3,3,3,-12.87,-2.75,4.76,-1.99,-4.82,0.19
3.286311030387878,2,3,3,3,-13.16,-2.82,4.9,-2.22,-4.29,0.53
3.296311020851135,2,3,3,3,-13.92,-2.65,5.26,-2.37,-3.41,0.82
3.306311011314392,2,3,3,3,-14.41,-2.57,5.45,-2.28,-2.43,1.05
3.316311001777649,2,3,3,3,-14.87,-2.5,5.66,-2.22,-1.66,1.45
3.326310992240906,2,3,3,3,-15.37,-2.74,5.62,-2.73,-1.04,1.68
3.336310982704163,2,3,3,3,-16.49,-2.69,5.71,-3.02,-1.22,1.8
3.346310973167419,2,3,3,3,-16.94,-2.89,6.04,-3.56,-1.16,1.85
3.356310963630676,2,3,3,3,-17.63,-3.21,6.45,-3.42,-0.16,1.72
3.366310954093933,2,3,3,3,-18.75,-3.49,6.89,-3.22,1.42,1.28
3.37631094455719,2,3,3,3,-21.39,-3.76,6.32,-2.84,2.36,0.53
3.386310935020447,2,3,3,3,-22.21,-3.33,5.95,-1.06,2.75,-0.08
3.396310925483704,2,3,3,3,-22.31,-2.55,5.42,0.27,3.8,-0.29
3.40631091594696,2,3,3,3,-22.08,-1.74,5.45,1.96,4.93,0.3
3.416310906410217,2,3,3,3,-21.11,-1.12,7.25,3.07,4.55,1.75
3.426310896873474,2,3,3,3,-20.55,-1.1,7.78,3.26,4.2,3.7
3.436310887336731,2,3,3,3,-20.67,-0.85,8.27,3.24,6.22,5.9
3.446310877799988,2,3,3,3,-22.17,-0.61,6.7,3.14,8.880000000000001,7.92
3.457311034202576,2,3,3,3,-23.19,-0.8,6.62,3.21,10.54,9.460000000000001
3.467311024665833,2,3,3,3,-23.96,-0.6899999999999999,6.57,3.77,10.43,10.48
3.477311015129089,2,3,3,3,-23.98,-0.44,6.1,3.04,10.03,10.98
3.487311005592346,2,3,3,3,-21.99,-0.54,5.9,1.59,11.36,11.44
3.497310996055603,2,3,3,3,-19.98,-1.73,6.13,0.05,11.81,11.6
3.50731098651886,2,3,3,3,-17.87,-4.63,5.2,-1.76,9.07,9.640000000000001
3.517310976982117,2,3,3,3,-14.93,-7.14,3.46,-2.41,8.85,4.92
3.527310967445374,2,3,3,3,-8.289999999999999,-7.62,-1.29,-3.09,7.97,1.52
3.53731095790863,2,3,3,3,-5.45,-6.9,-2.99,-4.1,7.61,-1.36
3.547310948371887,2,3,3,3,-3.42,-5.18,-3.68,-3.74,9.4,-3.02
3.557310938835144,2,3,3,3,-1.69,-3.55,-2.96,-5.79,6.21,-5.53
3.567310929298401,2,3,3,3,4.26,-8.449999999999999,-4.45,-17.63,-5.15,-10.31
3.577310919761658,2,3,3,3,5.6,-11.6,-10.67,-30.52,-10.39,-14.57
3.587310910224915,2,3,3,3,3.3,-13.14,-12.05,-29.15,-1.48,-12.68
3.597310900688171,2,3,3,3,1.19,-12.76,-9.23,-12.41,5.07,-9.859999999999999
3.607310891151428,2,3,3,3,4.22,-11.24,-3.07,3.8,-0.4,-9.109999999999999
3.617310881614685,2,3,3,3,5.39,-9.07,-1.7,12.29,-5.92,-5.44
3.627310872077942,2,3,3,3,5.33,-4.82,0.15,17.73,-4.72,1.23
3.637311100959778,2,3,3,3,3.73,2.67,3.15,20.37,-3.54,6.38
3.647311091423035,2,3,3,3,4.34,4.23,2.93,18.12,-3.8,8.81
3.657311081886292,2,3,3,3,4.94,5.21,1.75,14.43,-1.61,11.89
3.667311072349548,2,3,3,3,4.48,5.29,1.12,10.6,2.08,14.19
3.677311062812805,2,3,3,3,0.62,4.14,0.91,8.07,2.13,14.09
3.687311053276062,2,3,3,3,-1.03,3.37,0.49,5.14,-0.25,12.43
3.697311043739319,2,3,3,3,-2.35,2.64,0.68,2.44,-1.81,10.38
3.707311034202576,2,3,3,3,-3.48,2.12,1.28,0.97,-1.58,8.550000000000001
3.717311024665833,2,3,3,3,-4.39,1.45,1.32,-1.19,-0.32,6.76
3.727311015129089,2,3,3,3,-4.16,1.15,0.79,-3.31,0.49,4.68
3.737311005592346,2,3,3,3,-3.7,0.66,0.48,-4.71,-0.12,2.16
3.747310996055603,2,3,3,3,-2.69,0.41,-0.44,-5.05,-0.7,-0.57
3.75731098651886,2,3,3,3,-1.57,0.74,-1.92,-4.04,2,-2.89
3.767310976982117,2,3,3,3,-2.07,0.9,-1.26,-1.24,4.96,-5.02
3.777310967445374,2,3,3,3,-2.15,0.89,-1.1,0.44,3.71,-7.56
3.78731095790863,2,3,3,3,-1.02,0.36,-1.18,0.65,1.43,-9.66
3.797310948371887,2,3,3,3,-0.58,0.22,-0.63,1.85,-0.06,-11.06
3.807310938835144,2,3,3,3,-0.05,0.13,0.13,2.65,-0.9,-11.85
3.817310929298401,2,3,3,3,0.72,-0.12,0.5600000000000001,1.57,-1.32,-11.83
3.827310919761658,2,3,3,3,2.21,-0.61,-0.39,-0.12,-1.21,-10.96
3.837310910224915,2,3,3,3,2.61,-0.7,-0.54,-0.39,-0.36,-9.56
3.847310900688171,2,3,3,3,2.55,-0.37,-0.37,0.51,-0.08,-7.42
3.857310891151428,2,3,3,3,2.42,0.18,-0.41,1.31,-0.77,-4.52
3.867310881614685,2,3,3,3,1.8,1.12,-0.27,1.87,-1.84,-1.4
3.877310872077942,2,3,3,3,1.53,1.29,-0.18,2.82,-2.92,1.5
3.887311100959778,2,3,3,3,1.28,1.17,-0.18,3.5,-3.71,3.5
3.897311091423035,2,3,3,3,0.88,0.86,0,4.32,-3.93,4.79
3.907311081886292,2,3,3,3,-0.18,-0.12,0.57,4.1,-4.57,5.96
3.927311062812805,2,3,3,3,-1.83,-2.12,1.93,2.73,-6.37,9.789999999999999
3.937311053276062,2,3,3,3,-2.42,-3.19,3.36,3.59,-6.44,10.97
3.947311043739319,2,3,3,3,-3.99,-8.94,3.92,-1.46,-7.86,12.26
3.957311034202576,2,3,3,3,-6.4,-11.16,2.77,-6.17,-6.14,15.34
3.967311024665833,2,3,3,3,-11.78,-9.07,3.7,-4.35,6.14,19.25
3.977311015129089,2,3,3,3,-24.77,-10.66,5.39,-0.39,11.48,20.01
3.987311005592346,2,3,3,3,-39.11,-11.23,-4.52,14.76,-11.94,23.67
3.997310996055603,2,3,3,3,-39.08,-18.54,-10.52,22.49,31.05,7.69
4.00731098651886,2,3,3,3,-37.26,8.58,-5.75,40.47,-2.75,-34.79
4.017310976982117,2,3,3,3,-9.43,17.1,14.8,19.52,-42.92,-26.4
4.027310967445374,2,3,3,3,-8.470000000000001,6.44,22.77,-5.12,-13.6,3.6
4.03731095790863,2,3,3,3,-7.9,2.96,16.6,-7.33,-4.73,20.69
4.047310948371887,2,3,3,3,-7.55,-2.03,9.34,-9.42,-8.77,23.21
4.057310938835144,2,3,3,3,-17.77,-2.23,9.17,-8.01,-3.21,18.95
4.077310919761658,2,3,3,3,-26.67,6.45,4.02,-11.96,13.95,4.61
4.087310910224915,2,3,3,3,-30.3,5.04,-3.98,-5.1,21.31,-4.66
4.097310900688171,2,3,3,3,-23.92,-0.54,-0.79,10.22,9.369999999999999,-13.87
4.107310891151428,2,3,3,3,-16.55,-1.75,4.58,9.57,-10.94,-18.33
4.117310881614685,2,3,3,3,-10.86,-2.16,7.18,4.02,-17.99,-15.61
4.127310872077942,2,3,3,3,-8.02,-1.52,7.82,3.65,-9.289999999999999,-9.67
4.137311100959778,2,3,3,3,-11.5,0.68,6.58,4.09,3.76,-4.57
4.147311091423035,2,3,3,3,-14.87,0.92,6.38,2.11,7.05,-2.03
4.167311072349548,2,3,3,3,-14.74,-0.06,3.93,-2.35,-2.92,0.54
4.177311062812805,2,3,3,3,-10.12,-0.01,1.37,-1.91,-1.88,1.47
4.187311053276062,2,3,3,3,-8.300000000000001,-0.07000000000000001,1.27,-1.42,2.11,2.32
4.197311043739319,2,3,3,3,-7.59,-0.19,1.56,-1.32,5.84,2.65
4.207311034202576,2,3,3,3,-8.24,0.1,1.83,-1.61,6.33,2.1
4.217311024665833,2,3,3,3,-8.69,0.37,1.56,-1.56,3.78,0.67
4.227311015129089,2,3,3,3,-8.960000000000001,0.51,1.36,-0.83,-0.61,-1.49
4.237311005592346,2,3,3,3,-8.69,0.37,1.4,-0.61,-4.56,-3.46
4.247310996055603,2,3,3,3,-6.89,-0.51,1.28,-1.05,-6.11,-4.83
4.25731098651886,2,3,3,3,-5.52,-0.72,1.07,-1.16,-4.62,-5.32
4.267310976982117,2,3,3,3,-4.51,-1.05,1.03,-1.16,-0.74,-5.33
4.277310967445374,2,3,3,3,-3.87,-1.16,1.14,-0.84,2.71,-4.85
4.28731095790863,2,3,3,3,-3.83,-1.13,1.79,-0.23,4.49,-3.82
4.297310948371887,2,3,3,3,-4.02,-1.38,1.93,0,4.76,-2.84
4.307310938835144,2,3,3,3,-4.43,-2.02,1.95,-0.37,4.44,-2.12
4.317310929298401,2,3,3,3,-5.33,-2.58,1.98,-0.41,3.56,-1.78
4.327310919761658,2,3,3,3,-7.52,-2.47,1.38,0.32,2.06,-1.45
4.337310910224915,2,3,3,3,-7.74,-1.81,1.04,1.38,0.63,-0.79
4.347310900688171,2,3,3,3,-7.51,-1.38,0.89,2.7,-0.04,-0.15
4.357310891151428,2,3,3,3,-6.99,-0.97,1.62,4.01,-0.77,0.47
4.367310881614685,2,3,3,3,-6.88,-0.75,2.14,4.23,-2.07,1.15
4.377310872077942,2,3,3,3,-7.24,-0.5600000000000001,2.47,4.08,-3.2,2.18
4.387311100959778,2,3,3,3,-7.79,-0.31,2.39,3.34,-3.23,3.17
4.397311091423035,2,3,3,3,-9.289999999999999,-0.05,2.14,2.31,-2.01,3.96
4.407311081886292,2,3,3,3,-9.880000000000001,0.06,2.01,2.04,-0.77,4.3
4.417311072349548,2,3,3,3,-10.2,0.14,1.98,2.19,-0.25,4.09
4.427311062812805,2,3,3,3,-10.36,0.28,2,2.32,-0.09,3.19
4.437311053276062,2,3,3,3,-10.28,0.36,2.45,2.16,0.06,2.2
4.447311043739319,2,3,3,3,-10.32,0.41,2.76,1.79,0.18,1.5
4.457311034202576,2,3,3,3,-10.45,0.5,3.15,1.37,0.48,0.99
4.467311024665833,2,3,3,3,-10.58,0.51,3.45,0.71,0.29,0.77
4.478310942649841,2,3,3,3,-10.4,0.37,3.2,-0.51,-0.14,0.47
4.488310933113098,2,3,3,3,-10.22,0.18,3.23,-1.26,-0.27,0.29
4.498310923576355,2,3,3,3,-9.880000000000001,0.1,2.92,-1.78,-0.61,0.12
4.508310914039612,2,3,3,3,-9.51,0.01,2.62,-2.43,-0.68,0
4.518310904502869,2,3,3,3,-9.01,0.04,2.1,-2.99,-0.32,-0.04
4.528310894966125,2,3,3,3,-9,-0.07000000000000001,1.98,-3.52,0.33,-0.1
4.538310885429382,2,3,3,3,-9.130000000000001,-0.28,1.99,-3.84,0.68,-0.3
4.548310875892639,2,3,3,3,-9.49,-0.8100000000000001,2.22,-3.7,0.58,-0.68
4.558311104774475,2,3,3,3,-9.52,-1.08,2.06,-3.39,0.16,-1.21
4.568311095237732,2,3,3,3,-9.48,-1.35,1.9,-3.38,-0.26,-1.65
4.578311085700989,2,3,3,3,-9.5,-1.58,1.92,-3.03,-0.18,-1.77
4.588311076164246,2,3,3,3,-9.33,-1.73,1.9,-2.6,-0.34,-1.68
4.598311066627502,2,3,3,3,-9.130000000000001,-1.75,1.97,-2.09,-0.63,-1.49
4.608311057090759,2,3,3,3,-8.859999999999999,-1.74,1.88,-1.7,-0.8,-1.3
4.618311047554016,2,3,3,3,-8.58,-1.69,1.74,-1.37,-0.78,-1.14
4.628311038017273,2,3,3,3,-8.32,-1.62,1.59,-0.91,-0.57,-0.9399999999999999
4.63831102848053,2,3,3,3,-8.31,-1.62,1.67,-0.53,-0.37,-0.67
4.648311018943787,2,3,3,3,-8.4,-1.66,1.92,-0.04,-0.14,-0.25
4.658311009407043,2,3,3,3,-8.56,-1.68,2.05,0.1,-0.11,0.28
4.6683109998703,2,3,3,3,-8.84,-1.75,2.05,0.06,-0.02,0.8
4.678310990333557,2,3,3,3,-9.050000000000001,-1.78,2.02,0.16,0.11,1.13
4.688310980796814,2,3,3,3,-9.23,-1.77,1.94,0.13,0.26,1.2
4.698310971260071,2,3,3,3,-9.41,-1.75,1.89,0.03,0.61,1.06
4.708310961723328,2,3,3,3,-9.74,-1.64,1.91,0.14,0.86,0.8
4.718310952186584,2,3,3,3,-9.800000000000001,-1.63,1.83,0.17,0.78,0.48
4.728310942649841,2,3,3,3,-9.76,-1.64,1.75,0.27,0.78,0.13
4.738310933113098,2,3,3,3,-9.539999999999999,-1.67,1.78,0.59,0.6899999999999999,-0.14
4.748310923576355,2,3,3,3,-9.369999999999999,-1.58,1.72,0.83,0.57,-0.32
4.758310914039612,2,3,3,3,-9.33,-1.45,1.8,1.37,0.62,-0.32
4.768310904502869,2,3,3,3,-9.32,-1.26,2.01,2.08,0.54,-0.21
4.778310894966125,2,3,3,3,-9.220000000000001,-0.78,2.24,2.56,0.37,-0.03
4.788310885429382,2,3,3,3,-9.19,-0.58,2.46,2.81,0.17,0.13
4.798310875892639,2,3,3,3,-9.19,-0.4,2.57,2.68,0.01,0.39
4.808311104774475,2,3,3,3,-9.289999999999999,-0.3,2.75,2.3,0.03,0.5600000000000001
4.818311095237732,2,3,3,3,-9.609999999999999,-0.24,2.96,1.88,0.07000000000000001,0.5600000000000001
4.828311085700989,2,3,3,3,-9.710000000000001,-0.29,2.67,1.02,0.11,0.34
4.838311076164246,2,3,3,3,-9.869999999999999,-0.36,2.51,0.08,0.45,-0.04
4.848311066627502,2,3,3,3,-10.1,-0.38,2.38,-0.5600000000000001,0.8100000000000001,-0.59
4.858311057090759,2,3,3,3,-10.35,-0.46,2.16,-0.86,1.23,-1.19
4.868311047554016,2,3,3,3,-10.37,-0.5,2.26,-0.89,1.59,-1.75
4.878311038017273,2,3,3,3,-10.33,-0.5600000000000001,2.15,-0.93,1.49,-2.16
4.88831102848053,2,3,3,3,-10.25,-0.67,2.16,-0.95,1,-2.48
4.898311018943787,2,3,3,3,-10.02,-1,2.26,-1.16,0.4,-2.62
4.908311009407043,2,3,3,3,-9.880000000000001,-1.14,2.24,-1.5,-0.15,-2.71
4.9183109998703,2,3,3,3,-9.66,-1.3,2.15,-2.15,-0.5600000000000001,-2.78
4.948310971260071,2,3,3,3,-8.15,-1.8,1.03,-3.67,-0.54,-3.76
4.958310961723328,2,3,3,3,-7.67,-2.02,0.91,-3.77,0.15,-4.04
4.968310952186584,2,3,3,3,-6.74,-2.29,0.86,-3.39,0.49,-4.31
4.978310942649841,2,3,3,3,-6.25,-2.33,0.66,-3.57,0.47,-4.42
4.988310933113098,2,3,3,3,-6.14,-2.43,0.67,-3.54,0.45,-3.95
4.998310923576355,2,3,3,3,-6.34,-2.46,0.99,-2.41,0.31,-3
5.008310914039612,2,3,3,3,-6.34,-2.46,0.99,-1.31,-0.22,-2.11
5.018310904502869,2,3,3,3,-7.05,-2.67,1.53,-0.53,-1.3,-1.56
5.028310894966125,2,3,3,3,-7.62,-2.87,1.08,-0.29,-2.58,-1.35
5.038310885429382,2,3,3,3,-7.54,-2.78,0.97,-0.24,-3.12,-1.46
5.048310875892639,2,3,3,3,-7.25,-2.38,1.23,0.31,-3.14,-1.88
5.058311104774475,2,3,3,3,-7.25,-2.38,1.23,0.3,-2.94,-2.78
5.068311095237732,2,3,3,3,-6.05,-1.81,0.5600000000000001,-0.16,-1.81,-3.85
5.078311085700989,2,3,3,3,-5.72,-1.57,0.63,0.05,-0.65,-4.72
5.088311076164246,2,3,3,3,-4.9,-1.04,0.86,0.41,0,-5.42
5.098311066627502,2,3,3,3,-4.3,-0.67,0.95,0.73,0.72,-5.75
5.108311057090759,2,3,3,3,-4.3,-0.67,0.95,1.1,1.66,-5.39
5.118311047554016,2,3,3,3,-3.95,-0.41,1.39,1.63,1.42,-4.08
5.128311038017273,2,3,3,3,-4.94,-0.82,2.98,1.53,-0.35,-2.12
5.13831102848053,2,3,3,3,-5.55,-1.44,2.96,0.66,-1.89,-0.18
5.148311018943787,2,3,3,3,-6.34,-1.82,2.72,0.01,-1.75,1.19
5.158311009407043,2,3,3,3,-6.34,-1.82,2.72,-0.45,-0.28,1.57
5.1683109998703,2,3,3,3,-8.789999999999999,-2.09,2.83,-0.35,0.66,0.8100000000000001
5.178310990333557,2,3,3,3,-11.39,-1.54,2.74,-0.27,0.61,-0.93
5.188310980796814,2,3,3,3,-12.17,-1.09,2.62,-0.55,1.19,-2.92
5.198310971260071,2,3,3,3,-12.87,-0.49,2.22,-0.8,1.26,-4.61
5.208310961723328,2,3,3,3,-12.87,-0.49,2.22,-1.16,0.15,-5.77
5.218310952186584,2,3,3,3,-12.58,-0.15,2.22,-1.09,-2.82,-6.08
5.228310942649841,2,3,3,3,-11.07,0.01,3.35,-0.61,-6.82,-5.1
5.238310933113098,2,3,3,3,-10.06,-0.72,4.55,-0.6899999999999999,-8.710000000000001,-2.98
5.248310923576355,2,3,3,3,-10.49,-1.26,4.87,-1.3,-7.82,-0.5600000000000001
5.258310914039612,2,3,3,3,-10.49,-1.26,4.87,-2.44,-5.95,1.22
5.268310904502869,2,3,3,3,-11.38,-1.57,5.31,-3.6,-4.76,2.74
5.278310894966125,2,3,3,3,-14.62,-2.11,6.73,-4.87,-4.57,3.88
5.288310885429382,2,3,3,3,-16,-2.43,6.71,-5.99,-4.6,4.54
5.298310875892639,2,3,3,3,-17.25,-2.83,6.23,-6.03,-4.05,4.07
5.308311104774475,2,3,3,3,-17.25,-2.83,6.23,-4.78,-1.62,2.85
5.318311095237732,2,3,3,3,-19.77,-3.39,5.15,-2.46,1,1.22
5.328311085700989,2,3,3,3,-21.33,-2.85,5.13,0.72,1.03,-0.14
5.338311076164246,2,3,3,3,-21.19,-2.29,5.47,2.94,-0.25,-1.08
5.348311066627502,2,3,3,3,-20.68,-1.96,6.67,3.72,-0.83,-1.46
5.358311057090759,2,3,3,3,-20.68,-1.96,6.67,3.72,-0.83,-1.46
5.368311047554016,2,3,3,3,-20.64,-1.3,7.36,3.98,2.46,-0.16
5.378311038017273,2,3,3,3,-21.19,0.5600000000000001,7.44,3.44,5.22,0.91
5.38831102848053,2,3,3,3,-21.82,1.22,7.03,3.08,7.08,1.74
5.399310946464539,2,3,3,3,-22.04,1.27,7.15,2.87,7.28,2.4
5.408311009407043,2,3,3,3,-22.04,1.27,7.15,2.87,7.28,2.4
5.4183109998703,2,3,3,3,-21.97,0.79,7.37,2.05,6.25,3.39
5.429310917854309,2,3,3,3,-21.9,-1.46,7.07,2.22,5.89,6.75
5.438310980796814,2,3,3,3,-22.05,-1.9,7.46,3.89,6.84,8.07
5.448310971260071,2,3,3,3,-22.33,-2.1,7.6,5.51,8.029999999999999,8.789999999999999
5.45931088924408,2,3,3,3,-22.33,-2.1,7.6,5.51,8.029999999999999,8.789999999999999
5.468310952186584,2,3,3,3,-22.21,-1.64,7.18,6.09,9.24,9.09
5.478310942649841,2,3,3,3,-17.79,-1.91,5.14,5.32,10.44,8.029999999999999
5.489311099052429,2,3,3,3,-15.21,-3.97,3.58,4.05,11.93,5.77
5.498310923576355,2,3,3,3,-10.68,-5.43,0.78,2.14,10.39,3.19
5.509311079978943,2,3,3,3,-10.68,-5.43,0.78,2.14,10.39,3.19
5.5193110704422,2,3,3,3,-7.79,-4.77,-1.59,-0.64,6.14,0.58
5.529311060905457,2,3,3,3,-1.58,-3.35,-3.1,-11.16,7.46,-2.41
5.539311051368713,2,3,3,3,1.58,-10.84,-5.29,-24.17,-1.39,-6.46
5.54931104183197,2,3,3,3,3.69,-13.97,-13.56,-41.27,-14.58,-13.04
5.559311032295227,2,3,3,3,3.69,-13.97,-13.56,-41.27,-14.58,-13.04
5.569311022758484,2,3,3,3,3.13,-13.6,-17.45,-40.51,-5.38,-12.15
5.579311013221741,2,3,3,3,3.49,-14.83,1.23,8.69,11.13,-8.94
5.589311003684998,2,3,3,3,5.61,-11.34,2.05,19.34,-2.41,-7.06
5.599310994148254,2,3,3,3,5.61,-11.34,2.05,19.74,-9.699999999999999,0.49
5.609310984611511,2,3,3,3,6.59,-5.56,1.35,19.74,-9.699999999999999,0.49
5.619310975074768,2,3,3,3,7.02,-1.01,1.31,22.08,-8.699999999999999,6.16
5.629310965538025,2,3,3,3,7.82,5.31,1.7,24.34,4.51,12.97
5.639310956001282,2,3,3,3,4.79,6.38,2.2,20.25,4.8,13.11
5.649310946464539,2,3,3,3,4.79,6.38,2.2,15.55,0.36,11.76
5.659310936927795,2,3,3,3,1.99,5.69,2.05,15.55,0.36,11.76
5.669310927391052,2,3,3,3,-3.22,5.32,3.43,10.81,-6.1,9.6
5.679310917854309,2,3,3,3,-4.68,4.75,2.93,-4.72,-10.19,5.81
5.689310908317566,2,3,3,3,-5.17,4.21,1.59,-9.140000000000001,-3.48,4.56
5.699310898780823,2,3,3,3,-5.42,3.15,0.07000000000000001,-11.02,1.62,2.92
5.70931088924408,2,3,3,3,-5.42,2.56,-0.57,-11.02,1.62,2.92
5.719310879707336,2,3,3,3,-4.76,1.6,-1.15,-10.97,2.72,0.71
5.729310870170593,2,3,3,3,-3.31,0.58,-1.67,-8.130000000000001,4.58,-2.75
5.739311099052429,2,3,3,3,-0.16,-0.85,-2.79,-5.86,6.51,-3.6
5.749311089515686,2,3,3,3,0.23,-1.29,-2.37,-2.5,7.39,-4.05
5.759311079978943,2,3,3,3,-0.51,-1.61,-1.34,-2.5,7.39,-4.05
5.7693110704422,2,3,3,3,-1.46,-1.64,-0.43,0.44,5.38,-4.67
5.779311060905457,2,3,3,3,-1.68,-1.72,0,1.19,-3.51,-6.14
5.789311051368713,2,3,3,3,-1.04,-1.5,-0.16,1.98,-5.41,-6.95
5.79931104183197,2,3,3,3,-0.11,-1.3,-0.07000000000000001,3.31,-6.13,-7.56
5.809311032295227,2,3,3,3,1.1,-1.17,-0.12,3.31,-6.13,-7.56
5.819311022758484,2,3,3,3,3.03,-0.49,-0.42,4.74,-4.97,-7.59
5.829311013221741,2,3,3,3,3.29,0.18,-0.24,5.81,-2.3,-4.35
5.839311003684998,2,3,3,3,3.27,1.13,0.02,4.4,-2.57,-1.91
5.849310994148254,2,3,3,3,3.08,1.86,0.49,2.09,-3.4,0.35
5.859310984611511,2,3,3,3,2.02,2.08,0.93,2.09,-3.4,0.35
5.869310975074768,2,3,3,3,1.34,1.43,0.68,-0.31,-3.48,2.06
5.879310965538025,2,3,3,3,0.7,0.57,0.23,-1.99,-2.3,3.42
5.889310956001282,2,3,3,3,0.2,-0.41,0.41,-1.64,-1.31,4.01
5.899310946464539,2,3,3,3,-0.13,-1.27,0.91,-2.59,-1.41,5.48
5.909310936927795,2,3,3,3,-0.73,-2.34,0.57,-2.59,-1.41,5.48
5.919310927391052,2,3,3,3,-1.28,-3.35,1.2,-2.45,-3.2,7.67
5.929310917854309,2,3,3,3,-1.9,-5.05,2.27,-3.05,-1.36,11.11
5.939310908317566,2,3,3,3,-3.56,-7.24,1.93,-3.6,0.6899999999999999,14.47
5.949310898780823,2,3,3,3,-7.81,-9.02,3.8,-2.26,2.31,16.84
5.95931088924408,2,3,3,3,-13.39,-8.93,7.97,-2.26,2.31,16.84
5.969310879707336,2,3,3,3,-39.11,-11.26,9.09,-3.86,1.14,18.44
5.979310870170593,2,3,3,3,-39.11,-6.25,0.87,23.15,10.28,6.95
5.989311099052429,2,3,3,3,-39.06,-2.66,-4.4,24.63,17.75,-10.86
5.999311089515686,2,3,3,3,-39.11,10.61,1.36,14.3,-21.65,-8.31
6.009311079978943,2,3,3,3,-30.77,9.699999999999999,9.17,14.3,-21.65,-8.31
6.0193110704422,2,3,3,3,-19.75,5.73,6.87,-3.99,-17.57,-2.49
6.029311060905457,2,3,3,3,-15.1,2.18,9.18,-1.41,-8.869999999999999,13.58
6.039311051368713,2,3,3,3,-13.39,0.84,11.75,-0.25,-8.859999999999999,12.45
6.04931104183197,2,3,3,3,-14.07,3.98,10.17,-1.97,1.02,9.07
6.059311032295227,2,3,3,3,-16.5,6.61,9.51,-1.97,1.02,9.07
6.069311022758484,2,3,3,3,-20.12,6.11,8.550000000000001,-6.32,9.699999999999999,5.73
6.079311013221741,2,3,3,3,-24.66,2.46,1.45,-4.11,7.16,-4.57
6.089311003684998,2,3,3,3,-23.43,1.82,0.42,-4.26,-2.62,-8.619999999999999
6.099310994148254,2,3,3,3,-20.39,0.83,2.43,-4.16,-7.39,-10.8
6.109310984611511,2,3,3,3,-17.08,-0.03,4.6,-4.16,-7.39,-10.8
6.119310975074768,2,3,3,3,-12.59,-0.92,5.4,-3.39,-6.26,-10.8
6.129310965538025,2,3,3,3,-11.48,-0.86,5.16,-3.04,2.26,-7.39
6.139310956001282,2,3,3,3,-11.38,-0.9399999999999999,5.02,-2.27,4.34,-5.47
6.149310946464539,2,3,3,3,-11.92,-0.74,4.93,-1.95,4.27,-3.45
6.159310936927795,2,3,3,3,-12.8,-1.78,3.3,-1.95,4.27,-3.45
6.169310927391052,2,3,3,3,-12.4,-2.05,2.71,-1.06,2.4,-1.75
6.179310917854309,2,3,3,3,-11.47,-2.01,2.24,1.27,-0.02,-0.07000000000000001
6.189310908317566,2,3,3,3,-10.18,-1.56,1.68,2.48,1.28,-0.26
6.199310898780823,2,3,3,3,-7.98,-0.51,1.7,3.38,2.77,-1.15
6.20931088924408,2,3,3,3,-7.36,-0.17,1.86,3.38,2.77,-1.15
6.219310879707336,2,3,3,3,-7.08,-0.09,2.05,3.28,2.97,-2.3
6.229310870170593,2,3,3,3,-7.08,-0.12,2.03,1.75,0.68,-3.76
6.239311099052429,2,3,3,3,-6.75,-0.18,1.52,0.82,-0.33,-4.26
6.249311089515686,2,3,3,3,-6.23,-0.34,1.36,0.09,-0.2,-4.83
6.259311079978943,2,3,3,3,-5.63,-0.48,1.21,0.09,-0.2,-4.83
6.2693110704422,2,3,3,3,-4.4,-0.86,0.92,-0.51,0.74,-5.24
6.279311060905457,2,3,3,3,-3.93,-1.05,0.9399999999999999,-0.58,2.86,-5.05
6.289311051368713,2,3,3,3,-3.74,-1.45,1.09,-0.26,3.1,-4.33
6.29931104183197,2,3,3,3,-3.7,-1.6,1.33,-0.29,2.9,-3.39
6.309311032295227,2,3,3,3,-4.01,-1.97,1.32,-0.29,2.9,-3.39
6.319311022758484,2,3,3,3,-4.38,-2.14,1.24,-0.16,2.73,-2.3
6.329311013221741,2,3,3,3,-5.01,-2.27,1.16,1.42,2.41,-0.01
6.339311003684998,2,3,3,3,-5.75,-2.28,1.18,2.62,1.52,1.15
6.349310994148254,2,3,3,3,-6.88,-1.8,1.31,3.46,0.64,2.15
6.359310984611511,2,3,3,3,-7.32,-1.62,1.57,3.46,0.64,2.15
6.369310975074768,2,3,3,3,-7.87,-1.48,2.01,4.14,0.04,3.09
6.379310965538025,2,3,3,3,-8.550000000000001,-1.44,2.42,4.18,-1.67,4.03
6.389310956001282,2,3,3,3,-9.890000000000001,-1.33,2.49,4.75,-1.66,3.88
6.399310946464539,2,3,3,3,-10.57,-0.93,2.44,4.86,-0.89,3.26
6.409310936927795,2,3,3,3,-10.96,-0.33,1.99,4.86,-0.89,3.26
6.419310927391052,2,3,3,3,-10.92,0.18,1.82,4.81,0.39,2.45
6.429310917854309,2,3,3,3,-10.78,1.03,2.56,4.31,0.21,0.19
6.439310908317566,2,3,3,3,-10.52,1.1,2.77,2.85,-0.23,-0.86
6.449310898780823,2,3,3,3,-10.21,1.11,2.82,1.26,0.3,-1.55
6.45931088924408,2,3,3,3,-9.84,0.91,2.75,1.26,0.3,-1.55
6.469310879707336,2,3,3,3,-9.890000000000001,0.61,2.99,0.35,1.45,-1.8
6.479310870170593,2,3,3,3,-9.94,0.44,3.2,-0.06,1.72,-1.14
6.489311099052429,2,3,3,3,-9.91,0.34,3.12,-0.57,1.34,-0.53
6.499311089515686,2,3,3,3,-10.08,0.14,2.96,-0.66,0.61,-0.1
6.509311079978943,2,3,3,3,-10.02,0.27,2.66,-0.66,0.61,-0.1
6.5193110704422,2,3,3,3,-9.859999999999999,0.39,2.34,-0.9,-0.05,0.16
6.530310988426208,2,3,3,3,-9.69,0.54,2.22,-1.55,-0.29,0.07000000000000001
6.540310978889465,2,3,3,3,-9.31,0.36,2.03,-1.77,-0.48,-0.27
6.550310969352722,2,3,3,3,-9.300000000000001,0.12,2.2,-2.05,-0.9399999999999999,-0.64
6.560310959815979,2,3,3,3,-9.279999999999999,-0.11,2.11,-2.05,-0.9399999999999999,-0.64
6.570310950279236,2,3,3,3,-9.15,-0.33,1.93,-2.79,-1.14,-0.98
6.580310940742493,2,3,3,3,-9.06,-0.83,2.13,-3,-0.7,-1.09
6.59031093120575,2,3,3,3,-8.92,-1.06,2.05,-3,-0.5,-0.99
6.600310921669006,2,3,3,3,-8.800000000000001,-1.31,1.94,-2.77,-0.2,-0.76
6.610310912132263,2,3,3,3,-8.720000000000001,-1.46,1.92,-2.77,-0.2,-0.76
6.62031090259552,2,3,3,3,-8.67,-1.64,1.72,-2.3,0.01,-0.49
6.630310893058777,2,3,3,3,-8.720000000000001,-1.56,1.77,-1.02,0.04,0.09
6.640310883522034,2,3,3,3,-8.76,-1.49,1.69,-0.83,0.01,0.39
6.650310873985291,2,3,3,3,-8.800000000000001,-1.43,1.74,-0.83,0.01,0.39
6.660311102867126,2,3,3,3,-8.91,-1.37,1.76,-0.7,0.22,0.7
6.670311093330383,2,3,3,3,-9.1,-1.32,1.65,-0.71,0.42,0.91
6.68031108379364,2,3,3,3,-9.33,-1.25,1.8,-0.25,0.44,1.07
6.690311074256897,2,3,3,3,-9.56,-1.14,1.92,0.42,0.02,1.19
6.700311064720154,2,3,3,3,-9.5,-1.15,1.97,0.64,-0.49,1.23
6.710311055183411,2,3,3,3,-9.42,-1.14,1.99,0.61,-0.65,1.15
6.720311045646667,2,3,3,3,-9.41,-1.11,2.05,0.48,-0.43,1.05
6.730311036109924,2,3,3,3,-9.67,-0.86,2.18,0.4,-0.09,0.92
6.740311026573181,2,3,3,3,-9.77,-0.71,2.16,0.41,0.02,0.72
6.750311017036438,2,3,3,3,-9.789999999999999,-0.62,2.26,0.46,-0.05,0.53
6.760311007499695,2,3,3,3,-9.83,-0.5600000000000001,2.36,0.55,-0.19,0.28
6.770310997962952,2,3,3,3,-9.69,-0.62,2.49,0.49,-0.26,-0.01
6.780310988426208,2,3,3,3,-9.6,-0.62,2.37,0.25,-0.16,-0.24
6.790310978889465,2,3,3,3,-9.58,-0.65,2.25,-0.14,0.07000000000000001,-0.41
6.800310969352722,2,3,3,3,-9.52,-0.61,2.15,-0.53,0.32,-0.5600000000000001
6.810310959815979,2,3,3,3,-9.529999999999999,-0.62,2.22,-0.82,0.51,-0.7
6.820310950279236,2,3,3,3,-9.52,-0.67,2.27,-0.87,0.58,-0.78
6.830310940742493,2,3,3,3,-9.449999999999999,-0.77,2.21,-1.04,0.51,-0.93
6.84031093120575,2,3,3,3,-9.369999999999999,-0.9399999999999999,2.07,-1.29,0.57,-0.97
6.850310921669006,2,3,3,3,-9.42,-1.06,2.13,-1.34,0.57,-1.02
6.860310912132263,2,3,3,3,-9.529999999999999,-1.18,2.17,-1.3,0.35,-0.98
6.87031090259552,2,3,3,3,-9.550000000000001,-1.33,2.18,-1.04,0.16,-0.91
6.880310893058777,2,3,3,3,-9.58,-1.56,2.05,-0.57,0.16,-0.83
6.890310883522034,2,3,3,3,-9.56,-1.61,1.99,-0.01,0.13,-0.72
6.900310873985291,2,3,3,3,-9.48,-1.6,2.01,0.54,0.1,-0.64
6.910311102867126,2,3,3,3,-9.369999999999999,-1.52,2.06,1.06,0.11,-0.53
6.920311093330383,2,3,3,3,-9.16,-1.28,2.17,1.37,0.17,-0.4
6.93031108379364,2,3,3,3,-9.07,-1.17,2.21,1.48,0.31,-0.18
6.940311074256897,2,3,3,3,-9.06,-1.06,2.13,1.38,0.52,-0.05
6.950311064720154,2,3,3,3,-9.130000000000001,-0.99,2.15,1.16,0.63,0.05
6.960311055183411,2,3,3,3,-9.300000000000001,-0.96,2.22,0.88,0.67,0.09
6.970311045646667,2,3,3,3,-9.4,-1.01,2.2,0.67,0.6899999999999999,0.02
6.980311036109924,2,3,3,3,-9.42,-1.09,2.11,0.44,0.62,-0.11
6.990311026573181,2,3,3,3,-9.43,-1.18,1.96,0.18,0.6899999999999999,-0.31
7.000311017036438,2,3,3,3,-9.35,-1.25,1.82,-0.05,0.83,-0.55
7.010311007499695,2,3,3,3,-9.369999999999999,-1.25,1.87,-0.21,0.99,-0.78
7.020310997962952,2,3,3,3,-9.449999999999999,-1.29,1.97,-0.15,0.98,-0.92
7.030310988426208,2,3,3,3,-9.470000000000001,-1.29,1.79,-0.1,0.8,-0.91
7.040310978889465,2,3,3,3,-9.43,-1.3,1.86,0.14,0.59,-0.92
7.050310969352722,2,3,3,3,-9.380000000000001,-1.36,2.1,0.67,0.36,-0.97
7.060310959815979,2,3,3,3,-9.24,-1.33,2.14,0.9,-0.14,-1.1
7.070310950279236,2,3,3,3,-8.74,-1.36,1.82,0.59,-0.4,-1.24
7.080310940742493,2,3,3,3,-8.460000000000001,-1.26,1.56,0.07000000000000001,-0.17,-1.52
7.09031093120575,2,3,3,3,-8.199999999999999,-1.19,1.42,-0.41,0.44,-1.95
7.100310921669006,2,3,3,3,-8.050000000000001,-1.15,1.59,-0.5600000000000001,1.07,-2.36
7.110310912132263,2,3,3,3,-7.76,-1.13,1.89,-0.64,1.19,-2.69
7.12031090259552,2,3,3,3,-7.81,-1.28,1.96,-1.05,0.65,-2.78
7.130310893058777,2,3,3,3,-7.97,-1.67,1.91,-1.66,-0.28,-2.48
7.140310883522034,2,3,3,3,-8.210000000000001,-2.02,1.58,-2.21,-0.95,-2.05
7.150310873985291,2,3,3,3,-8.859999999999999,-2.2,1.26,-2.32,-1.43,-1.95
7.160311102867126,2,3,3,3,-9.07,-2.12,0.98,-2.26,-1.9,-2.36
7.170311093330383,2,3,3,3,-9.06,-1.94,0.92,-2.17,-2.34,-3.23
7.18031108379364,2,3,3,3,-8.82,-1.74,1.08,-2.26,-2.76,-4.49
7.190311074256897,2,3,3,3,-7.93,-1.71,0.5600000000000001,-2.46,-3.15,-5.85
7.200311064720154,2,3,3,3,-7.34,-1.81,-0.05,-2.78,-3.47,-7.07
7.210311055183411,2,3,3,3,-6.8,-1.97,-0.42,-2.55,-3.49,-8.07
7.220311045646667,2,3,3,3,-5.6,-1.76,0.41,-1.46,-3.33,-8.81
7.230311036109924,2,3,3,3,-5.05,-1.64,0.79,-0.48,-3.05,-9.050000000000001
7.240311026573181,2,3,3,3,-4.53,-1.44,0.74,-0.08,-2.71,-8.630000000000001
7.250311017036438,2,3,3,3,-3.94,-1.29,0.98,-0.26,-2.21,-7.76
7.260311007499695,2,3,3,3,-3.38,-1.04,2.19,-0.36,-1.3,-6.42
7.270310997962952,2,3,3,3,-3.47,-1.18,2.31,-1.08,-0.51,-5.19
7.280310988426208,2,3,3,3,-3.87,-1.43,2.25,-2.28,0.34,-4.36
7.290310978889465,2,3,3,3,-4.45,-1.68,2.02,-3.15,1.19,-3.8
7.300310969352722,2,3,3,3,-6.43,-2.22,2.54,-3.86,2.11,-3.31
7.310310959815979,2,3,3,3,-7.96,-2.54,3.16,-4.08,1.85,-2.93
7.320310950279236,2,3,3,3,-9.220000000000001,-2.69,3.52,-3.98,-0.25,-3.03
7.34031093120575,2,3,3,3,-12.66,-2.66,3.19,-3.69,-3.26,-3.8
7.350310921669006,2,3,3,3,-13.99,-2.79,3.14,-2.79,-3.38,-4.53
7.360310912132263,2,3,3,3,-14.66,-2.53,2.82,-0.86,-3.6,-5.74
7.37031090259552,2,3,3,3,-13.44,-1.36,1.89,1.18,-3.7,-6.61
7.380310893058777,2,3,3,3,-12.42,-0.85,2.34,2.69,-4.32,-6.78
7.390310883522034,2,3,3,3,-11.39,-0.36,3.37,3.3,-6.69,-5.82
7.400310873985291,2,3,3,3,-10.44,-0.36,4.68,2.18,-9.01,-3.29
7.410311102867126,2,3,3,3,-9.93,-1.72,6.38,0.19,-8.93,-0.06
7.420311093330383,2,3,3,3,-10.72,-2.18,6.73,-1,-6.72,3.05
7.43031108379364,2,3,3,3,-11.86,-2.33,6.79,-2.28,-3.79,5.2
7.440311074256897,2,3,3,3,-13.38,-2.4,6.85,-3.63,-1.4,6.36
7.450311064720154,2,3,3,3,-16.63,-2.54,6.37,-4.37,0.38,6.78
7.460311055183411,2,3,3,3,-17.96,-2.65,5.43,-4.7,1.94,5.78
7.470311045646667,2,3,3,3,-19.27,-3.06,4.66,-3.88,3.8,3.62
7.480311036109924,2,3,3,3,-20.42,-3.59,4.51,-1.63,4.41,1.06
7.490311026573181,2,3,3,3,-22.01,-4.22,5.2,0.49,2.72,-1.39
7.500311017036438,2,3,3,3,-22.38,-4.29,5.76,1.54,0.09,-3.49
7.510311007499695,2,3,3,3,-22.15,-3.99,6.14,2.2,-1.42,-4.94
7.520310997962952,2,3,3,3,-21.43,-3.4,6.52,3.41,-0.32,-5.14
7.530310988426208,2,3,3,3,-19.89,-1.83,6.73,3.9,2.75,-4.08
7.540310978889465,2,3,3,3,-19.61,-1,7.08,5.09,5.5,-2.3
7.551310896873474,2,3,3,3,-19.62,-0.67,7.09,5.5,6.96,-0.36
7.561310887336731,2,3,3,3,-20.46,-1.22,7.83,5.39,6.75,1.36
7.571310877799988,2,3,3,3,-20.93,-1.32,7.67,4.94,6.11,2.98
7.581310868263245,2,3,3,3,-21.59,-1.49,7.66,4.71,7.58,4.44
7.591311097145081,2,3,3,3,-22.63,-1.54,7.83,6.16,10.01,5.76
7.601311087608337,2,3,3,3,-23.36,-0.51,7.8,7.6,10.96,6.64
7.611311078071594,2,3,3,3,-22.43,-0.21,7.11,8,10.77,7.31
7.621311068534851,2,3,3,3,-20.74,-0.21,6.16,7.25,10.08,8.17
7.631311058998108,2,3,3,3,-18.52,-0.42,5.3,5.47,9.68,9.01
7.641311049461365,2,3,3,3,-13.18,-1.72,4.68,4.04,9.26,8.869999999999999
7.651311039924622,2,3,3,3,-10.57,-2.93,3.95,1.92,9.01,6.54
7.661311030387878,2,3,3,3,-8.289999999999999,-4.03,2.84,0.6,8.01,4.41
7.671311020851135,2,3,3,3,-6.16,-2.91,0.45,-1.8,8.91,2.5
7.681311011314392,2,3,3,3,-1.46,-1.77,-1.3,-7.53,12.42,0.6899999999999999
7.691311001777649,2,3,3,3,0.05,-3.85,0.18,-15.17,14.18,-2.67
7.701310992240906,2,3,3,3,1.41,-7.35,-4.05,-29.78,7.28,-8.66
7.711310982704163,2,3,3,3,1.56,-10.53,-9.99,-43.77,2.03,-13.08
7.721310973167419,2,3,3,3,-3.9,-12.13,-12.27,-40.77,6.13,-11.49
7.731310963630676,2,3,3,3,-1.65,-13.28,-7.37,-22.06,1.33,-11.67
7.741310954093933,2,3,3,3,2.84,-14.42,-4.03,-3.29,-12.92,-14.28
7.75131094455719,2,3,3,3,6.26,-8.4,-0.76,5.38,-17.25,-9.880000000000001
7.761310935020447,2,3,3,3,6.58,-3.19,0.68,10.22,-14.56,-0.32
7.771310925483704,2,3,3,3,6.89,0.59,1.49,13.28,-9,5.99
7.78131091594696,2,3,3,3,6.28,3.06,1.51,12.91,-3.3,9.550000000000001
7.791310906410217,2,3,3,3,4.03,3.78,0.63,11.81,-2.7,11.27
7.801310896873474,2,3,3,3,3.29,3.09,0.44,8.77,-4.53,11.93
7.811310887336731,2,3,3,3,2.55,2.65,0.59,5.93,-5.79,11.32
7.821310877799988,2,3,3,3,1.63,1.91,0.2,2.43,-5.4,10.56
7.831310868263245,2,3,3,3,-0.89,0.76,0.14,-0.5600000000000001,-3.67,10.37
7.841311097145081,2,3,3,3,-2.22,0.53,0.19,-2.22,-1.13,10.35
7.851311087608337,2,3,3,3,-3.09,0.68,0.03,-3.41,1.78,9.82
7.861311078071594,2,3,3,3,-3.47,0.55,-0.27,-4.17,4.17,8.59
7.871311068534851,2,3,3,3,-3.6,-0.01,-0.36,-5,4.79,6.02
7.881311058998108,2,3,3,3,-3.32,-0.73,-0.52,-5.73,3.36,2.65
7.891311049461365,2,3,3,3,-2.82,-1,-1.16,-5.65,1.36,-0.52
7.901311039924622,2,3,3,3,-2.2,-0.95,-1.85,-4.38,1.36,-3.08
7.911311030387878,2,3,3,3,-1.84,-1.3,-1.76,-1.91,3.02,-5.43
7.921311020851135,2,3,3,3,-1.72,-1.09,-1.58,1.09,3.2,-7.52
7.931311011314392,2,3,3,3,-1.38,-0.97,-1.54,3.08,1.74,-8.890000000000001
7.941311001777649,2,3,3,3,-0.52,-0.4,-1.23,4.96,0.59,-9.460000000000001
7.951310992240906,2,3,3,3,0.06,-0.11,-0.49,7.36,0.02,-9.17
7.961310982704163,2,3,3,3,0.45,-0.02,0.59,8.699999999999999,-0.61,-8.58
7.971310973167419,2,3,3,3,0.76,0.31,1.33,8.5,-2.2,-7.85
7.981310963630676,2,3,3,3,1.76,1.27,1.03,7.24,-3.87,-6.42
7.991310954093933,2,3,3,3,2.09,1.57,0.93,5.42,-3.49,-4.28
8.00131094455719,2,3,3,3,1.87,1.76,1.08,4.04,-2.42,-1.67
8.011310935020447,2,3,3,3,1.53,1.85,1,2.83,-2.9,0.92
8.021310925483704,2,3,3,3,1.34,2.04,0.23,1.87,-4.06,3.14
8.03131091594696,2,3,3,3,1.19,2.32,0.05,1.41,-4.7,4.72
8.041310906410217,2,3,3,3,1.34,2.21,0.78,1.18,-4.6,6.15
8.051310896873474,2,3,3,3,0.77,0.84,0.87,-0.73,-3.55,7.67
8.061310887336731,2,3,3,3,-1.76,-2.11,2.88,-2.5,-5.47,9.199999999999999
8.071310877799988,2,3,3,3,-1.4,-3.82,3.05,-3.8,-7.88,10.18
8.081310868263245,2,3,3,3,-1.42,-6.8,3.86,-8.960000000000001,-8.1,11.74
8.091311097145081,2,3,3,3,-3,-10.01,3.51,-12.83,-3.56,15.2
8.101311087608337,2,3,3,3,-15.72,-9.550000000000001,3.57,-11.59,5.86,19.2
8.111311078071594,2,3,3,3,-34.54,-15.36,4.96,-7.92,18.34,22.68
8.121311068534851,2,3,3,3,-39.11,-18.72,12.11,20.39,-19.12,26.22
8.131311058998108,2,3,3,3,-38.66,-0.9,-7.56,37.28,-9.970000000000001,6.09
8.141311049461365,2,3,3,3,-29.09,19.15,6.07,37.25,8.279999999999999,-14.18
8.151311039924622,2,3,3,3,-26.46,19.23,15.59,22.66,-15.76,-8.33
8.161311030387878,2,3,3,3,-23.36,15.87,12.09,7.62,-4.21,0.99
8.171311020851135,2,3,3,3,-12.91,1.15,10.25,-2.45,-2.68,8.07
8.181311011314392,2,3,3,3,-12.09,-2.47,9.949999999999999,-3.83,-9.23,13.13
8.191311001777649,2,3,3,3,-14.06,-0.58,9.92,0.41,-4.48,11.87
8.201310992240906,2,3,3,3,-18.2,3.08,8.119999999999999,1.17,8.25,8.44
8.211310982704163,2,3,3,3,-29.24,6.16,1.74,-1.81,16.07,4.95
8.221310973167419,2,3,3,3,-32.66,4.68,1.02,-2.93,17.3,0.37
8.231310963630676,2,3,3,3,-29.96,2.63,2.09,1.92,7.66,-4.79
8.241310954093933,2,3,3,3,-23.76,1.87,3.41,4.49,-7.84,-10.69
8.25131094455719,2,3,3,3,-13.47,0.31,4.58,-0.61,-13.15,-13.07
8.261310935020447,2,3,3,3,-11.02,-0.49,4.57,-4.8,-7.6,-11.31
8.271310925483704,2,3,3,3,-9.869999999999999,-0.68,4.37,-5.63,-1.6,-9.06
8.28131091594696,2,3,3,3,-9.25,-1.12,3.94,-5.43,1.32,-7.51
8.291310906410217,2,3,3,3,-9.6,-2.45,3.12,-4.65,2.35,-5.96
8.301310896873474,2,3,3,3,-9.880000000000001,-3.06,2.54,-3.24,2.09,-5.02
8.311310887336731,2,3,3,3,-9.68,-3.14,1.71,-2.27,1.15,-4.01
8.321310877799988,2,3,3,3,-7.99,-2.84,0.43,-1.6,1.3,-2.48
8.331310868263245,2,3,3,3,-6.71,-2.46,0.06,-0.44,2.41,-1.41
8.341311097145081,2,3,3,3,-5.66,-1.93,-0.27,0.97,3.73,-1.04
8.351311087608337,2,3,3,3,-4.86,-1.23,-0.19,2.42,4.12,-1.76
8.361311078071594,2,3,3,3,-3.52,-0.79,0.04,3.57,2.57,-3.1
8.371311068534851,2,3,3,3,-2.74,-0.6,0.11,4.46,0.34,-4.45
8.381311058998108,2,3,3,3,-1.86,-0.42,0.14,4.58,-0.84,-5.28
8.391311049461365,2,3,3,3,-1.42,-0.35,0.41,4.08,-1.1,-5.57
8.401311039924622,2,3,3,3,-1.45,-0.33,1.29,2.92,-1.65,-5.72
8.411311030387878,2,3,3,3,-1.74,-0.5,1.33,0.97,-1.88,-5.25
8.421311020851135,2,3,3,3,-2.27,-0.8,1.39,-0.8,-1.07,-4.43
8.431311011314392,2,3,3,3,-3.03,-1.33,1.59,-1.51,0.18,-3.6
8.441311001777649,2,3,3,3,-4.53,-2.52,1.28,-1.89,1.02,-2.59
8.451310992240906,2,3,3,3,-5.53,-2.97,1.48,-1.18,1.79,-1.06
8.461310982704163,2,3,3,3,-6.55,-3.34,1.59,0.09,1.71,0.62
8.471310973167419,2,3,3,3,-7.55,-3.77,1.4,0.66,0.92,2.17
8.481310963630676,2,3,3,3,-9.199999999999999,-3.8,1.19,1.87,0.42,3.36
8.491310954093933,2,3,3,3,-9.789999999999999,-3.55,1.33,3.48,0.19,4.07
8.50131094455719,2,3,3,3,-10.21,-2.99,1.69,4.73,-0.04,4.34
8.511310935020447,2,3,3,3,-11.74,-1.41,2.54,5.35,-0.15,4.3
8.521310925483704,2,3,3,3,-12.36,-0.47,2.58,5.23,-0.02,3.84
8.53131091594696,2,3,3,3,-12.72,0.3,2.48,4.4,0.57,3.2
8.541310906410217,2,3,3,3,-13.01,1.03,2.52,3.34,1.34,2.62
8.551310896873474,2,3,3,3,-12.85,1.79,3.2,2.08,1.17,1.83
8.561310887336731,2,3,3,3,-12.22,1.63,3.37,0.53,0.26,1.22
8.571310877799988,2,3,3,3,-11.43,1.31,3.28,-0.96,-0.2,0.68
8.582311034202576,2,3,3,3,-10.56,0.82,3.04,-2.1,0.16,-0.04
8.592311024665833,2,3,3,3,-9.26,-0.01,2.66,-2.82,1.27,-0.63
8.602311015129089,2,3,3,3,-8.83,-0.04,2.6,-3.2,2.35,-0.86
8.612311005592346,2,3,3,3,-8.48,0.01,2.63,-3.79,2.73,-0.85
8.622310996055603,2,3,3,3,-8.119999999999999,-0.09,2.72,-4.35,2.19,-0.8100000000000001
8.63231098651886,2,3,3,3,-7.78,-0.65,2.72,-4.88,0.88,-1.03
8.642310976982117,2,3,3,3,-7.85,-1.09,2.56,-5.07,-0.02,-1.3
8.652310967445374,2,3,3,3,-7.93,-1.38,2.42,-5.17,-0.29,-1.32
8.66231095790863,2,3,3,3,-8.029999999999999,-1.57,2.25,-5.31,-0.45,-1.04
8.672310948371887,2,3,3,3,-8.130000000000001,-1.82,2.06,-5.11,-0.59,-0.75
8.682310938835144,2,3,3,3,-8.1,-2.09,1.95,-4.8,-0.6,-0.65
8.692310929298401,2,3,3,3,-8.26,-2.23,1.87,-4.18,-0.1,-0.68
8.702310919761658,2,3,3,3,-9.18,-2.46,1.86,-3.4,0.27,-0.82
8.712310910224915,2,3,3,3,-9.630000000000001,-2.55,1.53,-2.66,0.41,-1.1
8.722310900688171,2,3,3,3,-10.07,-2.58,1.34,-1.59,0.76,-1.3
8.732310891151428,2,3,3,3,-10.31,-2.53,1.33,-0.38,1.03,-1.31
8.742310881614685,2,3,3,3,-10.35,-2.66,1.26,0.36,0.82,-1.03
8.752310872077942,2,3,3,3,-10.27,-2.72,1.23,0.78,0.42,-0.53
8.762311100959778,2,3,3,3,-10.17,-2.7,1.26,1.06,0.09,0.08
8.772311091423035,2,3,3,3,-10.13,-2.57,1.48,1.49,-0.14,0.73
8.782311081886292,2,3,3,3,-9.94,-1.88,1.89,1.98,-0.41,1.32
8.792311072349548,2,3,3,3,-9.84,-1.54,2.01,2.39,-0.54,1.73
8.802311062812805,2,3,3,3,-9.73,-1.25,2.28,2.65,-0.57,1.9
8.812311053276062,2,3,3,3,-9.65,-1.07,2.48,2.8,-0.8,1.79
8.822311043739319,2,3,3,3,-9.25,-0.71,2.35,2.79,-1.04,1.49
8.832311034202576,2,3,3,3,-9.029999999999999,-0.62,2.3,2.69,-1.07,1.07
8.842311024665833,2,3,3,3,-8.869999999999999,-0.67,2.21,2.44,-0.92,0.71
8.852311015129089,2,3,3,3,-8.720000000000001,-0.76,2.17,2.12,-0.96,0.47
8.862311005592346,2,3,3,3,-8.68,-1.06,1.98,1.61,-0.88,0.4
8.872310996055603,2,3,3,3,-8.779999999999999,-1.14,1.91,1.02,-0.63,0.58
8.88231098651886,2,3,3,3,-8.94,-1.23,1.92,0.67,-0.36,0.82
8.892310976982117,2,3,3,3,-9.470000000000001,-1.26,1.7,0.61,-0.01,1.01
8.902310967445374,2,3,3,3,-9.92,-1.15,1.82,0.6899999999999999,0.36,0.96
8.91231095790863,2,3,3,3,-10.24,-1.04,1.88,0.93,0.38,0.64
8.922310948371887,2,3,3,3,-10.36,-0.93,1.9,1.09,0.05,0.32
8.932310938835144,2,3,3,3,-10.19,-0.79,2.06,1.11,-0.4,-0.05
8.942310929298401,2,3,3,3,-10.01,-0.86,2.11,0.99,-0.64,-0.32
8.952310919761658,2,3,3,3,-9.710000000000001,-0.98,2.09,0.74,-0.48,-0.5
8.962310910224915,2,3,3,3,-9.57,-1.12,2.07,0.4,0.12,-0.55
8.972310900688171,2,3,3,3,-9.6,-1.41,2.06,0.42,0.71,-0.53
8.982310891151428,2,3,3,3,-9.550000000000001,-1.47,1.94,0.5,0.77,-0.42
8.992310881614685,2,3,3,3,-9.58,-1.52,1.8,0.71,0.67,-0.27
9.002310872077942,2,3,3,3,-9.539999999999999,-1.57,1.8,0.9399999999999999,0.37,-0.11
9.012311100959778,2,3,3,3,-9.359999999999999,-1.56,1.86,1.15,0.06,0.03
9.022311091423035,2,3,3,3,-9.289999999999999,-1.49,1.93,1.17,-0.11,0.09
9.032311081886292,2,3,3,3,-9.25,-1.37,1.99,1.21,-0.18,0.19
9.042311072349548,2,3,3,3,-9.289999999999999,-1.3,1.9,1.04,-0.25,0.2
9.052311062812805,2,3,3,3,-9.369999999999999,-1.14,1.88,0.76,-0.25,0.13
9.062311053276062,2,3,3,3,-9.43,-1.09,1.93,0.45,-0.22,0.11
9.072311043739319,2,3,3,3,-9.460000000000001,-1.02,1.94,0.28,-0.17,0.04
9.082311034202576,2,3,3,3,-9.48,-1.06,1.93,0.13,-0.15,0.01
9.092311024665833,2,3,3,3,-9.52,-1.09,1.91,0.03,-0.19,0.01
9.102311015129089,2,3,3,3,-9.550000000000001,-1.13,1.91,-0.01,-0.29,0.01
9.112311005592346,2,3,3,3,-9.58,-1.2,1.9,-0.04,-0.35,-0.01
9.122310996055603,2,3,3,3,-9.68,-1.25,1.95,0,-0.36,0
9.13231098651886,2,3,3,3,-9.720000000000001,-1.25,2.03,0.23,-0.36,0.07000000000000001
9.142310976982117,2,3,3,3,-9.75,-1.27,2.04,0.48,-0.38,0.16
9.152310967445374,2,3,3,3,-9.699999999999999,-1.31,2.05,0.49,-0.37,0.18
9.16231095790863,2,3,3,3,-9.58,-1.25,2.11,0.53,-0.21,0.19
9.172310948371887,2,3,3,3,-9.49,-1.19,2.13,0.62,0.01,0.08
9.182310938835144,2,3,3,3,-9.43,-1.14,2.12,0.58,0.23,-0.09
9.192310929298401,2,3,3,3,-9.4,-1.17,1.95,0.36,0.37,-0.22
9.202310919761658,2,3,3,3,-9.369999999999999,-1.18,2.01,0.32,0.39,-0.28
9.212310910224915,2,3,3,3,-9.43,-1.22,2.08,0.35,0.39,-0.33
9.222310900688171,2,3,3,3,-9.44,-1.3,2.06,0.2,0.39,-0.27
9.232310891151428,2,3,3,3,-9.48,-1.33,2.06,0.18,0.39,-0.2
9.242310881614685,2,3,3,3,-9.550000000000001,-1.26,1.95,0.22,0.28,-0.11
9.252310872077942,2,3,3,3,-9.58,-1.21,2.02,0.21,0.05,-0.01
9.262311100959778,2,3,3,3,-9.57,-1.15,2.14,0.28,-0.26,0.08
9.272311091423035,2,3,3,3,-9.550000000000001,-1.11,2.31,0.3,-0.6,0.23
9.282311081886292,2,3,3,3,-9.41,-1.12,2.18,0.19,-1.03,0.3
9.292311072349548,2,3,3,3,-9.369999999999999,-1.17,2.02,-0.05,-1.24,0.4
9.302311062812805,2,3,3,3,-9.4,-1.21,2.02,-0.19,-1.02,0.59
9.312311053276062,2,3,3,3,-9.67,-1.19,2.1,-0.27,-0.78,0.76
9.322311043739319,2,3,3,3,-9.74,-1.09,2.11,-0.21,-0.79,0.79
9.332311034202576,2,3,3,3,-9.67,-1.01,2.16,-0.19,-0.78,0.73
9.342311024665833,2,3,3,3,-9.56,-0.9,2.13,-0.15,-0.59,0.65
9.352311015129089,2,3,3,3,-9.42,-0.96,2.28,-0.29,-0.42,0.58
9.362311005592346,2,3,3,3,-9.42,-1.07,2.32,-0.51,-0.38,0.42
9.372310996055603,2,3,3,3,-9.460000000000001,-1.1,2.32,-0.67,-0.33,0.34
9.38231098651886,2,3,3,3,-9.5,-1.14,2.2,-0.85,-0.28,0.25
9.392310976982117,2,3,3,3,-9.56,-1.16,1.93,-0.92,-0.16,0.15
9.402310967445374,2,3,3,3,-9.56,-1.18,2.03,-0.86,-0.23,0.11
9.41231095790863,2,3,3,3,-9.529999999999999,-1.22,2.06,-0.85,-0.41,0
9.422310948371887,2,3,3,3,-9.49,-1.23,2.11,-0.77,-0.61,-0.04
9.432310938835144,2,3,3,3,-9.289999999999999,-1.4,2,-0.89,-0.54,-0.02
9.442310929298401,2,3,3,3,-9.470000000000001,-1.42,1.9,-0.97,-0.14,0.12
9.452310919761658,2,3,3,3,-9.69,-1.34,2.05,-0.71,-0.13,0.22
9.462310910224915,2,3,3,3,-9.609999999999999,-1.14,2.13,-0.34,-0.39,0.25
9.472310900688171,2,3,3,3,-9.470000000000001,-1.1,2.27,-0.15,-0.37,0.31
9.482310891151428,2,3,3,3,-9.35,-1.12,2.31,-0.15,-0.34,0.31
9.492310881614685,2,3,3,3,-9.34,-1.11,2.27,-0.28,-0.32,0.22
9.502310872077942,2,3,3,3,-9.44,-1.12,2.31,-0.4,-0.23,0.17
9.512311100959778,2,3,3,3,-9.52,-1.1,2.31,-0.47,-0.27,0.17
9.522311091423035,2,3,3,3,-9.529999999999999,-1.1,2.3,-0.54,-0.42,0.17
9.532311081886292,2,3,3,3,-9.460000000000001,-1.09,2.2,-0.74,-0.5600000000000001,0.17
9.542311072349548,2,3,3,3,-9.5,-1.16,2.1,-0.77,-0.45,0.19
9.552311062812805,2,3,3,3,-9.470000000000001,-1.19,2.18,-0.7,-0.42,0.24
9.562311053276062,2,3,3,3,-9.43,-1.27,2.18,-0.67,-0.31,0.23
9.572311043739319,2,3,3,3,-9.43,-1.36,2.15,-0.65,0.01,0.24
9.582311034202576,2,3,3,3,-9.68,-1.2,2.2,-0.43,0.33,0.25
9.592311024665833,2,3,3,3,-9.69,-1.14,2.26,-0.05,0.34,0.22
9.603310942649841,2,3,3,3,-9.609999999999999,-1.11,2.38,0.26,0.16,0.19
9.613310933113098,2,3,3,3,-9.460000000000001,-1.09,2.32,0.26,-0.02,0.15
9.623310923576355,2,3,3,3,-9.31,-1.11,2.33,0.16,0,0.07000000000000001
9.633310914039612,2,3,3,3,-9.359999999999999,-1.18,2.31,0.11,0.09,-0.02
9.643310904502869,2,3,3,3,-9.449999999999999,-1.2,2.16,0.05,0.14,-0.07000000000000001
9.653310894966125,2,3,3,3,-9.6,-1.18,2.17,0.07000000000000001,0.1,-0.12
9.663310885429382,2,3,3,3,-9.630000000000001,-1.2,2.19,0.13,0,-0.12
9.673310875892639,2,3,3,3,-9.59,-1.19,2.16,0.28,-0.17,-0.16
9.683311104774475,2,3,3,3,-9.529999999999999,-1.13,2.21,0.45,-0.31,-0.18
9.693311095237732,2,3,3,3,-9.34,-1.14,2.12,0.55,-0.37,-0.18
9.703311085700989,2,3,3,3,-9.31,-1.13,2.16,0.47,-0.22,-0.14
9.713311076164246,2,3,3,3,-9.390000000000001,-1.15,2.21,0.42,0.06,-0.04
9.723311066627502,2,3,3,3,-9.52,-1.09,2.22,0.5600000000000001,0.15,0.03
9.733311057090759,2,3,3,3,-9.56,-1.01,2.31,0.76,0.07000000000000001,0.13
9.743311047554016,2,3,3,3,-9.51,-0.95,2.28,0.84,-0.13,0.22
9.753311038017273,2,3,3,3,-9.470000000000001,-0.93,2.32,0.8,-0.17,0.21
9.76331102848053,2,3,3,3,-9.44,-0.92,2.34,0.64,-0.13,0.18
9.773311018943787,2,3,3,3,-9.43,-0.96,2.32,0.53,-0.07000000000000001,0.11
9.783311009407043,2,3,3,3,-9.460000000000001,-0.97,2.32,0.42,-0.05,0.07000000000000001
9.7933109998703,2,3,3,3,-9.470000000000001,-1.02,2.17,0.32,-0.13,-0.01
9.803310990333557,2,3,3,3,-9.460000000000001,-1.03,2.16,0.26,-0.19,-0.1
9.813310980796814,2,3,3,3,-9.44,-1.1,2.29,0.31,-0.21,-0.17
9.823310971260071,2,3,3,3,-9.380000000000001,-1.12,2.34,0.37,-0.23,-0.24
9.833310961723328,2,3,3,3,-9.33,-1.13,2.35,0.41,-0.13,-0.28
9.843310952186584,2,3,3,3,-9.42,-1.2,2.24,0.41,-0.01,-0.2
9.853310942649841,2,3,3,3,-9.57,-1.18,2.19,0.38,0.1,-0.02
9.863310933113098,2,3,3,3,-9.67,-1.09,2.3,0.5,0.2,0.16
9.873310923576355,2,3,3,3,-9.619999999999999,-0.99,2.42,0.9,0.1,0.28
9.883310914039612,2,3,3,3,-9.33,-0.79,2.46,1.04,0.11,0.33
9.893310904502869,2,3,3,3,-9.289999999999999,-0.75,2.42,0.96,0.17,0.31
9.903310894966125,2,3,3,3,-9.31,-0.76,2.52,0.76,0.07000000000000001,0.25
9.913310885429382,2,3,3,3,-9.390000000000001,-0.78,2.62,0.49,-0.12,0.26
9.923310875892639,2,3,3,3,-9.49,-0.86,2.49,0.02,-0.22,0.23
9.933311104774475,2,3,3,3,-9.56,-0.9399999999999999,2.36,-0.41,-0.07000000000000001,0.2
9.943311095237732,2,3,3,3,-9.630000000000001,-0.97,2.23,-0.65,0.14,0.14
9.953311085700989,2,3,3,3,-9.630000000000001,-0.99,2.2,-0.76,0.25,0.06
9.963311076164246,2,3,3,3,-9.539999999999999,-1.02,2.26,-0.71,0.26,-0.04
9.973311066627502,2,3,3,3,-9.51,-1.02,2.26,-0.67,0.15,-0.2
9.983311057090759,2,3,3,3,-9.5,-1.03,2.3,-0.52,0.13,-0.29
9.993311047554016,2,3,3,3,-9.449999999999999,-1.06,2.26,-0.39,-0.08,-0.38
10.00331103801727,2,3,3,3,-9.369999999999999,-1.16,2.38,-0.36,-0.2,-0.42
10.01331102848053,2,3,3,3,-9.26,-1.23,2.34,-0.48,-0.2,-0.4
10.02331101894379,2,3,3,3,-9.279999999999999,-1.27,2.24,-0.68,0.21,-0.31
10.03331100940704,2,3,3,3,-9.58,-1.2,2.26,-0.47,0.52,-0.21
10.0433109998703,2,3,3,3,-9.550000000000001,-1.13,2.21,-0.12,0.36,-0.19
10.05331099033356,2,3,3,3,-9.49,-1.08,2.27,0.04,0.16,-0.22
10.06331098079681,2,3,3,3,-9.4,-1,2.29,-0.05,0.12,-0.23
10.07331097126007,2,3,3,3,-9.449999999999999,-1.09,2.3,-0.3,0.21,-0.27
10.08331096172333,2,3,3,3,-9.529999999999999,-1.15,2.22,-0.45,0.32,-0.31
10.09331095218658,2,3,3,3,-9.52,-1.21,2.05,-0.71,0.31,-0.29
10.10331094264984,2,3,3,3,-9.52,-1.22,1.99,-0.82,0.29,-0.32
10.1133109331131,2,3,3,3,-9.550000000000001,-1.24,2.1,-0.74,0.18,-0.39
10.12331092357635,2,3,3,3,-9.550000000000001,-1.26,2.18,-0.57,0.12,-0.45
10.13331091403961,2,3,3,3,-9.56,-1.3,2.3,-0.33,0.04,-0.51
10.14331090450287,2,3,3,3,-9.51,-1.34,2.3,-0.04,-0.08,-0.57
10.15331089496613,2,3,3,3,-9.42,-1.35,2.42,0.25,-0.23,-0.61
10.16331088542938,2,3,3,3,-9.359999999999999,-1.34,2.44,0.35,-0.49,-0.58
10.17331087589264,2,3,3,3,-9.289999999999999,-1.29,2.45,0.43,-0.58,-0.42
10.18331110477448,2,3,3,3,-9.27,-1.27,2.49,0.41,-0.62,-0.31
10.19331109523773,2,3,3,3,-9.09,-1.21,2.27,0.3,-0.67,-0.18
10.20331108570099,2,3,3,3,-9.06,-1.16,2.28,0.22,-0.52,-0.05
10.21331107616425,2,3,3,3,-9.199999999999999,-1.22,2.51,0.21,-0.11,0.18
10.2233110666275,2,3,3,3,-9.199999999999999,-1.22,2.51,0.12,0.23,0.41
10.23331105709076,2,3,3,3,-9.58,-1.27,2.61,-0.1,0.33,0.63
10.24331104755402,2,3,3,3,-9.859999999999999,-0.93,2.3,-0.04,0.31,0.6899999999999999
10.25331103801727,2,3,3,3,-9.779999999999999,-0.6899999999999999,2.42,0.16,0.47,0.5
10.26331102848053,2,3,3,3,-9.58,-0.35,2.72,0.37,0.54,0.15
10.27331101894379,2,3,3,3,-9.58,-0.35,2.72,0.37,0.17,-0.23
10.28331100940704,2,3,3,3,-9.49,-0.44,2.71,-0.23,-0.1,-0.61
10.2933109998703,2,3,3,3,-9.26,-0.88,2.36,-0.98,-0.04,-0.8
10.30331099033356,2,3,3,3,-9.390000000000001,-1.28,2.11,-1.43,0.23,-0.91
10.31331098079681,2,3,3,3,-9.449999999999999,-1.36,2.07,-1.49,0.37,-0.87
10.32331097126007,2,3,3,3,-9.449999999999999,-1.36,2.07,-1.33,0.27,-0.79
10.33331096172333,2,3,3,3,-9.41,-1.48,2.01,-1.1,0.07000000000000001,-0.76
10.34331095218658,2,3,3,3,-9.23,-1.56,2.15,-0.84,-0.02,-0.72
10.35331094264984,2,3,3,3,-9.24,-1.61,2.37,-0.64,0.05,-0.58
10.3633109331131,2,3,3,3,-9.34,-1.59,2.52,-0.22,-0.06,-0.32
10.37331092357635,2,3,3,3,-9.34,-1.59,2.52,0.79,-0.49,-0.02
10.38331091403961,2,3,3,3,-9.390000000000001,-1.25,2.34,1.41,-1.72,0.26
10.39331090450287,2,3,3,3,-9.140000000000001,-1.24,1.64,0.31,-2.14,0.44
10.40331089496613,2,3,3,3,-9.27,-1.05,1.97,0.35,-1.34,0.49
10.41331088542938,2,3,3,3,-9.42,-0.78,2.45,0.84,-1.01,0.5
10.42331087589264,2,3,3,3,-9.42,-0.78,2.45,0.37,-0.68,0.51
10.43331110477448,2,3,3,3,-9.51,-0.77,2.34,-0.16,0.01,0.34
10.44331109523773,2,3,3,3,-9.75,-0.88,2.25,-0.65,0.48,0.1
10.45331108570099,2,3,3,3,-9.57,-1.13,1.97,-0.88,0.51,-0.24
10.46331107616425,2,3,3,3,-9.460000000000001,-1.19,1.88,-1.23,0.32,-0.58
10.4733110666275,2,3,3,3,-9.460000000000001,-1.19,1.88,-1.3,0.28,-0.8
10.48331105709076,2,3,3,3,-9.44,-1.26,2,-1.03,0.19,-0.9
10.49331104755402,2,3,3,3,-9.42,-1.46,2.14,-0.79,0.08,-0.9399999999999999
10.50331103801727,2,3,3,3,-9.48,-1.49,2.31,-0.36,-0.07000000000000001,-0.9
10.51331102848053,2,3,3,3,-9.42,-1.4,2.29,0.21,-0.41,-0.77
10.52331101894379,2,3,3,3,-9.42,-1.4,2.29,0.17,-0.62,-0.67
10.53331100940704,2,3,3,3,-9.210000000000001,-1.38,2.02,0.44,-0.54,-0.52
10.5433109998703,2,3,3,3,-9.130000000000001,-1.3,2.4,0.83,-0.6899999999999999,-0.33
10.55331099033356,2,3,3,3,-9.19,-1.32,2.34,0.72,-0.77,-0.09
10.56331098079681,2,3,3,3,-9.279999999999999,-1.26,2.35,0.6899999999999999,-0.61,0.21
10.57331097126007,2,3,3,3,-9.279999999999999,-1.26,2.35,0.8,-0.54,0.41
10.58331096172333,2,3,3,3,-9.5,-1.07,2.38,0.58,-0.44,0.48
10.59331095218658,2,3,3,3,-9.65,-0.91,2.49,0.62,-0.34,0.39
10.60331094264984,2,3,3,3,-9.6,-0.86,2.43,0.63,-0.47,0.23
10.6133109331131,2,3,3,3,-9.529999999999999,-0.89,2.38,0.36,-0.46,0.02
10.62331092357635,2,3,3,3,-9.529999999999999,-0.89,2.38,-0.04,-0.44,-0.24
10.63431107997894,2,3,3,3,-9.48,-0.96,2.37,-0.1,-0.34,-0.45
10.6443110704422,2,3,3,3,-9.44,-1.27,2.37,-0.19,-0.3,-0.67
10.65431106090546,2,3,3,3,-9.43,-1.38,2.46,-0.38,-0.12,-0.86
10.66431105136871,2,3,3,3,-9.48,-1.39,2.57,0.09,-0.19,-0.99
10.67431104183197,2,3,3,3,-9.48,-1.39,2.57,0.09,-0.19,-0.99
10.68431103229523,2,3,3,3,-9.4,-1.41,2.61,0.28,-0.55,-1.04
10.69431102275848,2,3,3,3,-9.19,-1.31,2.24,-0.01,-0.63,-0.91
10.70431101322174,2,3,3,3,-9.199999999999999,-1.24,2.61,0.66,-0.75,-0.76
10.714311003685,2,3,3,3,-9.08,-1.26,2.68,0.98,-0.78,-0.6
10.72431099414825,2,3,3,3,-9.08,-1.26,2.68,0.98,-0.78,-0.6
10.73431098461151,2,3,3,3,-9.1,-1.45,2.77,1.18,-0.53,-0.49
10.74431097507477,2,3,3,3,-9.17,-1.41,2.42,1.1,-0.29,-0.35
10.75431096553802,2,3,3,3,-9.16,-1.33,2.38,1,-0.28,-0.3
10.76431095600128,2,3,3,3,-9.210000000000001,-1.34,2.35,0.78,-0.03,-0.15
10.77431094646454,2,3,3,3,-9.210000000000001,-1.34,2.35,0.78,-0.03,-0.15
10.7843109369278,2,3,3,3,-9.279999999999999,-1.37,2.34,0.48,0.3,0.01
10.79431092739105,2,3,3,3,-9.539999999999999,-1.51,1.89,0.48,0.59,0.06
10.80431091785431,2,3,3,3,-9.5,-1.36,1.9,0.79,0.62,-0.11
10.81431090831757,2,3,3,3,-9.359999999999999,-1.18,1.83,1.42,0.5,-0.25
10.82431089878082,2,3,3,3,-9.359999999999999,-1.18,1.83,1.42,0.5,-0.25
10.83431088924408,2,3,3,3,-9.18,-1.05,1.98,1.66,0.51,-0.39
10.84431087970734,2,3,3,3,-9.06,-0.82,2.2,1.51,0.91,-0.3
10.85431087017059,2,3,3,3,-9.17,-0.6899999999999999,2.1,1.21,1.3,0.04
10.86431109905243,2,3,3,3,-9.279999999999999,-0.55,2.05,0.93,1.6,0.38
10.88431107997894,2,3,3,3,-9.59,-0.26,1.89,0.51,1.77,0.68
10.8943110704422,2,3,3,3,-9.800000000000001,-0.18,1.81,-0.75,1.65,0.97
10.90431106090546,2,3,3,3,-10.04,-0.15,1.83,-1.15,1.37,1.02
10.91431105136871,2,3,3,3,-10.24,-0.18,1.87,-1.43,1.17,0.92
10.92431104183197,2,3,3,3,-10.23,-0.41,1.93,-1.43,1.17,0.92
10.93431103229523,2,3,3,3,-10.07,-0.61,1.83,-1.51,1.33,0.59
10.94431102275848,2,3,3,3,-9.890000000000001,-0.8,1.8,-0.5600000000000001,1.95,-0.28
10.95431101322174,2,3,3,3,-9.76,-0.99,1.76,0.4,2.05,-0.54
10.964311003685,2,3,3,3,-9.470000000000001,-1.2,1.95,1.24,2.37,-0.6
10.97431099414825,2,3,3,3,-9.369999999999999,-1.17,1.92,1.24,2.37,-0.6
10.98431098461151,2,3,3,3,-9.33,-1.05,1.91,2.06,2.93,-0.41
10.99431097507477,2,3,3,3,-9.27,-0.58,1.76,3.79,3.58,-0.07000000000000001
11.00431096553802,2,3,3,3,-9.130000000000001,-0.33,1.67,4.25,3.64,-0.17
11.01431095600128,2,3,3,3,-9.1,-0.26,1.8,4.31,3.87,-0.16
11.02431094646454,2,3,3,3,-9.220000000000001,-0.19,1.86,4.31,3.87,-0.16
11.0343109369278,2,3,3,3,-9.52,-0.03,1.89,4.08,3.74,-0.13
11.04431092739105,2,3,3,3,-9.68,-0.05,1.82,2.78,2.91,-0.15
11.05431091785431,2,3,3,3,-9.779999999999999,-0.04,1.62,2.13,2.53,-0.09
11.06431090831757,2,3,3,3,-9.75,-0.14,1.53,1.82,2.39,-0.08
11.07431089878082,2,3,3,3,-9.68,-0.24,1.53,1.82,2.39,-0.08
11.08431088924408,2,3,3,3,-9.619999999999999,-0.33,1.55,1.73,2.04,-0.25
11.09431087970734,2,3,3,3,-9.529999999999999,-0.39,1.58,1.76,1.41,-0.62
11.10431087017059,2,3,3,3,-9.49,-0.43,1.56,1.77,1.2,-0.84
11.11431109905243,2,3,3,3,-9.470000000000001,-0.55,1.65,1.82,1.22,-1.08
11.12431108951569,2,3,3,3,-9.49,-0.58,1.7,1.82,1.22,-1.08
11.13431107997894,2,3,3,3,-9.5,-0.67,1.65,2.11,1.35,-1.22
11.1443110704422,2,3,3,3,-9.529999999999999,-0.66,1.7,2.76,1.34,-1.51
11.15431106090546,2,3,3,3,-9.52,-0.61,1.55,3.31,1.3,-1.64
11.16431105136871,2,3,3,3,-9.57,-0.6,1.76,3.77,1.21,-1.78
11.17431104183197,2,3,3,3,-9.59,-0.64,1.9,3.77,1.21,-1.78
11.18431103229523,2,3,3,3,-9.539999999999999,-0.5,1.92,4.33,1.02,-1.84
11.19431102275848,2,3,3,3,-9.529999999999999,-0.42,1.87,5.01,0.83,-2.06
11.20431101322174,2,3,3,3,-9.5,-0.32,1.8,5.3,0.86,-2.14
11.214311003685,2,3,3,3,-9.539999999999999,-0.15,1.9,5.5,0.86,-2.29
11.22431099414825,2,3,3,3,-9.68,0.18,1.86,5.5,0.86,-2.29
11.23431098461151,2,3,3,3,-9.75,0.25,1.89,5.38,0.93,-2.38
11.24431097507477,2,3,3,3,-9.720000000000001,0.33,1.82,5,0.9399999999999999,-2.72
11.25431096553802,2,3,3,3,-9.66,0.36,1.75,4.68,0.86,-2.95
11.26431095600128,2,3,3,3,-9.5,0.27,1.71,4.34,0.91,-3.15
11.27431094646454,2,3,3,3,-9.44,0.18,1.56,4.34,0.91,-3.15
11.2843109369278,2,3,3,3,-9.44,0.09,1.52,4.13,1.03,-3.36
11.29431092739105,2,3,3,3,-9.41,0.1,1.53,4.46,0.62,-3.68
11.30431091785431,2,3,3,3,-9.35,0.16,1.38,4.56,0.5,-3.71
11.31431090831757,2,3,3,3,-9.380000000000001,0.24,1.38,4.53,0.55,-3.67
11.32431089878082,2,3,3,3,-9.42,0.26,1.39,4.53,0.55,-3.67
11.33431088924408,2,3,3,3,-9.640000000000001,0.43,1.43,4.6,0.75,-3.4
11.34431087970734,2,3,3,3,-9.69,0.47,1.39,4.62,0.79,-3.01
11.35431087017059,2,3,3,3,-9.73,0.45,1.3,4.6,0.88,-2.92
11.36431109905243,2,3,3,3,-9.789999999999999,0.4,1.32,4.69,0.89,-2.86
11.37431108951569,2,3,3,3,-10.02,0.29,1.33,4.69,0.89,-2.86
11.38431107997894,2,3,3,3,-10.19,0.21,1.31,4.73,0.82,-2.83
11.3943110704422,2,3,3,3,-10.29,0.22,1.35,5.66,0.85,-2.86
11.40431106090546,2,3,3,3,-10.3,0.27,1.46,6.16,1.01,-2.82
11.41431105136871,2,3,3,3,-10.5,0.18,1.93,6.1,1.14,-2.67
11.42431104183197,2,3,3,3,-10.79,0.18,1.79,6.1,1.14,-2.67
11.43431103229523,2,3,3,3,-11.1,0.28,1.54,5.73,1.42,-2.34
11.44431102275848,2,3,3,3,-11.36,0.64,1.59,5.47,1.48,-1.58
11.45431101322174,2,3,3,3,-11.7,1.24,2.01,4.88,1.15,-1.37
11.464311003685,2,3,3,3,-11.81,1.37,2.19,3.89,1.13,-1.24
11.47431099414825,2,3,3,3,-11.94,1.52,2.28,3.89,1.13,-1.24
11.48431098461151,2,3,3,3,-12.02,1.63,1.81,1.81,1.07,-1.07
11.49431097507477,2,3,3,3,-12.04,1.68,0.98,-1.95,1.19,-0.92
11.50431096553802,2,3,3,3,-11.98,1.51,0.7,-2.97,0.64,-1.07
11.51431095600128,2,3,3,3,-11.87,1.19,0.62,-3.3,-0.02,-1.41
11.52431094646454,2,3,3,3,-11.75,0.08,1.43,-3.3,-0.02,-1.41
11.5343109369278,2,3,3,3,-11.73,-0.86,1.81,-3.08,-0.72,-1.75
11.54431092739105,2,3,3,3,-11.58,-1.78,1.55,-3.53,-1.48,-1.54
11.55431091785431,2,3,3,3,-11.29,-2.46,1.22,-2.85,-1.08,-0.6
11.56431090831757,2,3,3,3,-10.65,-3.06,1.36,-2.3,-1.33,0.46
11.57431089878082,2,3,3,3,-10.13,-3.27,1.3,-2.3,-1.33,0.46
11.58431088924408,2,3,3,3,-9.59,-3.4,1.06,-2.36,-1.36,1.28
11.59431087970734,2,3,3,3,-9.18,-3.33,0.72,-2.91,0.67,2.41
11.60431087017059,2,3,3,3,-8.859999999999999,-3.31,0.46,-2.43,1.31,2.66
11.61431109905243,2,3,3,3,-8.9,-3.37,0.89,-1.6,0.99,2.88
11.62431108951569,2,3,3,3,-8.82,-3.46,1.33,-1.6,0.99,2.88
11.63431107997894,2,3,3,2,-8.65,-3.63,1.7,-1.34,0.31,3.46
11.6443110704422,2,3,3,2,-8.449999999999999,-3.79,1.97,-1.76,0.78,4.93
11.65531098842621,2,3,3,2,-8.56,-4.03,1.94,-2.06,1.21,5.6
11.66531097888947,2,3,3,2,-8.65,-4.2,1.87,-2.27,1.33,6.12
11.67531096935272,2,3,3,2,-8.640000000000001,-4.36,1.78,-2.27,1.33,6.12
11.68531095981598,2,3,3,2,-8.99,-4.32,1.57,-1.82,1.37,6.53
11.69531095027924,2,3,3,2,-9.279999999999999,-4.26,1.69,0.9399999999999999,0.74,6.73
11.70531094074249,2,3,3,2,-9.57,-3.97,1.9,2.76,-0.25,6.52
11.71531093120575,2,3,3,2,-10.17,-3.34,2.43,4.14,-1.26,6.33
11.72531092166901,2,3,3,1,-10.33,-2.93,2.52,4.14,-1.26,6.33
11.73531091213226,2,3,3,1,-10.28,-2.37,2.45,4.97,-2.33,6.22
11.74531090259552,2,3,3,1,-10.08,-1.71,2.29,5.11,-3.49,5.98
11.75531089305878,2,3,3,1,-9.85,-0.3,2.49,4.27,-3.62,5.96
11.76531088352203,2,3,3,1,-9.800000000000001,0.17,2.74,2.55,-3.75,6.02
11.77531087398529,2,3,3,1,-9.83,0.46,2.91,2.55,-3.75,6.02
11.78531110286713,2,3,3,1,-9.91,0.6899999999999999,3.02,0.55,-4.24,5.83
11.79531109333038,2,3,3,1,-9.67,0.58,3.04,-3.52,-6.05,5.17
11.80531108379364,2,3,3,1,-9.630000000000001,0.22,2.93,-5.36,-7.25,4.79
11.8153110742569,2,3,3,1,-9.44,-0.14,2.86,-6.91,-8.710000000000001,4.32
11.82531106472015,2,3,3,0,-9.25,-0.47,2.64,-6.91,-8.710000000000001,4.32
11.83531105518341,2,3,3,0,-8.67,-1.1,2.23,-7.92,-10.08,3.95
11.84531104564667,2,3,3,0,-8.199999999999999,-1.39,2.01,-8.48,-10.66,3.19
11.85531103610992,2,3,3,0,-7.88,-1.57,1.93,-7.6,-9.949999999999999,3.25
11.86531102657318,2,3,3,0,-7.76,-1.76,2.2,-6.39,-10.17,3.42
11.87531101703644,2,3,3,0,-7.78,-1.89,2.89,-6.39,-10.17,3.42
11.88531100749969,2,3,3,0,-7.31,-1.81,2.59,-6.31,-11.04,3.28
11.89531099796295,2,3,3,0,-6.91,-1.74,2.24,-7.41,-10.31,3.07
11.90531098842621,2,3,3,0,-7,-1.28,2.33,-6.97,-5.99,2.92
11.91531097888947,2,3,3,0,-7.2,-1.08,2.53,-6.97,-5.99,2.92
11.92531096935272,2,3,3,0,-7.5,-1.04,2.63,-6.16,-4.85,2.64
11.93531095981598,2,3,3,0,-7.91,-1.01,2.81,-5.33,-4.01,2.38
11.94531095027924,2,3,3,0,-8.34,-0.83,2.88,-4.54,-3.49,2.1
11.95531094074249,2,3,3,0,-8.68,-0.72,3,-4.05,-3.13,2.12
11.96531093120575,2,3,3,0,-8.75,-0.41,3.07,-3.66,-2.95,2.3
11.97531092166901,2,3,3,0,-8.75,-0.2,3.17,-3.63,-2.75,2.17
11.98531091213226,2,3,3,0,-9.130000000000001,0.26,3.55,-3.64,-2.33,2.09
11.99531090259552,2,3,3,0,-9.140000000000001,0.46,3.22,-3.78,-2.18,2.08
12.00531089305878,2,3,3,0,-8.960000000000001,0.65,2.84,-4.56,-2.36,1.82
12.01531088352203,2,3,3,0,-8.710000000000001,0.71,2.85,-5.19,-1.98,1.56
12.02531087398529,2,3,3,0,-8.16,1.09,2.91,-5.36,-1.7,1.31
12.03531110286713,2,3,3,0,-8,1.05,3.06,-5.77,-1.18,1.19
12.04531109333038,2,3,3,0,-7.98,0.92,3.31,-5.8,-0.37,1.28
12.05531108379364,2,3,3,0,-7.89,0.8100000000000001,3.31,-5.68,-0.09,1.47
12.0653110742569,2,3,3,0,-7.54,0.8100000000000001,3.38,-5.58,0.07000000000000001,1.66
12.07531106472015,2,3,3,0,-7.51,0.85,3.48,-5.4,0.62,1.87
12.08531105518341,2,3,3,0,-7.59,0.91,3.71,-5.22,1.27,2.09
12.09531104564667,2,3,3,0,-7.9,0.9,4.07,-5.32,1.51,2.36
12.10531103610992,2,3,3,0,-8.06,0.77,3.99,-5.77,1.4,2.61
12.14531099796295,2,3,3,0,-9.210000000000001,-1.08,3.31,-7.89,2.82,2.56
12.15531098842621,2,3,3,0,-9.6,-1.39,3.17,-7.49,2.82,1.89
12.16531097888947,2,3,3,0,-10.1,-1.51,3.12,-6.77,2.54,1.12
12.17531096935272,2,3,3,0,-10.87,-1.03,3.33,-5.49,1.87,0.44
12.18531095981598,2,3,3,0,-10.91,-0.34,3.72,-3.68,1,-0.04
12.19531095027924,2,3,3,0,-10.59,0.32,4.2,-1.94,0.16,-0.31
12.20531094074249,2,3,3,0,-10.16,0.88,4.69,-0.67,-0.08,-0.12
12.21531093120575,2,3,3,0,-9.59,1.86,5.58,0.05,0.1,0.53
12.22531092166901,2,3,3,0,-9.800000000000001,2.15,6.1,-0.52,0.31,1.32
12.23531091213226,2,3,3,0,-10.54,2.18,6.32,-2.37,-0.04,2.37
12.24531090259552,2,3,3,0,-11.14,2.17,5.84,-5.4,-1.61,3.31
12.25531089305878,2,3,3,0,-12.48,1.59,4.93,-8.42,-2.6,3.48
12.26531088352203,2,3,3,0,-13.79,1.15,5.26,-9.609999999999999,-2.04,3.08
12.27531087398529,2,3,3,0,-14.86,0.43,4.82,-9.75,-2.03,2.51
12.28531110286713,2,3,3,0,-15.17,-1.59,2.54,-9.880000000000001,-2.16,1.3
12.29531109333038,2,3,3,0,-15.24,-1.69,2.87,-7.82,-1.09,-0.71
12.30531108379364,2,3,3,0,-14.23,-0.83,3.97,-2.02,-2.13,-1.96
12.3153110742569,2,3,3,0,-11.68,-0.73,4.71,1.69,-6.45,-2.16
12.32531106472015,2,3,3,0,-7.44,-2.2,5.18,2.35,-9.44,-1.75
12.33531105518341,2,3,3,0,-6.84,-2.78,4.61,2.11,-8.130000000000001,-0.78
12.34531104564667,2,3,3,0,-7.21,-2.92,4.57,1.8,-3.14,0.37
12.35531103610992,2,3,3,0,-8.23,-2.45,4.03,2.32,0.67,0.92
12.36531102657318,2,3,3,0,-9.890000000000001,-1.03,2.29,1.78,2.12,0.59
12.37531101703644,2,3,3,0,-10.44,-0.8100000000000001,2.01,0.44,3.57,-0.6
12.38531100749969,2,3,3,0,-10.71,-0.76,1.75,0.01,4.39,-2.12
12.39531099796295,2,3,3,0,-10.43,-0.85,1.4,-0.3,4.16,-3.6
12.40531098842621,2,3,3,0,-8.710000000000001,-1.42,0.64,-1.91,3.21,-4.64
12.41531097888947,2,3,3,0,-8,-1.78,0.84,-4.18,2.15,-5.11
12.42531096935272,2,3,3,0,-7.44,-2.22,0.97,-5.5,1.48,-5.05
12.43531095981598,2,3,3,0,-7.13,-2.77,1.03,-6.13,0.65,-3.96
12.44531095027924,2,3,3,0,-7.18,-2.9,1.37,-6,-0.06,-2.7
12.45531094074249,2,3,3,0,-7.28,-3.07,1.59,-5.31,-0.55,-1.41
12.46531093120575,2,3,3,0,-7.4,-3,1.63,-4.41,-1.21,-0.11
12.47531092166901,2,3,3,0,-7.13,-2.67,1.91,-3.67,-1.42,1
12.48531091213226,2,3,3,0,-7.12,-2.67,1.99,-3.26,-1.01,2.05
12.49531090259552,2,3,3,0,-7.29,-2.73,1.89,-2.77,-0.08,2.99
12.50531089305878,2,3,3,0,-7.6,-2.85,1.65,-1.92,1.18,3.43
12.51531088352203,2,3,3,0,-8.15,-2.98,1.33,-0.45,2.56,3.27
12.52531087398529,2,3,3,0,-8.42,-2.93,1.2,1.6,3.73,2.68
12.53531110286713,2,3,3,0,-8.630000000000001,-2.86,1.08,3.9,4.24,1.73
12.54531109333038,2,3,3,0,-8.75,-2.63,1.03,6.13,4.36,0.54
12.55531108379364,2,3,3,0,-8.890000000000001,-2.23,1.16,8.06,4.45,-0.57
12.5653110742569,2,3,3,0,-8.789999999999999,-1.93,1.17,9.24,4.55,-1.34
12.57531106472015,2,3,3,0,-8.73,-1.61,1.36,9.779999999999999,4.63,-1.77
12.58531105518341,2,3,3,0,-8.58,-1.18,1.58,9.93,4.43,-1.97
12.59531104564667,2,3,3,0,-8.220000000000001,-0.29,1.68,9.210000000000001,4.14,-1.98
12.60531103610992,2,3,3,0,-8.27,-0.27,1.77,7.76,4.1,-1.87
12.61531102657318,2,3,3,0,-8.539999999999999,-0.29,2.08,6.93,4.14,-1.72
12.62531101703644,2,3,3,0,-8.960000000000001,-0.62,2.17,6.08,3.96,-1.84
12.63531100749969,2,3,3,0,-9.81,-0.64,1.41,5.25,3.7,-2.1
12.64531099796295,2,3,3,0,-10.08,-0.64,1.51,4.89,3.53,-2.52
12.65531098842621,2,3,3,0,-10.22,-0.41,1.48,5.28,3.37,-2.99
12.66531097888947,2,3,3,0,-9.949999999999999,-0.09,1.41,5.16,2.96,-3.31
12.67631089687347,2,3,3,0,-9.869999999999999,0.05,1.48,5.09,2.66,-3.57
12.68631088733673,2,3,3,0,-9.779999999999999,0.25,1.58,5.08,2.32,-3.79
12.69631087779999,2,3,3,0,-9.68,0.41,1.8,5.23,2.09,-3.84
12.70631086826324,2,3,3,0,-9.550000000000001,0.71,2.08,5.25,1.98,-3.82
12.71631109714508,2,3,3,0,-9.51,0.76,2.24,4.73,1.51,-3.79
12.72631108760834,2,3,3,0,-9.42,0.7,2.44,3.55,0.79,-3.71
12.73631107807159,2,3,3,0,-9.4,0.51,2.64,2.43,0.49,-3.51
12.74631106853485,2,3,3,0,-9.279999999999999,-0.01,2.23,1,0.37,-3.27
12.75631105899811,2,3,3,0,-9.19,-0.27,2.18,0.01,0.35,-3.05
12.76631104946136,2,3,3,0,-9.220000000000001,-0.55,2.11,-0.4,0.32,-2.93
12.77631103992462,2,3,3,0,-9.23,-0.73,2.08,-0.47,0.14,-3.08
12.78631103038788,2,3,3,0,-9.1,-0.8100000000000001,2.06,0,-0.01,-3.53
12.79631102085114,2,3,3,0,-9.07,-0.7,2.11,0.8,-0.1,-4.16
12.80631101131439,2,3,3,0,-9.02,-0.51,2.03,1.72,-0.01,-4.89
12.81631100177765,2,3,3,0,-9,-0.28,2.21,2.69,-0.13,-5.57
12.82631099224091,2,3,3,0,-8.890000000000001,-0.02,2.3,3.44,-0.45,-6.01
12.83631098270416,2,3,3,0,-8.880000000000001,-0.08,2.48,3.71,-0.78,-6.13
12.84631097316742,2,3,3,0,-8.93,-0.27,2.41,3.73,-1.15,-5.97
12.85631096363068,2,3,3,0,-9.15,-0.82,2.03,3.63,-1.32,-5.61
12.86631095409393,2,3,3,0,-9.210000000000001,-1.08,1.89,3.69,-1.34,-5.2
12.87631094455719,2,3,3,0,-9.279999999999999,-1.22,1.78,4.09,-1.22,-4.89
12.88631093502045,2,3,3,0,-9.369999999999999,-1.25,1.86,4.73,-0.87,-4.75
12.8963109254837,2,3,3,0,-9.59,-0.84,1.93,5.26,-0.33,-4.63
12.92631089687347,2,3,3,0,-9.789999999999999,0.76,1.97,7.06,0.75,-3.91
12.93631088733673,2,3,3,0,-9.720000000000001,1,3.45,8.09,0.19,-3.58
12.94631087779999,2,3,3,0,-9.619999999999999,0.8,4.13,9.02,-0.58,-3.32
12.95631086826324,2,3,3,0,-9.59,0.62,4.53,9.58,-0.82,-3.03
12.96631109714508,2,3,3,0,-9.77,0.59,5.02,9.68,-0.07000000000000001,-2.42
12.97631108760834,2,3,3,0,-10.7,0.5600000000000001,4.61,9.130000000000001,1.37,-1.09
12.98631107807159,2,3,3,0,-11.09,0.71,3.79,7.32,3.46,0.43
12.99631106853485,2,3,3,0,-11.34,0.97,3.04,5,5.8,1.43
13.00631105899811,2,3,3,0,-11.57,1.38,2.67,3.21,7.77,1.84
13.01631104946136,2,3,3,0,-12.91,1.82,1.92,1.26,8.970000000000001,1.87
13.02631103992462,2,3,3,0,-13.57,1.36,0.9399999999999999,-1.72,10.14,1.84
13.03631103038788,2,3,3,0,-14.25,0.38,0.07000000000000001,-4.75,11.75,1.87
13.04631102085114,2,3,3,0,-14.88,-1.9,0.03,-6.57,11.64,1.61
13.05631101131439,2,3,3,0,-14.46,-3.18,0.08,-6.64,8.98,1.24
13.06631100177765,2,3,3,0,-13.45,-4.54,0.03,-6.38,5.79,0.65
13.07631099224091,2,3,3,0,-12.33,-5.84,0.12,-5.47,3.36,0.41
13.08631098270416,2,3,3,0,-10.16,-7.55,0.55,-3.6,1.7,0.95
13.09631097316742,2,3,3,0,-9.33,-7.65,0.79,-1.15,1.27,2.24
13.10631096363068,2,3,3,0,-8.710000000000001,-7.27,0.92,1.83,2.12,3.83
13.11631095409393,2,3,3,0,-8.34,-6.86,1.23,5.05,2.82,5.19
13.12631094455719,2,3,3,0,-7.68,-5.2,1.96,8.4,3.24,5.95
13.13631093502045,2,3,3,0,-7.51,-4.28,2.12,10.55,3.04,6.68
13.1463109254837,2,3,3,0,-7.37,-3.18,1.9,11.54,3.08,7.03
13.15631091594696,2,3,3,0,-7.52,-2.23,1.63,11.41,3.84,7.31
13.16631090641022,2,3,3,0,-8.66,-0.23,2.44,11.04,4.45,7.57
13.17631089687347,2,3,3,0,-9.359999999999999,0.4,3.05,9.859999999999999,3.75,7.57
13.18631088733673,2,3,3,0,-10.08,0.71,3.42,7.56,1.75,7.12
13.19631087779999,2,3,3,0,-10.59,0.74,3.45,4.89,-0.9,6.03
13.20631086826324,2,3,3,0,-10.93,0.27,2.71,2.23,-3.13,4.38
13.21631109714508,2,3,3,0,-10.79,-0.13,2.38,0.36,-4.37,2.92
13.22631108760834,2,3,3,0,-10.61,-0.45,2.09,-0.52,-4.91,2.18
13.23631107807159,2,3,3,0,-10.58,-0.82,1.97,-1.15,-5.66,2.03
13.24631106853485,2,3,3,0,-10.32,-0.83,1.87,-1.62,-7.64,2.31
13.25631105899811,2,3,3,0,-9.710000000000001,-0.73,1.51,-2.7,-10.08,2.42
13.26631104946136,2,3,3,0,-9.07,-0.65,1.45,-4.61,-11.91,2.14
13.27631103992462,2,3,3,0,-7.97,-0.5,2.15,-5.65,-12.11,2
13.28631103038788,2,3,3,0,-7.54,-0.48,2.56,-6.11,-11.23,2.08
13.29631102085114,2,3,3,0,-7.24,-0.42,2.62,-6.55,-10.57,2.21
13.30631101131439,2,3,3,0,-7.06,-0.76,2.46,-7.48,-9.75,2.36
13.31631100177765,2,3,3,0,-7.46,-1.29,2.74,-7.92,-8.41,2.66
13.32631099224091,2,3,3,0,-7.57,-1.47,2.77,-7.75,-7.26,3.07
13.33631098270416,2,3,3,0,-7.78,-1.56,2.78,-7.68,-6.43,3.47
13.34631097316742,2,3,3,0,-7.98,-1.55,2.75,-7.81,-6.08,3.75
13.35631096363068,2,3,3,0,-8.08,-1.37,2.47,-7.82,-6.07,3.88
13.36631095409393,2,3,3,0,-7.97,-1.3,2.44,-7.65,-5.89,3.85
13.37631094455719,2,3,3,0,-8.17,-1.16,2.63,-6.81,-5.36,3.69
13.38631093502045,2,3,3,0,-8.449999999999999,-1.04,3,-5.82,-4.98,3.59
13.3963109254837,2,3,3,0,-8.66,-0.5600000000000001,3.29,-5.41,-5.26,3.32
13.40631091594696,2,3,3,0,-8.85,-0.4,3.27,-5.48,-5.36,3.04
13.41631090641022,2,3,3,0,-8.949999999999999,-0.12,3.29,-5.72,-5.02,2.88
13.42631089687347,2,3,3,0,-9.039999999999999,0.29,3.09,-5.86,-4.61,2.66
13.43631088733673,2,3,3,0,-9,0.5600000000000001,2.95,-5.86,-3.96,2.29
13.44631087779999,2,3,3,0,-8.84,0.71,2.93,-5.64,-2.85,1.61
13.45631086826324,2,3,3,0,-8.869999999999999,0.77,3.23,-5.42,-2,0.84
13.46631109714508,2,3,3,0,-8.74,0.62,2.95,-5.42,-2.24,0.09
13.47631108760834,2,3,3,0,-8.039999999999999,0.77,2.35,-6.26,-3.17,-0.84
13.48631107807159,2,3,3,0,-7.77,0.88,2.6,-7.3,-2.24,-1.69
13.49631106853485,2,3,3,0,-8.029999999999999,0.98,3.17,-6.7,0.04,-1.7
13.50631105899811,2,3,3,0,-7.41,1.2,3.35,-6.06,0.31,-1.6
13.51631104946136,2,3,3,0,-7.04,1.18,3.39,-6.47,0.36,-1.25
13.52631103992462,2,3,3,0,-6.97,1.15,3.65,-6.3,1.4,-0.58
13.53631103038788,2,3,3,0,-6.95,1.13,3.76,-6.05,2.45,0.05
13.54631102085114,2,3,3,0,-7.14,1.02,3.84,-6.24,3.51,0.58
13.55631101131439,2,3,3,0,-7.56,0.86,4.02,-6.25,4.57,1.22
13.56631100177765,2,3,3,0,-8.029999999999999,0.64,4.2,-6.35,4.6,1.83
13.57631099224091,2,3,3,0,-8.42,0.36,4.09,-7.28,3.65,2.28
13.58631098270416,2,3,3,0,-8.77,-0.31,3.3,-8.630000000000001,2.81,2.5
13.59631097316742,2,3,3,0,-9.039999999999999,-0.91,3.4,-9.449999999999999,2.87,2.57
13.60631096363068,2,3,3,0,-9.539999999999999,-1.55,3.6,-9.380000000000001,2.96,2.51
13.61631095409393,2,3,3,0,-10.41,-2.96,2.54,-9.67,2.31,1.94
13.62631094455719,2,3,3,0,-11.34,-3.02,1.88,-10.38,1.87,0.42
13.63631093502045,2,3,3,0,-12.45,-2.51,1.98,-8.779999999999999,2.04,-1.21
13.6463109254837,2,3,3,0,-13.04,-1.61,3.43,-4.67,0.6899999999999999,-2.12
13.65631091594696,2,3,3,0,-11.03,1.08,4.88,1.56,-2.65,-2.08
13.66631090641022,2,3,3,0,-8.75,2.34,4.8,7.05,-5.92,-0.66
13.67631089687347,2,3,3,0,-7.43,3.22,6.17,9.4,-6.25,1.98
13.68631088733673,2,3,3,0,-7.29,3.47,7.64,7.08,-4.98,5
13.69631087779999,2,3,3,0,-8.470000000000001,2.5,5.87,0.03,-4.32,7.64
13.70731103420258,2,3,3,0,-10.35,2.26,5.95,-6.56,-2.41,9.1
13.71731102466583,2,3,3,0,-13.29,1.88,6.53,-8.970000000000001,0.36,9.41
13.72731101512909,2,3,3,0,-15.93,1.12,5.92,-9.960000000000001,0.66,8.140000000000001
13.73731100559235,2,3,3,0,-20.2,-1.98,2.06,-11.75,0.1,5.29
13.7473109960556,2,3,3,0,-20.79,-2.78,1.11,-9.23,-0.17,0.95
13.75731098651886,2,3,3,0,-18.15,-2.63,0.58,-2.95,-3.05,-3.74
13.76731097698212,2,3,3,0,-13.44,-3.14,1.35,1.03,-9.42,-6.4
13.77731096744537,2,3,3,0,-5.78,-3.38,4.93,3.29,-14.15,-6.36
13.78731095790863,2,3,3,0,-3.7,-2.93,5.66,5.08,-13.5,-4.38
13.79731094837189,2,3,3,0,-2.99,-2.57,4.83,4.62,-9.84,-2.01
13.80731093883514,2,3,3,0,-3.39,-2.13,3.92,2.4,-4.98,0.1
13.8173109292984,2,3,3,0,-6.55,-0.73,3.03,0.2,-0.84,1.75
13.82731091976166,2,3,3,0,-8.130000000000001,-0.01,2.31,-2,2.24,2.44
13.83731091022491,2,3,3,0,-9.210000000000001,0.26,1.58,-3.89,4.46,2.31
13.84731090068817,2,3,3,0,-10.45,-0.82,0.3,-5.56,5.74,1.53
13.85731089115143,2,3,3,0,-10.68,-1.81,0,-6.6,5.54,0.36
13.86731088161469,2,3,3,0,-10.51,-2.78,-0.04,-7.16,3.87,-0.93
13.87731087207794,2,3,3,0,-10.09,-3.55,0.28,-7.28,1.27,-1.84
13.88731110095978,2,3,3,0,-8.81,-4.12,1.18,-6.7,-1.25,-1.86
13.89731109142303,2,3,3,0,-8.16,-4.16,1.43,-5.65,-2.29,-1.24
13.90731108188629,2,3,3,0,-7.64,-3.98,1.71,-3.9,-1.99,-0.42
13.91731107234955,2,3,3,0,-7.23,-3.71,1.99,-2.18,-0.92,0.42
13.92731106281281,2,3,3,0,-6.86,-3.12,2.08,-0.83,0.63,1.16
13.93731105327606,2,3,3,0,-6.89,-2.87,2.11,0.12,2.53,1.89
13.94731104373932,2,3,3,0,-7.19,-2.68,2.05,1.06,4.28,2.39
13.95731103420258,2,3,3,0,-7.63,-2.62,1.89,2.22,5.46,2.54
13.96731102466583,2,3,3,0,-8.140000000000001,-2.44,1.56,3.68,5.87,2.36
13.97731101512909,2,3,3,0,-8.35,-2.38,1.43,5.28,5.97,1.76
13.98731100559235,2,3,3,0,-8.58,-2.41,1.44,6.98,6.09,0.73
13.9973109960556,2,3,3,0,-8.93,-2.26,1.52,8.33,6.06,-0.53
14.00731098651886,2,3,3,0,-9.52,-1.58,1.38,9.09,5.85,-1.47
14.01731097698212,2,3,3,0,-9.51,-1.22,1.47,9.18,5.69,-2.21
14.02731096744537,2,3,3,0,-9.289999999999999,-0.8,1.67,8.970000000000001,5.39,-2.86
14.03731095790863,2,3,3,1,-8.880000000000001,-0.12,2.12,8.68,4.72,-3.37
14.04731094837189,2,3,3,1,-8.69,0.22,2.23,8.210000000000001,4.05,-3.39
14.05731093883514,2,3,3,1,-8.449999999999999,0.47,2.34,7.49,3.62,-3.16
14.0673109292984,2,3,3,1,-8.32,0.5,2.63,6.51,3.33,-2.84
14.07731091976166,2,3,3,1,-8.65,0.38,2.43,5.15,3.33,-2.53
14.08731091022491,2,3,3,1,-8.949999999999999,0.26,2.42,3.63,3.56,-2.2
14.09731090068817,2,3,3,1,-9.199999999999999,0.21,2.14,2.31,3.44,-1.93
14.10731089115143,2,3,3,1,-9.31,0.17,1.68,0.9399999999999999,3.05,-1.9
14.11731088161469,2,3,3,1,-9.210000000000001,0.02,1.52,0.3,2.75,-2.12
14.12731087207794,2,3,3,1,-9.09,-0.04,1.64,0.51,2.55,-2.47
14.13731110095978,2,3,3,1,-9,-0.16,1.83,0.9399999999999999,2.42,-3.02
14.14731109142303,2,3,3,1,-8.970000000000001,-0.28,1.98,1.39,2.18,-3.72
14.15731108188629,2,3,3,1,-9.1,-0.43,2.04,1.53,2.02,-4.28
14.16731107234955,2,3,3,1,-9.300000000000001,-0.52,2.27,1.42,1.67,-4.82
14.17731106281281,2,3,3,1,-9.44,-0.65,2.42,1.08,1.09,-5.24
14.18731105327606,2,3,3,2,-9.390000000000001,-1.09,2.14,0.63,0.68,-5.64
14.19731104373932,2,3,3,2,-9.27,-1.28,1.95,0.17,0.87,-5.97
14.20731103420258,2,3,3,2,-9.23,-1.42,1.52,0.12,1.36,-6.13
14.21731102466583,2,3,3,2,-9.23,-1.43,1.47,0.86,1.57,-6.08
14.22731101512909,2,3,3,2,-9.289999999999999,-1.29,1.54,2.28,1.05,-5.99
14.23731100559235,2,3,3,2,-9.300000000000001,-1.13,1.73,3.99,-0.03,-5.73
14.2473109960556,2,3,3,2,-9.32,-0.9,1.93,5.96,-0.93,-5.26
14.25731098651886,2,3,3,2,-9.41,-0.52,1.76,7.78,-1.55,-4.64
14.26731097698212,2,3,3,2,-9.6,0.25,2.02,9.199999999999999,-1.88,-4.05
14.27731096744537,2,3,3,2,-9.57,0.49,2.14,10.17,-2.15,-3.58
14.28731095790863,2,3,3,2,-9.44,0.66,2.29,10.75,-2.31,-3.4
14.29731094837189,2,3,3,2,-9.359999999999999,0.78,2.38,10.87,-2.1,-3.45
14.30731093883514,2,3,3,2,-9.609999999999999,0.89,2.57,10.35,-1.4,-3.48
14.3173109292984,2,3,3,2,-9.869999999999999,1.12,2.6,9.44,-0.5,-3.28
14.32731091976166,2,3,3,2,-10.1,1.41,2.3,8.17,0.48,-3
14.33731091022491,2,3,3,2,-10.41,1.69,2.16,7.37,1.47,-2.65
14.34731090068817,2,3,3,2,-10.83,2.04,2.78,7.63,1.97,-2.47
14.35731089115143,2,3,3,2,-10.86,1.85,3.71,8.220000000000001,1.95,-2.51
14.36731088161469,2,3,3,2,-11.15,1.48,4.9,9.01,1.95,-2.63
14.37731087207794,2,3,3,2,-12.1,0.87,5.06,8.75,1.44,-2.48
14.38731110095978,2,3,3,2,-12.18,0.88,4.42,6.5,1.15,-1.86
14.39731109142303,2,3,3,2,-12.14,1.24,4.13,3.83,2.26,-0.88
14.40731108188629,2,3,3,2,-12.04,1.71,4.05,1.87,4.15,0.13
14.41731107234955,2,3,3,2,-11.88,1.75,3.22,-0.64,5.57,1
14.42731106281281,2,3,3,2,-12.27,1.39,2.93,-3.08,7.58,1.52
14.43731105327606,2,3,3,2,-12.93,0.66,2.47,-4.4,9.69,1.9
14.44731104373932,2,3,3,2,-13.46,-0.24,1.71,-5.33,10.53,1.94
14.45731103420258,2,3,3,2,-13.43,-2.01,0.91,-6.27,9.789999999999999,1.85
14.46731102466583,2,3,3,2,-12.91,-2.88,0.86,-6.69,8.49,1.75
14.47731101512909,2,3,3,2,-12.08,-3.96,0.71,-7.31,7.42,1.89
14.48731100559235,2,3,3,2,-11.17,-5.07,0.43,-7.65,6.59,2.64
14.4973109960556,2,3,3,2,-9.76,-6.61,0.05,-7.22,6.92,3.66
14.50731098651886,2,3,3,2,-9.26,-7.24,0.05,-6.52,6.3,4.39
14.51731097698212,2,3,3,2,-8.869999999999999,-7.72,0.08,-4.26,5.15,4.67
14.52731096744537,2,3,3,2,-8.359999999999999,-7.8,0.09,-0.83,4.82,4.55
14.53731095790863,2,3,3,2,-8.15,-7.22,0.54,4.07,4.28,4.78
14.54731094837189,2,3,3,2,-7.94,-6.22,1.22,9.890000000000001,3.79,5.12
14.55731093883514,2,3,3,2,-7.72,-5.05,1.51,14.34,2.78,5.79
14.5673109292984,2,3,3,2,-7.84,-2.54,2.28,16.11,2.12,6.64
14.57731091976166,2,3,3,2,-8.34,-1.45,2.7,16.71,2.02,7.04
14.58731091022491,2,3,3,2,-9.039999999999999,-0.61,3.26,16.5,1.43,6.78
14.60731089115143,2,3,3,2,-10.59,1.48,4.24,14.21,-2.14,4.52
14.61731088161469,2,3,3,2,-10.61,1.58,3.99,11.24,-4.82,3.19
14.62731087207794,2,3,3,2,-10.52,1.41,3.32,7.45,-7.21,1.98
14.63731110095978,2,3,3,2,-10.36,1.19,2.49,3.43,-8.58,1.23
14.64731109142303,2,3,3,2,-10.38,0.68,1.76,0.06,-9.220000000000001,0.6899999999999999
14.65731108188629,2,3,3,2,-10.31,0.78,1.67,-1.8,-10.08,0.21
14.66731107234955,2,3,3,2,-9.83,0.9399999999999999,1.72,-2.36,-11.25,0.21
14.67731106281281,2,3,3,2,-9.44,1.19,1.95,-2.48,-11.39,0.61
14.68731105327606,2,3,3,2,-8.31,1.05,2.44,-3.22,-11.74,0.82
14.69731104373932,2,3,3,2,-7.67,0.89,2.74,-4.4,-11.95,1.43
14.70731103420258,2,3,3,2,-7.26,0.7,2.85,-5.69,-11.54,2
14.71731102466583,2,3,3,2,-6.91,0.35,2.99,-7.29,-10.91,2.43
14.72831094264984,2,3,3,2,-6.86,-0.44,3.17,-8.539999999999999,-9.619999999999999,2.86
14.7383109331131,2,3,3,2,-7.03,-0.85,3.25,-9.16,-8.050000000000001,3.13
14.74831092357635,2,3,3,2,-7.16,-0.9,3.22,-9.19,-6.87,3.32
14.75831091403961,2,3,3,2,-7.39,-0.82,3.05,-8.640000000000001,-6.04,3.59
14.76831090450287,2,3,3,2,-7.48,-0.59,3.1,-7.86,-5.52,3.64
14.77831089496613,2,3,3,2,-7.52,-0.5,3.28,-6.92,-5.12,3.68
14.78831088542938,2,3,3,1,-7.56,-0.45,3.4,-6.06,-4.84,3.53
14.8483110666275,2,3,3,1,-7.83,1.33,3.67,-3.59,-0.12,0.43
14.85831105709076,2,3,3,1,-7.73,1.54,3.51,-4.62,0.76,-0.19
14.86831104755402,2,3,3,1,-7.64,1.71,3.5,-5.39,1.88,-0.82
14.87831103801727,2,3,3,1,-7.56,1.56,3.5,-5.71,3.1,-1.39
14.88831102848053,2,3,3,1,-7.5,1.52,3.54,-5.52,4.02,-2.01
14.89831101894379,2,3,3,1,-7.38,1.45,3.53,-5.1,4.64,-2.49
14.90831100940704,2,3,3,1,-7.26,1.34,3.51,-4.78,5.29,-2.64
14.9183109998703,2,3,3,1,-7.19,1.26,3.81,-4.44,5.89,-2.45
14.92831099033356,2,3,3,1,-7.34,1.2,4.06,-4.3,6.24,-2
14.93831098079681,2,3,3,1,-7.62,1.16,4.35,-4.27,6.05,-1.24
14.94831097126007,2,3,3,1,-7.98,1.07,4.45,-4.49,4.88,-0.22
14.95831096172333,2,3,3,1,-8.35,0.34,3.67,-5.53,3.03,1
14.96831095218658,2,3,3,1,-8.529999999999999,-0.43,3.42,-7.51,1.88,2.2
14.97831094264984,2,3,3,1,-8.85,-1.68,3.57,-10.5,2.05,2.85
14.9883109331131,2,3,3,1,-9.699999999999999,-4.4,0.93,-14.17,1.97,2.12
14.99831092357635,2,3,3,1,-10.65,-4.59,-1.16,-17.77,1.88,-0.16
15.00831091403961,2,3,3,1,-12.91,-3.82,0.07000000000000001,-16.57,4.41,-2.22
15.01831090450287,2,3,3,1,-15.32,-2.34,3.07,-5.01,3.58,-2.63
15.02831089496613,2,3,3,1,-13.14,1.68,5.01,9.73,-3.62,-1.36
15.03831088542938,2,3,3,1,-10.82,3.01,6.48,17.08,-9.640000000000001,1.17
15.04831087589264,2,3,3,1,-9.67,3.28,7.76,16.31,-11.06,4.53
15.05831110477448,2,3,3,1,-8.859999999999999,3.43,7.76,9.380000000000001,-10.18,7.58
15.06831109523773,2,3,3,1,-9.74,5.21,7.28,2.18,-6.15,9.970000000000001
15.07831108570099,2,3,3,1,-12.14,5.3,7.48,-1.67,-2.09,12.59
15.08831107616425,2,3,3,2,-13.97,4.19,6.91,-5.94,-2.54,13.19
15.0983110666275,2,3,3,2,-15.67,2.38,5.53,-12.36,-4,9.85
15.10831105709076,2,3,3,2,-20.09,-1.54,1.42,-16.23,-2.76,4.41
15.11831104755402,2,3,3,2,-19.79,-1.84,0.83,-12.43,-0.02,-1.28
15.12831103801727,2,3,3,2,-16.71,-2.56,1.32,-5.03,-0.97,-5.26
15.13831102848053,2,3,3,2,-9.26,-4.14,4.12,-0.98,-6.27,-6.95
15.14831101894379,2,3,3,2,-6.03,-4.49,4.3,-0.35,-11.68,-6.32
15.15831100940704,2,3,3,2,-3.98,-4.36,3.39,-1.26,-12.59,-4.62
15.1683109998703,2,3,3,2,-3.96,-4.11,2.71,-2.83,-8.57,-2.52
15.17831099033356,2,3,3,2,-6.22,-2.43,2.17,-3.34,-3.26,-0.51
15.18831098079681,2,3,3,2,-7.64,-1.55,1.99,-3.63,0.84,0.85
15.19831097126007,2,3,3,2,-8.699999999999999,-1.21,1.43,-3.73,4.18,1.12
15.20831096172333,2,3,3,2,-9.15,-1.38,0.64,-4.17,5.91,0.51
15.21831095218658,2,3,3,2,-9.26,-2.68,0.2,-4.8,5.79,-0.64
15.22831094264984,2,3,3,2,-9.08,-3.25,0.44,-5.07,4.06,-1.7
15.2383109331131,2,3,3,2,-8.66,-3.6,0.84,-5.1,1.43,-2
15.24831092357635,2,3,3,2,-8.15,-3.76,1.27,-5,-0.73,-1.51
15.25831091403961,2,3,3,2,-7.37,-3.82,1.53,-4.53,-0.88,-0.61
15.26831090450287,2,3,3,2,-7.32,-3.71,1.81,-3.59,0.35,0.27
15.27831089496613,2,3,3,2,-7.32,-3.53,1.93,-2.19,1.77,1.04
15.28831088542938,2,3,3,2,-7.45,-3.36,1.97,-0.75,2.94,1.53
15.29831087589264,2,3,3,2,-7.83,-3.12,1.85,0.54,4.05,1.62
15.30831110477448,2,3,3,2,-8.06,-3.08,1.6,2.01,5.18,1.39
15.31831109523773,2,3,3,2,-8.109999999999999,-2.84,1.35,3.69,6.08,0.99
15.32831108570099,2,3,3,2,-8.08,-2.6,1.17,5.74,6.69,0.28
15.33831107616425,2,3,3,2,-7.99,-2.37,1.1,7.98,6.67,-0.79
15.3483110666275,2,3,3,2,-8.039999999999999,-2.23,1.09,10.15,6.37,-1.84
15.35831105709076,2,3,3,2,-8.27,-2,1.17,11.64,5.74,-2.65
15.36831104755402,2,3,3,2,-8.9,-0.91,1.46,12.33,4.87,-3.13
15.37831103801727,2,3,3,2,-9.119999999999999,-0.5,1.63,12.14,4.05,-3.53
15.38831102848053,2,3,3,2,-9.15,0.05,1.82,11.35,3.91,-3.62
15.39831101894379,2,3,3,2,-9.1,0.5,2.21,10.31,3.88,-3.59
15.40831100940704,2,3,3,2,-8.84,0.92,2.27,8.880000000000001,3.51,-3.51
15.4183109998703,2,3,3,2,-8.91,0.98,2.39,7.35,3.42,-3.5
15.42831099033356,2,3,3,2,-8.93,1.02,2.27,6.04,3.38,-3.45
15.43831098079681,2,3,3,2,-8.949999999999999,1.06,2.22,4.74,3.24,-3.33
15.44831097126007,2,3,3,2,-8.99,0.89,2.16,3.5,2.96,-3.24
15.45831096172333,2,3,3,2,-8.99,0.66,2.1,2.36,2.49,-3.26
15.46831095218658,2,3,3,2,-8.949999999999999,0.3,1.97,1.16,2,-3.37
15.47831094264984,2,3,3,2,-8.94,-0.07000000000000001,1.92,0.22,1.79,-3.61
15.4883109331131,2,3,3,2,-9.17,-0.74,1.57,-0.47,1.81,-4.03
15.49831092357635,2,3,3,2,-9.449999999999999,-0.88,1.51,-0.73,1.89,-4.48
15.50831091403961,2,3,3,2,-9.69,-0.9399999999999999,1.45,-0.39,1.75,-5
15.51831090450287,2,3,3,2,-9.949999999999999,-1.05,1.39,0.1,1.43,-5.53
15.52831089496613,2,3,3,2,-10.24,-1.02,1.56,0.86,1.03,-6.09
15.53831088542938,2,3,3,2,-10.12,-0.93,1.75,2.02,0.6,-6.42
15.54831087589264,2,3,3,2,-9.75,-0.82,2.02,3.55,0.18,-6.58
15.55831110477448,2,3,3,2,-8.92,-0.53,1.95,5.06,-0.02,-6.51
15.56831109523773,2,3,3,2,-8.67,-0.31,2.09,5.68,-0.36,-6.24
15.57831108570099,2,3,3,2,-8.550000000000001,-0.08,2.24,6.14,-0.85,-5.76
15.58831107616425,2,3,3,2,-8.56,0.08,2.4,6.32,-1.46,-5.25
15.5983110666275,2,3,3,2,-8.869999999999999,0.45,2.39,6.21,-2.02,-4.74
15.60831105709076,2,3,3,2,-9.02,0.51,2.38,6.01,-2.1,-4.23
15.61831104755402,2,3,3,2,-9.140000000000001,0.58,2.23,5.85,-1.7,-4
15.62831103801727,2,3,3,2,-9.210000000000001,0.59,2.18,5.85,-1.26,-4.1
15.63831102848053,2,3,3,2,-9.34,0.41,2.5,6.04,-1.06,-4.34
15.64831101894379,2,3,3,2,-9.44,0.3,2.75,6.27,-0.99,-4.67
15.65831100940704,2,3,3,2,-9.529999999999999,0.34,2.77,6.24,-0.57,-5.04
15.6683109998703,2,3,3,2,-9.6,0.5,2.63,5.87,0.34,-5.16
15.67831099033356,2,3,3,2,-9.85,1.15,2.22,5.38,1.26,-4.9
15.68831098079681,2,3,3,2,-10.04,1.57,2.6,5.4,1.53,-4.32
15.69831097126007,2,3,3,2,-10.18,1.66,3.42,6.07,0.92,-3.77
15.70831096172333,2,3,3,2,-10.22,1.19,4.16,6.25,0.02,-3.41
15.71831095218658,2,3,3,2,-10.59,-0.09,5.43,6.1,-0.54,-3.08
15.72831094264984,2,3,3,2,-11.05,-0.52,5.63,5.68,-0.58,-2.65
15.7383109331131,2,3,3,2,-11.37,-0.6899999999999999,5.2,4.79,0.47,-1.6
15.74831092357635,2,3,3,2,-11.61,-0.68,4.08,3.23,3.15,-0.11
15.75931107997894,2,3,3,2,-11.78,-0.75,3.56,1.85,6.43,1.16
15.7693110704422,2,3,3,2,-12.4,-0.71,3.13,1.26,8.99,2
15.77931106090546,2,3,3,2,-13.35,-0.51,2.22,0.59,10.55,2.39
15.78931105136871,2,3,3,2,-14.93,-0.84,-0.59,-1.83,12.03,2.58
15.79931104183197,2,3,3,2,-14.93,-0.84,-0.59,-4.34,13.43,2.49
15.80931103229523,2,3,3,2,-15.19,-2.6,0.14,-5.15,12.97,1.91
15.81931102275848,2,3,3,2,-14.42,-3.78,0.34,-6.15,10.19,1.24
15.82931101322174,2,3,3,2,-11.79,-6.6,-0.12,-7.53,7.43,1.14
15.839311003685,2,3,3,2,-11.79,-6.6,-0.12,-7.17,5.61,1.57
15.84931099414825,2,3,3,2,-10.63,-7.45,-0.42,-5.5,4.69,2.36
15.85931098461151,2,3,3,2,-9.050000000000001,-8.35,-0.17,-2.17,4.21,3.75
15.86931097507477,2,3,3,2,-8.44,-7.51,1.2,2.74,3.57,5.43
15.87931096553802,2,3,3,2,-8.140000000000001,-6.35,1.98,8.529999999999999,2.94,6.67
15.88931095600128,2,3,3,2,-8.140000000000001,-6.35,1.98,12.86,2.36,8.1
15.89931094646454,2,3,3,2,-8.109999999999999,-4.96,2.45,14.6,1.48,9.17
15.9093109369278,2,3,3,2,-8.59,-0.82,3.13,15.8,0.01,9.289999999999999
15.91931092739105,2,3,3,2,-8.68,0.44,3.23,16.13,-1.75,8.35
15.92931091785431,2,3,3,2,-8.630000000000001,1.52,3.28,14.74,-3.07,6.79
15.93931090831757,2,3,3,2,-8.630000000000001,1.52,3.28,11.34,-3.97,5.27
15.94931089878082,2,3,3,2,-8.92,2.58,3.23,6.85,-4.98,4.04
15.95931088924408,2,3,3,2,-9.15,2.18,2.46,2.47,-5.75,3.3
15.96931087970734,2,3,3,2,-9.359999999999999,1.84,2.27,-1.02,-6.21,2.64
15.97931087017059,2,3,3,2,-9.640000000000001,1.08,1.95,-3.88,-7.15,2.05
15.98931109905243,2,3,3,2,-9.640000000000001,1.08,1.95,-6.26,-8.41,1.83
15.99931108951569,2,3,3,2,-9.470000000000001,0.96,1.73,-7.95,-9.779999999999999,2
16.00931107997894,2,3,3,2,-8.550000000000001,0.51,1.33,-9.24,-10.63,2.66
16.0193110704422,2,3,3,2,-7.2,-0.38,1.85,-10.04,-11.08,3.56
16.02931106090546,2,3,3,2,-6.81,-0.83,2.36,-10.68,-11.07,4.16
16.03931105136871,2,3,3,2,-6.81,-0.83,2.36,-11.17,-10.59,4.68
16.04931104183197,2,3,3,2,-6.8,-1.13,2.79,-11.78,-10.12,5.25
16.05931103229523,2,3,3,2,-7.49,-1.4,2.72,-12.82,-9.140000000000001,5.6
16.06931102275848,2,3,3,2,-8.06,-1.62,2.75,-13.4,-7.97,5.6
16.07931101322174,2,3,3,2,-8.59,-1.82,2.83,-13.17,-7.28,5.55
16.089311003685,2,3,3,2,-8.59,-1.82,2.83,-13.17,-7.28,5.55
16.09931099414825,2,3,3,2,-8.69,-1.91,2.8,-10.55,-6,5.04
16.10931098461151,2,3,3,2,-8.42,-1.7,2.61,-8.52,-5.85,4.55
16.11931097507477,2,3,3,2,-8.449999999999999,-1.51,2.8,-6.58,-5.66,3.93
16.12931096553802,2,3,3,2,-8.289999999999999,-1.02,3.23,-4.91,-5.71,3.31
16.13931095600128,2,3,3,2,-8.289999999999999,-1.02,3.23,-3.54,-5.55,2.8
16.14931094646454,2,3,3,2,-8.1,-0.82,3.28,-3.54,-5.55,2.8
16.1593109369278,2,3,3,2,-8.140000000000001,-0.09,3.24,-2.28,-3.49,2.15
16.16931092739105,2,3,3,2,-8.130000000000001,0.51,3.6,-1.82,-2.6,2.14
16.17931091785431,2,3,3,2,-8.1,0.88,3.65,-1.75,-2.14,2.1
16.18931090831757,2,3,3,2,-8.1,0.88,3.65,-1.75,-2.14,2.1
16.19931089878082,2,3,3,2,-7.96,1.15,3.68,-2.19,-1.66,2
16.20931088924408,2,3,3,2,-7.81,1.48,3.52,-3.67,0.29,1.28
16.21931087970734,2,3,3,2,-7.83,1.4,3.46,-4.58,1.13,0.39
16.22931087017059,2,3,3,2,-7.73,1.38,3.38,-5.35,1.77,-0.63
16.23931109905243,2,3,3,3,-7.73,1.38,3.38,-5.35,1.77,-0.63
16.24931108951569,2,3,3,3,-7.56,1.28,3.29,-5.97,2.48,-1.76
16.25931107997894,2,3,3,3,-7.2,1.24,3.54,-5.96,4.5,-3.8
16.2693110704422,2,3,3,3,-7.17,1.24,3.66,-5.57,5.33,-4.3
16.27931106090546,2,3,3,3,-7.16,1.24,3.77,-5.33,5.88,-4.36
16.28931105136871,2,3,3,3,-7.16,1.24,3.77,-5.33,5.88,-4.36
16.29931104183197,2,3,3,3,-7.29,1.09,4.11,-4.96,6.28,-3.89
16.30931103229523,2,3,3,3,-7.82,0.6899999999999999,4.34,-3.42,6.02,-1.74
16.31931102275848,2,3,3,3,-8.01,0.15,3.87,-3.09,4.59,-0.45
16.32931101322174,2,3,3,3,-8.210000000000001,-0.23,3.63,-3.99,3.42,0.61
16.339311003685,2,3,3,3,-8.210000000000001,-0.23,3.63,-3.99,3.42,0.61
16.34931099414825,2,3,3,3,-8.69,-0.78,3.58,-5.17,3.45,1.5
16.35931098461151,2,3,3,3,-10.44,-2.52,2.19,-8.609999999999999,3.37,1.29
16.36931097507477,2,3,3,3,-11.14,-2.34,1.25,-9.550000000000001,3.26,-0.14
16.37931096553802,2,3,3,3,-11.89,-1.58,1.66,-7.73,3.84,-1.85
16.38931095600128,2,3,3,3,-11.89,-1.58,1.66,-7.73,3.84,-1.85
16.39931094646454,2,3,3,3,-12.94,-0.78,3.67,-2.08,3.81,-2.54
16.4093109369278,2,3,3,3,-14.2,0.39,5.71,6.44,-7.25,1.71
16.41931092739105,2,3,3,3,-14.2,0.39,5.71,4.6,-12.49,5.19
16.42931091785431,2,3,3,3,-13.13,0.74,4.49,2.81,-10.56,7.81
16.43931090831757,2,3,3,3,-12.82,1.21,5.28,2.81,-10.56,7.81
16.44931089878082,2,3,3,3,-14.77,0.7,6.27,2.27,-6.74,10.02
16.45931088924408,2,3,3,3,-15.25,-0.4,4.73,-3.84,-5.1,7.04
16.46931087970734,2,3,3,3,-17.08,-0.74,2.93,-1.68,-5.63,0.59
16.47931087017059,2,3,3,3,-18.64,0.24,2.71,2.55,-7.92,-4.34
16.48931109905243,2,3,3,3,-11.92,-0.89,3.06,2.55,-7.92,-4.34
16.49931108951569,2,3,3,3,-8.449999999999999,-1.57,4.48,3.54,-8.4,-5.04
16.50931107997894,2,3,3,3,-5.83,-1.58,5.66,-1.46,-4.26,-1.94
16.5193110704422,2,3,3,3,-4.11,-2.29,4.04,-5.48,0.71,0
16.52931106090546,2,3,3,3,-8.619999999999999,-1.7,2.1,-7.91,5.61,0.59
16.53931105136871,2,3,3,3,-8.619999999999999,-1.7,2.1,-7.91,5.61,0.59
16.54931104183197,2,3,3,3,-10.76,-1.13,1.15,-8.109999999999999,8.25,0.25
16.55931103229523,2,3,3,3,-12.44,-1.77,-0.55,-7.81,7.63,-2.47
16.56931102275848,2,3,3,3,-11.93,-2.88,-0.84,-7.65,4.42,-3.98
16.57931101322174,2,3,3,3,-10.74,-4.18,-0.58,-6.83,0.03,-4.85
16.589311003685,2,3,3,3,-9.460000000000001,-4.87,0.12,-6.83,0.03,-4.85
16.59931099414825,2,3,3,3,-7.08,-4.8,1.9,-5.51,-2.53,-4.67
16.60931098461151,2,3,3,3,-6.48,-4.62,2.21,-2.83,-1.29,-1.77
16.61931097507477,2,3,3,3,-6.23,-4.38,2.17,-1.38,-0.51,-0.09
16.62931096553802,2,3,3,3,-6.11,-4.11,1.98,-0.14,0.57,1.48
16.63931095600128,2,3,3,3,-5.99,-3.56,1.85,-0.14,0.57,1.48
16.64931094646454,2,3,3,3,-6.23,-3.42,1.87,0.92,2.38,2.63
16.6593109369278,2,3,3,3,-6.69,-3.34,1.59,2.83,6.36,3.18
16.66931092739105,2,3,3,3,-7.26,-3.15,1.09,4.34,7.58,2.37
16.67931091785431,2,3,3,3,-8.449999999999999,-3.37,0.34,6.73,7.8,1.18
16.68931090831757,2,3,3,3,-8.85,-3.02,0.12,6.73,7.8,1.18
16.69931089878082,2,3,3,3,-8.94,-2.85,0.05,9.57,7.22,-0.2
16.70931088924408,2,3,3,3,-9.289999999999999,-2.57,0.52,13.89,4.48,-2.2
16.71931087970734,2,3,3,3,-9.35,-2.15,0.6899999999999999,14.76,2.92,-2.77
16.72931087017059,2,3,3,3,-9.279999999999999,-1.46,0.98,14.49,2,-3.16
16.73931109905243,2,3,3,3,-9.050000000000001,-0.71,1.22,14.49,2,-3.16
16.74931108951569,2,3,3,3,-8.33,0.44,1.92,13.4,1.73,-3.46
16.75931107997894,2,3,3,3,-7.94,0.84,2.25,10.31,1.86,-3.55
16.7693110704422,2,3,3,3,-7.73,1.13,2.42,8.539999999999999,2.67,-3.38
16.78031098842621,2,3,3,3,-7.73,1.05,2.4,6.94,3.8,-3.02
16.79031097888947,2,3,3,3,-8.59,0.59,2.28,6.94,3.8,-3.02
16.80031096935272,2,3,3,3,-8.99,0.36,2.1,5.56,4.21,-2.76
16.81031095981598,2,3,3,3,-9.300000000000001,0.13,1.9,3.73,3.13,-2.73
16.82031095027924,2,3,3,3,-9.390000000000001,-0.07000000000000001,1.51,3.17,2.49,-3.08
16.83031094074249,2,3,3,3,-9.35,-0.31,1.28,3.03,1.91,-3.42
16.84031093120575,2,3,3,3,-9.460000000000001,-0.39,1.43,3.03,1.91,-3.42
16.85031092166901,2,3,3,3,-9.67,-0.31,1.55,3.38,1.47,-3.9
16.86031091213226,2,3,3,3,-9.800000000000001,-0.18,1.52,3.77,1.02,-5.11
16.87031090259552,2,3,3,3,-9.92,0.31,1.78,4.23,0.88,-5.7
16.88031089305878,2,3,3,3,-9.84,0.43,1.88,4.61,0.8100000000000001,-6.17
16.89031088352203,2,3,3,3,-9.68,0.54,2.03,4.61,0.8100000000000001,-6.17
16.90031087398529,2,3,3,3,-9.130000000000001,0.47,2.53,5.04,0.54,-6.35
16.91031110286713,2,3,3,3,-8.880000000000001,0.28,2.73,4.84,-0.74,-5.7
16.92031109333038,2,3,3,3,-8.699999999999999,0.13,2.75,4.07,-1.32,-4.95
16.93031108379364,2,3,3,3,-8.66,-0.09,2.83,3.21,-1.59,-4.15
16.9403110742569,2,3,3,3,-8.869999999999999,-0.17,2.42,3.21,-1.59,-4.15
16.95031106472015,2,3,3,3,-8.99,0.01,2.28,2.59,-1.65,-3.42
16.96031105518341,2,3,3,3,-9.029999999999999,0.24,2.12,2.62,-1.55,-3.05
16.97031104564667,2,3,3,3,-9.039999999999999,0.44,1.99,3.28,-1.69,-3.43
16.98031103610992,2,3,3,3,-9.15,0.67,2.46,4.04,-1.83,-3.95
16.99031102657318,2,3,3,3,-9.18,0.63,2.7,4.04,-1.83,-3.95
17.00031101703644,2,3,3,3,-9.19,0.49,2.89,4.64,-1.79,-4.55
17.01031100749969,2,3,3,3,-9.19,0.27,2.95,5.13,-1.41,-5.45
17.02031099796295,2,3,3,3,-9.289999999999999,-0.22,2.88,5.35,-0.77,-5.39
17.03031098842621,2,3,3,3,-9.4,-0.22,2.85,5.63,-0.06,-5
17.04031097888947,2,3,3,3,-9.43,0.01,2.62,5.63,-0.06,-5
17.05031096935272,2,3,3,3,-9.470000000000001,0.38,2.48,5.97,0.8100000000000001,-4.36
17.06031095981598,2,3,3,3,-9.67,1.28,3.28,7.56,2.05,-2.92
17.07031095027924,2,3,3,3,-9.800000000000001,1.15,4.34,8.199999999999999,2.09,-2.38
17.08031094074249,2,3,3,3,-10.34,0.8100000000000001,5.66,7.72,1.33,-1.37
17.09031093120575,2,3,3,3,-11.59,0.19,4.94,7.72,1.33,-1.37
17.10031092166901,2,3,3,3,-11.79,0.08,4.27,4.86,1.12,0.32
17.11031091213226,2,3,3,3,-11.97,0.32,4.06,0.8100000000000001,5.17,3.06
17.12031090259552,2,3,3,3,-12.21,0.67,3.67,-1.43,7.12,3.76
17.13031089305878,2,3,3,3,-12.89,0.89,2.35,-4.49,9.539999999999999,4.43
17.14031088352203,2,3,3,3,-13.33,0.26,1.14,-4.49,9.539999999999999,4.43
17.15031087398529,2,3,3,3,-13.63,-0.62,0.22,-7.8,12.05,4.53
17.16031110286713,2,3,3,3,-13.88,-1.78,0,-10.89,13.28,2.84
17.17031109333038,2,3,3,3,-13.44,-4.66,-0.61,-11.91,11.14,2.01
17.18031108379364,2,3,3,3,-12.68,-6.47,-1.12,-11.31,8.69,1.92
17.1903110742569,2,3,3,3,-11.85,-7.98,-1.56,-11.31,8.69,1.92
17.20031106472015,2,3,3,3,-11.42,-8.869999999999999,-1.9,-8.27,6.59,2.54
17.21031105518341,2,3,3,3,-10.46,-9.5,-1.03,3.86,4.17,6.74
17.22031104564667,2,3,3,3,-10.07,-9.02,-0.12,11.13,2.89,8.19
17.23031103610992,2,3,3,3,-9.289999999999999,-7.65,0.91,16.43,2.53,9.48
17.24031102657318,2,3,3,3,-8.93,-5.93,1.73,16.43,2.53,9.48
17.25031101703644,2,3,3,3,-9.26,-2.47,3.3,18.73,2.59,10.64
17.26031100749969,2,3,3,3,-9.630000000000001,-0.98,3.7,17.9,0.5600000000000001,10.27
17.27031099796295,2,3,3,3,-9.960000000000001,0.57,3.77,15.88,-1.21,8.550000000000001
17.28031098842621,2,3,3,3,-10.57,3.09,3.9,12.45,-2.83,6.58
17.29031097888947,2,3,3,3,-11.04,3.64,4.01,12.45,-2.83,6.58
17.30031096935272,2,3,3,3,-11.15,3.45,3.77,7.5,-5.74,4.73
17.31031095981598,2,3,3,3,-10.81,2.67,3.02,-4.51,-11.7,1.58
17.32031095027924,2,3,3,3,-9.74,0.63,1.44,-8.5,-12.24,0.66
17.33031094074249,2,3,3,3,-9.550000000000001,0.09,1.46,-10.36,-11.76,0.44
17.34031093120575,2,3,3,3,-9.550000000000001,-0.25,1.68,-10.36,-11.76,0.44
17.35031092166901,2,3,3,3,-9.380000000000001,-0.54,1.7,-11.28,-12.56,0.43
17.36031091213226,2,3,3,3,-8.300000000000001,-0.68,1.27,-11.33,-15.68,1.95
17.37031090259552,2,3,3,3,-7.17,-1.01,1.26,-11,-15.22,2.92
17.38031089305878,2,3,3,3,-6.27,-1.02,1.46,-10.2,-13.5,3.37
17.39031088352203,2,3,3,3,-6.33,-1.16,2.04,-10.2,-13.5,3.37
17.40031087398529,2,3,3,3,-6.38,-1.38,2.77,-9.6,-12.59,3.75
17.41031110286713,2,3,3,3,-6.81,-1.53,3.09,-8.76,-9.640000000000001,4.89
17.42031109333038,2,3,3,3,-7.28,-1.74,3.14,-7.52,-8.75,5.23
17.43031108379364,2,3,3,3,-7.57,-1.83,3.08,-6.02,-7.5,5.23
17.4403110742569,2,3,3,3,-7.59,-1.36,3.08,-6.02,-7.5,5.23
17.45031106472015,2,3,3,3,-7.29,-0.8100000000000001,2.92,-4.52,-6.76,5.25
17.46031105518341,2,3,3,3,-7.19,-0.26,2.95,-2.47,-5.69,5.24
17.47031104564667,2,3,3,3,-7.76,0.5,3.15,-2.14,-5.51,4.69
17.48031103610992,2,3,3,3,-8.1,0.9,3.32,-2.79,-5.55,4.49
17.49031102657318,2,3,3,3,-8.49,0.82,3.44,-2.79,-5.55,4.49
17.50031101703644,2,3,3,3,-8.609999999999999,0.77,3.51,-3.95,-5.78,4.09
17.51031100749969,2,3,3,3,-8.529999999999999,0.79,3.63,-5.24,-5.86,3.51
17.52031099796295,2,3,3,3,-8.460000000000001,0.96,3.63,-6.41,-5.12,2.97
17.53031098842621,2,3,3,3,-8.369999999999999,1.15,3.64,-7.1,-3.8,2.4
17.54031097888947,2,3,3,3,-8.24,1.33,3.6,-7.52,-2.61,1.73
17.55031096935272,2,3,3,3,-7.45,1.42,3.55,-7.75,-1.8,0.92
17.56031095981598,2,3,3,3,-6.85,1.22,3.39,-7.95,-1.34,0.01
17.57031095027924,2,3,3,3,-6.21,1.07,3.17,-7.97,-0.71,-0.95
17.58031094074249,2,3,3,3,-5.76,0.8,3.14,-7.89,0.48,-1.82
17.59031093120575,2,3,3,3,-5.79,0.63,3.41,-7.28,2.39,-2.34
17.60031092166901,2,3,3,2,-6.21,0.52,3.62,-6.35,4.23,-2.39
17.61031091213226,2,3,3,2,-6.62,0.54,3.89,-5.38,5.24,-2.04
17.62031090259552,2,3,3,2,-6.87,0.6,3.94,-4.59,5.36,-1.62
17.63031089305878,2,3,3,2,-7.66,0.53,4.49,-3.88,5.38,-1.05
17.64031088352203,2,3,3,2,-8.35,0.36,4.81,-2.85,5.47,-0.17
17.65031087398529,2,3,3,2,-8.83,0.18,5.02,-2.31,4.57,0.66
17.66031110286713,2,3,3,2,-9.17,-0.12,5.15,-2.63,3.06,1.29
17.67031109333038,2,3,3,2,-8.880000000000001,-0.65,3.89,-3.47,1.64,1.27
17.68031108379364,2,3,3,2,-8.970000000000001,-1.04,3.43,-5,1.78,0.77
17.6903110742569,2,3,3,2,-9.460000000000001,-1.35,3.47,-5.37,3.49,0.14
17.70031106472015,2,3,3,2,-10.72,-1.32,3.5,-4.43,4.86,-0.66
17.71031105518341,2,3,3,2,-11.72,-0.76,3.77,-2.86,5.69,-1.64
17.72031104564667,2,3,3,2,-12.27,0.11,4.23,-0.24,5.53,-2.59
17.73031103610992,2,3,3,2,-12.27,1.01,5.39,2.49,3.67,-2.87
17.74031102657318,2,3,3,2,-11.9,1.34,6.97,4.58,0.5600000000000001,-1.37
17.75031101703644,2,3,3,2,-12.04,0.47,5.76,2.63,-4.01,1.96
17.76031100749969,2,3,3,2,-11.42,-0.02,4.28,-1.84,-7.81,5.15
17.77031099796295,2,3,3,2,-11.11,0.13,4.6,-2.21,-5.07,6.17
17.78031098842621,2,3,3,2,-14.01,-0.37,4.84,0.5600000000000001,-0.12,6.68
17.79031097888947,2,3,3,2,-15.5,-1.79,3.73,-1.35,-0.09,5.77
17.80131089687347,2,3,3,2,-17.63,-2.17,3.31,-2.62,-1.75,2
17.81131088733673,2,3,3,2,-17.94,-1.47,3.22,2.28,-4.85,-2.16
17.82131087779999,2,3,3,2,-11.37,-2.06,4.97,4.54,-7.24,-4.1
17.83131086826324,2,3,3,2,-9,-3.3,5.1,3.42,-8.539999999999999,-3.29
17.84131109714508,2,3,3,2,-7.55,-3.71,4.52,1.77,-7.66,-1.72
17.85131108760834,2,3,3,2,-7.1,-2.01,3.24,2.44,-3.21,-0.62
17.86131107807159,2,3,3,2,-7.67,-1.04,2.52,2.42,1.27,-0.9
17.87131106853485,2,3,3,2,-8.66,-0.5600000000000001,2.06,0.68,4.01,-1.49
17.88131105899811,2,3,3,2,-9.67,-0.35,1.69,-1.24,4.38,-1.77
17.89131104946136,2,3,3,2,-10.29,-0.67,0.93,-2.88,3.64,-2.19
17.90131103992462,2,3,3,2,-9.93,-1.22,0.54,-4.34,2.87,-2.34
17.91131103038788,2,3,3,2,-9.41,-1.88,0.53,-5.76,1.49,-2.05
17.92131102085114,2,3,3,2,-8.699999999999999,-2.46,0.66,-6.38,-0.22,-1.83
17.93131101131439,2,3,3,2,-7.6,-2.66,1.34,-6.34,-1.54,-1.51
17.94131100177765,2,3,3,2,-7.45,-2.75,1.74,-6.06,-1.8,-0.8100000000000001
17.95131099224091,2,3,3,2,-7.25,-2.76,2.11,-5.52,-1.44,0.07000000000000001
17.96131098270416,2,3,3,2,-7.21,-2.66,2.2,-4.77,-0.82,1.06
17.97131097316742,2,3,3,2,-7.03,-2.52,2.11,-3.94,0.35,1.75
17.98131096363068,2,3,3,2,-7.04,-2.55,1.99,-2.91,2.08,1.94
17.99131095409393,2,3,3,2,-7.1,-2.69,1.88,-1.65,4.2,1.79
18.00131094455719,2,3,3,2,-7.31,-2.86,1.61,0.2,6,1.32
18.01131093502045,2,3,3,2,-7.85,-2.69,1,2.5,6.98,0.5
18.0213109254837,2,3,3,2,-8.050000000000001,-2.59,0.91,5.07,7.39,-0.5
18.03131091594696,2,3,3,2,-8.4,-2.72,0.98,7.61,7.27,-1.57
18.04131090641022,2,3,3,2,-8.6,-2.38,1.1,9.66,6.48,-2.22
18.08131086826324,2,3,3,2,-8.51,0.31,2.2,10.29,3.14,-2.66
18.09131109714508,2,3,3,2,-8.5,0.71,2.44,8.970000000000001,3.01,-2.6
18.10131108760834,2,3,3,2,-8.470000000000001,0.93,2.65,7.46,2.59,-2.61
18.11131107807159,2,3,3,2,-8.59,0.72,2.64,5.68,2.11,-2.61
18.12131106853485,2,3,3,2,-9.140000000000001,0.52,2.15,4.44,2.35,-2.57
18.13131105899811,2,3,3,2,-9.26,0.49,2.08,3.42,2.74,-2.6
18.14131104946136,2,3,3,2,-9.32,0.37,1.95,2.74,2.85,-2.68
18.15131103992462,2,3,3,2,-9.32,0.44,1.72,2.29,2.66,-2.85
18.16131103038788,2,3,3,2,-9.289999999999999,0.26,1.89,1.93,2.12,-3.07
18.17131102085114,2,3,3,2,-9.24,-0.01,2,1.69,1.22,-3.32
18.18131101131439,2,3,3,2,-9.33,-0.21,1.99,1.26,0.54,-3.58
18.19131100177765,2,3,3,2,-9.43,-0.23,2.04,0.89,0.41,-3.78
18.20131099224091,2,3,3,2,-9.49,0.07000000000000001,2.02,0.75,0.54,-4.09
18.21131098270416,2,3,3,2,-9.41,0.27,2.1,0.68,0.5600000000000001,-4.43
18.22131097316742,2,3,3,2,-9.27,0.41,2.3,1.03,0.38,-4.8
18.23131096363068,2,3,3,2,-9.029999999999999,0.45,2.46,1.4,-0.01,-5.01
18.24131095409393,2,3,3,2,-8.529999999999999,0.45,2.65,1.4,-0.11,-5.05
18.25131094455719,2,3,3,2,-8.449999999999999,0.31,2.62,1.38,0.04,-4.9
18.26131093502045,2,3,3,2,-8.43,0.2,2.59,1.13,0.16,-4.63
18.2713109254837,2,3,3,2,-8.65,-0.09,2.39,0.98,0.08,-4.43
18.28131091594696,2,3,3,2,-8.859999999999999,-0.26,2.29,0.9399999999999999,-0.18,-4.43
18.29131090641022,2,3,3,2,-9.09,-0.35,2.35,1.3,-0.31,-4.58
18.30131089687347,2,3,3,2,-9.289999999999999,-0.38,2.38,2.44,-0.51,-4.89
18.31131088733673,2,3,3,2,-9.539999999999999,-0.22,2.01,3.62,-0.53,-5.29
18.32131087779999,2,3,3,2,-9.57,-0.08,1.91,4.9,-0.31,-5.63
18.33131086826324,2,3,3,2,-9.49,0.13,1.81,6.06,-0.23,-5.89
18.34131109714508,2,3,3,2,-9.42,0.38,1.87,7.03,-0.2,-6.11
18.35131108760834,2,3,3,2,-9.550000000000001,1.1,2.45,7.82,0.17,-6.02
18.36131107807159,2,3,3,2,-9.81,1.45,2.58,7.8,0.6899999999999999,-5.48
18.37131106853485,2,3,3,2,-10.11,1.89,2.49,7.01,1.23,-4.55
18.38131105899811,2,3,3,2,-10.42,2.17,2.37,5.94,1.68,-3.41
18.39131104946136,2,3,3,2,-10.91,2.41,2.76,5.14,1.75,-2.4
18.40131103992462,2,3,3,2,-11.07,2.15,3.54,5.01,1.68,-1.65
18.41131103038788,2,3,3,2,-11.38,1.54,4.41,5.03,1.49,-1.25
18.42131102085114,2,3,3,2,-11.78,0.9,4.88,4.45,0.78,-1
18.43131101131439,2,3,3,2,-11.96,0.12,4.16,2.79,0.45,-0.68
18.44131100177765,2,3,3,2,-11.8,0.19,3.99,1.05,2.58,-0.12
18.45131099224091,2,3,3,2,-11.72,0.44,3.9,0.08,5.68,0.4
18.46131098270416,2,3,3,2,-12.11,0.03,2.97,-1.74,7.92,0.9399999999999999
18.47131097316742,2,3,3,2,-12.68,-0.27,2.3,-3.72,9.98,1.34
18.48131096363068,2,3,3,2,-13.12,-0.89,1.1,-5.69,11.09,1.47
18.49131095409393,2,3,3,2,-13.36,-1.8,0.12,-7.87,11.54,1.35
18.50131094455719,2,3,3,2,-13.38,-3.76,0.86,-8.25,11.11,1.18
18.51131093502045,2,3,3,2,-12.66,-5.08,0.74,-8.130000000000001,8.630000000000001,1.05
18.5213109254837,2,3,3,2,-11.52,-6.34,0.46,-8.779999999999999,5.51,1.19
18.53131091594696,2,3,3,2,-10.5,-7.44,0.15,-8.220000000000001,3.63,1.83
18.54131090641022,2,3,3,2,-9.26,-8.57,-0.08,-6.09,3.26,2.73
18.55131089687347,2,3,3,2,-9.07,-8.699999999999999,0.02,-2.94,3.79,4.18
18.56131088733673,2,3,3,2,-8.949999999999999,-8.17,0.53,1.53,5.09,5.74
18.57131087779999,2,3,3,2,-8.98,-7.42,1.06,6.49,5.85,7.35
18.58131086826324,2,3,3,2,-9.18,-5.02,2.15,11.21,5.91,8.67
18.59131109714508,2,3,3,2,-9.380000000000001,-3.71,2.43,14.31,5.42,9.65
18.60131108760834,2,3,3,2,-9.58,-2.29,2.75,15.7,4.59,9.99
18.61131107807159,2,3,3,2,-9.91,-0.89,3.13,15.97,3.23,9.5
18.62131106853485,2,3,3,2,-10.39,1.34,3.74,15.38,1.29,8.390000000000001
18.63131105899811,2,3,3,2,-10.57,2.09,4.09,13.23,-1.27,6.84
18.64131104946136,2,3,3,2,-10.71,2.29,4.19,9.380000000000001,-4.13,5.2
18.65131103992462,2,3,3,2,-10.56,1.51,3.33,4.55,-6.82,3.86
18.66131103038788,2,3,3,2,-10.44,0.66,2.63,-0.07000000000000001,-8.529999999999999,2.88
18.67131102085114,2,3,3,2,-10.35,0.01,2.02,-4.09,-9.81,1.98
18.68131101131439,2,3,3,2,-9.85,-0.31,1.56,-6.63,-10.97,1.36
18.69131100177765,2,3,3,2,-9.06,-0.29,1.36,-8.02,-11.56,1.16
18.70131099224091,2,3,3,2,-8.59,-0.38,1.41,-8.4,-11.8,1.52
18.71131098270416,2,3,3,2,-7.84,-0.65,1.34,-8.24,-12.45,2.08
18.72131097316742,2,3,3,2,-7.17,-0.75,1.24,-8.460000000000001,-13.5,2.56
18.73131096363068,2,3,3,2,-6.47,-0.8100000000000001,1.75,-8.77,-13.61,3.04
18.74131095409393,2,3,3,2,-6.14,-0.82,2.1,-8.58,-12.96,3.55
18.75131094455719,2,3,3,2,-6.15,-0.91,2.43,-8.06,-11.77,4.01
18.76131093502045,2,3,3,2,-6.51,-1.24,2.86,-7.45,-10.29,4.37
18.7713109254837,2,3,3,2,-6.81,-1.71,2.75,-6.81,-9.199999999999999,4.57
18.78131091594696,2,3,3,2,-6.96,-1.67,2.93,-6.19,-8.18,4.54
18.79131090641022,2,3,3,2,-7.14,-1.4,3,-5.46,-7.19,4.56
18.80131089687347,2,3,3,2,-7.26,-0.92,2.87,-4.9,-6.41,4.62
18.81131088733673,2,3,3,2,-7.4,-0.35,2.83,-4.59,-5.45,4.54
18.82131087779999,2,3,3,2,-7.56,-0.19,2.96,-4.28,-4.46,4.16
18.83231103420258,2,3,3,2,-7.81,-0.02,3.17,-4.11,-3.85,3.56
18.84231102466583,2,3,3,2,-8.449999999999999,-0.04,3.49,-4.18,-3.37,3.03
18.85231101512909,2,3,3,2,-8.779999999999999,-0.03,3.67,-4.2,-2.6,2.4
18.86231100559235,2,3,3,2,-9.06,0.05,3.84,-4.15,-1.77,1.93
18.8723109960556,2,3,3,2,-9.220000000000001,0.36,3.83,-4.27,-1.49,1.53
18.88231098651886,2,3,3,2,-8.74,1.01,3.62,-4.34,-1.49,1.16
18.89231097698212,2,3,3,2,-8.24,1.28,3.51,-4.46,-1.25,0.55
18.90231096744537,2,3,3,2,-7.73,1.42,3.45,-4.53,-0.38,-0.08
18.91231095790863,2,3,3,2,-7.24,1.44,3.54,-4.63,0.91,-0.85
18.92231094837189,2,3,3,2,-6.77,1.05,3.97,-4.5,2.34,-1.5
18.93231093883514,2,3,3,2,-6.55,0.93,3.98,-4.18,3.19,-2.04
18.9423109292984,2,3,3,2,-6.27,0.84,3.86,-4.35,3.57,-2.59
18.95231091976166,2,3,3,2,-6.23,0.73,3.83,-4.67,4.66,-2.8
18.96231091022491,2,3,3,2,-6.86,0.71,4.38,-4.09,5.98,-2.5
18.97231090068817,2,3,3,2,-7.27,0.68,4.49,-3.11,6.38,-1.84
18.98231089115143,2,3,3,2,-7.81,0.59,4.61,-2.42,5.89,-0.91
18.99231088161469,2,3,3,2,-8.42,0.49,4.54,-2.06,4.92,0.06
19.00231087207794,2,3,3,2,-8.789999999999999,0.35,3.79,-2.78,3.66,0.88
19.01231110095978,2,3,3,2,-8.9,-0.06,3.72,-4.4,3.3,1.68
