timestamp,magCalib,accCalib,gyrCalib,sysCalib,accX,accY,accZ,gyrX,gyrY,gyrZ
-0.005442142486572266,3,3,3,3,-9.5,1.13,-1.93,0.13,0.05,0.04
0.01455783843994141,3,3,3,3,-9.5,1.13,-1.88,0.11,0.03,0.01
0.03455805778503418,3,3,3,3,-9.529999999999999,1.13,-1.87,0.05,0.09,0.02
0.05455803871154785,3,3,3,3,-9.52,1.13,-1.91,0.08,0.04,-0.04
0.07455801963806152,3,3,3,3,-9.5,1.07,-1.84,-0.02,0.04,-0.02
0.0945580005645752,3,3,3,3,-9.5,1.06,-1.96,-0.14,0.03,-0.09
0.1145579814910889,3,3,3,3,-9.529999999999999,1,-1.92,-0.15,0.11,-0.1
0.1345579624176025,3,3,3,3,-9.49,1.09,-1.94,0,0.1,-0.08
0.1545579433441162,3,3,3,3,-9.51,1.12,-1.98,0.02,0.09,-0.08
0.1755578517913818,3,3,3,3,-9.51,1.13,-1.92,-0.02,0.14,-0.08
0.1955580711364746,3,3,3,3,-9.48,1.09,-2.03,-0.04,0.06,-0.07000000000000001
0.2155580520629883,3,3,3,3,-9.48,1.1,-1.96,-0.13,0.01,-0.11
0.235558032989502,3,3,3,3,-9.539999999999999,1.09,-1.99,-0.09,0.03,-0.08
0.2555580139160156,3,3,3,3,-9.5,1.07,-1.99,0.02,0.13,-0.08
0.2755579948425293,3,3,3,3,-9.49,1.08,-1.96,0.04,0.07000000000000001,-0.04
0.295557975769043,3,3,3,3,-9.460000000000001,1.03,-1.97,0.01,0.01,-0.04
0.3155579566955566,3,3,3,3,-9.5,1,-1.92,-0.02,0.11,-0.02
0.3355579376220703,3,3,3,3,-9.5,0.98,-1.9,0,0.01,-0.04
0.355557918548584,3,3,3,3,-9.52,1.04,-2.03,0.11,0.02,-0.03
0.3755578994750977,3,3,3,3,-9.49,1.11,-1.99,0.22,0.02,0.05
0.3955578804016113,3,3,3,3,-9.470000000000001,1.05,-2,0.12,-0.02,0.06
0.415557861328125,3,3,3,3,-9.51,0.99,-1.93,0.11,0,0.05
0.4355578422546387,3,3,3,3,-9.49,1.12,-2.04,0.05,-0.03,0.08
0.4555580615997314,3,3,3,3,-9.470000000000001,1.12,-2.01,0.15,0.07000000000000001,0.1
0.4755580425262451,3,3,3,3,-9.5,1.07,-1.94,0.12,0.03,0.16
0.4955580234527588,3,3,3,3,-9.51,1.02,-2.04,0.17,0.01,0.18
0.5155580043792725,3,3,3,3,-9.49,0.99,-1.96,0.06,0.06,0.17
0.5355579853057861,3,3,3,3,-9.51,0.98,-1.93,0.07000000000000001,-0.01,0.18
0.5555579662322998,3,3,3,3,-9.5,1.08,-1.97,0.2,-0.02,0.23
0.5755579471588135,3,3,3,3,-9.5,1.03,-1.93,0.22,0.02,0.21
0.5955579280853271,3,3,3,3,-9.449999999999999,0.99,-2.01,0.17,-0.02,0.24
0.6155579090118408,3,3,3,3,-9.5,0.9399999999999999,-1.99,0.23,0.09,0.27
0.6355578899383545,3,3,3,3,-9.529999999999999,0.98,-1.99,0.4,0.01,0.28
0.6555578708648682,3,3,3,3,-9.48,1.06,-1.98,0.47,0,0.31
0.6755578517913818,3,3,3,3,-9.5,1.12,-1.92,0.49,-0.06,0.33
0.6955580711364746,3,3,3,3,-9.51,1.06,-2.03,0.55,0.01,0.33
0.7155580520629883,3,3,3,3,-9.48,1.1,-1.95,0.54,-0.01,0.32
0.735558032989502,3,3,3,3,-9.52,1.2,-1.91,0.65,0.01,0.27
0.7555580139160156,3,3,3,3,-9.5,1.32,-1.95,0.55,0.09,0.24
0.7755579948425293,3,3,3,3,-9.449999999999999,1.21,-1.88,0.27,0.04,0.27
0.795557975769043,3,3,3,3,-9.529999999999999,0.98,-1.96,0.22,0.1,0.21
0.8155579566955566,3,3,3,3,-9.529999999999999,1.01,-1.93,0.42,0.09,0.16
0.8355579376220703,3,3,3,3,-9.470000000000001,1.22,-1.91,0.61,0.17,0.18
0.855557918548584,3,3,3,3,-9.49,1.26,-1.95,0.6,0.13,0.23
0.8755578994750977,3,3,3,3,-9.48,1.23,-1.93,0.5600000000000001,0.22,0.21
0.8955578804016113,3,3,3,3,-9.49,1.13,-2.03,0.46,0.14,0.15
0.915557861328125,3,3,3,3,-9.449999999999999,1.11,-2.01,0.52,0.1,0.13
0.9355578422546387,3,3,3,3,-9.470000000000001,1.15,-2,0.52,0.07000000000000001,0.15
0.9555580615997314,3,3,3,3,-9.460000000000001,1.12,-2.08,0.55,0.19,0.17
0.9755580425262451,3,3,3,3,-9.460000000000001,1.17,-2,0.52,0.12,0.17
0.9955580234527588,3,3,3,3,-9.48,1.24,-2.1,0.42,0.14,0.17
1.015558004379272,3,3,3,3,-9.48,1.2,-2.05,0.33,0.13,0.11
1.035557985305786,3,3,3,3,-9.470000000000001,1.25,-2.03,0.25,0.21,0.07000000000000001
1.0555579662323,3,3,3,3,-9.5,1.14,-2.11,0.16,0.13,0.05
1.075557947158813,3,3,3,3,-9.460000000000001,1.12,-2.06,0.15,0.15,0.05
1.095557928085327,3,3,3,3,-9.460000000000001,1.18,-2.07,0.23,0.16,0.13
1.115557909011841,3,3,3,3,-9.5,1.13,-2.06,0.18,0.12,0.06
1.135557889938354,3,3,3,3,-9.449999999999999,1.15,-2.07,0.25,0.09,0.08
1.155557870864868,3,3,3,3,-9.460000000000001,1.13,-2.1,0.18,0.12,0.05
1.175557851791382,3,3,3,3,-9.51,1.1,-2.05,0.11,0.03,0.05
1.196557998657227,3,3,3,3,-9.470000000000001,1.15,-2.13,0.11,0.13,0.09
1.21655797958374,3,3,3,3,-9.460000000000001,1.16,-2.08,-0.02,0.13,0.08
1.236557960510254,3,3,3,3,-9.470000000000001,1.07,-2.13,-0.02,0.04,0.03
1.256557941436768,3,3,3,3,-9.44,1.13,-2.07,0.15,0.05,0.04
1.276557922363281,3,3,3,3,-9.449999999999999,1.22,-2.04,0.19,0.08,0.08
1.296557903289795,3,3,3,3,-9.470000000000001,1.08,-2.16,0.05,0.08,0.07000000000000001
1.316557884216309,3,3,3,3,-9.5,1.07,-2.11,0.03,0.04,0.07000000000000001
1.336557865142822,3,3,3,3,-9.449999999999999,1.08,-2.11,0,-0.04,0.07000000000000001
1.356557846069336,3,3,3,3,-9.449999999999999,1.23,-2.13,0.07000000000000001,0.02,0.02
1.376558065414429,3,3,3,3,-9.44,1.23,-2.07,0.1,0.06,0.05
1.396558046340942,3,3,3,3,-9.449999999999999,1.13,-2.18,0.02,0.05,0.03
1.416558027267456,3,3,3,3,-9.470000000000001,1.11,-2.11,0.01,-0.02,0.03
1.43655800819397,3,3,3,3,-9.49,1.13,-2.07,0.04,-0.03,0.05
1.456557989120483,3,3,3,3,-9.470000000000001,1.16,-2.09,0.11,-0.04,0.06
1.476557970046997,3,3,3,3,-9.41,1.19,-2.03,0.04,0.06,0.03
1.496557950973511,3,3,3,3,-9.48,1.14,-2.16,-0.01,0.02,0
1.516557931900024,3,3,3,3,-9.449999999999999,1.09,-2.13,-0.13,-0.02,0
1.536557912826538,3,3,3,2,-9.48,1.16,-2.08,0.02,-0.04,0.04
1.556557893753052,3,3,3,2,-9.470000000000001,1.15,-2.11,-0.04,-0.04,0.01
1.576557874679565,3,3,3,2,-9.460000000000001,1.18,-2.06,-0.07000000000000001,-0.04,0.07000000000000001
1.596557855606079,3,3,3,2,-9.460000000000001,1.07,-2.11,-0.01,-0.01,0.03
1.616558074951172,3,3,3,2,-9.470000000000001,1.1,-2.08,0.04,-0.03,0.11
1.636558055877686,3,3,3,2,-9.470000000000001,1.15,-2.02,0.04,-0.02,0.03
1.656558036804199,3,3,3,2,-9.460000000000001,1.19,-2.1,-0.02,0,0.05
1.676558017730713,3,3,3,2,-9.460000000000001,1.11,-2,-0.07000000000000001,-0.05,0.05
1.696557998657227,3,3,3,2,-9.48,1.07,-2.17,-0.05,-0.08,0.01
1.71655797958374,3,3,3,2,-9.470000000000001,1.16,-2.07,0.01,-0.04,0.02
1.736557960510254,3,3,3,2,-9.42,1.27,-2.02,-0.07000000000000001,-0.02,0.04
1.756557941436768,3,3,3,2,-9.449999999999999,1.25,-2.14,-0.17,-0.01,0.03
1.776557922363281,3,3,3,2,-9.470000000000001,1.09,-2,-0.24,-0.12,0.01
1.796557903289795,3,3,3,2,-9.49,1.06,-2.07,-0.15,-0.16,-0.02
1.816557884216309,3,3,3,2,-9.49,1.11,-2.04,-0.11,-0.1,0
1.836557865142822,3,3,3,2,-9.449999999999999,1.2,-2.11,-0.13,-0.1,0
1.856557846069336,3,3,3,2,-9.460000000000001,1.16,-2.12,-0.2,-0.05,0
1.876558065414429,3,3,3,2,-9.42,1.23,-2.04,-0.19,-0.04,0.01
1.896558046340942,3,3,3,2,-9.48,1.18,-2.18,-0.26,-0.04,0.02
1.916558027267456,3,3,3,2,-9.5,1.13,-2.05,-0.28,-0.13,0.01
1.93655800819397,3,3,3,2,-9.460000000000001,1.1,-1.99,-0.21,-0.13,0.01
1.956557989120483,3,3,3,2,-9.449999999999999,1.2,-2.04,-0.22,-0.09,-0.02
1.976557970046997,3,3,3,2,-9.49,1.26,-2.02,-0.29,-0.03,-0.02
1.996557950973511,3,3,3,2,-9.48,1.2,-2.12,-0.37,-0.1,0
2.016557931900024,3,3,3,2,-9.460000000000001,1.21,-2.02,-0.38,-0.16,-0.02
2.036557912826538,3,3,3,2,-9.460000000000001,1.11,-1.99,-0.36,-0.1,-0.07000000000000001
2.056557893753052,3,3,3,2,-9.460000000000001,1.14,-2.08,-0.31,0.01,-0.03
2.076557874679565,3,3,3,3,-9.49,1.11,-2.03,-0.19,-0.03,-0.04
2.096557855606079,3,3,3,3,-9.470000000000001,1.11,-2.07,-0.1,-0.09,-0.01
2.116558074951172,3,3,3,3,-9.460000000000001,1.09,-1.99,-0.15,-0.1,0.04
2.136558055877686,3,3,3,3,-9.5,1.09,-1.95,-0.03,-0.08,0.04
2.156558036804199,3,3,3,3,-9.5,1.17,-1.99,0.01,-0.06,0.01
2.176558017730713,3,3,3,3,-9.49,1.25,-1.96,-0.02,-0.04,0.03
2.196557998657227,3,3,3,3,-9.5,1.16,-2.05,-0.08,-0.12,0.05
2.21655797958374,3,3,3,3,-9.5,1.18,-1.98,0.03,-0.05,0.04
2.237557888031006,3,3,3,3,-9.470000000000001,1.31,-1.94,-0.04,-0.05,-0.02
2.25755786895752,3,3,3,3,-9.48,1.31,-2.04,-0.16,0.01,-0.05
2.277557849884033,3,3,3,3,-9.460000000000001,1.24,-1.9,-0.26,-0.02,-0.08
2.297558069229126,3,3,3,3,-9.49,1.14,-2.04,-0.28,-0.08,-0.12
2.31755805015564,3,3,3,3,-9.52,1.04,-2.02,-0.32,-0.01,-0.07000000000000001
2.337558031082153,3,3,3,3,-9.460000000000001,1.09,-2.02,-0.23,-0.02,-0.09
2.357558012008667,3,3,3,3,-9.470000000000001,1.22,-2.05,-0.08,0.02,-0.08
2.377557992935181,3,3,3,3,-9.49,1.2,-2,-0.11,0.05,-0.08
2.397557973861694,3,3,3,3,-9.5,1.06,-2.09,-0.21,-0.07000000000000001,-0.04
2.417557954788208,3,3,3,3,-9.48,1.07,-2.02,-0.06,-0.13,-0.02
2.437557935714722,3,3,3,3,-9.460000000000001,1.18,-1.96,-0.07000000000000001,-0.06,-0.04
2.457557916641235,3,3,3,3,-9.5,1.23,-2.05,-0.07000000000000001,-0.05,-0.03
2.477557897567749,3,3,3,3,-9.449999999999999,1.17,-1.95,-0.06,-0.05,-0.02
2.497557878494263,3,3,3,3,-9.48,1.2,-2.09,-0.11,0.04,-0.02
2.517557859420776,3,3,3,3,-9.49,1.13,-1.99,-0.14,-0.02,-0.04
2.53755784034729,3,3,3,3,-9.49,1.07,-1.98,-0.09,-0.03,-0.03
2.557558059692383,3,3,3,3,-9.5,1.12,-2.04,0.01,-0.03,0.01
2.577558040618896,3,3,3,3,-9.48,1.16,-1.95,-0.01,-0.03,0.01
2.59755802154541,3,3,3,3,-9.5,1.17,-2.13,0.05,-0.05,0
2.617558002471924,3,3,3,3,-9.49,1.17,-2.01,0.07000000000000001,-0.1,-0.02
2.637557983398438,3,3,3,3,-9.48,1.13,-1.94,-0.01,-0.07000000000000001,0.01
2.657557964324951,3,3,3,3,-9.5,1.14,-2.01,-0.04,-0.01,0
2.677557945251465,3,3,3,3,-9.5,1.14,-1.99,-0.03,0.02,-0.07000000000000001
2.697557926177979,3,3,3,3,-9.470000000000001,1.2,-2.09,0.02,-0.04,-0.02
2.717557907104492,3,3,3,3,-9.44,1.2,-1.99,0.03,-0.05,-0.02
2.737557888031006,3,3,3,3,-9.49,1.15,-1.99,-0.03,-0.11,-0.03
2.75755786895752,3,3,3,3,-9.48,1.21,-2.04,-0.05,0.02,-0.03
2.777557849884033,3,3,3,3,-9.470000000000001,1.18,-2,-0.14,0,-0.06
2.797558069229126,3,3,3,3,-9.5,1.11,-2.07,-0.22,-0.07000000000000001,-0.04
2.81755805015564,3,3,3,3,-9.5,1.11,-1.99,-0.1,-0.06,-0.07000000000000001
2.837558031082153,3,3,3,2,-9.470000000000001,1.19,-1.94,-0.09,0.05,-0.05
2.857558012008667,3,3,3,2,-9.5,1.16,-2.01,-0.18,0.02,-0.05
2.877557992935181,3,3,3,2,-9.5,1.09,-1.97,-0.14,-0.03,-0.04
2.897557973861694,3,3,3,2,-9.48,1.12,-2.06,-0.05,-0.07000000000000001,0
2.917557954788208,3,3,3,2,-9.48,1.09,-1.93,-0.08,-0.05,-0.02
2.937557935714722,3,3,3,2,-9.5,1.13,-1.96,-0.11,-0.05,-0.01
2.957557916641235,3,3,3,2,-9.52,1.12,-2.04,-0.13,0.02,-0.06
2.977557897567749,3,3,3,2,-9.460000000000001,1.16,-1.94,-0.09,-0.06,-0.04
2.997557878494263,3,3,3,2,-9.470000000000001,1.19,-2.03,-0.09,-0.02,-0.06
3.017557859420776,3,3,3,2,-9.5,1.19,-1.95,-0.17,-0.04,-0.04
3.03755784034729,3,3,3,2,-9.51,1.07,-1.97,-0.21,-0.05,0.01
3.057558059692383,3,3,3,2,-9.470000000000001,1.05,-1.98,-0.08,-0.07000000000000001,-0.02
3.077558040618896,3,3,3,2,-9.5,1.07,-1.98,-0.04,-0.05,0.01
3.09755802154541,3,3,3,2,-9.5,1.2,-2.07,0.01,0,0.03
3.117558002471924,3,3,3,2,-9.5,1.14,-1.99,-0.01,0.02,0.02
3.137557983398438,3,3,3,2,-9.470000000000001,1.1,-1.94,0,-0.06,-0.01
3.157557964324951,3,3,3,2,-9.470000000000001,1.17,-1.98,0.04,-0.02,-0.01
3.177557945251465,3,3,3,2,-9.470000000000001,1.19,-1.95,0,0.02,-0.03
3.197557926177979,3,3,3,2,-9.51,1.12,-2.04,-0.02,0.02,0
3.217557907104492,3,3,3,2,-9.5,1.02,-1.93,-0.01,-0.03,-0.02
3.237557888031006,3,3,3,2,-9.5,1.18,-2.02,0.01,-0.1,-0.03
3.258558034896851,3,3,3,2,-9.5,1.21,-2.03,-0.04,-0.05,-0.02
3.278558015823364,3,3,3,2,-9.470000000000001,1.24,-1.97,-0.05,0.03,-0.06
3.298557996749878,3,3,3,2,-9.470000000000001,1.07,-2.06,-0.1,-0.06,-0.06
3.318557977676392,3,3,3,2,-9.49,1.09,-1.94,-0.05,0.02,-0.06
3.338557958602905,3,3,3,2,-9.5,1.17,-1.94,-0.08,0.01,-0.04
3.358557939529419,3,3,3,2,-9.51,1.17,-2.02,-0.05,0.04,-0.07000000000000001
3.378557920455933,3,3,3,2,-9.470000000000001,1.18,-1.95,-0.04,0.03,-0.07000000000000001
3.398557901382446,3,3,3,2,-9.52,1.11,-2.04,-0.1,-0.1,-0.07000000000000001
3.41855788230896,3,3,3,2,-9.449999999999999,1.11,-1.96,-0.09,0,-0.1
3.438557863235474,3,3,3,2,-9.5,1.13,-1.95,-0.12,0.04,-0.11
3.458557844161987,3,3,3,2,-9.49,1.14,-1.99,-0.11,-0.02,-0.06
3.47855806350708,3,3,3,2,-9.48,1.09,-1.89,-0.11,0.01,-0.11
3.498558044433594,3,3,3,2,-9.51,1.08,-2.08,-0.05,0,-0.1
3.518558025360107,3,3,3,2,-9.5,1.07,-1.95,-0.01,-0.04,-0.07000000000000001
3.538558006286621,3,3,3,2,-9.51,1.09,-1.94,-0.01,-0.05,-0.05
3.558557987213135,3,3,3,2,-9.5,1.14,-1.95,-0.1,-0.01,-0.11
3.578557968139648,3,3,3,2,-9.51,1.07,-1.92,-0.06,0,-0.13
3.598557949066162,3,3,3,2,-9.48,1.05,-2.08,-0.1,-0.05,-0.1
3.618557929992676,3,3,3,2,-9.52,1.12,-1.97,-0.13,-0.06,-0.13
3.638557910919189,3,3,3,2,-9.5,1.12,-2.03,-0.14,0.02,-0.07000000000000001
3.658557891845703,3,3,3,2,-9.48,1.1,-2.07,-0.09,-0.02,-0.04
3.678557872772217,3,3,3,2,-9.460000000000001,1.13,-1.96,-0.16,-0.1,-0.07000000000000001
3.69855785369873,3,3,3,2,-9.51,1.09,-2.06,-0.19,0.02,-0.11
3.718558073043823,3,3,3,2,-9.470000000000001,1.09,-1.99,-0.18,-0.01,-0.07000000000000001
3.738558053970337,3,3,3,2,-9.51,1.06,-1.93,-0.08,0,-0.06
3.758558034896851,3,3,3,2,-9.49,1.05,-1.98,-0.05,-0.04,-0.02
3.778558015823364,3,3,3,2,-9.49,1.13,-1.92,-0.09,-0.07000000000000001,-0.05
3.798557996749878,3,3,3,2,-9.470000000000001,1.14,-2.04,-0.14,0.02,-0.05
3.818557977676392,3,3,3,2,-9.49,1.06,-1.95,-0.14,-0.01,-0.01
3.838557958602905,3,3,3,2,-9.49,1.03,-1.9,-0.1,-0.08,-0.04
3.858557939529419,3,3,3,2,-9.51,1.06,-1.93,-0.08,-0.03,0
3.878557920455933,3,3,3,2,-9.51,1,-1.89,-0.14,-0.12,-0.02
3.898557901382446,3,3,3,2,-9.529999999999999,1.06,-2.04,-0.06,-0.06,0.02
3.91855788230896,3,3,3,2,-9.470000000000001,1.05,-1.96,-0.05,-0.01,0
3.938557863235474,3,3,3,2,-9.48,1.15,-2.01,-0.06,-0.01,-0.02
3.958557844161987,3,3,3,2,-9.49,1.16,-1.98,-0.1,-0.03,0.03
3.97855806350708,3,3,3,2,-9.529999999999999,1.05,-1.92,-0.15,-0.09,0.01
3.998558044433594,3,3,3,2,-9.5,1.04,-1.99,-0.01,-0.04,0.03
4.018558025360107,3,3,3,2,-9.5,1.12,-1.93,-0.03,-0.05,0.02
4.038558006286621,3,3,3,2,-9.52,1.05,-1.94,-0.05,-0.05,0.03
4.058557987213135,3,3,3,2,-9.48,1.13,-1.99,0.01,-0.08,0.04
4.078557968139648,3,3,3,2,-9.49,1.17,-1.92,-0.05,-0.1,0.03
4.098557949066162,3,3,3,2,-9.5,1.17,-2.01,-0.18,-0.04,0.05
4.118557929992676,3,3,3,2,-9.550000000000001,1.07,-1.97,-0.18,-0.08,0
4.138557910919189,3,3,3,2,-9.5,0.98,-1.93,-0.16,-0.03,0.04
4.158557891845703,3,3,3,2,-9.48,1.07,-1.9,-0.07000000000000001,-0.11,0.03
4.178557872772217,3,3,3,2,-9.470000000000001,1.07,-1.86,-0.19,-0.12,-0.04
4.19855785369873,3,3,3,2,-9.5,1.12,-2.01,-0.25,-0.13,-0.06
4.218558073043823,3,3,3,2,-9.51,1.18,-1.97,-0.2,-0.1,-0.1
4.238558053970337,3,3,3,2,-9.48,1.2,-1.88,-0.1,-0.07000000000000001,-0.08
4.258558034896851,3,3,3,2,-9.52,1.17,-1.98,-0.17,-0.08,-0.09
4.279557943344116,3,3,3,2,-9.5,1.06,-1.9,-0.17,-0.09,-0.08
4.29955792427063,3,3,3,2,-9.470000000000001,0.98,-2.01,-0.07000000000000001,-0.07000000000000001,-0.09
4.319557905197144,3,3,3,2,-9.5,1.13,-1.92,0.12,-0.06,-0.11
4.339557886123657,3,3,3,2,-9.5,1.12,-1.96,0.11,-0.1,-0.07000000000000001
4.359557867050171,3,3,3,2,-9.5,1.11,-2.07,0.09,-0.03,-0.04
4.379557847976685,3,3,3,2,-9.5,1.05,-2.01,0.24,0.03,-0.06
4.399558067321777,3,3,3,2,-9.470000000000001,1,-2.05,0.24,-0.06,-0.03
4.419558048248291,3,3,3,2,-9.52,0.98,-1.98,0.36,-0.05,-0.02
4.439558029174805,3,3,3,2,-9.539999999999999,1,-1.98,0.62,0.02,-0.07000000000000001
4.459558010101318,3,3,3,2,-9.529999999999999,0.9399999999999999,-1.88,0.77,-0.06,0.03
4.479557991027832,3,3,3,2,-9.550000000000001,0.85,-1.86,0.9399999999999999,-0.19,-0.02
4.499557971954346,3,3,3,2,-9.550000000000001,0.67,-1.93,0.88,-0.09,-0.2
4.519557952880859,3,3,3,2,-9.52,0.98,-1.87,1.02,-0.1,-0.29
4.539557933807373,3,3,3,2,-9.51,1.34,-1.99,1.03,-0.14,-0.3
4.559557914733887,3,3,3,2,-9.460000000000001,1.55,-2.02,0.86,-0.11,-0.22
4.5795578956604,3,3,3,2,-9.44,1.6,-1.98,0.57,-0.11,-0.18
4.599557876586914,3,3,3,2,-9.5,1.18,-1.88,0.26,-0.12,-0.18
4.619557857513428,3,3,3,2,-9.550000000000001,1.01,-1.79,0.05,-0.07000000000000001,-0.25
4.639557838439941,3,3,3,2,-9.59,0.73,-1.92,0.01,-0.01,-0.31
4.659558057785034,3,3,3,2,-9.57,0.59,-1.85,0.08,0.01,-0.36
4.679558038711548,3,3,3,2,-9.539999999999999,0.57,-1.73,0.2,0,-0.43
4.699558019638062,3,3,3,2,-9.43,0.67,-1.91,0.18,-0.02,-0.52
4.719558000564575,3,3,3,2,-9.58,0.92,-2.01,0.06,-0.1,-0.41
4.739557981491089,3,3,3,2,-9.5,1,-2.07,-0.08,-0.01,-0.25
4.759557962417603,3,3,3,2,-9.48,1.09,-2.11,0.05,0.02,-0.03
4.779557943344116,3,3,3,2,-9.52,0.92,-2.1,0.04,-0.13,0.18
4.79955792427063,3,3,3,2,-9.52,0.72,-2.21,0.09,-0.14,0.28
4.819557905197144,3,3,3,3,-9.5,0.66,-1.94,0.39,-0.21,0.35
4.839557886123657,3,3,3,3,-9.529999999999999,0.57,-1.88,0.84,-0.15,0.36
4.859557867050171,3,3,3,3,-9.529999999999999,0.61,-1.89,0.9,-0.23,0.23
4.879557847976685,3,3,3,3,-9.5,0.5600000000000001,-1.79,0.92,-0.24,0.11
4.899558067321777,3,3,3,3,-9.52,0.63,-1.84,0.61,-0.27,-0.32
4.919558048248291,3,3,3,3,-9.48,0.71,-1.81,0.34,-0.26,-0.51
4.939558029174805,3,3,3,3,-9.539999999999999,0.6899999999999999,-1.77,0,-0.21,-0.85
4.959558010101318,3,3,3,3,-9.52,0.61,-1.79,-0.12,-0.21,-1.37
4.979557991027832,3,3,3,3,-9.449999999999999,0.45,-1.66,-0.25,-0.16,-1.53
4.999557971954346,3,3,3,3,-9.470000000000001,-0.44,-1.31,-0.15,-0.32,-2.13
5.019557952880859,3,3,3,3,-9.58,-0.57,-1.07,-0.45,-0.54,-2.52
5.039557933807373,3,3,3,3,-9.27,-0.9399999999999999,-1,-0.11,-0.83,-3.58
5.059557914733887,3,3,3,3,-9.58,-2.16,-0.78,0.03,-1.7,-4.34
5.0795578956604,3,3,3,3,-9.27,-3.09,-0.05,0.6899999999999999,-2.14,-4.87
5.099557876586914,3,3,3,3,-9.4,-3.59,0.32,0.58,-3.92,-7.71
5.119557857513428,3,3,3,3,-9.050000000000001,-1.46,0.24,0.04,-2.79,-8.75
5.139557838439941,3,3,3,3,-8.539999999999999,0.29,-0.73,-2.33,-2.62,-9.34
5.159558057785034,3,3,3,3,-8.81,0.9399999999999999,-1.18,-5.77,-4.53,-8.890000000000001
5.179558038711548,3,3,3,3,-8.84,-0.9399999999999999,-0.92,-5.58,-5.23,-8.99
5.200557947158813,3,3,3,3,-8.68,-2.24,-1.54,-2.64,-4.38,-11.31
5.219558000564575,3,3,3,3,-8.789999999999999,-1.91,-0.95,-1.23,-3.29,-11.95
5.239557981491089,3,3,3,3,-9.050000000000001,-1.32,-1.2,1.41,-4.76,-11.82
5.260557889938354,3,3,3,3,-8.699999999999999,-1.55,-1.42,1.85,-5.75,-11.6
5.279557943344116,3,3,3,3,-8.609999999999999,-0.5,-0.22,1.43,-5.02,-12.07
5.300557851791382,3,3,3,3,-9.18,-0.18,-1.04,1.93,-3.34,-12.27
5.320558071136475,3,3,3,3,-9.779999999999999,-0.43,-1.56,0.93,-4.46,-11.61
5.340558052062988,3,3,3,3,-10.19,-0.67,-1.44,1.72,-4.77,-9.99
5.360558032989502,3,3,3,3,-10.57,-1.49,-0.96,-0.15,-3.59,-10.2
5.380558013916016,3,3,3,3,-11.04,-1.88,-0.77,-0.2,-2.21,-10.64
5.400557994842529,3,3,3,3,-9.460000000000001,-0.55,-1.31,-0.25,-0.68,-10.79
5.420557975769043,3,3,3,3,-9.51,-1.97,-1.4,-2.06,-0.49,-9.9
5.440557956695557,3,3,3,3,-10.19,-3.32,-0.9,-2.67,-1.04,-7.38
5.46055793762207,3,3,3,3,-10.5,-2.96,-1.11,-0.6899999999999999,-0.32,-5.14
5.480557918548584,3,3,3,3,-10.78,-1.44,-1.79,-0.32,0.58,-3.81
5.500557899475098,3,3,3,3,-12.97,-1.06,-2.71,-1.35,1.27,1.39
5.520557880401611,3,3,3,3,-14.76,-0.01,-3.39,-1.34,1.03,2.88
5.540557861328125,3,3,3,3,-16.74,2.06,-2.69,-5.03,1.85,6.95
5.560557842254639,3,3,3,3,-17.19,2.32,-1,-7.52,1.79,9.029999999999999
5.580558061599731,3,3,3,3,-18.36,3.6,1.39,-8.94,0.83,10.84
5.600558042526245,3,3,3,3,-20.2,2.63,0.48,-12.9,-5.01,18.47
5.620558023452759,3,3,3,3,-24.91,1.92,-3.92,-12.81,-6.44,20.69
5.640558004379272,3,3,3,3,-27.63,3.66,-5.28,-6.69,-1.93,24.32
5.660557985305786,3,3,3,3,-23.88,4.91,-8.1,-8.050000000000001,3.5,24.55
5.6805579662323,3,3,3,3,-23.52,2.15,-6.65,-8.83,4.58,25.03
5.700557947158813,3,3,3,3,-17.96,-6.51,-2.13,-1.96,7.86,23.23
5.720557928085327,3,3,3,3,-8.140000000000001,-7.07,-4.26,-12.86,6.9,20.98
5.740557909011841,3,3,3,3,-1.63,-31.38,5.86,-2.89,-3.82,7.15
5.760557889938354,3,3,3,3,0.85,-39.08,20.51,21.1,7.66,0.55
5.780557870864868,3,3,3,3,-8.4,10.59,8.77,19.54,4.57,0.1
5.800557851791382,3,3,3,3,-3.94,11.12,0.42,-16.51,-8.470000000000001,-10.24
5.820558071136475,3,3,3,3,2.45,-1.94,-7.56,-17.07,-9.390000000000001,-13.12
5.840558052062988,3,3,3,3,2.49,3.6,-7.8,5.6,-4.48,-6.03
5.860558032989502,3,3,3,3,1.17,7.56,-1.87,5.05,-2.86,-3.26
5.880558013916016,3,3,3,3,-0.37,4.35,-1.73,3.96,-2.78,-3.03
5.900557994842529,3,3,3,3,-0.26,0.55,-0.97,1.14,-4.29,-1.89
5.920557975769043,3,3,3,3,-0.38,-0.88,0.25,2.25,-3.62,-1.8
5.940557956695557,3,3,3,3,-0.29,-1.36,0.45,8.56,-1.25,-1.34
5.96055793762207,3,3,3,3,1.75,-0.46,-0.5,10.89,-0.04,-1.44
5.980557918548584,3,3,3,3,0.87,0.85,-0.79,10.4,0.47,-1.07
6.000557899475098,3,3,3,3,0.19,1.14,-0.38,6.72,-0.26,2
6.020557880401611,3,3,3,3,0.54,1.07,-0.27,5.16,-0.57,2.14
6.040557861328125,3,3,3,3,0.74,-1.58,-0.76,4.8,0.38,0.59
6.060557842254639,3,3,3,3,0.34,-4.26,-1.57,5.82,2.85,-0.97
6.080558061599731,3,3,3,3,-1.12,-4.77,-3.09,6.48,6.35,-2.11
6.100558042526245,3,3,3,3,-1.86,-12.48,5.99,-2.05,-0.77,-1.21
6.120558023452759,3,3,3,3,-11.95,-23.4,2.59,-2.5,-0.97,-3.09
6.140558004379272,3,3,3,3,-33.35,-3.9,-3.62,-9.18,-5.76,-6.23
6.160557985305786,3,3,3,3,-4.92,3.01,-8.02,-10.2,9,-14.32
6.1805579662323,3,3,3,3,-17.23,-31.71,3.6,-18.94,1.68,-19.43
6.200557947158813,3,3,3,3,8.26,39.35,-10.73,64.20999999999999,3.82,-11.21
6.220557928085327,3,3,3,2,4.13,39.35,-7.85,8.85,7.91,-11.79
6.240557909011841,3,3,3,2,-16.4,-6.38,-2.2,-40.58,-6.85,-1.07
6.260557889938354,3,3,3,2,-21.74,-4.3,-3.03,-14.03,-5.55,3.64
6.280557870864868,3,3,3,2,-19.96,4.26,-3.52,6.8,-0.33,-2.02
6.300557851791382,3,3,3,2,-8.66,1.57,-3.25,2.42,0.97,0.72
6.321557998657227,3,3,3,2,-10.88,-0.95,-2.68,0.9,-0.55,4.98
6.34155797958374,3,3,3,2,-11.88,0.25,-1.98,7.91,0.34,8.48
6.361557960510254,3,3,3,2,-9.630000000000001,4.14,-1.62,7.9,1.58,9.369999999999999
6.381557941436768,3,3,3,2,-9.16,4.84,-1.26,-0.76,2.29,7.6
6.401557922363281,3,3,3,2,-8.73,1.13,-1.58,-7.5,2.94,6.82
6.421557903289795,3,3,3,2,-8.56,-0.29,-1.27,-8.74,3.01,6.85
6.441557884216309,3,3,3,2,-7.99,-3.71,-0.23,-5.15,3,7.23
6.461557865142822,3,3,3,2,-7.34,-3.85,0.57,-0.74,2.25,7.34
6.481557846069336,3,3,3,2,-7.45,-3.22,0.39,1.73,2.57,6.49
6.501558065414429,3,3,3,2,-8.140000000000001,-2.34,-0.24,1.87,2.25,4.9
6.521558046340942,3,3,3,2,-8.16,-2.21,-0.23,0.5600000000000001,1.46,3.49
6.541558027267456,3,3,3,2,-8.109999999999999,-2.38,-1.32,-0.46,2.04,2.57
6.56155800819397,3,3,3,2,-8.41,-2.7,-1.36,0.01,1.98,2.24
6.581557989120483,3,3,3,2,-8.800000000000001,-3,-1.24,1.69,1.01,2.15
6.601557970046997,3,3,3,2,-9.25,-2.63,-0.67,4.21,0.49,1.51
6.621557950973511,3,3,3,2,-9.92,-1.6,-0.14,6.48,-0.14,0.96
6.641557931900024,3,3,3,2,-10.54,0.54,0.5,6.29,-0.53,0.74
6.661557912826538,3,3,3,2,-10.23,2.83,0.33,3.22,-0.25,0.58
6.681557893753052,3,3,3,2,-9.949999999999999,3.24,0.21,-1.14,-0.3,0.21
6.701557874679565,3,3,3,2,-9.77,1.09,-0.9,-3.65,-0.37,-0.24
6.721557855606079,3,3,3,2,-9.67,0.6899999999999999,-1.22,-4.02,0.05,-0.25
6.741558074951172,3,3,3,2,-10.07,-0.89,-1.31,-2.77,-0.21,0.1
6.761558055877686,3,3,3,2,-9.99,-0.86,-0.71,-1.03,0.12,0.41
6.781558036804199,3,3,3,2,-9.609999999999999,-0.33,-0.61,0.14,0.4,0.31
6.801558017730713,3,3,3,2,-9.65,0.21,-0.7,0.93,0.82,0.23
6.821557998657227,3,3,3,2,-9.75,0.8,-0.71,0.98,0.65,0.39
6.84155797958374,3,3,3,2,-9.57,0.58,-0.98,0.23,0.38,0.28
6.861557960510254,3,3,3,2,-9.609999999999999,0.09,-1.21,-0.38,0.11,-0.01
6.881557941436768,3,3,3,2,-9.710000000000001,0.14,-1.22,-0.37,-0.01,0.14
6.901557922363281,3,3,3,2,-9.890000000000001,0.24,-1.81,0.04,0.17,0.12
6.921557903289795,3,3,3,2,-9.630000000000001,0.4,-2,0.41,0.8100000000000001,0.25
6.941557884216309,3,3,3,2,-9.210000000000001,-0.05,-1.95,0.74,0.49,0.22
6.961557865142822,3,3,3,2,-9.33,-1.07,-1.29,0.9399999999999999,0.29,0.14
6.981557846069336,3,3,3,2,-9.130000000000001,-0.93,-0.6899999999999999,1.64,0.32,-0.31
7.001558065414429,3,3,3,2,-8.6,-1.31,0.39,1.71,0.35,-0.76
7.021558046340942,3,3,3,2,-8.82,-2.08,0.76,0.62,-0.5600000000000001,-1.55
7.041558027267456,3,3,3,2,-9.630000000000001,-1.95,0.01,0.65,-0.61,-2.56
7.06155800819397,3,3,3,2,-9.869999999999999,-1.53,-0.26,1.95,-0.53,-3.06
7.081557989120483,3,3,3,2,-9.460000000000001,-2.04,-0.2,2.97,-1.6,-3.64
7.101557970046997,3,3,3,2,-8.81,-3.6,0.53,2.55,-3.1,-4.86
7.121557950973511,3,3,3,2,-7.76,-2.91,0.45,4.14,-2.96,-7.01
7.141557931900024,3,3,3,2,-7.38,-1.09,0.1,6.96,-1.76,-8.630000000000001
7.161557912826538,3,3,3,2,-7.86,0.11,0.61,4.15,-4.35,-10.14
7.181557893753052,3,3,3,2,-7.89,-1,1.14,-2.33,-3.48,-10.37
7.201557874679565,3,3,3,2,-8.109999999999999,-2.6,0.3,-4.99,-3.07,-11.97
7.221557855606079,3,3,3,2,-8.68,-2.88,-0.26,-3.49,-3.34,-13.52
7.241558074951172,3,3,3,2,-8.57,-1.15,-1.69,-3,-3.63,-14.49
7.261558055877686,3,3,3,2,-9.449999999999999,-0.91,-1.42,-4.61,-3.32,-14.36
7.281558036804199,3,3,3,2,-11.3,-3.2,-0.78,-4.11,-1.89,-14.94
7.301558017730713,3,3,3,2,-11.2,-2.02,-0.93,-0.88,-1.16,-14.35
7.321557998657227,3,3,3,2,-9.880000000000001,-2.08,-1.95,0.75,-1.39,-13.09
7.34155797958374,3,3,3,2,-9.57,-1.68,-2.5,0.8100000000000001,-1.88,-10.64
7.362557888031006,3,3,3,2,-11.34,-2.86,-2.37,-0.44,-1.43,-8.25
7.38255786895752,3,3,3,2,-12.29,-1.42,-3.01,-0.07000000000000001,-1.06,-5.14
7.402557849884033,3,3,3,2,-13.9,0.18,-2.99,0.12,0.18,-1.86
7.422558069229126,3,3,3,2,-14.12,0.33,-3.12,-0.89,0.89,2.04
7.44255805015564,3,3,3,2,-15.85,-0.72,-1.93,-2.17,1.44,5.74
7.462558031082153,3,3,3,2,-17.31,-0.58,-0.16,-2.5,0.7,8.890000000000001
7.482558012008667,3,3,3,2,-18.29,3.23,0.02,-4.14,-0.63,12.15
7.502557992935181,3,3,3,2,-18,4.19,-0.47,-7.78,-2.38,16.31
7.522557973861694,3,3,3,2,-19.56,3.02,-4.93,-11.22,-4.8,21.48
7.542557954788208,3,3,3,2,-25.13,4.19,-6.47,-8.68,-5.28,26.04
7.562557935714722,3,3,3,2,-31.19,10.15,-5.16,-2.53,0.29,28.22
7.582557916641235,3,3,3,2,-31.9,11.03,-4.54,-5.48,5.42,32.13
7.602557897567749,3,3,3,2,-26.94,-4.74,-1.93,-10.77,7.71,30.99
7.622557878494263,3,3,3,2,-7.22,-14.8,-8.789999999999999,-27.48,9.699999999999999,29.01
7.642557859420776,3,3,3,2,5.43,-39.08,19.04,-16.88,-2.39,15.36
7.66255784034729,3,3,3,2,-4.19,-17.28,10.05,24.71,11.62,-4.72
7.682558059692383,3,3,3,2,-10.71,25.84,6.1,15,-6,-7.53
7.702558040618896,3,3,3,2,0.79,1.34,-5.38,-22.15,-9.369999999999999,-12.58
7.72255802154541,3,3,3,2,3.7,-1.23,-11.65,-16.85,-5.87,-18.03
7.742558002471924,3,3,3,2,2.92,7.05,-4.56,6.9,-2.46,-8.630000000000001
7.762557983398438,3,3,3,2,1.69,6.41,-2.11,10.51,-2.62,-3.38
7.782557964324951,3,3,3,2,1.39,3.7,-2.33,5.79,-3.79,-0.6
7.802557945251465,3,3,3,2,0.14,1.44,-1.12,3.65,-3.84,-0.02
7.822557926177979,3,3,3,2,-1.31,-0.18,0.77,4.63,-3.55,0.13
7.842557907104492,3,3,3,2,-0.06,-0.19,-0.29,6.56,-1.8,1.39
7.862557888031006,3,3,3,2,0.53,-2.55,-1.29,8.640000000000001,-0.38,1.43
7.88255786895752,3,3,3,2,1.29,-4.47,-2.35,11.85,2.42,0.65
7.902557849884033,3,3,3,2,0.75,-2.12,-1.64,14.46,3.8,0.31
7.922558069229126,3,3,3,2,0.13,0.57,-0.4,16.55,1.48,1.03
7.94255805015564,3,3,3,2,-0.75,1.63,0.39,13.65,0.76,0.38
7.962558031082153,3,3,3,2,-1.24,1.79,2.16,9.17,-0.04,-0.96
7.982558012008667,3,3,3,2,-1.18,-0.06,2.74,4.37,1,-1.72
8.002557992935181,3,3,3,2,-0.91,-3.07,0.71,-3.73,2.37,-2.7
8.022557973861694,3,3,3,2,-1.57,-2.3,2.42,-6.73,1.75,-1.94
8.042557954788208,3,3,3,2,-3.01,-15.23,9.880000000000001,-7.23,-2.96,-6.04
8.062557935714722,3,3,3,2,-22.29,17.96,-9.73,11.08,1.62,-6.39
8.082557916641235,3,3,3,2,-26.7,24.27,-5.85,-7.52,-8.67,-3.7
8.102557897567749,3,3,3,2,-5.15,-9.449999999999999,-11.51,-30.83,6,-7.64
8.122557878494263,3,3,3,2,-39.22,-39.08,-12.61,-30.64,6.56,-35.55
8.142557859420776,3,3,3,2,5.98,39.35,-17.71,104.2,10.17,-20.76
8.16255784034729,3,3,3,2,-10.75,39.34,-1.05,-3.02,4.59,-17.23
8.182558059692383,3,3,3,2,-12.82,-8.880000000000001,-5.69,-71.94,-7.5,-0.75
8.202558040618896,3,3,3,2,-37.33,-28.44,-2.68,-23.71,-5.25,6.09
8.22255802154541,3,3,3,2,-15.95,3.34,-2.96,16.31,1.88,-3.87
8.242558002471924,3,3,3,2,-7.32,5.9,-1.45,11.18,1.5,1.29
8.262557983398438,3,3,3,2,-12.49,-0.62,-0.51,2.89,-1.31,4.52
8.282557964324951,3,3,3,2,-12.28,-2.92,-0.83,8.15,-0.6,7.64
8.302557945251465,3,3,3,2,-10.69,0.59,-1.41,14.12,1.03,10.01
8.32355785369873,3,3,3,2,-9.199999999999999,3.42,-1.2,11.3,1.86,9.92
8.342557907104492,3,3,3,2,-8.18,3.27,-1.05,2.82,3.34,7.95
8.362557888031006,3,3,3,2,-8.09,0.5,-0.92,-4.13,4.9,6.62
8.383558034896851,3,3,3,2,-7.7,-1.87,-0.27,-6.36,5.32,6.61
8.403558015823364,3,3,3,2,-7.46,-4.05,1.15,-3.88,3.87,6.42
8.423557996749878,3,3,3,2,-7.87,-3.2,1.29,-1.4,2.67,5.74
8.443557977676392,3,3,3,2,-7.93,-1.19,0.89,-1.26,2.13,4.42
8.463557958602905,3,3,3,2,-7.89,-1.05,0.32,-3.39,2.93,2.51
8.483557939529419,3,3,3,2,-8.140000000000001,-3.55,-0.01,-6.15,2.03,0.85
8.503557920455933,3,3,3,2,-8.15,-4.46,-0.61,-5.73,1.59,-0.13
8.523557901382446,3,3,3,2,-9.140000000000001,-4.83,-1.09,-1.16,1.34,-0.36
8.54355788230896,3,3,3,2,-9.359999999999999,-2.78,-1.35,2.84,0.73,-0.18
8.563557863235474,3,3,3,2,-10.53,0.75,-1.35,4.67,1.03,0.26
8.583557844161987,3,3,3,2,-10.8,1.48,-0.98,2.63,0.35,0.74
8.60355806350708,3,3,3,2,-9.9,1.32,-1.39,0.83,0.68,1.05
8.623558044433594,3,3,3,2,-9.859999999999999,0.91,-1.6,0.77,1.21,1.43
8.643558025360107,3,3,3,2,-10.53,1.58,-1.47,0.7,1.46,2.07
8.663558006286621,3,3,3,2,-10.34,1.59,-1.18,-0.72,1.53,2.6
8.683557987213135,3,3,3,2,-9.98,0.9,-1.14,-2.47,1.55,2.95
8.703557968139648,3,3,3,2,-9.460000000000001,0.4,-1.36,-3.01,1.92,3.06
8.723557949066162,3,3,3,2,-9.380000000000001,-1.14,-1.25,-2.63,1.77,3.14
8.743557929992676,3,3,3,2,-9.470000000000001,-1.54,-1.55,-0.87,1.94,3.16
8.763557910919189,3,3,3,2,-8.970000000000001,-0.67,-1.72,1.44,1.65,3.18
8.783557891845703,3,3,3,2,-9.42,0.06,-1.5,2.91,1.52,3.01
8.803557872772217,3,3,3,2,-9.48,0.75,-1.3,2.67,1.2,3.23
8.82355785369873,3,3,3,2,-9.619999999999999,0.82,-1.38,1.65,1.04,3.1
8.843558073043823,3,3,3,2,-9.66,0.78,-1.51,0.61,0.71,2.6
8.863558053970337,3,3,3,2,-9.789999999999999,1.03,-1.77,-0.13,0.91,2.54
8.883558034896851,3,3,3,2,-9.17,-0.02,-1.88,-0.42,0.8,2.79
8.903558015823364,3,3,3,2,-9.119999999999999,-0.96,-1.82,0.38,0.6,2.55
8.923557996749878,3,3,3,2,-9.359999999999999,-2.01,-1.04,1.98,0.75,2.2
8.943557977676392,3,3,3,2,-9.52,-1.73,-0.22,3.46,0.42,2
8.963557958602905,3,3,3,2,-10.24,-0.13,-0.24,3.56,-0.08,1.39
8.983557939529419,3,3,3,2,-9.640000000000001,1.02,-0.9,2.68,0.03,1.13
9.003557920455933,3,3,3,2,-9.51,1.5,-1.57,2.22,0.44,0.88
9.023557901382446,3,3,3,2,-9.58,0.53,-1.67,1.52,-0.05,0.75
9.04355788230896,3,3,3,2,-9.5,0.15,-1.56,1.07,-0.58,0.31
9.063557863235474,3,3,3,2,-9.1,-0.58,-0.32,1.52,-0.14,-0.29
9.083557844161987,3,3,3,2,-9.18,-1.23,0.31,0.35,-0.3,-1.19
9.10355806350708,3,3,3,2,-9.369999999999999,-3.31,1.05,-0.38,-1.16,-2.47
9.123558044433594,3,3,3,2,-9.359999999999999,-4.95,1.65,-0.06,-2.62,-4.52
9.143558025360107,3,3,3,2,-8.130000000000001,-2.83,0.57,0.22,-3.02,-6.64
9.163558006286621,3,3,3,2,-8.32,-0.4,-0.37,3.85,-1.45,-6.2
9.183557987213135,3,3,3,2,-9.32,-1.88,0.54,1.56,-5.39,-6.59
9.203557968139648,3,3,3,2,-8.720000000000001,-3.99,1.35,-0.63,-7.43,-8.710000000000001
9.223557949066162,3,3,3,2,-7.75,-1.5,-0.24,0.5600000000000001,-4.71,-11.21
9.243557929992676,3,3,3,2,-6.7,1.29,-1.34,1.81,-3.81,-12.38
9.263557910919189,3,3,3,2,-8.26,0.51,0.79,-2.47,-6.47,-12.76
9.283557891845703,3,3,3,2,-9.24,-1.41,-0.78,-6.76,-3.15,-13.41
9.303557872772217,3,3,3,2,-10.03,-0.21,-1.29,-4.55,-4.18,-13.53
9.32355785369873,3,3,3,2,-10.03,1.12,-0.74,-2.69,-4.19,-13.64
9.343558073043823,3,3,3,2,-11.22,0.34,-1.63,-5.63,-3.37,-13.48
9.363558053970337,3,3,3,2,-11.08,-1.49,-1.4,-6.28,-1.97,-13.11
9.383558034896851,3,3,3,2,-12.37,-1.17,-1.61,-1.6,-0.62,-12.6
9.404557943344116,3,3,3,2,-12.02,1.15,-2.64,0.62,-0.2,-10.56
9.42455792427063,3,3,3,2,-12.31,2.53,-2.79,-1.03,0.39,-7.7
9.444557905197144,3,3,3,2,-12.07,0.54,-3.58,-3,0.83,-4.56
9.464557886123657,3,3,3,2,-14.19,-0.46,-3.86,-1.64,1.67,-0.26
9.484557867050171,3,3,3,2,-16.14,-0.1,-4.44,0,1.04,4.06
9.504557847976685,3,3,3,2,-17.59,0.6899999999999999,-2.92,0.77,0.96,6.57
9.524558067321777,3,3,3,2,-17.76,3.46,-0.51,-0.38,0.89,9.23
9.544558048248291,3,3,3,2,-17.98,6.55,0.3,-5.02,-0.66,14.3
9.564558029174805,3,3,3,2,-19.98,6.84,-1.62,-11,-3.78,21.66
9.584558010101318,3,3,3,2,-27.78,6.72,-7.64,-12.86,-4.61,26.57
9.604557991027832,3,3,3,2,-30.78,5.35,-9.92,-6.88,2.62,27.01
9.624557971954346,3,3,3,2,-28.27,0.89,-7.46,-2.29,8.77,30.73
9.644557952880859,3,3,3,2,-20.62,-1.92,-3.78,-2.89,11.09,32.19
9.664557933807373,3,3,3,2,-7.28,-3.95,1.73,-9.76,12.9,31.85
9.684557914733887,3,3,3,2,-8.289999999999999,-39.08,25.39,-4.3,-0.3,11.45
9.7045578956604,3,3,3,2,-8.17,-18.9,15.71,22.33,6.72,-3.73
9.724557876586914,3,3,3,2,-8.710000000000001,9,2.83,0.62,1.37,-11.61
9.744557857513428,3,3,3,2,-0.21,-1.11,-4.34,-16.51,-9.93,-16.61
9.764557838439941,3,3,3,2,2.95,3.35,-6.9,-7.72,-3.3,-15.94
9.784558057785034,3,3,3,2,1.64,5.93,-2.53,7.54,-3.02,-9.68
9.804558038711548,3,3,3,2,1.62,6.84,-3.65,-2.07,-5.02,-5.38
9.824558019638062,3,3,3,2,3.08,6.42,-4.67,-7.69,-6.82,-4.64
9.844558000564575,3,3,3,2,1.43,3.03,-3.53,-4.72,-5.48,-3.69
9.864557981491089,3,3,3,2,-0.21,-0.67,-0.97,4.93,-4.59,-3.05
9.884557962417603,3,3,3,2,-0.78,-1.54,-0.33,14.14,-1.34,-0.24
9.904557943344116,3,3,3,2,0.7,-0.79,-1.9,18.16,1.03,1.54
9.92455792427063,3,3,3,2,1.95,3.44,-2.12,18.95,0.57,3.74
9.944557905197144,3,3,3,2,1.77,2.66,-1.26,15.52,-1.1,4
9.964557886123657,3,3,3,2,0.62,0.46,0.97,8.32,-2.42,1.81
9.984557867050171,3,3,3,2,0.03,-0.18,1.47,3.66,-1.35,0.08
10.00455784797668,3,3,3,2,-1.22,-1.89,1.2,-0.68,2.67,-0.8100000000000001
10.02455806732178,3,3,3,2,-1.43,-3.31,2.54,-1.87,4.96,-0.71
10.04455804824829,3,3,3,2,-3.72,-15.32,9.19,-9.18,2.82,-1.49
10.0645580291748,3,3,3,2,-9.630000000000001,-23.31,4.29,-7.88,5.57,-2.97
10.08455801010132,3,3,3,2,-21.27,13.08,6.51,3.42,-14,-3.84
10.10455799102783,3,3,3,2,-39.12,-0.26,-1.54,-11.92,2.71,-12.34
10.12455797195435,3,3,3,2,-12.58,3.42,-10.77,-21.09,-2.26,-15.62
10.14455795288086,3,3,3,2,-24.14,-22.02,-12.72,-21.11,2.98,-16
10.16455793380737,3,3,3,2,-33.88,7.6,-2.37,36.91,0.13,-9.07
10.18455791473389,3,3,3,2,-3.6,35.47,-7.4,35.36,8,-3.02
10.2045578956604,3,3,3,2,-26.12,15.78,-1.77,-6.37,-1.72,2.7
10.22455787658691,3,3,3,2,-17.46,7.43,-1.83,-11.14,-0.4,3.53
10.24455785751343,3,3,3,2,-18.35,2.92,-2.78,-1.8,-0.06,6.42
10.26455783843994,3,3,3,2,-13.23,3.28,-3.71,4.7,1.87,9.380000000000001
10.28455805778503,3,3,3,2,-11.4,0.9399999999999999,-2.2,6.11,3.14,11.56
10.30455803871155,3,3,3,2,-10.1,-0.76,-1.19,8.08,3.82,12.76
10.32455801963806,3,3,3,2,-8.23,-0.37,0.6,8.93,4.15,11.97
10.34455800056458,3,3,3,2,-5.56,2.2,-0.21,6.07,4.7,9.07
10.36455798149109,3,3,3,2,-4.27,1.99,-1.09,-1.07,5.36,6.74
10.3845579624176,3,3,3,2,-3.39,-1.2,-1.54,-7.21,4.8,7.41
10.40455794334412,3,3,3,2,-3.62,-2.79,-1.41,-6.86,1.87,7.86
10.42555785179138,3,3,3,2,-4.78,-2.99,0.01,-3.31,0.6,7.49
10.44555807113647,3,3,3,2,-5.67,-1.78,-0.64,-0.73,0.5,6.82
10.46555805206299,3,3,3,2,-9.609999999999999,-1.28,0.08,1.46,1.28,3.74
10.4855580329895,3,3,3,2,-16.9,-4.18,1.6,2.66,0.59,2.91
10.50555801391602,3,3,3,2,-14.02,-2.79,3.28,5.44,0.88,1.61
10.52555799484253,3,3,3,2,-9.32,-2.75,-0.47,-1.09,4.04,-1.1
10.54555797576904,3,3,3,2,-8.609999999999999,-3.14,-2.56,-6.05,2.72,-2.1
10.56555795669556,3,3,3,2,-9.550000000000001,-2.11,-1.91,-4.6,-0.35,-2
10.58555793762207,3,3,3,2,-11.1,3.83,-1.91,2.45,-0.78,-1.65
10.60555791854858,3,3,3,2,-9.58,6.57,-1.37,1.12,-0.21,-0.71
10.6255578994751,3,3,3,2,-7.7,5.68,-1.62,-5.14,0.72,-0.57
10.64555788040161,3,3,3,2,-7.5,3.35,-1.96,-7.26,-0.01,-0.64
10.66555786132812,3,3,3,2,-9.140000000000001,0.93,-1.77,-6.88,-0.26,0.41
10.68555784225464,3,3,3,2,-10.24,-0.05,-1.36,-3.49,-0.41,1.93
10.70555806159973,3,3,3,2,-9.93,-1.18,-1.74,-0.43,-0.49,2.93
10.72555804252625,3,3,3,2,-9.640000000000001,-1.5,-1.21,2.37,-0.46,2.17
10.74555802345276,3,3,3,2,-9.779999999999999,-0.98,-1.35,3.91,-0.51,2.12
10.76555800437927,3,3,3,2,-10.42,0.41,-1.14,6.4,-0.08,2.12
10.78555798530579,3,3,3,2,-10.31,2.52,-1.11,6.37,-0.55,2.99
10.8055579662323,3,3,3,2,-9.66,2.88,-1.4,4.96,-0.34,3.06
10.82555794715881,3,3,3,2,-9.109999999999999,3.93,-1.13,3.83,0.39,2.55
10.84555792808533,3,3,3,2,-8.890000000000001,4.19,-1.32,-0.24,0.3,2.44
10.86555790901184,3,3,3,2,-8.880000000000001,3.33,-1.23,-2.18,-0.18,2.53
10.88555788993835,3,3,3,2,-9.029999999999999,2.09,-1.03,-7.04,-0.54,2.87
10.90555787086487,3,3,3,2,-9.26,-0.03,-1.45,-6.93,0.05,3
10.92555785179138,3,3,3,2,-9.93,-0.71,-1.85,-5.56,0.97,2.58
10.94555807113647,3,3,3,2,-9.94,-0.21,-1.9,1.72,0.76,0.64
10.96555805206299,3,3,3,2,-9.76,0.59,-1.71,3.53,0.73,0.39
10.9855580329895,3,3,3,2,-9.44,1.48,-1.18,4.2,-0.36,1.03
11.00555801391602,3,3,3,2,-9.56,2.03,-1.32,3.56,-0.7,1.65
11.02555799484253,3,3,3,2,-9.710000000000001,2.41,-1.43,2.91,-0.64,1.55
11.04555797576904,3,3,3,2,-9.449999999999999,2.3,-1.67,-0.37,0.07000000000000001,0.4
11.06555795669556,3,3,3,2,-9.27,2.16,-1.42,-1.49,0.42,-0.11
11.08555793762207,3,3,3,2,-9.27,1.9,-1.68,-2.53,0.58,0.02
11.10555791854858,3,3,3,2,-9.5,1.73,-1.91,-1.93,0.48,0.41
11.1255578994751,3,3,3,2,-9.390000000000001,1.64,-1.67,-1.1,0.29,0.51
11.14555788040161,3,3,3,2,-9.4,1.67,-1.82,1.28,0.03,0.99
11.16555786132812,3,3,3,2,-9.529999999999999,1.68,-1.37,1.76,-0.12,1.23
11.18555784225464,3,3,3,2,-9.41,1.81,-1.26,2.36,-0.4,1.41
11.20555806159973,3,3,3,2,-9.34,2.03,-1.25,2.38,-0.24,1.41
11.22555804252625,3,3,3,2,-9.449999999999999,2.28,-1.28,2.1,-0.21,1.25
11.24555802345276,3,3,3,2,-9.5,2.55,-1.55,0.55,0.09,0.91
11.26555800437927,3,3,3,2,-9.4,2.68,-1.65,-0.1,0.21,0.87
11.28555798530579,3,3,3,2,-9.33,2.47,-1.55,-1.82,0.42,0.55
11.3055579662323,3,3,3,2,-9.32,2.2,-1.59,-2.12,0.47,0.49
11.32555794715881,3,3,3,2,-9.33,1.87,-1.58,-2.13,0.49,0.52
11.34555792808533,3,3,3,2,-9.390000000000001,1.82,-1.71,-1.15,0.74,0.37
11.36555790901184,3,3,3,2,-9.529999999999999,1.94,-1.68,-0.6899999999999999,0.47,0.25
11.38555788993835,3,3,3,2,-9.539999999999999,2,-1.63,0.16,0.2,0.11
11.40555787086487,3,3,3,2,-9.44,2.12,-1.68,0.44,-0.1,0.13
11.42555785179138,3,3,3,2,-9.390000000000001,2.2,-1.65,0.42,-0.15,0.17
11.44655799865723,3,3,3,2,-9.33,2.09,-1.61,0.15,-0.16,0.22
11.46655797958374,3,3,3,2,-9.390000000000001,2.09,-1.51,0.19,-0.12,0.21
11.48655796051025,3,3,3,2,-9.390000000000001,2.01,-1.5,-0.02,-0.03,0.05
11.50655794143677,3,3,3,2,-9.390000000000001,1.94,-1.58,-0.21,0.09,0.01
11.52655792236328,3,3,3,2,-9.449999999999999,2.09,-1.58,-0.02,0.13,0.03
11.54655790328979,3,3,3,2,-9.42,2.22,-1.63,0.19,0.05,0.07000000000000001
11.56655788421631,3,3,3,2,-9.390000000000001,2.12,-1.56,0.23,0.04,0.07000000000000001
11.58655786514282,3,3,3,2,-9.33,1.95,-1.57,0.28,0.02,0.06
11.60655784606934,3,3,3,2,-9.359999999999999,2.03,-1.71,0.67,0.07000000000000001,0.12
11.62655806541443,3,3,3,2,-9.41,2.19,-1.67,0.82,0.05,0.17
11.64655804634094,3,3,3,2,-9.359999999999999,2.25,-1.71,0.76,-0.16,0.12
11.66655802726746,3,3,3,2,-9.35,2.13,-1.62,0.67,-0.2,0.12
11.68655800819397,3,3,3,2,-9.359999999999999,2.15,-1.56,0.64,-0.02,0.06
11.70655798912048,3,3,3,2,-9.4,2.2,-1.55,0.61,0.09,0.13
11.726557970047,3,3,3,2,-9.42,2.14,-1.47,0.53,0.09,0.14
11.74655795097351,3,3,3,2,-9.380000000000001,2.02,-1.64,0.35,0.16,0.1
11.76655793190002,3,3,3,2,-9.44,1.98,-1.56,0.36,0.13,0.13
11.78655791282654,3,3,3,2,-9.470000000000001,2.04,-1.66,0.45,0.05,0.11
11.80655789375305,3,3,3,2,-9.460000000000001,2.11,-1.65,0.33,-0.08,0.03
11.82655787467957,3,3,3,2,-9.41,2.11,-1.59,0.25,-0.12,0
11.84655785560608,3,3,3,2,-9.4,2.11,-1.63,-0.01,-0.14,-0.12
11.86655807495117,3,3,3,2,-9.359999999999999,2.13,-1.52,-0.13,-0.03,-0.12
11.88655805587769,3,3,3,2,-9.359999999999999,2.15,-1.66,-0.18,0.06,-0.13
11.9065580368042,3,3,3,2,-9.390000000000001,2.19,-1.63,-0.32,0.09,-0.06
11.92655801773071,3,3,3,2,-9.390000000000001,2.16,-1.6,-0.31,0.1,-0.02
11.94655799865723,3,3,3,2,-9.380000000000001,2.02,-1.61,-0.24,0,-0.08
11.96655797958374,3,3,3,2,-9.390000000000001,2,-1.57,0.01,0.01,-0.07000000000000001
11.98655796051025,3,3,3,2,-9.359999999999999,2.07,-1.63,0.21,-0.06,-0.09
12.00655794143677,3,3,3,2,-9.41,2.18,-1.58,0.26,-0.02,-0.13
12.02655792236328,3,3,3,2,-9.41,2.18,-1.54,0.23,-0.03,-0.1
12.04655790328979,3,3,3,2,-9.35,2.14,-1.61,-0.04,0.1,-0.09
12.06655788421631,3,3,3,2,-9.34,2.09,-1.55,-0.17,0.13,-0.04
12.08655786514282,3,3,3,2,-9.4,2.1,-1.69,-0.24,0.17,-0.04
12.10655784606934,3,3,3,2,-9.380000000000001,2.09,-1.64,-0.19,0.21,0.01
12.12655806541443,3,3,3,2,-9.390000000000001,2.07,-1.64,-0.26,0.15,0.05
12.14655804634094,3,3,3,2,-9.41,2.02,-1.65,-0.08,0.12,0.05
12.16655802726746,3,3,3,2,-9.41,2.06,-1.53,0.05,-0.01,0.1
12.18655800819397,3,3,3,2,-9.44,2.14,-1.66,0.15,-0.03,0.14
12.20655798912048,3,3,3,2,-9.4,2.16,-1.6,0.06,0.02,0.23
12.226557970047,3,3,3,2,-9.359999999999999,2.16,-1.59,-0.1,0.04,0.21
12.24655795097351,3,3,3,2,-9.34,2.14,-1.64,-0.13,-0.01,0.25
12.26655793190002,3,3,3,2,-9.359999999999999,2.11,-1.59,-0.18,0.08,0.32
12.28655791282654,3,3,3,2,-9.4,2.12,-1.66,-0.2,0.11,0.31
12.30655789375305,3,3,3,2,-9.359999999999999,2.11,-1.57,-0.2,0.06,0.26
12.32655787467957,3,3,3,2,-9.449999999999999,1.89,-1.53,-0.29,0.04,0.21
12.34655785560608,3,3,3,2,-9.43,1.88,-1.59,-0.24,0.03,0.14
12.36655807495117,3,3,3,3,-9.41,2.01,-1.47,0.04,0.06,0.06
12.38655805587769,3,3,3,3,-9.41,2.12,-1.67,0.1,0.06,0.14
12.4065580368042,3,3,3,3,-9.390000000000001,2.12,-1.66,-0.1,0.07000000000000001,0.08
12.42655801773071,3,3,3,3,-9.300000000000001,2.1,-1.61,-0.2,0.04,0.06
12.44655799865723,3,3,3,3,-9.35,2.18,-1.66,-0.25,0.01,0.05
12.46655797958374,3,3,3,3,-9.34,2.19,-1.59,-0.35,0.02,0.12
12.48755788803101,3,3,3,3,-9.35,2.23,-1.74,-0.36,0.06,0.15
12.50755786895752,3,3,3,3,-9.31,2.19,-1.57,-0.28,0.06,0.22
12.52755784988403,3,3,3,3,-9.35,2.1,-1.53,0.14,-0.06,0.32
12.54755806922913,3,3,3,3,-9.42,2.22,-1.58,0.9,-0.05,0.33
12.56755805015564,3,3,3,3,-9.41,2.58,-1.66,0.91,-0.32,0
12.58755803108215,3,3,3,3,-9.17,2.55,-2,0.33,-0.22,0.25
12.60755801200867,3,3,3,3,-9.15,2.39,-1.71,0.07000000000000001,-0.21,0.88
12.62755799293518,3,3,3,3,-9.300000000000001,2.06,-1.5,0.29,-0.59,1.21
12.64755797386169,3,3,3,3,-9.42,1.95,-1.84,0.68,-0.46,1.05
12.66755795478821,3,3,3,3,-9.57,2.07,-1.99,0.51,-0.28,1.04
12.68755793571472,3,3,3,3,-9.5,1.92,-1.98,-0.08,-0.21,0.88
12.70755791664124,3,3,3,3,-9.27,1.76,-1.53,-0.15,-0.28,0.54
12.72755789756775,3,3,3,3,-9.25,2.05,-1.45,0.12,-0.51,0.39
12.74755787849426,3,3,3,3,-9.32,2.35,-1.61,-0.16,-0.59,0.54
12.76755785942078,3,3,3,3,-9.380000000000001,2.29,-1.65,-1.25,-0.31,0.6899999999999999
12.78755784034729,3,3,3,3,-9.33,2.1,-1.93,-1.99,-0.15,0.61
12.80755805969238,3,3,3,3,-9.19,1.98,-2,-1.71,-0.3,0.57
12.8275580406189,3,3,3,3,-9.43,1.74,-1.99,-0.86,-0.5600000000000001,0.71
12.84755802154541,3,3,3,3,-9.710000000000001,1.47,-1.8,0.47,-0.95,0.98
12.86755800247192,3,3,3,3,-9.76,0.89,-1.49,1.7,-1.26,0.91
12.88755798339844,3,3,3,3,-9.789999999999999,0.53,-1.45,2.51,-1.64,0.5
12.90755796432495,3,3,3,3,-9.98,0.06,-1.05,3.17,-2.12,0.2
12.92755794525146,3,3,3,3,-10.07,0.03,-0.88,4.25,-2.35,-0.21
12.94755792617798,3,3,3,3,-10.22,0.15,-0.6899999999999999,4.78,-2.52,-0.86
12.96755790710449,3,3,3,3,-10.19,-0.01,-0.46,4.57,-3.14,-1.74
12.98755788803101,3,3,3,3,-10.41,-1.16,-0.06,4.02,-3.6,-2.99
13.00755786895752,3,3,3,3,-10.62,-1.57,-0.18,3.9,-3.81,-4.73
13.02755784988403,3,3,3,3,-11.7,-1.61,-0.01,3.72,-4.3,-6.19
13.04755806922913,3,3,3,3,-11.75,-1.86,0.11,3.52,-5.64,-7.75
13.06755805015564,3,3,3,3,-11.43,-4.58,-0.02,1.74,-5.76,-10.55
13.08755803108215,3,3,3,3,-11.2,-4.93,-0.26,-1.36,-4.69,-13.71
13.10755801200867,3,3,3,3,-10.25,-1.57,-0.8,0.96,-4.24,-12.04
13.12755799293518,3,3,3,3,-11,0.32,-0.93,4.54,-3.49,-11.97
13.14755797386169,3,3,3,3,-10.94,3.95,0.82,2.19,-6.78,-11.21
13.16755795478821,3,3,3,3,-10.69,5.65,-0.9,-2.14,-4.64,-10.52
13.18755793571472,3,3,3,3,-10.44,2.93,-2.68,-5.75,-1.68,-11.3
13.20755791664124,3,3,3,3,-10.48,0.86,-2.4,-7.48,-1.29,-13.53
13.22755789756775,3,3,3,3,-10.07,0,-2.51,-5.95,-0.95,-14.79
13.24755787849426,3,3,3,3,-8.890000000000001,0.12,-2.38,-2.99,-0.24,-14.64
13.26755785942078,3,3,3,3,-8.92,0.1,-1.97,0.14,0.87,-13.55
13.28755784034729,3,3,3,3,-8.41,-0.28,-1.93,3.07,1.07,-12.26
13.30755805969238,3,3,3,3,-8.24,-0.96,-1.42,6.35,1.63,-11.31
13.3275580406189,3,3,3,3,-8.119999999999999,-1.09,-1.01,9.33,2.41,-9.85
13.34755802154541,3,3,3,3,-8.1,-1.12,-0.75,12.01,2.72,-8.75
13.36755800247192,3,3,3,3,-7.95,-1.48,-0.42,13.13,3.04,-8.390000000000001
13.38755798339844,3,3,3,3,-7.95,-1.14,-0.47,14.78,3.22,-7.9
13.40755796432495,3,3,3,3,-7.67,-0.62,-0.06,14.64,2.34,-6.48
13.42755794525146,3,3,3,2,-7.42,-1.08,-0.16,12.79,0.97,-4.86
13.44755792617798,3,3,3,2,-7.34,-1.2,0.6,9.6,0.92,-4.07
13.46755790710449,3,3,3,2,-7.52,-1.54,0.8,7.22,0.21,-2.11
13.48755788803101,3,3,3,2,-9.27,-3.4,1.86,4.86,1.05,-0.85
13.50855803489685,3,3,3,2,-10.51,-5.82,3.71,1.67,0.86,-1.3
13.52855801582336,3,3,3,2,-11.28,-8.42,3.04,1.41,1.15,-3.01
13.54855799674988,3,3,3,2,-10.42,-6.87,1.7,0.77,1.49,-4.83
13.56855797767639,3,3,3,2,-6.57,-2.42,0.15,-3.22,2.91,-4.05
13.58855795860291,3,3,3,2,-6.29,-1.89,-1.43,-1.74,6.94,2.69
13.60855793952942,3,3,3,2,-8.31,-1.3,-2.72,3.9,9.85,6.5
13.62855792045593,3,3,3,2,-10.99,-1.39,-1.26,9.84,5.34,7.27
13.64855790138245,3,3,3,2,-15.37,-10.11,3.98,13.1,0.97,4.88
13.66855788230896,3,3,3,2,-18.15,-7.37,3.12,15.32,1.94,4.04
13.68855786323547,3,3,3,2,-11.85,3.41,2.93,10.31,1.02,6.78
13.70855784416199,3,3,3,2,-8.07,7.12,-2.67,4.58,8.32,7.96
13.72855806350708,3,3,3,2,-6.49,2.34,-6.8,-3.07,12.03,7.7
13.74855804443359,3,3,3,2,-5.77,0.12,-5.44,-4.71,8.880000000000001,6.6
13.76855802536011,3,3,3,2,-10.17,3.55,-3.12,-2.34,5.41,7.24
13.78855800628662,3,3,3,2,-11.03,3.19,-2.11,-1.82,4.63,8.81
13.80855798721313,3,3,3,2,-10.81,1.75,-1.68,-3,6.16,10.21
13.82855796813965,3,3,3,2,-9.93,1.04,-2.14,-2.9,6.56,10.44
13.84855794906616,3,3,3,2,-8.81,-0.44,-3.97,-2.25,6.33,11.17
13.86855792999268,3,3,3,2,-8.35,-0.88,-4.22,-0.17,6.04,11.07
13.88855791091919,3,3,3,2,-8.82,-0.3,-2.66,2.31,5.74,10.87
13.9085578918457,3,3,3,2,-8.99,-0.03,-1.74,2.96,5.19,10.56
13.92855787277222,3,3,3,2,-10.1,0.27,-1.18,0.48,4.5,8.99
13.94855785369873,3,3,3,2,-9.65,0.47,-2.23,-3.15,4.25,7.38
13.96855807304382,3,3,3,2,-8.56,-0.55,-3.29,-6.28,4.65,5.78
13.98855805397034,3,3,3,2,-8.48,-0.88,-3.48,-8.289999999999999,4.32,4.71
14.00855803489685,3,3,3,2,-9.119999999999999,-0.46,-3.17,-8.66,3.72,4.42
14.02855801582336,3,3,3,2,-9.74,-0.43,-2.91,-7.96,3.25,4.19
14.04855799674988,3,3,3,2,-9.35,0.86,-3.08,-6.28,3.37,4.59
14.06855797767639,3,3,3,2,-8.85,1.07,-3.93,-4.75,3.46,5.47
14.08855795860291,3,3,3,2,-8.93,0.32,-3.47,-3.15,3.26,6.19
14.10855793952942,3,3,3,2,-9.050000000000001,-0.49,-2.88,-1.94,2.97,6.66
14.12855792045593,3,3,3,2,-9.27,-1.03,-2.55,-1.65,2.29,6.39
14.14855790138245,3,3,3,2,-9.5,-0.52,-2.16,-2.04,1.67,6
14.16855788230896,3,3,3,2,-10.54,2.22,-1.8,-3.06,0.5600000000000001,5.98
14.18855786323547,3,3,3,2,-9.75,2.31,-2.2,-6.36,-0.12,6.7
14.20855784416199,3,3,3,2,-9.17,0.92,-1.9,-10.12,0.62,7.07
14.22855806350708,3,3,3,2,-8.91,1.17,-2.5,-11.68,2.91,6.59
14.24855804443359,3,3,3,2,-9.640000000000001,2.37,-2.85,-11.05,4.17,5.63
14.26855802536011,3,3,3,2,-9.48,1.8,-3.45,-10.43,3.07,5.01
14.28855800628662,3,3,3,2,-9.44,1.42,-2.61,-8.880000000000001,1.79,5.56
14.30855798721313,3,3,3,2,-8.92,1.29,-2.05,-7.33,1.76,6.36
14.32855796813965,3,3,3,2,-9.220000000000001,1.77,-2.43,-6.74,2.44,6.49
14.34855794906616,3,3,3,2,-9.859999999999999,2.06,-3.23,-6.6,2.64,6.64
14.36855792999268,3,3,3,2,-10.2,1.75,-3.31,-6.23,1.68,6.45
14.38855791091919,3,3,3,2,-10.3,1.7,-3.1,-6.08,1.05,5.67
14.4085578918457,3,3,3,2,-10.3,1.75,-2.63,-7.44,1.27,4.94
14.42855787277222,3,3,3,2,-10.51,0.26,-2.45,-10.55,1.7,4.62
14.44855785369873,3,3,3,2,-11.46,-0.91,-2.01,-11.72,2.43,4.57
14.46855807304382,3,3,3,1,-11.86,-1.84,-1.51,-9.57,0.85,4.2
14.48855805397034,3,3,3,1,-12.27,-2.52,-0.84,-6.52,-1.14,3.39
14.50855803489685,3,3,3,1,-12.84,-3.14,0.24,-2.43,-3.79,1.38
14.52955794334412,3,3,3,1,-12.67,-2.63,1.39,0.48,-7.42,-2.29
14.54955792427063,3,3,3,1,-11.2,-3.69,1.4,-0.89,-9.31,-7.32
14.56955790519714,3,3,3,1,-10.65,-3.62,2.95,-5.25,-9.73,-10.77
14.58955788612366,3,3,3,1,-10.86,-3.2,-0.41,-13.47,-10.05,-10.95
14.60955786705017,3,3,3,1,-11.71,-1.89,-1.88,-10.45,-9.73,-14.71
14.62955784797668,3,3,3,1,-12.22,1.45,-2.87,-4.15,-8.539999999999999,-17.31
14.64955806732178,3,3,3,1,-12.25,3.77,-2.95,-1.87,-7.07,-18.28
14.66955804824829,3,3,3,1,-12.82,5.28,-2.64,-2.67,-5.55,-19
14.6895580291748,3,3,3,1,-12.74,4.95,-2.57,-3.56,-5.28,-20.9
14.70955801010132,3,3,3,1,-12.64,5.82,-2.24,-2.26,-4.88,-20.97
14.72955799102783,3,3,3,1,-11.55,4.93,-2.71,-2.12,-3.19,-20.81
14.74955797195435,3,3,3,1,-10.21,4.48,-2.97,-1.66,-2.79,-20.9
14.76955795288086,3,3,3,1,-9.18,3.44,-3.15,4.24,-1.25,-20.87
14.78955793380737,3,3,3,1,-8.75,3.79,-3.27,9.109999999999999,-0.73,-20.42
14.80955791473389,3,3,3,1,-8.539999999999999,4.48,-2.98,12.17,-0.45,-19.5
14.8295578956604,3,3,3,1,-8.130000000000001,4.37,-2.68,12.75,-1.02,-18.05
14.84955787658691,3,3,3,1,-7.96,3.58,-2.18,13.27,-1.23,-16.4
14.86955785751343,3,3,3,1,-7.55,3.76,-2.35,13.89,-0.26,-14.48
14.88955783843994,3,3,3,1,-7.12,3.73,-2.52,13.92,0.33,-12.64
14.90955805778503,3,3,3,1,-6.59,2.98,-2.17,10.91,0.86,-10.62
14.92955803871155,3,3,3,1,-6.08,2.62,-1.94,9.94,1.84,-8.94
14.94955801963806,3,3,3,1,-5.97,2.34,-1.97,8.1,3.68,-7.23
14.96955800056458,3,3,3,1,-6.5,0.77,-1.5,5.33,5.3,-4.42
14.98955798149109,3,3,3,1,-6.98,0.53,-0.9399999999999999,5.36,4.83,-1.28
15.0095579624176,3,3,3,1,-7.96,-0.12,-0.39,5.76,3.79,1.62
15.02955794334412,3,3,3,1,-8.890000000000001,-1.76,0.58,7.54,2.8,2.09
15.04955792427063,3,3,3,1,-10.21,-5.12,1.87,9.9,3.06,0.18
15.06955790519714,3,3,3,1,-11.7,-8.07,3.63,11.16,2.05,-1.7
15.08955788612366,3,3,3,1,-13.75,-15.64,4.72,13.31,-2.64,-2.76
15.10955786705017,3,3,3,1,-12.45,-11.96,3.24,8.380000000000001,-5.62,-6.61
15.12955784797668,3,3,3,1,-9.56,2.01,-0.03,4.03,-2.24,-3.97
15.14955806732178,3,3,3,1,-7.67,0.48,-1.09,1.7,3.39,-2.92
15.16955804824829,3,3,3,0,-6.89,0.97,-2.21,-6.14,11.21,-4.01
15.1895580291748,3,3,3,0,-12.05,-4.33,1.33,-6.7,7.08,5.71
15.20955801010132,3,3,3,0,-17,-13.57,2.76,4.51,3.07,0.66
15.22955799102783,3,3,3,0,-14.39,0.08,-0.42,12.1,6,7.1
15.24955797195435,3,3,3,0,-8.550000000000001,9.09,-2.32,9.4,4.29,10.18
15.26955795288086,3,3,3,0,-6.52,5.73,-7.61,1.4,9.720000000000001,11.52
15.28955793380737,3,3,3,0,-6.64,1.06,-5.54,-0.31,10.18,12.05
15.30955791473389,3,3,3,0,-9,2.87,-5.2,1.57,8.529999999999999,12.78
15.3295578956604,3,3,3,0,-9.59,2.79,-2.88,1.87,6.76,11.95
15.34955787658691,3,3,3,0,-10.54,0.61,-1.15,1.86,5.89,12.15
15.36955785751343,3,3,3,0,-10.31,2.55,-2.02,2.52,6.78,13.24
15.38955783843994,3,3,3,0,-9.19,2.01,-3,1.07,6.46,13.03
15.40955805778503,3,3,3,0,-8.9,1.51,-4.14,-0.31,6.49,12.81
15.42955803871155,3,3,3,0,-8.93,1.99,-3.97,-1.06,6.55,12.83
15.44955801963806,3,3,3,0,-9.41,2.56,-2.62,-3.34,5.19,12.87
15.46955800056458,3,3,3,0,-9.279999999999999,1.03,-2.72,-6.36,3.52,13.1
15.48955798149109,3,3,3,0,-9.42,0.15,-2.92,-11.82,4.16,12.65
15.5095579624176,3,3,3,0,-9.33,-1.75,-3.18,-15.86,3.65,12.13
15.52955794334412,3,3,3,0,-9.19,-2.9,-3.13,-15.78,3.8,11.95
15.55055785179138,3,3,3,0,-9.83,-1.73,-2.39,-12.84,5.65,10.91
15.57055807113647,3,3,3,0,-10.49,-0.57,-3.24,-9.640000000000001,4.94,8.140000000000001
15.59055805206299,3,3,3,0,-10.22,0.92,-2.63,-7.02,2.91,5.62
15.6105580329895,3,3,3,0,-9.68,1.42,-2.11,-6.8,1.79,4.88
15.63055801391602,3,3,3,0,-9.130000000000001,1.2,-1.7,-8.199999999999999,2.26,4.99
15.65055799484253,3,3,3,0,-9.1,1.55,-1.88,-9.880000000000001,3.49,5.15
15.67055797576904,3,3,3,0,-9.460000000000001,2,-2.7,-11.66,4.2,5.19
15.69055795669556,3,3,3,0,-9.44,1.65,-2.7,-10.95,3.22,5.45
15.71055793762207,3,3,3,0,-9.1,1.58,-2.7,-7.91,2.11,6.18
15.73055791854858,3,3,3,0,-9.279999999999999,1.68,-2.56,-5.22,1.95,6.63
15.7505578994751,3,3,3,0,-9.65,2.09,-2.33,-4.46,1.93,6.76
15.77055788040161,3,3,3,0,-9.48,1.54,-1.98,-5.73,1.9,6.8
15.79055786132812,3,3,3,0,-9.289999999999999,0.41,-1.83,-7.51,2.4,7.01
15.81055784225464,3,3,3,0,-9.02,0.05,-1.88,-8.050000000000001,2.77,7.19
15.83055806159973,3,3,3,0,-9.58,-0.08,-2.88,-7.16,1.45,7.21
15.85055804252625,3,3,3,0,-10.81,0.26,-2.6,-4.7,0.12,6.38
15.87055802345276,3,3,3,0,-11.44,0.5,-2.76,-4.7,0.5600000000000001,5.3
15.89055800437927,3,3,3,0,-12.63,0.2,-2.34,-6.39,1.13,4.13
15.91055798530579,3,3,3,0,-12.59,-2.37,-0.88,-8.220000000000001,0.3,2.85
15.9305579662323,3,3,3,1,-13.2,-3.96,0.19,-8.039999999999999,-2.1,1.1
15.95055794715881,3,3,3,1,-14.28,-5.65,1.97,-6.03,-5.56,-2.25
15.97055792808533,3,3,3,1,-14.12,-4.91,2.47,-4.4,-8.66,-7.6
15.99055790901184,3,3,3,1,-11.1,-4.97,2.49,-9.859999999999999,-10.83,-11.76
16.01055788993835,3,3,3,1,-11.04,-4.14,-1.78,-14.36,-9.56,-14.78
16.03055787086487,3,3,3,1,-13.78,0.66,-3.44,-6.86,-8.83,-17.54
16.05055785179138,3,3,3,1,-14.57,2.23,-3.49,-1.99,-8.130000000000001,-18.84
16.07055807113647,3,3,3,1,-13.67,5.49,-3.02,0.8100000000000001,-6.96,-20.31
16.09055805206299,3,3,3,1,-11.65,5.28,-2.62,-1.47,-5.26,-22.21
16.1105580329895,3,3,3,1,-11.48,4.35,-2.01,-1.73,-3.9,-23.37
16.13055801391602,3,3,3,1,-11.37,4.94,-2.24,0.12,-2.51,-22.86
16.15055799484253,3,3,3,1,-10.49,5.17,-2.91,1.29,-1.52,-22.59
16.17055797576904,3,3,3,1,-10.11,3.95,-3.62,2.29,-0.35,-23.12
16.19055795669556,3,3,3,1,-9.5,3.29,-3.6,4.02,-0.07000000000000001,-22.72
16.21055793762207,3,3,3,1,-8.460000000000001,3.49,-3.11,7.47,-0.09,-22.55
16.23055791854858,3,3,3,1,-7.9,3.59,-2.75,11.05,-0.71,-21.18
16.2505578994751,3,3,3,1,-7.44,4.34,-2.78,14.7,-0.62,-18.7
16.27055788040161,3,3,3,1,-7.11,5.23,-2.57,16.82,-0.09,-16.75
16.29055786132812,3,3,3,1,-6.74,5.07,-2.51,16.83,0.43,-13.95
16.31055784225464,3,3,3,1,-6.58,5.05,-2.72,15.89,1.81,-11.32
16.33055806159973,3,3,3,1,-6.26,4.94,-2.62,12.58,2.96,-8.42
16.35055804252625,3,3,3,1,-5.8,3.56,-2.02,8.92,2.53,-5.84
16.37055802345276,3,3,3,1,-4.71,1.99,-1.29,8.880000000000001,3.72,-3.98
16.39055800437927,3,3,3,1,-5.02,-0.14,-1.66,8.470000000000001,10.01,-1.27
16.41055798530579,3,3,3,1,-7.5,-1.55,0.18,9.35,8.93,-0.52
16.4305579662323,3,3,3,1,-9.289999999999999,-4.46,2.45,14.28,4.12,0.9399999999999999
16.45055794715881,3,3,3,1,-12.76,-9.390000000000001,6.65,18.29,2.83,-0.9399999999999999
16.47055792808533,3,3,3,1,-15.42,-13.59,5.86,17.36,0.7,-2.95
16.49055790901184,3,3,3,1,-12.88,-11.01,3.53,5.65,-5.95,-4.95
16.51055788993835,3,3,3,1,-10.44,-3.02,0.78,2.71,-3.36,-4.43
16.53055787086487,3,3,3,1,-6.81,-1.82,-2.99,-3.42,5.27,-7.29
16.55055785179138,3,3,3,1,-6.4,2.8,-3.5,-17.97,6.1,4.35
16.57155799865723,3,3,3,1,-15.19,-8.5,5.05,-11.3,5.24,6.02
16.59155797958374,3,3,3,1,-18.5,-13.17,4.6,10.54,4.12,6.59
16.61155796051025,3,3,3,1,-10.85,8.9,-2.23,12.81,2.58,9.18
16.63155794143677,3,3,3,1,-10.23,9.91,-6.9,0.47,9.359999999999999,9.34
16.65155792236328,3,3,3,1,-8.42,5.11,-6.75,-4.71,9.77,12.98
16.67155790328979,3,3,3,1,-8.85,2.44,-5.52,-3.4,9.06,14.38
16.69155788421631,3,3,3,1,-9.31,4.49,-4.35,-0.48,7.21,13.82
16.71155786514282,3,3,3,1,-9.19,1.9,-3.37,-0.84,6.67,13.83
16.73155784606934,3,3,3,1,-10.04,0.82,-1.69,1.5,6.49,14.32
16.75155806541443,3,3,3,1,-9.91,1.77,-2.17,1.08,6.39,14.63
16.77155804634094,3,3,3,1,-8.970000000000001,1.31,-2.85,0.51,6.27,14.71
16.79155802726746,3,3,3,1,-8.880000000000001,0.21,-3.02,0.44,6.02,14.47
16.81155800819397,3,3,3,1,-8.609999999999999,0.01,-3.12,0.5600000000000001,5.7,14.38
16.83155798912048,3,3,3,1,-8.76,-0.72,-2.33,-1.98,4.89,13.27
16.851557970047,3,3,3,1,-9.460000000000001,-1.9,-1.75,-4.49,4.85,12.17
16.87155795097351,3,3,3,1,-10.24,-2.38,-1.55,-5.3,4.81,11.35
16.89155793190002,3,3,3,1,-10.36,-2.61,-1.57,-7.94,3.85,8.1
16.91155791282654,3,3,3,1,-9.859999999999999,-1.83,-1.61,-7.16,3.78,7.49
16.93155789375305,3,3,3,1,-9.210000000000001,-0.9,-2.39,-5.74,2.95,7.02
16.95155787467957,3,3,3,1,-8.630000000000001,1.33,-2.8,-6.61,2.48,6.96
16.97155785560608,3,3,3,1,-9.02,2.14,-2.54,-7.9,2.35,7.07
16.99155807495117,3,3,3,1,-8.9,1.98,-2.76,-11.97,2.09,8.109999999999999
17.01155805587769,3,3,3,1,-8.449999999999999,1.06,-2.87,-12.7,2.78,8.34
17.0315580368042,3,3,3,1,-8.74,1.67,-2.97,-10.52,3.95,7.88
17.05155801773071,3,3,3,1,-9.1,1.72,-3.03,-7.68,2.98,7.65
17.07155799865723,3,3,3,1,-9.44,2.21,-2.32,-6.76,2.72,7.91
17.09155797958374,3,3,3,1,-9.609999999999999,2.5,-2.02,-6.2,2.88,8.529999999999999
17.11155796051025,3,3,3,1,-9.4,1.78,-2.07,-7.62,3.45,8.32
17.13155794143677,3,3,3,1,-9.84,1.01,-2.02,-9.050000000000001,3.62,7.9
17.15155792236328,3,3,3,1,-9.51,0.18,-2.11,-8.92,3.22,8.01
17.17155790328979,3,3,3,1,-9.140000000000001,-0.35,-3.07,-8.67,2.52,8.07
17.19155788421631,3,3,3,1,-11.12,0.72,-3.07,-4.67,0.12,6.44
17.21155786514282,3,3,3,1,-11.64,1.3,-2.82,-5.77,0.66,5.74
17.23155784606934,3,3,3,1,-12.06,0.55,-3.08,-12.1,2.95,3.15
17.25155806541443,3,3,3,1,-12.83,-1.32,-1.77,-13.79,2.16,2.48
17.27155804634094,3,3,3,2,-13.37,-4.55,-0.9399999999999999,-12.72,0.54,2.02
17.29155802726746,3,3,3,2,-14,-5.2,-0.08,-6.67,-4.7,-1.48
17.31155800819397,3,3,3,2,-15.08,-6.89,1.21,-4.19,-6.86,-4.03
17.33155798912048,3,3,3,2,-13.7,-4.06,3.48,-2.49,-12.33,-11.43
17.351557970047,3,3,3,2,-8.69,-2.45,-1.77,-9.92,-9.84,-14.03
17.37155795097351,3,3,3,2,-9.35,-1.29,-3.35,-10.33,-8.09,-16.46
17.39155793190002,3,3,3,2,-14.01,2.41,-3.24,0.77,-9.300000000000001,-19.18
17.41155791282654,3,3,3,2,-14.66,3.84,-2.63,2.24,-9.1,-18.89
17.43155789375305,3,3,3,2,-11.8,5.61,-2.54,-0.06,-5.82,-19.06
17.45155787467957,3,3,3,2,-10.3,5.54,-1.7,-1.18,-4.53,-20.54
17.47155785560608,3,3,3,2,-11.21,4.85,-1.94,0.75,-3.57,-20.18
17.49155807495117,3,3,3,2,-10.84,5.03,-2.42,2.17,-2.98,-19.71
17.51155805587769,3,3,3,2,-10.3,4.94,-2.87,1.43,-2.6,-19.95
17.5315580368042,3,3,3,2,-9.57,2.74,-3.47,3.54,-1.08,-19.66
17.55155801773071,3,3,3,2,-8.960000000000001,3.28,-3.29,9.380000000000001,-0.86,-19.55
17.57155799865723,3,3,3,2,-8.4,4.16,-3.24,11.43,-0.85,-19.49
17.59155797958374,3,3,3,2,-8.52,3.97,-3.12,13.78,-0.53,-18.51
17.61255788803101,3,3,3,2,-8.15,4.14,-2.53,15.03,-0.74,-18.1
17.63255786895752,3,3,3,2,-7.63,4.64,-2.74,15.92,-0.37,-16
17.65255784988403,3,3,3,2,-6.64,4.54,-2.38,15.31,0.44,-13.04
17.67255806922913,3,3,3,2,-6.47,4.45,-2.43,14.01,1.14,-11.86
17.69255805015564,3,3,3,2,-6.24,3.39,-1.35,11.34,1.66,-8.369999999999999
17.71255803108215,3,3,3,2,-5.9,3.45,-0.99,11.66,1.92,-7.17
17.73255801200867,3,3,3,2,-6.07,1.48,-0.9399999999999999,7.34,2.86,-3.85
17.75255799293518,3,3,3,2,-6.6,0.16,-0.28,5.92,2.49,-1.56
17.77255797386169,3,3,3,2,-7.37,-0.33,0.04,6.95,2.82,-0.43
17.79255795478821,3,3,3,2,-9.24,-4.23,1.53,10.4,3.95,-0.23
17.81255793571472,3,3,3,2,-11.18,-7.91,3.77,10.71,4.39,-1.21
17.83255791664124,3,3,3,2,-14.41,-13.74,4.82,12.43,-0.06,-3.51
17.85255789756775,3,3,3,2,-12.07,-9.83,3.4,8.06,-7.34,-5.45
17.87255787849426,3,3,3,2,-10.79,-5.33,2.48,4.2,-2.66,-4.51
17.89255785942078,3,3,3,2,-5.99,1.55,-3.24,2.76,2.63,-3.82
17.91255784034729,3,3,3,2,-5.17,1.31,-3.83,-11.1,10.18,-0.5600000000000001
17.93255805969238,3,3,3,2,-14.24,-4.34,2.76,-7.03,5.32,7.25
17.9525580406189,3,3,3,2,-18.89,-15.42,4.97,0.84,1.86,0.57
17.97255802154541,3,3,3,2,-15.32,-1.15,-0.27,11.02,5.96,7.54
17.99255800247192,3,3,3,2,-10.34,10.75,-3.45,8.25,5.76,9.09
18.01255798339844,3,3,3,2,-6.94,10.1,-8.66,-0.74,11.18,10.26
18.03255796432495,3,3,3,2,-6.61,0.76,-6.8,-8.800000000000001,11.72,12.54
18.05255794525146,3,3,3,2,-8.84,2.38,-6.17,-3.2,7.43,12.87
18.07255792617798,3,3,3,2,-9.09,1.86,-4.08,0.26,6.76,12.32
18.09255790710449,3,3,3,2,-10.21,0.45,-1.84,1.19,6.21,12.88
18.11255788803101,3,3,3,2,-10.76,2.22,-1.28,1.9,6.61,13.48
18.13255786895752,3,3,3,2,-9.279999999999999,2,-2.53,-0.19,6.04,13.54
18.15255784988403,3,3,3,2,-8.58,-0.62,-3.72,-0.82,5.87,13.23
18.17255806922913,3,3,3,2,-8.41,-0.04,-3.68,0.71,5.71,13.24
18.19255805015564,3,3,3,2,-8.699999999999999,0.57,-2.68,-0.8100000000000001,4.81,12.54
18.21255803108215,3,3,3,2,-9.43,0.37,-2.28,-5.21,4.19,11.91
18.23255801200867,3,3,3,2,-9.609999999999999,-1.27,-2.95,-10.88,2.77,11.55
18.25255799293518,3,3,3,2,-9.67,-2.32,-2.35,-13.18,2.76,10.56
18.27255797386169,3,3,3,2,-10.11,-3.94,-2.01,-12.52,3.21,10.31
18.29255795478821,3,3,3,2,-9.92,-2.7,-2.27,-9.789999999999999,3.99,8.59
18.31255793571472,3,3,3,2,-9.859999999999999,0.7,-2.63,-6.95,3.01,5.91
18.33255791664124,3,3,3,2,-9.5,1.83,-2.67,-7.28,2.02,5.03
18.35255789756775,3,3,3,2,-8.58,1.6,-2.41,-8.33,2.35,5.51
18.37255787849426,3,3,3,2,-8.949999999999999,1.5,-2.17,-8.31,3.09,6.37
18.39255785942078,3,3,3,2,-8.92,1.73,-2.48,-8.289999999999999,3.71,6.74
18.41255784034729,3,3,3,2,-9.24,1.85,-2.65,-7.64,3.66,6.55
18.43255805969238,3,3,3,2,-8.99,1.47,-2.79,-6.74,2.89,6.21
18.4525580406189,3,3,3,2,-9.27,2.13,-2.76,-4.73,2.53,6.2
18.47255802154541,3,3,3,2,-9.24,2.38,-2.23,-4.25,2.67,6.53
18.49255800247192,3,3,3,2,-9.35,2.3,-1.95,-5.19,3.13,6.87
18.51255798339844,3,3,3,2,-9.529999999999999,1.21,-2.1,-7.05,3.54,6.95
18.53255796432495,3,3,3,2,-9.34,0.17,-2.29,-7.41,3.41,6.81
18.55255794525146,3,3,3,2,-8.880000000000001,0.34,-2.6,-6.31,2.92,6.84
18.57255792617798,3,3,3,2,-10.4,1.21,-3.12,-4.97,1.52,6.64
18.59255790710449,3,3,3,2,-10.58,2.28,-3.05,-4.04,0.84,5.73
18.61355805397034,3,3,3,2,-10.65,2.04,-3.01,-7.09,1.79,4.82
18.63355803489685,3,3,3,2,-10.49,1.47,-3.14,-10.76,3.18,4.53
18.65355801582336,3,3,3,2,-12.47,-1.7,-1.97,-12.55,3.34,4.66
18.67355799674988,3,3,3,2,-11.73,-3.32,-1.68,-9.550000000000001,0.5,4.41
18.69355797767639,3,3,3,2,-13.64,-4.03,-0.33,-4.97,-1.68,3.14
18.71355795860291,3,3,3,2,-13.81,-4.36,1.02,-0.85,-5.88,-0.49
18.73355793952942,3,3,3,2,-13.24,-3.2,2.97,0.37,-8.83,-6.05
18.75355792045593,3,3,3,2,-11.44,-2.37,4.11,-4.94,-11.06,-11.18
18.77355790138245,3,3,3,2,-9.949999999999999,-1.91,-0.64,-15.79,-10.12,-14.12
18.79355788230896,3,3,3,2,-11.36,0.24,-2.32,-12.83,-9.710000000000001,-17.69
18.81355786323547,3,3,3,2,-13.21,1.83,-2.97,-7.45,-8.609999999999999,-18.99
18.83355784416199,3,3,3,2,-13.92,3.43,-2.99,-4.61,-6.75,-19.56
18.85355806350708,3,3,3,2,-12.77,4.96,-2.71,-4.38,-4.97,-21.08
18.87355804443359,3,3,3,2,-12.24,4.58,-2.16,-3.39,-4.26,-22.46
18.89355802536011,3,3,3,2,-12.18,5.28,-2.31,-0.78,-3.45,-21.78
18.91355800628662,3,3,3,2,-11.87,5.13,-2.52,1.28,-2.06,-21
18.93355798721313,3,3,3,2,-11.22,3.98,-3.01,3.49,-1.56,-20.9
18.95355796813965,3,3,3,2,-10.43,3.48,-2.96,7.21,-1.5,-21.21
18.97355794906616,3,3,3,2,-9.140000000000001,3.86,-2.71,11.72,-1.61,-20.85
18.99355792999268,3,3,3,2,-8.49,4.49,-2.79,14.25,-1.82,-20.23
19.01355791091919,3,3,3,2,-8.029999999999999,4.55,-2.38,15.2,-2.05,-19.29
19.0335578918457,3,3,3,2,-7.75,5.14,-2.4,14.48,-2.57,-17.78
19.05355787277222,3,3,3,2,-6.78,4.57,-1.81,14.68,-2.04,-15.89
19.07355785369873,3,3,3,2,-6.79,4.96,-1.78,13.57,-0.68,-12.81
19.09355807304382,3,3,3,2,-5.99,3.95,-2.04,9.460000000000001,-0.13,-10.69
19.11355805397034,3,3,3,2,-5.97,3.14,-1.43,7.07,0.32,-9.1
19.13355803489685,3,3,3,2,-5.79,2.23,-1.69,4.03,2.52,-7.93
19.15355801582336,3,3,3,2,-6.2,0.47,-1.93,0.44,5.18,-7.04
19.17355799674988,3,3,3,2,-7.47,-1.32,-0.99,-0.28,5.36,-5.32
19.19355797767639,3,3,3,2,-8,-1.72,-0.49,2.27,4.14,-1.96
19.21355795860291,3,3,3,2,-8.369999999999999,-3.02,-0.31,4.01,3.48,0.2
19.23355793952942,3,3,3,2,-11.2,-6.58,0.74,7,2.85,-1.14
19.25355792045593,3,3,3,2,-11.66,-8.25,2.75,10.24,-3.1,-2.24
19.27355790138245,3,3,3,2,-12.53,-13.49,4.41,9.699999999999999,-8.279999999999999,-4.45
19.29355788230896,3,3,3,2,-10.86,-9.34,3.1,4.32,-6.29,-5.68
19.31355786323547,3,3,3,2,-7.42,0.55,0.99,3.99,-3.19,-3.69
19.33355784416199,3,3,3,2,-5.77,1.19,-0.98,-0.88,4.4,-3.13
19.35355806350708,3,3,3,2,-3.32,3.36,-3.06,-12.54,10.22,5.3
19.37355804443359,3,3,3,2,-11.75,3.3,-2.45,-2.52,7.57,8.5
19.39355802536011,3,3,3,2,-18.5,-16.11,5.85,-1.86,0.96,1.44
19.41355800628662,3,3,3,2,-23,-15.68,6.3,6.89,2.87,2.89
19.43355798721313,3,3,3,2,-11.14,3.38,5.19,9.140000000000001,1.46,7.61
19.45355796813965,3,3,3,2,-8.99,7.09,-3.41,4.43,6.78,7.16
19.47355794906616,3,3,3,2,-4.35,3.29,-10.8,0.16,12.92,8.24
19.49355792999268,3,3,3,2,-8.970000000000001,-1.11,-4.85,-3.45,8.48,7.41
19.51355791091919,3,3,3,2,-8.619999999999999,2.9,-4.31,2.2,4.98,9.960000000000001
19.5335578918457,3,3,3,2,-9.99,4.78,-2.85,1.72,4.71,8.529999999999999
19.55355787277222,3,3,3,2,-11.65,0.86,-1.78,-0.91,5.09,9.85
19.57355785369873,3,3,3,2,-10.09,1.52,-2.71,-0.19,5.01,9.91
19.59355807304382,3,3,3,2,-9.539999999999999,1.3,-2.9,-0.06,4.25,9.960000000000001
19.61355805397034,3,3,3,2,-9.4,0.25,-3,0.27,3.63,10
19.63355803489685,3,3,3,2,-9.31,0.31,-3.16,1.62,3.17,9.289999999999999
19.65455794334412,3,3,3,2,-9.390000000000001,0.05,-2.76,2.29,2.9,8.83
19.67455792427063,3,3,3,2,-9.109999999999999,-0.13,-2.67,3.72,2.44,8.9
19.69455790519714,3,3,3,2,-9.17,0.42,-2.99,4.81,2.42,8.69
19.71455788612366,3,3,3,2,-9.43,1.01,-2.44,4.05,2.2,8.449999999999999
19.73455786705017,3,3,3,2,-9.779999999999999,1.08,-2.56,2.99,2.22,8.32
19.75455784797668,3,3,3,2,-9.109999999999999,-0.74,-2.58,0.78,2.05,8.050000000000001
19.77455806732178,3,3,3,2,-9.550000000000001,-1.62,-1.98,0.86,1.91,7.03
19.79455804824829,3,3,3,2,-10.1,-1.71,-1.83,0.83,2.46,5.31
19.8145580291748,3,3,3,2,-10.17,-1.84,-1.15,0.04,2.26,3.56
19.83455801010132,3,3,3,2,-9.75,-0.71,-1.2,-1.25,2.2,2.36
19.85455799102783,3,3,3,2,-9.640000000000001,0.78,-1.97,-1.43,1.85,2.1
19.87455797195435,3,3,3,2,-9.51,1.31,-2.91,-2.03,1.5,2.2
19.89455795288086,3,3,3,2,-9.1,1.08,-3.03,-2.35,1.55,2.06
19.91455793380737,3,3,3,2,-9.17,0.6899999999999999,-2.37,-2.52,1.55,2.12
19.93455791473389,3,3,3,2,-9.68,0.51,-2.08,-2.62,1.03,2.14
19.9545578956604,3,3,3,2,-9.640000000000001,0.41,-1.92,-3.26,0.93,1.81
19.97455787658691,3,3,3,2,-9.56,0.17,-2.38,-3.59,1.15,1.31
19.99455785751343,3,3,3,2,-9.470000000000001,-0.04,-2.6,-3.54,1.12,0.97
20.01455783843994,3,3,3,2,-9.57,-0.47,-2.79,-3.6,1.18,0.51
20.03455805778503,3,3,3,2,-9.69,0.29,-2.93,-3.66,1.1,0.3
20.05455803871155,3,3,3,2,-9.19,1.63,-2.54,-3.84,0.83,0.46
20.07455801963806,3,3,3,2,-9.48,1.74,-2.76,-4.58,0.83,0.73
20.09455800056458,3,3,3,2,-9.01,0.9399999999999999,-3.48,-5.44,0.78,0.78
20.11455798149109,3,3,3,2,-9.09,-0.12,-3.59,-6.38,1,0.34
20.1345579624176,3,3,3,2,-9.42,-0.52,-3.05,-6.17,1.32,-0.04
20.15455794334412,3,3,3,2,-9.550000000000001,0.52,-2.48,-5.22,1.12,0.14
20.17455792427063,3,3,3,2,-9.550000000000001,1.05,-2.13,-4.69,0.63,0.63
20.19455790519714,3,3,3,2,-9.41,1.38,-2.28,-3.52,0.49,1.25
20.21455788612366,3,3,3,2,-9.09,1.51,-2.3,-2.35,-0.04,1.51
20.23455786705017,3,3,3,2,-9.050000000000001,1.63,-2.63,-1.77,-0.16,1.64
20.25455784797668,3,3,3,2,-9.26,1.59,-2.54,-1.53,-0.21,1.52
20.27455806732178,3,3,3,2,-9.5,1.5,-2.53,-1.03,0.01,1.71
20.29455804824829,3,3,3,2,-9.44,1.14,-2.42,-0.93,-0.17,1.63
20.3145580291748,3,3,3,2,-9.449999999999999,0.65,-2.3,-0.71,-0.29,1.37
20.33455801010132,3,3,3,2,-9.43,0.5600000000000001,-2.14,-0.6899999999999999,-0.28,1.15
20.35455799102783,3,3,3,2,-9.5,0.82,-2.12,-1.05,-0.14,0.67
20.37455797195435,3,3,3,2,-9.49,0.98,-2.17,-1.17,-0.08,0.38
20.39455795288086,3,3,3,2,-9.41,1.26,-2.26,-0.61,-0.21,0.49
20.41455793380737,3,3,3,2,-9.289999999999999,1.5,-2.27,-0.18,-0.26,0.61
20.43455791473389,3,3,3,2,-9.289999999999999,1.56,-2.41,0.19,-0.42,0.68
20.4545578956604,3,3,3,2,-9.380000000000001,1.85,-2.61,-0.06,-0.61,0.68
20.47455787658691,3,3,3,2,-9.35,1.63,-2.55,-0.57,-0.65,0.54
20.49455785751343,3,3,3,2,-9.42,1.64,-2.43,-0.85,-0.52,0.52
20.51455783843994,3,3,3,2,-9.4,1.6,-2.22,-1.03,-0.28,0.53
20.53455805778503,3,3,3,2,-9.380000000000001,1.49,-2.18,-1.09,-0.34,0.49
20.55455803871155,3,3,3,2,-9.35,1.16,-2.03,-0.71,-0.32,0.49
20.57455801963806,3,3,3,2,-9.41,0.96,-2.08,-0.31,-0.3,0.48
20.59455800056458,3,3,3,2,-9.41,1,-2.1,0.22,-0.26,0.37
20.61455798149109,3,3,3,2,-9.43,1.43,-2.2,0.49,-0.29,0.18
20.6345579624176,3,3,3,2,-9.43,1.57,-2.4,0.41,-0.22,0.13
20.65455794334412,3,3,3,2,-9.380000000000001,1.52,-2.28,0.04,-0.31,0.09
20.67555785179138,3,3,3,2,-9.380000000000001,1.5,-2.2,-0.05,-0.27,-0.06
20.69555807113647,3,3,3,2,-9.380000000000001,1.44,-2.17,-0.19,-0.11,-0.16
20.71555805206299,3,3,3,2,-9.390000000000001,1.34,-2.1,-0.25,-0.18,-0.22
20.7355580329895,3,3,3,2,-9.390000000000001,1.3,-2.15,-0.31,-0.19,-0.31
20.75555801391602,3,3,3,2,-9.5,1.35,-2.2,-0.3,-0.12,-0.31
20.77555799484253,3,3,3,2,-9.369999999999999,1.33,-2.23,-0.13,-0.04,-0.21
20.79555797576904,3,3,3,2,-9.380000000000001,1.33,-2.27,-0.01,-0.07000000000000001,-0.09
20.81555795669556,3,3,3,2,-9.4,1.4,-2.29,0.05,-0.07000000000000001,-0.11
20.83555793762207,3,3,3,2,-9.380000000000001,1.42,-2.23,-0.05,-0.19,-0.14
20.85555791854858,3,3,3,2,-9.48,1.44,-2.17,-0.37,-0.24,-0.09
20.8755578994751,3,3,3,2,-9.43,1.32,-2.24,-0.44,-0.09,-0.04
20.89555788040161,3,3,3,2,-9.369999999999999,1.2,-2.22,-0.27,-0.03,0.08
20.91555786132812,3,3,3,2,-9.44,1.03,-2.1,-0.18,-0.12,0.16
20.93555784225464,3,3,3,2,-9.48,1.02,-2.21,0.06,-0.16,0.14
20.95555806159973,3,3,3,2,-9.43,1.13,-2.12,0.23,-0.12,0.15
20.97555804252625,3,3,3,2,-9.380000000000001,1.25,-2.15,0.39,0.08,0.18
20.99555802345276,3,3,3,2,-9.390000000000001,1.29,-2.22,0.23,-0.03,0.23
21.01555800437927,3,3,3,2,-9.390000000000001,1.3,-2.21,0.27,-0.14,0.21
21.03555798530579,3,3,3,2,-9.41,1.23,-2.33,0.21,-0.21,0.24
21.0555579662323,3,3,3,2,-9.390000000000001,1.3,-2.16,0.38,0.03,0.26
21.07555794715881,3,3,3,2,-9.43,1.41,-2.18,0.19,0.04,0.28
21.09555792808533,3,3,3,2,-9.4,1.41,-2.25,0.11,-0.06,0.29
21.11555790901184,3,3,3,2,-9.4,1.3,-2.14,0.05,-0.09,0.3
21.13555788993835,3,3,3,2,-9.43,1.25,-2.27,0.12,-0.12,0.31
21.15555787086487,3,3,3,2,-9.470000000000001,1.3,-2.16,0.14,-0.06,0.3
21.17555785179138,3,3,3,2,-9.42,1.41,-2.11,0.16,0.03,0.29
21.19555807113647,3,3,3,2,-9.380000000000001,1.36,-2.27,0.13,-0.06,0.31
21.21555805206299,3,3,3,2,-9.42,1.42,-2.22,0.11,-0.04,0.3
21.2355580329895,3,3,3,2,-9.380000000000001,1.4,-2.32,0.2,0,0.29
21.25555801391602,3,3,3,2,-9.43,1.43,-2.15,0.14,0.1,0.34
21.27555799484253,3,3,3,2,-9.449999999999999,1.38,-2.16,0.07000000000000001,0.03,0.35
21.29555797576904,3,3,3,2,-9.369999999999999,1.31,-2.2,-0.01,-0.11,0.24
21.31555795669556,3,3,3,2,-9.380000000000001,1.39,-2.15,-0.06,0.03,0.16
21.33555793762207,3,3,3,2,-9.43,1.43,-2.24,-0.01,0.15,0.14
21.35555791854858,3,3,3,2,-9.460000000000001,1.48,-2.18,-0.14,0.13,0.12
21.3755578994751,3,3,3,2,-9.42,1.5,-2.29,-0.16,0.04,0.07000000000000001
21.39555788040161,3,3,3,2,-9.369999999999999,1.47,-2.24,-0.13,0.09,0.07000000000000001
21.41555786132812,3,3,3,2,-9.369999999999999,1.43,-2.15,-0.23,0.12,0.06
21.43555784225464,3,3,3,2,-9.449999999999999,1.4,-2.23,-0.35,0.09,0.01
21.45555806159973,3,3,3,2,-9.51,1.44,-2.21,-0.32,0.06,-0.02
21.47555804252625,3,3,3,2,-9.44,1.45,-2.23,-0.38,0.05,-0.06
21.49555802345276,3,3,3,2,-9.380000000000001,1.45,-2.17,-0.39,0.12,-0.04
21.51555800437927,3,3,3,2,-9.41,1.48,-2.12,-0.57,0.09,-0.02
21.53555798530579,3,3,3,2,-9.460000000000001,1.38,-2.35,-0.6,0.12,-0.06
21.5555579662323,3,3,3,2,-9.390000000000001,1.33,-2.26,-0.47,0.13,0.01
21.57555794715881,3,3,3,2,-9.449999999999999,1.38,-2.26,-0.28,0.03,0.08
21.59555792808533,3,3,3,2,-9.41,1.4,-2.25,-0.07000000000000001,-0.01,0.14
21.61555790901184,3,3,3,2,-9.35,1.29,-2.13,-0.01,-0.01,0.17
21.63555788993835,3,3,3,2,-9.43,1.37,-2.23,0.06,-0.02,0.21
21.65555787086487,3,3,3,2,-9.48,1.45,-2.28,0.12,0.11,0.2
21.67555785179138,3,3,3,2,-9.43,1.48,-2.37,0.15,0,0.23
21.69655799865723,3,3,3,2,-9.369999999999999,1.38,-2.41,0.14,0.04,0.24
21.71655797958374,3,3,3,2,-9.369999999999999,1.36,-2.28,0.06,0.01,0.2
21.73655796051025,3,3,3,2,-9.449999999999999,1.39,-2.32,0.02,0.12,0.14
21.75655794143677,3,3,3,2,-9.42,1.33,-2.2,0,0.1,0.13
21.77655792236328,3,3,3,2,-9.470000000000001,1.29,-2.19,-0.08,0.04,0.12
21.79655790328979,3,3,3,2,-9.449999999999999,1.34,-2.29,0.06,0.08,0.06
21.81655788421631,3,3,3,2,-9.369999999999999,1.37,-2.26,0.08,0.08,0.07000000000000001
21.83655786514282,3,3,3,2,-9.359999999999999,1.42,-2.22,0.13,0.01,0.13
21.85655784606934,3,3,3,2,-9.42,1.43,-2.26,0.1,0.05,0.18
21.87655806541443,3,3,3,2,-9.42,1.38,-2.25,0.07000000000000001,0.06,0.15
21.89655804634094,3,3,3,2,-9.390000000000001,1.44,-2.31,0.16,0.03,0.11
21.91655802726746,3,3,3,2,-9.390000000000001,1.51,-2.25,0.15,0.11,0.07000000000000001
21.93655800819397,3,3,3,2,-9.42,1.44,-2.42,0.05,0.09,0.11
21.95655798912048,3,3,3,2,-9.41,1.44,-2.33,0.12,0.06,0.13
21.976557970047,3,3,3,2,-9.369999999999999,1.43,-2.26,0.06,0.03,0.16
21.99655795097351,3,3,3,2,-9.4,1.42,-2.24,0.05,0.03,0.12
22.01655793190002,3,3,3,2,-9.4,1.43,-2.19,0.03,0.09,0.12
22.03655791282654,3,3,3,2,-9.4,1.4,-2.32,0.09,0.07000000000000001,0.06
22.05655789375305,3,3,3,2,-9.4,1.37,-2.26,0.09,0.04,0.09
22.07655787467957,3,3,3,2,-9.41,1.45,-2.28,0.15,-0.02,0.05
22.09655785560608,3,3,3,2,-9.43,1.43,-2.32,0.14,0.02,0.08
22.11655807495117,3,3,3,2,-9.4,1.5,-2.28,0.05,0.07000000000000001,0.07000000000000001
22.13655805587769,3,3,3,2,-9.369999999999999,1.46,-2.38,-0.01,0.02,0.02
22.1565580368042,3,3,3,2,-9.390000000000001,1.39,-2.23,-0.03,-0.08,0.08
22.17655801773071,3,3,3,2,-9.44,1.43,-2.23,0.08,-0.16,0.13
22.19655799865723,3,3,3,2,-9.449999999999999,1.47,-2.32,0.07000000000000001,-0.01,0.12
22.21655797958374,3,3,3,2,-9.390000000000001,1.47,-2.29,0.09,-0.14,0.09
22.23655796051025,3,3,3,2,-9.390000000000001,1.49,-2.3,0.08,-0.13,0.14
22.25655794143677,3,3,3,2,-9.41,1.5,-2.28,0.03,-0.12,0.13
22.27655792236328,3,3,3,2,-9.42,1.44,-2.34,0.06,-0.2,0.18
22.29655790328979,3,3,3,2,-9.380000000000001,1.46,-2.37,-0.03,-0.17,0.16
22.31655788421631,3,3,3,3,-9.380000000000001,1.51,-2.28,-0.14,-0.15,0.16
22.33655786514282,3,3,3,3,-9.390000000000001,1.43,-2.38,-0.11,-0.11,0.16
22.35655784606934,3,3,3,3,-9.41,1.32,-2.28,-0.09,-0.12,0.15
22.37655806541443,3,3,3,3,-9.41,1.37,-2.24,0.03,-0.17,0.16
22.39655804634094,3,3,3,3,-9.43,1.46,-2.19,-0.03,-0.21,0.15
22.41655802726746,3,3,3,3,-9.41,1.49,-2.08,0.11,-0.26,0.26
22.43655800819397,3,3,3,3,-9.4,1.21,-2.26,0.49,-0.33,0.36
22.45655798912048,3,3,3,3,-9.44,1.37,-2.2,0.64,-0.44,0.4
22.476557970047,3,3,3,3,-9.470000000000001,1.43,-2.26,1.23,-0.66,0.53
22.49655795097351,3,3,3,3,-9.380000000000001,1.3,-2.37,1.38,-0.85,0.53
22.51655793190002,3,3,3,3,-9.51,1.63,-2.4,1.23,-0.92,0.32
22.53655791282654,3,3,3,3,-9.460000000000001,1.95,-2.42,0.41,-0.8100000000000001,-0.06
22.55655789375305,3,3,3,3,-9.380000000000001,2.01,-2.23,-0.01,-0.79,-0.16
22.57655787467957,3,3,3,3,-9.49,1.62,-2.03,-1.78,-1.25,-0.82
22.59655785560608,3,3,3,3,-9.699999999999999,1.55,-1.84,-3.31,-1.19,-1.71
22.61655807495117,3,3,3,3,-9.75,1.61,-1.67,-4.36,-0.88,-2.49
22.63655805587769,3,3,3,3,-9.69,1.36,-1.58,-5.58,-1.16,-3.29
22.6565580368042,3,3,3,3,-9.779999999999999,0.71,-0.84,-5.99,-1.42,-3.77
22.67655801773071,3,3,3,3,-9.99,0.23,-0.5,-6.8,-2.26,-5.72
22.69655799865723,3,3,3,3,-10.32,-0.58,0.16,-7.6,-2.89,-7.47
22.71655797958374,3,3,3,3,-10.18,-1.17,0.58,-8.289999999999999,-3.17,-8.529999999999999
22.73755788803101,3,3,3,3,-10.27,-0.06,1.14,-11.08,-4.53,-11.8
22.75755786895752,3,3,3,3,-10.32,1.74,0.32,-12.37,-4.46,-11.98
22.77755784988403,3,3,3,3,-10.34,4.23,-1.31,-18.01,-3.49,-10.52
22.79755806922913,3,3,3,3,-9.960000000000001,4.47,-1.86,-22.59,-3.66,-9.9
22.81755805015564,3,3,3,3,-9.050000000000001,4.15,-2.4,-24,-3.02,-9.640000000000001
22.83755803108215,3,3,3,3,-8.93,3.83,-2.26,-27.45,-1.55,-9.34
22.85755801200867,3,3,3,3,-8.33,4.28,-2,-28.27,-1.52,-9.01
22.87755799293518,3,3,3,3,-8.23,3.97,-2.5,-33.83,1.2,-7.78
22.89755797386169,3,3,3,3,-8.57,3.25,-2.52,-37,3.22,-8.1
22.91755795478821,3,3,3,3,-8.59,1.81,-1.05,-38.4,3.17,-8.35
22.93755793571472,3,3,3,3,-8.98,-0.74,-2.5,-39.7,4.52,-8.800000000000001
22.95755791664124,3,3,3,2,-8.880000000000001,-2.45,-4.56,-38.64,4.82,-8.24
22.97755789756775,3,3,3,2,-8.880000000000001,-2.08,-5.69,-28.93,4.92,-5.45
22.99755787849426,3,3,3,2,-9.109999999999999,-1.72,-5.43,-18.06,2.84,-2.59
23.01755785942078,3,3,3,2,-8.82,-3.47,-2.8,-13.83,2.35,-1.56
23.03755784034729,3,3,3,2,-9.57,-4.1,-1.81,0.24,2.25,1.54
23.05755805969238,3,3,3,2,-9.529999999999999,1.39,-2.47,5.78,0.95,3.54
23.0775580406189,3,3,3,2,-10.73,-0.06,-3.03,7.17,2.33,5.13
23.09755802154541,3,3,3,2,-10.97,-1.36,-3.06,3.48,3.27,3.3
23.11755800247192,3,3,3,2,-9.859999999999999,-0.01,-0.72,3.85,3.58,2.29
23.13755798339844,3,3,3,2,-9.640000000000001,2.78,0.93,-0.67,3.43,1.44
23.15755796432495,3,3,3,2,-10.14,2.1,0.3,-3.26,2.95,0.96
23.17755794525146,3,3,3,2,-9.68,0.91,-2.83,-10.02,1.5,-2
23.19755792617798,3,3,3,2,-8.949999999999999,0.11,-3.83,-10.75,1.34,-3.75
23.21755790710449,3,3,3,2,-9.210000000000001,1.39,-3.57,-11.27,1.14,-4.15
23.23755788803101,3,3,3,2,-9.58,1.16,-3.79,-13.9,-0.11,-4.3
23.25755786895752,3,3,3,2,-9.85,-0.16,-4.16,-13.94,-0.27,-4.22
23.27755784988403,3,3,3,2,-9.390000000000001,0.6899999999999999,-4.64,-10.46,0.21,-3.38
23.29755806922913,3,3,3,2,-9.460000000000001,0.92,-4.06,-9.300000000000001,-0.15,-2.58
23.31755805015564,3,3,3,2,-9.4,1.25,-3.68,-9.369999999999999,-0.26,-2.42
23.33755803108215,3,3,3,2,-9.26,1.27,-3.45,-11.52,-0.49,-2.61
23.35755801200867,3,3,3,2,-9.300000000000001,0.65,-3.03,-12.19,-0.61,-2.71
23.37755799293518,3,3,3,2,-9.25,0.24,-3.31,-13.78,-1.17,-2.95
23.39755797386169,3,3,3,2,-9.16,0.05,-3.56,-13.72,-1.16,-3.09
23.41755795478821,3,3,3,2,-9.16,-0.25,-3.61,-13.66,-1.35,-3.13
23.43755793571472,3,3,3,2,-9.050000000000001,-0.65,-3.5,-13.06,-1.29,-3.01
23.45755791664124,3,3,3,2,-9.199999999999999,-1.11,-3.49,-12.73,-1.28,-2.93
23.47755789756775,3,3,3,2,-9.460000000000001,-1.32,-3.11,-11.84,-1.8,-3.29
23.49755787849426,3,3,3,2,-9.33,-1.23,-2.82,-11.72,-2.03,-3.94
23.51755785942078,3,3,3,2,-9.449999999999999,-1.49,-2.68,-11.89,-2.04,-4.29
23.53755784034729,3,3,3,2,-9.619999999999999,-2.23,-2.36,-12.8,-2.85,-5.24
23.55755805969238,3,3,3,2,-9.81,-2.24,-1.95,-12.95,-3.16,-5.53
23.5775580406189,3,3,3,2,-9.529999999999999,-1.19,-2.28,-13.88,-3.51,-6.43
23.59755802154541,3,3,3,2,-9.51,0.01,-2.27,-15.45,-4.13,-7.09
23.61755800247192,3,3,3,2,-9.369999999999999,0.47,-2.32,-16,-4.37,-7.13
23.63755798339844,3,3,3,2,-9.33,0.64,-2.92,-17.83,-4.54,-6.75
23.65755796432495,3,3,3,2,-9.380000000000001,0.5600000000000001,-2.93,-18.32,-4.57,-6.57
23.67755794525146,3,3,3,2,-9.84,1.01,-2.06,-17.7,-5.05,-6.01
23.69755792617798,3,3,3,2,-9.609999999999999,0.23,-1.59,-17.67,-4.85,-5.61
23.71755790710449,3,3,3,3,-9.460000000000001,-0.57,-1.61,-18.04,-4.63,-5.67
23.73755788803101,3,3,3,3,-9.800000000000001,-2.07,0.23,-19.79,-4.96,-6.49
23.75855803489685,3,3,3,3,-10.14,-1.43,1.2,-20.89,-5.52,-6.91
23.77855801582336,3,3,3,3,-11.63,2.71,2.48,-25.52,-8.48,-7.9
23.79855799674988,3,3,3,3,-10.87,2.99,1.43,-31.02,-8.470000000000001,-7.41
23.81855797767639,3,3,3,3,-10.44,2.45,1.01,-37.56,-6.58,-7.51
23.83855795860291,3,3,3,3,-9.35,0,-1.22,-41.39,-4.15,-7.94
23.85855793952942,3,3,3,3,-9,0.44,-1.72,-42.81,-2.97,-7.61
23.87855792045593,3,3,3,3,-8.56,0.28,-3.37,-46.47,-1.95,-6.67
23.89855790138245,3,3,3,3,-8.33,-1.35,-2.84,-47.15,-2.03,-6.34
23.91855788230896,3,3,3,3,-8.32,-1.77,-2.74,-43.65,-1.76,-5.13
23.93855786323547,3,3,3,3,-8.43,-1.35,-2.86,-36.78,-1.88,-3.05
23.95855784416199,3,3,3,3,-8.390000000000001,-1.11,-3.01,-30.2,-2.11,-0.77
23.97855806350708,3,3,3,3,-9.710000000000001,-1.5,-4.47,-23.33,-1.18,-0.73
23.99855804443359,3,3,3,3,-8.58,0.86,-2.32,-19.54,-3.15,-0.25
24.01855802536011,3,3,3,2,-7.72,0.49,-3.29,-14.56,-4.32,2.91
24.03855800628662,3,3,3,2,-9.5,-1.6,-5.12,-11.18,-0.77,3.51
24.05855798721313,3,3,3,2,-9.06,0.95,-3.2,-11.03,-0.61,5.34
24.07855796813965,3,3,3,2,-9.17,3.24,-2.92,-11.44,0.68,5.84
24.09855794906616,3,3,3,2,-9.42,1.41,-2.7,-15.32,1.77,4.95
24.11855792999268,3,3,3,2,-9.359999999999999,-0.38,-2.91,-18.04,2.24,4.07
24.13855791091919,3,3,3,2,-10.75,-4.02,-3.27,-19.17,2.74,3.02
24.1585578918457,3,3,3,2,-11.6,-5.87,-1.92,-16.51,3.19,2.31
24.17855787277222,3,3,3,2,-13.08,-10.88,-0.06,-7.74,3.43,1.24
24.19855785369873,3,3,3,2,-10.86,-5.67,-1.98,-1.67,3.5,1.15
24.21855807304382,3,3,3,2,-8.48,-1.46,-2.01,-1.42,2.87,3.5
24.23855805397034,3,3,3,2,-8.19,0.29,-2.44,-1.13,2.97,3.45
24.25855803489685,3,3,3,2,-9.17,0.1,-2.39,1.58,3.4,2.85
24.27855801582336,3,3,3,2,-9.75,2.08,-2.41,1.08,3.15,2.56
24.29855799674988,3,3,3,2,-10.02,1.97,-1.42,-0.19,1.69,3.05
24.31855797767639,3,3,3,2,-9.970000000000001,0.97,-1.27,-1.47,1.39,3.51
24.33855795860291,3,3,3,2,-9.81,0.34,-1.75,-1.04,1.79,3.56
24.35855793952942,3,3,3,2,-9.5,0.23,-2.78,-0.89,1.74,3.43
24.37855792045593,3,3,3,2,-9.17,-0.15,-2.75,-1.34,1.95,3.06
24.39855790138245,3,3,3,2,-9.210000000000001,0.03,-2.79,-0.59,1.76,2.61
24.41855788230896,3,3,3,2,-9.640000000000001,-0.08,-3.09,-0.46,1.37,2.17
24.43855786323547,3,3,3,2,-9.57,0.53,-2.37,0.05,1.01,1.95
24.45855784416199,3,3,3,2,-9.65,0.8100000000000001,-2.08,0.25,0.71,2.11
24.47855806350708,3,3,3,2,-9.67,0.21,-2.38,-0.74,1.03,1.76
24.49855804443359,3,3,3,2,-9.619999999999999,-0.01,-2.43,-0.96,1.08,1.33
24.51855802536011,3,3,3,2,-9.43,-0.29,-2.88,-1.08,1.28,0.87
24.53855800628662,3,3,3,2,-9.56,-0.54,-2.62,-1.32,1.05,0.39
24.55855798721313,3,3,3,2,-9.720000000000001,-0.36,-1.97,-0.8100000000000001,0.8,-0.24
24.57855796813965,3,3,3,2,-9.59,-0.08,-2.25,-0.68,0.75,-0.6
24.59855794906616,3,3,3,2,-9.42,0.76,-2.36,-0.49,0.64,-0.5600000000000001
24.61855792999268,3,3,3,2,-9.44,1.01,-2.54,-0.48,0.48,-0.44
24.63855791091919,3,3,3,2,-9.380000000000001,0.75,-2.67,-0.42,0.09,-0.25
24.6585578918457,3,3,3,2,-9.289999999999999,1.03,-2.54,0.01,-0.02,-0.13
24.67855787277222,3,3,3,2,-9.390000000000001,1.44,-2.6,0.24,0.28,-0.12
24.69855785369873,3,3,3,2,-9.609999999999999,1.28,-2.68,-0.3,0.15,-0.01
24.71855807304382,3,3,3,2,-9.460000000000001,1.07,-2.86,-1.43,0.14,-0.06
24.73855805397034,3,3,3,2,-9.300000000000001,0.73,-2.91,-3.08,0.45,-0.19
24.75855803489685,3,3,3,2,-9.369999999999999,0.34,-2.16,-4.07,0.65,-0.22
24.77955794334412,3,3,3,2,-9.789999999999999,-0.03,-2.26,-4.62,0.58,-0.12
24.79955792427063,3,3,3,2,-9.48,-0.24,-2.41,-4.55,0.59,-0.21
24.81955790519714,3,3,3,2,-9.4,-0.05,-2.27,-4.15,0.59,-0.31
24.83955788612366,3,3,3,2,-9.369999999999999,0.54,-2.34,-3.4,0.55,-0.13
24.85955786705017,3,3,3,2,-9.390000000000001,0.9,-2.38,-2.42,0.25,0.25
24.87955784797668,3,3,3,2,-9.279999999999999,1.36,-2.76,-1.25,0.07000000000000001,0.58
24.89955806732178,3,3,3,2,-9.23,1.89,-2.69,0.13,-0.11,0.96
24.91955804824829,3,3,3,2,-9.34,2.04,-2.43,0.45,-0.35,1.19
24.9395580291748,3,3,3,2,-9.529999999999999,1.48,-2.02,-0.03,-0.36,1.13
24.95955801010132,3,3,3,3,-9.58,0.98,-1.92,-0.55,-0.08,0.84
24.97955799102783,3,3,3,3,-9.449999999999999,0.63,-2.24,-1.17,-0.06,0.5
24.99955797195435,3,3,3,3,-9.49,0.5600000000000001,-2.26,-1.43,-0.11,0.28
25.01955795288086,3,3,3,3,-9.390000000000001,0.76,-2.29,-1.59,-0.12,0.09
25.03955793380737,3,3,3,3,-9.33,1.08,-2.24,-1.27,-0.05,-0.01
25.05955791473389,3,3,3,3,-9.43,1.52,-2.27,-0.89,-0.13,0.11
25.0795578956604,3,3,3,3,-9.390000000000001,1.59,-2.5,-0.53,-0.21,0.29
25.09955787658691,3,3,3,3,-9.289999999999999,1.74,-2.58,-0.35,-0.12,0.48
25.11955785751343,3,3,3,3,-9.32,1.64,-2.57,-0.52,-0.14,0.57
25.13955783843994,3,3,3,3,-9.49,1.43,-2.37,-1.2,-0.35,0.48
25.15955805778503,3,3,3,3,-9.470000000000001,1.12,-2.26,-1.9,-0.3,0.39
25.17955803871155,3,3,3,3,-9.41,0.78,-2.16,-2.12,-0.22,0.15
25.19955801963806,3,3,3,3,-9.43,0.75,-2.09,-1.93,-0.21,0.05
25.21955800056458,3,3,3,3,-9.449999999999999,0.92,-2.14,-1.36,-0.29,0.08
25.23955798149109,3,3,3,3,-9.41,1.17,-2.34,-0.67,-0.28,0.2
25.2595579624176,3,3,3,3,-9.41,1.4,-2.32,-0.33,-0.49,0.4
25.27955794334412,3,3,3,3,-9.390000000000001,1.51,-2.45,-0.27,-0.57,0.49
25.29955792427063,3,3,3,3,-9.470000000000001,1.57,-2.24,-0.6,-0.72,0.45
25.31955790519714,3,3,3,3,-9.43,1.45,-2.21,-1.06,-0.83,0.38
25.33955788612366,3,3,3,3,-9.5,1.19,-2.16,-1.41,-0.5600000000000001,0.27
25.35955786705017,3,3,3,3,-9.48,1.1,-2.06,-1.28,-0.33,0.18
25.37955784797668,3,3,3,3,-9.48,1.12,-2.1,-0.78,-0.17,0.1
25.39955806732178,3,3,3,3,-9.4,1.15,-2.09,-0.48,-0.18,0.08
25.41955804824829,3,3,3,3,-9.460000000000001,1.21,-2.14,-0.22,-0.23,0.12
25.4395580291748,3,3,3,3,-9.49,1.35,-2.26,0.01,-0.27,0.18
25.45955801010132,3,3,3,3,-9.42,1.43,-2.2,0.21,-0.02,0.14
25.47955799102783,3,3,3,3,-9.380000000000001,1.42,-2.22,0.16,-0.1,0.08
25.49955797195435,3,3,3,3,-9.48,1.43,-2.14,0,-0.04,0.02
25.51955795288086,3,3,3,3,-9.449999999999999,1.4,-2.12,-0.06,-0.07000000000000001,-0.02
25.53955793380737,3,3,3,3,-9.41,1.26,-2.15,-0.01,0.16,0
25.55955791473389,3,3,3,3,-9.390000000000001,1.17,-2.17,0.15,0,0.12
25.5795578956604,3,3,3,3,-9.470000000000001,1.23,-2.18,0.48,-0.02,0.1
25.59955787658691,3,3,3,3,-9.380000000000001,1.38,-2.1,0.75,0.08,0.11
25.61955785751343,3,3,3,3,-9.42,1.43,-2.16,0.66,0.04,0.16
25.63955783843994,3,3,3,3,-9.51,1.49,-2.23,0.54,0.08,0.14
25.65955805778503,3,3,3,3,-9.470000000000001,1.52,-2.2,0.42,0.01,0.12
25.67955803871155,3,3,3,3,-9.380000000000001,1.34,-2.21,0.17,0.06,0.13
25.69955801963806,3,3,3,3,-9.43,1.37,-2.19,0.03,0.11,0.13
25.71955800056458,3,3,3,3,-9.460000000000001,1.19,-2.23,0.03,0.07000000000000001,0.06
25.73955798149109,3,3,3,3,-9.51,1.19,-2.21,0.11,0.04,0.07000000000000001
25.7595579624176,3,3,3,3,-9.43,1.3,-2.1,0.21,-0.05,0.06
25.77955794334412,3,3,3,3,-9.44,1.44,-2.34,0.11,0.03,-0.06
25.80055785179138,3,3,3,3,-9.4,1.43,-2.3,0.04,0.13,-0.1
25.82055807113647,3,3,3,3,-9.35,1.39,-2.24,-0.06,0.11,-0.04
25.84055805206299,3,3,3,3,-9.44,1.31,-2.32,-0.04,0.04,-0.17
25.8605580329895,3,3,3,3,-9.51,1.3,-2.19,-0.22,0.05,-0.19
25.88055801391602,3,3,3,3,-9.42,1.36,-2.31,-0.47,0.05,-0.22
25.90055799484253,3,3,3,3,-9.390000000000001,1.26,-2.23,-0.64,0.13,-0.28
25.92055797576904,3,3,3,3,-9.41,1.02,-2.26,-0.6899999999999999,0.04,-0.36
25.94055795669556,3,3,3,3,-9.49,1.18,-2.26,-0.52,0.1,-0.41
25.96055793762207,3,3,3,3,-9.460000000000001,1.26,-2.23,-0.26,0.09,-0.36
25.98055791854858,3,3,3,3,-9.390000000000001,1.25,-2.22,-0.15,0.06,-0.28
26.0005578994751,3,3,3,3,-9.44,1.3,-2.24,-0.18,-0.03,-0.32
26.02055788040161,3,3,3,3,-9.449999999999999,1.35,-2.21,-0.28,-0.02,-0.27
26.04055786132812,3,3,3,3,-9.529999999999999,1.43,-2.28,-0.27,-0.02,-0.18
26.06055784225464,3,3,3,3,-9.390000000000001,1.38,-2.24,-0.13,0.06,-0.1
26.08055806159973,3,3,3,3,-9.380000000000001,1.37,-2.29,-0.05,0.02,0
26.10055804252625,3,3,3,3,-9.49,1.33,-2.27,-0.13,-0.06,-0.01
26.12055802345276,3,3,3,3,-9.52,1.2,-2.23,-0.32,-0.19,-0.04
26.14055800437927,3,3,3,3,-9.44,1.28,-2.26,-0.29,-0.12,-0.03
26.16055798530579,3,3,3,3,-9.4,1.48,-2.16,-0.32,0.02,-0.07000000000000001
26.1805579662323,3,3,3,3,-9.390000000000001,1.45,-2.36,-0.47,0.01,-0.01
26.20055794715881,3,3,3,3,-9.460000000000001,1.3,-2.23,-0.61,-0.12,0.02
26.22055792808533,3,3,3,3,-9.42,1.21,-2.22,-0.59,-0.14,0.01
26.24055790901184,3,3,3,3,-9.380000000000001,1.16,-2.23,-0.54,-0.07000000000000001,-0.02
26.26055788993835,3,3,3,3,-9.470000000000001,1.24,-2.2,-0.37,-0.06,0.05
26.28055787086487,3,3,3,3,-9.48,1.19,-2.25,-0.25,-0.11,0.07000000000000001
26.30055785179138,3,3,3,3,-9.43,1.19,-2.11,-0.05,-0.02,0.17
26.32055807113647,3,3,3,3,-9.43,1.2,-2.16,0.01,0.01,0.1
26.34055805206299,3,3,3,3,-9.460000000000001,1.3,-2.18,0.01,0.03,0.07000000000000001
26.3605580329895,3,3,3,3,-9.449999999999999,1.3,-2.18,-0.09,-0.08,0.12
26.38055801391602,3,3,3,3,-9.42,1.34,-2.26,-0.28,-0.12,0.05
26.40055799484253,3,3,3,3,-9.380000000000001,1.35,-2.2,-0.28,-0.04,-0.01
26.42055797576904,3,3,3,3,-9.42,1.25,-2.19,-0.23,-0.13,0.05
26.44055795669556,3,3,3,3,-9.470000000000001,1.26,-2.23,-0.13,-0.19,0.05
26.46055793762207,3,3,3,3,-9.449999999999999,1.32,-2.12,-0.05,0.04,0.07000000000000001
26.48055791854858,3,3,3,3,-9.44,1.33,-2.25,0.01,0.06,0.09
26.5005578994751,3,3,3,3,-9.5,1.29,-2.22,0.05,0.02,0.12
26.52055788040161,3,3,3,3,-9.42,1.24,-2.18,-0.04,-0.02,0.07000000000000001
26.54055786132812,3,3,3,3,-9.4,1.36,-2.22,-0.09,0.06,0.06
26.56055784225464,3,3,3,3,-9.43,1.37,-2.16,-0.1,0.15,0.07000000000000001
26.58055806159973,3,3,3,3,-9.44,1.24,-2.24,-0.2,0.01,0.08
26.60055804252625,3,3,3,3,-9.460000000000001,1.29,-2.19,-0.07000000000000001,0.02,0.09
26.62055802345276,3,3,3,3,-9.460000000000001,1.29,-2.23,0.14,0.1,0.13
26.64055800437927,3,3,3,3,-9.390000000000001,1.29,-2.25,0.18,0.03,0.17
26.66055798530579,3,3,3,3,-9.43,1.28,-2.08,0.15,-0.02,0.16
26.6805579662323,3,3,3,3,-9.460000000000001,1.26,-2.3,0.07000000000000001,0.01,0.13
26.70055794715881,3,3,3,3,-9.4,1.35,-2.16,0.09,0.16,0.08
26.72055792808533,3,3,3,3,-9.43,1.39,-2.18,0.15,0.16,0.15
26.74055790901184,3,3,3,3,-9.460000000000001,1.42,-2.19,0.2,0.11,0.17
26.76055788993835,3,3,3,3,-9.4,1.3,-2.13,0.17,0.14,0.18
26.78055787086487,3,3,3,3,-9.4,1.23,-2.1,0.24,0.18,0.19
26.80055785179138,3,3,3,3,-9.48,1.32,-2.16,0.44,0.11,0.22
26.82155799865723,3,3,3,3,-9.49,1.45,-2.35,0.41,-0.03,0.31
26.84155797958374,3,3,3,3,-9.43,1.35,-2.53,0.39,-0.02,0.37
26.86155796051025,3,3,3,3,-9.359999999999999,1.49,-2.3,0.49,0.04,0.34
26.88155794143677,3,3,3,3,-9.35,1.52,-2.26,0.38,0.24,0.24
26.90155792236328,3,3,3,3,-9.4,1.5,-2.19,0.1,0.15,0.29
26.92155790328979,3,3,3,3,-9.42,1.43,-1.97,-0.29,-0.16,0.23
26.94155788421631,3,3,3,3,-9.449999999999999,1.34,-2.25,-0.45,-0.02,0.18
26.96155786514282,3,3,3,3,-9.32,1.2,-2.15,-0.51,0.17,0.12
26.98155784606934,3,3,3,3,-9.380000000000001,1.15,-2.34,0.08,0.23,0.21
27.00155806541443,3,3,3,3,-9.369999999999999,1.51,-2.13,0.24,0.01,0.32
27.02155804634094,3,3,3,3,-9.369999999999999,1.43,-2.36,0.15,-0.08,0.36
27.04155802726746,3,3,3,3,-9.390000000000001,1.03,-2.54,-0.13,0.02,0.4
27.06155800819397,3,3,3,3,-9.4,1.04,-2.41,0.47,0.08,0.51
27.08155798912048,3,3,3,3,-9.43,1.38,-2.37,0.98,-0.09,0.59
27.101557970047,3,3,3,3,-9.42,1.6,-2.13,0.37,-0.35,0.62
27.12155795097351,3,3,3,3,-9.43,1.24,-2.4,-0.37,-0.29,0.55
27.14155793190002,3,3,3,3,-9.390000000000001,1.09,-2.68,-0.6899999999999999,-0.06,0.42
27.16155791282654,3,3,3,3,-9.390000000000001,1.23,-2.69,-0.23,0.03,0.47
27.18155789375305,3,3,3,3,-9.31,1.56,-2.58,0.09,-0.26,0.59
27.20155787467957,3,3,3,3,-9.4,1.4,-2.38,-0.04,-0.55,0.83
27.22155785560608,3,3,3,3,-9.43,1.06,-2.34,-0.31,-0.83,0.97
27.24155807495117,3,3,3,3,-9.48,0.91,-2.39,-0.47,-0.87,0.9
27.26155805587769,3,3,3,3,-9.529999999999999,0.89,-2.27,-0.5,-0.76,0.85
27.2815580368042,3,3,3,3,-9.5,0.9399999999999999,-2.16,-0.63,-0.97,0.9
27.30155801773071,3,3,3,3,-9.6,0.68,-1.97,-0.76,-1.24,0.96
27.32155799865723,3,3,3,3,-9.77,-0.28,-1.5,-0.71,-1.69,0.96
27.34155797958374,3,3,3,3,-9.91,-0.88,-1.06,0.07000000000000001,-2.49,0.84
27.36155796051025,3,3,3,3,-10.18,-1.77,-0.55,1.1,-3.23,0.51
27.38155794143677,3,3,3,3,-10.23,-2.44,-0.33,1.68,-3.53,-0.57
27.40155792236328,3,3,3,3,-10.38,-3.48,0.29,2.29,-3.79,-2.41
27.42155790328979,3,3,3,3,-10.4,-3.75,0.52,2.38,-4.54,-5.02
27.44155788421631,3,3,3,3,-10.87,-3.65,0.43,2.14,-5.67,-7.55
27.46155786514282,3,3,3,3,-11.31,-2.54,0.29,0.82,-6.8,-9.66
27.48155784606934,3,3,3,3,-11.53,-1.46,-0.62,-3.45,-6.78,-11.03
27.50155806541443,3,3,3,3,-11.84,-0.9,-1.25,-5.65,-4.82,-11.13
27.52155804634094,3,3,3,3,-11.07,1.37,-1.62,-4.89,-4.37,-9.91
27.54155802726746,3,3,3,3,-10.98,2.61,-1.61,-3.88,-4.01,-9.33
27.56155800819397,3,3,3,3,-10.2,3.42,-1.91,-3.77,-3.77,-8.98
27.58155798912048,3,3,3,3,-9.859999999999999,2.22,-2.71,-4.14,-2.6,-9.6
27.601557970047,3,3,3,3,-10.05,0.51,-2.73,-3.19,-1.85,-10.18
27.62155795097351,3,3,3,3,-9.91,0.51,-2.13,-0.16,-2.61,-9.640000000000001
27.64155793190002,3,3,3,3,-9.029999999999999,0.43,-1.65,2.36,-2.35,-8.74
27.66155791282654,3,3,3,3,-8.880000000000001,-0.09,-1.41,4.99,-1.57,-8.41
27.68155789375305,3,3,3,3,-8.85,-0.43,-1.25,7.23,-1.39,-7.99
27.70155787467957,3,3,3,3,-8.76,-1.22,-0.78,9.42,-1.31,-7.7
27.72155785560608,3,3,3,3,-9.140000000000001,-1.49,-0.67,11.42,-1,-7.31
27.74155807495117,3,3,3,3,-9.289999999999999,-0.8100000000000001,-0.53,13.29,-1.02,-6.75
27.76155805587769,3,3,3,3,-8.94,-0.26,-0.33,13.48,-1.36,-6.1
27.7815580368042,3,3,3,3,-8.57,-0.54,-0.93,12.19,-1.35,-5.46
27.80155801773071,3,3,3,3,-8.73,-0.9399999999999999,-0.43,8.359999999999999,-0.9399999999999999,-6.12
27.82155799865723,3,3,3,3,-8.69,-0.83,0.21,5.83,-0.62,-6.03
27.84155797958374,3,3,3,3,-8.69,-1.09,0.04,4.1,-0.33,-5.01
27.86255788803101,3,3,3,3,-8.75,-1.98,0.5600000000000001,2.27,0.28,-4.67
27.88255786895752,3,3,3,3,-8.609999999999999,-2.79,0.45,0.57,-0.68,-3.7
27.90255784988403,3,3,3,3,-9.220000000000001,-2.4,1.18,1.02,-0.24,-2.94
27.92255806922913,3,3,3,3,-8.789999999999999,-2.84,1.28,2.1,-1.65,-0.8
27.94255805015564,3,3,3,3,-8.98,-4.47,1.43,2.47,-0.6,0.15
27.96255803108215,3,3,3,3,-8.9,-4.74,1.01,2.88,-0.23,0.29
27.98255801200867,3,3,3,3,-8.52,-3.52,0,2.28,1.1,0.46
28.00255799293518,3,3,3,3,-9.26,-3.15,-0.21,0.92,1.91,0.24
28.02255797386169,3,3,3,3,-9.470000000000001,-0.96,0.59,-1.1,1.74,3.99
28.04255795478821,3,3,3,3,-13.41,-1.42,0.25,-1.17,2.21,2.3
28.06255793571472,3,3,3,3,-12.68,-8.33,2.47,-3.21,4.61,1
28.08255791664124,3,3,3,3,-11.49,-3.47,0.9,3.22,5.28,4.1
28.10255789756775,3,3,3,3,-9.390000000000001,2.26,-0.99,3.69,5.72,4.39
28.12255787849426,3,3,3,3,-7.94,4.29,-3.6,2.65,8.140000000000001,6.68
28.14255785942078,3,3,3,3,-8.300000000000001,0.21,-4.24,2.01,5.34,6.7
28.16255784034729,3,3,3,3,-9.15,-0.61,-3.03,2.6,4.32,7.09
28.18255805969238,3,3,3,3,-10.08,1.76,-2.15,4.39,4.44,7.95
28.2025580406189,3,3,3,3,-9.789999999999999,1.65,-1.57,3.71,5.05,7.84
28.22255802154541,3,3,3,3,-9.82,-0.08,-0.89,2.21,5.88,8.470000000000001
28.24255800247192,3,3,3,3,-9.76,-0.64,-1.11,1.82,5.41,8.51
28.26255798339844,3,3,3,3,-9.4,-1.02,-1.16,1.47,5.31,8.4
28.28255796432495,3,3,3,3,-9.460000000000001,0.31,-1.81,0.23,5.36,7.67
28.30255794525146,3,3,3,3,-9.640000000000001,0.76,-2.12,-0.91,5.29,7.61
28.32255792617798,3,3,3,3,-9.630000000000001,0.89,-2.47,-2.69,5.51,7.56
28.34255790710449,3,3,3,3,-9.44,0.64,-2.32,-2.89,4.89,7.21
28.36255788803101,3,3,3,3,-9.539999999999999,1.3,-2.29,-2.52,4.63,7.2
28.38255786895752,3,3,3,3,-9.369999999999999,1.44,-2.53,-2.37,4.7,7.88
28.40255784988403,3,3,3,3,-9.42,0.7,-2.47,-2.8,4.26,7.59
28.42255806922913,3,3,3,3,-9.31,0.44,-2.54,-2.8,3.88,6.87
28.44255805015564,3,3,3,3,-9.369999999999999,-0.06,-2.71,-2.77,3.57,6.46
28.46255803108215,3,3,3,3,-9.34,-0.07000000000000001,-3.21,-2.28,3.55,6.4
28.48255801200867,3,3,3,3,-9.460000000000001,-0.75,-3,-0.86,3.47,5.65
28.50255799293518,3,3,3,3,-9.449999999999999,-0.72,-2.09,-0.52,3.23,5.44
28.52255797386169,3,3,3,3,-9.550000000000001,0.32,-2.23,-0.77,2.76,4.91
28.54255795478821,3,3,3,3,-9.699999999999999,0.46,-2.9,-1.09,2.64,4.62
28.56255793571472,3,3,3,3,-9.26,0.45,-3.9,-0.86,2.72,4.35
28.58255791664124,3,3,3,3,-8.65,0.34,-3.75,0.93,2.93,3.2
28.60255789756775,3,3,3,3,-9.199999999999999,1.11,-2.51,1.47,2.73,3.18
28.62255787849426,3,3,3,3,-9.779999999999999,2.96,-2.52,0.12,1.97,3.77
28.64255785942078,3,3,3,3,-9.35,1.77,-3.29,-1.5,2.09,3.45
28.66255784034729,3,3,3,3,-8.77,0.86,-3.51,-2.51,1.52,3.49
28.68255805969238,3,3,3,3,-8.91,0.99,-3.68,-1.96,1.63,2.84
28.7025580406189,3,3,3,3,-9.06,1.33,-3.76,-2,1.76,2.65
28.72255802154541,3,3,3,3,-9.109999999999999,1.48,-3.23,-2.66,1.72,2.43
28.74255800247192,3,3,3,3,-8.970000000000001,1.8,-2.87,-3.06,1.74,2.24
28.76255798339844,3,3,3,3,-9.25,2.74,-2.7,-3.49,1.74,2.34
28.78255796432495,3,3,3,3,-9.199999999999999,2.15,-3.15,-5.56,1.47,2.5
28.80255794525146,3,3,3,3,-8.91,0.99,-3.15,-5.55,1.37,2.32
28.82255792617798,3,3,3,3,-8.82,1.14,-3.29,-5.24,1.65,2.12
28.84255790710449,3,3,3,3,-9.06,1.4,-2.79,-5.32,1.38,2.32
28.86255788803101,3,3,3,3,-9.65,1.34,-2.68,-5.71,1.14,2.39
28.88355803489685,3,3,3,3,-9.68,1.21,-2.33,-7.63,0.95,2.84
28.90355801582336,3,3,3,3,-9.44,1.55,-2.59,-8.970000000000001,1.64,2.69
28.92355799674988,3,3,3,3,-9.289999999999999,1.39,-2.58,-11.59,1.44,2.19
28.94355797767639,3,3,3,3,-9.039999999999999,1.6,-2.87,-11.68,0.34,2.3
28.96355795860291,3,3,3,3,-9.25,0.9399999999999999,-3.94,-11.9,-0.46,2.57
28.98355793952942,3,3,3,3,-10.32,0.61,-3.96,-8.41,0.45,1.16
29.00355792045593,3,3,3,3,-10.45,-0.42,-3.71,-8.08,1.78,1.46
29.02355790138245,3,3,3,3,-12.12,-1.8,-1.78,-4.33,-0.41,1.68
29.04355788230896,3,3,3,3,-12.46,-2.02,-0.58,-0.84,-2.73,0.46
29.06355786323547,3,3,3,3,-12,-1.13,0.37,0.32,-3.54,-0.4
29.08355784416199,3,3,3,3,-11.42,-1.89,1.13,-0.14,-6.42,-4.82
29.10355806350708,3,3,3,3,-10.79,-2.14,1.45,-1.1,-7.2,-6.78
29.12355804443359,3,3,3,3,-10.27,-1.36,0.73,-5.63,-7.87,-10.1
29.14355802536011,3,3,3,3,-8.91,1.01,-0.18,-8.65,-7.53,-11
29.16355800628662,3,3,3,3,-8.65,1.36,-0.88,-9.619999999999999,-7.13,-11.51
29.18355798721313,3,3,3,3,-11.1,3.29,-1.49,-10.49,-6.27,-12.01
29.20355796813965,3,3,3,3,-11.55,4.5,-1.47,-10.44,-6.53,-11.14
29.22355794906616,3,3,3,3,-11.39,3.84,-2.86,-14.13,-5.43,-12.2
29.24355792999268,3,3,3,3,-10.77,2.39,-2.62,-12.84,-4.66,-14.74
29.26355791091919,3,3,3,3,-10.46,1.92,-2.57,-8.640000000000001,-3.77,-15.27
29.2835578918457,3,3,3,3,-10.58,1.56,-2.73,-2.89,-2.81,-14.38
29.30355787277222,3,3,3,2,-10.12,1.1,-2.59,1.77,-2.6,-14.64
29.32355785369873,3,3,3,2,-9.94,0.79,-2.12,7.06,-2.51,-14.38
29.34355807304382,3,3,3,2,-9.859999999999999,1.5,-1.76,11.36,-2.55,-13.81
29.36355805397034,3,3,3,2,-9.67,1.85,-1.63,12.73,-2.68,-13.4
29.38355803489685,3,3,3,2,-9.09,1.43,-1.35,12.46,-1.83,-13.32
29.40355801582336,3,3,3,2,-9.210000000000001,1.39,-1.29,12.34,-1.37,-12.86
29.42355799674988,3,3,3,2,-8.59,1.52,-1.45,11.48,-0.89,-12.14
29.44355797767639,3,3,3,2,-8.02,1.01,-1.49,10.08,0.01,-11.07
29.46355795860291,3,3,3,1,-7.81,0.35,-1.44,7.87,0.3,-9.890000000000001
29.48355793952942,3,3,3,1,-8.02,0.01,-1.52,6.6,0.57,-8.609999999999999
29.50355792045593,3,3,3,1,-8.15,-0.01,-1.51,4.86,1.28,-7.62
29.52355790138245,3,3,3,1,-8.529999999999999,-0.5600000000000001,-0.61,3.85,1.23,-7.3
29.54355788230896,3,3,3,1,-8.68,-1.06,0.02,3.58,0.86,-7.18
29.56355786323547,3,3,3,1,-8.83,-1.73,0.06,3.74,0.8100000000000001,-6.08
29.58355784416199,3,3,3,1,-9.050000000000001,-2.37,-0.18,5.13,1.24,-5.43
29.60355806350708,3,3,3,1,-9.359999999999999,-2.78,0.07000000000000001,7.19,-0.34,-4.55
29.62355804443359,3,3,3,1,-10.3,-4.53,0.63,8.449999999999999,-2.93,-4.63
29.64355802536011,3,3,3,1,-9.94,-4.85,1.77,7.51,-5.55,-5.33
29.66355800628662,3,3,3,1,-9.06,-3.71,1.61,5.65,-4.99,-4.63
29.68355798721313,3,3,3,1,-7.94,-2.89,0.95,2.01,-2.13,-3.54
29.70355796813965,3,3,3,1,-7.69,-2.14,0.79,-0.61,-0.21,-1.68
29.72355794906616,3,3,3,1,-7.51,-2.24,-0.15,-0.28,2.26,1.05
29.74355792999268,3,3,3,1,-7.89,-2.28,-1,-0.4,4.5,2.28
29.76355791091919,3,3,3,1,-8.859999999999999,-0.96,-1.53,0.83,6.14,3.85
29.7835578918457,3,3,3,1,-10.96,-0.41,-0.86,2.38,4.71,5.64
29.80355787277222,3,3,3,1,-14.24,-8.19,2.39,3.07,3.61,4.73
29.82355785369873,3,3,3,1,-15.14,-13.04,4.15,4.54,3.9,2.69
29.84355807304382,3,3,3,1,-11.37,-1.17,2.12,10.63,2.35,6.16
29.86355805397034,3,3,3,1,-7.51,6.58,-1.54,10.46,6.43,7.21
29.88355803489685,3,3,3,1,-8.77,2.67,-5,4.41,10.17,8.119999999999999
29.90455794334412,3,3,3,1,-8.42,1.21,-3.54,1.63,6.78,7.85
29.92455792427063,3,3,3,1,-9.01,2.64,-4.2,1.74,5.36,8.15
29.94455790519714,3,3,3,1,-10.2,2.55,-2.55,-0.04,4.5,7.61
29.96455788612366,3,3,3,1,-10.09,-1.06,-2.09,-1.36,6.28,7.66
29.98455786705017,3,3,3,1,-9.94,-0.72,-1.38,-0.59,5.49,7.85
30.00455784797668,3,3,3,1,-9.82,-0.32,-1.09,-0.19,5.23,8.23
30.02455806732178,3,3,3,1,-9.52,-0.52,-2.12,0.99,5.25,8.73
30.04455804824829,3,3,3,1,-9.19,-0.37,-2.46,1.34,4.76,8.69
30.0645580291748,3,3,3,1,-9.82,-0.05,-1.71,2,4.05,8.65
30.08455801010132,3,3,3,1,-10.03,1.18,-1.45,1.7,3.48,8.550000000000001
30.10455799102783,3,3,3,1,-9.6,3.06,-1.7,-0.8,3.87,8.69
30.12455797195435,3,3,3,1,-9.210000000000001,2.2,-2.27,-3.22,4.69,8.449999999999999
30.14455795288086,3,3,3,1,-9.119999999999999,0.45,-3.2,-5.74,4.49,7.73
30.16455793380737,3,3,3,2,-9.140000000000001,-1,-3.13,-5.07,4.9,7.08
30.18455791473389,3,3,3,2,-9.380000000000001,-1.2,-2.72,-3.92,4.28,6.58
30.2045578956604,3,3,3,2,-9.41,-1.14,-2.29,-3.15,3.96,6.33
30.22455787658691,3,3,3,2,-9.68,-1.11,-2.04,-2.18,3.45,5.79
30.24455785751343,3,3,3,2,-9.33,-0.93,-2.18,-0.58,3.52,5.41
30.26455783843994,3,3,3,2,-9.94,-0.13,-1.83,0.85,3.26,5.01
30.28455805778503,3,3,3,2,-9.73,1.25,-1.68,1.92,2.64,5.56
30.30455803871155,3,3,3,2,-9.59,1.07,-2.72,0.38,2.75,5.76
30.32455801963806,3,3,3,2,-9.050000000000001,0.75,-2.79,-0.78,2.73,5.08
30.34455800056458,3,3,3,2,-9.09,1.26,-3.08,-0.4,3.16,4.67
30.36455798149109,3,3,3,2,-9.07,1.12,-2.83,-1.03,2.88,4.3
30.3845579624176,3,3,3,2,-9.539999999999999,1,-2.61,-1.88,2.41,3.47
30.40455794334412,3,3,3,2,-9.09,0.64,-3.09,-2.3,2.32,3.38
30.42455792427063,3,3,3,2,-9.130000000000001,1.17,-2.85,-2.13,2.37,2.93
30.44455790519714,3,3,3,2,-9.08,1.5,-3.32,-0.77,2.36,3
30.46455788612366,3,3,3,2,-9.289999999999999,2.3,-3.34,-0.74,1.45,3.56
30.48455786705017,3,3,3,2,-9.109999999999999,1.98,-3.25,-2.01,1.08,3.67
30.50455784797668,3,3,3,2,-9.32,0.88,-3.32,-3.22,1.3,3.21
30.52455806732178,3,3,3,2,-8.93,1.43,-2.86,-3.4,2.19,2.34
30.54455804824829,3,3,3,2,-9.130000000000001,2.07,-2.99,-4.82,2.46,2.11
30.5645580291748,3,3,3,2,-9.18,1.85,-2.84,-6.47,1.69,2.08
30.58455801010132,3,3,3,2,-9.050000000000001,1.11,-2.7,-7.28,1.2,2.09
30.60455799102783,3,3,3,2,-9.67,1.2,-2.7,-8.210000000000001,1.5,2.19
30.62455797195435,3,3,3,2,-9.82,2.17,-3.22,-8.300000000000001,1.78,2.05
30.64455795288086,3,3,3,2,-9.390000000000001,1.33,-3.02,-9.51,1.51,1.72
30.66455793380737,3,3,3,2,-9.42,1.17,-2.72,-9.5,1.07,1.81
30.68455791473389,3,3,3,2,-9.369999999999999,0.51,-2.87,-8.9,1.16,1.97
30.7045578956604,3,3,3,2,-9.380000000000001,1.21,-2.07,-7.6,1.5,1.8
30.72455787658691,3,3,3,2,-9.74,2.36,-2.29,-6.79,0.97,1.98
30.74455785751343,3,3,3,2,-9.98,1.87,-2.23,-8.33,-0.41,2.47
30.76455783843994,3,3,3,2,-10.21,-0.71,-3.37,-10.08,-2.34,2.33
30.78455805778503,3,3,3,2,-10.27,-1.26,-3.45,-8.289999999999999,-0.92,1.18
30.80455803871155,3,3,3,2,-11.24,-1.09,-2.08,-5.13,0.6899999999999999,1.14
30.82455801963806,3,3,3,2,-12.18,-0.67,-1.11,-2.99,-0.54,0.74
30.84455800056458,3,3,3,2,-12.12,-1.53,0.28,-3.57,-3.29,-0.55
30.86455798149109,3,3,3,2,-11.35,-2.39,0.88,-4.08,-5.95,-2.09
30.8845579624176,3,3,3,2,-10.87,-2.3,0.78,-4.81,-6.83,-3.4
30.90455794334412,3,3,3,2,-10.97,-1.75,0.8,-5.61,-7.74,-5.31
30.92555785179138,3,3,3,2,-11.12,-0.5,0.28,-5.75,-8.6,-7.06
30.94555807113647,3,3,3,2,-10.21,-0.58,-0.66,-5.9,-8.710000000000001,-8.970000000000001
30.96555805206299,3,3,3,2,-9.27,-0.59,-2.52,-7.29,-6.67,-11.24
30.9855580329895,3,3,3,2,-9.619999999999999,0.9,-3.35,-5.96,-5.4,-12.41
31.00555801391602,3,3,3,2,-11.48,3.06,-2.12,-4.22,-5.62,-12.91
31.02555799484253,3,3,3,2,-12.25,4.47,-2.25,-3.2,-5.6,-13.13
31.04555797576904,3,3,3,2,-11.87,3.82,-2.31,-4.19,-4.77,-13.9
31.06555795669556,3,3,3,2,-10.78,2.11,-2.33,-4.09,-4.05,-15.08
31.08555793762207,3,3,3,2,-10.78,0.85,-2.13,-1.75,-3.18,-15.68
31.10555791854858,3,3,3,2,-11.02,0.98,-2.18,3.21,-2.67,-15.41
31.1255578994751,3,3,3,2,-10.41,2.3,-2.14,8.109999999999999,-2.68,-15.8
31.14555788040161,3,3,3,2,-9.48,2.46,-1.88,11.03,-3.04,-16.11
31.16555786132812,3,3,3,2,-9.289999999999999,2.43,-1.68,11.44,-2.83,-16.04
31.18555784225464,3,3,3,2,-9.119999999999999,1.88,-1.32,12.64,-2.83,-14.81
31.20555806159973,3,3,3,2,-8.67,2.5,-1.5,13.19,-2.3,-13.52
31.22555804252625,3,3,3,2,-8.109999999999999,3.4,-1.61,12.8,-1.7,-11.96
31.24555802345276,3,3,3,2,-7,2.13,-2.02,8.619999999999999,-0.73,-11.41
31.26555800437927,3,3,3,2,-7.43,2.03,-1.53,7.81,0.66,-10.14
31.28555798530579,3,3,3,2,-6.67,0.3,-2.04,6.94,2.39,-9.02
31.3055579662323,3,3,3,2,-7.24,-0.51,-1.5,6.7,3.38,-8.130000000000001
31.32555794715881,3,3,3,2,-7.63,-0.36,-1.12,7.85,2.54,-5.99
31.34555792808533,3,3,3,2,-7.85,-0.79,-0.61,9.699999999999999,1.25,-2.88
31.36555790901184,3,3,3,2,-9,-1.69,0.21,10.38,1.13,-1.66
31.38555788993835,3,3,3,2,-9.92,-4.08,1.29,9.84,0.53,-2.3
31.40555787086487,3,3,3,2,-10.36,-6.15,1.87,8.92,-2.64,-3.78
31.42555785179138,3,3,3,2,-9.9,-6.84,2.66,5.89,-4.74,-4.28
31.44555807113647,3,3,3,2,-9.699999999999999,-5.55,2.75,3.19,-3.24,-4.27
31.46555805206299,3,3,3,2,-8.460000000000001,-3.83,0.45,1.25,0.31,-4.43
31.4855580329895,3,3,3,2,-6.95,-2.36,-0.49,-4.6,4.73,-2.53
31.50555801391602,3,3,3,2,-7.67,-0.17,-0.39,-5.7,7.38,3.6
31.52555799484253,3,3,3,2,-13.8,-1.71,0.39,6.09,4.99,5.4
31.54555797576904,3,3,3,2,-16.21,-13.13,4.56,4.67,0.2,2.34
31.56555795669556,3,3,3,2,-13.99,-4.15,1.86,11.43,1.96,6.08
31.58555793762207,3,3,3,2,-8.609999999999999,6.26,-2.01,12.81,3.81,6.84
31.60555791854858,3,3,3,2,-7.63,6.93,-6.41,7.62,10.89,8.289999999999999
31.6255578994751,3,3,3,2,-7.71,3.32,-5.44,0.36,11.05,8.199999999999999
31.64555788040161,3,3,3,2,-7.97,2.4,-3.57,-1.45,7.45,7.1
31.66555786132812,3,3,3,2,-11.69,2.5,-1.25,-2.11,4.84,7.6
31.68555784225464,3,3,3,2,-11.51,0.4,-0.62,-2.44,5.94,8.609999999999999
31.70555806159973,3,3,3,2,-9.84,-0.26,-1.63,-0.6899999999999999,6.12,9.199999999999999
31.72555804252625,3,3,3,2,-9.529999999999999,0.02,-1.87,1.42,5.35,9.470000000000001
31.74555802345276,3,3,3,2,-8.98,-0.49,-3.27,1.04,5.29,9.34
31.76555800437927,3,3,3,2,-8.869999999999999,-0.88,-3.12,0.65,5.35,8.67
31.78555798530579,3,3,3,2,-9.65,-0.6,-1.95,2.27,4.79,8.460000000000001
31.8055579662323,3,3,3,2,-9.92,-0.07000000000000001,-1.31,3.52,4.39,9.23
31.82555794715881,3,3,3,2,-9.44,1.17,-1.44,3.86,4.34,9.720000000000001
31.84555792808533,3,3,3,2,-9.44,1.28,-1.95,2.07,4.53,9.550000000000001
31.86555790901184,3,3,3,2,-9.300000000000001,0.8,-2.52,-0.47,4.69,8.460000000000001
31.88555788993835,3,3,3,2,-9.359999999999999,0.84,-2.5,-2.56,4.57,7.3
31.90555787086487,3,3,3,2,-9.52,0.43,-2.19,-4.48,4.34,6.78
31.92555785179138,3,3,3,2,-9.27,-1.2,-2.34,-5.06,4.74,6.47
31.94655799865723,3,3,3,2,-9.460000000000001,-1.86,-2.03,-3.23,4.29,5.71
31.96655797958374,3,3,3,2,-9.289999999999999,-1.22,-2.09,-0.96,4.12,5.12
31.98655796051025,3,3,3,2,-9.57,0.34,-2.12,-0.25,3.53,4.77
32.00655794143677,3,3,3,2,-9.57,1.84,-2.11,-0.99,3.38,4.71
32.02655792236328,3,3,3,2,-9.67,1.94,-2.57,-1.64,3.53,4.93
32.04655790328979,3,3,3,2,-9.359999999999999,1.72,-2.74,-2.89,3.03,4.89
32.06655788421631,3,3,3,2,-9.49,1.82,-2.92,-3.65,2.61,4.63
32.08655786514282,3,3,3,2,-9.369999999999999,0.8,-2.98,-4.6,2.63,4.36
32.10655784606934,3,3,3,2,-9.390000000000001,0.38,-3.2,-4.38,2.12,3.81
32.12655806541443,3,3,3,2,-9.26,1.1,-3.32,-4.33,1.97,3.21
32.14655804634094,3,3,3,2,-9.33,1.5,-3.36,-4.2,2.2,2.88
32.16655802726746,3,3,3,2,-9.41,1.95,-3.12,-4.03,2.29,3.21
32.18655800819397,3,3,3,2,-9.1,1.56,-3.27,-4.36,1.76,3.38
32.20655798912048,3,3,3,2,-9.25,1.11,-3.02,-4.14,1.61,2.85
32.226557970047,3,3,3,2,-8.970000000000001,1.29,-2.69,-3.28,2.11,2.55
32.24655795097351,3,3,3,2,-9.41,2.08,-2.98,-3.42,1.97,2.88
32.26655793190002,3,3,3,2,-9.68,2.45,-3.3,-5.25,1.16,3.02
32.28655791282654,3,3,3,2,-8.33,1.33,-3.5,-7.97,0.8,2.1
32.30655789375305,3,3,3,2,-8.300000000000001,1.66,-2.83,-5.41,1.82,1.9
32.32655787467957,3,3,3,2,-8.41,2.57,-2.91,-5.47,1.94,2.67
32.34655785560608,3,3,3,2,-9.710000000000001,2.18,-2.72,-6.77,0.68,3.01
32.36655807495117,3,3,3,2,-9.67,0.88,-2.5,-7.24,0.35,3.23
32.38655805587769,3,3,3,2,-9.199999999999999,0.01,-2.69,-7.5,0.58,2.86
32.4065580368042,3,3,3,2,-9.42,1.04,-2.08,-6.26,1.17,2.84
32.42655801773071,3,3,3,2,-10.13,2.35,-2.27,-5.91,1.53,2.57
32.44655799865723,3,3,3,2,-10.48,2.1,-2.03,-7.34,0.67,2.3
32.46655797958374,3,3,3,2,-10.24,1.4,-1.89,-9.220000000000001,0.42,2.13
32.48655796051025,3,3,3,2,-9.66,-0.63,-2.05,-10,0.34,1.78
32.50655794143677,3,3,3,2,-9.93,-1.22,-1.89,-7.5,0.49,0.83
32.52655792236328,3,3,3,2,-10.1,0.3,-0.05,-5.42,-0.2,-0.16
32.54655790328979,3,3,3,2,-10.57,-0.16,-1.76,-8.74,-1.02,-0.53
32.56655788421631,3,3,3,1,-12.4,-3.77,-0.92,-10.06,-3.23,-1.49
32.58655786514282,3,3,3,1,-13.05,-5.92,-0.07000000000000001,-8.279999999999999,-5.22,-4.14
32.60655784606934,3,3,3,1,-12.13,-4.03,1.65,-5.03,-6.7,-6.78
32.62655806541443,3,3,3,1,-11.7,-0.89,1.77,-7.27,-7.81,-8.369999999999999
32.64655804634094,3,3,3,1,-10.46,1.22,-0.79,-8.609999999999999,-8.890000000000001,-9.890000000000001
32.66655802726746,3,3,3,1,-9.880000000000001,-0.23,-2.96,-8.880000000000001,-7.99,-11.81
32.68655800819397,3,3,3,1,-10.28,0.86,-3.45,-5.23,-7.08,-12.81
32.70655798912048,3,3,3,1,-9.66,2.6,-2.84,-0.58,-6.18,-12.53
32.726557970047,3,3,3,1,-9.85,3.6,-2.59,1.84,-5.15,-12.45
32.74655795097351,3,3,3,1,-10.94,5.26,-2.25,2.22,-4.9,-11.92
32.76655793190002,3,3,3,1,-11.31,5.57,-1.94,1.24,-4.41,-11.28
32.78655791282654,3,3,3,1,-10.49,4.68,-2.07,-0.2,-4.34,-11.4
32.80655789375305,3,3,3,1,-10.12,3.22,-2.22,-0.47,-3.26,-11.36
32.82655787467957,3,3,3,1,-9.75,1.84,-2.57,1.75,-2.4,-11.62
32.84655785560608,3,3,3,1,-9.58,1.25,-2.22,5.33,-1.94,-12.16
32.86655807495117,3,3,3,1,-9.619999999999999,1.45,-1.92,9.720000000000001,-1.41,-12.45
32.88655805587769,3,3,3,1,-9.67,2.11,-1.76,12.13,-1.42,-12.52
32.9065580368042,3,3,3,1,-9.32,2.54,-1.19,11.68,-1.41,-12.7
32.92655801773071,3,3,3,1,-8.970000000000001,2.17,-0.9399999999999999,11.57,-1.34,-12.93
32.94655799865723,3,3,3,1,-8.800000000000001,2.13,-0.84,9.75,-1.09,-12.39
32.96655797958374,3,3,3,1,-8.44,1.89,-0.85,8.02,-0.84,-11.67
32.98755788803101,3,3,3,1,-8.300000000000001,1.11,-1.17,5.79,0.35,-10.68
33.00755786895752,3,3,3,1,-8.289999999999999,-0.02,-1.27,3.71,1.75,-10.05
33.02755784988403,3,3,3,1,-8.300000000000001,-0.85,-1.54,3.96,3.02,-9.59
33.04755806922913,3,3,3,1,-8.43,-0.41,-1.09,4.97,2.91,-8.720000000000001
33.06755805015564,3,3,3,1,-8.539999999999999,-0.6,-0.65,6.04,2.66,-7.51
33.08755803108215,3,3,3,1,-8.09,-1.04,-0.92,6.88,1.91,-6.25
33.10755801200867,3,3,3,1,-8.26,-1.67,-0.31,7.74,1.63,-4.85
33.12755799293518,3,3,3,1,-8.220000000000001,-2.6,-0.52,8.34,1.16,-3.47
33.14755797386169,3,3,3,1,-9.130000000000001,-4.06,0.87,9.92,0.24,-3.1
33.16755795478821,3,3,3,1,-9.949999999999999,-4.37,1.43,10.97,-2.65,-2.89
33.18755793571472,3,3,3,1,-9.720000000000001,-4.49,1.69,10.67,-4.99,-2.16
33.20755791664124,3,3,3,2,-9.44,-4.27,1.37,8.06,-4.27,-2.74
33.22755789756775,3,3,3,2,-8.119999999999999,-2.84,0.75,3.66,-0.4,-1.98
33.24755787849426,3,3,3,2,-6.46,-1.5,-0.05,0.14,2.84,2.11
33.26755785942078,3,3,3,2,-9.51,-2.03,-0.03,-1.39,6.51,4.83
33.28755784034729,3,3,3,2,-14.02,-0.65,0.07000000000000001,0.43,2.03,5.07
33.30755805969238,3,3,3,2,-14.32,-9.800000000000001,3.71,0.22,3.83,2.84
33.3275580406189,3,3,3,2,-12.7,-3.7,-0.23,7.15,5.83,5.51
33.34755802154541,3,3,3,2,-8.83,6.33,-2.88,7.6,6.3,6.01
33.36755800247192,3,3,3,3,-8.460000000000001,4.79,-5.07,3.07,8.92,6.8
33.38755798339844,3,3,3,3,-9.76,3.1,-4,-1.27,7.62,8.460000000000001
33.40755796432495,3,3,3,3,-10.06,3.82,-3.19,-1.67,5.77,8.869999999999999
33.42755794525146,3,3,3,3,-9.949999999999999,1.95,-2.3,-3.03,6.43,8.539999999999999
33.44755792617798,3,3,3,3,-10.16,-0.48,-1.47,-4.16,6.22,8.34
33.46755790710449,3,3,3,3,-9.74,-0.59,-1.72,-2.43,5.99,8.94
33.48755788803101,3,3,3,3,-9.48,-0.36,-2.03,-1.64,5.33,9.1
33.50755786895752,3,3,3,3,-9.699999999999999,-0.11,-1.55,-2.41,4.57,9.17
33.52755784988403,3,3,3,3,-9.279999999999999,1.51,-2.3,-3.63,4.71,9.1
33.54755806922913,3,3,3,3,-9.49,0.46,-2.36,-3.83,5.69,9.24
33.56755805015564,3,3,3,3,-9.68,-0.74,-2.11,-1.95,4.24,9.73
33.58755803108215,3,3,3,3,-9.17,-0.58,-2.55,0.62,3.81,10.01
33.60755801200867,3,3,3,3,-9.57,-1.44,-1.68,1.23,3.14,8.67
33.62755799293518,3,3,3,3,-9.69,-0.8,-2.34,0.43,3.22,7.86
33.64755797386169,3,3,3,3,-9.02,-0.92,-2.23,-0.89,4.23,6.61
33.66755795478821,3,3,3,3,-9.300000000000001,-1.14,-1.88,-1.71,4.24,5.79
33.68755793571472,3,3,3,3,-9.76,-0.74,-1.97,-0.8100000000000001,3.81,5.8
33.70755791664124,3,3,3,3,-9.640000000000001,-0.32,-2.61,-0.41,3.34,5.57
33.72755789756775,3,3,3,3,-8.949999999999999,1.24,-3.23,0.23,3.48,5.45
33.74755787849426,3,3,3,3,-9.16,2.12,-3.4,0.15,3.57,5.96
33.76755785942078,3,3,3,3,-9.109999999999999,2.25,-3.39,-1.36,3.47,5.65
33.78755784034729,3,3,3,3,-9.07,1.42,-3.27,-2.43,3.27,4.94
33.80755805969238,3,3,3,3,-9.359999999999999,0.77,-2.71,-2.36,3.07,4.41
33.8275580406189,3,3,3,3,-9.49,0.91,-2.98,-2.33,3.02,4.04
33.84755802154541,3,3,3,3,-9.289999999999999,1.48,-3,-2.53,2.62,4.06
33.86755800247192,3,3,3,3,-9.43,1.48,-3.02,-2.97,2.27,3.79
33.88755798339844,3,3,3,3,-9.4,1.51,-2.96,-3.84,1.81,3.58
33.90755796432495,3,3,3,2,-9.550000000000001,1.48,-2.98,-4.62,2.31,3.07
33.92755794525146,3,3,3,2,-9.300000000000001,1.32,-2.74,-5.03,2.34,3
33.94755792617798,3,3,3,2,-9.09,1.65,-2.63,-5.55,2.07,3.17
33.96755790710449,3,3,3,2,-8.83,1.76,-3.25,-7.05,0.95,3.34
33.98755788803101,3,3,3,2,-9.15,1.65,-3.17,-6.4,0.39,3.72
34.00855803489685,3,3,3,2,-9.460000000000001,1.33,-3.68,-6.46,0.89,3.08
34.02855801582336,3,3,3,2,-9.449999999999999,1.68,-2.68,-4.98,1.75,2.56
34.04855799674988,3,3,3,2,-9.24,2.11,-2.6,-6.16,1.74,2.85
34.06855797767639,3,3,3,2,-9.449999999999999,1.5,-2.33,-6.91,0.32,3.23
34.08855795860291,3,3,3,2,-9.5,1.33,-2.61,-6.94,0.47,3.31
34.10855793952942,3,3,3,2,-10.4,1.37,-2.67,-7.42,0.52,2.99
34.12855792045593,3,3,3,2,-9.960000000000001,1.38,-2.01,-6.77,0.61,2.2
34.14855790138245,3,3,3,2,-9.640000000000001,1.46,-1.52,-7.44,0.31,2.15
34.16855788230896,3,3,3,2,-9.619999999999999,0.98,-1.2,-9.01,-1.76,2.26
34.18855786323547,3,3,3,2,-9.640000000000001,-0.26,-2.42,-7.87,-1,1.05
34.20855784416199,3,3,3,2,-10.19,-0.88,-2.33,-6.49,-1.25,0.31
34.22855806350708,3,3,3,2,-10.64,-1.54,-1.39,-5.82,-0.49,-1.56
34.24855804443359,3,3,3,2,-11.21,-1.79,-1.16,-7.16,-0.95,-2.34
34.26855802536011,3,3,3,2,-11.91,-4.62,0.05,-7.54,-3.59,-4.97
34.28855800628662,3,3,3,2,-12.2,-5.44,0.33,-5.73,-4.67,-6.73
34.30855798721313,3,3,3,1,-12.84,-0.54,3.37,-6.77,-6.02,-7.07
34.32855796813965,3,3,3,1,-11.35,1.07,1.27,-11.66,-9.49,-9.24
34.34855794906616,3,3,3,1,-10.14,-0.78,-2.6,-10.84,-9.52,-10.7
34.36855792999268,3,3,3,1,-10.47,-1.93,-3.06,-5.11,-7.24,-13.14
34.38855791091919,3,3,3,1,-11.15,1.72,-3.09,0.02,-6.26,-12.58
34.4085578918457,3,3,3,1,-11.31,4.19,-2.68,0.43,-6.17,-12.63
34.42855787277222,3,3,3,1,-11.24,4.46,-2.5,1.01,-5.12,-13.56
34.44855785369873,3,3,3,1,-11.59,4.91,-2.54,1.06,-4.43,-13.8
34.46855807304382,3,3,3,1,-10.76,4.01,-2.49,-1.66,-2.76,-15.13
34.48855805397034,3,3,3,1,-9.99,2.26,-2.53,1.07,-1.86,-16.31
34.50855803489685,3,3,3,1,-10.09,2.53,-2.27,2.6,-1.67,-16.47
34.52855801582336,3,3,3,1,-10.45,2.52,-2.36,5.21,-1.75,-15.71
34.54855799674988,3,3,3,1,-9.779999999999999,1.97,-1.89,5.87,-1.77,-15.87
34.56855797767639,3,3,3,1,-9.06,1.44,-1.85,9.43,-1.65,-16.12
34.58855795860291,3,3,3,1,-8.75,1.34,-1.75,11.4,-1.34,-15.28
34.60855793952942,3,3,3,0,-8.789999999999999,1.71,-1.5,12.1,-1.05,-14.57
34.62855792045593,3,3,3,0,-8.19,2.16,-1.4,12.75,0.31,-12.01
34.64855790138245,3,3,3,0,-7.9,2.06,-1.27,12.39,0.9,-11.44
34.66855788230896,3,3,3,0,-7.31,1.38,-1.32,10.66,2.05,-9.81
34.68855786323547,3,3,3,0,-6.91,0.52,-1.78,9.460000000000001,2.77,-8.77
34.70855784416199,3,3,3,0,-6.89,0.41,-1.23,8.529999999999999,2.59,-8
34.72855806350708,3,3,3,0,-6.89,-0.42,-0.89,7.91,2,-4.29
34.74855804443359,3,3,3,0,-7.28,-1.29,-0.36,8.56,2.45,-3.07
34.76855802536011,3,3,3,0,-9.09,-2.73,0.36,11.68,1.04,-2.91
34.78855800628662,3,3,3,0,-9.630000000000001,-3.82,1.66,11.67,-3.51,-2.6
34.80855798721313,3,3,3,0,-9.619999999999999,-5.82,3.3,11.01,-4.26,-2
34.82855796813965,3,3,3,0,-10.12,-7.1,2.49,7.02,-3.95,-2.44
34.84855794906616,3,3,3,0,-9.140000000000001,-5.76,1.44,5.54,-3.34,-2.72
34.86855792999268,3,3,3,0,-8.66,-4.17,0.48,0.04,3.55,-3.76
34.88855791091919,3,3,3,0,-5.72,-0.96,-0.6899999999999999,-6.21,5.1,3.57
34.9085578918457,3,3,3,0,-9.380000000000001,-0.14,0.08,-3.8,4.77,5.36
34.92855787277222,3,3,3,0,-18.01,-9.970000000000001,4.75,-3.2,1.98,1.58
34.94855785369873,3,3,3,0,-16.97,-11.62,2.45,4.82,5.32,3.24
34.96855807304382,3,3,3,0,-9.5,6.67,-0.86,8.98,6.11,5.84
34.98855805397034,3,3,3,0,-7.93,10.47,-6.21,0.64,12.16,6.83
35.00855803489685,3,3,3,0,-8.81,3.87,-5.7,-4.02,10.76,7.85
35.02955794334412,3,3,3,0,-9.06,1.62,-3.97,-1.58,5.22,9.44
35.04955792427063,3,3,3,0,-10.96,2.84,-3.03,-1.52,5.22,9.59
35.06955790519714,3,3,3,0,-10.34,0.79,-1.75,-3.49,6.04,8.99
35.08955788612366,3,3,3,0,-10.31,0.24,-1.49,-3.29,5.81,8.94
35.10955786705017,3,3,3,0,-9.300000000000001,0.6899999999999999,-3.02,-2.55,5.43,9.06
35.12955784797668,3,3,3,0,-9.07,-1.25,-2.67,-0.32,4.62,9.5
35.14955806732178,3,3,3,0,-9.35,-1.2,-1.39,0.3,4.34,9.59
35.16955804824829,3,3,3,0,-10.06,0.35,-0.87,-0.21,3.84,8.99
35.1895580291748,3,3,3,0,-9.720000000000001,0.73,-0.96,-1.67,4.64,9.130000000000001
35.20955801010132,3,3,3,0,-9.279999999999999,0.46,-2.02,-1.37,4.9,9.34
35.22955799102783,3,3,3,0,-9.1,-0.47,-2.58,-1.09,4.22,8.890000000000001
35.24955797195435,3,3,3,0,-9.49,-0.86,-1.96,-0.7,3.92,8.699999999999999
35.26955795288086,3,3,3,0,-9.4,-0.92,-2.4,-1.02,3.98,7.71
35.28955793380737,3,3,3,0,-9.43,-1.11,-2.46,-1.33,3.74,6.9
35.30955791473389,3,3,3,0,-9.380000000000001,-1.12,-2.77,-1.15,3.8,6.86
35.3295578956604,3,3,3,0,-9.390000000000001,-0.98,-2.54,1.72,3.66,6.97
35.34955787658691,3,3,3,0,-9.33,-0.48,-2.66,2.25,3.49,7
35.36955785751343,3,3,3,0,-9.890000000000001,-0.44,-2.38,3.42,3.31,6.3
35.38955783843994,3,3,3,0,-9.630000000000001,1.7,-2.23,3.02,2.64,6.13
35.40955805778503,3,3,3,0,-9.630000000000001,1.82,-2.32,1.77,2.92,6.18
35.42955803871155,3,3,3,0,-9.43,1.08,-2.96,-2.49,2.99,4.99
35.44955801963806,3,3,3,0,-9.42,1.19,-2.7,-3.79,3.11,4.27
35.46955800056458,3,3,3,0,-9.09,1.33,-2.83,-4.21,3.09,4.03
35.48955798149109,3,3,3,0,-9.44,0.93,-3.09,-5.1,3.03,3.84
35.5095579624176,3,3,3,0,-9.07,1.31,-2.96,-5.09,2.35,3.59
35.52955794334412,3,3,3,0,-8.99,1.53,-3.09,-3.67,2.3,3.7
35.54955792427063,3,3,3,0,-8.949999999999999,1.68,-2.9,-2.41,1.4,4.1
35.56955790519714,3,3,3,0,-9.32,1.8,-3.37,-2.11,1.41,3.96
35.58955788612366,3,3,3,0,-9.18,1.74,-3.32,-1.99,1.27,3.81
35.60955786705017,3,3,3,0,-9.18,1.5,-3.31,-2.42,1.09,3.59
35.62955784797668,3,3,3,0,-9.34,1.59,-2.9,-3.05,0.87,3.47
35.64955806732178,3,3,3,0,-9.35,1.88,-2.9,-5.39,0.64,3.55
35.66955804824829,3,3,3,0,-9.58,1.24,-3.27,-6.33,0.51,3.48
35.6895580291748,3,3,3,0,-9.42,1.62,-2.78,-6.76,1.33,2.42
35.70955801010132,3,3,3,0,-9.25,2.06,-2.35,-6.01,1.78,1.75
35.72955799102783,3,3,3,0,-9.17,2.25,-2.36,-6.25,1.53,2.1
35.74955797195435,3,3,3,0,-9.279999999999999,1.7,-2.41,-6.58,0.13,2.56
35.76955795288086,3,3,3,0,-9.85,1.08,-3.62,-6.44,-0.07000000000000001,2.68
35.78955793380737,3,3,3,0,-10.24,1.39,-2.6,-5.11,0.74,2.32
35.80955791473389,3,3,3,0,-9.49,0.89,-1.9,-5.52,-0.06,1.73
35.8295578956604,3,3,3,0,-9.31,0.26,-1.48,-5.19,-0.45,1.12
35.84955787658691,3,3,3,0,-9.949999999999999,-0.5,-1.46,-5.27,-1.42,0.89
35.86955785751343,3,3,3,0,-10.98,-0.65,-1.27,-6.48,-1.08,-0.07000000000000001
35.88955783843994,3,3,3,0,-9.73,-1.74,-1,-6.81,-1.31,-1.38
35.90955805778503,3,3,3,0,-11.32,-2.48,-0.47,-9.31,-0.32,-1.95
35.92955803871155,3,3,3,0,-13.64,-4.87,-0.42,-9.300000000000001,-2.17,-2.63
35.94955801963806,3,3,3,0,-13.76,-5.19,1.06,-6.98,-5.46,-4.12
35.96955800056458,3,3,3,0,-11.62,-2.83,0.8,-5.82,-8.710000000000001,-6.33
35.98955798149109,3,3,3,0,-11.06,0.6,0.7,-4.68,-9.17,-8.390000000000001
36.0095579624176,3,3,3,0,-10.37,1.41,-1.92,-5.3,-8.57,-10.22
36.02955794334412,3,3,3,0,-10.22,1.01,-3.52,-7.01,-7.91,-13.05
36.05055785179138,3,3,3,0,-10.62,3.13,-3.14,-5.74,-8.220000000000001,-14.22
36.07055807113647,3,3,3,0,-10.1,3.96,-2.96,-2.59,-7.13,-13.39
36.09055805206299,3,3,3,0,-10.34,4.62,-2.87,-1.05,-5.44,-13.04
36.1105580329895,3,3,3,0,-11.09,4.49,-2.7,-1.26,-4.32,-12.96
36.13055801391602,3,3,3,0,-10.97,3.08,-2.81,-2.29,-3.47,-13.05
36.15055799484253,3,3,3,0,-10.26,2,-2.82,-0.91,-2.59,-13.1
36.17055797576904,3,3,3,0,-9.619999999999999,2.09,-2.72,3,-1.64,-13.39
36.19055795669556,3,3,3,0,-9.57,2.21,-2.18,5.93,-2.05,-13.71
36.21055793762207,3,3,3,0,-9.130000000000001,1.79,-1.84,8.359999999999999,-1.78,-13.19
36.23055791854858,3,3,3,0,-9.050000000000001,1.26,-1.91,10.79,-1.02,-12.66
36.2505578994751,3,3,3,0,-8.880000000000001,1.69,-1.29,13.21,-1.48,-12.53
36.27055788040161,3,3,3,0,-8.48,1.85,-1.1,13.68,-1.89,-11.79
36.29055786132812,3,3,3,0,-8.33,1.41,-0.71,12.67,-1.08,-11.26
36.31055784225464,3,3,3,0,-8.34,1,-0.74,11.82,-0.05,-10.85
36.33055806159973,3,3,3,0,-7.92,0.74,-0.73,9.380000000000001,0.29,-10.36
36.35055804252625,3,3,3,1,-8.08,0.2,-0.91,6.4,1.24,-9.609999999999999
36.37055802345276,3,3,3,1,-8.039999999999999,0.02,-1.18,4.39,1.89,-8.58
36.39055800437927,3,3,3,1,-8.74,-0.9399999999999999,-1.63,2.93,2.84,-7.74
36.41055798530579,3,3,3,1,-8.890000000000001,-0.85,-0.53,2.28,3.46,-8.48
36.4305579662323,3,3,3,1,-8.039999999999999,-0.97,0.03,4.33,1.41,-6.34
36.45055794715881,3,3,3,1,-8.48,-1.83,-0.23,6.54,1.05,-2.9
36.47055792808533,3,3,3,1,-9.82,-4.22,-0.08,5.81,2.1,-2.59
36.49055790901184,3,3,3,1,-9.970000000000001,-5.36,0.67,5.6,1.55,-4.18
36.51055788993835,3,3,3,1,-10.12,-5.53,1.65,8.18,-1.47,-4.17
36.53055787086487,3,3,3,1,-9.380000000000001,-4.4,1.05,9.18,-3,-3.81
36.55055785179138,3,3,3,2,-8.33,-2.6,0,6.34,-0.82,-3.73
36.57055807113647,3,3,3,2,-5.73,-0.18,-0.02,-0.1,0.63,0.22
36.59055805206299,3,3,3,2,-8.109999999999999,-0.3,-0.43,0.51,5.87,5.87
36.6105580329895,3,3,3,2,-12.92,-1.13,-0.35,3.36,4.79,6.13
36.63055801391602,3,3,3,2,-16.33,-8.77,5.65,2.69,-1.67,4.12
36.65055799484253,3,3,3,2,-13.08,-4.58,1.83,3.97,2.88,4.04
36.67055797576904,3,3,3,2,-10.44,3.97,-1.17,5.35,3.47,5.93
36.69055795669556,3,3,3,2,-8.42,5.57,-5.84,3.66,6.43,5.5
36.71055793762207,3,3,3,2,-8.94,3.94,-5.63,-0.65,8.960000000000001,6.55
36.73055791854858,3,3,3,2,-9.69,1.8,-3.39,-5.14,6.68,7.92
36.7505578994751,3,3,3,2,-11.12,3.06,-1.88,-3.47,3.96,8.470000000000001
36.77055788040161,3,3,3,2,-10.22,1.01,-1.95,-4.31,4.53,9.02
36.79055786132812,3,3,3,2,-9.57,-1.34,-2.24,-4.31,5.37,8.56
36.81055784225464,3,3,3,2,-8.949999999999999,-1.49,-2.72,-2.28,4.87,8.890000000000001
36.83055806159973,3,3,3,2,-8.880000000000001,-1.67,-2.36,0.03,4.07,9.41
