timestamp,magCalib,accCalib,gyrCalib,sysCalib,accX,accY,accZ,gyrX,gyrY,gyrZ
-0.02944207191467285,2,3,3,3,-9.369999999999999,-0.34,2.79,-0.31,0.27,-0.07000000000000001
-0.01844215393066406,2,3,3,3,-9.390000000000001,-0.37,2.83,-0.19,0.25,-0.06
-0.00944209098815918,2,3,3,3,-9.42,-0.36,2.85,0.01,0.16,-0.06
0.0005578994750976562,2,3,3,3,-9.41,-0.34,2.91,0.25,0.06,-0.04
0.01155805587768555,2,3,3,3,-9.35,-0.33,2.82,0.42,-0.15,0.03
0.02055788040161133,2,3,3,3,-9.300000000000001,-0.31,2.87,0.38,-0.3,0.06
0.03055787086486816,2,3,3,3,-9.300000000000001,-0.32,2.87,0.2,-0.22,0.07000000000000001
0.04155802726745605,2,3,3,3,-9.34,-0.32,2.93,0.14,-0.04,0.1
0.05055785179138184,2,3,3,3,-9.390000000000001,-0.34,2.85,0.13,0.02,0.14
0.06055784225463867,2,3,3,3,-9.380000000000001,-0.38,2.75,-0.08,-0.09,0.09
0.07155799865722656,2,3,3,3,-9.4,-0.4,2.73,-0.2,-0.04,0.08
0.08055806159973145,2,3,3,3,-9.4,-0.44,2.83,-0.05,-0.02,0.07000000000000001
0.09055805206298828,2,3,3,3,-9.449999999999999,-0.45,2.88,0.22,-0.05,0.04
0.1015579700469971,2,3,3,3,-9.43,-0.42,2.88,0.46,-0.2,0.03
0.110558032989502,2,3,3,3,-9.369999999999999,-0.42,2.79,0.59,-0.39,0.04
0.1205580234527588,2,3,3,3,-9.31,-0.39,2.75,0.4,-0.4,0.03
0.1315579414367676,2,3,3,3,-9.300000000000001,-0.41,2.86,0.25,-0.24,0.04
0.1405580043792725,2,3,3,3,-9.33,-0.42,2.91,0.17,-0.05,0.01
0.1505579948425293,2,3,3,3,-9.33,-0.44,2.94,0.15,-0.02,0.09
0.1615579128265381,2,3,3,3,-9.380000000000001,-0.38,2.84,0.21,-0.03,0.1
0.1715579032897949,2,3,3,3,-9.380000000000001,-0.38,2.89,0.16,-0.19,0.11
0.1815578937530518,2,3,3,3,-9.33,-0.39,2.93,0.07000000000000001,-0.24,0.12
0.1915578842163086,2,3,3,3,-9.34,-0.39,2.89,0.06,-0.14,0.12
0.2015578746795654,2,3,3,3,-9.42,-0.36,2.9,0.15,-0.15,0.06
0.2115578651428223,2,3,3,3,-9.380000000000001,-0.38,2.74,0.11,-0.21,0.05
0.2215578556060791,2,3,3,3,-9.359999999999999,-0.4,2.76,-0.06,-0.13,-0.04
0.2315578460693359,2,3,3,3,-9.4,-0.45,2.9,-0.02,-0.07000000000000001,-0.06
0.2415580749511719,2,3,3,3,-9.390000000000001,-0.45,2.95,-0.04,-0.09,-0.07000000000000001
0.2515580654144287,2,3,3,3,-9.390000000000001,-0.47,2.9,-0.03,-0.08,-0.04
0.2615580558776855,2,3,3,3,-9.41,-0.43,2.82,-0.01,-0.12,0.03
0.2715580463409424,2,3,3,3,-9.390000000000001,-0.43,2.87,-0.02,-0.29,-0.02
0.2815580368041992,2,3,3,3,-9.35,-0.44,2.85,-0.01,-0.34,-0.06
0.2915580272674561,2,3,3,3,-9.33,-0.48,2.93,0.09,-0.32,-0.08
0.3015580177307129,2,3,3,3,-9.359999999999999,-0.46,2.91,0.31,-0.31,-0.12
0.3115580081939697,2,3,3,3,-9.35,-0.45,2.77,0.3,-0.29,-0.11
0.3215579986572266,2,3,3,3,-9.369999999999999,-0.45,2.85,0.32,-0.22,-0.07000000000000001
0.3315579891204834,2,3,3,3,-9.359999999999999,-0.43,2.88,0.35,-0.25,-0.07000000000000001
0.3415579795837402,2,3,3,3,-9.34,-0.42,2.92,0.32,-0.18,-0.12
0.3515579700469971,2,3,3,3,-9.380000000000001,-0.41,2.9,0.43,-0.08,-0.12
0.3615579605102539,2,3,3,3,-9.380000000000001,-0.37,2.85,0.58,-0.08,-0.12
0.3715579509735107,2,3,3,3,-9.359999999999999,-0.36,2.9,0.55,-0.17,-0.15
0.3815579414367676,2,3,3,3,-9.35,-0.31,2.98,0.63,-0.25,-0.18
0.3915579319000244,2,3,3,3,-9.31,-0.28,2.97,0.58,-0.35,-0.18
0.4015579223632812,2,3,3,3,-9.33,-0.29,2.9,0.35,-0.37,-0.2
0.4115579128265381,2,3,3,3,-9.31,-0.31,2.77,0.23,-0.15,-0.19
0.4215579032897949,2,3,3,3,-9.33,-0.28,2.89,0.3,-0.02,-0.15
0.4315578937530518,2,3,3,3,-9.35,-0.29,3.05,0.37,-0.07000000000000001,-0.12
0.4415578842163086,2,3,3,3,-9.27,-0.3,2.97,0.15,-0.2,-0.14
0.4515578746795654,2,3,3,3,-9.300000000000001,-0.32,3.01,-0.03,-0.07000000000000001,-0.16
0.4615578651428223,2,3,3,3,-9.33,-0.32,2.92,-0.02,0,-0.15
0.4715578556060791,2,3,3,3,-9.369999999999999,-0.37,2.95,-0.08,0.06,-0.15
0.4815578460693359,2,3,3,3,-9.390000000000001,-0.42,3.01,-0.02,0.08,-0.16
0.4915580749511719,2,3,3,3,-9.380000000000001,-0.39,2.95,0.08,-0.06,-0.15
0.5015580654144287,2,3,3,3,-9.359999999999999,-0.41,2.92,0.16,-0.15,-0.14
0.5115580558776855,2,3,3,3,-9.359999999999999,-0.48,2.9,0.32,-0.31,-0.12
0.5215580463409424,2,3,3,3,-9.279999999999999,-0.53,2.91,0.21,-0.46,-0.12
0.5315580368041992,2,3,3,3,-9.26,-0.5600000000000001,2.87,0,-0.28,-0.04
0.5415580272674561,2,3,3,3,-9.390000000000001,-0.54,2.86,-0.05,-0.2,0.05
0.5515580177307129,2,3,3,3,-9.44,-0.55,2.79,-0.01,-0.16,0.09
0.5615580081939697,2,3,3,3,-9.449999999999999,-0.52,2.72,0.14,-0.05,0.05
0.5715579986572266,2,3,3,3,-9.41,-0.49,2.77,0.38,-0.08,-0.08
0.5815579891204834,2,3,3,3,-9.359999999999999,-0.51,2.9,0.51,-0.16,-0.2
0.5915579795837402,2,3,3,3,-9.359999999999999,-0.48,2.93,0.7,-0.16,-0.31
0.6015579700469971,2,3,3,3,-9.359999999999999,-0.47,2.92,0.76,-0.14,-0.41
0.6115579605102539,2,3,3,3,-9.369999999999999,-0.46,2.85,0.75,-0.06,-0.43
0.6215579509735107,2,3,3,3,-9.359999999999999,-0.38,2.92,0.78,-0.08,-0.43
0.6315579414367676,2,3,3,3,-9.33,-0.38,2.96,0.72,-0.14,-0.39
0.6415579319000244,2,3,3,3,-9.300000000000001,-0.36,2.97,0.61,-0.11,-0.4
0.6515579223632812,2,3,3,3,-9.32,-0.39,2.94,0.45,0,-0.37
0.6615579128265381,2,3,3,3,-9.359999999999999,-0.42,2.75,0.41,0.14,-0.36
0.6715579032897949,2,3,3,3,-9.35,-0.39,2.73,0.29,0.21,-0.39
0.6815578937530518,2,3,3,3,-9.369999999999999,-0.41,2.81,0.36,0.3,-0.38
0.6915578842163086,2,3,3,3,-9.34,-0.37,2.89,0.5,0.22,-0.41
0.7015578746795654,2,3,3,3,-9.33,-0.39,2.9,0.57,0.24,-0.4
0.7115578651428223,2,3,3,3,-9.31,-0.36,2.82,0.57,0.21,-0.38
0.7215578556060791,2,3,3,3,-9.31,-0.36,2.88,0.53,0.17,-0.33
0.7315578460693359,2,3,3,3,-9.300000000000001,-0.3,2.95,0.49,0.08,-0.31
0.7415580749511719,2,3,3,3,-9.289999999999999,-0.28,2.95,0.42,0.06,-0.3
0.7515580654144287,2,3,3,3,-9.33,-0.31,2.93,0.27,0.18,-0.32
0.7615580558776855,2,3,3,3,-9.359999999999999,-0.31,2.81,0.07000000000000001,0.24,-0.31
0.7715580463409424,2,3,3,3,-9.41,-0.37,2.82,-0.03,0.34,-0.32
0.7815580368041992,2,3,3,3,-9.42,-0.38,2.82,-0.01,0.36,-0.32
0.7915580272674561,2,3,3,3,-9.41,-0.4,2.81,0,0.3,-0.33
0.8015580177307129,2,3,3,3,-9.390000000000001,-0.44,2.83,0.11,0.26,-0.32
0.8115580081939697,2,3,3,3,-9.33,-0.49,2.72,0.21,0.17,-0.31
0.8215579986572266,2,3,3,3,-9.31,-0.51,2.79,0.25,0.1,-0.31
0.8315579891204834,2,3,3,3,-9.289999999999999,-0.5,2.83,0.32,0.12,-0.27
0.8415579795837402,2,3,3,3,-9.32,-0.47,2.86,0.36,0.18,-0.25
0.8515579700469971,2,3,3,3,-9.33,-0.43,2.91,0.44,0.24,-0.23
0.8615579605102539,2,3,3,3,-9.35,-0.38,2.81,0.47,0.24,-0.26
0.8715579509735107,2,3,3,3,-9.33,-0.36,2.86,0.41,0.24,-0.28
0.8815579414367676,2,3,3,3,-9.31,-0.33,3.02,0.44,0.25,-0.28
0.8915579319000244,2,3,3,3,-9.33,-0.34,3.04,0.41,0.17,-0.26
0.9015579223632812,2,3,3,3,-9.359999999999999,-0.35,3,0.3,0.09,-0.25
0.9115579128265381,2,3,3,3,-9.359999999999999,-0.37,2.86,0.2,-0.02,-0.21
0.9215579032897949,2,3,3,3,-9.42,-0.4,2.93,0.23,-0.02,-0.17
0.9315578937530518,2,3,3,3,-9.41,-0.42,2.91,0.2,-0.12,-0.18
0.9415578842163086,2,3,3,3,-9.380000000000001,-0.44,2.9,0.2,-0.16,-0.15
0.9515578746795654,2,3,3,3,-9.359999999999999,-0.44,2.94,0.27,-0.21,-0.2
0.9615578651428223,2,3,3,3,-9.31,-0.42,2.84,0.31,-0.22,-0.21
0.9715578556060791,2,3,3,3,-9.32,-0.44,2.9,0.34,-0.24,-0.19
0.9815578460693359,2,3,3,3,-9.32,-0.45,2.95,0.26,-0.24,-0.21
0.9915580749511719,2,3,3,3,-9.35,-0.45,2.99,0.21,-0.21,-0.18
1.001558065414429,2,3,3,3,-9.35,-0.47,2.92,0.15,-0.22,-0.2
1.011558055877686,2,3,3,3,-9.34,-0.5,2.83,0.12,-0.18,-0.2
1.021558046340942,2,3,3,3,-9.34,-0.52,2.84,0.11,-0.16,-0.21
1.031558036804199,2,3,3,3,-9.32,-0.5,2.87,0.16,-0.11,-0.2
1.041558027267456,2,3,3,3,-9.32,-0.49,2.92,0.19,-0.07000000000000001,-0.21
1.051558017730713,2,3,3,3,-9.31,-0.5,2.9,0.24,-0.06,-0.19
1.06155800819397,2,3,3,3,-9.289999999999999,-0.49,2.84,0.3,-0.07000000000000001,-0.15
1.071557998657227,2,3,3,3,-9.32,-0.48,2.94,0.41,-0.1,-0.12
1.081557989120483,2,3,3,3,-9.33,-0.42,2.95,0.36,-0.17,-0.06
1.09155797958374,2,3,3,3,-9.32,-0.42,2.95,0.29,-0.17,-0.09
1.101557970046997,2,3,3,3,-9.33,-0.41,2.99,0.17,-0.12,-0.08
1.111557960510254,2,3,3,3,-9.35,-0.42,2.88,0.13,-0.09,-0.1
1.121557950973511,2,3,3,3,-9.359999999999999,-0.44,2.98,0.13,-0.04,-0.11
1.131557941436768,2,3,3,3,-9.35,-0.47,2.99,0.12,-0.04,-0.14
1.141557931900024,2,3,3,3,-9.35,-0.48,2.95,0.09,-0.04,-0.17
1.151557922363281,2,3,3,3,-9.33,-0.48,2.92,0.09,-0.03,-0.17
1.161557912826538,2,3,3,3,-9.31,-0.52,2.87,0.16,-0.04,-0.14
1.171557903289795,2,3,3,3,-9.279999999999999,-0.53,2.91,0.16,-0.08,-0.13
1.181557893753052,2,3,3,3,-9.279999999999999,-0.52,2.94,0.13,-0.05,-0.16
1.19255805015564,2,3,3,3,-9.32,-0.5,3.01,0.13,-0.02,-0.1
1.202558040618896,2,3,3,3,-9.33,-0.5,3,0.11,-0.02,-0.06
1.212558031082153,2,3,3,3,-9.35,-0.51,2.91,0.18,0.01,-0.08
1.22255802154541,2,3,3,3,-9.35,-0.49,2.9,0.24,-0.02,-0.06
1.232558012008667,2,3,3,3,-9.32,-0.5,2.97,0.25,-0.1,-0.07000000000000001
1.242558002471924,2,3,3,3,-9.31,-0.5,3.02,0.25,-0.07000000000000001,-0.05
1.252557992935181,2,3,3,3,-9.289999999999999,-0.5,3.04,0.22,-0.05,-0.1
1.262557983398438,2,3,3,3,-9.33,-0.5,2.87,0.14,-0.05,-0.09
1.272557973861694,2,3,3,3,-9.369999999999999,-0.49,2.96,0.12,0.01,-0.09
1.282557964324951,2,3,3,3,-9.369999999999999,-0.51,2.95,0.12,0.01,-0.09
1.292557954788208,2,3,3,3,-9.35,-0.49,2.95,0.11,0,-0.11
1.302557945251465,2,3,3,3,-9.369999999999999,-0.48,2.95,0.15,0,-0.13
1.312557935714722,2,3,3,3,-9.35,-0.49,2.91,0.18,-0.03,-0.12
1.322557926177979,2,3,3,3,-9.31,-0.52,2.93,0.14,-0.07000000000000001,-0.1
1.332557916641235,2,3,3,3,-9.32,-0.51,2.97,0.12,-0.08,-0.11
1.342557907104492,2,3,3,3,-9.300000000000001,-0.52,3.02,0.13,-0.09,-0.11
1.352557897567749,2,3,3,3,-9.279999999999999,-0.51,2.97,0.13,-0.05,-0.14
1.362557888031006,2,3,3,3,-9.289999999999999,-0.53,2.89,0.14,-0.01,-0.12
1.372557878494263,2,3,3,3,-9.289999999999999,-0.54,2.93,0.13,-0.02,-0.13
1.38255786895752,2,3,3,3,-9.33,-0.53,2.93,0.16,-0.04,-0.13
1.392557859420776,2,3,3,3,-9.359999999999999,-0.51,2.99,0.15,-0.03,-0.09
1.402557849884033,2,3,3,3,-9.369999999999999,-0.51,2.96,0.18,0,-0.06
1.41255784034729,2,3,3,3,-9.35,-0.47,2.86,0.19,-0.01,-0.08
1.422558069229126,2,3,3,3,-9.32,-0.5,2.96,0.18,0.04,-0.09
1.432558059692383,2,3,3,3,-9.31,-0.52,3.02,0.19,-0.03,-0.08
1.44255805015564,2,3,3,3,-9.33,-0.52,3.01,0.11,-0.06,-0.09
1.452558040618896,2,3,3,3,-9.33,-0.48,2.92,0.03,-0.03,-0.08
1.462558031082153,2,3,3,3,-9.369999999999999,-0.47,2.85,0.07000000000000001,0.01,-0.08
1.47255802154541,2,3,3,3,-9.35,-0.45,2.93,0.1,-0.03,-0.05
1.482558012008667,2,3,3,3,-9.34,-0.49,2.99,0.13,-0.05,-0.08
1.492558002471924,2,3,3,3,-9.33,-0.47,2.98,0.11,-0.1,-0.12
1.502557992935181,2,3,3,3,-9.33,-0.5,2.97,0.07000000000000001,-0.08,-0.15
1.512557983398438,2,3,3,3,-9.289999999999999,-0.49,2.89,0.02,-0.04,-0.16
1.522557973861694,2,3,3,3,-9.32,-0.48,2.9,-0.02,-0.01,-0.17
1.532557964324951,2,3,3,3,-9.32,-0.54,2.95,-0.04,0,-0.19
1.542557954788208,2,3,3,3,-9.32,-0.54,2.95,-0.02,0.03,-0.15
1.552557945251465,2,3,3,3,-9.35,-0.53,2.95,0.03,0.05,-0.14
1.562557935714722,2,3,3,3,-9.369999999999999,-0.54,2.83,0.14,0.06,-0.11
1.572557926177979,2,3,3,3,-9.33,-0.47,2.91,0.19,0.01,-0.09
1.582557916641235,2,3,3,3,-9.32,-0.46,2.95,0.24,-0.02,-0.1
1.592557907104492,2,3,3,3,-9.33,-0.45,2.99,0.18,-0.03,-0.05
1.602557897567749,2,3,3,3,-9.33,-0.44,2.95,0.11,-0.09,-0.06
1.612557888031006,2,3,3,3,-9.34,-0.42,2.88,0.04,-0.05,-0.06
1.622557878494263,2,3,3,3,-9.34,-0.46,2.93,-0.02,-0.01,-0.07000000000000001
1.63255786895752,2,3,3,3,-9.32,-0.46,2.96,-0.06,-0.03,-0.11
1.642557859420776,2,3,3,3,-9.289999999999999,-0.49,2.98,-0.11,0.01,-0.12
1.652557849884033,2,3,3,3,-9.289999999999999,-0.51,2.94,-0.09,0.03,-0.12
1.66255784034729,2,3,3,3,-9.31,-0.53,2.86,-0.1,0.03,-0.09
1.672558069229126,2,3,3,3,-9.33,-0.51,2.9,-0.07000000000000001,0,-0.01
1.682558059692383,2,3,3,3,-9.32,-0.46,2.9,-0.04,-0.02,0.01
1.69255805015564,2,3,3,3,-9.300000000000001,-0.48,2.93,-0.03,-0.02,0.02
1.702558040618896,2,3,3,3,-9.31,-0.48,3.01,0.01,0,0.02
1.712558031082153,2,3,3,3,-9.33,-0.47,2.9,0.01,-0.04,0.01
1.72255802154541,2,3,3,3,-9.300000000000001,-0.5,2.96,-0.04,-0.06,0.02
1.732558012008667,2,3,3,3,-9.33,-0.47,2.99,-0.08,-0.01,-0.01
1.742558002471924,2,3,3,3,-9.34,-0.48,2.99,-0.12,0.03,0
1.752557992935181,2,3,3,3,-9.34,-0.49,2.96,-0.17,0.08,0.01
1.762557983398438,2,3,3,3,-9.380000000000001,-0.49,2.82,-0.18,0.05,0.05
1.772557973861694,2,3,3,3,-9.35,-0.49,2.87,-0.18,-0.02,0.02
1.782557964324951,2,3,3,3,-9.32,-0.51,2.9,-0.16,0.03,-0.03
1.792557954788208,2,3,3,3,-9.32,-0.54,2.96,-0.16,0.02,0.01
1.802557945251465,2,3,3,3,-9.289999999999999,-0.55,2.94,-0.14,-0.01,0.03
1.812557935714722,2,3,3,3,-9.289999999999999,-0.55,2.86,-0.13,0.01,0.06
1.822557926177979,2,3,3,3,-9.31,-0.54,2.91,-0.07000000000000001,0.01,0.09
1.832557916641235,2,3,3,3,-9.35,-0.52,2.96,-0.01,0.03,0.07000000000000001
1.842557907104492,2,3,3,3,-9.33,-0.5,2.98,0.02,-0.01,0.08
1.852557897567749,2,3,3,3,-9.359999999999999,-0.51,2.98,-0.01,-0.01,0.05
1.862557888031006,2,3,3,3,-9.369999999999999,-0.49,2.89,0.04,0,0.04
1.872557878494263,2,3,3,3,-9.34,-0.47,2.93,-0.02,0.02,0.03
1.88255786895752,2,3,3,3,-9.369999999999999,-0.47,2.97,-0.02,0.04,0.01
1.892557859420776,2,3,3,3,-9.35,-0.48,2.96,-0.03,0.04,0
1.902557849884033,2,3,3,3,-9.35,-0.49,2.97,-0.02,0.08,0.02
1.91255784034729,2,3,3,3,-9.34,-0.52,2.83,-0.01,0.03,0.03
1.922558069229126,2,3,3,3,-9.33,-0.54,2.87,-0.02,-0.01,0.05
1.932558059692383,2,3,3,3,-9.33,-0.54,2.91,-0.07000000000000001,-0.01,0.03
1.94255805015564,2,3,3,3,-9.369999999999999,-0.54,2.94,-0.1,-0.05,0.04
1.952558040618896,2,3,3,3,-9.380000000000001,-0.53,2.87,-0.13,-0.06,0.06
1.962558031082153,2,3,3,3,-9.369999999999999,-0.52,2.79,-0.12,-0.05,0.06
1.97255802154541,2,3,3,3,-9.390000000000001,-0.53,2.88,-0.04,-0.04,0.07000000000000001
1.982558012008667,2,3,3,3,-9.390000000000001,-0.54,2.95,-0.01,-0.13,0.03
1.992558002471924,2,3,3,3,-9.359999999999999,-0.59,2.9,-0.07000000000000001,-0.17,-0.03
2.002557992935181,2,3,3,3,-9.369999999999999,-0.59,2.86,-0.16,-0.14,-0.05
2.012557983398438,2,3,3,3,-9.390000000000001,-0.6,2.8,-0.19,-0.02,-0.09
2.022557973861694,2,3,3,3,-9.369999999999999,-0.62,2.81,-0.2,0.02,-0.12
2.032557964324951,2,3,3,3,-9.380000000000001,-0.64,2.85,-0.15,0.07000000000000001,-0.12
2.042557954788208,2,3,3,3,-9.390000000000001,-0.62,2.84,-0.02,0.13,-0.14
2.052557945251465,2,3,3,3,-9.380000000000001,-0.61,2.87,0.09,0.06,-0.14
2.062557935714722,2,3,3,3,-9.369999999999999,-0.5600000000000001,2.83,0.21,0.02,-0.15
2.072557926177979,2,3,3,3,-9.33,-0.54,2.86,0.32,-0.06,-0.12
2.082557916641235,2,3,3,3,-9.27,-0.49,2.9,0.28,-0.05,-0.13
2.092557907104492,2,3,3,3,-9.27,-0.49,2.9,0.28,-0.05,-0.13
2.102557897567749,2,3,3,3,-9.300000000000001,-0.46,2.91,0.21,-0.02,-0.07000000000000001
2.112557888031006,2,3,3,3,-9.33,-0.43,2.8,0.1,-0.03,0.02
2.122557878494263,2,3,3,3,-9.33,-0.43,2.8,0,0,0.03
2.13255786895752,2,3,3,3,-9.35,-0.43,2.81,-0.03,0.05,0.04
2.142557859420776,2,3,3,3,-9.35,-0.43,2.84,0.01,0.07000000000000001,0.03
2.152557849884033,2,3,3,3,-9.369999999999999,-0.46,2.91,0.02,0.02,-0.02
2.16255784034729,2,3,3,3,-9.369999999999999,-0.5,2.89,0.03,-0.03,-0.01
2.172558069229126,2,3,3,3,-9.380000000000001,-0.48,2.82,-0.01,-0.07000000000000001,0
2.182558059692383,2,3,3,3,-9.34,-0.45,2.87,-0.06,-0.04,0.05
2.19255805015564,2,3,3,3,-9.33,-0.42,2.89,-0.08,0.01,0.06
2.202558040618896,2,3,3,3,-9.31,-0.4,2.93,-0.09,0.04,0.09
2.213557958602905,2,3,3,3,-9.32,-0.38,2.94,-0.12,0.06,0.09
2.223557949066162,2,3,3,3,-9.33,-0.42,2.85,-0.22,0.03,0.11
2.233557939529419,2,3,3,3,-9.32,-0.44,2.92,-0.35,0.03,0.08
2.243557929992676,2,3,3,3,-9.34,-0.47,2.96,-0.35,0.03,0.08
2.253557920455933,2,3,3,3,-9.359999999999999,-0.51,2.92,-0.41,0.05,0.07000000000000001
2.263557910919189,2,3,3,3,-9.4,-0.51,2.83,-0.47,0.11,0.04
2.273557901382446,2,3,3,3,-9.390000000000001,-0.54,2.79,-0.42,0.1,0.03
2.283557891845703,2,3,3,3,-9.369999999999999,-0.57,2.81,-0.37,0.07000000000000001,0.01
2.29355788230896,2,3,3,3,-9.369999999999999,-0.58,2.84,-0.37,0.07000000000000001,0.01
2.303557872772217,2,3,3,3,-9.380000000000001,-0.62,2.92,-0.29,0,0.03
2.313557863235474,2,3,3,3,-9.35,-0.61,2.89,-0.05,0,0.01
2.32355785369873,2,3,3,3,-9.359999999999999,-0.61,2.81,0.06,0,0
2.333557844161987,2,3,3,3,-9.34,-0.64,2.85,0.14,-0.04,0
2.343558073043823,2,3,3,3,-9.300000000000001,-0.59,2.91,0.1,-0.02,-0.01
2.35355806350708,2,3,3,3,-9.289999999999999,-0.59,2.91,0.07000000000000001,-0.01,0.01
2.363558053970337,2,3,3,3,-9.33,-0.57,2.93,0.07000000000000001,0.05,0.02
2.373558044433594,2,3,3,3,-9.33,-0.54,2.78,0.04,0.04,0.07000000000000001
2.383558034896851,2,3,3,3,-9.369999999999999,-0.52,2.83,0.07000000000000001,0.05,0.06
2.393558025360107,2,3,3,3,-9.390000000000001,-0.53,2.86,0.05,0.01,0.02
2.403558015823364,2,3,3,3,-9.369999999999999,-0.5,2.87,0.11,0.02,-0.02
2.413558006286621,2,3,3,3,-9.4,-0.49,2.94,0.15,-0.02,-0.01
2.423557996749878,2,3,3,3,-9.390000000000001,-0.51,2.85,0.06,-0.07000000000000001,0.04
2.433557987213135,2,3,3,3,-9.369999999999999,-0.5,2.88,-0.02,-0.04,0.04
2.443557977676392,2,3,3,3,-9.359999999999999,-0.5,2.88,0,0.01,-0.02
2.453557968139648,2,3,3,3,-9.369999999999999,-0.46,2.94,0.05,0.02,-0.04
2.463557958602905,2,3,3,3,-9.380000000000001,-0.47,2.95,0.03,0.03,-0.05
2.473557949066162,2,3,3,3,-9.34,-0.47,2.85,0.02,-0.01,-0.08
2.483557939529419,2,3,3,3,-9.35,-0.48,2.89,-0.08,0.01,-0.13
2.493557929992676,2,3,3,3,-9.33,-0.49,2.9,-0.07000000000000001,0.04,-0.06
2.503557920455933,2,3,3,3,-9.34,-0.54,2.95,-0.1,0.02,-0.03
2.513557910919189,2,3,3,3,-9.369999999999999,-0.58,2.92,-0.13,0.03,0
2.523557901382446,2,3,3,3,-9.359999999999999,-0.57,2.81,-0.02,0.08,0.03
2.533557891845703,2,3,3,3,-9.33,-0.5600000000000001,2.8,0.08,0.03,0.01
2.54355788230896,2,3,3,3,-9.34,-0.5600000000000001,2.85,0.15,-0.07000000000000001,0.02
2.553557872772217,2,3,3,3,-9.34,-0.5600000000000001,2.92,0.21,-0.07000000000000001,0.03
2.563557863235474,2,3,3,3,-9.33,-0.5,2.88,0.19,-0.05,0.02
2.57355785369873,2,3,3,3,-9.369999999999999,-0.52,2.83,0.2,-0.06,0.01
2.583557844161987,2,3,3,3,-9.369999999999999,-0.48,2.9,0.13,-0.08,0.02
2.593558073043823,2,3,3,3,-9.369999999999999,-0.46,2.93,0.1,-0.03,0.04
2.60355806350708,2,3,3,3,-9.359999999999999,-0.46,2.97,0.07000000000000001,-0.02,0.01
2.613558053970337,2,3,3,3,-9.34,-0.46,2.93,0.04,-0.02,-0.01
2.623558044433594,2,3,3,3,-9.32,-0.47,2.81,-0.01,-0.01,-0.04
2.633558034896851,2,3,3,3,-9.27,-0.49,2.86,0.04,0.05,-0.02
2.643558025360107,2,3,3,3,-9.35,-0.5,2.93,0.04,0.05,-0.02
2.653558015823364,2,3,3,3,-9.34,-0.48,2.93,0.07000000000000001,0.05,-0.01
2.663558006286621,2,3,3,3,-9.359999999999999,-0.51,2.95,0.04,0.01,0.01
2.673557996749878,2,3,3,3,-9.369999999999999,-0.51,2.81,0.03,-0.05,0
2.683557987213135,2,3,3,3,-9.35,-0.51,2.89,0.06,-0.06,0.02
2.693557977676392,2,3,3,3,-9.31,-0.48,2.94,0.03,-0.02,0.03
2.703557968139648,2,3,3,3,-9.35,-0.47,2.95,0.04,-0.03,0.03
2.713557958602905,2,3,3,3,-9.33,-0.47,2.88,-0.06,-0.07000000000000001,0.03
2.723557949066162,2,3,3,3,-9.34,-0.48,2.81,-0.1,0.04,0.06
2.733557939529419,2,3,3,3,-9.35,-0.47,2.85,-0.03,0.08,0.03
2.743557929992676,2,3,3,3,-9.359999999999999,-0.46,2.9,-0.03,0.08,0.03
2.753557920455933,2,3,3,3,-9.359999999999999,-0.5,2.97,-0.03,0.03,0
2.763557910919189,2,3,3,3,-9.369999999999999,-0.5,2.95,-0.07000000000000001,-0.05,0.01
2.773557901382446,2,3,3,3,-9.369999999999999,-0.49,2.82,-0.13,-0.05,-0.02
2.783557891845703,2,3,3,3,-9.359999999999999,-0.52,2.83,-0.15,0.03,-0.01
2.79355788230896,2,3,3,3,-9.359999999999999,-0.53,2.91,-0.15,0.03,-0.01
2.803557872772217,2,3,3,3,-9.33,-0.52,2.9,-0.07000000000000001,0.05,-0.03
2.813557863235474,2,3,3,3,-9.32,-0.52,2.89,-0.04,0.07000000000000001,-0.03
2.82355785369873,2,3,3,3,-9.35,-0.54,2.8,-0.01,0.04,-0.03
2.833557844161987,2,3,3,3,-9.34,-0.54,2.88,0.02,-0.03,-0.01
2.843558073043823,2,3,3,3,-9.33,-0.54,2.88,0.02,-0.03,-0.01
2.85355806350708,2,3,3,3,-9.33,-0.54,2.9,0.1,-0.01,0.03
2.863558053970337,2,3,3,3,-9.369999999999999,-0.52,2.95,0.1,-0.02,0.03
2.873558044433594,2,3,3,3,-9.35,-0.5,2.82,0.08,-0.01,0.03
2.883558034896851,2,3,3,3,-9.35,-0.48,2.88,0.06,0,0.02
2.893558025360107,2,3,3,3,-9.33,-0.48,2.87,0.06,0,0.02
2.903558015823364,2,3,3,3,-9.35,-0.48,2.94,0.06,0.03,0.01
2.913558006286621,2,3,3,3,-9.359999999999999,-0.45,2.89,0.08,0.01,0.06
2.923557996749878,2,3,3,3,-9.369999999999999,-0.45,2.83,0.05,-0.02,0.07000000000000001
2.933557987213135,2,3,3,3,-9.369999999999999,-0.48,2.86,-0.02,-0.05,0.06
2.943557977676392,2,3,3,3,-9.33,-0.46,2.92,-0.02,-0.05,0.06
2.953557968139648,2,3,3,3,-9.359999999999999,-0.48,2.95,-0.05,0.04,0.05
2.963557958602905,2,3,3,3,-9.369999999999999,-0.47,2.98,-0.11,-0.04,0.05
2.973557949066162,2,3,3,3,-9.390000000000001,-0.51,2.86,-0.2,-0.04,0.01
2.983557939529419,2,3,3,3,-9.35,-0.53,2.83,-0.24,0.02,0.02
2.993557929992676,2,3,3,3,-9.35,-0.54,2.83,-0.24,0.02,0.02
3.003557920455933,2,3,3,3,-9.369999999999999,-0.53,2.88,-0.06,0.05,-0.01
3.013557910919189,2,3,3,3,-9.35,-0.55,2.88,0.04,-0.04,-0.02
3.023557901382446,2,3,3,3,-9.369999999999999,-0.58,2.79,0.11,-0.03,0.01
3.033557891845703,2,3,3,3,-9.33,-0.58,2.82,0.14,-0.11,0.01
3.04355788230896,2,3,3,3,-9.35,-0.59,2.86,0.14,-0.11,0.01
3.053557872772217,2,3,3,3,-9.33,-0.54,2.89,0.14,-0.04,0.04
3.063557863235474,2,3,3,3,-9.35,-0.49,2.86,0.23,-0.01,0.02
3.07355785369873,2,3,3,3,-9.359999999999999,-0.5,2.81,0.23,-0.03,0.05
3.083557844161987,2,3,3,3,-9.35,-0.51,2.84,0.23,-0.03,0.03
3.093558073043823,2,3,3,3,-9.34,-0.46,2.87,0.23,-0.03,0.03
3.10355806350708,2,3,3,3,-9.390000000000001,-0.46,2.91,0.19,-0.03,0.03
3.113558053970337,2,3,3,3,-9.4,-0.45,2.94,0.14,-0.02,0.01
3.123558044433594,2,3,3,3,-9.41,-0.45,2.83,0.08,0,0
3.133558034896851,2,3,3,3,-9.380000000000001,-0.46,2.84,0.03,0.01,-0.02
3.143558025360107,2,3,3,3,-9.390000000000001,-0.47,2.89,0.03,0.01,-0.02
3.153558015823364,2,3,3,3,-9.380000000000001,-0.48,2.95,0,-0.04,-0.07000000000000001
3.163558006286621,2,3,3,3,-9.369999999999999,-0.49,2.95,0.04,-0.06,-0.03
3.173557996749878,2,3,3,3,-9.34,-0.51,2.77,-0.04,-0.08,-0.02
3.183557987213135,2,3,3,3,-9.32,-0.53,2.82,-0.05,0.02,-0.01
3.193557977676392,2,3,3,3,-9.33,-0.49,2.9,-0.01,0.05,0.02
3.203557968139648,2,3,3,3,-9.32,-0.5,2.91,-0.02,-0.03,0.07000000000000001
3.213557958602905,2,3,3,3,-9.35,-0.49,2.88,0,-0.05,0.06
3.223557949066162,2,3,3,3,-9.359999999999999,-0.5,2.82,0.07000000000000001,-0.03,0.11
3.234557867050171,2,3,3,3,-9.33,-0.46,2.83,0,-0.12,0.12
3.244557857513428,2,3,3,3,-9.33,-0.47,2.84,-0.05,-0.12,0.13
3.254557847976685,2,3,3,3,-9.369999999999999,-0.48,2.95,-0.05,-0.03,0.12
3.264557838439941,2,3,3,3,-9.390000000000001,-0.47,2.94,0.03,-0.02,0.07000000000000001
3.274558067321777,2,3,3,3,-9.33,-0.48,2.82,-0.06,-0.03,0.06
3.284558057785034,2,3,3,3,-9.390000000000001,-0.5,2.84,-0.09,0.03,0.04
3.294558048248291,2,3,3,3,-9.390000000000001,-0.48,2.89,-0.07000000000000001,0.01,0.01
3.304558038711548,2,3,3,3,-9.380000000000001,-0.49,2.88,-0.08,-0.01,0.05
3.314558029174805,2,3,3,3,-9.369999999999999,-0.47,2.95,-0.03,0.03,0.01
3.324558019638062,2,3,3,3,-9.34,-0.46,2.79,-0.07000000000000001,-0.07000000000000001,0.04
3.334558010101318,2,3,3,3,-9.32,-0.46,2.86,-0.09,-0.09,0.02
3.344558000564575,2,3,3,3,-9.34,-0.51,2.93,-0.11,-0.06,0.03
3.354557991027832,2,3,3,3,-9.34,-0.49,2.94,-0.11,-0.03,0.04
3.364557981491089,2,3,3,3,-9.33,-0.5,2.87,-0.16,0.01,0.03
3.374557971954346,2,3,3,3,-9.35,-0.51,2.8,-0.19,0.02,0.03
3.384557962417603,2,3,3,3,-9.359999999999999,-0.5,2.82,-0.16,0.06,0.03
3.394557952880859,2,3,3,3,-9.4,-0.5,2.85,-0.17,0.03,-0.01
3.404557943344116,2,3,3,3,-9.4,-0.49,2.9,-0.15,0,-0.03
3.414557933807373,2,3,3,3,-9.369999999999999,-0.52,2.87,-0.1,-0.01,-0.04
3.42455792427063,2,3,3,3,-9.35,-0.52,2.78,-0.04,0.04,-0.05
3.434557914733887,2,3,3,3,-9.34,-0.53,2.8,-0.01,0.02,-0.01
3.444557905197144,2,3,3,3,-9.279999999999999,-0.49,2.92,0.04,0.03,0
3.4545578956604,2,3,3,3,-9.279999999999999,-0.5,2.95,0,0,0
3.464557886123657,2,3,3,3,-9.33,-0.5,2.95,0.03,-0.04,0.05
3.474557876586914,2,3,3,3,-9.33,-0.47,2.8,-0.01,-0.07000000000000001,0.08
3.484557867050171,2,3,3,3,-9.33,-0.44,2.86,-0.04,-0.07000000000000001,0.08
3.494557857513428,2,3,3,3,-9.35,-0.44,2.9,0,-0.07000000000000001,0.13
3.504557847976685,2,3,3,3,-9.34,-0.42,2.91,0,-0.04,0.15
3.514557838439941,2,3,3,3,-9.34,-0.43,2.89,0.01,-0.08,0.13
3.524558067321777,2,3,3,3,-9.359999999999999,-0.42,2.82,0,-0.03,0.1
3.534558057785034,2,3,3,3,-9.359999999999999,-0.42,2.89,-0.02,-0.02,0.11
3.544558048248291,2,3,3,3,-9.380000000000001,-0.42,2.94,-0.05,-0.03,0.07000000000000001
3.554558038711548,2,3,3,3,-9.33,-0.44,2.9,-0.15,-0.09,0.08
3.564558029174805,2,3,3,3,-9.300000000000001,-0.42,2.9,-0.21,-0.03,0.05
3.574558019638062,2,3,3,3,-9.34,-0.43,2.81,-0.24,0.02,0.05
3.584558010101318,2,3,3,3,-9.35,-0.43,2.83,-0.13,0.04,0.06
3.594558000564575,2,3,3,3,-9.32,-0.49,2.92,-0.12,0,0.06
3.604557991027832,2,3,3,3,-9.32,-0.49,2.95,-0.1,-0.03,0.07000000000000001
3.614557981491089,2,3,3,3,-9.34,-0.5,2.97,-0.03,0,0.09
3.624557971954346,2,3,3,3,-9.32,-0.52,2.91,-0.04,-0.02,0.1
3.634557962417603,2,3,3,3,-9.33,-0.51,2.88,-0.1,-0.04,0.13
3.644557952880859,2,3,3,3,-9.35,-0.48,2.87,-0.12,0.01,0.13
3.654557943344116,2,3,3,3,-9.35,-0.46,2.9,-0.11,0.07000000000000001,0.12
3.664557933807373,2,3,3,3,-9.41,-0.48,2.86,-0.02,0.09,0.08
3.67455792427063,2,3,3,3,-9.4,-0.46,2.8,0,0,0
3.684557914733887,2,3,3,3,-9.4,-0.45,2.87,0.01,0,-0.04
3.694557905197144,2,3,3,3,-9.390000000000001,-0.48,2.9,-0.03,0.01,-0.03
3.7045578956604,2,3,3,3,-9.35,-0.48,2.94,-0.05,0.03,-0.02
3.714557886123657,2,3,3,3,-9.34,-0.5,2.9,-0.12,0.04,-0.03
3.724557876586914,2,3,3,3,-9.33,-0.49,2.81,-0.13,0.08,-0.04
3.734557867050171,2,3,3,3,-9.34,-0.49,2.8,-0.11,0.04,-0.02
3.744557857513428,2,3,3,3,-9.32,-0.48,2.89,-0.09,0.03,0
3.754557847976685,2,3,3,3,-9.35,-0.47,2.92,0.01,0.05,-0.01
3.764557838439941,2,3,3,3,-9.34,-0.48,2.9,0.08,0.01,-0.02
3.774558067321777,2,3,3,3,-9.34,-0.47,2.83,0.09,0,0
3.784558057785034,2,3,3,3,-9.359999999999999,-0.44,2.9,0.11,0,0
3.794558048248291,2,3,3,3,-9.380000000000001,-0.42,2.91,0.09,-0.03,-0.01
3.804558038711548,2,3,3,3,-9.33,-0.42,2.92,-0.04,0.01,0.01
3.814558029174805,2,3,3,3,-9.369999999999999,-0.45,2.82,-0.12,0.06,0
3.824558019638062,2,3,3,3,-9.369999999999999,-0.47,2.76,-0.15,0.12,0
3.834558010101318,2,3,3,3,-9.359999999999999,-0.48,2.83,-0.09,0.08,-0.04
3.844558000564575,2,3,3,3,-9.380000000000001,-0.49,2.87,-0.05,0.05,-0.03
3.854557991027832,2,3,3,3,-9.359999999999999,-0.5,2.85,-0.07000000000000001,-0.02,-0.03
3.864557981491089,2,3,3,3,-9.34,-0.49,2.83,-0.01,-0.01,0
3.874557971954346,2,3,3,3,-9.34,-0.47,2.79,0.09,-0.01,0.04
3.884557962417603,2,3,3,3,-9.34,-0.47,2.83,0.1,-0.04,0.05
3.894557952880859,2,3,3,3,-9.33,-0.44,2.92,0.06,-0.08,0.05
3.904557943344116,2,3,3,3,-9.34,-0.45,2.91,0,-0.04,0.01
3.914557933807373,2,3,3,3,-9.369999999999999,-0.44,2.92,0.01,-0.01,0
3.92455792427063,2,3,3,3,-9.369999999999999,-0.47,2.81,0,0,-0.02
3.934557914733887,2,3,3,3,-9.4,-0.48,2.82,0.01,0.01,-0.03
3.944557905197144,2,3,3,3,-9.369999999999999,-0.46,2.83,-0.05,0.04,-0.03
3.9545578956604,2,3,3,3,-9.380000000000001,-0.49,2.89,-0.04,0.04,-0.05
3.964557886123657,2,3,3,3,-9.380000000000001,-0.48,2.89,-0.01,0.02,-0.05
3.974557876586914,2,3,3,3,-9.369999999999999,-0.51,2.78,0.05,-0.03,-0.06
3.984557867050171,2,3,3,3,-9.359999999999999,-0.54,2.83,0.08,-0.04,-0.05
3.994557857513428,2,3,3,3,-9.33,-0.5,2.85,0.09,-0.05,-0.04
4.004557847976685,2,3,3,3,-9.32,-0.46,2.91,0.07000000000000001,-0.09,-0.01
4.014557838439941,2,3,3,3,-9.35,-0.49,2.87,0.09,-0.06,0.01
4.024558067321777,2,3,3,3,-9.34,-0.47,2.79,0.09,-0.06,-0.02
4.034558057785034,2,3,3,3,-9.380000000000001,-0.48,2.78,0.08,-0.03,0.01
4.044558048248291,2,3,3,3,-9.380000000000001,-0.47,2.87,0.1,0.04,-0.01
4.054558038711548,2,3,3,3,-9.390000000000001,-0.43,2.85,0.14,0.08,-0.03
4.064558029174805,2,3,3,3,-9.380000000000001,-0.44,2.88,0.16,0.09,-0.05
4.074558019638062,2,3,3,3,-9.42,-0.44,2.81,0.23,0.04,-0.04
4.084558010101318,2,3,3,3,-9.35,-0.46,2.9,0.2,-0.03,-0.04
4.094558000564575,2,3,3,3,-9.35,-0.48,2.86,0.08,-0.05,-0.04
4.104557991027832,2,3,3,3,-9.359999999999999,-0.48,2.89,0,0.03,-0.01
4.114557981491089,2,3,3,3,-9.35,-0.5,2.92,0,0.05,0.04
4.124557971954346,2,3,3,3,-9.380000000000001,-0.48,2.8,-0.03,0.06,0.06
4.134557962417603,2,3,3,3,-9.359999999999999,-0.54,2.82,-0.09,-0.02,0.06
4.144557952880859,2,3,3,3,-9.380000000000001,-0.54,2.81,-0.15,0.03,0.06
4.154557943344116,2,3,3,3,-9.380000000000001,-0.57,2.83,-0.15,0.06,0.07000000000000001
4.164557933807373,2,3,3,3,-9.4,-0.55,2.78,-0.14,0.1,0.07000000000000001
4.17455792427063,2,3,3,3,-9.42,-0.54,2.73,-0.06,0.09,0.07000000000000001
4.184557914733887,2,3,3,3,-9.359999999999999,-0.41,2.77,0.06,0,0.06
4.194557905197144,2,3,3,3,-9.34,-0.52,2.88,0.07000000000000001,-0.23,-0.06
4.2045578956604,2,3,3,3,-9.369999999999999,-0.52,2.94,0.24,-0.17,-0.09
4.214557886123657,2,3,3,3,-9.289999999999999,-0.51,2.97,0.34,-0.01,-0.1
4.224557876586914,2,3,3,3,-9.26,-0.54,2.89,0.43,0.03,-0.1
4.234557867050171,2,3,3,3,-9.27,-0.58,2.83,0.37,-0.08,-0.06
4.244557857513428,2,3,3,3,-9.289999999999999,-0.58,2.82,0.28,-0.15,0
4.254557847976685,2,3,3,3,-9.32,-0.62,2.78,0.22,-0.21,0.06
4.265558004379272,2,3,3,3,-9.4,-0.59,2.8,0.29,-0.21,0.09
4.275557994842529,2,3,3,3,-9.51,-0.58,2.77,0.5,-0.14,0.09
4.285557985305786,2,3,3,3,-9.529999999999999,-0.58,2.85,0.67,-0.15,0.06
4.295557975769043,2,3,3,3,-9.48,-0.57,2.92,0.68,-0.15,-0.05
4.3055579662323,2,3,3,3,-9.42,-0.5600000000000001,2.98,0.72,-0.04,-0.17
4.315557956695557,2,3,3,3,-9.27,-0.54,2.94,0.6899999999999999,-0.01,-0.31
4.325557947158813,2,3,3,3,-9.26,-0.55,2.85,0.58,0.09,-0.41
4.33555793762207,2,3,3,3,-9.26,-0.61,2.83,0.42,0.24,-0.44
4.345557928085327,2,3,3,3,-9.27,-0.67,2.87,0.3,0.25,-0.42
4.355557918548584,2,3,3,3,-9.380000000000001,-0.79,2.87,0.34,0.13,-0.38
4.365557909011841,2,3,3,3,-9.44,-0.83,2.86,0.38,0,-0.37
4.375557899475098,2,3,3,3,-9.43,-0.88,2.72,0.47,0.01,-0.35
4.385557889938354,2,3,3,3,-9.359999999999999,-0.83,2.8,0.72,-0.01,-0.36
4.395557880401611,2,3,3,3,-9.34,-0.79,2.87,1.06,-0.07000000000000001,-0.41
4.405557870864868,2,3,3,3,-9.289999999999999,-0.76,2.89,1.39,-0.11,-0.54
4.415557861328125,2,3,3,3,-9.289999999999999,-0.74,2.91,1.48,-0.15,-0.61
4.425557851791382,2,3,3,3,-9.32,-0.67,2.78,1.63,-0.2,-0.67
4.435557842254639,2,3,3,3,-9.34,-0.64,2.85,1.56,-0.13,-0.6899999999999999
4.445558071136475,2,3,3,3,-9.41,-0.54,2.9,1.49,0.1,-0.68
4.455558061599731,2,3,3,3,-9.470000000000001,-0.54,2.89,1.42,0.22,-0.71
4.465558052062988,2,3,3,3,-9.5,-0.4,2.78,1.34,0.27,-0.75
4.475558042526245,2,3,3,3,-9.529999999999999,-0.33,2.72,1.27,0.25,-0.8100000000000001
4.485558032989502,2,3,3,3,-9.5,-0.26,2.79,1.24,0.16,-0.88
4.495558023452759,2,3,3,3,-9.5,-0.21,2.83,1.1,0.13,-0.92
4.505558013916016,2,3,3,3,-9.390000000000001,-0.14,2.87,0.89,0.15,-1.01
4.515558004379272,2,3,3,3,-9.34,-0.08,2.87,0.65,0.33,-1.07
4.525557994842529,2,3,3,3,-9.32,-0.07000000000000001,2.8,0.57,0.47,-1.14
4.535557985305786,2,3,3,3,-9.27,-0.06,2.91,0.49,0.61,-1.15
4.545557975769043,2,3,3,3,-9.289999999999999,-0.09,3.1,0.45,0.61,-1.14
4.5555579662323,2,3,3,3,-9.23,-0.11,3.07,0.18,0.47,-1.17
4.565557956695557,2,3,3,3,-9.15,-0.14,2.97,-0.26,0.54,-1.27
4.575557947158813,2,3,3,3,-9.06,-0.24,2.79,-0.6,0.68,-1.4
4.58555793762207,2,3,3,3,-9.1,-0.32,2.88,-0.7,0.82,-1.56
4.595557928085327,2,3,3,3,-9.18,-0.4,2.89,-0.73,0.89,-1.66
4.605557918548584,2,3,3,3,-9.25,-0.46,2.85,-0.77,0.84,-1.59
4.615557909011841,2,3,3,3,-9.390000000000001,-0.5600000000000001,2.81,-0.73,0.76,-1.41
4.625557899475098,2,3,3,3,-9.460000000000001,-0.5600000000000001,2.76,-0.66,0.64,-1.19
4.635557889938354,2,3,3,3,-9.52,-0.61,2.81,-0.67,0.49,-0.95
4.645557880401611,2,3,3,3,-9.52,-0.6,2.89,-0.7,0.41,-0.77
4.655557870864868,2,3,3,3,-9.41,-0.67,2.83,-0.8100000000000001,0.27,-0.67
4.665557861328125,2,3,3,3,-9.42,-0.6899999999999999,2.83,-0.68,0.21,-0.66
4.675557851791382,2,3,3,3,-9.34,-0.74,2.76,-0.52,0.13,-0.74
4.685557842254639,2,3,3,3,-9.31,-0.82,2.78,-0.37,0.1,-0.86
4.695558071136475,2,3,3,3,-9.35,-0.89,2.94,-0.21,0.19,-0.96
4.705558061599731,2,3,3,3,-9.31,-0.86,2.98,0.13,0.17,-0.99
4.715558052062988,2,3,3,3,-9.33,-0.91,3.01,0.33,0.13,-0.93
4.725558042526245,2,3,3,3,-9.289999999999999,-0.95,2.89,0.52,0.07000000000000001,-0.88
4.735558032989502,2,3,3,3,-9.210000000000001,-0.89,2.86,0.66,0.08,-0.86
4.745558023452759,2,3,3,3,-9.210000000000001,-0.89,2.97,0.85,0.22,-0.83
4.755558013916016,2,3,3,3,-9.18,-0.88,2.96,1.03,0.28,-0.87
4.765558004379272,2,3,3,3,-9.32,-0.8100000000000001,2.88,1.07,0.42,-0.95
4.775557994842529,2,3,3,3,-9.390000000000001,-0.75,2.78,1.03,0.48,-1.05
4.785557985305786,2,3,3,3,-9.49,-0.79,2.83,0.93,0.66,-1.13
4.795557975769043,2,3,3,3,-9.5,-0.76,2.92,0.96,0.62,-1.23
4.8055579662323,2,3,3,3,-9.390000000000001,-0.82,2.87,0.88,0.54,-1.31
4.815557956695557,2,3,3,3,-9.359999999999999,-0.85,2.87,0.67,0.59,-1.38
4.825557947158813,2,3,3,3,-9.32,-0.86,2.7,0.48,0.62,-1.44
4.83555793762207,2,3,3,3,-9.32,-0.9,2.72,0.29,0.6,-1.48
4.865557909011841,2,3,3,3,-9.390000000000001,-1.09,2.73,-0.29,0.65,-1.43
4.875557899475098,2,3,3,3,-9.35,-1.12,2.61,-0.45,0.6899999999999999,-1.43
4.885557889938354,2,3,3,3,-9.27,-1.2,2.55,-0.59,0.73,-1.35
4.895557880401611,2,3,3,3,-9.220000000000001,-1.24,2.52,-0.73,0.83,-1.34
4.905557870864868,2,3,3,3,-9.19,-1.21,2.52,-0.84,0.97,-1.37
4.915557861328125,2,3,3,3,-9.16,-1.21,2.53,-0.87,1.19,-1.44
4.925557851791382,2,3,3,3,-9.31,-1.22,2.64,-0.62,1.33,-1.52
4.935557842254639,2,3,3,3,-9.390000000000001,-1.23,2.71,-0.42,1.34,-1.61
4.945558071136475,2,3,3,3,-9.369999999999999,-1.21,2.71,-0.46,1.15,-1.81
4.955558061599731,2,3,3,3,-9.32,-1.34,2.61,-0.8100000000000001,1.12,-2.08
4.965558052062988,2,3,3,3,-9.279999999999999,-1.45,2.38,-1.46,1.39,-2.4
4.975558042526245,2,3,3,3,-9.23,-1.44,2.11,-1.91,1.75,-2.7
4.985558032989502,2,3,3,3,-9.289999999999999,-1.51,2.06,-2.24,2.03,-3.01
4.995558023452759,2,3,3,3,-9.220000000000001,-1.75,1.99,-2.27,2.06,-3.21
5.005558013916016,2,3,3,3,-9.050000000000001,-1.86,2.04,-2.15,1.81,-3.36
5.015558004379272,2,3,3,3,-8.93,-2,2.04,-1.94,1.63,-3.45
5.025557994842529,2,3,3,3,-8.82,-2.09,1.93,-1.84,1.5,-3.58
5.035557985305786,2,3,3,3,-8.619999999999999,-2.26,1.92,-1.91,1.43,-3.64
5.045557975769043,2,3,3,3,-8.5,-2.18,1.93,-1.98,1.28,-3.86
5.0555579662323,2,3,3,3,-8.289999999999999,-2.01,1.85,-2.28,0.82,-4.29
5.065557956695557,2,3,3,3,-8.17,-1.89,1.9,-2.66,0.31,-4.67
5.075557947158813,2,3,3,3,-7.74,-1.73,1.4,-3.05,-0.31,-5.05
5.08555793762207,2,3,3,3,-7.39,-1.78,1.09,-3.59,-0.93,-5.58
5.095557928085327,2,3,3,3,-6.94,-1.77,0.82,-3.7,-1.18,-6.18
5.105557918548584,2,3,3,3,-6.21,-1.89,0.9,-3.29,-1.12,-6.67
5.115557909011841,2,3,3,3,-5.78,-1.98,1.07,-2.42,-1.26,-6.9
5.125557899475098,2,3,3,3,-5.32,-2.09,1.21,-1.52,-1.65,-6.93
5.135557889938354,2,3,3,3,-4.88,-2.19,1.24,-0.8,-1.96,-6.73
5.145557880401611,2,3,3,3,-4.11,-1.98,0.84,-0.5600000000000001,-2.12,-6.28
5.155557870864868,2,3,3,3,-3.99,-1.59,1.18,0.08,-1.41,-5.68
5.165557861328125,2,3,3,3,-4.14,-1.23,1.52,0.98,-0.15,-5.02
5.175557851791382,2,3,3,3,-4.42,-0.99,1.72,1.4,0.71,-4.23
5.185557842254639,2,3,3,3,-5.34,-0.7,2.29,1.76,1.06,-3.3
5.195558071136475,2,3,3,3,-6.06,-0.66,2.7,2.38,0.84,-2.41
5.205558061599731,2,3,3,3,-6.82,-0.79,3.1,2.7,-0.01,-1.48
5.215558052062988,2,3,3,3,-7.69,-1,3.42,2.21,-1.13,-0.44
5.225558042526245,2,3,3,3,-9.390000000000001,-1.25,3.33,1.34,-2.43,0.41
5.235558032989502,2,3,3,3,-10.27,-1.31,3.44,0.4,-3.04,0.63
5.245558023452759,2,3,3,3,-11.03,-1.3,3.24,-0.4,-3.46,0.13
5.255558013916016,2,3,3,3,-11.74,-1.33,2.85,-1.22,-3.02,-1.02
5.265558004379272,2,3,3,3,-12.45,-1.29,1.89,-1.31,-1.57,-2.82
5.275557994842529,2,3,3,3,-12,-1.13,1.47,-1.25,-0.7,-5.06
5.286557912826538,2,3,3,3,-11.05,-1.1,1.44,-1.73,-1.65,-7.1
5.296557903289795,2,3,3,3,-9.199999999999999,-0.85,2.55,-1.95,-3.11,-7.62
5.306557893753052,2,3,3,3,-8.35,-1.03,3.02,-1.76,-4.65,-6.67
5.316557884216309,2,3,3,3,-7.9,-1.49,3.5,-1.55,-5.17,-4.89
5.326557874679565,2,3,3,3,-7.44,-1.72,3.85,-0.59,-4.19,-2.46
5.336557865142822,2,3,3,3,-8.65,-2.18,4.43,0.08,-2.33,-0.29
5.346557855606079,2,3,3,3,-9.48,-1.93,4.52,-0.33,-1.71,1.34
5.356557846069336,2,3,3,3,-10.28,-1.45,4.61,-1.31,-2.35,2.12
5.366558074951172,2,3,3,3,-11.02,-1.25,4.88,-2.54,-3.16,2.54
5.376558065414429,2,3,3,3,-12.24,-1.75,5.26,-3.07,-4.06,2.8
5.386558055877686,2,3,3,3,-12.92,-2.23,5.23,-3.34,-4.62,2.89
5.396558046340942,2,3,3,3,-13.59,-2.69,4.89,-3.68,-4.31,2.36
5.406558036804199,2,3,3,3,-14.17,-2.95,4.73,-2.91,-2.59,1.51
5.416558027267456,2,3,3,3,-15.43,-3.46,4.9,-1.61,-1.22,0.52
5.426558017730713,2,3,3,3,-15.52,-3.71,4.88,-0.76,-1.89,-0.24
5.43655800819397,2,3,3,3,-15.62,-3.71,5,-1.15,-3.39,-0.71
5.446557998657227,2,3,3,3,-16,-3.92,5.59,-1.54,-3.41,-0.23
5.456557989120483,2,3,3,3,-16.86,-3.6,6.7,-0.65,-2.68,0.4
5.46655797958374,2,3,3,3,-17.12,-3.13,6.78,0.26,-1.1,0.98
5.476557970046997,2,3,3,3,-17.53,-2.69,6.82,1.09,1.67,1.46
5.486557960510254,2,3,3,3,-18.58,-1.82,6.28,1.34,3.95,1.48
5.496557950973511,2,3,3,3,-19.25,-1.51,6.86,1.67,5.25,1.14
5.506557941436768,2,3,3,3,-19.8,-1.5,7.02,2.09,5.2,0.92
5.516557931900024,2,3,3,3,-20,-1.61,6.74,1.79,4.02,1.02
5.526557922363281,2,3,3,3,-21.27,-2.43,6.57,0.84,4.77,1.58
5.536557912826538,2,3,3,3,-22.09,-3.03,6.57,0.93,5.91,2.45
5.546557903289795,2,3,3,3,-22.72,-3.53,6.73,1.6,5.72,2.91
5.556557893753052,2,3,3,3,-23.03,-3.67,6.95,2.95,4.95,3.11
5.566557884216309,2,3,3,3,-22.49,-2.75,7.12,4.49,5.46,3.5
5.576557874679565,2,3,3,3,-21.73,-1.43,7.6,5.84,7.29,4.46
5.586557865142822,2,3,3,3,-21.12,-0.71,7.41,6.16,9.68,5.68
5.596557855606079,2,3,3,3,-20.45,-0.12,6.99,5.89,11.29,7.03
5.606557846069336,2,3,3,3,-17.56,-0.06,7.06,5.35,10.79,8.039999999999999
5.616558074951172,2,3,3,3,-15.6,-0.73,6.15,3.7,11.1,8.130000000000001
5.626558065414429,2,3,3,3,-13.44,-1.49,4.61,-0.43,10.64,7.66
5.636558055877686,2,3,3,3,-11.13,-2.19,2.68,-6.13,10.68,6.17
5.646558046340942,2,3,3,3,-9.41,-5.69,-0.21,-10.42,14.93,4.95
5.656558036804199,2,3,3,3,-8.92,-6.68,-2.02,-11.85,17.8,4.18
5.666558027267456,2,3,3,3,-7.42,-6.66,-2.72,-12.06,13.51,3.36
5.676558017730713,2,3,3,3,-3.5,-7.11,-2.83,-9.84,9.119999999999999,2.65
5.68655800819397,2,3,3,3,0.23,-10.38,-3.13,-13.18,0.5,0.58
5.696557998657227,2,3,3,3,2.88,-13.51,-7.38,-21.74,-9.83,-4.86
5.706557989120483,2,3,3,3,2.06,-13.9,-10.72,-26.01,-9.65,-7.32
5.71655797958374,2,3,3,3,-0.85,-10.61,-8.32,-18.1,-5.74,-7.79
5.726557970046997,2,3,3,3,2.06,-9.41,-3.58,-1.56,-5.36,-8.779999999999999
5.736557960510254,2,3,3,3,5.77,-7.79,-1.04,13.12,-9.1,-9.75
5.746557950973511,2,3,3,3,6.64,-5.3,-0.13,19,-8.050000000000001,-5.78
5.756557941436768,2,3,3,3,4.07,0,0.46,20.15,-5.46,0.9
5.766557931900024,2,3,3,3,3.68,2.12,0.54,19.39,-6.58,5.74
5.776557922363281,2,3,3,3,3.55,3.53,0.57,17.76,-7.32,7.93
5.786557912826538,2,3,3,3,3.65,4.06,0.67,16.18,-4.8,8.82
5.796557903289795,2,3,3,3,2.9,3.71,1.12,15,-0.19,9.24
5.806557893753052,2,3,3,3,1.55,3.25,1.29,12.03,2.83,9.77
5.816557884216309,2,3,3,3,-0.27,3,1.41,8.56,3.82,10.58
5.826557874679565,2,3,3,3,-1.86,3.39,1.19,5.49,3.56,10.82
5.836557865142822,2,3,3,3,-4.25,3.63,1.26,1.17,3.25,10.31
5.846557855606079,2,3,3,3,-5.18,3.53,1.23,-2.57,3.5,8.66
5.856557846069336,2,3,3,3,-5.59,3.19,0.97,-5.15,2.53,5.92
5.866558074951172,2,3,3,3,-4.41,2.17,-0.31,-6.99,-0.31,2.08
5.876558065414429,2,3,3,3,-2.8,1.31,-0.82,-7.55,-2.58,-2.19
5.886558055877686,2,3,3,3,-1.16,0.58,-1.17,-7.96,-3.18,-5.68
5.896558046340942,2,3,3,3,-0.05,0.13,-1.06,-7.06,-1.36,-7.98
5.906558036804199,2,3,3,3,0.21,-0.45,0.25,-5,1.96,-9.31
5.916558027267456,2,3,3,3,-0.24,-0.83,0.79,-3.33,4.54,-9.949999999999999
5.926558017730713,2,3,3,3,-0.6899999999999999,-1.36,1.05,-2.85,4.74,-10.1
5.93655800819397,2,3,3,3,-0.7,-1.76,0.64,-2.81,1.74,-10.37
5.946557998657227,2,3,3,3,1.03,-1.16,-0.63,-2.22,-1.59,-10.31
5.956557989120483,2,3,3,3,1.96,-0.75,-0.84,-1.18,-2.61,-9.43
5.96655797958374,2,3,3,3,2.56,-0.09,-0.84,0.71,-2,-7.88
5.976557970046997,2,3,3,3,2.91,0.52,-0.87,2.31,-1.88,-5.74
5.986557960510254,2,3,3,3,3.09,1.04,-0.96,3.06,-3.28,-3.26
5.996557950973511,2,3,3,3,2.76,1.09,-0.78,3.7,-4.64,-0.52
6.006557941436768,2,3,3,3,2.3,0.92,-0.31,4.49,-5.33,2.12
6.016557931900024,2,3,3,3,1.25,0.12,0.16,4.73,-5.66,4.41
6.026557922363281,2,3,3,3,0.91,-0.06,0.75,4.53,-5.32,6.26
6.036557912826538,2,3,3,3,-0.03,-0.88,1.19,3.9,-3.65,8.289999999999999
6.046557903289795,2,3,3,3,-1.31,-2,1.32,2.2,-3.74,10.45
6.056557893753052,2,3,3,3,-1.01,-4.04,2.25,0.41,-6.02,11.1
6.066557884216309,2,3,3,3,-1.63,-6.4,4.29,-2.2,-5.98,10.66
6.076557874679565,2,3,3,3,-4.3,-9.5,4.7,-4.64,-3.05,12.01
6.086557865142822,2,3,3,3,-10.28,-10.02,5.85,-4.86,3.67,14.13
6.096557855606079,2,3,3,3,-36.19,-15.25,5.2,-4.71,14.06,15.91
6.106557846069336,2,3,3,3,-39.11,-12.33,8.4,8.26,0.77,19.55
6.116558074951172,2,3,3,3,-39.03,-3.03,1.88,30.7,-20.11,10.15
6.126558065414429,2,3,3,3,-39.11,7.6,-3.13,24.38,25.15,-11.57
6.136558055877686,2,3,3,3,-31.07,9.06,5.1,21.78,11.57,-17.17
6.146558046340942,2,3,3,3,-22.48,6.34,5.56,6.63,-13.99,-16.02
6.156558036804199,2,3,3,3,-14.4,2.96,12.56,-3.71,-17.75,-2.4
6.166558027267456,2,3,3,3,-9.119999999999999,2.04,16.56,-0.38,-17.25,10.2
6.176558017730713,2,3,3,3,-10.75,-0.58,11.18,-2.68,-12.82,16.44
6.18655800819397,2,3,3,3,-16.21,3.16,8.279999999999999,-0.39,4.61,15.73
6.196557998657227,2,3,3,3,-22.86,5.9,6.31,-1.59,19.85,10.57
6.206557989120483,2,3,3,3,-28.72,6.12,0.77,-5.09,22.53,2.2
6.21655797958374,2,3,3,3,-26.52,3.55,-0.03,-4.09,14.65,-4.82
6.226557970046997,2,3,3,3,-21.84,1.15,1.95,0.02,-0.22,-10.48
6.236557960510254,2,3,3,3,-16.38,-0.09,3.82,-2.75,-13.8,-13.63
6.246557950973511,2,3,3,3,-9.130000000000001,-2.5,4.34,-8.99,-16.53,-12.61
6.256557941436768,2,3,3,3,-8.24,-2.47,4.59,-10.47,-8.06,-9.68
6.266557931900024,2,3,3,3,-9.25,-2.21,4.89,-8.74,2.13,-7.41
6.276557922363281,2,3,3,3,-11.05,-2.46,4.73,-7.73,7.27,-5.39
6.286557912826538,2,3,3,3,-12.53,-3.58,2.91,-7.8,6.07,-3.12
6.296557903289795,2,3,3,3,-11.9,-3.91,1.85,-6.97,3.1,-1.01
6.306557893753052,2,3,3,3,-11.9,-3.91,1.85,-4.66,0.71,0.5600000000000001
6.31755805015564,2,3,3,3,-10.47,-3.92,1.33,-1.92,0.09,1.22
6.327558040618896,2,3,3,3,-6.92,-2.08,1.7,0.4,1.68,1.29
6.337558031082153,2,3,3,3,-6.93,-1.53,2.08,2.03,4.05,0.9399999999999999
6.34755802154541,2,3,3,3,-7.04,-0.98,2.16,2.96,5.09,0.11
6.357558012008667,2,3,3,3,-7.04,-0.98,2.16,2.97,3.93,-0.93
6.367558002471924,2,3,3,3,-6.44,-0.35,1.27,2.57,1.73,-2.04
6.377557992935181,2,3,3,3,-5.96,-0.37,1.35,1.75,-0.16,-2.86
6.387557983398438,2,3,3,3,-5.58,-0.52,1.7,1.15,-1.22,-3.13
6.397557973861694,2,3,3,3,-5.18,-1.17,1.79,0.6,-0.89,-3.12
6.407557964324951,2,3,3,3,-5.3,-1.37,1.63,-0.26,0.85,-2.79
6.417557954788208,2,3,3,3,-5.38,-1.47,1.44,-0.77,2.71,-2.21
6.427557945251465,2,3,3,3,-5.59,-1.62,1.17,-1.22,4.17,-1.48
6.437557935714722,2,3,3,3,-7.19,-1.81,1.36,-1.28,5.24,-0.66
6.447557926177979,2,3,3,3,-8.27,-1.93,1.51,-0.57,4.82,-0.24
6.457557916641235,2,3,3,3,-8.98,-2,1.59,0.09,2.72,-0.19
6.467557907104492,2,3,3,3,-9.24,-1.99,1.45,0.4,0,-0.27
6.477557897567749,2,3,3,3,-8.48,-1.79,0.8,0.52,-1.98,-0.5
6.487557888031006,2,3,3,3,-7.88,-1.82,1.01,0.44,-2.48,-0.5600000000000001
6.497557878494263,2,3,3,3,-7.53,-1.81,1.31,0.59,-2.15,-0.41
6.50755786895752,2,3,3,3,-7.33,-1.66,1.48,0.77,-2.34,-0.09
6.517557859420776,2,3,3,3,-7.52,-1.65,1.93,0.9399999999999999,-2.68,0.31
6.527557849884033,2,3,3,3,-7.88,-1.67,1.93,1.47,-2.43,0.8100000000000001
6.53755784034729,2,3,3,3,-8.279999999999999,-1.77,2.03,1.75,-2.43,1.36
6.547558069229126,2,3,3,3,-8.699999999999999,-1.86,2.14,1.88,-2.63,1.82
6.557558059692383,2,3,3,3,-9.039999999999999,-1.6,1.94,1.93,-2.9,1.97
6.56755805015564,2,3,3,3,-9.220000000000001,-1.42,1.91,1.74,-2.67,2
6.577558040618896,2,3,3,3,-9.52,-1.29,2.06,1.86,-1.88,1.88
6.587558031082153,2,3,3,3,-9.76,-0.96,2.31,2.15,-1.07,1.51
6.59755802154541,2,3,3,3,-9.800000000000001,-0.75,2.5,1.78,-0.82,1
6.607558012008667,2,3,3,3,-9.85,-0.55,2.7,1.35,-1.04,0.62
6.617558002471924,2,3,3,3,-9.92,-0.43,2.91,1.03,-1.47,0.47
6.627557992935181,2,3,3,3,-10.01,-0.41,2.8,0.53,-1.92,0.52
6.637557983398438,2,3,3,3,-10.04,-0.37,2.57,-0.03,-2.37,0.49
6.647557973861694,2,3,3,3,-9.99,-0.38,2.19,-1.04,-2.37,0.17
6.657557964324951,2,3,3,3,-9.92,-0.49,2.03,-2.25,-1.61,-0.35
6.667557954788208,2,3,3,3,-9.720000000000001,-0.8,1.85,-2.93,-0.61,-1.02
6.677557945251465,2,3,3,3,-9.56,-1.13,1.61,-3.53,0.04,-1.86
6.687557935714722,2,3,3,3,-9.43,-1.6,1.6,-4.08,0.44,-2.62
6.697557926177979,2,3,3,3,-9.16,-2.12,1.3,-4.35,0.8,-3.25
6.707557916641235,2,3,3,3,-8.83,-2.8,1.37,-4.24,1.63,-3.65
6.717557907104492,2,3,3,3,-8.960000000000001,-2.82,1.72,-3.32,2.55,-3.71
6.727557897567749,2,3,3,3,-8.970000000000001,-2.63,1.66,-2.48,2.47,-3.46
6.737557888031006,2,3,3,3,-8.84,-2.41,1.73,-1.91,1.83,-2.75
6.747557878494263,2,3,3,3,-8.289999999999999,-2.04,1.96,-1.21,1.06,-1.81
6.75755786895752,2,3,3,3,-8.06,-2.02,1.95,-0.64,0.75,-0.83
6.767557859420776,2,3,3,3,-8.06,-2.02,1.95,0.27,1.32,0.01
6.777557849884033,2,3,3,3,-8.68,-1.84,2.08,1.35,1.93,0.5
6.78755784034729,2,3,3,3,-9,-1.71,2.3,1.93,2,0.82
6.797558069229126,2,3,3,3,-9.27,-1.5,2.49,2.1,1.59,0.93
6.807558059692383,2,3,3,3,-9.27,-1.5,2.49,1.7,0.88,0.93
6.81755805015564,2,3,3,3,-9.43,-1.24,2.55,1.13,0.7,0.85
6.827558040618896,2,3,3,3,-10.1,-1.02,2.44,0.74,0.9,0.66
6.837558031082153,2,3,3,3,-10.37,-1.19,2.24,0.47,1.01,0.38
6.84755802154541,2,3,3,3,-10.61,-1.34,2.09,0.31,1.3,0.05
6.857558012008667,2,3,3,3,-10.61,-1.34,2.09,0.48,1.53,-0.24
6.867558002471924,2,3,3,3,-11.04,-1.31,2.12,0.51,0.9399999999999999,-0.53
6.877557992935181,2,3,3,3,-10.56,-1.22,2.18,0.57,0.03,-0.75
6.887557983398438,2,3,3,3,-10.08,-1.19,2.27,0.62,-0.8100000000000001,-0.9
6.897557973861694,2,3,3,3,-9.24,-1.25,2.46,0.44,-1.08,-0.9399999999999999
6.907557964324951,2,3,3,3,-9.24,-1.25,2.46,0.07000000000000001,-0.73,-0.89
6.917557954788208,2,3,3,3,-9.1,-1.38,2.56,-0.23,-0.61,-0.87
6.927557945251465,2,3,3,3,-8.9,-1.62,2.22,-0.9399999999999999,-0.9,-0.9399999999999999
6.937557935714722,2,3,3,3,-8.66,-1.98,1.71,-1.93,-1.06,-1.14
6.947557926177979,2,3,3,3,-8.529999999999999,-2.12,1.58,-2.56,-1.02,-1.45
6.957557916641235,2,3,3,3,-8.529999999999999,-2.12,1.58,-3.17,-1.07,-1.91
6.967557907104492,2,3,3,3,-8.32,-2.27,1.3,-3.78,-0.59,-2.41
6.977557897567749,2,3,3,3,-7.8,-2.58,1.13,-3.57,0.29,-2.79
6.987557888031006,2,3,3,3,-7.66,-2.57,1.29,-2.91,0.65,-3.03
6.997557878494263,2,3,3,3,-7.49,-2.61,1.35,-2.6,0.26,-2.97
7.00755786895752,2,3,3,3,-7.49,-2.61,1.35,-2.6,0.26,-2.97
7.017557859420776,2,3,3,3,-7.14,-2.81,1.49,-2.42,-0.47,-2.47
7.027557849884033,2,3,3,3,-6.93,-3.18,1.28,-1.87,-1.16,-0.6899999999999999
7.03755784034729,2,3,3,3,-6.95,-3.31,1.14,-1.42,-0.82,-0.13
7.047558069229126,2,3,3,3,-6.86,-3.42,0.7,-0.85,-0.45,0
7.057558059692383,2,3,3,3,-6.86,-3.42,0.7,-0.85,-0.45,0
7.06755805015564,2,3,3,3,-6.63,-3.24,0.58,-0.28,-0.15,-0.44
7.077558040618896,2,3,3,3,-5.81,-2.33,0.32,0.26,-0.16,-2.78
7.087558031082153,2,3,3,3,-4.93,-1.34,0.46,-0.08,-0.03,-3.86
7.09755802154541,2,3,3,3,-4.54,-1.09,0.4,-0.49,0.08,-4.46
7.107558012008667,2,3,3,3,-4.54,-1.09,0.4,-0.49,0.08,-4.46
7.117558002471924,2,3,3,3,-4.06,-1.15,0.67,-1.05,0.27,-4.56
7.127557992935181,2,3,3,3,-3.84,-1.17,1.23,-0.14,1.43,-3.68
7.137557983398438,2,3,3,3,-4.55,-1.15,1.73,-0.07000000000000001,1.23,-2.72
7.147557973861694,2,3,3,3,-5.14,-1.36,1.95,-0.72,0.11,-1.78
7.157557964324951,2,3,3,3,-5.71,-1.74,2.16,-0.72,0.11,-1.78
7.167557954788208,2,3,3,3,-6.71,-1.97,2.07,-1.25,-1.42,-1.24
7.177557945251465,2,3,3,3,-7.25,-1.94,2.06,-2.96,-1.9,-2.05
7.187557935714722,2,3,3,3,-8.17,-1.91,2.18,-2.63,-1.34,-3.13
7.197557926177979,2,3,3,3,-9.210000000000001,-1.72,2.43,-2.04,-1.29,-4.42
7.207557916641235,2,3,3,3,-9.57,-1.3,1.97,-2.04,-1.29,-4.42
7.217557907104492,2,3,3,3,-9.25,-1.41,2.35,-1.73,-1.55,-5.68
7.227557897567749,2,3,3,3,-8.93,-1.56,2.95,-0.92,-4.31,-6.8
7.237557888031006,2,3,3,3,-8.74,-1.82,3.21,-0.78,-5.21,-5.79
7.247557878494263,2,3,3,3,-9.140000000000001,-2.66,3.62,-0.28,-4.46,-3.87
7.25755786895752,2,3,3,3,-10.01,-2.78,3.82,-0.28,-4.46,-3.87
7.267557859420776,2,3,3,3,-10.77,-2.63,4.14,0.59,-4.25,-2.05
7.277557849884033,2,3,3,3,-11.4,-2.41,4.58,0.82,-6.91,0.66
7.28755784034729,2,3,3,3,-12.23,-1.75,5.26,0.71,-7.47,2.31
7.297558069229126,2,3,3,3,-12.71,-1.58,5.71,0.73,-6.9,3.98
7.307558059692383,2,3,3,3,-13.35,-1.93,5.89,0.73,-6.9,3.98
7.31755805015564,2,3,3,3,-15.06,-2.8,5.72,0.77,-5.04,5.01
7.327558040618896,2,3,3,3,-16.46,-2.87,5.99,2.81,0.46,4.92
7.338557958602905,2,3,3,3,-17.93,-3,6.14,3.47,1.05,4.59
7.348557949066162,2,3,3,3,-19.22,-2.66,6.23,3.4,0.91,3.97
7.358557939529419,2,3,3,3,-21.07,-2.29,5.83,3.4,0.91,3.97
7.368557929992676,2,3,3,3,-21.67,-1.86,5.9,3.11,0.63,2.53
7.378557920455933,2,3,3,3,-21.67,-1.32,5.92,3.1,0.18,-0.45
7.388557910919189,2,3,3,3,-21.3,-1.02,6.2,2.59,-0.23,-0.44
7.398557901382446,2,3,3,3,-20,-1.82,7.48,1.82,-0.48,0.21
7.408557891845703,2,3,3,3,-19.67,-2.17,7.59,1.82,-0.48,0.21
7.41855788230896,2,3,3,3,-19.44,-2.34,7.15,1.28,-0.47,0.86
7.428557872772217,2,3,3,3,-19.28,-2.35,6.63,1.25,1.29,2.06
7.438557863235474,2,3,3,3,-19.71,-1.69,6.01,2.46,2.75,2.84
7.44855785369873,2,3,3,3,-19.81,-1.4,6.12,4.01,3.37,3.81
7.458557844161987,2,3,3,3,-20,-1.24,6.39,4.01,3.37,3.81
7.468558073043823,2,3,3,3,-20.15,-1.3,6.56,5.98,2.89,5.18
7.47855806350708,2,3,3,3,-19.9,-1.05,6.78,10.36,4.73,7.25
7.488558053970337,2,3,3,3,-19.71,-0.24,7.28,10.92,6.17,8.06
7.498558044433594,2,3,3,3,-19.69,0.06,7.61,10.48,8.380000000000001,9.640000000000001
7.508558034896851,2,3,3,3,-21.09,1.29,8.130000000000001,10.48,8.380000000000001,9.640000000000001
7.518558025360107,2,3,3,3,-22.39,1.06,8.289999999999999,8.800000000000001,11.2,11.52
7.528558015823364,2,3,3,3,-23.68,0.51,7.93,7.07,12.53,14.05
7.538558006286621,2,3,3,3,-23.11,-0.36,6.68,4.74,7.96,10.26
7.548557996749878,2,3,3,3,-17.23,-4.09,3.6,4.31,5.79,6.74
7.558557987213135,2,3,3,3,-13.15,-5.07,2.04,4.31,5.79,6.74
7.568557977676392,2,3,3,3,-9.369999999999999,-5.79,0.1,2.67,5.52,3.63
7.578557968139648,2,3,3,3,-6.91,-5.15,-1.69,-3.95,6.08,1.04
7.588557958602905,2,3,3,3,-0.43,-7.19,-0.35,-12.2,-0.79,-4.68
7.598557949066162,2,3,3,3,3.43,-10.01,-1.7,-22.7,-3.33,-11.23
7.608557939529419,2,3,3,3,3.61,-12.86,-5.2,-22.7,-3.33,-11.23
7.618557929992676,2,3,3,3,0.24,-13.86,-9.17,-31.07,2.12,-15.74
7.628557920455933,2,3,3,3,-5.64,-11.64,-14.53,-19.74,-1.49,-17.26
7.638557910919189,2,3,3,3,-2.21,-11.04,-8.35,1.87,-10,-17.29
7.648557901382446,2,3,3,3,3.44,-10.24,-2.74,14.94,-11.97,-13.26
7.658557891845703,2,3,3,3,6.76,-8.43,0.44,14.94,-11.97,-13.26
7.66855788230896,2,3,3,3,8.210000000000001,-1.52,2.92,20.26,-6.85,-3.24
7.678557872772217,2,3,3,3,7.99,2.73,2.37,19.13,-1.19,13.95
7.688557863235474,2,3,3,3,7.78,6.01,1.3,15.87,-3.06,17.63
7.69855785369873,2,3,3,3,5.61,6.68,0.36,14.76,-3.71,17.31
7.708557844161987,2,3,3,3,3.58,5.96,0.91,14.76,-3.71,17.31
7.718558073043823,2,3,3,3,1.81,5.1,1.3,13.27,-2.71,15.97
7.72855806350708,2,3,3,3,0.61,4.64,1.15,7.06,1.64,12.42
7.738558053970337,2,3,3,3,-3.04,3.45,1.14,2.8,4.4,9.949999999999999
7.748558044433594,2,3,3,3,-4.62,3.59,1.51,-1,6.16,7.35
7.758558034896851,2,3,3,3,-5.85,3.59,1.36,-1,6.16,7.35
7.768558025360107,2,3,3,3,-6.67,3.2,0.88,-4.68,6.67,4.86
7.778558015823364,2,3,3,3,-6.6,2.23,-0.21,-8.4,2.84,-3.46
7.788558006286621,2,3,3,3,-6.05,1.41,-0.47,-9.539999999999999,1.16,-7.27
7.798557996749878,2,3,3,3,-4.83,0.34,-0.58,-9.109999999999999,-0.57,-8.960000000000001
7.808557987213135,2,3,3,3,-3.4,-0.48,-0.67,-9.109999999999999,-0.57,-8.960000000000001
7.818557977676392,2,3,3,3,-1.49,-1.48,-0.52,-7.95,-0.99,-9.539999999999999
7.828557968139648,2,3,3,3,-0.9399999999999999,-1.72,-0.42,-5.03,-0.25,-9.41
7.838557958602905,2,3,3,3,-0.43,-2.11,-0.52,-3.22,-1.25,-8.92
7.848557949066162,2,3,3,3,0.5,-2.16,-0.4,-2.17,-2.75,-7.99
7.858557939529419,2,3,3,3,3.39,-1.58,-0.63,-2.17,-2.75,-7.99
7.868557929992676,2,3,3,3,4.49,-1.19,-0.6899999999999999,-1.56,-3.72,-6.54
7.878557920455933,2,3,3,3,5.35,-0.58,-0.73,-0.39,-4.61,-2.15
7.888557910919189,2,3,3,3,5.31,0.04,-0.78,0.82,-4.18,0.58
7.898557901382446,2,3,3,3,4.81,0.14,-0.73,1.72,-3.24,3.05
7.908557891845703,2,3,3,3,3.9,-0.09,-0.61,1.72,-3.24,3.05
7.91855788230896,2,3,3,3,2.61,-0.51,-0.09,2.14,-3.09,5.14
7.928557872772217,2,3,3,3,1.06,-1.04,-0.41,2.85,-4.58,7.1
7.938557863235474,2,3,3,3,0.6,-1.08,-0.72,4.22,-2.48,7.53
7.94855785369873,2,3,3,3,-0.19,-0.8100000000000001,-0.42,6.47,0.12,8.210000000000001
7.958557844161987,2,3,3,3,-1.23,-0.49,0.5600000000000001,6.47,0.12,8.210000000000001
7.968558073043823,2,3,3,3,-2.8,-0.08,2.55,9.539999999999999,0.2,8.800000000000001
7.97855806350708,2,3,3,3,-2.2,-0.13,2.1,5.39,-5.75,7.49
7.988558053970337,2,3,3,3,-2.12,-1.15,1.38,1.69,-7,7.34
7.998558044433594,2,3,3,3,-2.23,-2.4,2.45,0.1,-5.33,6.68
8.018558025360107,2,3,3,3,-5.74,-4.84,3.45,-1.96,-2.63,6.52
8.028558015823364,2,3,3,3,-9.25,-5.15,2.97,-3.09,3.65,10.21
8.038558006286621,2,3,3,3,-15.78,-4.23,4.49,-0.54,0.61,12.75
8.048557996749878,2,3,3,3,-37.35,-4.61,14.49,11.18,-18.08,17.37
8.058557987213135,2,3,3,3,-37.53,-1.73,15.78,11.18,-18.08,17.37
8.068557977676392,2,3,3,3,-38.79,-12.94,-8.960000000000001,6.13,7.46,20.27
8.078557968139648,2,3,3,3,-38.83,29.48,-3.63,39.81,-9.6,-26.61
8.088557958602905,2,3,3,3,-22.9,18.36,2.45,39.81,-9.6,-26.61
8.098557949066162,2,3,3,3,-4.84,2.82,21.27,0.03,-47.84,-7.15
8.108557939529419,2,3,3,3,1.66,6.1,20.53,-5.53,-37.72,9.710000000000001
8.118557929992676,2,3,3,3,-5,1.61,10.11,-11.6,-19.64,21.86
8.128557920455933,2,3,3,3,-15.16,3.25,11.1,-14.81,3.69,22.21
8.138557910919189,2,3,3,3,-24.49,6.81,8.470000000000001,-14.87,14.94,14.78
8.148557901382446,2,3,3,3,-30.43,8.289999999999999,3.99,-16.16,19.26,5.32
8.158557891845703,2,3,3,3,-28.9,2.44,-1.29,-13.05,19.62,-3.52
8.16855788230896,2,3,3,3,-22.15,-0.54,0.8100000000000001,-4.21,8.039999999999999,-10.01
8.178557872772217,2,3,3,3,-16.38,-1.59,3.4,-2.22,-12.29,-13.07
8.188557863235474,2,3,3,3,-14.22,-1.1,5.15,-2.72,-18.51,-12.97
8.19855785369873,2,3,3,3,-14.01,-0.24,6.34,-0.73,-4.77,-12.04
8.208557844161987,2,3,3,3,-14.75,-0.45,6.11,0.34,8.82,-10.4
8.218558073043823,2,3,3,3,-14.73,-0.83,5.64,-0.05,8.27,-8.52
8.22855806350708,2,3,3,3,-13.15,-1.22,4.7,-0.98,1.43,-6.28
8.238558053970337,2,3,3,3,-8.42,-0.62,2.38,-1.76,-2.45,-3.73
8.248558044433594,2,3,3,3,-6.04,-0.03,1.47,-1.82,-2.29,-1.57
8.258558034896851,2,3,3,3,-5.01,0.61,1.4,-1.69,1.68,-0.51
8.268558025360107,2,3,3,3,-5.66,0.77,2.8,-0.75,5.44,-0.45
8.278558015823364,2,3,3,3,-6.41,0.44,2.89,-0.4,5.9,-1.09
8.288558006286621,2,3,3,3,-7.33,0,2.49,-0.97,4.32,-1.98
8.298557996749878,2,3,3,3,-8.199999999999999,-0.4,2.21,-1.41,2.54,-3.01
8.308557987213135,2,3,3,3,-8.68,-0.71,1.48,-1.6,0.61,-3.9
8.318557977676392,2,3,3,3,-8.25,-0.8100000000000001,1.25,-1.82,-0.85,-4.3
8.328557968139648,2,3,3,3,-7.36,-1.04,0.98,-1.7,-1.24,-4.5
8.338557958602905,2,3,3,3,-6.35,-1.22,0.93,-1.12,0.42,-4.8
8.348557949066162,2,3,3,3,-4.83,-1.33,1.35,-0.29,2.92,-4.88
8.359557867050171,2,3,3,3,-4.45,-1.45,1.35,0.04,4.8,-4.44
8.369557857513428,2,3,3,3,-4.62,-1.63,1.36,-0.38,6.35,-3.76
8.379557847976685,2,3,3,3,-5.29,-1.88,1.45,-0.8,7.23,-3.26
8.389557838439941,2,3,3,3,-7.48,-2.09,1.49,-0.99,6.13,-3.13
8.399558067321777,2,3,3,3,-8.140000000000001,-1.76,1.25,-1.02,3.16,-3.03
8.409558057785034,2,3,3,3,-8,-1.23,0.9,-0.78,0.35,-2.63
8.419558048248291,2,3,3,3,-6.99,-1,1.1,-0.3,-0.5600000000000001,-2.11
8.429558038711548,2,3,3,3,-6.89,-1.02,1.93,0.42,-0.73,-1.61
8.439558029174805,2,3,3,3,-7.04,-1.07,2.55,0.99,-1.85,-0.99
8.449558019638062,2,3,3,3,-7.38,-1.25,2.77,0.66,-2.95,-0.01
8.459558010101318,2,3,3,3,-8.529999999999999,-1.29,2.15,-0.05,-2.51,1.03
8.469558000564575,2,3,3,3,-9.07,-1.11,2.12,-0.24,-1.28,1.73
8.479557991027832,2,3,3,3,-9.49,-0.88,2.25,0.26,-0.43,1.84
8.489557981491089,2,3,3,3,-9.539999999999999,-0.7,2.26,0.98,-0.57,1.36
8.499557971954346,2,3,3,3,-9.359999999999999,-0.53,3.08,1.5,-0.88,0.61
8.509557962417603,2,3,3,3,-9.42,-0.32,3.15,1.99,-0.88,-0.12
8.519557952880859,2,3,3,3,-9.59,-0.18,2.99,1.42,-1.07,-0.76
8.529557943344116,2,3,3,3,-9.970000000000001,0.04,3.1,0.66,-0.71,-1.2
8.539557933807373,2,3,3,3,-10.68,0.21,3.14,0.35,-0.33,-1.28
8.54955792427063,2,3,3,3,-10.71,0.19,3.19,-0.14,-0.43,-1.25
8.559557914733887,2,3,3,3,-10.54,0.14,3.15,-0.65,-0.61,-1.11
8.569557905197144,2,3,3,3,-10.25,0.04,3.03,-1.32,-0.53,-1.04
8.5795578956604,2,3,3,3,-9.74,-0.04,2.77,-1.81,-0.05,-1.07
8.589557886123657,2,3,3,3,-9.630000000000001,-0.02,2.79,-1.88,0.52,-1.13
8.599557876586914,2,3,3,3,-9.609999999999999,-0.15,2.82,-1.73,0.97,-1.19
8.609557867050171,2,3,3,3,-9.67,-0.6899999999999999,2.77,-1.53,1.08,-1.26
8.619557857513428,2,3,3,3,-9.640000000000001,-0.97,2.74,-1.18,0.99,-1.4
8.629557847976685,2,3,3,3,-9.630000000000001,-1.2,2.6,-0.78,1.01,-1.54
8.639557838439941,2,3,3,3,-9.59,-1.36,2.41,-0.66,1.16,-1.69
8.649558067321777,2,3,3,3,-9.31,-1.48,2.57,-0.71,1.17,-1.86
8.659558057785034,2,3,3,3,-9.220000000000001,-1.43,2.7,-0.5600000000000001,1.16,-1.89
8.669558048248291,2,3,3,3,-9.109999999999999,-1.41,2.7,-0.33,1.07,-1.75
8.679558038711548,2,3,3,3,-8.98,-1.41,2.47,-0.34,0.85,-1.52
8.689558029174805,2,3,3,3,-8.69,-1.16,2.24,-0.27,0.93,-1.34
8.699558019638062,2,3,3,3,-8.550000000000001,-1.06,2.29,0.04,1.02,-1.21
8.709558010101318,2,3,3,3,-8.35,-1,2.37,0.25,0.92,-1.15
8.719558000564575,2,3,3,3,-8.140000000000001,-1.06,2.39,0.12,0.8,-1.05
8.729557991027832,2,3,3,3,-8.130000000000001,-1.16,2.43,-0.22,0.95,-0.89
8.739557981491089,2,3,3,3,-8.390000000000001,-1.28,2.55,-0.54,1.38,-0.64
8.749557971954346,2,3,3,3,-8.66,-1.4,2.6,-1.07,1.66,-0.32
8.759557962417603,2,3,3,3,-8.93,-1.47,2.38,-1.82,1.48,-0.15
8.769557952880859,2,3,3,3,-9.25,-1.58,2.32,-2.09,1.36,-0.04
8.779557943344116,2,3,3,3,-9.289999999999999,-1.6,2.32,-1.66,1.36,-0.02
8.789557933807373,2,3,3,3,-9.35,-1.69,2.24,-1.16,1.21,0.03
8.79955792427063,2,3,3,3,-9.42,-1.78,2.42,-0.66,0.92,0.06
8.809557914733887,2,3,3,3,-9.529999999999999,-1.69,2.4,-0.16,0.52,0.02
8.819557905197144,2,3,3,3,-9.67,-1.51,2.37,0.38,0.21,0.02
8.8295578956604,2,3,3,3,-9.73,-1.37,2.42,0.89,-0.07000000000000001,0.07000000000000001
8.839557886123657,2,3,3,3,-9.779999999999999,-1.19,2.64,1.02,-0.48,0.12
8.849557876586914,2,3,3,3,-9.6,-1.07,2.45,0.84,-1.04,0.01
8.859557867050171,2,3,3,3,-9.460000000000001,-0.9399999999999999,2.22,0.49,-1.44,-0.21
8.869557857513428,2,3,3,3,-9.33,-0.84,2.12,0.27,-1.47,-0.51
8.879557847976685,2,3,3,3,-9.09,-1.09,2.33,-0.26,-1.13,-0.75
8.889557838439941,2,3,3,3,-9.19,-1.32,2.4,-0.8,-0.5,-0.9399999999999999
8.899558067321777,2,3,3,3,-9.24,-1.56,2.32,-1.34,-0.28,-1.05
8.909558057785034,2,3,3,3,-9.359999999999999,-1.77,2.23,-1.64,-0.09,-1.09
8.919558048248291,2,3,3,3,-9.48,-2.03,2.01,-1.44,0.05,-1.03
8.929558038711548,2,3,3,3,-9.380000000000001,-2.02,1.93,-1.22,-0.11,-0.97
8.939558029174805,2,3,3,3,-9.220000000000001,-1.98,1.79,-1.04,-0.27,-0.87
8.949558019638062,2,3,3,3,-9.08,-1.92,1.82,-0.79,-0.3,-0.73
8.959558010101318,2,3,3,3,-9.09,-1.77,2.03,-0.27,-0.34,-0.58
8.969558000564575,2,3,3,3,-8.99,-1.7,1.94,0.28,-0.6899999999999999,-0.52
8.979557991027832,2,3,3,3,-8.960000000000001,-1.67,2,0.68,-0.9,-0.45
8.989557981491089,2,3,3,3,-9,-1.62,2.03,1.26,-0.79,-0.36
8.999557971954346,2,3,3,3,-8.970000000000001,-1.59,2.08,1.51,-0.79,-0.3
9.009557962417603,2,3,3,3,-8.949999999999999,-1.55,2.08,1.31,-0.68,-0.32
9.019557952880859,2,3,3,3,-8.890000000000001,-1.54,1.95,0.9,-0.35,-0.39
9.029557943344116,2,3,3,3,-8.94,-1.59,1.71,0.3,0.21,-0.64
9.039557933807373,2,3,3,3,-9.07,-1.76,1.77,-0.15,0.73,-0.88
9.04955792427063,2,3,3,3,-9.23,-1.93,1.83,-0.35,0.89,-1.1
9.059557914733887,2,3,3,3,-9.220000000000001,-2.16,1.58,-0.8,0.58,-1.42
9.069557905197144,2,3,3,3,-8.73,-2.3,1.18,-1.13,0.1,-1.91
9.0795578956604,2,3,3,3,-8.25,-2.16,1.22,-0.95,-0.25,-2.56
9.089557886123657,2,3,3,3,-7.74,-2.06,1.37,-0.61,-0.39,-3.11
9.099557876586914,2,3,3,3,-7.34,-1.95,1.7,-0.46,-0.6899999999999999,-3.45
9.109557867050171,2,3,3,3,-6.26,-1.98,1.09,-1.07,-1.24,-3.66
9.119557857513428,2,3,3,3,-5.84,-2.19,0.59,-2.48,-1.4,-3.72
9.129557847976685,2,3,3,3,-5.48,-2.42,0.32,-3.03,-0.72,-3.72
9.139557838439941,2,3,3,3,-5.11,-2.52,0.02,-2.75,0.01,-3.7
9.149558067321777,2,3,3,3,-4.63,-2.39,0.52,-2,0.76,-3.76
9.159558057785034,2,3,3,3,-4.62,-2.04,1.15,-0.22,1.39,-3.87
9.169558048248291,2,3,3,3,-4.54,-1.7,1.39,1.43,1.08,-3.76
9.179558038711548,2,3,3,3,-4.54,-1.09,1.71,1.97,0.27,-3.09
9.189558029174805,2,3,3,3,-4.48,-1.01,1.44,1.65,-0.54,-2.33
9.199558019638062,2,3,3,3,-4.45,-0.91,1.05,0.74,-0.98,-1.77
9.209558010101318,2,3,3,3,-4.64,-0.65,1.09,0.19,-0.5,-1.63
9.219558000564575,2,3,3,3,-6.3,-0.65,2.83,0.43,0.47,-1.64
9.229557991027832,2,3,3,3,-7.23,-0.93,3.31,0.83,-0.06,-1.4
9.239557981491089,2,3,3,3,-7.89,-1.14,3.07,0.28,-2.16,-0.74
9.249557971954346,2,3,3,3,-8.48,-1.41,2.6,-1.62,-3.71,0.03
9.259557962417603,2,3,3,3,-10,-1.55,2.27,-3.81,-3.76,0.32
9.269557952880859,2,3,3,3,-10.9,-1.59,2.6,-4.24,-3.38,-0.15
9.279557943344116,2,3,3,3,-11.44,-1.78,2.72,-3.34,-3.98,-1.28
9.289557933807373,2,3,3,3,-11.38,-1.9,2.25,-2.57,-4.41,-2.91
9.29955792427063,2,3,3,3,-10.75,-2.36,1.9,-2.47,-3.42,-4.76
9.309557914733887,2,3,3,3,-11.13,-2.38,2.66,-2.13,-2.08,-6.14
9.319557905197144,2,3,3,3,-11.51,-2.52,3.79,-0.84,-2.47,-6.42
9.3295578956604,2,3,3,3,-11.79,-2.65,4.93,-0.36,-4.91,-5.55
9.339557886123657,2,3,3,3,-12.54,-2.27,5.79,-0.74,-7.19,-4.01
9.349557876586914,2,3,3,3,-12.91,-1.9,5.7,-1.12,-7.47,-2.09
9.359557867050171,2,3,3,3,-13.29,-1.81,5.44,-1.07,-5.69,-0.21
9.369557857513428,2,3,3,3,-14.6,-1.8,5,-0.4,-2.88,1.02
9.379557847976685,2,3,3,3,-15.33,-2.12,5.26,0.22,-1.32,1.7
9.390558004379272,2,3,3,3,-16.41,-2.74,5.9,-0.05,-2.02,1.68
9.400557994842529,2,3,3,3,-17.59,-3.15,6.52,-0.65,-3.65,1.35
9.410557985305786,2,3,3,3,-20.32,-3.69,6.44,-1.44,-3.5,0.91
9.420557975769043,2,3,3,3,-21.58,-3.47,6.26,-1.05,-1.2,0.26
9.4305579662323,2,3,3,3,-22.19,-2.66,6,0.9,1.46,-0.8100000000000001
9.440557956695557,2,3,3,3,-22.44,-1.91,5.72,2.87,3.4,-1.79
9.450557947158813,2,3,3,3,-22.09,-1.05,6.91,4.16,4.26,-2.12
9.46055793762207,2,3,3,3,-21.5,-0.9,7.73,3.96,2.87,-1.77
9.470557928085327,2,3,3,3,-20.94,-0.83,7.93,2.91,1.43,-1.05
9.480557918548584,2,3,3,3,-20.53,-0.83,7.83,1.99,2.14,0.1
9.490557909011841,2,3,3,3,-20.84,-1.26,7.78,2.14,4.29,1.66
9.500557899475098,2,3,3,3,-21.42,-1.6,7.94,3.17,5.03,3.33
9.510557889938354,2,3,3,3,-22.09,-1.94,8.02,4.68,4.43,5.09
9.520557880401611,2,3,3,3,-23.29,-0.76,7.84,6.67,4.21,6.55
9.530557870864868,2,3,3,3,-23.45,0.35,8.130000000000001,9.23,5.34,7.31
9.540557861328125,2,3,3,3,-22.82,0.85,8.460000000000001,11.91,6.37,7.17
9.550557851791382,2,3,3,3,-21.29,1.33,8.1,13.15,5.65,6.05
9.560557842254639,2,3,3,3,-17.33,1.2,6.96,10.19,5.03,5.16
9.570558071136475,2,3,3,3,-15.65,-1.41,5.67,4.82,6.33,5.18
9.580558061599731,2,3,3,3,-13.91,-4.77,3.83,-1.77,7.71,4.96
9.590558052062988,2,3,3,3,-12.67,-6.76,1.62,-6.89,8.609999999999999,3.89
9.600558042526245,2,3,3,3,-9.27,-7.21,-4.64,-8.67,9.69,1.34
9.610558032989502,2,3,3,3,-7.13,-5.87,-6.23,-7.72,12.68,-1.62
9.620558023452759,2,3,3,3,-4.63,-6.59,-4.28,-6.98,14.95,-4.34
9.630558013916016,2,3,3,3,-1.97,-8.82,-3.1,-10.82,9.69,-8.24
9.640558004379272,2,3,3,3,0.85,-13.82,-6.22,-18.17,-2.27,-12.79
9.650557994842529,2,3,3,3,2.22,-16.69,-8.1,-21.83,-9.02,-15.48
9.660557985305786,2,3,3,3,3.91,-18.59,-9.09,-13.33,-8.779999999999999,-16.24
9.670557975769043,2,3,3,3,6.44,-16.56,-7.13,5.33,-8.029999999999999,-14.26
9.6805579662323,2,3,3,3,10.22,-1.06,-1.06,22.9,-10.41,-6.69
9.690557956695557,2,3,3,3,9.67,3.83,1.48,29.97,-12.74,3.89
9.700557947158813,2,3,3,3,8.24,5.22,3.45,28.67,-8.59,11.26
9.71055793762207,2,3,3,3,6.1,6.86,4.87,24.77,-0.49,14.25
9.720557928085327,2,3,3,3,4.43,6.6,3.39,18.73,4.26,15.87
9.730557918548584,2,3,3,3,2.42,6.03,3.14,10.22,3.19,16.41
9.740557909011841,2,3,3,3,0.39,5.4,3.7,2.72,-1.09,15.72
9.760557889938354,2,3,3,3,-5.61,3.38,3.36,-12.53,-8.01,11.66
9.770557880401611,2,3,3,3,-6.96,2.06,2.5,-17.53,-6.04,8.85
9.780557870864868,2,3,3,3,-7.52,0.99,1.32,-18.66,-3.93,6.37
9.790557861328125,2,3,3,3,-6.48,-0.22,-0.7,-14.83,-2.06,2.83
9.800557851791382,2,3,3,3,-5.19,-1.2,-2.25,-11.56,-0.15,-1.56
9.810557842254639,2,3,3,3,-3.89,-1.54,-3.41,-8.33,3.11,-5.89
9.820558071136475,2,3,3,3,-2.71,-1.2,-3.64,-3.23,7.8,-8.970000000000001
9.830558061599731,2,3,3,3,-1.1,-0.12,-1.67,1.16,11.05,-10.46
9.840558052062988,2,3,3,3,-0.5600000000000001,0.17,-0.32,3.28,10.57,-11.2
9.850558042526245,2,3,3,3,-0.19,0.11,0.62,3.5,6.04,-11.87
9.860558032989502,2,3,3,3,0.22,-0.11,0.55,2.58,0.2,-12.05
9.870558023452759,2,3,3,3,1.48,-0.24,-0.26,1.56,-3.07,-11.6
9.880558013916016,2,3,3,3,2.08,0.1,-0.06,2.63,-2.95,-10.43
9.890558004379272,2,3,3,3,2.76,0.85,-0.08,4.83,-2.63,-8.890000000000001
9.900557994842529,2,3,3,3,3.51,1.8,0.46,4.96,-3.29,-6.91
9.910557985305786,2,3,3,3,3.14,1.86,0.73,2.78,-3.43,-4.3
9.920557975769043,2,3,3,3,2.64,1.67,0.44,-0.5,-3.6,-1.71
9.9305579662323,2,3,3,3,2.32,1.39,-0.2,-4.01,-4.24,0.34
9.940557956695557,2,3,3,3,1.69,0.62,-1.47,-6.04,-4.18,1.95
9.950557947158813,2,3,3,3,1.81,0.27,-2.23,-6.03,-3.58,3.22
9.96055793762207,2,3,3,3,1.98,-0.13,-3.15,-5.23,-2.31,4.28
9.970557928085327,2,3,3,3,1.19,-0.55,-2.97,-3.47,1.45,5.88
9.980557918548584,2,3,3,3,-1.48,-1.36,0.31,0.63,5.11,7.52
9.990557909011841,2,3,3,3,-1.32,-2.6,1.45,3.54,3.85,8.18
10.0005578994751,2,3,3,3,-1.7,-3.07,0.61,4.23,0.8,8.279999999999999
10.01055788993835,2,3,3,3,-2.6,-3.68,0.99,2.22,-3.28,8.31
10.02055788040161,2,3,3,3,-4.03,-5.98,7.29,3.05,-7.15,8.41
10.03055787086487,2,3,3,3,-5.33,-7.01,5.92,3.51,-7.8,7.8
10.04055786132812,2,3,3,3,-7.29,-7.81,3.97,-1.15,-7.24,7.87
10.05055785179138,2,3,3,3,-10.12,-8.68,4.23,-4.76,-3.24,10.18
10.06055784225464,2,3,3,3,-32.15,-11.9,6.16,-5.71,11.79,15.11
10.07055807113647,2,3,3,3,-39.11,-8.359999999999999,8.300000000000001,5.44,16.07,22.35
10.08055806159973,2,3,3,3,-39,0.92,-2.64,23.7,-9.380000000000001,22
10.09055805206299,2,3,3,3,-36.76,7,7.83,17.85,13.05,-0.31
10.10055804252625,2,3,3,3,-39.11,2.23,17.24,16.36,15.01,-5.89
10.1105580329895,2,3,3,3,-35.35,3.38,13.7,21.4,7.82,-5.09
10.12055802345276,2,3,3,3,-22.69,1.63,10.83,11.34,-12.42,-3.29
10.13055801391602,2,3,3,3,-15.31,2.08,10.46,-0.49,-20.88,4.76
10.14055800437927,2,3,3,3,-19.58,3.84,9.81,-0.8100000000000001,-5.08,9.720000000000001
10.15055799484253,2,3,3,3,-22.94,5.22,8.449999999999999,2.1,8.1,9.16
10.16055798530579,2,3,3,3,-25.83,4.94,6.07,0.42,8.91,6.11
10.17055797576904,2,3,3,3,-27.19,2.81,4.93,-1.44,4.89,1.06
10.1805579662323,2,3,3,3,-23.1,0.8,3.84,-2.35,-1.64,-4.93
10.19055795669556,2,3,3,3,-17.99,-0.28,3.43,-4.54,-6.76,-8.369999999999999
10.20055794715881,2,3,3,3,-13.85,0.12,3.93,-4.36,-5.94,-10.18
10.21055793762207,2,3,3,3,-8.77,-0.5600000000000001,4.85,-3.75,-1.67,-11.54
10.22055792808533,2,3,3,3,-7.96,-1.45,4.56,-3.17,2.51,-11.17
10.23055791854858,2,3,3,3,-7.72,-1.85,4.11,-2.57,4.72,-9.859999999999999
10.24055790901184,2,3,3,3,-7.73,-2.19,3.17,-2.36,5.08,-7.08
10.2505578994751,2,3,3,3,-7.93,-2.62,1.74,-2.76,3.92,-4.21
10.26055788993835,2,3,3,3,-7.04,-2.5,1.05,-3.13,1.57,-2.71
10.27055788040161,2,3,3,3,-5.38,-2.12,0.44,-2.98,-0.03,-2.26
10.28055787086487,2,3,3,3,-2.44,-0.3,0.3,-2.19,0.83,-2.54
10.29055786132812,2,3,3,3,-1.92,0.17,0.67,-1.84,3.6,-3.31
10.30055785179138,2,3,3,3,-1.84,0.12,0.93,-2.28,5.25,-4.16
10.31055784225464,2,3,3,3,-1.85,-0.37,0.91,-3.41,4.64,-4.67
10.32055807113647,2,3,3,3,-2.22,-1.5,0.82,-4.75,3.33,-4.87
10.33055806159973,2,3,3,3,-2.26,-1.82,0.6,-5.37,1.79,-4.95
10.34055805206299,2,3,3,3,-2.18,-2.11,0.31,-5.73,0.02,-5.08
10.35055804252625,2,3,3,3,-2.2,-2.5,0.35,-5.93,-0.85,-5.13
10.3605580329895,2,3,3,3,-2.19,-3.38,0.17,-5.2,-1.44,-5.26
10.37055802345276,2,3,3,3,-2,-3.47,-0.16,-4.15,-2.19,-5.07
10.38055801391602,2,3,3,3,-2.02,-3.4,-0.3,-2.48,-1.98,-4.43
10.39055800437927,2,3,3,3,-2.55,-3.36,-0.02,-0.3,-0.99,-3.4
10.40055799484253,2,3,3,3,-4.69,-3.73,1.63,2.08,-1.14,-1.69
10.41155791282654,2,3,3,3,-6.65,-4.17,3.38,4.63,-2.53,0.65
10.42155790328979,2,3,3,3,-9.31,-4.9,5.15,7.49,-3.94,3.56
10.43155789375305,2,3,3,3,-12.74,-5.72,5.77,8.6,-4.37,6.53
10.44155788421631,2,3,3,3,-19.4,-4.72,3.81,9.449999999999999,-5.12,9.68
10.45155787467957,2,3,3,3,-18.13,-2.68,0.64,11.28,-6.18,12.6
10.46155786514282,2,3,3,3,-15.42,-1.12,-0.6,12.42,0.42,11.29
10.47155785560608,2,3,3,3,-12.65,5.95,4.6,13.46,6.66,3.4
10.48155784606934,2,3,3,3,-12.52,7.47,6.22,12.25,1.42,-3.7
10.49155807495117,2,3,3,3,-12.62,6.13,5.81,5.03,-5.48,-5.33
10.50155806541443,2,3,3,3,-12.06,3.81,4.51,-3.5,-4.51,-3.72
10.51155805587769,2,3,3,3,-10.51,0.24,3.32,-8.82,-0.42,-1.64
10.52155804634094,2,3,3,3,-9.24,-1.17,3,-12,0.78,-0.21
10.5315580368042,2,3,3,3,-8.140000000000001,-1.93,2.56,-13.4,0.77,0.03
10.54155802726746,2,3,3,3,-7.16,-2.32,1.63,-13.14,2.09,-0.89
10.55155801773071,2,3,3,3,-6.01,-2.09,1.05,-11.97,3.71,-1.68
10.56155800819397,2,3,3,3,-6.39,-1.74,1.17,-9.81,3.34,-2.32
10.57155799865723,2,3,3,3,-7.06,-1.75,1.36,-7.53,1.85,-2.12
10.58155798912048,2,3,3,3,-7.61,-1.75,1.44,-5.3,-0.4,-1.33
10.59155797958374,2,3,3,3,-7.88,-2.21,1.69,-3.54,-2.52,-0.35
10.601557970047,2,3,3,3,-7.71,-2.44,1.93,-2.2,-3.83,0.82
10.61155796051025,2,3,3,3,-7.39,-2.65,2.16,-1.64,-4.41,2.29
10.62155795097351,2,3,3,3,-7.18,-2.8,2.42,-1.36,-3.89,3.93
10.63155794143677,2,3,3,3,-7.87,-3.11,2.31,-0.88,-2.48,5.3
10.64155793190002,2,3,3,3,-9.1,-3.14,2,-0.16,-0.71,5.95
10.65155792236328,2,3,3,3,-10.69,-3,1.77,1.2,0.78,5.74
10.66155791282654,2,3,3,3,-13.17,-1.86,1.58,3.18,1.46,4.72
10.67155790328979,2,3,3,3,-13.38,-1.07,1.64,4.83,1.33,3.12
10.68155789375305,2,3,3,3,-12.73,-0.31,1.88,5.5,0.67,1.46
10.69155788421631,2,3,3,3,-11.66,0.17,2.31,5.07,0.15,0.15
10.70155787467957,2,3,3,3,-9.800000000000001,-0.03,3.03,3.77,0.26,-0.74
10.71155786514282,2,3,3,3,-9.34,-0.22,3.08,1.75,0.96,-1.03
10.72155785560608,2,3,3,3,-9.119999999999999,-0.46,2.89,-0.01,1.46,-0.93
10.73155784606934,2,3,3,3,-9.039999999999999,-0.68,2.64,-1.49,1.76,-0.66
10.74155807495117,2,3,3,3,-8.949999999999999,-1.04,2.41,-2.26,1.74,-0.34
10.75155806541443,2,3,3,3,-8.800000000000001,-1.26,2.17,-2.58,1.64,-0.06
10.76155805587769,2,3,3,3,-8.67,-1.45,2.14,-2.48,1.37,-0.01
10.77155804634094,2,3,3,3,-8.609999999999999,-1.63,2.15,-1.9,1.19,-0.13
10.7815580368042,2,3,3,3,-8.69,-1.9,2.07,-1.23,1.02,-0.18
10.79155802726746,2,3,3,3,-8.869999999999999,-2,1.9,-0.72,0.84,-0.08
10.80155801773071,2,3,3,3,-9.039999999999999,-2.16,1.93,-0.36,0.51,0.06
10.81155800819397,2,3,3,3,-9.19,-2.3,1.93,0.09,-0.03,0.07000000000000001
10.82155799865723,2,3,3,3,-9.27,-2.32,2.03,0.53,-0.61,-0.01
10.83155798912048,2,3,3,3,-9.23,-2.16,2.18,0.97,-0.79,-0.11
10.84155797958374,2,3,3,3,-9.15,-1.98,2.07,1.39,-0.73,-0.18
10.851557970047,2,3,3,3,-9.449999999999999,-1.36,2.36,1.64,-0.35,-0.22
10.86155796051025,2,3,3,3,-9.75,-1.09,2.67,1.91,0.17,-0.12
10.87155795097351,2,3,3,3,-9.98,-0.96,2.82,1.94,0.36,-0.01
10.88155794143677,2,3,3,3,-10.05,-0.87,2.87,1.51,0.52,0.14
10.89155793190002,2,3,3,3,-10.1,-0.91,2.82,0.99,0.8,0.32
10.90155792236328,2,3,3,3,-9.98,-0.88,2.77,0.53,0.93,0.45
10.91155791282654,2,3,3,3,-9.77,-1,2.73,-0.05,0.74,0.39
10.92155790328979,2,3,3,3,-9.619999999999999,-1.21,2.69,-0.65,0.54,0.3
10.93155789375305,2,3,3,3,-9.24,-1.55,2.49,-0.91,0.24,0.17
10.94155788421631,2,3,3,3,-9.17,-1.74,2.49,-1.05,0.23,0.08
10.95155787467957,2,3,3,3,-9.08,-1.82,2.44,-1,0.14,0.09
10.96155786514282,2,3,3,3,-9.01,-1.95,2.32,-0.85,0.03,0.07000000000000001
10.97155785560608,2,3,3,3,-9.119999999999999,-1.9,2.39,-0.59,0.08,0.03
10.98155784606934,2,3,3,3,-9.24,-1.82,2.36,-0.16,0.16,-0.04
10.99155807495117,2,3,3,3,-9.31,-1.67,2.26,0.11,0.23,-0.12
11.00155806541443,2,3,3,3,-9.300000000000001,-1.54,2.25,0.28,0.31,-0.24
11.01155805587769,2,3,3,3,-9.25,-1.47,2.3,0.36,0.42,-0.28
11.02155804634094,2,3,3,3,-9.300000000000001,-1.55,2.41,0.45,0.46,-0.39
11.0315580368042,2,3,3,3,-9.359999999999999,-1.65,2.47,0.5600000000000001,0.39,-0.47
11.04155802726746,2,3,3,3,-9.6,-1.63,2.12,0.8,0.31,-0.49
11.05155801773071,2,3,3,3,-9.58,-1.61,2.18,1.02,0.12,-0.49
11.06155800819397,2,3,3,3,-9.58,-1.53,2.39,1,-0.08,-0.46
11.07155799865723,2,3,3,3,-9.470000000000001,-1.47,2.29,1.08,-0.28,-0.44
11.08155798912048,2,3,3,3,-9.210000000000001,-1.46,2.33,1.07,-0.17,-0.32
11.09155797958374,2,3,3,3,-9.210000000000001,-1.38,2.21,1.26,0.15,-0.16
11.101557970047,2,3,3,3,-9.27,-1.26,2.33,1.54,0.23,0.04
11.11155796051025,2,3,3,3,-9.4,-1.24,2.49,1.69,0.02,0.21
11.12155795097351,2,3,3,3,-9.33,-1.22,2.5,1.62,-0.28,0.42
11.13155794143677,2,3,3,3,-9.32,-1.2,2.44,1.28,-0.23,0.61
11.14155793190002,2,3,3,3,-9.33,-1.21,2.3,0.97,0.05,0.7
11.15155792236328,2,3,3,3,-9.390000000000001,-1.26,2.34,0.7,0.32,0.65
11.16155791282654,2,3,3,3,-9.640000000000001,-1.22,2.34,0.51,0.5,0.46
11.17155790328979,2,3,3,3,-9.76,-1.19,2.42,0.54,0.45,0.17
11.18155789375305,2,3,3,3,-9.81,-1.18,2.42,0.66,0.15,-0.08
11.19155788421631,2,3,3,3,-9.76,-1.19,2.29,0.57,-0.27,-0.2
11.20155787467957,2,3,3,3,-9.369999999999999,-1.25,2.41,0.31,-0.44,-0.23
11.21155786514282,2,3,3,3,-9.26,-1.25,2.49,0.14,-0.24,-0.15
11.22155785560608,2,3,3,3,-9.220000000000001,-1.29,2.54,-0.09,0.02,-0.12
11.23155784606934,2,3,3,3,-9.300000000000001,-1.33,2.47,-0.22,0.18,-0.05
11.24155807495117,2,3,3,3,-9.42,-1.31,2.38,-0.38,0.15,0
11.25155806541443,2,3,3,3,-9.550000000000001,-1.25,2.42,-0.37,-0.01,0.07000000000000001
11.26155805587769,2,3,3,3,-9.6,-1.22,2.43,-0.34,-0.28,0.16
11.27155804634094,2,3,3,3,-9.31,-1.13,2.39,-0.46,-0.34,0.27
11.2815580368042,2,3,3,3,-9.140000000000001,-1.15,2.41,-0.5,-0.03,0.37
11.29155802726746,2,3,3,3,-9.1,-1.21,2.44,-0.57,0.36,0.39
11.30155801773071,2,3,3,3,-9.18,-1.31,2.52,-0.6899999999999999,0.57,0.36
11.31155800819397,2,3,3,3,-9.48,-1.36,2.46,-0.71,0.62,0.3
11.32155799865723,2,3,3,3,-9.539999999999999,-1.4,2.39,-0.67,0.45,0.22
11.33155798912048,2,3,3,3,-9.539999999999999,-1.44,2.39,-0.65,0.28,0.24
11.34155797958374,2,3,3,3,-9.550000000000001,-1.45,2.25,-0.61,0.2,0.28
11.351557970047,2,3,3,3,-9.550000000000001,-1.44,2.33,-0.6,0.11,0.33
11.36155796051025,2,3,3,3,-9.529999999999999,-1.41,2.34,-0.47,0.03,0.3
11.37155795097351,2,3,3,3,-9.49,-1.39,2.31,-0.39,-0.03,0.28
11.38155794143677,2,3,3,3,-9.460000000000001,-1.43,2.39,-0.3,-0.01,0.21
11.39155793190002,2,3,3,3,-9.43,-1.48,2.32,-0.15,0.04,0.16
11.40155792236328,2,3,3,3,-9.41,-1.51,2.34,-0.08,-0.02,0.18
11.41155791282654,2,3,3,3,-9.44,-1.49,2.31,-0.15,0,0.14
11.42155790328979,2,3,3,3,-9.4,-1.38,2.38,-0.16,0.08,0.13
11.43155789375305,2,3,3,3,-9.33,-1.41,2.38,-0.05,0.14,0.16
11.44255805015564,2,3,3,3,-9.279999999999999,-1.41,2.26,0,0.15,0.16
11.4525580406189,2,3,3,3,-9.289999999999999,-1.4,2.29,0.01,0.17,0.13
11.46255803108215,2,3,3,3,-9.4,-1.44,2.39,0.01,0.19,0.11
11.47255802154541,2,3,3,3,-9.449999999999999,-1.48,2.47,0.02,0.19,0.15
11.48255801200867,2,3,3,3,-9.52,-1.48,2.44,0.06,0.1,0.19
11.49255800247192,2,3,3,3,-9.58,-1.45,2.3,0.03,0.04,0.24
11.50255799293518,2,3,3,3,-9.550000000000001,-1.3,2.23,0.04,-0.04,0.18
11.51255798339844,2,3,3,3,-9.460000000000001,-1.24,2.3,0.18,-0.04,0.15
11.52255797386169,2,3,3,3,-9.390000000000001,-1.23,2.46,0.35,0.08,0.12
11.53255796432495,2,3,3,3,-9.33,-1.24,2.5,0.36,0.09,0.1
11.54255795478821,2,3,3,3,-9.369999999999999,-1.26,2.36,0.33,0.09,0.06
11.55255794525146,2,3,3,3,-9.43,-1.24,2.39,0.2,0.22,0.04
11.56255793571472,2,3,3,3,-9.48,-1.25,2.33,0.03,0.3,0.04
11.57255792617798,2,3,3,3,-9.470000000000001,-1.18,2.34,0,0.22,0
11.58255791664124,2,3,3,3,-9.44,-1.15,2.38,0.04,0.3,0.04
11.59255790710449,2,3,3,3,-9.42,-1.15,2.3,0.14,0.35,0.05
11.60255789756775,2,3,3,3,-9.359999999999999,-1.2,2.33,0.11,0.26,0.05
11.61255788803101,2,3,3,3,-9.380000000000001,-1.27,2.37,-0.05,0.26,0.04
11.62255787849426,2,3,3,3,-9.380000000000001,-1.27,2.37,-0.09,0.33,0.02
11.63255786895752,2,3,3,3,-9.390000000000001,-1.24,2.38,-0.15,0.27,0.06
11.64255785942078,2,3,3,3,-9.529999999999999,-1.25,2.19,-0.23,0.33,0.07000000000000001
11.65255784988403,2,3,3,3,-9.529999999999999,-1.22,2.19,-0.24,0.33,0.08
11.66255784034729,2,3,3,3,-9.460000000000001,-1.2,2.24,-0.21,0.26,0.03
11.67255806922913,2,3,3,3,-9.460000000000001,-1.2,2.24,-0.11,0.25,0.03
11.68255805969238,2,3,3,3,-9.42,-1.22,2.31,-0.04,0.28,-0.02
11.69255805015564,2,3,3,3,-9.44,-1.23,2.16,-0.02,0.31,-0.08
11.7025580406189,2,3,3,3,-9.460000000000001,-1.21,2.24,0.04,0.33,-0.1
11.71255803108215,2,3,3,3,-9.460000000000001,-1.21,2.38,0.13,0.32,-0.09
11.72255802154541,2,3,3,3,-9.460000000000001,-1.21,2.38,0.11,0.25,-0.03
11.73255801200867,2,3,3,3,-9.449999999999999,-1.22,2.41,0.07000000000000001,0.25,0.01
11.74255800247192,2,3,3,3,-9.449999999999999,-1.14,2.23,0.02,0.24,0.06
11.76255798339844,2,3,3,3,-9.42,-1.2,2.36,0.02,0.2,0.18
11.77255797386169,2,3,3,3,-9.44,-1.19,2.32,-0.04,0.12,0.17
11.78255796432495,2,3,3,3,-9.51,-1.21,2.32,-0.03,0.15,0.18
11.79255795478821,2,3,3,3,-9.52,-1.2,2.21,-0.01,0.17,0.16
11.80255794525146,2,3,3,3,-9.470000000000001,-1.19,2.27,-0.07000000000000001,0.15,0.15
11.81255793571472,2,3,3,3,-9.51,-1.17,2.32,-0.15,0.2,0.2
11.82255792617798,2,3,3,3,-9.539999999999999,-1.14,2.38,-0.12,0.19,0.2
11.85255789756775,2,3,3,3,-9.4,-1.2,2.27,-0.13,-0.09,0.17
11.86255788803101,2,3,3,3,-9.44,-1.22,2.34,-0.21,0.01,0.14
11.87255787849426,2,3,3,3,-9.44,-1.22,2.34,-0.21,0.01,0.14
11.88255786895752,2,3,3,3,-9.52,-1.23,2.41,-0.25,0.06,0.13
11.89255785942078,2,3,3,3,-9.5,-1.18,2.18,-0.06,-0.27,0.1
11.90255784988403,2,3,3,3,-9.43,-1.22,2.26,0.08,-0.35,0.14
11.91255784034729,2,3,3,3,-9.4,-1.22,2.36,0.11,-0.44,0.15
11.92255806922913,2,3,3,3,-9.4,-1.22,2.36,0.11,-0.44,0.15
11.93255805969238,2,3,3,3,-9.44,-1.22,2.35,0.17,-0.44,0.18
11.94255805015564,2,3,3,3,-9.42,-1.2,2.08,-0.2,-0.57,0.14
11.9525580406189,2,3,3,3,-9.529999999999999,-1.21,2.38,-0.26,-0.43,0.19
11.96255803108215,2,3,3,3,-9.57,-1.17,2.44,-0.05,-0.31,0.17
11.97255802154541,2,3,3,3,-9.57,-1.17,2.44,-0.05,-0.31,0.17
11.98255801200867,2,3,3,3,-9.470000000000001,-1.13,2.37,0.1,-0.62,0.17
11.99255800247192,2,3,3,3,-9.34,-1.21,2.22,-0.23,-0.64,0.17
12.00255799293518,2,3,3,3,-9.390000000000001,-1.25,2.26,-0.35,-0.5,0.19
12.01255798339844,2,3,3,3,-9.5,-1.24,2.28,-0.43,-0.29,0.16
12.02255797386169,2,3,3,3,-9.5,-1.24,2.28,-0.43,-0.29,0.16
12.03255796432495,2,3,3,3,-9.609999999999999,-1.2,2.42,-0.33,-0.14,0.09
12.04255795478821,2,3,3,3,-9.5,-1.22,2.16,-0.46,-0.4,0.03
12.05255794525146,2,3,3,3,-9.42,-1.22,2.17,-0.48,-0.43,0.01
12.06255793571472,2,3,3,3,-9.460000000000001,-1.27,2.23,-0.54,-0.32,-0.02
12.07255792617798,2,3,3,3,-9.460000000000001,-1.27,2.23,-0.54,-0.32,-0.02
12.08255791664124,2,3,3,3,-9.49,-1.32,2.27,-0.55,-0.15,-0.07000000000000001
12.09255790710449,2,3,3,3,-9.460000000000001,-1.32,2.2,-0.46,0.02,-0.14
12.10255789756775,2,3,3,3,-9.4,-1.31,2.18,-0.47,0.05,-0.17
12.11255788803101,2,3,3,3,-9.390000000000001,-1.31,2.28,-0.44,0.15,-0.18
12.12255787849426,2,3,3,3,-9.390000000000001,-1.31,2.28,-0.44,0.15,-0.18
12.13255786895752,2,3,3,3,-9.43,-1.29,2.3,-0.33,0.27,-0.22
12.14255785942078,2,3,3,3,-9.460000000000001,-1.23,2.27,-0.15,0.2,-0.19
12.15255784988403,2,3,3,3,-9.44,-1.19,2.38,0.02,0.23,-0.14
12.16255784034729,2,3,3,3,-9.43,-1.2,2.36,0.05,0.19,-0.1
12.17255806922913,2,3,3,3,-9.43,-1.2,2.36,0.05,0.19,-0.1
12.18255805969238,2,3,3,3,-9.529999999999999,-1.1,2.23,-0.07000000000000001,0.17,-0.16
12.19255805015564,2,3,3,3,-9.51,-1.08,2.22,-0.03,0.25,-0.15
12.2025580406189,2,3,3,3,-9.51,-1.08,2.22,-0.01,0.18,-0.17
12.21255803108215,2,3,3,3,-9.460000000000001,-1.09,2.29,-0.13,0.31,-0.26
12.22255802154541,2,3,3,3,-9.449999999999999,-1.1,2.3,-0.13,0.31,-0.26
12.23255801200867,2,3,3,3,-9.49,-1.14,2.3,-0.1,0.48,-0.31
12.24255800247192,2,3,3,3,-9.529999999999999,-1.17,2.31,-0.1,0.49,-0.36
12.25255799293518,2,3,3,3,-9.550000000000001,-1.19,2.23,-0.14,0.34,-0.28
12.26255798339844,2,3,3,3,-9.49,-1.17,2.23,-0.14,0.23,-0.29
12.27255797386169,2,3,3,3,-9.41,-1.09,2.28,-0.14,0.23,-0.29
12.28255796432495,2,3,3,3,-9.390000000000001,-1.11,2.37,-0.09,0.32,-0.29
12.29255795478821,2,3,3,3,-9.34,-1.11,2.41,-0.2,0.4,-0.29
12.30255794525146,2,3,3,3,-9.369999999999999,-1.18,2.27,-0.21,0.4,-0.28
12.31255793571472,2,3,3,3,-9.5,-1.17,2.37,-0.19,0.23,-0.27
12.32255792617798,2,3,3,3,-9.41,-1.23,2.27,-0.19,0.23,-0.27
12.33255791664124,2,3,3,3,-9.41,-1.25,2.22,-0.35,0.12,-0.24
12.34255790710449,2,3,3,3,-9.42,-1.29,2.24,-0.38,0.06,-0.14
12.35255789756775,2,3,3,3,-9.460000000000001,-1.27,2.15,-0.37,0.08,-0.05
12.36255788803101,2,3,3,3,-9.460000000000001,-1.32,2.12,-0.47,0.04,-0.03
12.37255787849426,2,3,3,3,-9.49,-1.32,2.17,-0.47,0.04,-0.03
12.38255786895752,2,3,3,3,-9.48,-1.38,2.24,-0.4,0,-0.03
12.39255785942078,2,3,3,3,-9.48,-1.4,2.16,-0.5,0.06,0.02
12.40255784988403,2,3,3,3,-9.51,-1.38,2.03,-0.49,0.18,0.04
12.41255784034729,2,3,3,3,-9.529999999999999,-1.41,2.06,-0.38,0.23,0.07000000000000001
12.42255806922913,2,3,3,3,-9.49,-1.39,2.19,-0.38,0.23,0.07000000000000001
12.43255805969238,2,3,3,3,-9.43,-1.41,2.23,-0.27,0.22,0.04
12.44255805015564,2,3,3,3,-9.43,-1.39,2.27,0,0.04,-0.06
12.4525580406189,2,3,3,3,-9.41,-1.38,2.16,0.02,0,-0.08
12.46355795860291,2,3,3,3,-9.49,-1.35,2.26,0.07000000000000001,-0.04,-0.06
12.47355794906616,2,3,3,3,-9.550000000000001,-1.33,2.27,0.07000000000000001,-0.04,-0.06
12.48355793952942,2,3,3,3,-9.57,-1.29,2.3,-0.01,-0.03,-0.07000000000000001
12.49355792999268,2,3,3,3,-9.58,-1.28,2.35,-0.11,-0.11,-0.08
12.50355792045593,2,3,3,3,-9.539999999999999,-1.26,2.14,-0.31,-0.13,-0.13
12.51355791091919,2,3,3,3,-9.470000000000001,-1.3,2.2,-0.39,-0.09,-0.25
12.52355790138245,2,3,3,3,-9.44,-1.35,2.25,-0.39,-0.09,-0.25
12.5335578918457,2,3,3,3,-9.380000000000001,-1.52,2.47,-0.27,-0.13,-0.39
12.54355788230896,2,3,3,3,-9.33,-1.6,2.56,0.16,-0.79,-0.74
12.55355787277222,2,3,3,3,-9.210000000000001,-1.69,2.38,0.05,-0.92,-0.85
12.56355786323547,2,3,3,3,-9.08,-1.81,2.22,-0.06,-0.61,-0.86
12.57355785369873,2,3,3,3,-9.210000000000001,-1.83,2.25,-0.06,-0.61,-0.86
12.58355784416199,2,3,3,3,-9.380000000000001,-1.79,2.36,0.11,-0.22,-0.78
12.59355807304382,2,3,3,3,-9.58,-1.68,2.47,0.8,-0.19,-0.41
12.60355806350708,2,3,3,3,-9.699999999999999,-1.54,2.46,1.33,-0.34,-0.22
12.61355805397034,2,3,3,3,-9.56,-1.22,2.66,1.78,-0.57,-0.13
12.62355804443359,2,3,3,3,-9.33,-1.09,2.72,1.78,-0.57,-0.13
12.63355803489685,2,3,3,3,-9.109999999999999,-1.07,2.81,1.96,-0.7,-0.12
12.64355802536011,2,3,3,3,-9.039999999999999,-1.08,2.9,1.7,-0.5,-0.24
12.65355801582336,2,3,3,3,-9.140000000000001,-0.98,2.82,1.16,-0.59,-0.2
12.66355800628662,2,3,3,3,-9.220000000000001,-0.96,2.95,0.6,-0.64,0.01
12.67355799674988,2,3,3,3,-9.25,-0.95,2.97,0.6,-0.64,0.01
12.68355798721313,2,3,3,3,-9.27,-0.97,2.97,-0.07000000000000001,-0.6899999999999999,0.2
12.69355797767639,2,3,3,3,-9.359999999999999,-1.12,2.93,-0.78,-0.5600000000000001,0.24
12.70355796813965,2,3,3,3,-9.369999999999999,-1.27,2.72,-0.95,-0.51,0.1
12.71355795860291,2,3,3,3,-9.34,-1.39,2.65,-0.95,-0.46,-0.2
12.72355794906616,2,3,3,3,-9.32,-1.56,2.63,-0.95,-0.46,-0.2
12.73355793952942,2,3,3,3,-9.27,-1.59,2.74,-0.6899999999999999,-0.47,-0.55
12.74355792999268,2,3,3,3,-9.24,-1.62,2.77,-0.03,-0.52,-0.9
12.75355792045593,2,3,3,3,-9.23,-1.65,2.83,0.35,-0.66,-0.84
12.76355791091919,2,3,3,3,-9.23,-1.6,3.04,0.7,-0.98,-0.72
12.77355790138245,2,3,3,3,-9.18,-1.58,3.14,0.7,-0.98,-0.72
12.7835578918457,2,3,3,3,-9.19,-1.61,3.36,1.16,-1.26,-0.6
12.79355788230896,2,3,3,3,-9.199999999999999,-1.51,3.49,1.93,-2.54,-0.6
12.80355787277222,2,3,3,3,-8.84,-1.39,3.07,1.75,-2.59,-0.58
12.81355786323547,2,3,3,3,-8.869999999999999,-1.32,3.24,2.11,-2.37,-0.49
12.82355785369873,2,3,3,3,-8.82,-1.16,3.24,2.11,-2.37,-0.49
12.83355784416199,2,3,3,3,-8.76,-1.1,3.17,1.9,-2.27,-0.36
12.84355807304382,2,3,3,3,-9.039999999999999,-1.03,3.77,1.61,-1.52,0.1
12.85355806350708,2,3,3,3,-9.17,-1.11,3.55,0.8,-1.63,0.32
12.86355805397034,2,3,3,3,-9.18,-1.11,3.15,0.39,-1.52,0.42
12.87355804443359,2,3,3,3,-9.35,-1.1,2.84,0.39,-1.52,0.42
12.88355803489685,2,3,3,3,-9.529999999999999,-1.08,3.11,0.63,-1.14,0.5
12.89355802536011,2,3,3,3,-9.56,-1.08,3.09,1.39,-1.08,0.02
12.90355801582336,2,3,3,3,-9.43,-1.06,2.77,1.57,-1,-0.3
12.91355800628662,2,3,3,3,-9.06,-1.21,3.14,1.76,-1.03,-0.55
12.92355799674988,2,3,3,3,-8.91,-1.44,2.99,1.76,-1.03,-0.55
12.93355798721313,2,3,3,3,-8.880000000000001,-1.59,2.72,1.36,-0.97,-0.63
12.94355797767639,2,3,3,3,-8.91,-1.62,2.61,1.16,-0.23,-0.54
12.95355796813965,2,3,3,3,-8.99,-1.5,2.44,1.34,0.2,-0.41
12.96355795860291,2,3,3,3,-9.01,-1.39,2.65,1.49,0.72,-0.4
12.97355794906616,2,3,3,3,-9.1,-1.32,2.8,1.49,0.72,-0.4
12.98355793952942,2,3,3,3,-9.17,-1.28,2.81,1.72,1.32,-0.5
12.99355792999268,2,3,3,3,-8.92,-1.18,2.59,2,1.66,-0.54
13.00355792045593,2,3,3,3,-8.84,-1.13,2.47,1.95,2.36,-0.37
13.01355791091919,2,3,3,3,-8.77,-1.06,2.27,2.04,2.94,-0.24
13.02355790138245,2,3,3,3,-8.789999999999999,-0.82,2.19,2.04,2.94,-0.24
13.0335578918457,2,3,3,3,-9.15,-0.36,2.4,2.2,3.4,-0.09
13.04355788230896,2,3,3,3,-9.4,-0.14,2.31,1.89,3.63,0.05
13.05355787277222,2,3,3,3,-9.619999999999999,0.17,2,1.09,3.79,0
13.06355786323547,2,3,3,3,-9.84,0.48,1.86,0.07000000000000001,3.69,-0.06
13.07355785369873,2,3,3,3,-10.15,0.72,1.93,0.07000000000000001,3.69,-0.06
13.08355784416199,2,3,3,3,-10.26,0.64,2,-0.93,3.36,-0.12
13.09355807304382,2,3,3,3,-10.26,0.47,1.97,-2.6,2.16,-0.5600000000000001
13.10355806350708,2,3,3,3,-9.92,0.06,1.64,-2.87,1.89,-0.85
13.11355805397034,2,3,3,3,-9.699999999999999,-0.13,1.63,-2.77,1.74,-1.09
13.12355804443359,2,3,3,3,-9.48,-0.38,1.85,-2.77,1.74,-1.09
13.13355803489685,2,3,3,3,-9.25,-0.51,2.1,-2.38,1.69,-1.25
13.14355802536011,2,3,3,3,-8.970000000000001,-0.57,2.26,-1.94,2.32,-1.15
13.15355801582336,2,3,3,3,-9.029999999999999,-0.47,2.09,-2.16,3.14,-0.88
13.16355800628662,2,3,3,3,-9.220000000000001,-0.35,2.04,-2.16,3.14,-0.88
13.17355799674988,2,3,3,3,-9.460000000000001,-0.24,2,-2.48,3.92,-0.67
13.18355798721313,2,3,3,3,-9.779999999999999,-0.24,1.78,-2.81,4.4,-0.54
13.19355797767639,2,3,3,3,-9.880000000000001,-0.39,1.67,-3.33,4.65,-0.53
13.20355796813965,2,3,3,3,-9.890000000000001,-0.4,1.43,-3.76,4.55,-0.55
13.21355795860291,2,3,3,3,-9.890000000000001,-0.78,1.35,-3.99,4.08,-0.83
13.22355794906616,2,3,3,3,-9.9,-1.16,1.31,-3.91,3.76,-1.01
13.23355793952942,2,3,3,3,-9.710000000000001,-1.31,1.22,-3.42,3.48,-0.9399999999999999
13.24355792999268,2,3,3,3,-9.550000000000001,-1.36,1.28,-2.67,3.14,-0.97
13.25355792045593,2,3,3,3,-9.369999999999999,-1.34,1.27,-1.79,2.96,-0.9399999999999999
13.26355791091919,2,3,3,3,-9.19,-1.12,1.39,-0.86,2.76,-0.72
13.27355790138245,2,3,3,3,-9.130000000000001,-1.05,1.53,-0.1,2.56,-0.47
13.2835578918457,2,3,3,3,-9.17,-0.99,1.64,0.39,2.2,-0.28
13.29355788230896,2,3,3,3,-9.18,-0.84,1.53,0.88,1.92,-0.15
13.30355787277222,2,3,3,3,-9.23,-0.76,1.53,1.3,1.9,-0.12
13.31355786323547,2,3,3,3,-9.220000000000001,-0.64,1.66,1.56,1.95,-0.25
13.32355785369873,2,3,3,3,-9.32,-0.58,1.62,1.48,1.98,-0.46
13.33355784416199,2,3,3,3,-9.73,-0.7,1.6,1.19,2.26,-0.67
13.34355807304382,2,3,3,3,-9.9,-0.79,1.4,1.08,2.51,-1.02
13.35355806350708,2,3,3,3,-10.08,-0.9,1.3,1.16,2.55,-1.43
13.36355805397034,2,3,3,3,-10.14,-0.99,1.28,1.4,2.39,-1.84
13.37355804443359,2,3,3,3,-10.21,-1.03,1.35,1.8,2.02,-2.28
13.38355803489685,2,3,3,3,-10.21,-1.01,1.38,2.39,1.54,-2.7
13.39355802536011,2,3,3,3,-10.18,-0.99,1.39,2.87,1.04,-2.94
13.40355801582336,2,3,3,3,-10.13,-0.98,1.33,3.35,0.53,-3.11
13.41355800628662,2,3,3,3,-9.84,-0.74,1.39,4.11,0.15,-3.17
13.42355799674988,2,3,3,3,-9.789999999999999,-0.57,1.53,4.72,-0.12,-3.25
13.43355798721313,2,3,3,3,-9.779999999999999,-0.45,1.51,5.37,-0.42,-3.23
13.44355797767639,2,3,3,3,-9.710000000000001,-0.24,1.56,5.88,-0.61,-3.1
13.45355796813965,2,3,3,3,-9.67,-0.16,1.58,6.39,-0.64,-3
13.46355795860291,2,3,3,3,-9.609999999999999,-0.09,1.47,6.89,-0.67,-2.89
13.47355794906616,2,3,3,3,-9.630000000000001,0.1,1.44,7.11,-0.47,-2.81
13.48455786705017,2,3,3,3,-9.92,0.5,1.4,7.08,-0.22,-2.75
13.49455785751343,2,3,3,3,-10.09,0.71,1.45,7.1,0.09,-2.63
13.50455784797668,2,3,3,3,-10.2,0.83,1.37,7.06,-0.07000000000000001,-2.55
13.51455783843994,2,3,3,3,-10.35,0.93,1.33,6.41,-0.53,-2.45
13.52455806732178,2,3,3,3,-10.65,1.21,1.2,5.61,-0.86,-2.36
13.53455805778503,2,3,3,3,-10.76,1.22,1.33,5.16,-1.09,-2.16
13.54455804824829,2,3,3,3,-10.78,1.13,1.52,5.2,-1.47,-2.06
13.55455803871155,2,3,3,3,-10.68,1.01,1.44,5.25,-2.06,-2.05
13.5645580291748,2,3,3,3,-10.41,0.47,1.69,4.85,-2.47,-2.22
13.57455801963806,2,3,3,3,-10.43,0.02,2.18,4.76,-2.5,-2.46
13.58455801010132,2,3,3,2,-10.61,-0.43,2.65,5.02,-2.34,-2.61
13.59455800056458,2,3,3,2,-10.72,-0.8100000000000001,2.72,5.31,-2.12,-2.63
13.60455799102783,2,3,3,2,-10.73,-1.35,2.43,4.98,-1.22,-2.4
13.61455798149109,2,3,3,2,-10.64,-1.62,2.19,4.56,0.35,-1.91
13.62455797195435,2,3,3,2,-10.65,-1.78,2.01,4,1.81,-1.57
13.6345579624176,2,3,3,2,-11.18,-1.65,1.35,3.53,3.31,-1.11
13.64455795288086,2,3,3,2,-11.8,-1.15,1.27,3.17,4.78,-0.47
13.65455794334412,2,3,3,2,-12.32,-0.97,1.03,2.6,5.48,0.33
13.66455793380737,2,3,3,2,-12.56,-1.01,0.73,1.45,4.75,0.89
13.67455792427063,2,3,3,2,-12.56,-1.21,1.13,0.23,3.31,1.13
13.68455791473389,2,3,3,2,-12.48,-1.56,1.47,-0.41,2.08,1.22
13.69455790519714,2,3,3,2,-12.3,-2.12,1.53,-0.76,1.25,1.14
13.7045578956604,2,3,3,2,-12.07,-2.77,1.45,-1.08,0.92,1
13.71455788612366,2,3,3,2,-11.68,-3.68,1.66,-0.52,0.76,0.91
13.72455787658691,2,3,3,2,-11.16,-3.88,1.54,0.28,-0.06,0.71
13.73455786705017,2,3,3,2,-10.47,-3.94,1.57,0.8,-1.22,0.5600000000000001
13.74455785751343,2,3,3,2,-9.720000000000001,-3.8,1.94,1.75,-1.51,0.75
13.75455784797668,2,3,3,2,-8.359999999999999,-3.56,2.56,3.14,-1.29,1.39
13.76455783843994,2,3,3,2,-7.82,-3.26,2.27,3.93,-1.05,2.02
13.77455806732178,2,3,3,2,-7.41,-2.96,1.77,3.3,-0.27,2.44
13.78455805778503,2,3,3,2,-7.25,-2.61,1.43,2.15,1.14,2.84
13.79455804824829,2,3,3,2,-6.95,-2,1.52,1.46,2.48,3.15
13.80455803871155,2,3,3,2,-6.71,-1.9,1.55,0.26,2.83,3.4
13.8145580291748,2,3,3,2,-6.5,-2.04,1.49,-1.63,2.56,3.42
13.82455801963806,2,3,3,2,-6.65,-2.64,1.33,-3.62,2.42,3.43
13.83455801010132,2,3,3,2,-7.04,-2.93,1.38,-4.78,2.77,3.42
13.84455800056458,2,3,3,2,-7.65,-3.27,1.75,-4.58,2.98,3.55
13.85455799102783,2,3,3,2,-8.32,-3.61,1.94,-3.1,2.36,4.05
13.86455798149109,2,3,3,2,-8.779999999999999,-3.38,1.97,-1.25,0.28,4.8
13.87455797195435,2,3,3,2,-8.92,-2.94,2.15,0.36,-2.04,5.45
13.8845579624176,2,3,3,2,-9.19,-2.49,2.39,1.57,-3.9,6.03
13.89455795288086,2,3,3,2,-9.51,-2.04,2.53,2.41,-5.17,6.65
13.9545578956604,2,3,3,2,-9.460000000000001,0.46,2.77,-4.07,-5.78,4.35
13.96455788612366,2,3,3,2,-9.52,0.09,3,-5.56,-6.05,3.84
13.97455787658691,2,3,3,2,-9.550000000000001,-0.25,3.03,-6.53,-6.4,3.45
13.98455786705017,2,3,3,2,-9.18,-0.89,2.74,-7.31,-6.92,3.03
13.99455785751343,2,3,3,2,-9.06,-1.17,2.67,-7.71,-7.14,2.91
14.00455784797668,2,3,3,2,-8.99,-1.3,2.34,-7.89,-7.07,3
14.01455783843994,2,3,3,2,-8.69,-1.48,2.17,-8.220000000000001,-6.9,3.08
14.02455806732178,2,3,3,2,-8.69,-1.4,2.45,-8.06,-6.31,3.05
14.03455805778503,2,3,3,1,-8.76,-1.28,2.7,-6.92,-5.6,3.03
14.04455804824829,2,3,3,1,-8.85,-1.07,2.92,-5.74,-5.29,2.96
14.05455803871155,2,3,3,1,-8.84,-0.77,2.9,-4.8,-5.36,2.77
14.0645580291748,2,3,3,1,-8.869999999999999,-0.61,2.98,-4.14,-5.58,2.5
14.07455801963806,2,3,3,1,-8.99,-0.42,2.99,-3.83,-5.65,2.31
14.08455801010132,2,3,3,1,-9.02,-0.22,3.02,-3.96,-5.56,2.2
14.09455800056458,2,3,3,1,-8.68,0.12,2.8,-4.39,-5.66,2.13
14.10455799102783,2,3,3,1,-8.31,0.18,2.72,-5.08,-5.42,1.93
14.11455798149109,2,3,3,1,-8.109999999999999,0.15,2.82,-5.7,-4.66,1.66
14.12455797195435,2,3,3,1,-7.92,0.06,2.8,-5.99,-3.6,1.33
14.1345579624176,2,3,3,1,-7.86,-0.12,2.86,-6.05,-2.58,1.06
14.14455795288086,2,3,3,1,-7.85,-0.15,2.89,-5.76,-1.86,1.1
14.15455794334412,2,3,3,1,-7.84,-0.1,2.93,-5.41,-1.32,1.3
14.16455793380737,2,3,3,1,-7.85,0,3.08,-4.94,-1.02,1.59
14.17455792427063,2,3,3,1,-7.79,0.27,3.39,-4.24,-0.91,1.85
14.18455791473389,2,3,3,1,-7.9,0.43,3.49,-3.54,-0.64,2.02
14.19455790519714,2,3,3,1,-8.02,0.61,3.55,-2.99,-0.24,2.22
14.2045578956604,2,3,3,1,-8.289999999999999,0.8,3.51,-2.72,0.25,2.28
14.21455788612366,2,3,3,1,-8.27,0.8100000000000001,3.51,-2.83,0.36,2.12
14.22455787658691,2,3,3,1,-8.26,0.6899999999999999,3.69,-3.29,0.21,1.92
14.23455786705017,2,3,3,0,-8.31,0.51,3.68,-3.68,0.41,1.84
14.24455785751343,2,3,3,0,-8.470000000000001,-0.02,3.28,-4.07,0.6899999999999999,1.85
14.25455784797668,2,3,3,0,-8.81,-0.27,3.11,-5.37,1.24,1.59
14.26455783843994,2,3,3,0,-9.25,-0.47,3.17,-6.93,1.88,1.06
14.27455806732178,2,3,3,0,-9.67,-0.74,3.12,-8.25,2.17,0.41
14.28455805778503,2,3,3,0,-10.19,-1.16,2.28,-9.539999999999999,1.99,-0.31
14.29455804824829,2,3,3,0,-10.51,-1.27,2.27,-10.7,2.09,-0.9
14.30455803871155,2,3,3,0,-11.02,-1.31,2.6,-10.58,2.4,-1.15
14.3145580291748,2,3,3,0,-11.26,-1.13,2.78,-8.210000000000001,1.41,-1.09
14.32455801963806,2,3,3,0,-11.17,-0.18,3.91,-4.51,-0.77,-0.76
14.33455801010132,2,3,3,0,-10.89,0.61,4.73,-0.26,-2.89,-0.02
14.34455800056458,2,3,3,0,-10.25,1.42,4.98,2.92,-4.56,1.03
14.35455799102783,2,3,3,0,-8.76,2.89,5.49,3.82,-5.14,2.19
14.36455798149109,2,3,3,0,-8.609999999999999,3.19,6.11,3.5,-4.36,3.51
14.37455797195435,2,3,3,0,-8.9,3.18,6.47,2.03,-3.18,5.21
14.3845579624176,2,3,3,0,-9.42,2.71,6.62,-1.64,-2.87,6.74
14.39455795288086,2,3,3,0,-11.31,1.5,4.87,-6.68,-3.17,7.24
14.40455794334412,2,3,3,0,-12.47,0.93,4.53,-11.03,-2.83,6.8
14.41455793380737,2,3,3,0,-14.09,0.02,5.19,-13.54,-0.6,5.84
14.42455792427063,2,3,3,0,-15.52,-1.69,5.07,-14.11,0.72,4.77
14.43455791473389,2,3,3,0,-17.5,-5.37,1.69,-15.54,-0.41,2.73
14.44455790519714,2,3,3,0,-18.42,-5.74,0.8100000000000001,-15.4,-1.03,-0.06
14.4545578956604,2,3,3,0,-17.2,-4.57,0.74,-10.23,-1.81,-2.79
14.46455788612366,2,3,3,0,-13.4,-3.23,1.63,-2.15,-5.53,-4.97
14.47455787658691,2,3,3,0,-4.99,-2.31,4.18,4.01,-11.56,-5.82
14.48455786705017,2,3,3,0,-2.51,-2.27,5.15,7.61,-15,-5.35
14.49455785751343,2,3,3,0,-1.11,-2.13,5.47,9.69,-13.44,-3.54
14.50455784797668,2,3,3,0,-0.88,-1.62,5.28,10.09,-8.31,-0.77
14.51555800437927,2,3,3,0,-3.54,-0.29,4.41,8.76,-2.24,2.19
14.52555799484253,2,3,3,0,-5.42,0.02,3.48,5.19,2.36,4.76
14.53555798530579,2,3,3,0,-7.23,0.24,2.54,0.87,5.13,5.97
14.54555797576904,2,3,3,0,-9.17,0.47,1.61,-1.88,7.64,5.69
14.5555579662323,2,3,3,0,-13.13,-0.11,-0.05,-2.93,9.98,4.15
14.56555795669556,2,3,3,0,-14.41,-1.02,-0.52,-3.48,10.52,1.91
14.57555794715881,2,3,3,0,-14.7,-1.98,-0.61,-3.86,8.470000000000001,-0.57
14.58555793762207,2,3,3,0,-12.27,-3.26,0.12,-4.28,4.43,-2.91
14.59555792808533,2,3,3,0,-10.11,-3.45,0.87,-4.16,-1.06,-4.72
14.60555791854858,2,3,3,0,-8.08,-3.41,1.5,-3.8,-6.29,-5.43
14.61555790901184,2,3,3,0,-6.52,-3.3,2.16,-3.41,-8.49,-5.17
14.6255578994751,2,3,3,0,-5.04,-2.89,2.9,-3.12,-7.34,-4.08
14.63555788993835,2,3,3,0,-4.9,-2.66,2.95,-2.95,-4.4,-2.24
14.64555788040161,2,3,3,0,-5.04,-2.35,2.82,-2.62,-1.26,-0.44
14.65555787086487,2,3,3,0,-5.42,-2.21,2.49,-2.44,1.57,0.95
14.66555786132812,2,3,3,0,-6.83,-2.42,2,-2.32,3.88,1.85
14.67555785179138,2,3,3,0,-7.62,-2.62,1.81,-1.77,5.52,2.49
14.68555784225464,2,3,3,0,-8.41,-2.86,1.69,-0.9,6,2.56
14.69555807113647,2,3,3,0,-9.02,-3.09,1.49,0.34,5.86,2.16
14.70555806159973,2,3,3,0,-9.720000000000001,-2.94,1.23,1.94,5.66,1.25
14.71555805206299,2,3,3,0,-9.69,-2.74,1.27,3.68,5.67,0.03
14.72555804252625,2,3,3,0,-9.56,-2.47,1.32,5.31,5.71,-1.22
14.7355580329895,2,3,3,0,-9.140000000000001,-1.85,1.59,6.69,5.72,-2.29
14.74555802345276,2,3,3,0,-8.890000000000001,-1.55,1.53,7.69,5.65,-2.98
14.75555801391602,2,3,3,0,-8.81,-1.3,1.46,8.06,5.72,-3.23
14.76555800437927,2,3,3,0,-8.91,-1.04,1.86,8.220000000000001,5.88,-3.2
14.77555799484253,2,3,3,0,-9.91,-0.67,2.08,8.369999999999999,5.81,-3.02
14.78555798530579,2,3,3,0,-10.34,-0.43,2.16,7.84,5.46,-2.56
14.79555797576904,2,3,3,0,-10.51,-0.16,2.02,7.02,4.72,-2.19
14.8055579662323,2,3,3,0,-10.4,0.13,1.83,6.2,3.97,-1.99
14.81555795669556,2,3,3,0,-9.74,0.52,1.88,5.55,3.67,-2.05
14.82555794715881,2,3,3,0,-9.44,0.45,2.03,5.04,3.66,-2.39
14.83555793762207,2,3,3,0,-9.300000000000001,0.38,2.04,4.52,3.56,-2.82
14.84555792808533,2,3,3,0,-9.199999999999999,0.24,2.18,3.85,3.28,-3.15
14.85555791854858,2,3,3,0,-9.42,-0.49,2.15,2.99,2.97,-3.39
14.86555790901184,2,3,3,0,-9.49,-0.79,2.02,2.16,2.85,-3.48
14.8755578994751,2,3,3,0,-9.460000000000001,-1.21,2.06,1.47,2.53,-3.53
14.88555788993835,2,3,3,0,-9.390000000000001,-1.43,2.07,1.36,2.07,-3.31
14.89555788040161,2,3,3,0,-9.16,-1.78,2.03,1.69,1.55,-3.2
14.90555787086487,2,3,3,0,-9.220000000000001,-1.81,1.9,2.34,1.08,-3.14
14.91555786132812,2,3,3,0,-9.289999999999999,-1.78,1.98,3.08,0.77,-3.13
14.92555785179138,2,3,3,0,-9.5,-1.33,2.24,4.06,0.41,-3.28
14.93555784225464,2,3,3,0,-9.56,-1.06,2.27,4.99,0.04,-3.6
14.94555807113647,2,3,3,0,-9.51,-0.68,2.37,5.79,-0.3,-4.06
14.95555806159973,2,3,3,0,-9.35,-0.28,2.17,6.6,-0.57,-4.6
14.96555805206299,2,3,3,0,-8.83,0.23,2.37,7,-0.77,-5.12
14.97555804252625,2,3,3,0,-8.640000000000001,0.37,2.44,7.27,-0.72,-5.46
14.9855580329895,2,3,3,0,-8.630000000000001,0.36,2.59,7.48,-0.43,-5.7
14.99555802345276,2,3,3,0,-8.69,0.28,2.63,7.38,-0.21,-5.82
15.00555801391602,2,3,3,0,-8.869999999999999,-0.01,2.33,6.97,-0.01,-5.84
15.01555800437927,2,3,3,0,-8.949999999999999,-0.08,2.15,6.56,0.24,-5.87
15.02555799484253,2,3,3,0,-9.039999999999999,-0.12,1.91,6.23,0.64,-5.83
15.03555798530579,2,3,3,0,-9.18,-0.06,1.69,6.23,0.9399999999999999,-5.77
15.04555797576904,2,3,3,0,-9.5,0.01,1.75,6.41,0.9399999999999999,-5.73
15.0555579662323,2,3,3,0,-9.57,0.16,1.92,6.53,0.9,-5.55
15.06555795669556,2,3,3,0,-9.66,0.4,2.07,6.46,1.2,-5.32
15.07555794715881,2,3,3,0,-9.779999999999999,0.7,2,6.21,1.42,-4.99
15.08555793762207,2,3,3,0,-10.09,1.28,2.43,5.99,1.15,-4.38
15.09555792808533,2,3,3,0,-10.23,1.34,2.9,6.31,0.37,-3.47
15.10555791854858,2,3,3,0,-10.32,1.22,3.16,6.41,-0.58,-2.44
15.11555790901184,2,3,3,0,-10.38,0.93,4.2,5.95,-1.15,-1.35
15.1255578994751,2,3,3,0,-10.57,0.84,4.33,5.54,-0.96,-0.44
15.13555788993835,2,3,3,0,-10.92,0.86,4.09,4.85,-0.19,0.29
15.14555788040161,2,3,3,0,-11.23,0.88,3.76,3.68,1.27,0.92
15.15555787086487,2,3,3,0,-11.74,1.26,3.23,2.48,3.54,1.51
15.16555786132812,2,3,3,0,-11.92,1.49,3.16,1.54,5.68,1.87
15.17555785179138,2,3,3,0,-12.11,1.68,3.15,0.64,7.08,2.04
15.18555784225464,2,3,3,0,-12.38,1.6,3.07,-0.54,8.380000000000001,2.1
15.19555807113647,2,3,3,0,-13.06,0.19,1.5,-2.62,9.48,2.19
15.20555806159973,2,3,3,0,-13.33,-0.88,0.99,-5.95,10.16,2.16
15.21555805206299,2,3,3,0,-13.48,-1.92,0.89,-8.58,9.92,1.88
15.22555804252625,2,3,3,0,-13.25,-3.09,0.57,-10.15,8.460000000000001,1.7
15.2355580329895,2,3,3,0,-12.12,-5.3,0.21,-11.37,6.96,1.92
15.24555802345276,2,3,3,0,-11.57,-6.24,0.12,-10.82,6.02,2.75
15.25555801391602,2,3,3,0,-10.75,-7.26,-0.08,-9.06,3.99,3.42
15.26555800437927,2,3,3,0,-10,-7.83,-0.31,-6.8,2.19,3.69
15.27555799484253,2,3,3,0,-8.800000000000001,-7.74,-0.14,-3.41,2.29,3.71
15.28555798530579,2,3,3,0,-8.300000000000001,-7.25,0.3,1.18,2.95,3.94
15.29555797576904,2,3,3,0,-7.89,-6.45,0.77,6.26,3.44,4.03
15.3055579662323,2,3,3,0,-7.65,-4.85,1.25,10.28,3.56,4.73
15.31555795669556,2,3,3,0,-7.81,-3.92,1.54,12.69,3.37,5.9
15.32555794715881,2,3,3,0,-8.210000000000001,-2.74,1.98,14.37,3.15,7.13
15.33555793762207,2,3,3,0,-8.82,-1.45,2.34,15.3,2.36,8.140000000000001
15.34555792808533,2,3,3,0,-10.3,0.25,3.38,14.46,1.62,8.550000000000001
15.35555791854858,2,3,3,0,-10.85,0.75,3.66,12.72,0.12,8.16
15.36555790901184,2,3,3,0,-11.16,1.02,3.69,10.18,-2.6,6.88
15.3755578994751,2,3,3,0,-11.36,0.98,3.42,7,-5.16,5.25
15.38555788993835,2,3,3,0,-11.23,0.49,2.51,4.04,-6.3,3.66
15.39555788040161,2,3,3,0,-10.87,0.25,2.15,1.53,-6.96,2.43
15.40555787086487,2,3,3,0,-10.5,0.05,1.78,-0.2,-7.94,1.67
15.41555786132812,2,3,3,0,-10.2,0.02,1.76,-1.2,-9.1,1.33
15.42555785179138,2,3,3,0,-9.119999999999999,0.14,2.13,-1.95,-10.48,1.34
15.43555784225464,2,3,3,0,-8.27,0.12,2.11,-3.11,-11.9,1.77
15.44555807113647,2,3,3,0,-7.4,0.18,2.06,-4.68,-12.51,2.28
15.45555806159973,2,3,3,0,-6.43,0.09,2.13,-6.37,-11.9,2.58
15.46555805206299,2,3,3,0,-6.58,-0.1,2.69,-7.48,-10.3,2.64
15.47555804252625,2,3,3,0,-6.86,-0.42,3.07,-7.97,-8.619999999999999,2.82
15.4855580329895,2,3,3,0,-7.18,-0.66,3.09,-8.470000000000001,-8.210000000000001,3.26
15.49555802345276,2,3,3,0,-7.31,-1.25,2.63,-9.31,-8.300000000000001,3.68
15.50555801391602,2,3,3,0,-7.44,-1.38,2.5,-9.99,-7.78,3.92
15.51555800437927,2,3,3,0,-7.63,-1.53,2.64,-9.99,-6.82,3.98
15.52555799484253,2,3,3,0,-7.69,-1.47,2.72,-9.4,-6.23,3.93
15.53655791282654,2,3,3,0,-7.49,-1.02,2.85,-8.59,-5.86,3.56
15.54655790328979,2,3,3,0,-7.59,-0.85,2.97,-7.66,-5.26,3.13
15.55655789375305,2,3,3,0,-7.84,-0.77,2.97,-6.9,-4.35,2.84
15.56655788421631,2,3,3,0,-8.09,-0.61,3.08,-6.63,-3.64,2.69
15.57655787467957,2,3,3,0,-8.359999999999999,-0.34,3.06,-6.8,-3.55,2.63
15.58655786514282,2,3,3,0,-8.41,-0.1,2.93,-7.22,-3.22,2.58
15.59655785560608,2,3,3,0,-8.26,0.14,2.71,-7.61,-2.63,2.43
15.60655784606934,2,3,3,0,-8.109999999999999,0.38,2.5,-7.7,-1.69,2.02
15.61655807495117,2,3,3,0,-8.07,0.46,2.73,-7.18,-0.35,1.38
15.62655806541443,2,3,3,0,-8.08,0.41,2.99,-6.17,0.83,0.61
15.63655805587769,2,3,3,0,-7.96,0.36,3.11,-5.02,1.49,-0.14
15.64655804634094,2,3,3,0,-7.74,0.29,3.17,-4.14,1.86,-0.6899999999999999
15.6565580368042,2,3,3,0,-7.31,0.51,3.31,-3.31,2.5,-1.03
15.66655802726746,2,3,3,0,-7.15,0.77,3.61,-2.34,3.62,-1.24
15.67655801773071,2,3,3,0,-7.12,1.03,3.87,-1.57,4.73,-1.27
15.68655800819397,2,3,3,0,-7.45,1.67,4.27,-1.2,5.45,-0.97
15.69655799865723,2,3,3,0,-7.68,1.88,4.49,-1.25,5.61,-0.35
15.70655798912048,2,3,3,0,-7.98,1.89,4.63,-1.83,5.13,0.32
15.71655797958374,2,3,3,0,-8.300000000000001,1.72,4.73,-2.57,4.11,1.2
15.726557970047,2,3,3,0,-8.5,0.46,3.98,-4.03,2.48,2.14
15.73655796051025,2,3,3,0,-8.52,-0.82,3.56,-7.38,1.09,3.02
15.74655795097351,2,3,3,0,-8.6,-2.26,2.94,-12.27,0.8100000000000001,3.19
15.75655794143677,2,3,3,0,-8.779999999999999,-3.32,1.32,-17.38,1.05,1.78
15.76655793190002,2,3,3,0,-11.46,-3.39,-0.51,-20.42,2.48,-0.99
15.78655791282654,2,3,3,0,-16.59,-1.46,4.55,-8.4,6.14,-3.96
15.79655790328979,2,3,3,0,-15.95,-0.42,4.98,5.28,-1.57,-3.08
15.80655789375305,2,3,3,0,-10.85,2.05,5.93,13.56,-9.710000000000001,-1.11
15.81655788421631,2,3,3,0,-9.33,2.32,7.13,15.1,-12.75,1.88
15.82655787467957,2,3,3,0,-8.58,2.57,7.13,10.82,-11.67,4.73
15.83655786514282,2,3,3,0,-10.33,4.26,7.68,4.94,-8.1,7.39
15.84655785560608,2,3,3,0,-12.98,3.96,7.89,-0.48,-3.67,9.82
15.85655784606934,2,3,3,0,-14.72,3.35,6.91,-6.32,-2.62,11.37
15.86655807495117,2,3,3,0,-15.88,2.72,5.58,-12.33,-4.73,10.05
15.87655806541443,2,3,3,0,-17.56,-0.5,1.77,-15.12,-4.28,6.8
15.88655805587769,2,3,3,0,-17.3,-1.5,1.65,-14.11,-1.35,2.62
15.89655804634094,2,3,3,0,-15.38,-2.4,2.28,-8,0.26,-1.69
15.9065580368042,2,3,3,0,-12.29,-2.89,3.09,-1.28,-3.37,-5.35
15.91655802726746,2,3,3,0,-5.79,-2.79,5.33,2.28,-8.85,-6.45
15.92655801773071,2,3,3,0,-4.03,-3.06,5.07,1.96,-11.43,-5.04
15.93655800819397,2,3,3,0,-3.9,-3.1,4.07,-1.3,-9.6,-2.7
15.94655799865723,2,3,3,0,-4.93,-2.66,3.15,-4.31,-5.01,-0.36
15.95655798912048,2,3,3,0,-8.18,-1.1,1.82,-5.38,-0.5,1.15
15.96655797958374,2,3,3,0,-9.15,-0.78,0.95,-5.77,3.04,1.38
15.976557970047,2,3,3,0,-9.66,-1.08,0.12,-6.51,5.67,0.84
15.98655796051025,2,3,3,0,-9.869999999999999,-1.78,-0.26,-7.12,7,-0.13
15.99655795097351,2,3,3,0,-9.83,-3.55,-0.14,-7.22,6.18,-1.16
16.00655794143677,2,3,3,0,-9.279999999999999,-4.38,0.17,-6.8,3.34,-1.99
16.01655793190002,2,3,3,0,-8.460000000000001,-4.65,0.61,-6.15,-0.29,-1.82
16.02655792236328,2,3,3,0,-7.34,-4.49,1.37,-4.9,-2.34,-0.78
16.03655791282654,2,3,3,0,-6.93,-3.84,1.63,-2.81,-2.38,0.21
16.04655790328979,2,3,3,0,-6.62,-3.16,1.97,-0.6899999999999999,-1.65,0.86
16.05655789375305,2,3,3,0,-6.55,-2.55,2.09,0.6899999999999999,-0.33,1.46
16.06655788421631,2,3,3,0,-6.83,-1.77,2.29,1.11,1.07,2.02
16.07655787467957,2,3,3,0,-7.07,-1.68,2.06,0.85,2.48,2.12
16.08655786514282,2,3,3,0,-7.38,-1.9,1.7,0.52,3.95,1.83
16.09655785560608,2,3,3,0,-7.52,-2.12,1.36,0.6,5.12,1.21
16.10655784606934,2,3,3,0,-7.88,-2.71,0.93,1.45,5.86,0.36
16.11655807495117,2,3,3,0,-8.1,-2.9,0.73,2.85,6.17,-0.58
16.12655806541443,2,3,3,0,-8.48,-2.9,0.76,4.16,6,-1.48
16.13655805587769,2,3,3,0,-8.960000000000001,-2.77,1.12,5.76,5.56,-2.26
16.14655804634094,2,3,3,0,-8.82,-1.95,1.26,7.37,4.8,-2.64
16.1565580368042,2,3,3,0,-8.529999999999999,-1.7,1.26,8.029999999999999,3.72,-2.86
16.16655802726746,2,3,3,0,-8.32,-1.33,1.44,8.41,3.36,-2.99
16.17655801773071,2,3,3,0,-8.369999999999999,-0.91,1.77,8.970000000000001,3.65,-3.03
16.18655800819397,2,3,3,0,-9.19,-0.77,2.41,9.09,4.08,-2.93
16.19655799865723,2,3,3,0,-9.51,-0.59,2.29,8.630000000000001,3.94,-2.77
16.20655798912048,2,3,3,0,-9.66,-0.5600000000000001,2.05,7.74,3.57,-2.72
16.21655797958374,2,3,3,0,-9.82,-0.51,1.41,6.72,3.34,-2.66
16.226557970047,2,3,3,0,-9.9,-0.42,1.43,5.83,3.06,-2.68
16.23655796051025,2,3,3,0,-9.949999999999999,-0.37,1.45,5.47,3.04,-2.86
16.24655795097351,2,3,3,0,-9.75,-0.12,1.47,5.84,2.94,-3.19
16.25655794143677,2,3,3,0,-9.15,0.41,1.68,6.49,2.79,-3.78
16.26655793190002,2,3,3,0,-8.949999999999999,0.7,2.21,7.24,2.73,-4.41
16.27655792236328,2,3,3,0,-8.85,0.78,2.48,7.91,2.48,-4.95
16.28655791282654,2,3,3,0,-8.800000000000001,0.8,2.83,7.7,2.06,-5.11
16.29655790328979,2,3,3,0,-9.01,0.72,3.07,7.02,1.64,-5.08
16.30655789375305,2,3,3,0,-9.09,0.6,2.85,5.88,1.06,-4.78
16.31655788421631,2,3,3,0,-9.15,0.39,2.78,4.43,0.75,-4.4
16.32655787467957,2,3,3,0,-9.1,0.19,2.72,3.01,0.66,-4.15
16.33655786514282,2,3,3,0,-9.109999999999999,-0.42,2.41,1.72,0.73,-4.15
16.34655785560608,2,3,3,0,-9.140000000000001,-0.73,2.3,0.9,1.02,-4.49
16.35655784606934,2,3,3,0,-9.18,-1,1.99,0.76,1.28,-5.26
16.36655807495117,2,3,3,0,-9.26,-1.16,1.89,1.42,1.48,-6.12
16.37655806541443,2,3,3,0,-9.279999999999999,-1.13,1.91,2.74,1.36,-6.82
16.38655805587769,2,3,3,1,-9.199999999999999,-1.02,2.11,4.49,0.74,-7.22
16.39655804634094,2,3,3,1,-9.07,-0.93,2.25,6.43,-0.28,-7.04
16.4065580368042,2,3,3,1,-8.890000000000001,-0.9399999999999999,2.19,7.92,-1.42,-6.43
16.41655802726746,2,3,3,1,-8.949999999999999,-0.8100000000000001,2.31,8.83,-2.14,-5.62
16.42655801773071,2,3,3,1,-9.109999999999999,-0.57,2.42,9.470000000000001,-2.27,-4.85
16.43655800819397,2,3,3,1,-9.380000000000001,-0.13,2.34,9.710000000000001,-1.83,-4.18
16.44655799865723,2,3,3,1,-9.67,1,2.27,9.67,-0.88,-3.69
16.45655798912048,2,3,3,1,-9.75,1.56,2.26,9.99,0.29,-3.33
16.46655797958374,2,3,3,1,-9.92,2.01,2.65,10.51,1.25,-3.15
16.476557970047,2,3,3,1,-10.2,2.23,3.32,10.82,1.61,-2.99
16.48655796051025,2,3,3,1,-10.66,2.06,4.35,10.93,1.3,-2.71
16.49655795097351,2,3,3,1,-11,2.01,4.83,10.64,0.87,-2.39
16.50655794143677,2,3,3,1,-11.46,1.84,5,9.960000000000001,0.95,-1.9
16.51655793190002,2,3,3,1,-11.86,1.71,4.8,8.210000000000001,1.47,-0.99
16.52655792236328,2,3,3,1,-12.62,1.65,4.27,5.47,2.98,0.14
16.53655791282654,2,3,3,1,-12.85,1.21,3.81,2.27,5.27,1.23
16.54655790328979,2,3,3,1,-13.14,0.48,3.38,-0.75,7.62,2.07
16.55655789375305,2,3,3,1,-13.76,-0.31,2.6,-2.86,10.01,2.66
16.56755805015564,2,3,3,1,-14.81,-1.7,0.04,-4.89,12,3.02
16.5775580406189,2,3,3,1,-15.06,-2.65,0.13,-6.81,13.39,2.85
16.58755803108215,2,3,3,2,-15.05,-3.67,0.62,-7.02,12.57,2.38
16.59755802154541,2,3,3,2,-13.33,-6.08,0.28,-6.19,9.27,2.04
16.60755801200867,2,3,3,2,-12.08,-6.69,-0.25,-5.46,7.3,2.21
16.61755800247192,2,3,3,2,-10.72,-7.26,-0.09,-4.31,6.4,2.34
16.62755799293518,2,3,3,2,-9.68,-7.31,0.26,-2.13,5.6,2.41
16.63755798339844,2,3,3,2,-8.26,-6.56,0.89,1.06,5.27,2.77
16.64755797386169,2,3,3,2,-7.86,-5.65,1.33,3.65,4.85,3.84
16.65755796432495,2,3,3,2,-7.87,-4.81,1.45,6.38,4.38,5.32
16.66755795478821,2,3,3,2,-7.74,-3.62,1.63,8.630000000000001,4.19,6.41
16.67755794525146,2,3,3,2,-8.800000000000001,-1.09,2.34,10.55,4.6,7.59
16.68755793571472,2,3,3,2,-9.31,-0.03,2.85,11.96,4.34,8.449999999999999
16.69755792617798,2,3,3,2,-9.539999999999999,0.67,3.08,12.61,1.79,8.09
16.70755791664124,2,3,3,2,-9.59,1.04,2.97,11.31,-1.36,6.87
16.71755790710449,2,3,3,2,-9.550000000000001,1.51,2.95,8.98,-3.63,5.33
16.72755789756775,2,3,3,2,-9.289999999999999,1.48,2.93,6.03,-5.45,3.98
16.73755788803101,2,3,3,3,-8.98,1.32,2.84,2.83,-6.93,3.18
16.74755787849426,2,3,3,3,-8.890000000000001,1.07,2.76,-0.36,-7.37,2.98
16.75755786895752,2,3,3,3,-8.99,0.67,2.41,-3.13,-7.32,3.19
16.76755785942078,2,3,3,3,-9,0.4,2.21,-5.39,-7.58,3.64
16.77755784988403,2,3,3,3,-8.92,0.23,2.01,-7.24,-8.33,3.99
16.78755784034729,2,3,3,3,-8.33,-0.04,1.76,-8.140000000000001,-9.33,4.26
16.79755806922913,2,3,3,3,-7.78,-0.5600000000000001,1.61,-8.23,-9.869999999999999,4.45
16.80755805969238,2,3,3,3,-7.27,-0.95,1.48,-8.140000000000001,-9.949999999999999,4.43
16.81755805015564,2,3,3,3,-7.03,-1.06,1.81,-7.66,-9.33,4.41
16.8275580406189,2,3,3,3,-6.98,-0.78,2.69,-7.26,-8.41,4.5
16.83755803108215,2,3,3,3,-6.98,-0.78,2.69,-7.26,-8.41,4.5
16.84755802154541,2,3,3,3,-8.029999999999999,-0.84,3.22,-7.53,-6.8,5.47
16.85755801200867,2,3,3,3,-8.289999999999999,-0.93,3.04,-7.9,-6.8,6.08
16.86755800247192,2,3,3,3,-8.41,-0.95,2.68,-8.199999999999999,-7.01,6.14
16.87755799293518,2,3,3,3,-8.58,-0.77,2.71,-8.15,-6.77,5.72
16.88755798339844,2,3,3,3,-8.58,-0.77,2.71,-8.15,-6.77,5.72
16.89755797386169,2,3,3,3,-8.59,-0.52,2.62,-7.25,-5.84,4.26
16.90755796432495,2,3,3,3,-8.43,-0.12,2.74,-6.86,-5.21,3.2
16.91755795478821,2,3,3,3,-8.470000000000001,-0.01,2.97,-6.27,-4.29,2.1
16.92755794525146,2,3,3,3,-8.57,0,3.15,-5.87,-3.6,1.21
16.93755793571472,2,3,3,3,-8.57,0,3.15,-5.87,-3.6,1.21
16.94755792617798,2,3,3,3,-8.34,0.48,3.15,-5.25,-2.54,0.13
16.95755791664124,2,3,3,3,-8.119999999999999,0.5600000000000001,3.12,-5.02,-2.45,-0.33
16.96755790710449,2,3,3,3,-7.89,0.82,3.2,-4.69,-2.21,-0.63
16.97755789756775,2,3,3,3,-6.96,1.15,2.96,-4.28,-2.22,-0.9399999999999999
16.98755788803101,2,3,3,3,-6.96,1.15,2.96,-4.4,-1.19,-2.08
16.99755787849426,2,3,3,3,-6.61,1.32,2.92,-4.4,-1.19,-2.08
17.00755786895752,2,3,3,3,-6.4,1.59,3.01,-4.06,0.5,-2.53
17.01755785942078,2,3,3,3,-6.57,1.6,3.55,-3.87,1.83,-2.84
17.02755784988403,2,3,3,3,-6.73,1.63,3.72,-3.93,2.85,-3.1
17.03755784034729,2,3,3,3,-6.73,1.63,3.72,-4.3,3.47,-2.93
17.04755806922913,2,3,3,3,-6.74,1.63,3.74,-4.3,3.47,-2.93
17.05755805969238,2,3,3,3,-7.37,0.9,4.04,-6.51,3.75,-0.82
17.06755805015564,2,3,3,3,-7.69,0.09,4.19,-6.51,3.75,-0.82
17.0775580406189,2,3,3,3,-7.97,-1.38,4.36,-9.31,3.38,0.73
17.08755803108215,2,3,3,3,-7.97,-1.38,4.36,-19.48,2.12,1.15
17.09755802154541,2,3,3,3,-8.35,-3.4,4.28,-19.48,2.12,1.15
17.10755801200867,2,3,3,3,-10.01,-6.28,-3.76,-24.33,2.81,-1.11
17.11755800247192,2,3,3,3,-14.06,-4.6,0.23,-21.94,8.92,-3.33
17.12755799293518,2,3,3,3,-16.82,-2.46,3.8,-6.36,8.84,-3.68
17.13755798339844,2,3,3,3,-16.82,-2.46,3.8,-6.36,8.84,-3.68
17.14755797386169,2,3,3,3,-14.56,0.8,5.11,20.04,-8.85,0.2
17.15755796432495,2,3,3,3,-10.49,4.09,8.31,23.22,-10.97,3.54
17.16755795478821,2,3,3,3,-8.31,6.44,8.630000000000001,8.84,-8.17,11.79
17.17755794525146,2,3,3,3,-8.25,7.18,7.37,0.15,-4.05,15.1
17.18755793571472,2,3,3,2,-8.25,7.18,7.37,0.15,-4.05,15.1
17.19755792617798,2,3,3,2,-10.16,7.35,7.59,-6,0.57,15.83
17.20755791664124,2,3,3,2,-17.95,2.84,5.61,-13.24,0.37,12.72
17.21755790710449,2,3,3,2,-19.8,-1.12,3.79,-20.28,-1.81,6.69
17.22755789756775,2,3,3,2,-20.97,-3.55,1.04,-21.78,0.63,-0.05
17.23755788803101,2,3,3,2,-20.97,-3.55,1.04,-21.78,0.63,-0.05
17.24755787849426,2,3,3,2,-20.54,-4.42,-0.58,-10.33,4.45,-10.09
17.25755786895752,2,3,3,2,-13.18,-5,2.35,-3.17,-3.06,-11.06
17.26755785942078,2,3,3,2,-8.07,-4.87,3.63,-0.62,-15.19,-6.87
17.27755784988403,2,3,3,2,-4.36,-5.03,4.19,-1.7,-9.84,-4.3
17.28755784034729,2,3,3,2,-3.04,-5.16,4.15,-1.7,-9.84,-4.3
17.29755806922913,2,3,3,2,-4.8,-4.16,2.51,-2.08,-3.5,-1.53
17.30755805969238,2,3,3,2,-6.62,-2.87,1.62,-2.08,0.98,0.49
17.31755805015564,2,3,3,2,-7.68,-1.78,1.05,-2.33,6.15,0.68
17.3275580406189,2,3,3,2,-7.69,-1.77,-0.13,-1.66,6.23,-0.34
17.33755803108215,2,3,3,1,-7.57,-2.21,-0.34,-1.66,6.23,-0.34
17.34755802154541,2,3,3,1,-7.6,-2.76,-0.41,-0.5600000000000001,4.38,-1.69
17.35755801200867,2,3,3,1,-7.71,-3.23,-0.08,1.03,0.37,-2.58
17.36755800247192,2,3,3,1,-8.050000000000001,-3.99,0.98,2.22,-0.66,-1.84
17.37755799293518,2,3,3,1,-8.01,-4.16,1.29,3.61,-0.92,-1.15
17.38755798339844,2,3,3,1,-7.87,-4.09,1.41,3.61,-0.92,-1.15
17.39755797386169,2,3,3,1,-7.63,-3.64,1.57,4.59,-0.25,-0.51
17.40755796432495,2,3,3,1,-7.45,-2.31,1.91,4.97,2.82,-0.03
17.41755795478821,2,3,3,1,-7.69,-1.81,1.92,4.71,3.55,-0.23
17.42755794525146,2,3,3,1,-7.95,-1.4,1.95,4.66,3.82,-0.6
17.43755793571472,2,3,3,1,-8.039999999999999,-1.19,1.94,4.66,3.82,-0.6
17.44755792617798,2,3,3,1,-7.97,-1.68,1.42,4.97,4.06,-1.04
17.45755791664124,2,3,3,1,-7.95,-1.67,1.31,6.68,4.55,-1.71
17.46755790710449,2,3,3,1,-8.1,-1.82,1.29,7.45,4.35,-2.07
17.47755789756775,2,3,3,1,-8.5,-2.06,1.37,7.69,3.76,-2.34
17.48755788803101,2,3,3,0,-9.539999999999999,-1.37,1.43,7.69,3.76,-2.34
17.49755787849426,2,3,3,0,-9.56,-0.96,1.33,7.5,3.09,-2.62
17.50755786895752,2,3,3,0,-9.279999999999999,-0.67,1.67,6.8,2.69,-3.02
17.51755785942078,2,3,3,0,-8.32,-0.32,1.59,6.52,3.27,-3.07
17.52755784988403,2,3,3,0,-8.029999999999999,-0.2,2.05,6.3,4.05,-2.94
17.53755784034729,2,3,3,0,-8.18,-0.21,2.27,6.3,4.05,-2.94
17.54755806922913,2,3,3,0,-8.460000000000001,-0.42,2.28,5.48,4.31,-2.81
17.55755805969238,2,3,3,0,-9.23,-0.72,2.07,3.58,4.03,-2.83
17.56755805015564,2,3,3,0,-9.51,-0.7,1.59,2.81,3.8,-2.82
17.5775580406189,2,3,3,0,-9.800000000000001,-0.7,1.49,2.54,3.33,-2.91
17.58855795860291,2,3,3,0,-10.08,-0.75,1.32,2.54,3.33,-2.91
17.59855794906616,2,3,3,0,-10.04,-0.78,1.09,2.66,2.65,-3.17
17.60855793952942,2,3,3,0,-9.83,-0.77,1.25,4.05,1.71,-4.35
17.61855792999268,2,3,3,0,-9.68,-0.76,1.27,4.67,1.36,-4.88
17.62855792045593,2,3,3,0,-9.59,-0.8,1.43,5.22,0.9,-5.17
17.63855791091919,2,3,3,0,-9.210000000000001,-0.74,2.15,5.22,0.9,-5.17
17.64855790138245,2,3,3,0,-8.98,-0.8100000000000001,2.41,5.54,0.43,-5.13
17.6585578918457,2,3,3,0,-8.82,-0.78,2.37,5.68,-0.28,-4.28
17.66855788230896,2,3,3,0,-8.699999999999999,-0.66,2.4,5.51,-0.72,-3.72
17.67855787277222,2,3,3,0,-8.73,-0.33,2.62,4.88,-0.85,-3.3
17.68855786323547,2,3,3,0,-8.789999999999999,-0.2,2.59,4.88,-0.85,-3.3
17.69855785369873,2,3,3,0,-8.859999999999999,-0.08,2.52,4.29,-0.6899999999999999,-3.06
17.70855784416199,2,3,3,0,-9.08,0.08,2.21,3.51,-0.22,-3.81
17.71855807304382,2,3,3,0,-9.16,0.12,2.13,3.78,-0.05,-4.62
17.72855806350708,2,3,3,0,-9.18,0.08,2.19,4,0.05,-5.37
17.73855805397034,2,3,3,0,-9.16,0.03,2.09,4,0.05,-5.37
17.74855804443359,2,3,3,0,-9.210000000000001,-0.2,2.05,4.46,-0.02,-5.83
17.75855803489685,2,3,3,0,-9.26,-0.22,1.96,5.87,-1.08,-6.13
17.76855802536011,2,3,3,0,-9.25,-0.27,1.87,6.78,-1.62,-6.08
17.77855801582336,2,3,3,0,-9.17,-0.26,1.85,7.56,-1.72,-5.99
17.78855800628662,2,3,3,0,-8.960000000000001,-0.17,2.09,7.56,-1.72,-5.99
17.79855799674988,2,3,3,0,-8.9,0,2.38,8.15,-1.32,-5.75
17.80855798721313,2,3,3,0,-8.9,0.22,2.55,7.69,0.44,-4.42
17.81855797767639,2,3,3,0,-8.94,0.47,2.6,7.24,1.24,-3.42
17.82855796813965,2,3,3,0,-9.43,1.33,2.19,7.4,1.66,-2.35
17.83855795860291,2,3,3,0,-9.75,1.78,2.2,7.4,1.66,-2.35
17.84855794906616,2,3,3,0,-10.08,2.11,2.44,7.96,1.47,-1.54
17.85855793952942,2,3,3,0,-10.34,2.16,3.04,8.880000000000001,-0.01,-0.9399999999999999
17.86855792999268,2,3,3,0,-10.61,1.88,4.41,8.359999999999999,-0.17,-0.75
17.87855792045593,2,3,3,0,-10.72,1.75,4.87,6.77,0.46,-0.17
17.88855791091919,2,3,3,0,-11.05,1.63,4.98,6.77,0.46,-0.17
17.89855790138245,2,3,3,0,-11.28,1.59,3.9,3.95,2.51,0.54
17.9085578918457,2,3,3,0,-11.3,1.65,3.29,-0.38,8.34,1.51
17.91855788230896,2,3,3,0,-11.49,1.58,2.97,-1.86,9.75,1.37
17.92855787277222,2,3,3,0,-11.98,1.29,3.03,-3.66,10.72,1.42
17.93855786323547,2,3,3,0,-13.13,-0.27,2.7,-3.66,10.72,1.42
17.94855785369873,2,3,3,0,-13.47,-1.18,1.52,-6.49,11.36,2.04
17.95855784416199,2,3,3,0,-13.54,-1.98,0.62,-10.71,8.65,3.36
17.96855807304382,2,3,3,0,-13.49,-2.54,0.73,-11.92,5.86,3.57
17.97855806350708,2,3,3,0,-12.83,-4.55,0.5,-12.19,5.33,3.72
17.98855805397034,2,3,3,0,-12.16,-5.93,-0.11,-12.19,5.33,3.72
17.99855804443359,2,3,3,0,-11.84,-7.13,-0.45,-9.880000000000001,6.48,3.89
18.00855803489685,2,3,3,0,-11.73,-7.97,-0.3,-0.98,5.54,4.66
18.01855802536011,2,3,3,0,-10.67,-8.199999999999999,0.25,3.72,4.36,5.45
18.02855801582336,2,3,3,0,-10.01,-7.49,0.88,7.29,2.39,6.28
18.03855800628662,2,3,3,0,-9.16,-6.53,1.47,7.29,2.39,6.28
18.04855799674988,2,3,3,0,-8.220000000000001,-5.6,1.96,9.56,1.28,7.44
18.05855798721313,2,3,3,0,-7.58,-3.78,2.23,11.28,2.95,8.67
18.06855797767639,2,3,3,0,-7.81,-2.77,2.04,11.27,3.74,8.67
18.07855796813965,2,3,3,0,-8.300000000000001,-1.61,2.11,10.42,3.04,8.31
18.08855795860291,2,3,3,0,-8.99,0.22,2.74,10.42,3.04,8.31
18.09855794906616,2,3,3,0,-9.289999999999999,0.74,3.01,8.23,1.49,7.36
18.10855793952942,2,3,3,0,-9.66,1,3.21,2.08,-3.06,4.56
18.11855792999268,2,3,3,0,-9.960000000000001,1,3.22,-0.68,-5.21,3.34
18.12855792045593,2,3,3,0,-9.91,0.63,2.81,-2.78,-6.13,2.68
18.13855791091919,2,3,3,0,-9.83,0.32,2.53,-2.78,-6.13,2.68
18.14855790138245,2,3,3,0,-9.91,0.06,2.28,-3.79,-6.73,2.41
18.1585578918457,2,3,3,0,-10.03,-0.11,2.14,-4.61,-9.27,2.16
18.16855788230896,2,3,3,0,-9.859999999999999,-0.42,1.89,-4.64,-10.69,2.37
18.17855787277222,2,3,3,0,-9.460000000000001,-0.34,1.87,-5.04,-11.61,2.61
18.18855786323547,2,3,3,0,-8.94,-0.24,1.93,-5.04,-11.61,2.61
18.19855785369873,2,3,3,0,-8.32,-0.34,1.98,-5.71,-11.52,2.72
18.20855784416199,2,3,3,0,-7.17,0,2.22,-7.38,-8.720000000000001,3.33
18.21855807304382,2,3,3,0,-7.25,-0.08,2.39,-7.92,-7.62,4.01
18.22855806350708,2,3,3,0,-7.58,-0.33,2.73,-7.92,-6.86,4.86
18.23855805397034,2,3,3,0,-7.81,-0.53,2.87,-7.92,-6.86,4.86
18.24855804443359,2,3,3,0,-8.539999999999999,-0.95,3.08,-7.78,-6.17,5.36
18.25855803489685,2,3,3,0,-8.65,-1.07,2.96,-7.63,-6.04,5.36
18.26855802536011,2,3,3,0,-8.56,-1.06,2.63,-7.18,-5.83,4.91
18.27855801582336,2,3,3,0,-8.48,-0.72,2.56,-6.6,-5.62,4.18
18.28855800628662,2,3,3,0,-8.44,-0.7,2.6,-6.09,-5.33,3.22
18.29855799674988,2,3,3,0,-8.390000000000001,-0.65,2.69,-5.35,-4.77,2.18
18.30855798721313,2,3,3,0,-8.33,-0.42,2.78,-4.72,-4.42,1.32
18.31855797767639,2,3,3,0,-8.07,-0.04,2.61,-4.42,-3.99,0.65
18.32855796813965,2,3,3,0,-7.85,0.04,2.72,-4.02,-3.27,0.27
18.33855795860291,2,3,3,0,-7.73,0.2,2.95,-3.6,-2.61,0.06
18.34855794906616,2,3,3,0,-7.63,0.19,3.26,-3.08,-2.65,-0.23
18.35855793952942,2,3,3,0,-7.25,0.5,2.81,-2.85,-3.26,-0.8100000000000001
18.36855792999268,2,3,3,0,-6.76,0.86,2.27,-3.24,-2.6,-1.49
18.37855792045593,2,3,3,0,-6.65,1.04,2.42,-3.01,-0.13,-1.73
18.38855791091919,2,3,3,0,-7,1.24,2.93,-2.26,1.74,-1.65
18.39855790138245,2,3,3,0,-7.33,1.46,3.5,-2.1,1.96,-1.59
18.4085578918457,2,3,3,0,-7.26,1.5,3.29,-2.55,2.1,-1.6
18.41855788230896,2,3,3,0,-7.29,1.54,3.1,-2.81,3.02,-1.43
18.42855787277222,2,3,3,0,-7.61,1.55,3.53,-2.94,4.15,-1.1
18.43855786323547,2,3,3,0,-7.92,1.49,3.91,-3.15,4.58,-0.68
18.44855785369873,2,3,3,0,-8.23,1.4,4.12,-3.73,3.97,-0.1
18.45855784416199,2,3,3,0,-8.35,1.18,3.99,-5.45,3.06,0.62
18.46855807304382,2,3,3,0,-8.59,0.03,3.19,-8.42,2.86,1.43
18.47855806350708,2,3,3,0,-8.779999999999999,-0.99,3.21,-11.96,3.37,1.66
18.48855805397034,2,3,3,0,-9,-2.42,3,-15.48,3.58,0.84
18.49855804443359,2,3,3,0,-8.890000000000001,-3.44,1.4,-18.66,4.12,-0.98
18.50855803489685,2,3,3,0,-10.86,-3.86,-0.28,-18.03,7.18,-2.58
18.51855802536011,2,3,3,0,-13.51,-2.31,2.89,-6.85,6.1,-2.66
18.52855801582336,2,3,3,0,-14.62,-1.17,4.19,3.49,-1.7,-1.6
18.53855800628662,2,3,3,0,-14.08,-0.49,4.13,10.47,-7.94,-0.01
18.56855797767639,2,3,3,1,-8.859999999999999,5.69,7.65,11.13,-5.56,7.61
18.57855796813965,2,3,3,1,-8.73,6.83,8.48,3.69,-4.24,10.18
18.58855795860291,2,3,3,1,-9.35,6.35,7.02,-6.45,-3.76,11.15
18.59855794906616,2,3,3,1,-10.56,5.9,6.06,-14.83,-2.27,9.869999999999999
18.60955786705017,2,3,3,1,-12.78,5.18,6.13,-18.99,0.39,7.11
18.61955785751343,2,3,3,1,-15.37,3.46,6.44,-21.49,0.8100000000000001,3.4
18.62955784797668,2,3,3,1,-17.71,-2.77,2.24,-23.52,-0.45,-1.04
18.63955783843994,2,3,3,1,-18.44,-4.49,0,-20.24,-0.18,-4.74
18.64955806732178,2,3,3,1,-18.69,-5.08,-0.03,-12.66,-0.98,-7.09
18.65955805778503,2,3,3,1,-13.04,-5,1.93,-4.35,-6.73,-7.79
18.66955804824829,2,3,3,1,-9.08,-5.09,3.02,1.2,-14.61,-6.79
18.69955801963806,2,3,3,1,-2.69,-2.68,4.12,6.14,-8.9,0.89
18.70955801010132,2,3,3,1,-3.29,-1.85,3.85,4.92,-2.67,3.02
18.71955800056458,2,3,3,1,-4.51,-0.98,3.4,2.72,1.94,4.48
18.72955799102783,2,3,3,1,-6.09,-0.38,2.83,-0.2,4.92,5.11
18.73955798149109,2,3,3,1,-8.9,0.02,1.16,-2.31,6.82,4.7
18.74955797195435,2,3,3,1,-10.06,-0.29,0.4,-3.65,7.2,3.22
18.7595579624176,2,3,3,1,-11.05,-0.89,-0.05,-4.58,6.07,1.35
18.76955795288086,2,3,3,1,-11.63,-1.71,-0.38,-5.42,3.81,-0.38
18.77955794334412,2,3,3,1,-11.33,-3.29,-0.3,-5.74,0.78,-1.28
18.78955793380737,2,3,3,1,-10.46,-3.61,0.3,-4.89,-1.77,-1.48
18.79955792427063,2,3,3,1,-9.35,-3.67,1.05,-3.4,-2.98,-1.57
18.80955791473389,2,3,3,1,-8.33,-3.64,1.74,-2.25,-2.93,-1.59
18.81955790519714,2,3,3,1,-7.17,-3.03,2.43,-1.46,-1.53,-1.27
18.8295578956604,2,3,3,1,-7.13,-2.68,2.57,-1.17,0.35,-0.59
18.83955788612366,2,3,3,1,-7.25,-2.21,2.65,-1.06,1.97,0.13
18.84955787658691,2,3,3,1,-7.58,-1.93,2.38,-0.58,3.09,0.91
18.85955786705017,2,3,3,1,-7.7,-1.78,2.15,0.48,3.73,1.34
18.86955785751343,2,3,3,1,-7.82,-1.9,1.9,1.62,4.01,1.49
18.87955784797668,2,3,3,1,-8,-1.84,1.81,2.79,4.11,1.32
18.88955783843994,2,3,3,1,-8.869999999999999,-1.83,1.83,3.82,4.23,0.95
