timestamp,magCalib,accCalib,gyrCalib,sysCalib,accX,accY,accZ,gyrX,gyrY,gyrZ
-0.08744215965270996,3,3,3,3,-9.67,-1.6,0.52,0.23,0.01,-0.01
-0.07744193077087402,3,3,3,3,-9.67,-1.63,0.5600000000000001,0.15,-0.01,0.01
-0.06744194030761719,3,3,3,3,-9.640000000000001,-1.61,0.61,0.19,0.01,0.01
-0.05744194984436035,3,3,3,3,-9.640000000000001,-1.68,0.53,0.1,0.02,0.04
-0.04744195938110352,3,3,3,3,-9.630000000000001,-1.7,0.43,0.13,0.03,0.1
-0.03744196891784668,3,3,3,3,-9.630000000000001,-1.75,0.43,0.16,0.03,0.11
-0.02744197845458984,3,3,3,3,-9.66,-1.74,0.52,0.2,0,0.09
-0.01744198799133301,3,3,3,3,-9.66,-1.8,0.5600000000000001,0.2,-0.01,0.06
-0.007441997528076172,3,3,3,3,-9.640000000000001,-1.78,0.54,0.14,-0.06,0.01
0.002557992935180664,3,3,3,3,-9.640000000000001,-1.82,0.5,0.07000000000000001,-0.09,-0.04
0.0125579833984375,3,3,3,3,-9.609999999999999,-1.78,0.49,0.06,-0.1,0
0.02255797386169434,3,3,3,3,-9.619999999999999,-1.75,0.55,0.04,-0.1,-0.06
0.03255796432495117,3,3,3,2,-9.619999999999999,-1.7,0.57,0.03,-0.1,-0.06
0.04255795478820801,3,3,3,2,-9.630000000000001,-1.72,0.53,0.03,-0.09,-0.03
0.05255794525146484,3,3,3,2,-9.65,-1.7,0.41,-0.04,-0.05,-0.02
0.06255793571472168,3,3,3,2,-9.619999999999999,-1.75,0.5,-0.09,-0.11,0.02
0.07255792617797852,3,3,3,2,-9.640000000000001,-1.75,0.57,-0.03,-0.11,-0.03
0.08255791664123535,3,3,3,2,-9.640000000000001,-1.77,0.64,-0.04,-0.12,-0.01
0.09255790710449219,3,3,3,2,-9.630000000000001,-1.75,0.57,-0.03,-0.14,-0.03
0.102557897567749,3,3,3,2,-9.630000000000001,-1.69,0.5,-0.03,-0.12,-0.01
0.1125578880310059,3,3,3,2,-9.630000000000001,-1.7,0.53,-0.08,-0.14,-0.02
0.1225578784942627,3,3,3,2,-9.640000000000001,-1.75,0.54,-0.12,-0.09,-0.04
0.1325578689575195,3,3,3,2,-9.619999999999999,-1.81,0.61,-0.12,-0.07000000000000001,-0.03
0.1425578594207764,3,3,3,2,-9.619999999999999,-1.8,0.5600000000000001,-0.02,-0.06,-0.04
0.1525578498840332,3,3,3,2,-9.609999999999999,-1.77,0.49,0.08,-0.12,-0.03
0.16255784034729,3,3,3,2,-9.640000000000001,-1.73,0.5600000000000001,0.11,-0.14,0.01
0.172558069229126,3,3,3,2,-9.65,-1.69,0.59,0.12,-0.12,0
0.1825580596923828,3,3,3,2,-9.6,-1.71,0.64,0.08,-0.12,-0.03
0.1925580501556396,3,3,3,2,-9.640000000000001,-1.76,0.61,-0.02,-0.1,-0.04
0.2025580406188965,3,3,3,2,-9.630000000000001,-1.73,0.5,-0.09,-0.09,-0.03
0.2125580310821533,3,3,3,2,-9.640000000000001,-1.82,0.57,-0.13,-0.09,-0.01
0.2225580215454102,3,3,3,2,-9.630000000000001,-1.84,0.59,-0.11,-0.07000000000000001,-0.02
0.232558012008667,3,3,3,2,-9.630000000000001,-1.82,0.6,-0.01,-0.11,0.01
0.2425580024719238,3,3,3,2,-9.609999999999999,-1.82,0.5600000000000001,0.02,-0.08,0
0.2525579929351807,3,3,3,2,-9.609999999999999,-1.79,0.48,0.11,-0.08,0.02
0.2625579833984375,3,3,3,2,-9.619999999999999,-1.76,0.53,0.16,-0.1,0.03
0.2725579738616943,3,3,3,2,-9.640000000000001,-1.75,0.54,0.19,-0.07000000000000001,0.02
0.2825579643249512,3,3,3,2,-9.640000000000001,-1.72,0.62,0.21,-0.08,0.01
0.292557954788208,3,3,3,2,-9.640000000000001,-1.71,0.57,0.15,-0.1,0
0.3025579452514648,3,3,3,2,-9.6,-1.72,0.51,0.09,-0.05,0.02
0.3125579357147217,3,3,3,2,-9.619999999999999,-1.69,0.53,0.08,-0.1,0.03
0.3225579261779785,3,3,3,2,-9.619999999999999,-1.72,0.58,0.07000000000000001,-0.05,0.04
0.3325579166412354,3,3,3,2,-9.609999999999999,-1.7,0.62,0.14,-0.06,0
0.3425579071044922,3,3,3,2,-9.619999999999999,-1.63,0.57,0.23,-0.11,0.02
0.352557897567749,3,3,3,2,-9.630000000000001,-1.79,0.52,0.21,-0.08,0.05
0.3625578880310059,3,3,3,2,-9.640000000000001,-1.69,0.59,0.24,-0.1,0.03
0.3725578784942627,3,3,3,2,-9.67,-1.57,0.5600000000000001,0.24,-0.11,0.02
0.3825578689575195,3,3,3,2,-9.66,-1.66,0.62,0.12,-0.09,0.01
0.3925578594207764,3,3,3,2,-9.630000000000001,-1.77,0.55,0.09,-0.07000000000000001,0.01
0.4025578498840332,3,3,3,2,-9.65,-1.76,0.49,0,-0.04,-0.02
0.41255784034729,3,3,3,2,-9.640000000000001,-1.72,0.54,0.07000000000000001,-0.04,-0.04
0.422558069229126,3,3,3,2,-9.630000000000001,-1.61,0.55,0.16,-0.09,-0.06
0.4325580596923828,3,3,3,2,-9.640000000000001,-1.62,0.65,0.1,-0.03,-0.06
0.4425580501556396,3,3,3,2,-9.67,-1.62,0.6,0.12,-0.02,-0.04
0.4525580406188965,3,3,3,2,-9.65,-1.58,0.54,0.11,-0.04,-0.06
0.4625580310821533,3,3,3,2,-9.66,-1.64,0.55,0.06,-0.02,-0.03
0.4725580215454102,3,3,3,2,-9.6,-1.65,0.6899999999999999,0.11,-0.04,0
0.482558012008667,3,3,3,2,-9.67,-1.69,0.64,0.15,0,0
0.4925580024719238,3,3,3,2,-9.65,-1.81,0.67,0.12,-0.02,0.01
0.5025579929351807,3,3,3,2,-9.609999999999999,-1.69,0.58,0.24,-0.02,-0.01
0.5125579833984375,3,3,3,2,-9.66,-1.82,0.6,0.18,0.03,0.03
0.5225579738616943,3,3,3,2,-9.66,-1.72,0.55,0.3,0.02,0.01
0.5325579643249512,3,3,3,2,-9.640000000000001,-1.86,0.64,0.29,0.08,0.06
0.542557954788208,3,3,3,2,-9.57,-1.77,0.58,0.41,0.04,0.05
0.5525579452514648,3,3,3,2,-9.58,-1.94,0.47,0.34,0.05,0.09
0.5625579357147217,3,3,3,2,-9.619999999999999,-1.8,0.47,0.53,0.07000000000000001,0.07000000000000001
0.5725579261779785,3,3,3,2,-9.65,-1.94,0.61,0.52,0.04,0.07000000000000001
0.5825579166412354,3,3,3,2,-9.619999999999999,-1.91,0.57,0.72,0.02,0.07000000000000001
0.5925579071044922,3,3,3,2,-9.67,-1.85,0.55,0.78,0.04,0.04
0.602557897567749,3,3,3,2,-9.65,-1.84,0.48,0.76,0.02,0.06
0.6125578880310059,3,3,3,2,-9.66,-1.73,0.47,0.76,0.01,0.04
0.6225578784942627,3,3,3,2,-9.619999999999999,-1.71,0.61,0.73,0,0.05
0.6325578689575195,3,3,3,2,-9.66,-1.72,0.6,0.71,0,0.04
0.6425578594207764,3,3,3,2,-9.630000000000001,-1.69,0.6,0.71,0.02,0.06
0.6525578498840332,3,3,3,2,-9.619999999999999,-1.68,0.48,0.66,-0.02,0.05
0.66255784034729,3,3,3,2,-9.609999999999999,-1.65,0.51,0.67,-0.01,0.06
0.672558069229126,3,3,3,2,-9.65,-1.66,0.6,0.59,0.01,0.09
0.6825580596923828,3,3,3,2,-9.619999999999999,-1.71,0.58,0.68,-0.03,0.04
0.6925580501556396,3,3,3,2,-9.66,-1.74,0.59,0.68,0.03,0.04
0.7025580406188965,3,3,3,2,-9.66,-1.65,0.47,0.71,0.03,0.07000000000000001
0.7125580310821533,3,3,3,2,-9.65,-1.63,0.5,0.68,0.01,0.04
0.7225580215454102,3,3,3,2,-9.65,-1.58,0.49,0.65,-0.02,0.03
0.732558012008667,3,3,3,2,-9.67,-1.68,0.58,0.55,-0.02,0.03
0.7425580024719238,3,3,3,2,-9.66,-1.66,0.53,0.52,-0.06,0.03
0.7525579929351807,3,3,3,2,-9.640000000000001,-1.61,0.48,0.58,-0.07000000000000001,0.01
0.7625579833984375,3,3,3,2,-9.67,-1.67,0.5,0.55,-0.07000000000000001,-0.01
0.7725579738616943,3,3,3,2,-9.640000000000001,-1.62,0.57,0.55,-0.08,0.03
0.7825579643249512,3,3,3,2,-9.66,-1.64,0.63,0.58,-0.06,0.02
0.792557954788208,3,3,3,2,-9.640000000000001,-1.61,0.59,0.5600000000000001,-0.05,0.04
0.8025579452514648,3,3,3,2,-9.65,-1.57,0.49,0.59,-0.04,0.06
0.8125579357147217,3,3,3,2,-9.640000000000001,-1.69,0.54,0.52,-0.04,0.06
0.8225579261779785,3,3,3,2,-9.640000000000001,-1.73,0.67,0.62,-0.07000000000000001,0.07000000000000001
0.8335578441619873,3,3,3,2,-9.65,-1.61,0.61,0.67,-0.11,0.06
0.8435580730438232,3,3,3,2,-9.65,-1.75,0.66,0.6,-0.1,0.07000000000000001
0.8535580635070801,3,3,3,2,-9.640000000000001,-1.73,0.52,0.68,-0.12,0.04
0.8635580539703369,3,3,3,2,-9.65,-1.7,0.5600000000000001,0.6899999999999999,-0.14,0.04
0.8735580444335938,3,3,3,2,-9.67,-1.69,0.65,0.65,-0.16,0.02
0.8835580348968506,3,3,3,2,-9.65,-1.66,0.64,0.57,-0.17,-0.01
0.8935580253601074,3,3,3,2,-9.66,-1.69,0.6899999999999999,0.55,-0.12,-0.01
0.9035580158233643,3,3,3,2,-9.640000000000001,-1.76,0.5600000000000001,0.42,-0.12,-0.02
0.9135580062866211,3,3,3,2,-9.640000000000001,-1.72,0.58,0.32,-0.15,-0.06
0.9235579967498779,3,3,3,2,-9.630000000000001,-1.74,0.64,0.28,-0.14,-0.04
0.9335579872131348,3,3,3,2,-9.619999999999999,-1.75,0.65,0.29,-0.19,-0.04
0.9435579776763916,3,3,3,2,-9.65,-1.76,0.64,0.27,-0.19,-0.08
0.9535579681396484,3,3,3,2,-9.67,-1.78,0.5600000000000001,0.22,-0.2,-0.07000000000000001
0.9635579586029053,3,3,3,2,-9.66,-1.68,0.6,0.26,-0.23,-0.12
0.9735579490661621,3,3,3,2,-9.640000000000001,-1.57,0.65,0.24,-0.23,-0.11
0.9835579395294189,3,3,3,2,-9.65,-1.56,0.71,0.19,-0.19,-0.12
0.9935579299926758,3,3,3,2,-9.630000000000001,-1.65,0.66,0.09,-0.21,-0.05
1.003557920455933,3,3,3,2,-9.630000000000001,-1.6,0.58,0.13,-0.17,-0.08
1.013557910919189,3,3,3,2,-9.630000000000001,-1.61,0.58,0.15,-0.17,-0.08
1.023557901382446,3,3,3,2,-9.65,-1.63,0.66,0.21,-0.16,-0.04
1.033557891845703,3,3,3,2,-9.66,-1.71,0.7,0.21,-0.19,-0.07000000000000001
1.04355788230896,3,3,3,2,-9.66,-1.68,0.71,0.25,-0.21,-0.05
1.053557872772217,3,3,3,2,-9.630000000000001,-1.69,0.62,0.22,-0.14,-0.08
1.063557863235474,3,3,3,2,-9.67,-1.71,0.67,0.22,-0.13,-0.06
1.07355785369873,3,3,3,2,-9.609999999999999,-1.69,0.71,0.21,-0.18,-0.09
1.083557844161987,3,3,3,2,-9.630000000000001,-1.69,0.7,0.17,-0.17,-0.06
1.093558073043823,3,3,3,2,-9.619999999999999,-1.69,0.71,0.18,-0.18,-0.05
1.10355806350708,3,3,3,2,-9.65,-1.67,0.62,0.17,-0.17,-0.1
1.113558053970337,3,3,3,2,-9.640000000000001,-1.68,0.67,0.15,-0.17,-0.06
1.123558044433594,3,3,3,2,-9.630000000000001,-1.69,0.71,0.15,-0.14,-0.1
1.133558034896851,3,3,3,2,-9.630000000000001,-1.64,0.72,0.1,-0.14,-0.09
1.143558025360107,3,3,3,2,-9.6,-1.65,0.72,0.09,-0.16,-0.08
1.153558015823364,3,3,3,2,-9.609999999999999,-1.63,0.63,0.12,-0.13,-0.09
1.163558006286621,3,3,3,2,-9.65,-1.68,0.6899999999999999,0.1,-0.13,-0.07000000000000001
1.173557996749878,3,3,3,2,-9.630000000000001,-1.69,0.73,0.11,-0.09,-0.08
1.183557987213135,3,3,3,2,-9.640000000000001,-1.76,0.74,0.1,-0.12,-0.07000000000000001
1.193557977676392,3,3,3,2,-9.619999999999999,-1.78,0.72,0.14,-0.15,-0.06
1.203557968139648,3,3,3,2,-9.630000000000001,-1.73,0.64,0.23,-0.11,-0.1
1.213557958602905,3,3,3,2,-9.609999999999999,-1.64,0.71,0.22,-0.1,-0.11
1.223557949066162,3,3,3,2,-9.65,-1.58,0.7,0.2,-0.14,-0.08
1.233557939529419,3,3,3,2,-9.630000000000001,-1.57,0.75,0.13,-0.08,-0.09
1.243557929992676,3,3,3,2,-9.65,-1.64,0.75,0.08,-0.09,-0.03
1.253557920455933,3,3,3,2,-9.640000000000001,-1.7,0.65,0.03,-0.08,-0.07000000000000001
1.263557910919189,3,3,3,2,-9.65,-1.76,0.72,0.01,-0.11,-0.02
1.273557901382446,3,3,3,2,-9.640000000000001,-1.73,0.74,0.05,-0.09,-0.05
1.283557891845703,3,3,3,2,-9.66,-1.76,0.73,0.06,-0.06,-0.06
1.29355788230896,3,3,3,2,-9.619999999999999,-1.73,0.6899999999999999,0.09,-0.07000000000000001,-0.09
1.303557872772217,3,3,3,2,-9.619999999999999,-1.7,0.64,0.02,-0.08,-0.08
1.313557863235474,3,3,3,2,-9.6,-1.69,0.71,0.05,-0.04,-0.09
1.32355785369873,3,3,3,2,-9.630000000000001,-1.68,0.71,0.08,-0.07000000000000001,-0.07000000000000001
1.333557844161987,3,3,3,2,-9.640000000000001,-1.63,0.76,0.1,-0.07000000000000001,-0.09
1.343558073043823,3,3,3,2,-9.619999999999999,-1.64,0.75,0.11,-0.09,-0.08
1.35355806350708,3,3,3,2,-9.65,-1.63,0.6899999999999999,0.11,-0.08,-0.08
1.363558053970337,3,3,3,2,-9.65,-1.69,0.72,0.12,-0.03,-0.06
1.373558044433594,3,3,3,2,-9.640000000000001,-1.68,0.72,0.06,-0.02,-0.04
1.383558034896851,3,3,3,2,-9.609999999999999,-1.71,0.76,0.06,0.03,-0.05
1.393558025360107,3,3,3,2,-9.609999999999999,-1.68,0.76,0.06,0.01,-0.07000000000000001
1.403558015823364,3,3,3,2,-9.640000000000001,-1.66,0.64,0.02,-0.01,-0.08
1.413558006286621,3,3,3,2,-9.619999999999999,-1.66,0.7,0.01,-0.02,-0.06
1.423557996749878,3,3,3,2,-9.630000000000001,-1.71,0.71,-0.05,-0.04,-0.07000000000000001
1.433557987213135,3,3,3,2,-9.619999999999999,-1.68,0.76,0.01,-0.01,-0.06
1.443557977676392,3,3,3,2,-9.640000000000001,-1.74,0.76,0.02,-0.01,-0.05
1.453557968139648,3,3,3,2,-9.609999999999999,-1.75,0.64,0.04,0.03,-0.05
1.463557958602905,3,3,3,2,-9.609999999999999,-1.73,0.6899999999999999,0.06,0.03,-0.05
1.473557949066162,3,3,3,2,-9.630000000000001,-1.75,0.7,0.06,-0.01,-0.04
1.483557939529419,3,3,3,2,-9.630000000000001,-1.62,0.75,0.16,-0.02,-0.08
1.493557929992676,3,3,3,2,-9.619999999999999,-1.7,0.72,0.05,-0.02,-0.05
1.503557920455933,3,3,3,2,-9.619999999999999,-1.63,0.6,0.03,-0.03,-0.08
1.513557910919189,3,3,3,2,-9.619999999999999,-1.61,0.67,0.01,0,-0.07000000000000001
1.523557901382446,3,3,3,2,-9.640000000000001,-1.62,0.75,-0.01,0.03,-0.05
1.533557891845703,3,3,3,2,-9.640000000000001,-1.72,0.76,-0.07000000000000001,0.02,-0.04
1.54355788230896,3,3,3,2,-9.630000000000001,-1.7,0.76,-0.03,0.02,-0.07000000000000001
1.553557872772217,3,3,3,2,-9.609999999999999,-1.72,0.64,-0.05,0.05,-0.06
1.563557863235474,3,3,3,2,-9.640000000000001,-1.7,0.7,-0.03,0.03,-0.07000000000000001
1.57355785369873,3,3,3,2,-9.65,-1.76,0.74,-0.06,0.01,-0.08
1.583557844161987,3,3,3,2,-9.630000000000001,-1.71,0.73,-0.01,0,-0.1
1.593558073043823,3,3,3,2,-9.68,-1.64,0.72,-0.02,0.02,-0.12
1.60355806350708,3,3,3,2,-9.609999999999999,-1.61,0.59,-0.01,0.02,-0.08
1.613558053970337,3,3,3,2,-9.619999999999999,-1.59,0.67,-0.05,0.01,-0.07000000000000001
1.623558044433594,3,3,3,2,-9.640000000000001,-1.58,0.72,-0.06,0.02,-0.08
1.633558034896851,3,3,3,2,-9.65,-1.6,0.74,-0.1,0.04,-0.06
1.643558025360107,3,3,3,2,-9.66,-1.65,0.65,-0.14,0.04,-0.05
1.653558015823364,3,3,3,2,-9.640000000000001,-1.71,0.63,-0.14,0.05,-0.1
1.663558006286621,3,3,3,2,-9.65,-1.71,0.65,-0.1,0.03,-0.05
1.673557996749878,3,3,3,2,-9.630000000000001,-1.68,0.7,-0.03,0.02,-0.09
1.683557987213135,3,3,3,2,-9.630000000000001,-1.65,0.71,-0.04,0.01,-0.09
1.693557977676392,3,3,3,2,-9.619999999999999,-1.62,0.72,-0.01,0.04,-0.08
1.703557968139648,3,3,3,2,-9.630000000000001,-1.7,0.62,-0.09,0.06,-0.11
1.713557958602905,3,3,3,2,-9.65,-1.66,0.64,-0.13,0.02,-0.1
1.723557949066162,3,3,3,2,-9.65,-1.65,0.71,-0.11,0.01,-0.12
1.733557939529419,3,3,3,2,-9.630000000000001,-1.68,0.74,-0.13,0.02,-0.08
1.743557929992676,3,3,3,2,-9.609999999999999,-1.68,0.74,-0.14,0.03,-0.09
1.753557920455933,3,3,3,2,-9.619999999999999,-1.67,0.62,-0.19,0.02,-0.07000000000000001
1.763557910919189,3,3,3,2,-9.619999999999999,-1.72,0.68,-0.22,0.04,-0.08
1.773557901382446,3,3,3,2,-9.66,-1.72,0.67,-0.25,0.05,-0.08
1.783557891845703,3,3,3,2,-9.630000000000001,-1.74,0.72,-0.19,0.03,-0.1
1.79355788230896,3,3,3,2,-9.640000000000001,-1.73,0.6899999999999999,-0.18,0.05,-0.08
1.803557872772217,3,3,3,2,-9.609999999999999,-1.78,0.59,-0.18,0.04,-0.09
1.813557863235474,3,3,3,2,-9.609999999999999,-1.76,0.68,-0.12,0.03,-0.12
1.82355785369873,3,3,3,2,-9.640000000000001,-1.72,0.75,-0.14,0.02,-0.15
1.833557844161987,3,3,3,2,-9.640000000000001,-1.71,0.73,-0.16,-0.01,-0.11
1.843558073043823,3,3,3,2,-9.619999999999999,-1.76,0.72,-0.21,-0.01,-0.11
1.85355806350708,3,3,3,2,-9.640000000000001,-1.75,0.59,-0.23,0.04,-0.12
1.864557981491089,3,3,3,2,-9.630000000000001,-1.78,0.63,-0.2,0.04,-0.15
1.874557971954346,3,3,3,2,-9.640000000000001,-1.72,0.67,-0.18,0.06,-0.16
1.884557962417603,3,3,3,2,-9.630000000000001,-1.87,0.6,-0.27,0.07000000000000001,-0.13
1.894557952880859,3,3,3,2,-9.65,-1.64,0.5600000000000001,-0.27,0.05,-0.17
1.904557943344116,3,3,3,2,-9.65,-1.66,0.7,-0.19,0.05,-0.15
1.914557933807373,3,3,3,2,-9.68,-1.76,0.6899999999999999,-0.28,0.02,-0.16
1.92455792427063,3,3,3,2,-9.630000000000001,-1.76,0.71,-0.31,0.01,-0.19
1.934557914733887,3,3,3,2,-9.640000000000001,-1.77,0.8,-0.27,0.06,-0.16
1.944557905197144,3,3,3,2,-9.630000000000001,-1.68,0.71,-0.3,0.05,-0.15
1.9545578956604,3,3,3,2,-9.619999999999999,-1.75,0.63,-0.34,0.08,-0.13
1.964557886123657,3,3,3,2,-9.59,-1.75,0.65,-0.24,0.06,-0.1
1.974557876586914,3,3,3,2,-9.619999999999999,-1.76,0.66,-0.19,0.06,-0.1
1.984557867050171,3,3,3,2,-9.619999999999999,-1.77,0.66,-0.13,0.03,-0.09
1.994557857513428,3,3,3,2,-9.640000000000001,-1.66,0.64,-0.04,0.03,-0.06
2.004557847976685,3,3,3,2,-9.640000000000001,-1.64,0.59,0,0.12,-0.06
2.014557838439941,3,3,3,2,-9.619999999999999,-1.65,0.59,-0.01,0.08,-0.02
2.024558067321777,3,3,3,2,-9.65,-1.68,0.6899999999999999,0,0.1,-0.01
2.034558057785034,3,3,3,2,-9.619999999999999,-1.8,0.67,-0.01,0.13,0.01
2.044558048248291,3,3,3,2,-9.619999999999999,-1.84,0.65,-0.01,0.11,0.02
2.054558038711548,3,3,3,2,-9.619999999999999,-1.79,0.54,0.14,0.09,-0.01
2.064558029174805,3,3,3,2,-9.65,-1.82,0.5600000000000001,0.09,0.08,0
2.074558019638062,3,3,3,2,-9.609999999999999,-1.73,0.61,0.18,0.09,-0.04
2.084558010101318,3,3,3,2,-9.640000000000001,-1.66,0.64,0.19,0.06,-0.01
2.094558000564575,3,3,3,2,-9.65,-1.64,0.68,0.14,0.07000000000000001,-0.03
2.104557991027832,3,3,3,2,-9.65,-1.64,0.5600000000000001,0.12,0.06,-0.01
2.114557981491089,3,3,3,2,-9.619999999999999,-1.6,0.61,0.09,0.07000000000000001,-0.03
2.124557971954346,3,3,3,2,-9.630000000000001,-1.61,0.63,0.02,0.06,-0.03
2.134557962417603,3,3,3,2,-9.66,-1.6,0.64,0.01,0.05,-0.03
2.144557952880859,3,3,3,2,-9.66,-1.59,0.65,-0.04,0.03,-0.03
2.184557914733887,3,3,3,2,-9.640000000000001,-1.74,0.63,-0.18,0.02,-0.07000000000000001
2.194557905197144,3,3,3,2,-9.609999999999999,-1.72,0.63,-0.16,0,-0.07000000000000001
2.2045578956604,3,3,3,2,-9.609999999999999,-1.69,0.55,-0.14,-0.01,-0.05
2.214557886123657,3,3,3,2,-9.630000000000001,-1.68,0.6,-0.19,-0.03,-0.07000000000000001
2.224557876586914,3,3,3,2,-9.66,-1.73,0.65,-0.26,-0.01,-0.05
2.234557867050171,3,3,3,2,-9.640000000000001,-1.77,0.66,-0.25,-0.02,-0.04
2.244557857513428,3,3,3,2,-9.619999999999999,-1.71,0.64,-0.28,-0.04,-0.06
2.254557847976685,3,3,3,2,-9.65,-1.77,0.54,-0.25,-0.01,-0.05
2.264557838439941,3,3,3,2,-9.609999999999999,-1.83,0.63,-0.24,-0.04,-0.05
2.274558067321777,3,3,3,2,-9.57,-1.84,0.63,-0.19,0.01,-0.08
2.284558057785034,3,3,3,2,-9.59,-1.79,0.67,-0.11,0.03,-0.07000000000000001
2.294558048248291,3,3,3,2,-9.609999999999999,-1.8,0.68,-0.08,0.02,-0.07000000000000001
2.304558038711548,3,3,3,2,-9.619999999999999,-1.77,0.57,-0.07000000000000001,0.01,-0.08
2.314558029174805,3,3,3,2,-9.65,-1.71,0.65,-0.05,-0.02,-0.06
2.324558019638062,3,3,3,2,-9.65,-1.68,0.68,-0.07000000000000001,-0.02,-0.04
2.334558010101318,3,3,3,2,-9.66,-1.7,0.65,-0.08,-0.01,0
2.344558000564575,3,3,3,2,-9.640000000000001,-1.7,0.64,-0.06,-0.01,-0.01
2.354557991027832,3,3,3,2,-9.630000000000001,-1.72,0.55,-0.04,0,-0.01
2.364557981491089,3,3,3,2,-9.6,-1.74,0.62,-0.02,-0.01,0.02
2.374557971954346,3,3,3,2,-9.609999999999999,-1.76,0.63,0.03,0.01,0
2.384557962417603,3,3,3,2,-9.630000000000001,-1.78,0.65,0.07000000000000001,0.02,-0.01
2.394557952880859,3,3,3,2,-9.67,-1.76,0.67,0.08,0.02,-0.02
2.404557943344116,3,3,3,2,-9.65,-1.78,0.58,0.06,-0.02,0.02
2.414557933807373,3,3,3,2,-9.640000000000001,-1.74,0.6,0,0.03,-0.04
2.42455792427063,3,3,3,2,-9.59,-1.69,0.65,0,0.03,-0.04
2.434557914733887,3,3,3,2,-9.609999999999999,-1.7,0.6899999999999999,-0.02,0.04,-0.02
2.444557905197144,3,3,3,2,-9.640000000000001,-1.72,0.61,-0.02,0.04,-0.02
2.4545578956604,3,3,3,2,-9.619999999999999,-1.69,0.58,-0.06,0.05,-0.04
2.464557886123657,3,3,3,2,-9.640000000000001,-1.65,0.63,-0.07000000000000001,0.03,-0.04
2.474557876586914,3,3,3,2,-9.66,-1.71,0.66,-0.11,0.01,-0.05
2.484557867050171,3,3,3,2,-9.65,-1.72,0.67,-0.03,0.03,0.01
2.494557857513428,3,3,3,2,-9.65,-1.7,0.6899999999999999,-0.03,0.03,0.01
2.504557847976685,3,3,3,2,-9.640000000000001,-1.71,0.53,-0.04,0.01,-0.01
2.514557838439941,3,3,3,2,-9.609999999999999,-1.76,0.61,0,0.03,0
2.524558067321777,3,3,3,2,-9.65,-1.73,0.61,0.05,0.05,0.01
2.534558057785034,3,3,3,2,-9.640000000000001,-1.69,0.64,0.08,-0.02,0
2.544558048248291,3,3,3,2,-9.640000000000001,-1.74,0.64,0.08,-0.02,0
2.554558038711548,3,3,3,2,-9.65,-1.75,0.52,0.08,0.04,0.01
2.564558029174805,3,3,3,2,-9.640000000000001,-1.79,0.59,0.05,0.02,0
2.574558019638062,3,3,3,2,-9.630000000000001,-1.75,0.65,0.05,0.03,0.01
2.584558010101318,3,3,3,2,-9.609999999999999,-1.69,0.65,0.1,0.04,0.01
2.594558000564575,3,3,3,2,-9.6,-1.64,0.62,0.11,0.02,0.01
2.604557991027832,3,3,3,2,-9.609999999999999,-1.65,0.55,0.11,0.02,-0.04
2.614557981491089,3,3,3,2,-9.65,-1.66,0.59,0.05,0.03,-0.02
2.624557971954346,3,3,3,2,-9.640000000000001,-1.69,0.65,0.01,-0.01,0.01
2.634557962417603,3,3,3,2,-9.640000000000001,-1.63,0.67,-0.05,-0.01,0
2.644557952880859,3,3,3,2,-9.630000000000001,-1.69,0.71,-0.03,-0.03,-0.02
2.664557933807373,3,3,3,2,-9.609999999999999,-1.73,0.59,-0.02,-0.02,-0.01
2.67455792427063,3,3,3,2,-9.619999999999999,-1.71,0.62,-0.03,-0.01,0
2.684557914733887,3,3,3,2,-9.66,-1.72,0.67,-0.02,0.01,-0.01
2.694557905197144,3,3,3,2,-9.609999999999999,-1.74,0.63,-0.05,-0.01,-0.02
2.7045578956604,3,3,3,2,-9.619999999999999,-1.73,0.54,-0.09,-0.02,-0.01
2.714557886123657,3,3,3,2,-9.630000000000001,-1.77,0.58,-0.08,-0.02,-0.02
2.724557876586914,3,3,3,2,-9.65,-1.76,0.62,-0.06,-0.01,-0.02
2.734557867050171,3,3,3,2,-9.630000000000001,-1.7,0.67,-0.06,-0.01,-0.05
2.744557857513428,3,3,3,2,-9.66,-1.72,0.62,-0.05,0.01,-0.06
2.754557847976685,3,3,3,2,-9.640000000000001,-1.76,0.55,-0.13,0.03,-0.04
2.764557838439941,3,3,3,2,-9.630000000000001,-1.74,0.58,-0.11,0.03,-0.04
2.774558067321777,3,3,3,2,-9.619999999999999,-1.73,0.64,-0.13,-0.01,-0.03
2.784558057785034,3,3,3,3,-9.619999999999999,-1.72,0.65,-0.07000000000000001,0,-0.06
2.794558048248291,3,3,3,3,-9.609999999999999,-1.7,0.66,-0.11,-0.03,-0.05
2.804558038711548,3,3,3,3,-9.65,-1.67,0.54,-0.08,0,-0.05
2.814558029174805,3,3,3,3,-9.640000000000001,-1.7,0.64,-0.07000000000000001,-0.02,-0.06
2.824558019638062,3,3,3,3,-9.65,-1.68,0.65,-0.09,0.01,-0.06
2.834558010101318,3,3,3,3,-9.65,-1.69,0.65,-0.09,0.03,-0.06
2.844558000564575,3,3,3,3,-9.630000000000001,-1.69,0.66,-0.1,0.01,-0.03
2.854557991027832,3,3,3,3,-9.65,-1.7,0.5600000000000001,-0.03,0.02,-0.03
2.864557981491089,3,3,3,3,-9.619999999999999,-1.7,0.6,-0.03,0,-0.03
2.874557971954346,3,3,3,3,-9.619999999999999,-1.68,0.62,-0.01,0.01,-0.03
2.885557889938354,3,3,3,3,-9.630000000000001,-1.7,0.63,-0.03,-0.03,-0.02
2.895557880401611,3,3,3,3,-9.65,-1.71,0.61,-0.07000000000000001,0,-0.02
2.905557870864868,3,3,3,3,-9.630000000000001,-1.77,0.55,-0.08,0.01,-0.01
2.915557861328125,3,3,3,3,-9.630000000000001,-1.76,0.61,-0.05,0.01,-0.05
2.925557851791382,3,3,3,3,-9.640000000000001,-1.72,0.6,-0.05,0.01,-0.05
2.935557842254639,3,3,3,3,-9.66,-1.69,0.67,-0.04,0.02,-0.06
2.945558071136475,3,3,3,3,-9.66,-1.7,0.66,-0.01,0.02,-0.06
2.955558061599731,3,3,3,3,-9.630000000000001,-1.67,0.55,0,0.03,-0.06
2.965558052062988,3,3,3,3,-9.609999999999999,-1.71,0.6,-0.06,0,-0.03
2.975558042526245,3,3,3,3,-9.65,-1.74,0.64,-0.06,0,-0.03
2.985558032989502,3,3,3,3,-9.630000000000001,-1.73,0.65,-0.07000000000000001,0,-0.01
2.995558023452759,3,3,3,3,-9.65,-1.73,0.65,-0.08,0.03,0
3.005558013916016,3,3,3,3,-9.640000000000001,-1.73,0.53,-0.05,0.01,-0.02
3.015558004379272,3,3,3,3,-9.640000000000001,-1.73,0.59,0.01,0.05,-0.04
3.025557994842529,3,3,3,3,-9.630000000000001,-1.73,0.65,0.01,0.05,-0.04
3.035557985305786,3,3,3,3,-9.630000000000001,-1.69,0.61,0.12,0,-0.04
3.045557975769043,3,3,3,3,-9.65,-1.73,0.58,0.12,0.01,-0.01
3.0555579662323,3,3,3,3,-9.65,-1.7,0.53,0.14,0.01,0
3.065557956695557,3,3,3,3,-9.65,-1.77,0.58,0.12,0.01,0.03
3.075557947158813,3,3,3,3,-9.630000000000001,-1.81,0.62,0.12,0.01,0.03
3.08555793762207,3,3,3,3,-9.640000000000001,-1.72,0.65,0.1,0,0
3.095557928085327,3,3,3,3,-9.640000000000001,-1.71,0.63,0.1,0.02,-0.04
3.105557918548584,3,3,3,3,-9.65,-1.69,0.53,0.06,0.02,-0.03
3.115557909011841,3,3,3,3,-9.66,-1.63,0.58,0.05,0,-0.02
3.125557899475098,3,3,3,3,-9.66,-1.64,0.61,0.05,0,-0.02
3.135557889938354,3,3,3,3,-9.66,-1.61,0.65,-0.01,0.01,-0.02
3.145557880401611,3,3,3,3,-9.630000000000001,-1.66,0.65,-0.02,0,0.02
3.155557870864868,3,3,3,3,-9.630000000000001,-1.68,0.54,0,-0.04,-0.01
3.165557861328125,3,3,3,3,-9.640000000000001,-1.69,0.57,-0.01,0,0.01
3.175557851791382,3,3,3,3,-9.65,-1.74,0.62,-0.01,0,0.01
3.185557842254639,3,3,3,3,-9.640000000000001,-1.78,0.64,-0.01,-0.02,0
3.195558071136475,3,3,3,3,-9.609999999999999,-1.74,0.65,0.04,0.02,-0.02
3.205558061599731,3,3,3,3,-9.619999999999999,-1.69,0.53,0.07000000000000001,0.04,-0.02
3.215558052062988,3,3,3,3,-9.630000000000001,-1.67,0.57,0.07000000000000001,0.03,-0.06
3.225558042526245,3,3,3,3,-9.66,-1.67,0.61,0.07000000000000001,0.03,-0.06
3.235558032989502,3,3,3,3,-9.65,-1.65,0.64,-0.02,-0.02,-0.03
3.245558023452759,3,3,3,3,-9.65,-1.7,0.61,-0.03,0.04,0
3.255558013916016,3,3,3,3,-9.67,-1.7,0.54,-0.06,0,0.01
3.265558004379272,3,3,3,3,-9.640000000000001,-1.72,0.5600000000000001,-0.04,-0.02,0.02
3.275557994842529,3,3,3,3,-9.630000000000001,-1.75,0.6,-0.04,-0.02,0.02
3.285557985305786,3,3,3,3,-9.640000000000001,-1.72,0.65,0,0,0.01
3.295557975769043,3,3,3,3,-9.640000000000001,-1.75,0.66,-0.1,0,-0.01
3.3055579662323,3,3,3,3,-9.640000000000001,-1.79,0.53,-0.1,0.02,-0.01
3.315557956695557,3,3,3,3,-9.640000000000001,-1.79,0.59,-0.06,-0.03,0.01
3.325557947158813,3,3,3,3,-9.640000000000001,-1.75,0.6,-0.08,-0.02,0.01
3.33555793762207,3,3,3,3,-9.65,-1.72,0.61,-0.05,-0.01,0
3.345557928085327,3,3,3,3,-9.619999999999999,-1.71,0.66,-0.01,-0.03,-0.06
3.355557918548584,3,3,3,3,-9.630000000000001,-1.69,0.52,0.03,-0.04,-0.03
3.365557909011841,3,3,3,3,-9.630000000000001,-1.64,0.59,0.03,-0.03,0
3.375557899475098,3,3,3,3,-9.640000000000001,-1.63,0.61,0.03,-0.03,0
3.385557889938354,3,3,3,3,-9.66,-1.63,0.67,-0.07000000000000001,-0.01,-0.02
3.395557880401611,3,3,3,3,-9.630000000000001,-1.69,0.62,-0.05,-0.01,0.03
3.405557870864868,3,3,3,3,-9.630000000000001,-1.69,0.52,-0.09,-0.01,0.04
3.415557861328125,3,3,3,3,-9.65,-1.62,0.55,-0.09,-0.01,0.02
3.425557851791382,3,3,3,3,-9.619999999999999,-1.62,0.63,-0.06,0.01,0.03
3.435557842254639,3,3,3,3,-9.65,-1.63,0.65,-0.07000000000000001,-0.01,0.04
3.445558071136475,3,3,3,3,-9.67,-1.67,0.63,-0.06,-0.01,0.04
3.455558061599731,3,3,3,3,-9.640000000000001,-1.69,0.52,-0.05,0,0.02
3.465558052062988,3,3,3,3,-9.640000000000001,-1.68,0.57,0,0.01,0.04
3.475558042526245,3,3,3,3,-9.65,-1.69,0.63,0,0.01,0.04
3.485558032989502,3,3,3,3,-9.640000000000001,-1.69,0.64,0.04,-0.02,0.03
3.495558023452759,3,3,3,3,-9.609999999999999,-1.68,0.64,0.03,-0.03,0.03
3.505558013916016,3,3,3,3,-9.640000000000001,-1.66,0.5600000000000001,0.01,-0.02,0.02
3.515558004379272,3,3,3,3,-9.67,-1.67,0.61,-0.01,0,-0.01
3.525557994842529,3,3,3,2,-9.65,-1.65,0.62,-0.07000000000000001,-0.01,0.01
3.535557985305786,3,3,3,2,-9.630000000000001,-1.69,0.67,-0.11,-0.03,0.01
3.545557975769043,3,3,3,2,-9.640000000000001,-1.7,0.66,-0.1,-0.02,0.01
3.5555579662323,3,3,3,2,-9.619999999999999,-1.67,0.5600000000000001,-0.14,0,0
3.565557956695557,3,3,3,2,-9.640000000000001,-1.71,0.5600000000000001,-0.13,-0.01,-0.01
3.575557947158813,3,3,3,2,-9.609999999999999,-1.71,0.61,-0.13,-0.01,-0.01
3.58555793762207,3,3,3,2,-9.640000000000001,-1.73,0.63,-0.08,0.01,-0.03
3.595557928085327,3,3,3,2,-9.640000000000001,-1.69,0.65,-0.07000000000000001,-0.04,-0.06
3.605557918548584,3,3,3,2,-9.619999999999999,-1.76,0.58,-0.06,-0.02,-0.04
3.615557909011841,3,3,3,2,-9.640000000000001,-1.76,0.59,-0.01,0,-0.02
3.625557899475098,3,3,3,2,-9.609999999999999,-1.7,0.6,0,0,-0.03
3.635557889938354,3,3,3,2,-9.640000000000001,-1.72,0.64,-0.04,-0.04,0
3.645557880401611,3,3,3,2,-9.619999999999999,-1.71,0.64,-0.09,-0.02,-0.03
3.655557870864868,3,3,3,2,-9.609999999999999,-1.72,0.53,-0.09,0.05,-0.05
3.665557861328125,3,3,3,2,-9.65,-1.69,0.58,-0.03,0.05,-0.05
3.675557851791382,3,3,3,2,-9.630000000000001,-1.71,0.62,-0.03,0.02,-0.05
3.685557842254639,3,3,3,2,-9.65,-1.71,0.61,-0.04,-0.02,-0.04
3.695558071136475,3,3,3,2,-9.65,-1.68,0.65,-0.04,0.01,-0.04
3.705558061599731,3,3,3,2,-9.640000000000001,-1.66,0.52,-0.06,0.01,-0.02
3.715558052062988,3,3,3,2,-9.630000000000001,-1.67,0.59,-0.09,0.02,0
3.725558042526245,3,3,3,2,-9.640000000000001,-1.67,0.61,-0.06,0.02,-0.04
3.735558032989502,3,3,3,2,-9.65,-1.65,0.63,-0.1,-0.03,-0.01
3.745558023452759,3,3,3,2,-9.65,-1.7,0.5600000000000001,-0.08,-0.02,-0.02
3.755558013916016,3,3,3,2,-9.640000000000001,-1.66,0.53,0,0,-0.05
3.765558004379272,3,3,3,2,-9.67,-1.66,0.54,-0.02,0.01,-0.05
3.775557994842529,3,3,3,2,-9.67,-1.69,0.64,0,0.04,-0.05
3.785557985305786,3,3,3,2,-9.630000000000001,-1.64,0.62,0.01,0.01,-0.03
3.795557975769043,3,3,3,2,-9.619999999999999,-1.62,0.65,0.02,0.03,-0.03
3.8055579662323,3,3,3,2,-9.640000000000001,-1.65,0.53,-0.02,0.02,-0.02
3.815557956695557,3,3,3,2,-9.67,-1.61,0.52,-0.05,0.02,0.01
3.825557947158813,3,3,3,2,-9.640000000000001,-1.74,0.6,-0.11,0.03,0.02
3.83555793762207,3,3,3,2,-9.65,-1.78,0.63,-0.04,0.04,-0.03
3.845557928085327,3,3,3,2,-9.640000000000001,-1.72,0.6,-0.01,0,-0.04
3.855557918548584,3,3,3,2,-9.65,-1.72,0.52,-0.01,0.01,-0.03
3.865557909011841,3,3,3,2,-9.619999999999999,-1.69,0.6,-0.01,0.01,-0.05
3.875557899475098,3,3,3,2,-9.630000000000001,-1.67,0.63,-0.01,0.01,-0.05
3.885557889938354,3,3,3,2,-9.640000000000001,-1.67,0.63,0,0.01,-0.02
3.895557880401611,3,3,3,2,-9.65,-1.62,0.66,0.03,0.02,-0.04
3.906558036804199,3,3,3,2,-9.65,-1.65,0.54,0.02,0.02,-0.04
3.916558027267456,3,3,3,2,-9.65,-1.67,0.58,0.01,0,-0.03
3.926558017730713,3,3,3,2,-9.66,-1.67,0.58,0.07000000000000001,0,-0.01
3.93655800819397,3,3,3,2,-9.65,-1.63,0.59,0.07000000000000001,0.02,0.02
3.946557998657227,3,3,3,2,-9.65,-1.73,0.54,0.06,0,0.02
3.956557989120483,3,3,3,2,-9.630000000000001,-1.69,0.45,0.07000000000000001,-0.03,0.01
3.96655797958374,3,3,3,2,-9.66,-1.66,0.53,0.04,-0.02,0
3.976557970046997,3,3,3,2,-9.619999999999999,-1.69,0.58,0.04,-0.02,0
3.986557960510254,3,3,3,2,-9.66,-1.7,0.62,0.04,0,-0.03
3.996557950973511,3,3,3,2,-9.640000000000001,-1.69,0.62,0.03,0.01,0
4.006557941436768,3,3,3,2,-9.65,-1.72,0.54,0.07000000000000001,-0.02,0.01
4.016557931900024,3,3,3,2,-9.65,-1.7,0.5600000000000001,0.13,-0.02,0
4.026557922363281,3,3,3,2,-9.65,-1.61,0.6,0.13,-0.04,-0.03
4.036557912826538,3,3,3,2,-9.640000000000001,-1.65,0.63,0.07000000000000001,-0.02,-0.03
4.046557903289795,3,3,3,2,-9.6,-1.64,0.63,0.08,-0.03,0.01
4.056557893753052,3,3,3,2,-9.640000000000001,-1.56,0.51,0.03,0,0
4.066557884216309,3,3,3,2,-9.66,-1.62,0.55,-0.02,-0.01,0.02
4.076557874679565,3,3,3,2,-9.67,-1.63,0.64,-0.02,0,0.02
4.086557865142822,3,3,3,2,-9.65,-1.56,0.6,-0.09,0.04,0.04
4.096557855606079,3,3,3,2,-9.640000000000001,-1.77,0.55,-0.02,0.03,0
4.106557846069336,3,3,3,2,-9.65,-1.81,0.52,0.03,0.03,0.02
4.116558074951172,3,3,3,2,-9.630000000000001,-1.73,0.51,0,0.02,0.05
4.126558065414429,3,3,3,2,-9.619999999999999,-1.8,0.57,0.08,0,0.04
4.136558055877686,3,3,3,2,-9.630000000000001,-1.67,0.55,0.06,0.01,0.04
4.146558046340942,3,3,3,2,-9.630000000000001,-1.72,0.57,0.01,0.01,0.09
4.156558036804199,3,3,3,2,-9.67,-1.74,0.49,0.02,0,0.11
4.166558027267456,3,3,3,2,-9.65,-1.73,0.57,0.04,0.01,0.1
4.176558017730713,3,3,3,2,-9.630000000000001,-1.79,0.6,0.01,0,0.09
4.18655800819397,3,3,3,2,-9.630000000000001,-1.75,0.64,0.06,-0.02,0.07000000000000001
4.196557998657227,3,3,3,2,-9.640000000000001,-1.76,0.62,0.09,-0.02,0.07000000000000001
4.206557989120483,3,3,3,2,-9.65,-1.64,0.52,-0.03,-0.02,0.1
4.21655797958374,3,3,3,2,-9.619999999999999,-1.74,0.58,0,-0.04,0.08
4.226557970046997,3,3,3,2,-9.59,-1.78,0.61,-0.09,-0.02,0.11
4.236557960510254,3,3,3,2,-9.630000000000001,-1.76,0.6,-0.09,-0.04,0.14
4.246557950973511,3,3,3,2,-9.6,-1.8,0.63,-0.04,-0.07000000000000001,0.14
4.256557941436768,3,3,3,2,-9.68,-1.73,0.57,-0.16,-0.04,0.15
4.266557931900024,3,3,3,2,-9.619999999999999,-1.69,0.5600000000000001,-0.17,-0.02,0.14
4.276557922363281,3,3,3,2,-9.640000000000001,-1.7,0.57,-0.16,0.01,0.17
4.286557912826538,3,3,3,2,-9.640000000000001,-1.72,0.63,-0.17,-0.03,0.17
4.296557903289795,3,3,3,2,-9.619999999999999,-1.7,0.57,-0.26,0.01,0.22
4.306557893753052,3,3,3,2,-9.619999999999999,-1.81,0.62,-0.2,0.02,0.19
4.316557884216309,3,3,3,2,-9.630000000000001,-1.62,0.59,-0.11,0.04,0.23
4.326557874679565,3,3,3,2,-9.630000000000001,-1.62,0.59,-0.11,0.04,0.23
4.336557865142822,3,3,3,2,-9.59,-1.66,0.72,-0.18,0.08,0.29
4.346557855606079,3,3,3,2,-9.630000000000001,-1.8,0.6,-0.14,0.16,0.38
4.356557846069336,3,3,3,2,-9.58,-1.69,0.59,0.08,0.11,0.44
4.366558074951172,3,3,3,2,-9.59,-1.79,0.67,0.12,0.12,0.47
4.376558065414429,3,3,3,2,-9.59,-1.79,0.67,0.12,0.12,0.47
4.386558055877686,3,3,3,2,-9.630000000000001,-1.73,0.64,0.25,0.07000000000000001,0.48
4.396558046340942,3,3,3,2,-9.619999999999999,-1.83,0.55,0.22,0.12,0.53
4.406558036804199,3,3,3,2,-9.67,-1.88,0.6,0.2,0.11,0.57
4.416558027267456,3,3,3,2,-9.619999999999999,-1.74,0.59,0.12,0.17,0.59
4.426558017730713,3,3,3,2,-9.619999999999999,-1.74,0.59,0.12,0.17,0.59
4.43655800819397,3,3,3,2,-9.68,-1.85,0.58,0.25,0.13,0.58
4.446557998657227,3,3,3,2,-9.699999999999999,-1.73,0.5,0.33,0.09,0.6
4.456557989120483,3,3,3,2,-9.67,-1.51,0.44,0.41,0.07000000000000001,0.53
4.46655797958374,3,3,3,2,-9.66,-1.49,0.52,0.21,0.1,0.57
4.476557970046997,3,3,3,2,-9.66,-1.49,0.52,0.21,0.1,0.57
4.486557960510254,3,3,3,2,-9.67,-1.49,0.55,0.17,0.11,0.5600000000000001
4.496557950973511,3,3,3,2,-9.67,-1.43,0.45,0.04,0.03,0.54
4.506557941436768,3,3,3,2,-9.699999999999999,-1.34,0.4,0.07000000000000001,0.02,0.47
4.516557931900024,3,3,3,2,-9.67,-1.27,0.49,-0.06,-0.02,0.47
4.526557922363281,3,3,3,2,-9.67,-1.27,0.49,-0.09,-0.05,0.41
4.536557912826538,3,3,3,2,-9.66,-1.38,0.5600000000000001,-0.29,-0.06,0.37
4.546557903289795,3,3,3,2,-9.69,-1.43,0.49,-0.43,-0.05,0.37
4.556557893753052,3,3,3,2,-9.66,-1.29,0.45,-0.49,-0.06,0.32
4.566557884216309,3,3,3,2,-9.67,-1.39,0.55,-0.58,-0.09,0.28
4.576557874679565,3,3,3,2,-9.67,-1.39,0.55,-0.58,-0.09,0.28
4.586557865142822,3,3,3,2,-9.66,-1.23,0.51,-0.5600000000000001,-0.11,0.27
4.596557855606079,3,3,3,2,-9.66,-1.39,0.54,-0.6899999999999999,-0.15,0.24
4.606557846069336,3,3,3,2,-9.67,-1.21,0.53,-0.85,-0.11,0.24
4.616558074951172,3,3,3,2,-9.699999999999999,-1.41,0.68,-0.8,-0.07000000000000001,0.24
4.626558065414429,3,3,3,2,-9.699999999999999,-1.41,0.68,-0.8,-0.07000000000000001,0.24
4.636558055877686,3,3,3,2,-9.609999999999999,-1.35,0.68,-0.73,-0.06,0.27
4.646558046340942,3,3,3,2,-9.710000000000001,-1.5,0.55,-0.68,0.02,0.21
4.656558036804199,3,3,3,2,-9.720000000000001,-1.62,0.52,-0.7,0.04,0.23
4.666558027267456,3,3,3,2,-9.65,-1.52,0.61,-0.58,0.07000000000000001,0.23
4.676558017730713,3,3,3,2,-9.65,-1.52,0.61,-0.43,0.1,0.16
4.68655800819397,3,3,3,2,-9.69,-1.49,0.68,-0.23,0.09,0.12
4.696557998657227,3,3,3,2,-9.619999999999999,-1.55,0.55,-0.13,0.07000000000000001,0.09
4.706557989120483,3,3,3,2,-9.640000000000001,-1.58,0.62,-0.01,0.14,0.1
4.71655797958374,3,3,3,2,-9.640000000000001,-1.53,0.73,0.14,0.12,0.07000000000000001
4.726557970046997,3,3,3,2,-9.619999999999999,-1.3,0.61,0.1,0.12,0.08
4.736557960510254,3,3,3,2,-9.68,-1.45,0.6899999999999999,0.07000000000000001,0.18,0.13
4.746557950973511,3,3,3,2,-9.65,-1.4,0.54,0.03,0.17,0.18
4.756557941436768,3,3,3,2,-9.640000000000001,-1.46,0.57,0.01,0.2,0.19
4.766557931900024,3,3,3,2,-9.619999999999999,-1.38,0.63,0.06,0.24,0.2
4.776557922363281,3,3,3,2,-9.619999999999999,-1.38,0.63,0.12,0.26,0.2
4.786557912826538,3,3,3,2,-9.65,-1.35,0.62,0.07000000000000001,0.24,0.22
4.796557903289795,3,3,3,2,-9.66,-1.3,0.59,-0.08,0.24,0.25
4.806557893753052,3,3,3,2,-9.640000000000001,-1.32,0.58,-0.26,0.24,0.3
4.816557884216309,3,3,3,2,-9.67,-1.24,0.53,-0.33,0.28,0.37
4.826557874679565,3,3,3,2,-9.67,-1.24,0.53,-0.33,0.28,0.37
4.836557865142822,3,3,3,2,-9.68,-1.39,0.6,-0.43,0.28,0.49
4.846557855606079,3,3,3,2,-9.65,-1.23,0.41,-0.47,0.37,0.52
4.886558055877686,3,3,3,2,-9.609999999999999,-1.48,0.5,-0.42,0.45,0.89
4.896558046340942,3,3,3,2,-9.65,-1.36,0.4,-0.04,0.45,1.12
4.906558036804199,3,3,3,2,-9.619999999999999,-1.09,0.49,0.06,0.28,1.24
4.916558027267456,3,3,3,2,-9.630000000000001,-0.7,0.62,0.37,0.18,1.34
4.926558017730713,3,3,3,2,-9.56,-0.23,0.7,0.6,0.08,1.53
4.937557935714722,3,3,3,2,-9.529999999999999,0.22,0.82,0.62,0.03,1.8
4.947557926177979,3,3,3,2,-9.48,-0.4,0.76,0.07000000000000001,0.13,2.3
4.957557916641235,3,3,3,2,-9.460000000000001,-0.07000000000000001,0.72,-0.02,0.28,2.65
4.967557907104492,3,3,3,2,-9.49,0.38,0.85,0.42,0.37,2.95
4.977557897567749,3,3,3,2,-9.43,0.87,0.96,0.89,0.45,3.27
4.987557888031006,3,3,3,2,-9.390000000000001,2.03,0.99,1.13,0.49,3.73
4.997557878494263,3,3,3,2,-9.34,2.47,1.07,1.1,0.43,4.4
5.00755786895752,3,3,3,2,-9.24,2.91,1.26,0.64,0.23,5.3
5.017557859420776,3,3,3,2,-9.1,2.73,1.71,0.04,0.26,6.24
5.027557849884033,3,3,3,3,-8.94,2.66,1.23,-0.51,0.33,7.06
5.03755784034729,3,3,3,3,-8.85,2.61,1.11,-0.68,0.23,7.7
5.047558069229126,3,3,3,3,-8.67,2.99,0.99,-0.16,0.09,8.470000000000001
5.057558059692383,3,3,3,3,-8.5,3.57,1.08,0.58,-0.01,9.210000000000001
5.06755805015564,3,3,3,3,-8.33,3.28,1.21,0.49,0.22,9.960000000000001
5.077558040618896,3,3,3,3,-8.300000000000001,3.45,1.05,0.64,0.2,10.52
5.087558031082153,3,3,3,3,-8.119999999999999,2.62,1.24,0.2,0.01,11.24
5.09755802154541,3,3,3,3,-7.86,2.34,0.98,0.93,0.18,11.64
5.107558012008667,3,3,3,3,-8.109999999999999,1.72,0.74,2.46,0.85,11.58
5.117558002471924,3,3,3,3,-8.279999999999999,0.64,0.52,2.78,0.87,11.62
5.127557992935181,3,3,3,3,-8.300000000000001,0.04,-0.24,3.38,0.5600000000000001,11.67
5.137557983398438,3,3,3,3,-8.08,-0.4,-0.4,4.2,0.76,11.44
5.147557973861694,3,3,3,3,-8.779999999999999,-1.77,-0.61,4.57,1.12,11.27
5.157557964324951,3,3,3,3,-8.92,-1.78,-0.46,5.14,0.92,11.08
5.167557954788208,3,3,3,3,-8.85,-1.52,-0.73,6.9,1.07,10.83
5.177557945251465,3,3,3,3,-8.960000000000001,-0.77,-0.72,9.01,1.3,10.72
5.187557935714722,3,3,3,3,-9.630000000000001,-0.45,-1.11,9.65,1.77,10.44
5.197557926177979,3,3,3,3,-10.31,0.21,-1.24,9.550000000000001,2.36,9.91
5.207557916641235,3,3,3,3,-10.83,0.5600000000000001,-0.74,9.43,2.79,9.19
5.217557907104492,3,3,3,3,-10.77,0.02,-0.75,8.029999999999999,3.5,8.99
5.227557897567749,3,3,3,3,-10.55,0.55,-0.6899999999999999,6.15,3.78,9.33
5.237557888031006,3,3,3,3,-10.49,0.89,-0.18,5.01,4.56,9.84
5.247557878494263,3,3,3,3,-10.57,0.86,0.26,4.14,5.02,10.41
5.25755786895752,3,3,3,3,-9.81,0.5600000000000001,1.13,3.21,4.92,10.79
5.267557859420776,3,3,3,3,-9.529999999999999,0.62,1.37,2.75,4.96,10.65
5.277557849884033,3,3,3,3,-9.34,0.9,1.32,3.08,4.79,10.08
5.28755784034729,3,3,3,3,-9.289999999999999,0.5600000000000001,1.27,3.3,4.5,9.630000000000001
5.297558069229126,3,3,3,3,-9.52,0.95,0.06,3.42,3.9,9.19
5.307558059692383,3,3,3,3,-9.68,1.15,-0.11,3.71,3.21,8.699999999999999
5.31755805015564,3,3,3,3,-9.94,1.06,-0.25,3.26,2.63,8.210000000000001
5.327558040618896,3,3,3,3,-9.82,0.79,-0.65,2.09,2.13,7.7
5.337558031082153,3,3,3,3,-9.91,0.11,-2.13,0.46,1.82,6.95
5.34755802154541,3,3,3,3,-10.57,0.99,-2.32,-0.04,1.63,5.62
5.357558012008667,3,3,3,3,-11.59,1.37,-2.14,0.75,1.63,4.15
5.367558002471924,3,3,3,3,-12.28,1.98,-2.17,0.95,1.48,3.04
5.377557992935181,3,3,3,3,-12.46,0.97,-1.99,0.25,1.92,2.29
5.387557983398438,3,3,3,3,-12.3,-0.02,-2.15,-1.42,2.18,1.71
5.397557973861694,3,3,3,3,-12.46,-0.1,-2.21,-1.72,1.96,0.99
5.407557964324951,3,3,3,3,-13.49,-0.38,-1.58,-1.14,2.02,0.01
5.417557954788208,3,3,3,3,-14.45,-1.45,-0.4,-0.91,1.28,-1.23
5.427557945251465,3,3,3,3,-14.72,-1.59,0.22,-0.9399999999999999,0.61,-2.5
5.437557935714722,3,3,3,3,-15.21,-2.22,1.37,-1.21,0.14,-3.51
5.447557926177979,3,3,3,3,-15.54,-2.81,2.23,-1.16,-0.6,-4.57
5.457557916641235,3,3,3,3,-16.23,-2.5,3.93,-0.38,-1.57,-5.85
5.467557907104492,3,3,3,3,-16.6,-2.85,5,-0.17,-2.97,-7.27
5.477557897567749,3,3,3,2,-17.05,-3.25,5.11,-0.4,-4.71,-8.81
5.487557888031006,3,3,3,2,-17.83,-3.36,4.76,-0.64,-6.86,-10.52
5.497557878494263,3,3,3,2,-19.61,-4.28,3.84,-0.95,-8.779999999999999,-12.07
5.50755786895752,3,3,3,2,-20.26,-5.23,2.66,-1.49,-9.960000000000001,-13.35
5.517557859420776,3,3,3,2,-20.99,-6.39,1.76,-1.89,-10.99,-14.35
5.527557849884033,3,3,3,2,-22.47,-8.869999999999999,-0.93,-1.81,-11.77,-15.37
5.53755784034729,3,3,3,2,-23.48,-10.18,-1.07,-0.58,-11.09,-16.52
5.547558069229126,3,3,3,2,-23.78,-11.69,-2.45,-0.21,-10.66,-17.93
5.557558059692383,3,3,3,2,-24.09,-12.94,-4.29,0.3,-9.960000000000001,-19.87
5.56755805015564,3,3,3,2,-24.78,-12.93,-5.76,1.05,-8.93,-22.4
5.577558040618896,3,3,3,2,-25.38,-12.23,-7.22,2.68,-7.7,-25.18
5.587558031082153,3,3,3,2,-25.34,-8.85,-8.65,5.55,-6.65,-28.14
5.59755802154541,3,3,3,2,-25.17,-1.66,-8.859999999999999,7.29,-5.93,-30
5.607558012008667,3,3,3,2,-20.8,4.86,-4.1,4.98,-5.09,-29.23
5.617558002471924,3,3,3,2,-16.43,4.28,-2.74,5.73,-3.65,-27.52
5.627557992935181,3,3,3,2,-13.08,1.28,-3.9,7.62,-0.75,-26.5
5.637557983398438,3,3,3,2,-9.82,0.83,-5.68,13.8,1,-25.67
5.647557973861694,3,3,3,2,-8.68,39.22,2.31,32.09,-0.07000000000000001,-25.91
5.657557964324951,3,3,3,2,-7.15,39.22,20.46,24.61,-7.08,-17.33
5.667557954788208,3,3,3,2,2.58,39.18,15.82,-1.29,-7.71,-3.31
5.677557945251465,3,3,3,2,6.94,27.12,8.65,-16.19,6.12,3.08
5.687557935714722,3,3,3,2,-3.64,-9.66,2.14,-16.8,10.33,10.59
5.697557926177979,3,3,3,2,-10.61,-7.89,2.71,-7.68,8.869999999999999,10.58
5.707557916641235,3,3,3,2,-8.970000000000001,-5.32,5,6.47,4.31,5.95
5.717557907104492,3,3,3,2,-2.3,0.05,2.44,15.36,0.41,5.57
5.727557897567749,3,3,3,2,0.15,-1.2,-3.57,10.2,1.61,9.42
5.737557888031006,3,3,3,2,0.42,-3.99,-5.16,-0.86,-0.39,12.59
5.747557878494263,3,3,3,2,-0.55,-7.52,-4.54,-9.1,-3.1,12.42
5.75755786895752,3,3,3,2,-1.33,-7.7,-4.76,-7.2,-2.79,9.49
5.767557859420776,3,3,3,2,-2,-6.72,-0.93,-3.97,-1.8,7.34
5.777557849884033,3,3,3,1,-1.98,-4.64,-0.63,2.7,-1.57,6.05
5.78755784034729,3,3,3,1,-0.8,-2.29,-1.31,9.24,-2.63,4.9
5.797558069229126,3,3,3,1,0.8,-1.71,-1.42,9.48,-3.98,4.91
5.807558059692383,3,3,3,1,2.36,-3.54,-0.29,7.82,-4.78,5.03
5.81755805015564,3,3,3,1,2.81,-4.75,-0.65,7.67,-4.6,5.11
5.827558040618896,3,3,3,1,2.85,-4.63,-0.6899999999999999,10.47,-2.96,5.1
5.837558031082153,3,3,3,1,2.64,-2.86,0,13.39,-1.03,5.47
5.84755802154541,3,3,3,1,1.41,1.71,1.01,12.35,0.35,6.6
5.857558012008667,3,3,3,1,0.5,3.68,0.61,7.28,1.66,7.57
5.867558002471924,3,3,3,1,-0.75,3.69,0.46,-1.59,2.69,7.88
5.877557992935181,3,3,3,1,-0.61,-2.59,0.51,-10.57,2.81,6.9
5.887557983398438,3,3,3,1,-0.8100000000000001,-4.06,-1.5,-13.37,3.36,4.97
5.897557973861694,3,3,3,1,-1.01,-5.09,-2.63,-12.35,3.42,2.85
5.907557964324951,3,3,3,1,-0.51,-5.55,-2.97,-9.1,2.06,1.13
5.917557954788208,3,3,3,1,0.44,-3.45,-2.91,-4.69,0.87,0.01
5.927557945251465,3,3,3,1,0.73,-1.98,-3.02,-1.89,0.24,-0.35
5.937557935714722,3,3,3,1,0.67,-0.71,-3.11,-0.99,0.19,-0.17
5.947557926177979,3,3,3,1,0.74,0.3,-3,-1.21,0.18,0.12
5.958557844161987,3,3,3,1,0.28,1.61,-0.8100000000000001,-2.64,-0.12,0.58
5.968558073043823,3,3,3,1,-0.58,2.51,0.75,-4.31,-0.44,0.84
5.97855806350708,3,3,3,2,-1.12,3.23,2.5,-3.95,-1.24,0.84
5.988558053970337,3,3,3,2,-1.62,3.53,3.19,-3.63,-2.07,0.57
5.998558044433594,3,3,3,2,-2.58,8.960000000000001,-0.16,-3.8,-2.22,-0.07000000000000001
6.008558034896851,3,3,3,2,-5.28,22.86,2.76,-1.04,-2.47,-1.23
6.018558025360107,3,3,3,2,-6.53,27.88,10.75,5.78,-5.56,-1.25
6.028558015823364,3,3,3,2,-4.08,3.91,12.36,-9.550000000000001,-1.43,-3.15
6.038558006286621,3,3,3,2,-17.8,-21.38,-4.5,-21.96,5.29,-5.55
6.048557996749878,3,3,3,2,-26.87,-0.14,-1.9,0.52,1.31,-8.44
6.058557987213135,3,3,3,2,-30.03,5.88,3.84,27.97,-1.13,-4.56
6.068557977676392,3,3,3,2,-28,-2.75,-6.71,15.28,5.25,7.49
6.078557968139648,3,3,3,2,-10.49,-3.59,-16.74,10.29,9.550000000000001,14.51
6.088557958602905,3,3,3,2,-27.81,34.84,-31.23,31.2,8.76,10.12
6.098557949066162,3,3,3,2,-39.33,39.22,32.89,71.29000000000001,3.48,4.99
6.108557939529419,3,3,3,2,-39.25,28.25,17.56,-51.97,0.64,27.13
6.118557929992676,3,3,3,2,-6.09,-37.99,-8.630000000000001,-99.67,9.23,24.6
6.128557920455933,3,3,3,2,-3.46,-39.22,-17.27,-118.3,14.43,26.21
6.138557910919189,3,3,3,2,-2.83,-39.14,-11.18,-49.83,5.28,16.66
6.148557901382446,3,3,3,2,-3.95,-33.98,-9.869999999999999,57.36,8.359999999999999,6.83
6.158557891845703,3,3,3,2,-19.99,5.33,0.19,90.39,8.66,-2.9
6.16855788230896,3,3,3,2,-27.61,14.85,4.23,80.34999999999999,-0.74,-11.62
6.178557872772217,3,3,3,2,-26.37,22.26,3.75,51.31,-8.75,-14.98
6.188557863235474,3,3,3,2,-19.92,18.15,2.5,7.78,-7.24,-8.609999999999999
6.19855785369873,3,3,3,2,-21.57,-6.91,-1.35,-22.19,-0.02,2.1
6.208557844161987,3,3,3,2,-17.67,-9.99,-3.11,-30.22,2.11,7.62
6.218558073043823,3,3,3,2,-10.97,-9.08,-2.96,-23.67,1.87,6.81
6.22855806350708,3,3,3,2,-7.79,-3.62,0.74,-14.01,0.51,3.15
6.238558053970337,3,3,3,2,-9.699999999999999,-2,1.28,-9.58,0.03,-1.16
6.248558044433594,3,3,3,2,-11.51,-0.63,0.67,-8.42,-0.28,-3.97
6.258558034896851,3,3,3,2,-12.61,0.3,0.17,-9.34,-0.8,-6.2
6.268558025360107,3,3,3,2,-12.43,-2.85,-0.32,-11.83,-1.08,-8.279999999999999
6.278558015823364,3,3,3,1,-11.5,-5.09,-0.23,-11.4,-1.02,-9.66
6.288558006286621,3,3,3,1,-10.22,-6.07,-0.19,-7,-1.03,-9.539999999999999
6.298557996749878,3,3,3,1,-9.17,-5.48,-0.47,-0.29,-1.26,-8.25
6.308557987213135,3,3,3,1,-8.57,-1.81,-0.65,5.12,-1.18,-6.88
6.318557977676392,3,3,3,1,-8.720000000000001,0.13,-0.62,8.140000000000001,-0.8,-6.28
6.328557968139648,3,3,3,1,-8.68,1.43,-0.19,8.17,-0.45,-6.12
6.338557958602905,3,3,3,1,-8.619999999999999,2.35,0.2,5.58,-0.19,-5.76
6.348557949066162,3,3,3,1,-8.16,3.04,0.91,1.64,-0.34,-5.28
6.358557939529419,3,3,3,1,-8.039999999999999,3.35,1.24,-2.18,-0.5600000000000001,-5.24
6.368557929992676,3,3,3,1,-8.06,3.53,1.63,-5.08,-0.48,-5.87
6.378557920455933,3,3,3,1,-8.25,3.56,2.12,-7.17,-0.4,-6.54
6.388557910919189,3,3,3,1,-8.279999999999999,2.37,2.61,-8.73,-0.37,-6.69
6.41855788230896,3,3,3,1,-8.08,-0.79,1.49,-7.28,0.6899999999999999,-5.1
6.428557872772217,3,3,3,1,-8.369999999999999,-0.7,0.82,-3.51,1.03,-4.61
6.438557863235474,3,3,3,1,-8.369999999999999,0,0.51,0.9,0.83,-4.02
6.44855785369873,3,3,3,1,-8.31,0.91,0.21,4.41,0.48,-3.4
6.458557844161987,3,3,3,1,-8.220000000000001,2.05,-0.01,6.33,0.15,-3
6.468558073043823,3,3,3,1,-8.48,3.41,-0.36,6.38,-0.08,-2.72
6.47855806350708,3,3,3,1,-8.619999999999999,3.22,-0.36,4.68,-0.19,-2.51
6.488558053970337,3,3,3,1,-8.74,2.86,-0.54,2.57,-0.06,-2.27
6.498558044433594,3,3,3,1,-8.85,2.99,-0.67,1.31,0.22,-2.11
6.508558034896851,3,3,3,1,-9.44,3.05,0.13,-0.12,0.46,-2.06
6.538558006286621,3,3,3,1,-9.449999999999999,1.3,0.96,-6.49,0.71,-1.42
6.548557996749878,3,3,3,1,-9.49,-0.01,0.98,-7.44,0.83,-1.21
6.558557987213135,3,3,3,1,-9.470000000000001,-0.8,0.9399999999999999,-7.43,0.83,-0.95
6.568557977676392,3,3,3,1,-9.65,-1.54,0.87,-6.85,0.85,-0.6
6.578557968139648,3,3,3,1,-9.94,-2.4,0.73,-6.16,0.72,-0.28
6.588557958602905,3,3,3,1,-10.08,-3.27,0.51,-4.65,0.7,-0.32
6.598557949066162,3,3,3,1,-10.15,-2.93,0.41,-2.18,0.8,-0.64
6.608557939529419,3,3,3,1,-10.18,-2.21,0.7,0.28,0.67,-1.04
6.618557929992676,3,3,3,1,-9.85,-0.58,0.72,1.92,0.49,-1.33
6.628557920455933,3,3,3,1,-9.699999999999999,0.13,0.52,2.28,0.33,-1.34
6.638557910919189,3,3,3,1,-9.57,0.6899999999999999,0.23,2.02,0.17,-1.08
6.648557901382446,3,3,3,1,-9.550000000000001,0.95,-0.06,1.32,0.04,-0.66
6.658557891845703,3,3,3,1,-9.550000000000001,1.19,-0.05,0.66,-0.09,-0.21
6.66855788230896,3,3,3,1,-9.640000000000001,0.87,0.03,0.24,-0.14,0.17
6.678557872772217,3,3,3,1,-9.67,0.33,-0.06,0.06,-0.14,0.42
6.688557863235474,3,3,3,1,-9.6,-0.17,-0.12,0.36,-0.18,0.44
6.69855785369873,3,3,3,1,-9.59,-0.51,0.14,1.23,-0.19,0.31
6.708557844161987,3,3,3,1,-9.73,-0.39,0.45,1.94,-0.07000000000000001,0.06
6.718558073043823,3,3,3,1,-9.77,-0.51,0.5,2.11,-0.17,0.02
6.72855806350708,3,3,3,1,-9.76,-0.83,0.46,1.95,-0.39,0.12
6.738558053970337,3,3,3,1,-9.52,-1.27,0.27,1.87,-0.45,0.17
6.748558044433594,3,3,3,1,-9.48,-1.71,0.15,1.5,-0.44,0.28
6.758558034896851,3,3,3,1,-9.32,-1.86,0.02,1.46,-0.46,0.42
6.768558025360107,3,3,3,1,-9.289999999999999,-1.66,-0.03,1.74,-0.39,0.51
6.778558015823364,3,3,3,2,-9.76,-1.21,-0.1,1.53,-0.43,0.61
6.788558006286621,3,3,3,2,-9.84,-1.16,-0.07000000000000001,0.6899999999999999,-0.5600000000000001,0.59
6.798557996749878,3,3,3,2,-9.949999999999999,-1.02,0.02,0.34,-0.41,0.44
6.808557987213135,3,3,3,2,-10.2,-0.97,0.26,0.3,-0.15,0.29
6.818557977676392,3,3,3,2,-10.25,-1.24,0.35,0.17,-0.16,0.16
6.828557968139648,3,3,3,2,-10.15,-1.24,0.36,0.22,-0.16,0.07000000000000001
6.838557958602905,3,3,3,2,-10.07,-1.58,0.41,-0.09,-0.06,0.01
6.848557949066162,3,3,3,2,-9.880000000000001,-1.66,0.3,-0.25,0,0.01
6.858557939529419,3,3,3,2,-9.66,-1.39,0.31,-0.02,0.02,-0.08
6.868557929992676,3,3,3,2,-9.550000000000001,-1.01,0.32,0.29,0,-0.23
6.878557920455933,3,3,3,2,-9.609999999999999,-0.49,0.37,0.49,0.04,-0.39
6.888557910919189,3,3,3,2,-9.67,-0.04,0.5,0.17,-0.04,-0.35
6.898557901382446,3,3,3,2,-9.44,0.7,0.43,-0.39,-0.12,-0.16
6.908557891845703,3,3,3,2,-9.24,1.08,0.48,-0.96,-0.21,0.24
6.91855788230896,3,3,3,2,-9.06,1.48,0.64,-1.38,-0.28,0.6899999999999999
6.928557872772217,3,3,3,2,-8.970000000000001,1.63,0.9399999999999999,-1.66,-0.34,1.23
6.938557863235474,3,3,3,2,-8.619999999999999,1.69,1.23,-1.48,-0.33,1.68
6.94855785369873,3,3,3,2,-8.51,2.12,1.1,-1.05,-0.34,2.11
6.958557844161987,3,3,3,2,-8.49,2.26,1.21,-1.21,-0.38,2.58
6.968558073043823,3,3,3,2,-8.91,2.42,1.05,-1.71,-0.32,2.98
6.97855806350708,3,3,3,2,-9.130000000000001,2.26,0.9399999999999999,-2.46,-0.37,3.53
6.989557981491089,3,3,3,2,-9.19,2.13,0.79,-2.52,-0.27,4.09
6.999557971954346,3,3,3,2,-9.130000000000001,2.17,0.63,-1.89,-0.08,4.61
7.009557962417603,3,3,3,2,-8.58,2.86,0.62,-0.86,0.03,5.22
7.019557952880859,3,3,3,2,-8.23,3.3,0.59,0.22,0.05,6.02
7.029557943344116,3,3,3,2,-7.75,3.73,0.62,1.25,0.11,7.02
7.039557933807373,3,3,3,2,-7.31,3.94,0.66,1.85,0.37,8.18
7.04955792427063,3,3,3,2,-7.02,2.16,0.53,1.22,0.68,9.369999999999999
7.059557914733887,3,3,3,2,-6.68,0.67,0.59,0.09,0.6899999999999999,10.04
7.069557905197144,3,3,3,2,-6.6,-0.13,0.1,0.6899999999999999,1.08,9.949999999999999
7.0795578956604,3,3,3,2,-7.15,-0.41,-0.25,2.68,1.28,9.56
7.089557886123657,3,3,3,2,-8.25,-1.13,-0.29,4.42,0.49,9.17
7.099557876586914,3,3,3,2,-8.24,-0.95,-0.25,6.17,-0.11,8.75
7.109557867050171,3,3,3,2,-8.43,-0.07000000000000001,-0.57,8.359999999999999,0.55,8.460000000000001
7.119557857513428,3,3,3,2,-9.31,1.13,-0.95,9.970000000000001,1.61,8.48
7.129557847976685,3,3,3,2,-10.24,2.27,0.92,9.699999999999999,1.78,8.98
7.139557838439941,3,3,3,2,-10.23,1.58,0.9399999999999999,6.77,2.05,9.859999999999999
7.149558067321777,3,3,3,2,-9.91,0.67,0.45,4.08,2.64,10.88
7.159558057785034,3,3,3,2,-9.31,0.08,0.2,3.78,3.51,11.48
7.169558048248291,3,3,3,2,-9.33,0.6,-0.21,4.79,4.16,11.76
7.179558038711548,3,3,3,2,-9.24,1.07,0.22,5.76,4.28,12.09
7.189558029174805,3,3,3,2,-9.800000000000001,1.25,0.04,5.61,4.62,12.31
7.199558019638062,3,3,3,2,-10.2,1.94,0.44,4.13,4.45,11.98
7.209558010101318,3,3,3,2,-10.38,0.5600000000000001,0.44,0.82,4.44,11.56
7.219558000564575,3,3,3,2,-10.28,0.57,-0.29,-1.36,4.05,11.01
7.229557991027832,3,3,3,2,-10.35,0.63,-0.89,-2.71,4.15,10.59
7.239557981491089,3,3,3,2,-10.7,0.71,-0.98,-3.22,4.39,10.13
7.249557971954346,3,3,3,2,-10.96,0.4,-1.01,-2.97,4.32,9.51
7.259557962417603,3,3,3,2,-10.82,0.19,-0.73,-2.3,4.03,8.720000000000001
7.269557952880859,3,3,3,2,-10.72,-0.08,-0.77,-1.46,3.79,7.73
7.279557943344116,3,3,3,1,-11.21,-0.66,-1.05,-0.63,3.5,6.04
7.289557933807373,3,3,3,1,-12.51,-1.43,-1.72,0.35,2.66,3.9
7.29955792427063,3,3,3,1,-13.52,-1.19,-1.54,1.02,1.98,1.83
7.309557914733887,3,3,3,1,-14.21,-1.1,-1.49,1.27,1.27,0.08
7.319557905197144,3,3,3,1,-15.78,-0.85,-0.6899999999999999,1.23,1.07,-1.23
7.3295578956604,3,3,3,1,-16.63,-0.75,0.32,1.57,1.14,-2.25
7.339557886123657,3,3,3,1,-16.77,-1.07,1.63,1.57,0.75,-2.87
7.349557876586914,3,3,3,1,-16.64,-1.63,2.68,1.42,0.2,-3.5
7.379557847976685,3,3,3,0,-17.14,-2.53,3.47,0.54,-3.57,-7.25
7.389557838439941,3,3,3,0,-17.4,-2.73,3.44,-0.35,-4.93,-8.609999999999999
7.399558067321777,3,3,3,0,-17.59,-4.15,4.04,-1.44,-6.36,-9.4
7.409558057785034,3,3,3,0,-17.73,-4.61,3.72,-1.82,-7.47,-10.14
7.419558048248291,3,3,3,0,-18.2,-4.82,3.75,-1.37,-8.75,-11.46
7.429558038711548,3,3,3,0,-18.7,-5.55,3.25,-0.07000000000000001,-9.76,-13.16
7.439558029174805,3,3,3,0,-20.89,-6.9,2.1,1.36,-10.24,-14.94
7.449558019638062,3,3,3,0,-22.18,-8.119999999999999,0.99,3.05,-10.97,-16.83
7.459558010101318,3,3,3,0,-23.43,-10.03,-0.83,3.87,-12.06,-18.56
7.469558000564575,3,3,3,0,-25.43,-11.7,-1.67,4.23,-12.04,-20.86
7.479557991027832,3,3,3,0,-28.91,-16.75,-5.9,4.44,-11.76,-22.95
7.489557981491089,3,3,3,0,-30.18,-18.22,-7.77,6.45,-10.66,-24.85
7.499557971954346,3,3,3,0,-30.06,-17.15,-10.32,11.86,-9.23,-27.05
7.509557962417603,3,3,3,0,-29.72,-11.57,-11.04,15.51,-7.78,-29.7
7.519557952880859,3,3,3,0,-25.39,3.5,-9.56,15.58,-6.37,-31.17
7.529557943344116,3,3,3,0,-20.14,7.2,-7.65,15.43,-3.79,-30.74
7.539557933807373,3,3,3,0,-15.16,7.44,-9.18,12.78,-2.5,-30.16
7.54955792427063,3,3,3,0,-9.210000000000001,7.29,-10.05,13.18,-1.61,-28.56
7.559557914733887,3,3,3,0,-4.45,39.22,9,28.99,-4.01,-28.45
7.569557905197144,3,3,3,0,-2.27,39.22,24.74,13.87,-9.619999999999999,-17.1
7.589557886123657,3,3,3,0,8.050000000000001,27.16,5.83,-32.38,11.05,10.79
7.599557876586914,3,3,3,0,-5.48,-13.12,1.48,-27.68,9.140000000000001,15.62
7.609557867050171,3,3,3,0,-11.65,-10.66,5.79,-10.77,6.01,11.94
7.619557857513428,3,3,3,0,-7.42,-4.09,7.46,6.89,3.57,9.68
7.629557847976685,3,3,3,0,-2.5,-0.99,1.7,7.42,4.33,13.47
7.639557838439941,3,3,3,0,-0.02,-4.14,-6.48,2.08,4.08,18.32
7.649558067321777,3,3,3,0,1.35,-5.26,-7.81,-3.76,-0.17,19.28
7.659558057785034,3,3,3,0,1.03,-8.529999999999999,-5.3,-7.99,-2.84,15.63
7.669558048248291,3,3,3,0,-1.36,-8.970000000000001,-3.08,-1.64,-2.95,10.53
7.679558038711548,3,3,3,0,-1.22,-5.83,-2.17,6.99,-2.56,5.98
7.689558029174805,3,3,3,0,-0.75,-2.79,-1.89,13.04,-3.48,3.44
7.699558019638062,3,3,3,0,0.63,-1.6,-2.54,12.85,-5.46,2.92
7.709558010101318,3,3,3,0,2.79,-4.27,-1.63,8.140000000000001,-6.81,2.98
7.719558000564575,3,3,3,0,2.78,-5.51,-0.2,5.49,-6.61,2.7
7.729557991027832,3,3,3,0,2.58,-5.58,0.31,5.07,-4.69,2.28
7.739557981491089,3,3,3,0,2.07,-4.37,0.14,6.06,-1.67,1.91
7.749557971954346,3,3,3,0,0.42,0.96,0.42,6.66,0.73,1.82
7.759557962417603,3,3,3,0,-0.47,2.92,0.99,5.37,2.09,2.1
7.769557952880859,3,3,3,0,-1.35,3.96,1.38,1.33,2.28,2.76
7.779557943344116,3,3,3,1,-2.04,3.42,1.65,-4.57,1.62,3.33
7.789557933807373,3,3,3,1,-1.61,1.6,-0.27,-8.359999999999999,1.47,3.3
7.79955792427063,3,3,3,1,-1.3,1.72,-2.2,-9.74,2.28,3.04
7.809557914733887,3,3,3,1,-1.12,1.48,-2.79,-10.58,3.12,3.16
7.819557905197144,3,3,3,1,-0.67,0.88,-2.64,-11.6,2.83,3.69
7.8295578956604,3,3,3,1,0.22,-0.68,-2.37,-12.03,2.11,4.09
7.839557886123657,3,3,3,1,0.5,-1.76,-2.24,-11.71,1.61,4.04
7.849557876586914,3,3,3,1,1.15,-2.02,-2.2,-8.91,1.24,3.77
7.859557867050171,3,3,3,1,1.59,-1.91,-1.48,-5.81,0.95,3.32
7.869557857513428,3,3,3,1,1.39,-1.31,-0.01,-3.31,0.7,2.78
7.879557847976685,3,3,3,2,0.85,-0.92,0.63,-0.62,0.84,2.05
7.889557838439941,3,3,3,2,0.28,-0.85,1.1,1.79,0.83,1.31
7.899558067321777,3,3,3,2,-0.14,-0.84,1.11,4.17,0.88,0.58
7.909558057785034,3,3,3,2,-1.24,0.19,1.86,6.61,0.5,-0.04
7.919558048248291,3,3,3,2,-1.4,1.33,1.96,8.4,-0.51,-0.46
7.929558038711548,3,3,3,2,-1.34,2.44,1.61,6.95,-1.15,-0.8
7.939558029174805,3,3,3,2,-0.84,3,0.84,2.85,-1.17,-1.15
7.949558019638062,3,3,3,2,-2.88,20.84,1.67,6.29,-1.79,-0.83
7.959558010101318,3,3,3,2,-3.35,26.66,8.35,9.91,-2.9,-0.33
7.969558000564575,3,3,3,2,-4.68,7.03,8.710000000000001,-12.84,4.54,-0.93
7.979557991027832,3,3,3,2,-10.36,-12.76,2.8,-25.97,4.6,-3.02
7.989557981491089,3,3,3,2,-26.25,-5.89,0.28,-11.31,-1.09,-8.289999999999999
7.999557971954346,3,3,3,2,-26.91,-0.08,-1.1,5.28,1.89,-5.03
8.010557889938354,3,3,3,2,-23.23,-8.27,-12.39,-1.02,8,10.36
8.020557880401611,3,3,3,2,-14.95,-12.85,-22.02,8.59,10.02,17.43
8.030557870864868,3,3,3,2,-39.33,39.22,15.71,117.27,2.25,1.82
8.040557861328125,3,3,3,2,-39.33,34.88,26.79,-12.09,12.64,28.67
8.050557851791382,3,3,3,2,-20.1,-6.77,7.1,-115.61,6.38,36.56
8.060557842254639,3,3,3,2,-7.98,-39.22,-30.81,-165.31,10.66,36.19
8.070558071136475,3,3,3,2,-13.53,-39.06,-30.01,-114.05,2.25,20.72
8.080558061599731,3,3,3,2,5.28,-38.96,-20.86,67.03,12.21,11.84
8.090558052062988,3,3,3,2,-4.59,-16.25,-19.77,131.64,18.07,-5.61
8.100558042526245,3,3,3,2,-26.84,18.62,7.12,126.17,5.83,-17.58
8.110558032989502,3,3,3,2,-31.63,32.25,8.91,82.54000000000001,-13.39,-21.23
8.120558023452759,3,3,3,2,-31.7,30.97,7.49,7.79,-14.03,-10.85
8.130558013916016,3,3,3,2,-30.14,10.12,3.25,-42.36,-0.93,8.27
8.140558004379272,3,3,3,2,-13.32,-11.4,-0.4,-52.29,3.48,15.1
8.150557994842529,3,3,3,2,-9.02,-13.92,-0.54,-42.51,3.58,12.32
8.160557985305786,3,3,3,2,-9.109999999999999,-12.16,0.43,-25.52,2.16,5.01
8.170557975769043,3,3,3,2,-9.81,-8.92,1.55,-11.06,0.89,-0.06
8.1805579662323,3,3,3,2,-12.71,0.9,1.88,-4.64,-0.55,-2.88
8.190557956695557,3,3,3,2,-14.68,1.19,1.27,-6.2,-1.46,-6.06
8.200557947158813,3,3,3,2,-14.5,-1.03,0.77,-9.57,-1.36,-9.210000000000001
8.21055793762207,3,3,3,2,-12.59,-3.71,0.15,-8.800000000000001,-1.87,-9.74
8.220557928085327,3,3,3,2,-9.57,-6.4,-1.24,-3.63,-2.12,-8.9
8.230557918548584,3,3,3,2,-9.09,-5.18,-1.61,3.62,-2.37,-7.68
8.240557909011841,3,3,3,2,-8.91,-3.62,-2.33,8.82,-2.65,-6.59
8.250557899475098,3,3,3,2,-8.81,-1.98,-2.72,11.74,-2.3,-5.98
8.260557889938354,3,3,3,2,-8.66,1.64,-2.61,12.97,-1.75,-5.82
8.270557880401611,3,3,3,2,-8.68,3.08,-1.92,11.9,-1.37,-5.48
8.280557870864868,3,3,3,2,-8.57,4.55,-1.38,8.32,-1.22,-5.15
8.290557861328125,3,3,3,2,-8.27,5.49,-1.09,2.92,-1.21,-5.09
8.300557851791382,3,3,3,2,-7.82,4.59,-0.37,-2.63,-1.19,-5.21
8.310557842254639,3,3,3,2,-7.93,3.66,0.19,-7.08,-1.04,-5.41
8.320558071136475,3,3,3,2,-8.32,2.81,1.05,-9.67,-0.61,-5.54
8.330558061599731,3,3,3,1,-8.619999999999999,1.87,1.67,-10.16,-0.06,-5.49
8.340558052062988,3,3,3,1,-7.86,0.46,2.03,-9.25,-0.12,-5.23
8.350558042526245,3,3,3,1,-7.69,0.2,1.92,-6.59,-0.1,-4.88
8.360558032989502,3,3,3,1,-7.67,0.23,1.95,-3.15,-0.23,-4.44
8.370558023452759,3,3,3,1,-7.77,0.44,1.75,-0.04,-0.38,-3.87
8.380558013916016,3,3,3,1,-7.73,1.14,0.88,2.12,-0.74,-3.21
8.390558004379272,3,3,3,1,-7.82,1.56,0.48,3.8,-1.02,-2.78
8.400557994842529,3,3,3,1,-8.039999999999999,2.16,0.08,4.8,-1.16,-2.45
8.410557985305786,3,3,3,1,-8.35,2.71,-0.16,4.8,-1.17,-2.01
8.420557975769043,3,3,3,1,-8.960000000000001,3.64,-0.3,3.7,-1.09,-1.5
8.4305579662323,3,3,3,1,-9.029999999999999,3.58,-0.15,1.19,-0.8,-0.91
8.440557956695557,3,3,3,1,-9.1,3.32,-0.12,-1.85,-0.28,-0.5
8.450557947158813,3,3,3,1,-9.42,2.02,0.07000000000000001,-4.6,0.06,-0.37
8.46055793762207,3,3,3,1,-9.48,1.13,0.22,-6.64,0.3,-0.36
8.470557928085327,3,3,3,1,-9.630000000000001,0.72,0.17,-7.16,0.47,-0.55
8.480557918548584,3,3,3,1,-10,0.62,0.6,-6.25,0.25,-0.76
8.490557909011841,3,3,3,1,-10.2,-0.45,1.02,-5.21,0.06,-0.98
8.500557899475098,3,3,3,1,-10.29,-0.99,0.98,-4.34,-0.09,-1.17
8.510557889938354,3,3,3,1,-10.28,-1.61,0.85,-3.4,-0.26,-1.33
8.520557880401611,3,3,3,1,-10.17,-1.98,0.66,-2.09,-0.36,-1.59
8.530557870864868,3,3,3,1,-10.09,-1.85,0.27,-0.48,-0.42,-1.83
8.540557861328125,3,3,3,1,-10.04,-1.69,0.18,0.86,-0.57,-2.02
8.550557851791382,3,3,3,1,-9.92,-1.66,0,1.73,-0.41,-2.16
8.560557842254639,3,3,3,1,-9.92,-1.76,-0.08,2.23,-0.12,-2.43
8.570558071136475,3,3,3,1,-10.06,-1.16,-0.2,2.56,-0.06,-2.72
8.580558061599731,3,3,3,1,-10.05,-0.8100000000000001,-0.01,2.63,-0.15,-2.98
8.590558052062988,3,3,3,1,-10.07,-0.48,0.18,2.34,-0.11,-3.22
8.600558042526245,3,3,3,1,-10.08,-0.2,0.19,1.64,-0.12,-3.4
8.610558032989502,3,3,3,1,-9.94,-0.3,0.37,0.62,-0.17,-3.47
8.620558023452759,3,3,3,1,-9.82,-0.5600000000000001,0.4,-0.14,-0.15,-3.52
8.630558013916016,3,3,3,1,-9.76,-0.73,0.37,-0.06,-0.11,-3.73
8.640558004379272,3,3,3,1,-9.74,-0.71,0.53,0.58,-0.13,-3.96
8.650557994842529,3,3,3,1,-9.59,-0.53,0.6,1.2,-0.16,-4.03
8.660557985305786,3,3,3,1,-9.41,-0.44,0.65,1.42,-0.19,-3.93
8.670557975769043,3,3,3,1,-9.220000000000001,-0.22,0.65,1.5,-0.19,-3.75
8.6805579662323,3,3,3,1,-9.029999999999999,0.22,0.7,1.43,-0.08,-3.52
8.690557956695557,3,3,3,1,-9.16,0.46,0.74,0.46,0.04,-3.23
8.700557947158813,3,3,3,1,-9.24,0.34,0.59,-0.63,0.03,-3.06
8.71055793762207,3,3,3,1,-9.380000000000001,0.14,0.63,-1.29,0.08,-2.88
8.720557928085327,3,3,3,1,-9.49,0.14,0.73,-1.6,0.08,-2.83
8.730557918548584,3,3,3,2,-9.59,-0.39,0.85,-1.76,0.1,-2.82
8.740557909011841,3,3,3,2,-9.630000000000001,-0.68,0.63,-1.76,0,-2.77
8.750557899475098,3,3,3,2,-9.619999999999999,-1.17,0.6,-1.76,-0.2,-2.65
8.760557889938354,3,3,3,2,-9.59,-1.33,0.63,-1.76,-0.2,-2.65
8.770557880401611,3,3,3,2,-9.720000000000001,-1.58,0.72,-0.47,-0.04,-2.55
8.780557870864868,3,3,3,2,-9.800000000000001,-1.73,0.67,-0.15,-0.02,-2.52
8.790557861328125,3,3,3,2,-9.76,-1.91,0.66,-0.15,-0.02,-2.52
8.800557851791382,3,3,3,2,-9.68,-1.84,0.63,0.43,-0.02,-2.56
8.810557842254639,3,3,3,2,-9.59,-1.37,0.65,1.82,0.18,-2.65
8.820558071136475,3,3,3,2,-9.56,-0.8,0.61,2.18,0.06,-2.7
8.830558061599731,3,3,3,3,-9.550000000000001,-0.76,0.78,1.78,-0.04,-2.65
8.840558052062988,3,3,3,3,-9.49,-0.32,0.67,1.78,-0.04,-2.65
8.850558042526245,3,3,3,3,-9.58,-0.36,0.57,1.36,-0.12,-2.62
8.860558032989502,3,3,3,3,-9.640000000000001,-0.29,0.49,0.59,-0.06,-2.45
8.870558023452759,3,3,3,3,-9.789999999999999,-0.55,0.45,-0.05,0.05,-2.26
8.880558013916016,3,3,3,3,-9.73,-0.28,0.42,-0.46,0,-1.97
8.890558004379272,3,3,3,3,-9.710000000000001,-0.1,0.43,-0.46,0,-1.97
8.900557994842529,3,3,3,3,-9.59,0.18,0.5,-0.31,-0.02,-1.89
8.910557985305786,3,3,3,3,-9.609999999999999,0.59,0.55,-0.05,-0.05,-1.74
8.920557975769043,3,3,3,3,-9.449999999999999,0.49,0.72,-0.52,-0.05,-1.29
8.9305579662323,3,3,3,3,-9.4,0.32,0.78,-2.27,0.32,-0.18
8.940557956695557,3,3,3,3,-9.380000000000001,-0.03,0.8100000000000001,-2.27,0.32,-0.18
8.950557947158813,3,3,3,3,-9.41,-0.11,0.61,-2.48,0.64,0.08
8.96055793762207,3,3,3,3,-9.67,-0.01,0.37,-2.3,0.73,0.27
8.970557928085327,3,3,3,3,-9.4,0.21,0.47,-2.06,0.55,0.64
8.980557918548584,3,3,3,3,-9.19,0.99,0.52,-1.5,0.29,1.1
8.990557909011841,3,3,3,3,-9.300000000000001,1.37,0.63,-0.88,0.23,1.58
9.000557899475098,3,3,3,3,-9.300000000000001,1.22,0.77,-0.9399999999999999,0.24,2.24
9.010557889938354,3,3,3,3,-9.43,1.64,0.87,-0.57,0.17,2.73
9.020557880401611,3,3,3,3,-9.4,2.38,0.99,0.28,0.11,3.18
9.031558036804199,3,3,3,3,-9.19,3.43,1.02,1.48,0.02,3.9
9.041558027267456,3,3,3,3,-9.050000000000001,4.45,0.76,1.96,0.01,4.86
9.051558017730713,3,3,3,3,-8.85,3.65,0.8100000000000001,0.6,-0.13,6.02
9.06155800819397,3,3,3,3,-8.289999999999999,2.26,1.53,-2.14,-0.38,7.24
9.071557998657227,3,3,3,3,-7.81,2.27,1.46,-2.84,-0.17,7.89
9.081557989120483,3,3,3,3,-8.09,3.12,1.71,-1.48,0.42,8.06
9.09155797958374,3,3,3,3,-8.16,3.84,1.61,0.63,0.61,8.25
9.101557970046997,3,3,3,3,-8.08,4.6,1.06,3.02,0.08,8.75
9.111557960510254,3,3,3,3,-8.08,4.89,0.76,4.54,-0.43,9.699999999999999
9.121557950973511,3,3,3,3,-7.49,2.06,0.61,2.6,-0.9,10.83
9.131557941436768,3,3,3,3,-7.25,-0.31,0.05,-0.49,-1.1,11.58
9.141557931900024,3,3,3,3,-7.56,-1.96,-0.24,-3.1,-0.26,11.84
9.151557922363281,3,3,3,3,-7.99,-2.84,-0.82,-3.36,0.61,11.16
9.161557912826538,3,3,3,3,-8.65,-2.1,-0.6899999999999999,-1,0.89,10.13
9.171557903289795,3,3,3,3,-8.57,-0.9399999999999999,-0.32,4.87,1.06,9.31
9.181557893753052,3,3,3,3,-8.43,-0.86,0.41,9.380000000000001,1.06,9.550000000000001
9.191557884216309,3,3,3,3,-8.029999999999999,-1.64,0.5,9.1,1.05,10.53
9.201557874679565,3,3,3,3,-9.789999999999999,0.04,-1.07,7.22,1.51,10.96
9.211557865142822,3,3,3,3,-10.68,0.58,-0.49,7.62,2.09,10.42
9.221557855606079,3,3,3,3,-10.8,0.36,-0.13,6.77,1.34,9.529999999999999
9.231557846069336,3,3,3,3,-10.08,-0.52,-0.16,5.73,1.78,8.84
9.241558074951172,3,3,3,3,-10.03,-1.12,-0.66,4.34,2.42,8.960000000000001
9.251558065414429,3,3,3,3,-10.12,-1.04,-1.04,2.67,3.11,9.390000000000001
9.261558055877686,3,3,3,3,-10.18,-0.79,-0.91,2.34,3.16,9.539999999999999
9.271558046340942,3,3,3,3,-11.11,-1.01,-0.18,2.63,3.59,9.41
9.281558036804199,3,3,3,3,-11.15,-1.26,-0.32,1.62,3.47,9.17
9.291558027267456,3,3,3,3,-11.48,-1.02,-0.12,0.45,3.09,8.699999999999999
9.301558017730713,3,3,3,3,-11.83,-1.56,0.27,0.77,3.36,8.18
9.31155800819397,3,3,3,3,-12.48,-3.06,0.22,0.38,3.52,7.6
9.321557998657227,3,3,3,3,-12.05,-2.86,-0.19,0.27,3.48,6.99
9.331557989120483,3,3,3,3,-11.73,-2.19,-0.59,0.6899999999999999,3.19,6.48
9.34155797958374,3,3,3,3,-12.07,-1.24,-0.95,1.1,2.76,5.85
9.351557970046997,3,3,3,3,-13.68,-0.64,-0.31,1.52,1.85,4.74
9.361557960510254,3,3,3,3,-14.74,-0.97,-0.91,1.24,0.84,3.13
9.371557950973511,3,3,3,3,-15.68,-0.84,-0.95,-0.4,-0.18,1.37
9.381557941436768,3,3,3,3,-16.65,-1.35,-0.59,-1.36,-0.47,-0.19
9.391557931900024,3,3,3,3,-17.53,-3.59,0.88,-3.1,-0.95,-0.92
9.401557922363281,3,3,3,3,-17.46,-4.23,1.55,-3.98,-1.34,-1.25
9.411557912826538,3,3,3,3,-17.14,-4.95,2.34,-3.54,-1.35,-1.83
9.421557903289795,3,3,3,3,-16.88,-5.33,2.81,-2.64,-2.11,-2.8
9.441557884216309,3,3,3,3,-18.35,-6.7,3.93,-0.35,-4.7,-6.2
9.451557874679565,3,3,3,3,-18.79,-7.41,4.09,0.39,-6.25,-7.98
9.461557865142822,3,3,3,3,-19.21,-8.199999999999999,4.46,1.07,-7.8,-9.609999999999999
9.471557855606079,3,3,3,3,-20.69,-9.56,3.25,1.96,-9.34,-11.45
9.481557846069336,3,3,3,2,-21.65,-10.41,1.9,2.55,-9.609999999999999,-13.49
9.491558074951172,3,3,3,2,-23.32,-11.59,0.67,2.52,-10.34,-15.75
9.501558065414429,3,3,3,2,-25.09,-13.12,-0.57,2.75,-10.3,-18.2
9.511558055877686,3,3,3,2,-27.54,-14.96,-4.84,2.77,-10.41,-20.71
9.521558046340942,3,3,3,2,-29.08,-13.36,-7.29,5.26,-9.18,-23.36
9.531558036804199,3,3,3,2,-30.51,-8.35,-10.65,8.119999999999999,-8.01,-26.17
9.541558027267456,3,3,3,2,-30.86,-2.82,-12.91,10.39,-7.04,-28.36
9.551558017730713,3,3,3,2,-29.63,9.119999999999999,-11.16,12.33,-5.41,-28.92
9.56155800819397,3,3,3,2,-24.76,9.17,-7.63,14.71,-4.1,-29.58
9.571557998657227,3,3,3,2,-16.02,2.99,-4.43,13.98,-2.68,-29.91
9.581557989120483,3,3,3,1,-5.71,27.41,4.49,22.36,-0.3,-31.1
9.59155797958374,3,3,3,1,2.42,39.22,12.19,47.13,-2.87,-32.26
9.601557970046997,3,3,3,1,-1.63,39.1,18.27,43.42,-8.720000000000001,-21.21
9.611557960510254,3,3,3,1,0.62,36.58,10.78,-0.6899999999999999,-1.59,-1.48
9.621557950973511,3,3,3,1,-2.32,-4.22,2.75,-11.07,3.86,6
9.651557922363281,3,3,3,1,-3.82,6.51,3.24,11.57,-2.06,10.5
9.661557912826538,3,3,3,1,1,3.08,-4.96,8.470000000000001,-2.71,14.51
9.671557903289795,3,3,3,1,0.76,-3.35,-4.55,-5.61,-2.26,17.83
9.681557893753052,3,3,3,0,0.67,-8.01,-2.98,-20,-2.36,18.55
9.691557884216309,3,3,3,0,-0.26,-9.720000000000001,-1.89,-22.26,-2.43,14.13
9.701557874679565,3,3,3,0,-1.59,-10.65,-2.17,-20.67,-0.58,9.19
9.711557865142822,3,3,3,0,-1.21,-9.029999999999999,-2.58,-18.54,0.05,6.03
9.721557855606079,3,3,3,0,-0.33,-7.66,-3.26,-12.55,-1.78,4.48
9.731557846069336,3,3,3,0,0.93,-6.98,-3.3,-7.83,-4.23,4.14
9.741558074951172,3,3,3,0,2.18,-5.42,-2.79,-2.94,-5.11,4.02
9.751558065414429,3,3,3,0,2.09,-4.76,-2.75,1.97,-3.45,3.61
9.761558055877686,3,3,3,0,1.89,-3.96,-2.89,4.87,-0.79,3.66
9.771558046340942,3,3,3,0,1.46,-2.65,-2.83,6.81,1.5,3.78
9.781558036804199,3,3,3,0,0.51,0.3,-1.78,7.1,2.92,3.87
9.791558027267456,3,3,3,0,0.11,1.74,-0.76,5.68,3.34,3.86
9.801558017730713,3,3,3,0,-0.03,2.74,-0.15,2.68,3.07,4.05
9.81155800819397,3,3,3,0,-0.28,3,0.15,-2.05,2.79,4.01
9.821557998657227,3,3,3,0,-0.6899999999999999,0.6899999999999999,1.05,-7.77,2.94,3.54
9.831557989120483,3,3,3,0,-0.99,-0.45,0.96,-12.24,3.49,2.69
9.84155797958374,3,3,3,0,-1.31,-1.57,0.29,-15.37,4.06,1.96
9.851557970046997,3,3,3,0,-1.17,-1.79,-0.8100000000000001,-15.42,3.94,1.64
9.861557960510254,3,3,3,0,-0.57,-1.3,-1.43,-12.21,3.66,1.63
9.871557950973511,3,3,3,0,-0.19,-1.52,-0.82,-8.869999999999999,3.45,1.69
9.881557941436768,3,3,3,0,0.15,-1.59,-0.87,-6.45,2.71,1.81
9.891557931900024,3,3,3,0,0.46,-1.71,-1.22,-3.91,2.53,1.76
9.901557922363281,3,3,3,0,0.92,-0.5600000000000001,-1.29,-0.47,2.92,1.44
9.911557912826538,3,3,3,0,0.83,0.43,-0.7,2.84,3.11,1.52
9.921557903289795,3,3,3,0,0.34,1.54,0.71,5.52,3.51,1.5
9.931557893753052,3,3,3,0,-0.6,1.62,2.4,6.26,3.56,1.38
9.941557884216309,3,3,3,0,-0.89,1.64,1.9,6.17,2.74,0.91
9.951557874679565,3,3,3,0,-1.11,1.47,1.42,6.61,2.29,0.01
9.961557865142822,3,3,3,0,-1.12,1.2,1.31,6.22,2.14,-0.82
9.971557855606079,3,3,3,0,-2.29,8.83,-1.17,5.51,1.55,-1.08
9.981557846069336,3,3,3,0,-5.37,22.97,4.29,9.06,0.76,-1.57
9.991558074951172,3,3,3,0,-9.01,22.26,8.33,13.58,-1.25,-1.66
10.00155806541443,3,3,3,0,-10.79,6,7.04,-6.46,-1.75,-2.05
10.01155805587769,3,3,3,0,-25.38,-9.369999999999999,-3.92,-19.68,1.89,-1.83
10.02155804634094,3,3,3,0,-35.86,-2.65,-4.42,-14.97,2.12,-3.7
10.0315580368042,3,3,3,1,-39.13,15.85,-2.62,6.25,3.91,-0.85
10.04155802726746,3,3,3,1,-21.43,6.87,-6.06,12.44,6.14,11.08
10.05155801773071,3,3,3,1,-13.61,0.03,-16.33,-2.69,8.449999999999999,19.29
10.06255793571472,3,3,3,1,-33.98,32.41,-12.68,3.11,8.369999999999999,17.77
10.07255792617798,3,3,3,1,-39.33,39.22,27.91,43.24,6.83,7.87
10.08255791664124,3,3,3,1,-38,9.18,18.76,-13.62,4.36,15.86
10.09255790710449,3,3,3,1,-8.27,-38.92,-9.050000000000001,-57.11,-1.74,20.9
10.10255789756775,3,3,3,1,-12.54,-39.22,-11.74,-81.95,7.85,14.06
10.11255788803101,3,3,3,1,-15.25,-39.13,-7.36,-52.74,10.43,3.73
10.12255787849426,3,3,3,1,-13.26,-35.47,-6.28,32.41,7.46,-2.13
10.13255786895752,3,3,3,2,-15.14,-2.51,-0.11,78.04000000000001,5.63,-3.9
10.14255785942078,3,3,3,2,-19.71,8.07,5.43,58.49,-3.4,-11.85
10.15255784988403,3,3,3,2,-22.93,15.42,5.83,58.49,-3.4,-11.85
10.16255784034729,3,3,3,2,-21.41,15.33,4.97,22.23,-6.42,-10.19
10.17255806922913,3,3,3,2,-19.02,-2.1,-1.06,-14.32,-5.51,-4.9
10.18255805969238,3,3,3,2,-15.82,-7.04,-1.56,-34.67,-3.46,-0.99
10.19255805015564,3,3,3,2,-11.04,-8.369999999999999,-1.67,-37.99,-2.39,-0.33
10.2025580406189,3,3,3,2,-7.64,-7.65,-1.24,-31.56,-2.06,-2.46
10.21255803108215,3,3,3,2,-8.970000000000001,-4.16,-0.13,-23.75,-1.65,-4.88
10.22255802154541,3,3,3,2,-9.82,-2.15,0.47,-17.33,-0.58,-7.27
10.23255801200867,3,3,3,2,-10.13,-1.12,0.79,-13.6,0.46,-9.460000000000001
10.24255800247192,3,3,3,2,-10.08,-1.31,0.51,-11.76,1.37,-11.01
10.25255799293518,3,3,3,2,-7.56,-3.16,-1.79,-3.18,0.64,-12.21
10.26255798339844,3,3,3,2,-6.05,-3.53,-2.37,3.7,0.5600000000000001,-12.11
10.27255797386169,3,3,3,2,-5.35,-2.99,-2.05,3.7,0.5600000000000001,-12.11
10.28255796432495,3,3,3,2,-4.87,-1.55,-1.49,9.220000000000001,0.43,-11.99
10.29255795478821,3,3,3,2,-4.67,2.32,-0.82,10.7,-1.05,-10.8
10.30255794525146,3,3,3,2,-4.65,3.51,-0.5600000000000001,5.84,-1.03,-10.09
10.31255793571472,3,3,3,2,-4.62,3.9,-0.24,0.73,-0.79,-9.050000000000001
10.32255792617798,3,3,3,1,-4.37,4.32,-0.64,0.73,-0.79,-9.050000000000001
10.34255790710449,3,3,3,1,-4.63,1.68,0.8,-10.31,0.54,-8.619999999999999
10.37255787849426,3,3,3,1,-11.68,1.45,5.6,-7.56,-1.36,-10.02
10.38255786895752,3,3,3,1,-16.41,1.56,8.84,-4.75,-4.25,-11.26
10.39255785942078,3,3,3,1,-19.94,0.22,9.73,-4.66,-5.75,-10.93
10.40255784988403,3,3,3,1,-11.22,-1.69,4.24,-1.18,-4.94,-8.710000000000001
10.41255784034729,3,3,3,1,-6.62,0,0.93,1.4,-3.77,-5.67
10.42255806922913,3,3,3,1,-7.53,2.57,-0.83,1.4,-3.77,-5.67
10.43255805969238,3,3,3,1,-8.94,5.09,-1.57,2.19,-2.5,-3.88
10.44255805015564,3,3,3,1,-8.220000000000001,8.02,-2.05,-5,-0.62,-3.71
10.4525580406189,3,3,3,1,-8.99,7.02,-1.82,-9.17,1.42,-3.34
10.46255803108215,3,3,3,1,-10.58,4.19,-1.24,-9.83,2.05,-2.89
10.47255802154541,3,3,3,1,-11.66,1.91,-0.35,-9.83,2.05,-2.89
10.48255801200867,3,3,3,1,-11.77,-2.39,0.99,-8.83,1.47,-2.06
10.49255800247192,3,3,3,1,-10.93,-3.39,0.93,-4.46,-0.71,0.28
10.50255799293518,3,3,3,1,-10.01,-3.63,0.76,-2.18,-1.26,0.9399999999999999
10.51255798339844,3,3,3,1,-9.210000000000001,-3.48,0.6899999999999999,-0.5600000000000001,-1.54,0.88
10.52255797386169,3,3,3,1,-8.56,-2.82,-0.01,-0.5600000000000001,-1.54,0.88
10.53255796432495,3,3,3,1,-8.52,-2.61,-0.31,0.51,-1.32,0.17
10.54255795478821,3,3,3,1,-8.59,-2.79,-0.39,0.21,-0.46,-1.7
10.55255794525146,3,3,3,1,-8.710000000000001,-2.95,-0.39,-0.18,-0.12,-2.44
10.56255793571472,3,3,3,1,-9.18,-3.07,0.08,-0.3,0.2,-2.82
10.57255792617798,3,3,3,1,-9.44,-2.82,0.26,-0.3,0.2,-2.82
10.58255791664124,3,3,3,1,-9.68,-2.41,0.5600000000000001,-0.09,0.4,-2.7
10.59255790710449,3,3,3,1,-9.84,-1.75,0.78,0.59,0.4,-1.78
10.60255789756775,3,3,3,1,-10.06,-0.7,0.97,0.67,0.27,-1.35
10.61255788803101,3,3,3,1,-9.98,-0.11,0.9399999999999999,0.65,0.17,-1.06
10.62255787849426,3,3,3,1,-9.869999999999999,0,0.85,0.65,0.17,-1.06
10.63255786895752,3,3,3,1,-9.77,-0.33,0.65,0.24,0.16,-0.86
10.64255785942078,3,3,3,1,-9.539999999999999,-1.35,0,0.37,0.13,-0.44
10.65255784988403,3,3,3,1,-9.529999999999999,-1.95,-0.38,0.54,0.14,-0.35
10.66255784034729,3,3,3,1,-9.539999999999999,-2.38,-0.64,0.62,0.27,-0.08
10.67255806922913,3,3,3,1,-9.67,-3.26,-0.4,0.62,0.27,-0.08
10.68255805969238,3,3,3,1,-9.76,-3.54,-0.31,0.29,0.46,0.5600000000000001
10.69255805015564,3,3,3,1,-9.75,-3.6,-0.16,-0.42,0.59,0.9
10.7025580406189,3,3,3,1,-9.66,-3.69,-0.01,-0.82,0.54,0.65
10.71255803108215,3,3,3,1,-9.18,-4.15,0.68,-0.55,0.37,0.08
10.72255802154541,3,3,3,1,-9.029999999999999,-4.11,0.83,-0.55,0.37,0.08
10.73255801200867,3,3,3,1,-8.9,-3.78,0.72,0.3,0.17,-0.51
10.74255800247192,3,3,3,1,-8.949999999999999,-3.36,0.76,1.1,-0.05,-0.44
10.75255799293518,3,3,3,1,-9.279999999999999,-2.53,0.53,1.08,0.07000000000000001,-0.06
10.76255798339844,3,3,3,1,-9.359999999999999,-2.1,0.39,1.04,0.25,0.22
10.77255797386169,3,3,3,1,-9.449999999999999,-1.8,0.27,1.04,0.25,0.22
10.78255796432495,3,3,3,2,-9.51,-1.64,0.18,0.83,0.4,0.28
10.79255795478821,3,3,3,2,-9.59,-1.4,0.16,0.06,0.35,0.31
10.80255794525146,3,3,3,2,-9.5,-1.32,0.17,-0.21,0.15,0.19
10.81255793571472,3,3,3,2,-9.5,-1.25,0.24,-0.73,0.13,0.15
10.82255792617798,3,3,3,2,-9.609999999999999,-1.6,0.42,-0.73,0.13,0.15
10.83255791664124,3,3,3,2,-9.66,-2.1,0.55,-0.78,0.19,0.15
10.84255790710449,3,3,3,2,-9.779999999999999,-2.35,0.63,-0.12,0.13,0.05
10.85255789756775,3,3,3,2,-9.76,-2.42,0.48,0.35,-0.03,0.06
10.86255788803101,3,3,3,2,-9.69,-2.33,0.43,0.28,0.03,0.22
10.87255787849426,3,3,3,2,-9.52,-2.53,0.65,0.28,0.03,0.22
10.88255786895752,3,3,3,2,-9.34,-2.57,0.68,0.26,0.09,0.39
10.89255785942078,3,3,3,2,-9.33,-2.74,0.7,0.55,0.04,0.19
10.90255784988403,3,3,3,2,-9.34,-2.59,0.39,0.03,0.04,0.19
10.91255784034729,3,3,3,2,-9.369999999999999,-2.95,0.64,-0.05,0,0.14
10.92255806922913,3,3,3,2,-9.33,-2.84,0.54,0.04,0.02,-0.03
10.93255805969238,3,3,3,2,-9.44,-2.96,0.5600000000000001,0.08,-0.07000000000000001,-0.12
10.94255805015564,3,3,3,2,-9.43,-2.93,0.55,0.33,-0.24,-0.22
10.9525580406189,3,3,3,2,-9.41,-2.53,0.27,0.37,-0.19,-0.2
10.96255803108215,3,3,3,2,-9.44,-2.41,0.4,0.49,-0.15,-0.12
10.97255802154541,3,3,3,2,-9.449999999999999,-2.23,0.42,0.49,-0.15,-0.12
10.98255801200867,3,3,3,2,-9.449999999999999,-2.03,0.37,0.67,-0.16,-0.08
10.99255800247192,3,3,3,2,-9.470000000000001,-2.2,0.39,0.39,-0.01,0.03
11.00255799293518,3,3,3,2,-9.49,-2.32,0.34,0.55,-0.04,0
11.01255798339844,3,3,3,2,-9.52,-2.18,0.39,0.52,0.01,0.03
11.02255797386169,3,3,3,2,-9.539999999999999,-2.51,0.49,0.52,0.01,0.03
11.03255796432495,3,3,3,2,-9.5,-2.69,0.54,0.41,0.11,0.12
11.04255795478821,3,3,3,2,-9.449999999999999,-2.49,0.45,1.35,0.05,0.1
11.05255794525146,3,3,3,2,-9.43,-2.36,0.29,1.55,-0.15,0.03
11.06255793571472,3,3,3,2,-9.25,-1.73,0.06,1.23,-0.16,0.06
11.07255792617798,3,3,3,2,-9.460000000000001,-2.21,0.29,1.23,-0.16,0.06
11.08355784416199,3,3,3,2,-9.529999999999999,-2.5,0.51,0.08,0.31,0.43
11.09355807304382,3,3,3,2,-9.550000000000001,-2.44,0.47,0.53,0.3,0.29
11.10355806350708,3,3,3,2,-9.59,-2.67,0.3,0.68,0,0.06
11.11355805397034,3,3,3,2,-9.550000000000001,-2.6,0.37,0.91,-0.28,-0.14
11.12355804443359,3,3,3,2,-9.48,-2.36,0.43,0.91,-0.28,-0.14
11.13355803489685,3,3,3,2,-9.44,-2.08,0.51,0.93,-0.47,-0.33
11.14355802536011,3,3,3,2,-9.550000000000001,-1.69,0.32,-0.54,-0.3,-0.1
11.15355801582336,3,3,3,2,-9.609999999999999,-2.02,0.45,-1.07,-0.03,0.14
11.16355800628662,3,3,3,2,-9.58,-2.14,0.53,-0.88,0.16,0.21
11.17355799674988,3,3,3,2,-9.630000000000001,-2.3,0.51,-0.88,0.16,0.21
11.18355798721313,3,3,3,2,-9.48,-2.53,0.49,-0.62,0.09,0.21
11.19355797767639,3,3,3,2,-9.42,-2.39,0.37,0.01,-0.25,0.12
11.20355796813965,3,3,3,2,-9.369999999999999,-2.28,0.31,-0.09,-0.22,0.18
11.21355795860291,3,3,3,2,-9.42,-2.23,0.42,-0.24,-0.16,0.23
11.22355794906616,3,3,3,2,-9.65,-2.45,0.46,-0.24,-0.16,0.23
11.23355793952942,3,3,3,2,-9.640000000000001,-2.57,0.51,-0.36,-0.05,0.21
11.24355792999268,3,3,3,2,-9.619999999999999,-2.55,0.49,0.34,0.03,0.1
11.27355790138245,3,3,3,2,-9.369999999999999,-2.14,0.4,0.66,-0.06,0.03
11.2835578918457,3,3,3,2,-9.460000000000001,-2.12,0.4,0.41,-0.06,0.05
11.29355788230896,3,3,3,2,-9.539999999999999,-2.08,0.41,-0.28,0.06,0.18
11.30355787277222,3,3,3,2,-9.56,-2.32,0.42,-0.5,0.13,0.19
11.31355786323547,3,3,3,2,-9.57,-2.34,0.46,-0.53,0.09,0.15
11.32355785369873,3,3,3,2,-9.550000000000001,-2.4,0.53,-0.53,0.09,0.15
11.33355784416199,3,3,3,2,-9.51,-2.38,0.54,-0.48,0.04,0.1
11.34355807304382,3,3,3,2,-9.460000000000001,-2.34,0.43,-0.66,-0.08,0.07000000000000001
11.35355806350708,3,3,3,2,-9.470000000000001,-2.26,0.31,-0.96,-0.01,0.11
11.36355805397034,3,3,3,2,-9.49,-2.3,0.31,-1.02,0.07000000000000001,0.18
11.37355804443359,3,3,3,2,-9.449999999999999,-2.47,0.46,-1.02,0.07000000000000001,0.18
11.38355803489685,3,3,3,2,-9.52,-2.48,0.33,-0.72,0.09,0.13
11.39355802536011,3,3,3,2,-9.550000000000001,-2.6,0.4,-0.3,0.12,0.15
11.40355801582336,3,3,3,2,-9.5,-2.57,0.4,0.18,0.04,0.1
11.41355800628662,3,3,3,2,-9.48,-2.28,0.4,0.13,0.02,0.16
11.42355799674988,3,3,3,2,-9.48,-2.3,0.51,0.13,0.02,0.16
11.43355798721313,3,3,3,2,-9.44,-2.19,0.47,0.25,0.02,0.14
11.44355797767639,3,3,3,2,-9.52,-2.2,0.43,0.17,0.12,0.2
11.45355796813965,3,3,3,2,-9.550000000000001,-2.3,0.42,0.31,0.08,0.22
11.46355795860291,3,3,3,2,-9.59,-2.27,0.42,0.35,0.1,0.16
11.47355794906616,3,3,3,2,-9.56,-2.26,0.44,0.35,0.1,0.16
11.48355793952942,3,3,3,2,-9.539999999999999,-2.13,0.42,0.17,0.11,0.22
11.49355792999268,3,3,3,2,-9.43,-2.22,0.46,-0.1,0.24,0.38
11.51355791091919,3,3,3,2,-9.49,-2.31,0.3,-0.29,0.2,0.29
11.52355790138245,3,3,3,2,-9.539999999999999,-2.48,0.42,-0.29,0.2,0.29
11.5335578918457,3,3,3,2,-9.52,-2.34,0.37,-0.13,0.05,0.25
11.54355788230896,3,3,3,2,-9.56,-2.32,0.37,-0.21,0.08,0.26
11.55355787277222,3,3,3,2,-9.529999999999999,-2.29,0.31,-0.15,0.13,0.25
11.56355786323547,3,3,3,2,-9.52,-2.2,0.31,-0.05,0.13,0.24
11.57355785369873,3,3,3,2,-9.49,-2.14,0.36,-0.05,0.13,0.24
11.58355784416199,3,3,3,2,-9.56,-2.21,0.42,-0.13,0.18,0.21
11.59355807304382,3,3,3,2,-9.52,-2.19,0.41,-0.13,0.15,0.23
11.60355806350708,3,3,3,2,-9.57,-2.2,0.35,-0.24,0.11,0.26
11.61355805397034,3,3,3,2,-9.57,-2.2,0.35,-0.32,0.11,0.27
11.62355804443359,3,3,3,2,-9.539999999999999,-2.31,0.43,-0.32,0.11,0.27
11.63355803489685,3,3,3,2,-9.51,-2.18,0.39,-0.19,0.14,0.28
11.64355802536011,3,3,3,2,-9.470000000000001,-2.19,0.3,-0.19,0.09,0.23
11.65355801582336,3,3,3,2,-9.529999999999999,-2.04,0.26,-0.05,0.05,0.2
11.69355797767639,3,3,3,2,-9.539999999999999,-2.16,0.25,-0.31,0.12,0.11
11.70355796813965,3,3,3,2,-9.56,-2.26,0.31,-0.31,0.09,0.06
11.72355794906616,3,3,3,2,-9.550000000000001,-2.06,0.37,-0.1,0.01,0.04
11.75355792045593,3,3,3,2,-9.6,-2.21,0.35,-0.28,0.05,0.02
11.76355791091919,3,3,3,2,-9.550000000000001,-2.14,0.37,-0.37,0.12,0.06
11.77355790138245,3,3,3,2,-9.550000000000001,-2.14,0.37,-0.16,0.06,0.05
11.7835578918457,3,3,3,2,-9.56,-2.3,0.42,-0.28,0.11,0.07000000000000001
11.79355788230896,3,3,3,2,-9.529999999999999,-2.34,0.34,-0.17,0.1,0.08
11.80355787277222,3,3,3,2,-9.52,-2.36,0.39,-0.19,0.14,0.07000000000000001
11.81355786323547,3,3,3,2,-9.5,-2.26,0.36,-0.02,0.03,0.01
11.82355785369873,3,3,3,2,-9.51,-2.2,0.35,0.07000000000000001,-0.04,-0.02
11.83355784416199,3,3,3,2,-9.529999999999999,-2.11,0.31,-0.08,-0.09,-0.06
11.84355807304382,3,3,3,2,-9.56,-2.09,0.26,-0.22,-0.05,-0.08
11.85355806350708,3,3,3,2,-9.529999999999999,-2.12,0.29,-0.34,-0.03,-0.1
11.86355805397034,3,3,3,2,-9.58,-2.12,0.36,-0.34,-0.01,-0.07000000000000001
11.87355804443359,3,3,3,2,-9.58,-2.12,0.36,-0.34,-0.01,-0.07000000000000001
11.90355801582336,3,3,3,2,-9.52,-2.13,0.3,-0.37,-0.08,-0.1
11.91355800628662,3,3,3,2,-9.52,-2.26,0.32,-0.63,-0.07000000000000001,-0.04
11.92355799674988,3,3,3,2,-9.52,-2.26,0.32,-0.68,-0.03,-0.01
11.93355798721313,3,3,3,2,-9.51,-2.15,0.3,-0.64,-0.09,-0.05
11.94355797767639,3,3,3,2,-9.529999999999999,-2.29,0.27,-0.7,-0.07000000000000001,-0.08
11.95355796813965,3,3,3,2,-9.539999999999999,-2.18,0.25,-0.66,-0.08,-0.1
11.96355795860291,3,3,3,2,-9.539999999999999,-2.21,0.31,-0.55,-0.1,-0.09
11.97355794906616,3,3,3,2,-9.539999999999999,-2.21,0.31,-0.62,-0.06,-0.11
11.98355793952942,3,3,3,2,-9.539999999999999,-2.3,0.31,-0.62,-0.04,-0.15
11.99355792999268,3,3,3,2,-9.529999999999999,-2.34,0.23,-0.76,-0.01,-0.14
12.00355792045593,3,3,3,2,-9.52,-2.27,0.27,-0.59,-0.03,-0.18
12.01355791091919,3,3,3,2,-9.56,-2.22,0.32,-0.53,-0.05,-0.19
12.02355790138245,3,3,3,2,-9.56,-2.22,0.32,-0.53,-0.05,-0.19
12.0335578918457,3,3,3,2,-9.5,-2.27,0.37,-0.55,-0.15,-0.21
12.04355788230896,3,3,3,2,-9.550000000000001,-2.22,0.14,-0.44,-0.14,-0.17
12.08355784416199,3,3,3,3,-9.5,-2.21,0.31,-0.26,0.02,-0.11
12.11455798149109,3,3,3,3,-9.56,-2.3,0.26,0.12,0.05,-0.11
12.12455797195435,3,3,3,3,-9.550000000000001,-2.35,0.32,0.18,-0.04,-0.11
12.1345579624176,3,3,3,3,-9.52,-2.34,0.31,0.33,-0.08,-0.15
12.14455795288086,3,3,3,3,-9.529999999999999,-2.19,0.19,0.43,-0.1,-0.2
12.15455794334412,3,3,3,3,-9.56,-2.21,0.23,0.41,-0.08,-0.21
12.16455793380737,3,3,3,3,-9.539999999999999,-2.21,0.28,0.39,-0.03,-0.21
12.17455792427063,3,3,3,3,-9.529999999999999,-2.16,0.26,0.48,-0.1,-0.23
12.18455791473389,3,3,3,3,-9.529999999999999,-2.13,0.22,0.49,-0.08,-0.24
12.19455790519714,3,3,3,3,-9.56,-2.21,0.19,0.37,-0.07000000000000001,-0.23
12.2045578956604,3,3,3,3,-9.59,-2.19,0.25,0.38,-0.06,-0.26
12.21455788612366,3,3,3,3,-9.56,-2.2,0.33,0.37,-0.09,-0.26
12.22455787658691,3,3,3,3,-9.539999999999999,-2.24,0.32,0.38,-0.08,-0.26
12.23455786705017,3,3,3,3,-9.51,-2.25,0.31,0.45,-0.12,-0.28
12.24455785751343,3,3,3,3,-9.5,-2.25,0.26,0.44,-0.15,-0.31
12.25455784797668,3,3,3,3,-9.49,-2.22,0.25,0.4,-0.12,-0.32
12.26455783843994,3,3,3,3,-9.52,-2.18,0.36,0.33,-0.12,-0.34
12.27455806732178,3,3,3,3,-9.52,-2.18,0.36,0.34,-0.15,-0.37
12.29455804824829,3,3,3,3,-9.529999999999999,-2.17,0.26,0.12,-0.17,-0.37
12.30455803871155,3,3,3,3,-9.56,-2.22,0.37,-0.02,-0.17,-0.36
12.3145580291748,3,3,3,3,-9.539999999999999,-2.2,0.34,-0.03,-0.15,-0.37
12.32455801963806,3,3,3,3,-9.56,-2.22,0.29,-0.03,-0.13,-0.36
12.33455801010132,3,3,3,3,-9.529999999999999,-2.2,0.33,-0.05,-0.1,-0.33
12.35455799102783,3,3,3,3,-9.539999999999999,-2.21,0.26,-0.12,-0.01,-0.29
12.36455798149109,3,3,3,3,-9.56,-2.33,0.36,-0.2,0.06,-0.27
12.37455797195435,3,3,3,3,-9.539999999999999,-2.27,0.32,-0.05,0.05,-0.24
12.3845579624176,3,3,3,3,-9.470000000000001,-2.31,0.37,-0.07000000000000001,0.06,-0.18
12.39455795288086,3,3,3,3,-9.449999999999999,-2.29,0.27,0.16,0.07000000000000001,-0.19
12.40455794334412,3,3,3,3,-9.449999999999999,-2.35,0.28,0.1,0.11,-0.15
12.41455793380737,3,3,3,3,-9.44,-2.35,0.32,0.2,0.14,-0.15
12.42455792427063,3,3,3,3,-9.58,-2.43,0.33,0.2,0.2,-0.08
12.43455791473389,3,3,3,3,-9.59,-2.38,0.3,0.13,0.27,-0.03
12.44455790519714,3,3,3,3,-9.56,-2.42,0.26,0.03,0.34,-0.02
12.4545578956604,3,3,3,3,-9.539999999999999,-2.4,0.31,-0.01,0.4,0.05
12.46455788612366,3,3,3,3,-9.49,-2.33,0.33,-0.07000000000000001,0.45,0.11
12.47455787658691,3,3,3,3,-9.49,-2.33,0.33,-0.19,0.62,0.27
12.48455786705017,3,3,3,3,-9.49,-2.3,0.3,-0.17,0.6899999999999999,0.4
12.49455785751343,3,3,3,3,-9.34,-1.88,0.21,-0.08,0.6899999999999999,0.51
12.50455784797668,3,3,3,3,-9.300000000000001,-1.26,0.31,-0.19,0.74,0.6
12.51455783843994,3,3,3,3,-9.300000000000001,-1,0.57,-0.27,0.88,0.86
12.52455806732178,3,3,3,3,-9.300000000000001,-1,0.57,-0.14,0.88,1.14
12.53455805778503,3,3,3,3,-9.279999999999999,-0.6899999999999999,0.7,-0.39,0.78,1.32
12.54455804824829,3,3,3,3,-9.98,-1.5,0.58,-1.04,0.68,1.44
12.55455803871155,3,3,3,3,-10.1,-1.82,0.59,-1.37,0.61,1.59
12.5645580291748,3,3,3,3,-9.92,-2.24,0.54,-1.22,0.77,1.67
12.57455801963806,3,3,3,3,-9.92,-2.24,0.54,-0.7,0.88,1.55
12.58455801010132,3,3,3,3,-9.609999999999999,-2.9,0.21,-0.17,0.86,1.3
12.59455800056458,3,3,3,3,-9.27,-3.23,0.08,0.48,0.82,1.01
12.60455799102783,3,3,3,3,-9.19,-3.06,0.07000000000000001,1.13,0.71,0.72
12.61455798149109,3,3,3,3,-9.369999999999999,-2.96,0.3,1.36,0.71,0.51
12.62455797195435,3,3,3,2,-9.369999999999999,-2.96,0.3,1.66,0.65,0.28
12.6345579624176,3,3,3,2,-9.48,-2.66,0.34,1.75,0.62,0.12
12.64455795288086,3,3,3,2,-9.550000000000001,-2.11,0.36,1.64,0.71,0.12
12.65455794334412,3,3,3,2,-9.5,-1.6,0.55,1.24,0.76,0.22
12.66455793380737,3,3,3,2,-9.359999999999999,-1.37,0.65,0.8100000000000001,0.8100000000000001,0.35
12.67455792427063,3,3,3,2,-9.359999999999999,-1.37,0.65,0.14,0.98,0.55
12.68455791473389,3,3,3,2,-9.369999999999999,-1.35,0.71,-0.43,1.06,0.71
12.69455790519714,3,3,3,2,-9.539999999999999,-1.4,0.63,-1.13,1.06,0.83
12.7045578956604,3,3,3,2,-9.609999999999999,-1.34,0.55,-1.69,1.02,0.92
12.71455788612366,3,3,3,2,-9.630000000000001,-1.25,0.39,-2.12,1.02,1
12.72455787658691,3,3,3,2,-9.630000000000001,-1.25,0.39,-2.68,1.08,1.15
12.73455786705017,3,3,3,2,-9.59,-1.32,0.28,-3.13,1.19,1.24
12.74455785751343,3,3,3,2,-9.550000000000001,-1.61,0.27,-3.4,1.22,1.22
12.75455784797668,3,3,3,2,-9.529999999999999,-2.15,0.42,-3.59,1.28,1.12
12.76455783843994,3,3,3,2,-9.5,-2.54,0.36,-3.51,1.09,1.01
12.77455806732178,3,3,3,2,-9.460000000000001,-2.72,0.42,-3.18,0.85,0.79
12.78455805778503,3,3,3,2,-9.44,-2.6,0.34,-2.83,0.64,0.53
12.79455804824829,3,3,3,2,-9.48,-2.6,0.22,-2.86,0.46,0.21
12.80455803871155,3,3,3,2,-9.5,-2.56,0.22,-3.01,0.5,-0.1
12.8145580291748,3,3,3,2,-9.57,-2.9,0.36,-3.26,0.59,-0.37
12.82455801963806,3,3,3,2,-9.630000000000001,-3.15,0.4,-3.73,0.65,-0.62
12.83455801010132,3,3,3,2,-9.67,-3.2,0.41,-3.95,0.67,-0.93
12.84455800056458,3,3,3,2,-9.609999999999999,-3.05,0.3,-4.07,0.68,-1.16
12.85455799102783,3,3,3,2,-9.52,-3.28,0.29,-4.03,0.8100000000000001,-1.41
12.86455798149109,3,3,3,2,-9.449999999999999,-3.5,0.19,-3.83,0.85,-1.61
12.87455797195435,3,3,3,3,-9.41,-3.36,0.02,-3.26,0.87,-1.87
12.8845579624176,3,3,3,3,-9.32,-2.6,0,-2.6,0.78,-2.09
12.89455795288086,3,3,3,3,-9.31,-2.47,-0.03,-2.36,0.75,-2.17
12.90455794334412,3,3,3,3,-9.31,-2.34,-0.05,-2.24,0.74,-2.2
12.91455793380737,3,3,3,3,-9.359999999999999,-2.5,-0.04,-2.15,0.79,-2.26
12.92455792427063,3,3,3,3,-9.42,-2.71,-0.28,-1.76,0.75,-2.33
12.93455791473389,3,3,3,3,-9.460000000000001,-2.83,-0.42,-0.84,0.9399999999999999,-2.42
12.94455790519714,3,3,3,3,-9.51,-2.98,-0.6,0.36,1.08,-2.58
12.9545578956604,3,3,3,3,-9.51,-2.78,-0.61,1.89,1.06,-2.72
12.96455788612366,3,3,3,3,-9.449999999999999,-1.81,-0.57,3.29,1.13,-2.81
12.97455787658691,3,3,3,3,-9.41,-1.56,-0.5,3.7,1.14,-2.76
12.98455786705017,3,3,3,3,-9.43,-1.45,-0.54,3.33,1.16,-2.65
12.99455785751343,3,3,3,3,-9.470000000000001,-1.41,-0.74,2.74,1.06,-2.57
13.00455784797668,3,3,3,3,-9.59,-1.73,-0.49,2.22,0.98,-2.55
13.01455783843994,3,3,3,3,-9.6,-1.86,-0.42,1.81,0.86,-2.58
13.02455806732178,3,3,3,3,-9.640000000000001,-2.03,-0.41,1.5,0.82,-2.74
13.03455805778503,3,3,3,3,-9.630000000000001,-2.13,-0.58,1.42,0.67,-2.88
13.04455804824829,3,3,3,3,-9.65,-1.76,-0.55,1.45,0.54,-3.02
13.05455803871155,3,3,3,3,-9.52,-1.49,-0.62,0.88,0.47,-3.03
13.0645580291748,3,3,3,3,-9.390000000000001,-1.48,-0.79,0.01,0.5,-2.99
13.07455801963806,3,3,3,2,-9.449999999999999,-1.7,-0.87,-0.53,0.6,-3.14
13.08455801010132,3,3,3,2,-9.609999999999999,-1.87,-1.35,-0.92,0.58,-3.36
13.09455800056458,3,3,3,2,-9.66,-1.93,-1.51,-1.3,0.49,-3.59
13.10455799102783,3,3,3,2,-9.68,-1.94,-1.66,-1.51,0.39,-3.75
13.11455798149109,3,3,3,2,-9.68,-1.79,-1.43,-1.49,0.35,-3.91
13.12455797195435,3,3,3,2,-9.710000000000001,-1.96,-1.05,-1.42,0.32,-4.03
13.13555788993835,3,3,3,2,-9.74,-1.81,-1.02,-1.16,0.4,-4.17
13.14555788040161,3,3,3,2,-9.720000000000001,-1.71,-0.89,-0.93,0.48,-4.06
13.15555787086487,3,3,3,2,-9.73,-1.9,-0.58,-0.46,0.53,-3.89
13.16555786132812,3,3,3,2,-9.640000000000001,-2.03,-0.46,0.13,0.58,-3.8
13.17555785179138,3,3,3,2,-9.449999999999999,-2.11,-0.59,0.68,0.65,-3.74
13.18555784225464,3,3,3,2,-9.470000000000001,-2.23,-0.58,1.47,0.71,-3.75
13.19555807113647,3,3,3,2,-9.470000000000001,-2.22,-0.62,2.05,0.68,-3.79
13.20555806159973,3,3,3,2,-9.34,-2.37,-0.5600000000000001,2.28,0.65,-3.8
13.21555805206299,3,3,3,2,-9.31,-2.51,-0.65,2.33,0.61,-3.93
13.22555804252625,3,3,3,2,-9.31,-2.67,-0.64,2.21,0.57,-4.08
13.2355580329895,3,3,3,2,-9.25,-2.88,-0.68,1.8,0.65,-4.13
13.24555802345276,3,3,3,2,-9.19,-3.22,-0.8100000000000001,1.66,0.76,-4.06
13.25555801391602,3,3,3,2,-9.130000000000001,-3.21,-0.65,1.75,0.82,-4.13
13.26555800437927,3,3,3,2,-9.06,-3.27,-0.5600000000000001,1.71,0.86,-4.34
13.27555799484253,3,3,3,2,-9.140000000000001,-3.24,-0.52,1.58,0.82,-4.61
13.28555798530579,3,3,3,2,-9.27,-3.28,-0.48,1.43,0.71,-4.89
13.29555797576904,3,3,3,2,-9.32,-3.3,-0.5600000000000001,1.33,0.67,-5.19
13.3055579662323,3,3,3,2,-9.27,-3.29,-0.5600000000000001,1.39,0.62,-5.45
13.31555795669556,3,3,3,2,-9.33,-3.18,-0.36,1.66,0.66,-5.68
13.32555794715881,3,3,3,2,-9.35,-3.07,-0.38,2.08,0.61,-5.86
13.33555793762207,3,3,3,2,-9.359999999999999,-3.07,-0.44,2.44,0.71,-5.98
13.34555792808533,3,3,3,2,-9.380000000000001,-3.16,-0.51,2.86,0.93,-5.97
13.35555791854858,3,3,3,2,-9.48,-3.11,-0.61,3.5,1.18,-5.78
13.36555790901184,3,3,3,2,-9.460000000000001,-3.07,-0.54,4.27,1.39,-5.47
13.3755578994751,3,3,3,2,-9.51,-3.1,-0.5,4.88,1.66,-5.16
13.38555788993835,3,3,3,2,-9.609999999999999,-3.34,-0.31,5.36,1.7,-5.05
13.39555788040161,3,3,3,2,-9.58,-2.83,-0.14,6.1,1.59,-5.15
13.40555787086487,3,3,3,2,-9.720000000000001,-2.74,0.06,6.21,1.61,-5.2
13.41555786132812,3,3,3,2,-9.720000000000001,-2.73,0.06,6.42,1.5,-5.33
13.42555785179138,3,3,3,1,-9.74,-2.78,-0.01,6.38,1.38,-5.5
13.43555784225464,3,3,3,1,-9.789999999999999,-2.85,-0.25,6.27,1.2,-5.71
13.44555807113647,3,3,3,1,-9.949999999999999,-2.85,-0.39,6.08,1.02,-5.97
13.45555806159973,3,3,3,1,-9.970000000000001,-2.78,-0.44,5.99,0.85,-6.18
13.46555805206299,3,3,3,1,-10.01,-2.76,-0.55,5.73,0.61,-6.33
13.47555804252625,3,3,3,1,-10.24,-2.57,-0.72,5.5,0.41,-6.45
13.4855580329895,3,3,3,1,-10.35,-2.63,-0.83,5.19,0.2,-6.47
13.49555802345276,3,3,3,1,-10.38,-2.74,-0.89,5,-0.05,-6.46
13.50555801391602,3,3,3,1,-10.43,-2.88,-0.92,4.96,-0.25,-6.41
13.51555800437927,3,3,3,1,-10.39,-3.03,-0.77,5.16,-0.3,-6.22
13.52555799484253,3,3,3,1,-10.46,-2.97,-0.91,5.22,-0.47,-6.04
13.53555798530579,3,3,3,1,-10.53,-2.7,-1.02,5.34,-0.68,-6.14
13.54555797576904,3,3,3,1,-10.81,-2.55,-1,5.46,-0.72,-6.42
13.5555579662323,3,3,3,1,-11.09,-2.55,-0.01,5.94,-0.71,-6.65
13.56555795669556,3,3,3,1,-10.99,-2.62,-0.14,6.46,-0.83,-6.6
13.57555794715881,3,3,3,0,-10.88,-2.46,-0.17,6.87,-0.85,-6
13.58555793762207,3,3,3,0,-10.89,-2.03,0.14,7.37,-0.74,-4.86
13.59555792808533,3,3,3,0,-11.16,-1.13,0.61,7.84,-0.89,-3.73
13.60555791854858,3,3,3,0,-11.08,-0.97,0.8,7.91,-1.02,-2.86
13.61555790901184,3,3,3,0,-10.89,-1.47,0.7,6.79,-0.91,-2.04
13.6255578994751,3,3,3,0,-10.77,-1.49,0.87,5.54,-0.55,-1.15
13.63555788993835,3,3,3,0,-10.85,-1.77,0.88,3.92,-0.19,-0.15
13.64555788040161,3,3,3,0,-10.93,-1.98,0.8,3.78,0.08,0.45
13.65555787086487,3,3,3,0,-10.76,-1.94,0.78,5.1,0.1,0.86
13.66555786132812,3,3,3,0,-10.71,-1.98,1.39,6.78,0.1,1.66
13.67555785179138,3,3,3,0,-10.44,-1.42,1.49,8.960000000000001,-0.09,2.72
13.68555784225464,3,3,3,0,-10.13,-0.75,1.61,10.97,-0.35,3.73
13.69555807113647,3,3,3,0,-9.9,-0.18,1.71,11.81,-0.8,4.61
13.70555806159973,3,3,3,0,-9.67,0.38,1.85,11.3,-1.44,5.67
13.71555805206299,3,3,3,0,-9.33,0.46,1.24,10.41,-2.16,6.92
13.72555804252625,3,3,3,0,-8.69,0.67,0.11,9.57,-2.19,8.27
13.7355580329895,3,3,3,0,-8.609999999999999,1.27,-0.02,9.300000000000001,-1.56,9.76
13.74555802345276,3,3,3,0,-8.74,1.31,0.39,9.23,-1.91,11.21
13.75555801391602,3,3,3,0,-8.699999999999999,1.6,0.35,9.380000000000001,-2.64,12.51
13.76555800437927,3,3,3,0,-8.789999999999999,1.63,0.33,8.77,-2.74,13.31
13.77555799484253,3,3,3,0,-8.880000000000001,0.87,0.25,7.27,-2.07,13.43
13.78555798530579,3,3,3,0,-9.17,-0.58,-0.05,5.39,-0.9,13.34
13.79555797576904,3,3,3,0,-9.449999999999999,-1.6,-0.47,2.99,0.21,13.26
13.8055579662323,3,3,3,0,-9.85,-1.84,-0.53,1.39,1.48,13.21
13.81555795669556,3,3,3,0,-10.24,-2.33,-0.67,0.12,2.24,13.83
13.82555794715881,3,3,3,0,-11.52,-4.49,-0.13,-1.3,3.16,13.78
13.85555791854858,3,3,3,0,-11.29,-4.04,-0.63,-1.26,4.77,15.05
13.86555790901184,3,3,3,0,-11.59,-3.91,-0.13,-2.12,5,16.06
13.91555786132812,3,3,3,0,-10.54,-4.13,-0.53,-4.8,5.06,20
13.92555785179138,3,3,3,0,-10.81,-3.59,-0.43,-5.4,5.06,20.15
13.93555784225464,3,3,3,0,-11,-3.4,-0.22,-7.04,4.79,20.31
13.94555807113647,3,3,3,0,-11.05,-4.01,0.01,-9.109999999999999,4.37,20.68
13.95555806159973,3,3,3,0,-10.96,-4.41,0.03,-10.95,4.01,20.97
13.96555805206299,3,3,3,0,-10.8,-4.18,0.07000000000000001,-12.46,3.6,21.1
13.97555804252625,3,3,3,0,-10.32,-4.22,-0.13,-13.88,3.07,21.28
13.9855580329895,3,3,3,0,-10.09,-4.2,-0.02,-14.87,2.84,21.44
13.99555802345276,3,3,3,0,-9.98,-4.38,-0.02,-15.93,2.49,21.67
14.00555801391602,3,3,3,0,-9.880000000000001,-4.41,0.09,-16.68,1.86,21.64
14.01555800437927,3,3,3,0,-9.58,-4.74,0.16,-17.39,1.32,21.24
14.02555799484253,3,3,3,0,-9.449999999999999,-5.27,0.1,-17.71,0.8,20.51
14.03555798530579,3,3,3,0,-9,-5.86,0,-16.92,0.36,19.4
14.04555797576904,3,3,3,0,-8.6,-6.19,-0.31,-15.12,-0.11,18.16
14.0555579662323,3,3,3,0,-7.75,-5.97,-0.39,-12.69,-0.4,17.1
14.06555795669556,3,3,3,0,-7.4,-5.28,-0.22,-10.5,-0.6899999999999999,16.23
14.07555794715881,3,3,3,0,-7.23,-4.48,-0.1,-9.34,-0.89,15.41
14.08555793762207,3,3,3,0,-7.14,-3.88,0,-9.23,-0.87,14.58
14.09555792808533,3,3,3,0,-7.11,-3.5,0.24,-9.48,-0.88,13.58
14.10555791854858,3,3,3,0,-7.16,-3.17,0.65,-9.69,-1.04,12.47
14.11555790901184,3,3,3,0,-7.38,-3.35,0.88,-10.23,-1.25,11.13
14.1255578994751,3,3,3,0,-7.21,-2.56,0.9,-11.06,-1.34,9.9
14.13555788993835,3,3,3,0,-7.31,-2.85,0.91,-12.03,-1.39,8.43
14.14555788040161,3,3,3,0,-7.63,-3.28,1.11,-12.72,-1.86,6.68
14.1565580368042,3,3,3,0,-7.48,-2.07,1.25,-11.65,-2.09,4.73
14.16655802726746,3,3,3,0,-7.8,-1.74,0.79,-9.67,-1.85,3.7
14.17655801773071,3,3,3,0,-8.460000000000001,0.74,0.64,-6.36,-1.49,2.81
14.18655800819397,3,3,3,0,-9.039999999999999,0.11,0.59,-4.1,-1.32,1.74
14.19655799865723,3,3,3,0,-8.98,4.52,1.25,-1.97,-1.11,1.1
14.20655798912048,3,3,3,0,-9.789999999999999,3.96,1.19,-3.24,-1.3,2.62
14.21655797958374,3,3,3,0,-10.89,6.22,2.17,-3.03,-2.22,3.43
14.226557970047,3,3,3,0,-10.72,7.2,2.29,-4.28,-2.94,4.65
14.23655796051025,3,3,3,0,-10.32,8.369999999999999,1.93,-5.69,-2.51,5.9
14.24655795097351,3,3,3,0,-10.29,9.890000000000001,1.16,-5.91,-0.5,6.94
14.25655794143677,3,3,3,0,-11.54,11.64,0.8,-4.97,1.4,7.63
14.26655793190002,3,3,3,0,-11.73,9.19,1.49,-4.33,2.55,7.93
14.27655792236328,3,3,3,0,-11.07,5.53,1.86,-3.85,2.45,7.33
14.28655791282654,3,3,3,0,-9.91,2.7,1.77,-3.4,2.41,5.86
14.29655790328979,3,3,3,0,-8.58,0.53,0.6,-2.81,3.4,4.04
14.30655789375305,3,3,3,0,-8.42,0.79,0.09,-2.58,4.08,2.48
14.31655788421631,3,3,3,0,-8.48,1.17,-0.08,-3.53,4.53,1.21
14.39655804634094,3,3,3,0,-16.56,11.17,6.24,-18.29,-2.09,-3.5
14.4065580368042,3,3,3,0,-11.9,4.77,3.88,-19.82,0.35,-3.44
14.41655802726746,3,3,3,0,-10.19,0.23,3.11,-19.07,1.84,-4.28
14.42655801773071,3,3,3,0,-8.41,-4.26,1.55,-15.51,5.08,-4.7
14.43655800819397,3,3,3,0,-7.34,-8.06,-1.27,-10.36,7.04,-5.17
14.44655799865723,3,3,3,0,-7.68,-9.27,-5.37,-4.89,7.65,-6.98
14.45655798912048,3,3,3,0,-7.72,-6.77,-6,-0.34,7.4,-9.880000000000001
14.46655797958374,3,3,3,0,-7.52,-4.51,-5.32,3.11,6.15,-12.08
14.476557970047,3,3,3,0,-8.43,-2.23,-3.77,5.39,4.5,-13.26
14.48655796051025,3,3,3,0,-10.19,-0.88,-1.09,3.95,2.91,-13.53
14.49655795097351,3,3,3,0,-10.96,-3.57,-0.73,-0.77,2.42,-13.32
14.50655794143677,3,3,3,0,-11.01,-5.38,-0.83,-2.65,3,-13.33
14.51655793190002,3,3,3,0,-10.63,-4.85,-0.23,-1.4,3.82,-13.9
14.52655792236328,3,3,3,0,-10.85,-2.47,2.01,-1.54,4.65,-14.18
14.53655791282654,3,3,3,0,-10.84,-2.48,2.07,-3.02,5.35,-13.78
14.54655790328979,3,3,3,0,-9.84,-2.6,1.54,-3.6,5.53,-13.53
14.55655789375305,3,3,3,0,-9.33,-2.04,0.95,-3.23,5.2,-13.61
14.56655788421631,3,3,3,0,-9.57,-0.65,-0.57,-3.27,4.42,-13.67
14.57655787467957,3,3,3,0,-9.5,-0.37,-1.41,-3.93,3.79,-13.55
14.58655786514282,3,3,3,0,-9.220000000000001,-0.42,-1.83,-4.76,3.61,-13.36
14.59655785560608,3,3,3,0,-9.08,-0.8,-2.15,-5.28,3.95,-13.38
14.60655784606934,3,3,3,0,-9.33,-2.29,-2.31,-4.78,4.32,-13.5
14.61655807495117,3,3,3,0,-9.199999999999999,-2.38,-2.13,-2.6,4.48,-13.64
14.62655806541443,3,3,3,0,-9.220000000000001,-2.46,-1.91,0.24,4.52,-13.74
14.63655805587769,3,3,3,0,-9.44,-2.51,-1.59,3.42,4.45,-13.91
14.64655804634094,3,3,3,0,-9.800000000000001,-1.9,-0.91,6.8,3.85,-14.32
14.6565580368042,3,3,3,0,-10.02,-1.11,-0.47,9.029999999999999,3.2,-14.5
14.66655802726746,3,3,3,0,-10.15,-0.21,-0.14,10.06,2.57,-14.39
14.67655801773071,3,3,3,0,-10.08,0.85,-0.17,9.859999999999999,2.11,-14.04
14.68655800819397,3,3,3,0,-9.58,2.85,-0.85,8.619999999999999,2.13,-13.66
14.69655799865723,3,3,3,0,-9.43,3.01,-1.4,6.59,2.33,-13.38
14.70655798912048,3,3,3,0,-9.31,2.77,-1.44,5.24,2.85,-13.1
14.71655797958374,3,3,3,0,-9.59,1,-0.63,5.52,3.55,-12.68
14.726557970047,3,3,3,0,-9.880000000000001,-0.5,-0.8,6.28,4.16,-11.76
14.73655796051025,3,3,3,0,-10.16,-1.43,-0.99,7.37,4.51,-10.21
14.74655795097351,3,3,3,0,-10.52,-2.15,-1.03,7.8,4.28,-8.609999999999999
14.75655794143677,3,3,3,0,-10.3,-2.84,-1.21,7.69,3.94,-7.31
14.76655793190002,3,3,3,0,-9.880000000000001,-2.9,-1.18,7.36,3.74,-6.76
14.77655792236328,3,3,3,0,-9.51,-2.64,-0.9399999999999999,6.95,3.69,-6.95
14.78655791282654,3,3,3,0,-9.26,-2.54,-0.78,6.25,3.56,-7.28
14.79655790328979,3,3,3,0,-8.949999999999999,-2.46,-0.59,5.46,3.46,-7.59
14.80655789375305,3,3,3,0,-9.19,-2.61,-0.39,5.11,3.36,-7.89
14.81655788421631,3,3,3,0,-9.380000000000001,-2.49,-0.31,5.16,3.15,-8.119999999999999
14.82655787467957,3,3,3,0,-9.539999999999999,-2.42,-0.2,5.36,2.98,-8.109999999999999
14.83655786514282,3,3,3,0,-9.59,-2.06,-0.37,5.56,2.74,-8.01
14.84655785560608,3,3,3,0,-9.550000000000001,-1.67,-0.58,5.72,2.6,-7.8
14.85655784606934,3,3,3,0,-9.56,-1.53,-0.45,5.48,2.54,-7.64
14.86655807495117,3,3,3,0,-9.51,-1.59,-0.41,5.06,2.54,-7.39
14.87655806541443,3,3,3,0,-9.32,-2.3,-0.53,4.59,2.64,-7.18
14.88655805587769,3,3,3,0,-9.279999999999999,-2.93,-0.63,4.3,2.71,-7.07
14.89655804634094,3,3,3,0,-9.18,-3.46,-1.25,4.35,2.89,-7.17
14.9065580368042,3,3,3,0,-9.109999999999999,-3.71,-0.99,5.37,3.1,-7.37
14.91655802726746,3,3,3,0,-9.09,-3.9,-0.72,6.32,3.23,-7.64
14.92655801773071,3,3,3,0,-8.98,-3.72,-0.62,7.28,3.23,-7.84
14.93655800819397,3,3,3,0,-8.85,-3.62,-0.66,8.029999999999999,3.27,-7.94
14.94655799865723,3,3,3,0,-8.91,-3.6,-0.71,8.619999999999999,3.12,-8.119999999999999
14.95655798912048,3,3,3,0,-9.1,-3.17,-0.71,9.09,2.95,-8.460000000000001
14.96655797958374,3,3,3,0,-9.24,-2.95,-0.83,9.24,2.82,-8.789999999999999
14.976557970047,3,3,3,0,-9.43,-2.71,-0.75,9.1,2.71,-9.02
14.98655796051025,3,3,3,0,-9.51,-2.35,-0.52,8.720000000000001,2.48,-9.19
14.99655795097351,3,3,3,0,-9.619999999999999,-1.96,-0.48,7.96,2.22,-9.27
15.00655794143677,3,3,3,0,-9.619999999999999,-1.73,-0.49,7.06,1.93,-9.32
15.01655793190002,3,3,3,0,-9.699999999999999,-1.63,-0.48,6.3,1.65,-9.32
15.02655792236328,3,3,3,0,-9.779999999999999,-1.53,-0.53,5.72,1.3,-9.19
15.03655791282654,3,3,3,0,-10.17,-1.18,-0.91,5.2,1.02,-8.98
15.04655790328979,3,3,3,0,-10.56,-1.08,-1.09,4.92,0.92,-8.720000000000001
15.05755805969238,3,3,3,0,-10.92,-1.23,-1.2,4.94,0.93,-8.44
15.06655788421631,3,3,3,0,-11.54,-1.33,-1.33,5.73,1.15,-8.23
15.07655787467957,3,3,3,0,-11.75,-1.25,-1.54,7,1.42,-8.039999999999999
15.08755803108215,3,3,3,0,-11.94,-0.8,-1.65,7,1.42,-8.039999999999999
15.09655785560608,3,3,3,0,-12.21,-0.18,-1.47,8.289999999999999,1.58,-7.86
15.10655784606934,3,3,3,0,-12.6,0.9,-0.15,10.86,1.7,-7.43
15.11655807495117,3,3,3,0,-12.69,1.47,0.16,11.45,1.43,-6.73
15.12655806541443,3,3,3,0,-12.66,2.2,0.48,11.63,1.07,-5.83
15.13655805587769,3,3,3,0,-12.51,2.72,0.67,11.63,1.07,-5.83
15.14655804634094,3,3,3,0,-12.76,3.19,1.19,11.22,0.7,-4.65
15.1565580368042,3,3,3,0,-13.09,3.42,1.54,10.4,-0.12,-1.55
15.16655802726746,3,3,3,0,-13.16,3.74,1.45,10.4,-0.12,-1.55
15.17755794525146,3,3,3,0,-12.9,4.16,1.3,10.49,-0.4,3.62
15.18755793571472,3,3,3,0,-12.41,3.26,2.52,10.49,-0.4,3.62
15.19755792617798,3,3,3,0,-12.22,2.48,2.59,9.380000000000001,-0.5600000000000001,6.62
15.20755791664124,3,3,3,0,-11.87,2.07,2.86,7.74,-1.45,9.58
15.21755790710449,3,3,3,0,-11.58,1.71,2.17,7.95,-3.36,11.66
15.22755789756775,3,3,3,0,-10.26,1.59,1.39,11.68,-6.83,13.03
15.23755788803101,3,3,3,0,-10.06,0.45,1.02,11.68,-6.83,13.03
15.24755787849426,3,3,3,0,-10.27,-1.1,0.09,11.26,-6.46,14.74
15.25755786895752,3,3,3,0,-10.72,-2.43,-0.83,9.949999999999999,-4.96,16.39
15.26755785942078,3,3,3,0,-12.86,-4.06,-0.53,8.84,-2.91,17.56
15.27755784988403,3,3,3,0,-13.63,-3.87,-0.29,8.31,-1.72,17.89
15.28755784034729,3,3,3,0,-13.84,-4.5,-0.13,8.609999999999999,-0.4,17.32
15.29755806922913,3,3,3,0,-13.62,-4.98,0.03,8.94,1.05,17.08
15.30755805969238,3,3,3,0,-12.73,-4.16,0.37,9.91,2.67,17.22
15.31755805015564,3,3,3,0,-13.05,-4.9,1.74,10.76,4.29,17.92
15.3275580406189,3,3,3,0,-12.51,-5.63,1.69,8.6,5.01,18.44
15.33755803108215,3,3,3,0,-11.61,-6.1,0.76,5.57,4.63,18.65
15.34755802154541,3,3,3,0,-11.1,-5.34,0.73,3.94,5.05,19.09
15.35755801200867,3,3,3,0,-11.44,-5.36,0.95,2.28,5.71,19.74
15.36755800247192,3,3,3,0,-11.63,-5.55,0.26,-0.6,5.84,20.55
15.37755799293518,3,3,3,0,-11.63,-5.42,-0.37,-2.18,5.48,21.29
15.38755798339844,3,3,3,0,-10.8,-4.54,-0.75,-3.05,5.35,21.98
15.39755797386169,3,3,3,0,-10.25,-4.38,-0.89,-3.98,5.24,23
15.40755796432495,3,3,3,0,-9.789999999999999,-4,-0.74,-4.95,4.83,24.03
15.41755795478821,3,3,3,0,-10.2,-3.64,-0.36,-6.39,4.34,24.95
15.42755794525146,3,3,3,0,-9.369999999999999,-4.66,-0.19,-9.76,3.78,25.2
15.43755793571472,3,3,3,0,-9.119999999999999,-5.13,-0.52,-12.4,2.95,25.08
15.44755792617798,3,3,3,0,-8.619999999999999,-5.94,-1.1,-14.41,2.03,24.69
15.45755791664124,3,3,3,0,-8.43,-6.1,-1.29,-14.63,1.73,24.33
15.46755790710449,3,3,3,0,-8.380000000000001,-5.8,-1.17,-13.88,1.69,23.92
15.47755789756775,3,3,3,0,-8.130000000000001,-5.43,-1.06,-12.6,1.37,23.41
15.48755788803101,3,3,3,0,-7.82,-5.14,-1.15,-11.57,0.74,22.74
15.49755787849426,3,3,3,0,-7.29,-5.65,-1.23,-11,0.55,22.05
15.50755786895752,3,3,3,0,-7.27,-5.8,-1.26,-10.24,-0.05,21.18
15.51755785942078,3,3,3,0,-7.19,-5.72,-1.21,-9.380000000000001,-0.15,20.05
15.52755784988403,3,3,3,0,-7.23,-5.4,-1.06,-8.75,-0.23,18.76
15.53755784034729,3,3,3,0,-7.07,-5.58,-1,-9.050000000000001,-0.29,17.43
15.54755806922913,3,3,3,0,-7,-5.54,-1.06,-10.25,-0.22,16.13
15.55755805969238,3,3,3,0,-6.77,-5.35,-1.19,-11.19,-0.18,14.84
15.56755805015564,3,3,3,0,-6.66,-5.33,-1.06,-11.63,-0.31,13.63
15.5775580406189,3,3,3,1,-6.23,-5.68,-0.42,-11.98,-0.46,12.51
15.58755803108215,3,3,3,1,-6.01,-6.18,-0.1,-12.1,-0.98,11.64
15.59755802154541,3,3,3,1,-5.65,-6.52,-0.09,-11.97,-1.59,10.47
15.60755801200867,3,3,3,1,-5.28,-6.9,-0.09,-10.87,-2.01,8.83
15.61755800247192,3,3,3,1,-5.22,-6.56,0.26,-8.960000000000001,-1.94,6.94
15.62755799293518,3,3,3,1,-5.31,-6.07,0.42,-6.69,-1.56,4.48
15.63755798339844,3,3,3,1,-5.66,-5.39,0.37,-5.08,-0.45,1.81
15.64755797386169,3,3,3,1,-6.03,-4.78,0.42,-5.01,0.82,-1.56
15.65755796432495,3,3,3,1,-7.21,-1.89,0.39,-5.85,1.16,-4.95
15.66755795478821,3,3,3,1,-8.130000000000001,0.9,0.58,-5.85,-0.09,-6.87
15.67755794525146,3,3,3,2,-9.630000000000001,3.96,1.3,-4.45,-1.05,-6.47
15.68755793571472,3,3,3,2,-11.5,7.4,3,-2.84,-0.54,-4.12
15.69755792617798,3,3,3,2,-12.98,17.15,6.3,-1.83,-0.05,-1.88
15.70755791664124,3,3,3,2,-12.85,23.3,6.23,-0.57,0.61,-0.19
15.71755790710449,3,3,3,2,-15.52,27.92,3.3,0.09,5.61,0.96
15.73755788803101,3,3,3,2,-12.14,10.22,0.83,-8.52,4.24,8.720000000000001
15.74755787849426,3,3,3,2,-9.67,2.73,3.46,-4.52,-2.66,8.67
15.75755786895752,3,3,3,2,-8.56,-1.82,3.19,-1.51,-1.36,7.52
15.76755785942078,3,3,3,2,-8.09,-2.6,0.96,-1.65,1.34,6.63
15.77755784988403,3,3,3,2,-10.14,2.41,-1.59,-0.23,3.08,4.76
15.78755784034729,3,3,3,2,-11.48,3.44,-1.93,-0.82,4.39,2.5
15.79755806922913,3,3,3,2,-11.14,5.6,-1.21,-4.32,5.14,0.76
15.80755805969238,3,3,3,2,-11.02,9.279999999999999,1.8,-9.109999999999999,4.03,1.55
15.81755805015564,3,3,3,2,-15.14,11.99,10.97,-17.66,0.67,4.04
15.8275580406189,3,3,3,2,-14.51,5.59,10.53,-31.59,-6.82,3.84
15.83755803108215,3,3,3,2,-11.73,-0.32,5.92,-38.57,-9.76,-0.11
15.84755802154541,3,3,3,2,-8.76,-9.9,-0.49,-29.15,-1.04,-3.11
15.85755801200867,3,3,3,2,-8.710000000000001,-13.23,-1.78,-22.53,2.67,-3.2
15.86755800247192,3,3,3,2,-9.59,-11.7,-5.19,-12.75,4.89,-3.83
15.87755799293518,3,3,3,2,-10.59,-9.49,-6.79,-4.64,7.17,-5.09
15.88755798339844,3,3,3,2,-8.41,-4.15,-7.51,-2.62,7.27,-6.93
15.92755794525146,3,3,3,2,-10.56,-9.039999999999999,-3.43,-4.63,6.56,-17.21
15.93755793571472,3,3,3,2,-10.01,-7.44,-2.4,-3.14,6.02,-17.01
15.94755792617798,3,3,3,2,-10.15,-5.23,-1.72,3.05,5.66,-16.84
15.95755791664124,3,3,3,2,-10.21,-2.78,-0.34,5.89,5.34,-16.48
15.96755790710449,3,3,3,2,-10.37,-0.64,2.2,5.84,5.03,-16.3
15.97755789756775,3,3,3,2,-10.27,-0.55,2.07,3.28,5.06,-15.85
15.98755788803101,3,3,3,2,-9.73,-0.74,1.36,-0.27,5.17,-15.38
15.99755787849426,3,3,3,2,-9.33,-0.68,0.21,-3.19,5.19,-15.36
16.00755786895752,3,3,3,2,-9.15,-1.17,-1.51,-5.01,5.04,-15.4
16.01755785942078,3,3,3,2,-9.220000000000001,-1.28,-1.85,-5.61,4.89,-15.35
16.02755784988403,3,3,3,2,-9.6,-1.65,-1.8,-4.88,5.06,-15.33
16.03755784034729,3,3,3,2,-9.82,-2.16,-1.62,-3.91,5.26,-15.47
16.04755806922913,3,3,3,2,-9.67,-3.08,-1.5,-2.55,5.22,-15.71
16.05755805969238,3,3,3,2,-9.65,-2.69,-1.18,-0.35,5.14,-15.8
16.06755805015564,3,3,3,2,-9.720000000000001,-2.66,-1,2.79,4.67,-15.87
16.0775580406189,3,3,3,2,-9.640000000000001,-2.14,-0.82,5.84,3.99,-15.98
16.08755803108215,3,3,3,2,-9.529999999999999,-1.44,-0.68,8.220000000000001,3.11,-16.03
16.09755802154541,3,3,3,2,-9.380000000000001,-1.04,-0.92,9.32,2.26,-15.98
16.10755801200867,3,3,3,2,-9.33,-0.25,-0.95,9.48,1.66,-15.89
16.11755800247192,3,3,3,2,-9.140000000000001,0.36,-1.05,8.869999999999999,1.39,-15.56
16.12755799293518,3,3,3,2,-9.31,1.37,-1.15,7.54,1.22,-15.1
16.13755798339844,3,3,3,2,-9.470000000000001,1.77,-1.18,6.39,1.2,-15.04
16.14755797386169,3,3,3,2,-9.6,1.74,-1.21,5.41,1.45,-15.21
16.15755796432495,3,3,3,2,-9.640000000000001,1.88,-1.01,5.62,2.02,-15.12
16.16755795478821,3,3,3,2,-10.03,1.55,-0.84,6.93,2.77,-14.26
16.17755794525146,3,3,3,2,-10.15,0.96,-0.9,7.89,3.37,-12.76
16.18755793571472,3,3,3,2,-10.18,0.26,-0.91,7.41,3.56,-11
16.19755792617798,3,3,3,2,-10.2,-0.54,-1.07,6.03,3.56,-9.550000000000001
16.20855784416199,3,3,3,2,-9.800000000000001,-1.76,-0.9399999999999999,4.46,3.43,-8.65
16.21855807304382,3,3,3,2,-9.470000000000001,-2.1,-0.72,3.43,3.29,-8.26
16.22855806350708,3,3,3,2,-9.050000000000001,-2.26,-0.43,3.24,3.28,-8.19
16.23855805397034,3,3,3,2,-8.82,-2.45,-0.33,3.73,3.39,-8.279999999999999
16.24855804443359,3,3,3,2,-8.960000000000001,-2.56,-0.59,4.38,3.59,-8.4
16.25855803489685,3,3,3,2,-9.08,-2.68,-0.64,5.06,3.55,-8.66
16.26855802536011,3,3,3,2,-9.27,-2.91,-0.66,5.75,3.47,-8.85
16.27855801582336,3,3,3,2,-9.56,-3.05,-0.6899999999999999,6.26,3.4,-8.94
16.28855800628662,3,3,3,2,-9.529999999999999,-2.81,-0.74,6.64,3.37,-8.98
16.29855799674988,3,3,3,2,-9.359999999999999,-2.48,-0.85,7.01,3.28,-8.94
16.30855798721313,3,3,3,2,-9.25,-2.24,-0.63,6.96,3.24,-8.9
16.31855797767639,3,3,3,2,-9.1,-2.12,-0.48,7.02,3.27,-9
16.32855796813965,3,3,3,2,-9.140000000000001,-2.42,-1.19,6.69,3.36,-8.960000000000001
16.33855795860291,3,3,3,2,-9.289999999999999,-2.54,-0.84,6.26,3.7,-8.82
16.34855794906616,3,3,3,2,-9.460000000000001,-2.63,-0.48,6.99,3.92,-8.789999999999999
16.35855793952942,3,3,3,2,-9.77,-2.74,-0.28,7.68,3.92,-8.92
16.36855792999268,3,3,3,2,-9.869999999999999,-2.43,-0.21,8.550000000000001,3.91,-9.039999999999999
16.37855792045593,3,3,3,2,-9.98,-2.23,-0.19,9.73,3.85,-9.039999999999999
16.38855791091919,3,3,3,2,-9.91,-1.89,-0.29,10.59,3.7,-9.039999999999999
16.39855790138245,3,3,3,2,-9.94,-0.96,-0.43,11.15,3.49,-9.01
16.4085578918457,3,3,3,2,-9.970000000000001,-0.67,-0.59,11.07,3.16,-8.94
16.41855788230896,3,3,3,2,-10.04,-0.63,-0.8100000000000001,10.22,2.8,-8.74
16.42855787277222,3,3,3,2,-10.13,-0.63,-1.01,9.279999999999999,2.54,-8.34
16.43855786323547,3,3,3,2,-10.82,-1.16,-1.08,8.699999999999999,2.46,-7.99
16.44855785369873,3,3,3,2,-11.34,-1.53,-1.02,8.960000000000001,2.52,-7.84
16.45855784416199,3,3,3,2,-11.86,-1.73,-1.03,9.82,2.62,-7.75
16.46855807304382,3,3,3,2,-12.25,-1.68,-1.3,10.93,2.58,-7.66
16.47855806350708,3,3,3,2,-13.17,-0.04,-0.67,12.17,2.44,-7.69
16.48855805397034,3,3,3,2,-13.68,1.01,-0.09,13.46,2.21,-7.67
16.49855804443359,3,3,3,2,-13.87,2.28,0.06,14.27,1.84,-7.27
16.50855803489685,3,3,3,2,-13.81,3.28,0.36,14.14,1.39,-6.22
16.51855802536011,3,3,3,2,-14.02,4.78,1.15,13.96,0.98,-4.72
16.52855801582336,3,3,3,2,-14.62,5.47,1.91,14.46,0.72,-2.84
16.53855800628662,3,3,3,2,-15.21,5.23,3.21,15.27,0.3,-0.21
16.54855799674988,3,3,3,2,-15.19,4.6,3.96,15.68,-0.9,3.06
16.55855798721313,3,3,3,2,-13.81,4.52,4,15.92,-2.64,6.69
16.56855797767639,3,3,3,2,-12.7,4.27,3.25,15.02,-4.17,10.71
16.57855796813965,3,3,3,1,-11.46,4.54,1.81,15,-5.49,13.89
16.58855795860291,3,3,3,1,-9.74,2.72,-1.24,14.93,-6.41,15.92
16.59855794906616,3,3,3,1,-10.84,0.04,-1.45,11.2,-6.14,17.39
16.60855793952942,3,3,3,1,-12.43,-2.45,-1.08,6.61,-4.53,18.78
16.61855792999268,3,3,3,1,-13.41,-3.51,-1.43,3.92,-3.65,19.83
16.62855792045593,3,3,3,1,-14.73,-3.09,-1.35,4.43,-2.89,19.58
16.63855791091919,3,3,3,1,-15.1,-3.86,-1.12,5.61,-1.4,19.32
16.64855790138245,3,3,3,1,-14.44,-4.42,-0.51,5.9,0.53,18.85
16.6585578918457,3,3,3,1,-13.34,-4.65,-0.09,5.11,2.36,18.64
16.66855788230896,3,3,3,1,-11.92,-4.8,0.88,3.51,3.87,19.21
16.67855787277222,3,3,3,0,-11.67,-6,1.73,1.45,4.65,19.99
16.68855786323547,3,3,3,0,-10.88,-7.09,0.99,-1.59,4.27,20.22
16.69855785369873,3,3,3,0,-10.43,-6.97,0.12,-2.39,4.04,20.12
16.70855784416199,3,3,3,0,-10.45,-6.79,-0.02,-1.05,4.56,20.16
16.71855807304382,3,3,3,0,-10.36,-6.45,-0.28,0.58,4.89,20.3
16.72855806350708,3,3,3,0,-10.27,-5.95,-0.48,1.49,4.6,20.54
16.73855805397034,3,3,3,0,-10.14,-5.19,-0.71,1.76,4.41,20.9
16.74855804443359,3,3,3,0,-9.66,-4.47,-0.84,1.27,4.39,21.42
16.75855803489685,3,3,3,0,-9.67,-4.21,-0.85,0.06,4.24,22.08
16.76855802536011,3,3,3,0,-9.6,-4.54,-0.71,-2.15,3.96,22.59
16.77855801582336,3,3,3,0,-9.17,-4.62,-0.54,-4.92,3.91,22.76
16.78855800628662,3,3,3,0,-8.52,-4.77,-0.62,-7.74,3.78,22.45
16.79855799674988,3,3,3,0,-8.300000000000001,-5.03,-0.91,-10.31,3.62,21.96
16.80855798721313,3,3,3,0,-8.1,-5.32,-0.96,-12.8,3.27,21.66
16.81855797767639,3,3,3,0,-7.91,-5.54,-1.04,-14.99,2.94,21.49
16.82855796813965,3,3,3,0,-7.64,-5.81,-1.17,-16.67,2.74,21.29
16.83855795860291,3,3,3,0,-7.72,-5.82,-1.15,-17.36,2.6,20.99
16.84855794906616,3,3,3,0,-7.74,-5.77,-1.08,-17.18,2.11,20.49
16.85855793952942,3,3,3,0,-7.43,-5.84,-0.96,-16.68,1.25,19.61
16.86855792999268,3,3,3,0,-7.35,-6.11,-0.78,-15.94,0.36,18.87
16.87855792045593,3,3,3,0,-7.37,-6.05,-0.76,-14.8,-0.47,18.08
16.88855791091919,3,3,3,0,-7.34,-5.98,-0.65,-13.51,-1.23,16.91
16.89855790138245,3,3,3,0,-7.25,-5.66,-0.53,-12.61,-1.59,15.42
16.9085578918457,3,3,3,0,-6.92,-5.63,-0.07000000000000001,-12.62,-1.77,14.17
16.91855788230896,3,3,3,0,-6.63,-5.68,0.02,-12.6,-1.74,12.72
16.92855787277222,3,3,3,0,-6.48,-5.68,0.19,-12.63,-1.83,11.31
16.93855786323547,3,3,3,0,-6.33,-5.67,0.46,-12.63,-1.94,9.789999999999999
16.94855785369873,3,3,3,0,-5.58,-5.79,0.5600000000000001,-12.57,-2.51,8.57
16.95855784416199,3,3,3,0,-5.3,-6.08,0.73,-12.77,-2.9,7.34
16.96855807304382,3,3,3,0,-5.06,-6.46,0.66,-12.33,-2.97,5.81
16.97855806350708,3,3,3,0,-5.6,-6.62,0.48,-10.45,-2.41,3.85
16.98855805397034,3,3,3,0,-5.92,-5.79,0.8100000000000001,-7.53,-1.59,1.31
16.99855804443359,3,3,3,0,-6.37,-3.98,1.26,-5.9,-0.99,-2.06
17.00855803489685,3,3,3,0,-6.81,-2.67,1.13,-7.2,-1.18,-4.66
17.01855802536011,3,3,3,0,-8.33,3.47,2.16,-7.22,-1.76,-5.93
17.02855801582336,3,3,3,0,-10.29,6.06,3.42,-5.33,-2.25,-5.1
17.03855800628662,3,3,3,0,-11.79,10.15,5.28,-6.38,-2.78,-1.37
17.04855799674988,3,3,3,0,-11.97,16.35,7.44,-4.96,-2.14,1.71
17.05855798721313,3,3,3,0,-15.65,38.55,4.09,-0.85,3.48,3.01
17.06855797767639,3,3,3,0,-26.14,35.03,-2.51,0.49,15.57,5.07
17.07855796813965,3,3,3,0,-20.86,23.17,-4.51,-12.52,10.64,11.37
17.08855795860291,3,3,3,0,-11.36,10.84,1.49,-16.05,-6.91,14.06
17.09855794906616,3,3,3,0,-9.17,-8.5,4.45,-7.69,-5.11,11.85
17.10855793952942,3,3,3,0,-9.07,-8.630000000000001,1.72,-3.99,1.85,10.69
17.11855792999268,3,3,3,0,-8.73,-4.25,-1.21,0.62,3.01,8.31
17.12855792045593,3,3,3,0,-9.18,1.1,-2.33,8.630000000000001,2.86,5.78
17.13855791091919,3,3,3,0,-9.31,1.91,-0.89,8.44,3.69,4.03
17.14855790138245,3,3,3,0,-8.56,4.24,-0.38,-0.3,3.64,3.28
17.1585578918457,3,3,3,0,-10.75,4.99,5.42,-11.95,3.88,3.75
17.16855788230896,3,3,3,0,-11.38,3.41,11.07,-22.46,-4.83,1.93
17.17855787277222,3,3,3,0,-14.13,4.59,6.42,-19.01,-11.3,-3.66
17.18855786323547,3,3,3,0,-14.71,0.45,0.78,-13.33,-3.16,-4.89
17.19855785369873,3,3,3,0,-13.12,-4.58,1.58,-12.87,3.29,-3.33
17.20855784416199,3,3,3,0,-11.4,-7.67,-2.13,-9.109999999999999,4.74,-2.72
17.21855807304382,3,3,3,0,-10.99,-11.08,-7.39,-7.9,6.27,-2.67
17.22855806350708,3,3,3,0,-10.5,-9.83,-7.54,-5.9,7.45,-4.25
17.23955798149109,3,3,3,0,-10.05,-6.07,-5.37,-0.99,7.02,-7.97
17.24955797195435,3,3,3,0,-10.21,-3.71,-1.52,3.25,6.03,-12.98
17.2595579624176,3,3,3,0,-10.88,-6.04,-1.98,2.23,7.22,-16.78
17.26955795288086,3,3,3,0,-10.69,-6.92,-2.33,0.44,7.74,-18.84
17.27955794334412,3,3,3,0,-10.31,-8.18,-1.74,1.66,6.92,-19.21
17.28955793380737,3,3,3,0,-10,-7.68,-1.62,6,6.4,-18.28
17.29955792427063,3,3,3,0,-10.29,-3.06,-0.31,10.28,5.39,-17.31
17.30955791473389,3,3,3,0,-10.02,-1.16,0.7,9.880000000000001,3.56,-16.04
17.31955790519714,3,3,3,0,-9.77,0.27,1.17,9.880000000000001,3.56,-16.04
17.3295578956604,3,3,3,0,-9.44,1.68,0.4,5.91,3.72,-15.36
17.33955788612366,3,3,3,0,-9.390000000000001,1.33,-0.28,1.31,4.05,-14.91
17.34955787658691,3,3,3,0,-9.24,0.63,-0.92,-2.13,4.3,-14.63
17.35955786705017,3,3,3,0,-9.25,0.21,-1.28,-3.24,4.43,-14.54
17.36955785751343,3,3,3,0,-9.76,-0.63,-1.61,-2.68,4.72,-14.74
17.37955784797668,3,3,3,0,-9.83,-0.98,-1.68,-1.64,4.86,-14.83
17.38955783843994,3,3,3,0,-9.81,-1.25,-1.53,-0.55,4.73,-14.62
17.39955806732178,3,3,3,0,-9.710000000000001,-1.48,-1.31,3.37,3.94,-14.09
17.40955805778503,3,3,3,0,-9.84,-2.15,-0.83,3.37,3.94,-14.09
17.41955804824829,3,3,3,0,-9.93,-1.45,-0.7,5.88,3.43,-14.29
17.42955803871155,3,3,3,1,-9.58,-1.2,-0.6899999999999999,7.79,2.78,-14.65
17.4395580291748,3,3,3,1,-9.6,-1.68,-0.83,8.130000000000001,1.8,-14.84
17.44955801963806,3,3,3,1,-9.52,-1.27,-1.13,7.36,1.29,-14.87
17.45955801010132,3,3,3,1,-9.67,-1.28,-1.11,6.81,0.8,-14.95
17.46955800056458,3,3,3,1,-9.66,-0.85,-1.15,6.81,0.8,-14.95
17.47955799102783,3,3,3,1,-9.56,-0.04,-1.26,6.36,0.35,-15.13
17.48955798149109,3,3,3,1,-9.19,1.21,-1.41,4.92,0.5,-15.62
17.49955797195435,3,3,3,1,-9.1,1.28,-1.27,5.2,1.31,-15.13
17.5095579624176,3,3,3,1,-9.17,0.92,-0.95,6.55,2.24,-14.07
17.51955795288086,3,3,3,1,-9.41,0.57,-0.8100000000000001,6.55,2.24,-14.07
17.52955794334412,3,3,3,1,-10.14,0.44,-0.93,7.63,2.77,-12.62
17.53955793380737,3,3,3,1,-10.31,0.17,-0.99,5.09,2.44,-10.03
17.54955792427063,3,3,3,1,-10.31,-0.54,-1.11,3.05,2.15,-9.33
17.55955791473389,3,3,3,1,-10.24,-1.17,-0.87,1.93,1.85,-8.99
17.56955790519714,3,3,3,2,-9.789999999999999,-1.51,-0.47,1.93,1.85,-8.99
17.5795578956604,3,3,3,2,-9.56,-1.37,-0.31,1.54,1.74,-8.880000000000001
17.58955788612366,3,3,3,2,-9.4,-1.25,-0.17,1.96,1.92,-8.51
17.59955787658691,3,3,3,2,-9.220000000000001,-1.38,-0.36,2.29,2.13,-8.35
17.60955786705017,3,3,3,2,-9.109999999999999,-2.23,-0.2,2.73,2.32,-8.300000000000001
17.61955785751343,3,3,3,2,-9.08,-2.57,-1.1,2.73,2.32,-8.300000000000001
17.62955784797668,3,3,3,2,-9.050000000000001,-2.74,-1,3.47,2.55,-8.199999999999999
17.63955783843994,3,3,3,2,-9.220000000000001,-3.37,-0.58,5.33,2.5,-8.300000000000001
17.64955806732178,3,3,3,2,-9.210000000000001,-3.72,-0.61,6.32,2.4,-8.529999999999999
17.65955805778503,3,3,3,2,-9.119999999999999,-3.43,-0.54,7.07,2.4,-8.68
17.66955804824829,3,3,3,2,-9.119999999999999,-3,-0.47,7.07,2.4,-8.68
17.67955803871155,3,3,3,3,-9.08,-2.37,-0.51,7.58,2.43,-8.74
17.6895580291748,3,3,3,3,-9.08,-2.14,-0.53,7.48,2.64,-8.74
17.69955801963806,3,3,3,3,-9.08,-2.08,-0.54,7.22,2.65,-8.68
17.70955801010132,3,3,3,3,-9.220000000000001,-2.15,-0.51,6.88,2.56,-8.69
17.71955800056458,3,3,3,3,-9.56,-2.08,-0.78,6.88,2.56,-8.69
17.72955799102783,3,3,3,3,-9.630000000000001,-1.91,-0.65,6.83,2.45,-8.69
17.73955798149109,3,3,3,3,-9.65,-1.92,-0.71,7.07,2.1,-8.82
17.74955797195435,3,3,3,3,-9.76,-1.77,-0.8100000000000001,7.3,1.93,-8.960000000000001
17.7595579624176,3,3,3,3,-9.640000000000001,-1.39,-0.7,7.33,1.75,-9.06
17.76955795288086,3,3,3,3,-9.609999999999999,-1.29,-0.55,7.33,1.75,-9.06
17.77955794334412,3,3,3,3,-9.68,-1.25,-0.67,7.21,1.55,-9.07
17.78955793380737,3,3,3,3,-9.99,-1.29,-0.86,6.58,1.15,-8.77
17.79955792427063,3,3,3,3,-10.69,-1.68,-1.02,6.81,1.07,-8.48
17.80955791473389,3,3,3,3,-10.96,-1.9,-1.1,7.65,1.15,-8.279999999999999
17.81955790519714,3,3,3,3,-11.06,-2.03,-1.21,7.65,1.15,-8.279999999999999
17.8295578956604,3,3,3,3,-11.24,-1.98,-1.18,8.92,1.28,-8.24
17.83955788612366,3,3,3,3,-11.8,-1.48,-1.25,11.02,1.07,-8.550000000000001
17.84955787658691,3,3,3,3,-12.15,-0.95,-1.1,11.38,0.76,-8.73
17.85955786705017,3,3,3,3,-12.73,-0.33,-0.25,11.71,0.29,-8.52
17.86955785751343,3,3,3,3,-13.07,0.39,0.53,11.71,0.29,-8.52
17.87955784797668,3,3,3,3,-12.66,2.07,0.65,11.64,-0.38,-7.69
17.88955783843994,3,3,3,3,-12.33,2.81,0.59,10.43,-1.23,-5.31
17.89955806732178,3,3,3,3,-12.4,3.46,0.79,10.57,-1.2,-3.69
17.90955805778503,3,3,3,3,-12.9,4.28,0.99,11.25,-1.22,-1.23
17.91955804824829,3,3,3,3,-14.02,4.85,2.46,11.25,-1.22,-1.23
17.92955803871155,3,3,3,3,-13.77,3.75,2.34,10.17,-1.89,1.92
17.9395580291748,3,3,3,3,-13.01,3.75,2.01,8.449999999999999,-2.78,8.98
17.94955801963806,3,3,3,3,-12.43,4.11,1.96,7.97,-3.38,12.36
17.95955801010132,3,3,3,3,-11.43,4.62,0.84,7.7,-4.87,14.63
17.96955800056458,3,3,3,3,-11.15,4.29,0.46,7.7,-4.87,14.63
17.97955799102783,3,3,3,3,-11.23,2.5,-0.09,6.06,-6.3,16.05
17.98955798149109,3,3,3,3,-11.37,-0.05,-1.12,1.95,-4.99,17.3
17.99955797195435,3,3,3,3,-12.38,-3.53,-1.6,1.37,-3.59,18.25
18.0095579624176,3,3,3,3,-13.13,-3.71,-1.12,2.67,-2.07,18.39
18.01955795288086,3,3,3,3,-13.63,-4.12,-0.93,2.67,-2.07,18.39
18.02955794334412,3,3,3,3,-13.41,-4.94,-0.64,4.06,-0.65,18.46
18.03955793380737,3,3,3,3,-12.73,-5.05,-0.24,6.07,2.53,18.95
18.04955792427063,3,3,3,3,-12.1,-4.69,-0.1,6.15,4.12,19.32
18.05955791473389,3,3,3,3,-11.78,-4.35,0.26,4.25,4.98,19.65
18.06955790519714,3,3,3,3,-11.6,-6.63,1.86,4.25,4.98,19.65
18.0795578956604,3,3,3,3,-10.98,-6.9,1.03,1.69,4.78,19.57
18.08955788612366,3,3,3,3,-10.97,-7.15,0.66,1.23,6.04,19.7
18.09955787658691,3,3,3,3,-11.24,-6.77,0.45,0.84,6.33,19.85
18.10955786705017,3,3,3,3,-11.43,-6.3,0.01,-0.25,6.15,20.48
18.11955785751343,3,3,3,3,-11.36,-5.55,-0.27,-0.25,6.15,20.48
18.12955784797668,3,3,3,3,-10.96,-5.55,-0.51,-1.06,5.66,21.24
18.13955783843994,3,3,3,3,-10.83,-5.1,-0.47,-3.48,5.08,23.41
18.14955806732178,3,3,3,3,-10.57,-4.37,-0.27,-5.97,4.62,24.19
18.15955805778503,3,3,3,3,-10.05,-4.93,-0.02,-8.48,3.98,24.52
18.16955804824829,3,3,3,3,-9.4,-5.11,0.09,-8.48,3.98,24.52
18.17955803871155,3,3,3,3,-8.880000000000001,-5.52,0.07000000000000001,-11.19,3.53,24.39
18.1895580291748,3,3,3,3,-8.18,-5.76,-0.45,-15.93,2.99,23.71
18.19955801963806,3,3,3,3,-8.17,-6.15,-0.74,-17.35,2.76,23.13
18.20955801010132,3,3,3,3,-8.130000000000001,-6.3,-0.86,-17.97,2.35,22.49
18.21955800056458,3,3,3,3,-8.06,-6.47,-1.01,-17.97,2.35,22.49
18.22955799102783,3,3,3,3,-7.9,-6.97,-0.67,-18.04,1.83,21.74
18.23955798149109,3,3,3,3,-7.67,-6.96,-0.61,-15.78,0.13,19.92
18.24955797195435,3,3,3,3,-7.52,-6.86,-0.78,-13.56,-0.34,19
18.26055788993835,3,3,3,3,-7.38,-6.7,-0.76,-11.46,-0.83,17.89
18.27055788040161,3,3,3,2,-7.03,-5.91,-0.51,-11.46,-0.83,17.89
18.28055787086487,3,3,3,2,-6.83,-5.37,-0.37,-10.04,-1.17,16.63
18.29055786132812,3,3,3,2,-6.81,-5.05,-0.29,-9.289999999999999,-1.46,14.23
18.30055785179138,3,3,3,2,-6.79,-4.9,-0.28,-9.31,-1.61,12.66
18.31055784225464,3,3,3,2,-6.79,-4.44,0.03,-9.460000000000001,-1.64,11.12
18.32055807113647,3,3,3,2,-6.69,-4.33,0.29,-9.460000000000001,-1.64,11.12
18.33055806159973,3,3,3,2,-6.33,-4.26,0.53,-9.619999999999999,-1.96,10.03
18.34055805206299,3,3,3,2,-5.79,-4.1,0.64,-9.619999999999999,-2.08,8.119999999999999
18.35055804252625,3,3,3,2,-5.77,-4.25,0.82,-8.880000000000001,-1.51,6.41
18.3605580329895,3,3,3,2,-6.21,-4.4,0.63,-7.55,-0.98,4.64
18.37055802345276,3,3,3,2,-6.49,-4.79,0.55,-7.55,-0.98,4.64
18.38055801391602,3,3,3,2,-6.49,-4.46,0.5600000000000001,-5.9,-0.6,1.83
18.39055800437927,3,3,3,2,-6.9,-3.35,-0.11,-4.58,0.07000000000000001,-3.92
18.40055799484253,3,3,3,2,-7.22,-1.91,-0.53,-3.22,-0.37,-4.65
18.41055798530579,3,3,3,2,-7.94,-0.02,-0.38,-2.47,-1.25,-3.65
18.42055797576904,3,3,3,2,-10.7,4.78,1.89,-2.47,-1.25,-3.65
18.4305579662323,3,3,3,2,-11.61,7.64,3.77,-2.38,-2.9,-1.61
18.44055795669556,3,3,3,2,-11.42,12.05,6.47,0.05,-2.69,1.93
18.45055794715881,3,3,3,2,-10.16,18.37,7.45,-0.25,5.76,3.2
18.46055793762207,3,3,3,2,-17.15,30.09,0.09,-5.9,11.49,7.72
18.47055792808533,3,3,3,2,-21.83,25.38,-2.85,-5.9,11.49,7.72
18.48055791854858,3,3,3,2,-16.55,16.65,-1.74,-11.23,0.97,12.15
18.49055790901184,3,3,3,2,-10.23,6.81,2.46,-5.98,-4.61,9.279999999999999
18.5005578994751,3,3,3,2,-8.1,-5.03,2.21,-4.19,0.45,8.09
18.51055788993835,3,3,3,2,-8.18,-3.23,0.03,-2.25,3.11,6.31
18.52055788040161,3,3,3,2,-8.300000000000001,0.53,-1,-2.25,3.11,6.31
18.53055787086487,3,3,3,2,-8.619999999999999,3.02,-1.29,-1.53,4.45,4.89
18.54055786132812,3,3,3,2,-7.82,-0.29,-1.05,-11.21,3.4,0.98
18.55055785179138,3,3,3,2,-7.65,-2.85,-1.59,-18.56,2.87,-0.79
18.56055784225464,3,3,3,2,-9.34,-4.01,0.26,-22.95,-1.39,-2.76
18.57055807113647,3,3,3,2,-10.24,-3.33,3.81,-22.95,-1.39,-2.76
