timestamp,magCalib,accCalib,gyrCalib,sysCalib,accX,accY,accZ,gyrX,gyrY,gyrZ
0.01055788993835449,2,3,3,2,-9.710000000000001,0.32,1.63,0.34,0.07000000000000001,-0.09
0.02055788040161133,2,3,3,2,-9.75,0.28,1.7,0.23,0.11,-0.09
0.03055787086486816,2,3,3,2,-9.76,0.3,1.67,0.03,-0.01,-0.09
0.040557861328125,2,3,3,2,-9.720000000000001,0.26,1.57,0.05,0,-0.09
0.05055785179138184,2,3,3,2,-9.699999999999999,0.24,1.57,0,0.04,-0.1
0.06055784225463867,2,3,3,2,-9.75,0.24,1.69,-0.04,0.1,-0.07000000000000001
0.07055807113647461,2,3,3,2,-9.75,0.24,1.68,-0.02,0.07000000000000001,-0.03
0.08055806159973145,2,3,3,2,-9.74,0.21,1.66,0.01,0.06,0.02
0.09055805206298828,2,3,3,2,-9.74,0.23,1.62,0.02,0.03,0.02
0.1005580425262451,2,3,3,2,-9.710000000000001,0.23,1.64,-0.03,0,0.02
0.110558032989502,2,3,3,2,-9.710000000000001,0.25,1.67,-0.07000000000000001,0,-0.02
0.1205580234527588,2,3,3,2,-9.720000000000001,0.22,1.7,-0.06,-0.01,-0.02
0.1305580139160156,2,3,3,2,-9.710000000000001,0.24,1.73,-0.04,-0.08,-0.05
0.1405580043792725,2,3,3,2,-9.73,0.2,1.54,0.09,-0.08,-0.08
0.1505579948425293,2,3,3,2,-9.73,0.18,1.6,0.04,-0.02,-0.08
0.1605579853057861,2,3,3,2,-9.75,0.19,1.65,0.04,-0.02,-0.08
0.170557975769043,2,3,3,2,-9.76,0.17,1.64,0.03,0,-0.04
0.1805579662322998,2,3,3,2,-9.73,0.2,1.62,0.03,-0.03,0.02
0.1905579566955566,2,3,3,2,-9.73,0.23,1.55,0.1,-0.03,0.07000000000000001
0.2005579471588135,2,3,3,2,-9.710000000000001,0.22,1.57,0.08,0,0.06
0.2105579376220703,2,3,3,2,-9.710000000000001,0.23,1.62,0.05,-0.02,0.06
0.2205579280853271,2,3,3,2,-9.68,0.22,1.65,-0.02,0,0.03
0.230557918548584,2,3,3,2,-9.699999999999999,0.22,1.64,-0.05,0.01,-0.03
0.2405579090118408,2,3,3,2,-9.699999999999999,0.19,1.59,-0.12,0.03,-0.07000000000000001
0.2505578994750977,2,3,3,2,-9.69,0.16,1.65,-0.1,0.03,-0.14
0.2605578899383545,2,3,3,2,-9.699999999999999,0.16,1.69,-0.1,0.03,-0.14
0.2705578804016113,2,3,3,2,-9.710000000000001,0.14,1.68,0.13,0.04,-0.15
0.2805578708648682,2,3,3,2,-9.73,0.16,1.64,0.19,0.02,-0.09
0.290557861328125,2,3,3,2,-9.710000000000001,0.19,1.54,0.18,0.07000000000000001,-0.05
0.3005578517913818,2,3,3,2,-9.73,0.21,1.58,0.11,0.08,-0.06
0.3105578422546387,2,3,3,2,-9.710000000000001,0.2,1.63,0.11,0.08,-0.06
0.3205580711364746,2,3,3,2,-9.68,0.18,1.63,0.03,0.06,-0.1
0.3305580615997314,2,3,3,2,-9.710000000000001,0.14,1.61,0,0.02,-0.12
0.3405580520629883,2,3,3,2,-9.710000000000001,0.12,1.59,0.09,0.08,-0.2
0.3505580425262451,2,3,3,2,-9.74,0.1,1.65,0.15,0.1,-0.19
0.360558032989502,2,3,3,2,-9.74,0.13,1.67,0.15,0.1,-0.19
0.3705580234527588,2,3,3,2,-9.73,0.11,1.72,0.18,0.09,-0.22
0.3805580139160156,2,3,3,2,-9.74,0.13,1.68,0.47,0.04,-0.13
0.3905580043792725,2,3,3,2,-9.699999999999999,0.12,1.56,0.57,0.11,-0.06
0.4005579948425293,2,3,3,2,-9.69,0.14,1.56,0.58,0.16,-0.06
0.4105579853057861,2,3,3,2,-9.73,0.15,1.63,0.58,0.16,-0.06
0.420557975769043,2,3,3,2,-9.720000000000001,0.18,1.63,0.47,0.23,-0.07000000000000001
0.4305579662322998,2,3,3,2,-9.73,0.16,1.66,0.4,0.19,-0.11
0.4405579566955566,2,3,3,2,-9.710000000000001,0.15,1.55,0.34,0.19,-0.13
0.4505579471588135,2,3,3,2,-9.68,0.14,1.58,0.26,0.22,-0.16
0.4605579376220703,2,3,3,2,-9.66,0.12,1.67,0.15,0.25,-0.16
0.4705579280853271,2,3,3,2,-9.69,0.13,1.69,0.15,0.26,-0.16
0.480557918548584,2,3,3,2,-9.68,0.13,1.59,0.3,0.19,-0.14
0.4905579090118408,2,3,3,2,-9.66,0.14,1.51,0.41,0.27,-0.18
0.5005578994750977,2,3,3,2,-9.67,0.14,1.57,0.34,0.34,-0.18
0.5105578899383545,2,3,3,2,-9.68,0.16,1.58,0.3,0.33,-0.16
0.5205578804016113,2,3,3,2,-9.640000000000001,0.17,1.63,0.27,0.38,-0.25
0.5305578708648682,2,3,3,2,-9.65,0.15,1.58,0.22,0.36,-0.28
0.540557861328125,2,3,3,2,-9.67,0.16,1.51,0.15,0.35,-0.41
0.5505578517913818,2,3,3,2,-9.69,0.13,1.53,0.17,0.39,-0.5
0.5605578422546387,2,3,3,2,-9.699999999999999,0.1,1.57,0.16,0.38,-0.6
0.5705580711364746,2,3,3,2,-9.75,0.06,1.57,0.11,0.4,-0.62
0.5805580615997314,2,3,3,2,-9.73,0.06,1.59,0.1,0.36,-0.63
0.5905580520629883,2,3,3,2,-9.720000000000001,0.03,1.56,0.14,0.36,-0.64
0.6005580425262451,2,3,3,2,-9.699999999999999,0.03,1.63,0.18,0.32,-0.64
0.610558032989502,2,3,3,2,-9.67,-0.01,1.62,0.32,0.33,-0.63
0.6205580234527588,2,3,3,2,-9.640000000000001,-0.04,1.63,0.5,0.35,-0.65
0.6305580139160156,2,3,3,2,-9.67,-0.04,1.63,0.6,0.44,-0.66
0.6405580043792725,2,3,3,2,-9.76,-0.08,1.48,0.61,0.52,-0.66
0.6505579948425293,2,3,3,2,-9.789999999999999,-0.01,1.53,0.58,0.6,-0.65
0.6605579853057861,2,3,3,2,-9.800000000000001,-0.04,1.59,0.53,0.5600000000000001,-0.6
0.670557975769043,2,3,3,2,-9.83,0.06,1.65,0.52,0.43,-0.54
0.6805579662322998,2,3,3,2,-9.81,0.06,1.6,0.58,0.32,-0.55
0.6905579566955566,2,3,3,2,-9.779999999999999,0.14,1.47,0.71,0.21,-0.54
0.7005579471588135,2,3,3,2,-9.76,0.16,1.5,0.78,0.2,-0.53
0.7105579376220703,2,3,3,2,-9.73,0.18,1.49,0.77,0.25,-0.49
0.7215578556060791,2,3,3,2,-9.75,0.18,1.48,0.7,0.34,-0.45
0.7315578460693359,2,3,3,2,-9.710000000000001,0.16,1.51,0.57,0.4,-0.42
0.7415580749511719,2,3,3,2,-9.74,0.13,1.46,0.47,0.43,-0.4
0.7515580654144287,2,3,3,2,-9.699999999999999,0.13,1.56,0.47,0.41,-0.37
0.7615580558776855,2,3,3,2,-9.720000000000001,0.08,1.61,0.48,0.42,-0.35
0.7715580463409424,2,3,3,2,-9.76,0.1,1.64,0.42,0.46,-0.37
0.7815580368041992,2,3,3,2,-9.77,0.11,1.65,0.27,0.35,-0.4
0.7915580272674561,2,3,3,2,-9.77,0.1,1.52,0.21,0.15,-0.42
0.8015580177307129,2,3,3,2,-9.77,0.1,1.51,0.24,0.03,-0.45
0.8115580081939697,2,3,3,2,-9.74,0.14,1.5,0.31,-0.01,-0.45
0.8215579986572266,2,3,3,2,-9.77,0.12,1.51,0.3,-0.02,-0.46
0.8315579891204834,2,3,3,2,-9.779999999999999,0.1,1.52,0.22,-0.01,-0.48
0.8415579795837402,2,3,3,2,-9.77,0.07000000000000001,1.46,0.01,-0.03,-0.48
0.8515579700469971,2,3,3,2,-9.779999999999999,0.06,1.54,-0.16,-0.12,-0.48
0.8615579605102539,2,3,3,2,-9.77,0.02,1.6,-0.25,-0.28,-0.49
0.8715579509735107,2,3,3,2,-9.74,0.02,1.61,-0.18,-0.35,-0.5
0.8815579414367676,2,3,3,2,-9.710000000000001,0,1.52,-0.02,-0.42,-0.53
0.8915579319000244,2,3,3,2,-9.720000000000001,0,1.44,0.2,-0.32,-0.53
0.9015579223632812,2,3,3,2,-9.75,0,1.52,0.08,-0.2,-0.53
0.9115579128265381,2,3,3,2,-9.710000000000001,-0.01,1.51,0.01,-0.28,-0.5
0.9215579032897949,2,3,3,2,-9.76,0,1.54,0.2,-0.29,-0.44
0.9315578937530518,2,3,3,2,-9.779999999999999,0,1.5,0.24,-0.22,-0.34
0.9415578842163086,2,3,3,2,-9.800000000000001,0.04,1.37,0.25,-0.17,-0.3
0.9515578746795654,2,3,3,2,-9.789999999999999,0.08,1.41,0.27,-0.17,-0.23
0.9615578651428223,2,3,3,2,-9.77,0.09,1.39,0.13,-0.16,-0.2
0.9715578556060791,2,3,3,2,-9.720000000000001,0.09,1.49,0.08,-0.17,-0.2
0.9815578460693359,2,3,3,2,-9.69,0.03,1.42,0.04,-0.2,-0.18
0.9915580749511719,2,3,3,2,-9.699999999999999,0.01,1.34,0.24,-0.11,-0.19
1.001558065414429,2,3,3,2,-9.75,0.01,1.41,0.25,0.06,-0.15
1.011558055877686,2,3,3,2,-9.779999999999999,-0.02,1.45,0.17,0.2,-0.11
1.021558046340942,2,3,3,2,-9.77,-0.04,1.59,0.09,0.19,-0.04
1.031558036804199,2,3,3,2,-9.74,-0.04,1.54,0.09,0.14,0
1.041558027267456,2,3,3,2,-9.720000000000001,0,1.48,0.19,0.11,0.01
1.051558017730713,2,3,3,2,-9.76,0.04,1.48,0.29,0,0
1.06155800819397,2,3,3,2,-9.77,0.05,1.44,0.42,0.03,-0.03
1.071557998657227,2,3,3,2,-9.81,0.02,1.4,0.47,0.06,-0.05
1.081557989120483,2,3,3,2,-9.800000000000001,0.05,1.42,0.4,0.05,-0.04
1.09155797958374,2,3,3,2,-9.82,0,1.44,0.07000000000000001,0.01,-0.02
1.101557970046997,2,3,3,2,-9.76,-0.02,1.45,-0.18,-0.12,-0.02
1.111557960510254,2,3,3,2,-9.720000000000001,-0.01,1.51,-0.16,-0.16,0.01
1.121557950973511,2,3,3,2,-9.710000000000001,-0.04,1.51,-0.05,-0.15,0.02
1.131557941436768,2,3,3,2,-9.73,-0.02,1.51,0.05,-0.09,0
1.141557931900024,2,3,3,2,-9.73,-0.04,1.42,0.12,-0.06,0.01
1.151557922363281,2,3,3,2,-9.73,-0.01,1.49,0.22,-0.04,-0.01
1.161557912826538,2,3,3,2,-9.76,-0.05,1.52,0.19,-0.1,0.01
1.171557903289795,2,3,3,2,-9.779999999999999,-0.05,1.47,0.14,-0.18,-0.05
1.181557893753052,2,3,3,2,-9.75,-0.05,1.47,0.12,-0.18,-0.04
1.191557884216309,2,3,3,2,-9.77,-0.07000000000000001,1.38,0.13,-0.13,-0.03
1.201557874679565,2,3,3,2,-9.77,-0.07000000000000001,1.38,0.17,-0.04,-0.01
1.211557865142822,2,3,3,2,-9.76,-0.02,1.46,0.21,0.02,0
1.221557855606079,2,3,3,2,-9.75,-0.04,1.5,0.11,0.01,0.04
1.231557846069336,2,3,3,2,-9.76,-0.03,1.5,0.06,0.02,0.03
1.241558074951172,2,3,3,2,-9.74,-0.03,1.42,0.07000000000000001,-0.02,0.03
1.251558065414429,2,3,3,2,-9.710000000000001,-0.03,1.44,0.08,0.03,0.03
1.261558055877686,2,3,3,2,-9.76,-0.06,1.46,0.23,0.07000000000000001,0.05
1.271558046340942,2,3,3,2,-9.779999999999999,-0.04,1.5,0.29,0.1,0.04
1.281558036804199,2,3,3,2,-9.789999999999999,-0.05,1.41,0.28,0.11,0.06
1.291558027267456,2,3,3,2,-9.81,-0.02,1.35,0.29,0.07000000000000001,0.11
1.301558017730713,2,3,3,2,-9.779999999999999,0.02,1.38,0.3,0.04,0.15
1.31155800819397,2,3,3,2,-9.76,0.02,1.4,0.27,0.01,0.15
1.321557998657227,2,3,3,2,-9.720000000000001,0.05,1.48,0.23,0.05,0.12
1.331557989120483,2,3,3,2,-9.75,0,1.51,0.19,0.07000000000000001,0.12
1.34155797958374,2,3,3,2,-9.76,-0.02,1.43,-0.01,0.08,0.09
1.351557970046997,2,3,3,2,-9.73,-0.04,1.46,-0.12,-0.02,0.07000000000000001
1.361557960510254,2,3,3,2,-9.710000000000001,-0.05,1.52,-0.03,-0.03,0.05
1.371557950973511,2,3,3,2,-9.74,-0.07000000000000001,1.49,0.09,-0.05,0.06
1.381557941436768,2,3,3,2,-9.75,-0.04,1.52,0.14,0.07000000000000001,0.03
1.391557931900024,2,3,3,2,-9.779999999999999,-0.04,1.45,0.21,0.08,0.05
1.401557922363281,2,3,3,2,-9.779999999999999,-0.03,1.38,0.36,0.1,0.13
1.411557912826538,2,3,3,2,-9.789999999999999,0,1.39,0.4,0.17,0.15
1.421557903289795,2,3,3,2,-9.76,0,1.46,0.33,0.21,0.15
1.431557893753052,2,3,3,2,-9.76,0,1.49,0.19,0.17,0.12
1.441557884216309,2,3,3,2,-9.73,0.02,1.4,0.14,0.08,0.11
1.451557874679565,2,3,3,2,-9.75,0.01,1.45,0.18,0.02,0.06
1.461557865142822,2,3,3,2,-9.75,0.03,1.45,0.23,0.05,0.07000000000000001
1.471557855606079,2,3,3,2,-9.75,0.01,1.53,0.3,0.1,0.07000000000000001
1.481557846069336,2,3,3,2,-9.74,0.01,1.45,0.23,0.12,0.11
1.491558074951172,2,3,3,2,-9.77,0.03,1.39,0.23,0.15,0.14
1.501558065414429,2,3,3,2,-9.76,0.03,1.4,0.2,0.17,0.13
1.511558055877686,2,3,3,2,-9.779999999999999,-0.04,1.55,0.06,0.09,0.16
1.521558046340942,2,3,3,2,-9.699999999999999,-0.04,1.53,-0.15,-0.04,0.09
1.531558036804199,2,3,3,2,-9.699999999999999,-0.02,1.52,-0.07000000000000001,-0.14,0.11
1.541558027267456,2,3,3,2,-9.73,-0.04,1.43,0.02,-0.03,0.11
1.551558017730713,2,3,3,2,-9.789999999999999,-0.03,1.46,0.14,0.09,0.13
1.56155800819397,2,3,3,2,-9.77,0.01,1.46,0.24,0.17,0.13
1.571557998657227,2,3,3,2,-9.75,0.05,1.51,0.22,0.09,0.12
1.581557989120483,2,3,3,2,-9.77,0.01,1.55,0.14,0.03,0.1
1.59155797958374,2,3,3,2,-9.720000000000001,0.02,1.35,0.1,-0.08,0.07000000000000001
1.601557970046997,2,3,3,2,-9.73,0.03,1.46,0.08,-0.11,0.07000000000000001
1.611557960510254,2,3,3,2,-9.699999999999999,0.01,1.47,-0.08,-0.1,0.05
1.621557950973511,2,3,3,2,-9.699999999999999,0,1.48,-0.02,-0.05,0.05
1.631557941436768,2,3,3,2,-9.76,-0.04,1.55,-0.1,0.03,0.03
1.641557931900024,2,3,3,2,-9.75,-0.05,1.47,-0.23,-0.03,0.04
1.651557922363281,2,3,3,2,-9.720000000000001,0.01,1.48,-0.15,-0.1,0.07000000000000001
1.661557912826538,2,3,3,2,-9.75,0.02,1.48,0.02,-0.1,0.13
1.671557903289795,2,3,3,2,-9.76,0.06,1.45,0.21,-0.02,0.17
1.681557893753052,2,3,3,2,-9.81,0.12,1.44,0.27,0.03,0.15
1.691557884216309,2,3,3,2,-9.81,0.14,1.31,0.18,-0.04,0.16
1.701557874679565,2,3,3,2,-9.76,0.07000000000000001,1.39,0.05,-0.07000000000000001,0.17
1.711557865142822,2,3,3,2,-9.710000000000001,0.03,1.53,-0.18,-0.08,0.11
1.721557855606079,2,3,3,2,-9.69,0,1.58,-0.31,-0.13,0.12
1.731557846069336,2,3,3,2,-9.720000000000001,-0.02,1.57,-0.37,-0.09,0.11
1.742558002471924,2,3,3,2,-9.720000000000001,-0.01,1.51,-0.24,-0.1,0.1
1.752557992935181,2,3,3,2,-9.74,0.03,1.53,-0.11,-0.02,0.11
1.762557983398438,2,3,3,2,-9.77,0.05,1.5,0,-0.02,0.11
1.772557973861694,2,3,3,2,-9.76,0.05,1.51,0.03,-0.05,0.14
1.782557964324951,2,3,3,2,-9.800000000000001,0.09,1.41,0.08,-0.08,0.2
1.792557954788208,2,3,3,2,-9.77,0.09,1.36,0.05,-0.09,0.21
1.802557945251465,2,3,3,2,-9.76,0.06,1.4,-0.06,-0.08,0.2
1.812557935714722,2,3,3,2,-9.75,0.07000000000000001,1.47,-0.15,-0.06,0.22
1.822557926177979,2,3,3,2,-9.720000000000001,0.04,1.51,-0.24,-0.11,0.21
1.832557916641235,2,3,3,2,-9.720000000000001,0.04,1.52,-0.21,-0.1,0.19
1.842557907104492,2,3,3,2,-9.699999999999999,0.03,1.44,-0.21,-0.07000000000000001,0.11
1.852557897567749,2,3,3,2,-9.699999999999999,0.05,1.47,-0.17,-0.05,0.11
1.862557888031006,2,3,3,2,-9.699999999999999,0.04,1.51,-0.03,-0.03,0.13
1.872557878494263,2,3,3,2,-9.73,0,1.48,0.1,-0.02,0.15
1.88255786895752,2,3,3,2,-9.75,0,1.47,0.2,0.11,0.19
1.892557859420776,2,3,3,2,-9.779999999999999,0,1.39,0.26,0.22,0.24
1.902557849884033,2,3,3,2,-9.789999999999999,0.02,1.37,0.29,0.23,0.25
1.91255784034729,2,3,3,2,-9.76,0.05,1.4,0.36,0.24,0.33
1.922558069229126,2,3,3,2,-9.75,0.06,1.44,0.35,0.29,0.34
1.932558059692383,2,3,3,2,-9.74,0.12,1.45,0.37,0.36,0.35
1.94255805015564,2,3,3,2,-9.720000000000001,0.1,1.38,0.38,0.38,0.37
1.952558040618896,2,3,3,2,-9.699999999999999,0.1,1.44,0.48,0.4,0.36
1.962558031082153,2,3,3,2,-9.73,0.11,1.5,0.49,0.44,0.37
1.97255802154541,2,3,3,2,-9.73,0.11,1.5,0.45,0.4,0.38
1.982558012008667,2,3,3,2,-9.73,0.12,1.49,0.44,0.41,0.38
1.992558002471924,2,3,3,2,-9.76,0.13,1.4,0.33,0.38,0.41
2.002557992935181,2,3,3,2,-9.76,0.12,1.43,0.22,0.27,0.39
2.012557983398438,2,3,3,2,-9.720000000000001,0.1,1.46,0.1,0.25,0.38
2.022557973861694,2,3,3,2,-9.720000000000001,0.1,1.46,0.1,0.25,0.38
2.032557964324951,2,3,3,2,-9.720000000000001,0.13,1.49,0.14,0.2,0.35
2.042557954788208,2,3,3,2,-9.73,0.07000000000000001,1.4,0.13,0.27,0.31
2.052557945251465,2,3,3,2,-9.73,0.05,1.45,0.1,0.3,0.3
2.062557935714722,2,3,3,2,-9.73,0.06,1.52,0.08,0.33,0.28
2.072557926177979,2,3,3,2,-9.73,0.06,1.52,0.08,0.33,0.28
2.082557916641235,2,3,3,2,-9.720000000000001,0.02,1.52,0.1,0.29,0.27
2.092557907104492,2,3,3,2,-9.74,0.06,1.42,0.31,0.28,0.23
2.102557897567749,2,3,3,2,-9.74,0.07000000000000001,1.45,0.41,0.25,0.2
2.112557888031006,2,3,3,2,-9.76,0.08,1.51,0.44,0.23,0.19
2.122557878494263,2,3,3,2,-9.76,0.08,1.51,0.44,0.23,0.19
2.13255786895752,2,3,3,2,-9.77,0.1,1.54,0.35,0.24,0.18
2.142557859420776,2,3,3,2,-9.76,0.12,1.52,-0.09,0,0.08
2.152557849884033,2,3,3,2,-9.76,0.16,1.47,-0.16,-0.19,0
2.16255784034729,2,3,3,2,-9.720000000000001,0.19,1.5,-0.12,-0.28,-0.02
2.172558069229126,2,3,3,2,-9.710000000000001,0.19,1.48,-0.12,-0.28,-0.02
2.182558059692383,2,3,3,2,-9.73,0.18,1.5,-0.04,-0.23,-0.03
2.19255805015564,2,3,3,2,-9.74,0.2,1.52,-0.05,-0.08,-0.03
2.202558040618896,2,3,3,2,-9.76,0.17,1.4,-0.02,-0.06,0.04
2.212558031082153,2,3,3,2,-9.779999999999999,0.23,1.45,-0.1,-0.11,0.05
2.22255802154541,2,3,3,2,-9.779999999999999,0.24,1.51,-0.1,-0.11,0.05
2.232558012008667,2,3,3,2,-9.77,0.24,1.49,-0.22,-0.12,0.06
2.242558002471924,2,3,3,2,-9.76,0.25,1.5,-0.28,-0.3,0.06
2.252557992935181,2,3,3,2,-9.77,0.23,1.44,-0.37,-0.31,0.04
2.262557983398438,2,3,3,2,-9.77,0.2,1.48,-0.41,-0.35,0.01
2.272557973861694,2,3,3,2,-9.77,0.17,1.46,-0.41,-0.35,0.01
2.282557964324951,2,3,3,2,-9.76,0.16,1.5,-0.59,-0.33,0
2.292557954788208,2,3,3,2,-9.73,0.19,1.45,-0.67,-0.4,0.09
2.302557945251465,2,3,3,2,-9.710000000000001,0.16,1.36,-0.53,-0.35,0.14
2.312557935714722,2,3,3,2,-9.699999999999999,0.18,1.37,-0.5,-0.22,0.16
2.322557926177979,2,3,3,2,-9.76,0.13,1.49,-0.5,-0.22,0.16
2.332557916641235,2,3,3,2,-9.73,0.11,1.51,-0.57,-0.19,0.12
2.342557907104492,2,3,3,2,-9.73,0.05,1.55,-0.51,-0.22,0.12
2.352557897567749,2,3,3,2,-9.74,0.05,1.46,-0.3,-0.18,0.14
2.362557888031006,2,3,3,2,-9.73,0.03,1.51,0.01,-0.14,0.17
2.372557878494263,2,3,3,2,-9.75,0.04,1.49,0.01,-0.14,0.17
2.38255786895752,2,3,3,2,-9.779999999999999,0.06,1.51,0.24,0,0.19
2.392557859420776,2,3,3,2,-9.789999999999999,0.12,1.45,0.31,0,0.22
2.402557849884033,2,3,3,2,-9.77,0.21,1.38,0.25,-0.04,0.2
2.41255784034729,2,3,3,2,-9.720000000000001,0.2,1.43,0.16,-0.11,0.2
2.422558069229126,2,3,3,2,-9.710000000000001,0.21,1.44,0.16,-0.11,0.2
2.432558059692383,2,3,3,2,-9.69,0.19,1.52,0.06,-0.03,0.16
2.44255805015564,2,3,3,2,-9.720000000000001,0.16,1.46,0.01,0.03,0.16
2.452558040618896,2,3,3,2,-9.75,0.12,1.42,0,0.08,0.13
2.462558031082153,2,3,3,2,-9.73,0.14,1.46,-0.01,0.03,0.15
2.47255802154541,2,3,3,2,-9.74,0.11,1.52,-0.01,0.03,0.15
2.482558012008667,2,3,3,2,-9.73,0.14,1.63,0.04,-0.03,0.1
2.492558002471924,2,3,3,2,-9.699999999999999,0.14,1.54,0.1,-0.08,0.09
2.502557992935181,2,3,3,2,-9.720000000000001,0.18,1.42,0.12,-0.06,0.08
2.512557983398438,2,3,3,2,-9.720000000000001,0.17,1.46,0.03,-0.05,0.12
2.522557973861694,2,3,3,2,-9.74,0.14,1.48,0.03,-0.05,0.12
2.532557964324951,2,3,3,2,-9.75,0.15,1.49,-0.09,-0.01,0.08
2.542557954788208,2,3,3,2,-9.789999999999999,0.16,1.51,-0.19,-0.04,0.09
2.552557945251465,2,3,3,2,-9.76,0.14,1.43,-0.19,-0.04,0.09
2.562557935714722,2,3,3,2,-9.75,0.15,1.51,-0.28,-0.09,0.03
2.572557926177979,2,3,3,2,-9.699999999999999,0.16,1.51,-0.1,-0.21,0.03
2.582557916641235,2,3,3,2,-9.710000000000001,0.17,1.46,0.03,-0.18,0.05
2.592557907104492,2,3,3,2,-9.76,0.16,1.43,0.02,-0.11,0.06
2.602557897567749,2,3,3,2,-9.74,0.18,1.42,-0.07000000000000001,-0.1,0.02
2.612557888031006,2,3,3,2,-9.710000000000001,0.13,1.47,-0.17,-0.14,0.03
2.622557878494263,2,3,3,2,-9.73,0.13,1.51,-0.16,-0.24,0.03
2.63255786895752,2,3,3,2,-9.73,0.14,1.58,-0.16,-0.31,0.02
2.642557859420776,2,3,3,2,-9.699999999999999,0.16,1.57,-0.05,-0.26,-0.02
2.652557849884033,2,3,3,2,-9.720000000000001,0.18,1.43,0.04,-0.19,0.02
2.66255784034729,2,3,3,2,-9.74,0.17,1.42,0.15,-0.09,0.04
2.672558069229126,2,3,3,2,-9.779999999999999,0.2,1.47,0.03,-0.04,0.05
2.682558059692383,2,3,3,2,-9.779999999999999,0.17,1.55,-0.24,-0.1,0.05
2.69255805015564,2,3,3,2,-9.74,0.17,1.53,-0.31,-0.2,0.05
2.702558040618896,2,3,3,2,-9.699999999999999,0.18,1.44,-0.13,-0.22,0.04
2.712558031082153,2,3,3,2,-9.710000000000001,0.2,1.52,-0.05,-0.21,0.05
2.72255802154541,2,3,3,2,-9.720000000000001,0.22,1.48,0.05,-0.17,0.08
2.732558012008667,2,3,3,2,-9.73,0.23,1.48,0.1,-0.07000000000000001,0.12
2.742558002471924,2,3,3,2,-9.75,0.22,1.45,0.07000000000000001,0.02,0.13
2.752557992935181,2,3,3,2,-9.73,0.2,1.42,0.05,0.04,0.13
2.762557983398438,2,3,3,2,-9.74,0.21,1.46,-0.07000000000000001,0.05,0.13
2.773557901382446,2,3,3,2,-9.76,0.19,1.47,-0.14,0.03,0.17
2.783557891845703,2,3,3,2,-9.74,0.16,1.58,-0.18,-0.08,0.12
2.79355788230896,2,3,3,2,-9.74,0.17,1.54,-0.14,-0.13,0.15
2.803557872772217,2,3,3,2,-9.720000000000001,0.14,1.42,-0.01,-0.1,0.15
2.813557863235474,2,3,3,2,-9.720000000000001,0.14,1.43,0.09,0.01,0.16
2.82355785369873,2,3,3,2,-9.75,0.18,1.56,0.04,0.08,0.18
2.833557844161987,2,3,3,2,-9.75,0.15,1.53,0.01,0.03,0.18
2.843558073043823,2,3,3,2,-9.720000000000001,0.16,1.51,0.08,-0.02,0.21
2.85355806350708,2,3,3,2,-9.73,0.18,1.47,0.07000000000000001,0.01,0.22
2.863558053970337,2,3,3,2,-9.720000000000001,0.15,1.54,0.05,0.02,0.23
2.873558044433594,2,3,3,2,-9.710000000000001,0.15,1.54,0.15,0,0.2
2.883558034896851,2,3,3,2,-9.73,0.17,1.55,0.25,0.05,0.22
2.893558025360107,2,3,3,2,-9.75,0.18,1.52,0.22,0.15,0.2
2.903558015823364,2,3,3,2,-9.74,0.23,1.4,0.21,0.14,0.2
2.913558006286621,2,3,3,2,-9.74,0.2,1.48,0.18,0.09,0.18
2.923557996749878,2,3,3,2,-9.75,0.23,1.55,0.17,0.04,0.18
2.933557987213135,2,3,3,2,-9.710000000000001,0.23,1.55,0.15,-0.01,0.13
2.943557977676392,2,3,3,2,-9.720000000000001,0.21,1.51,0.11,-0.01,0.11
2.953557968139648,2,3,3,2,-9.73,0.21,1.44,0.08,-0.06,0.09
2.963557958602905,2,3,3,2,-9.710000000000001,0.2,1.5,0.1,-0.06,0.1
2.973557949066162,2,3,3,2,-9.73,0.2,1.53,0.12,0.01,0.11
2.983557939529419,2,3,3,2,-9.75,0.23,1.58,0.05,0.06,0.12
2.993557929992676,2,3,3,2,-9.75,0.24,1.63,-0.02,0,0.12
3.003557920455933,2,3,3,2,-9.74,0.21,1.47,-0.07000000000000001,-0.09,0.12
3.013557910919189,2,3,3,2,-9.69,0.18,1.48,-0.07000000000000001,-0.06,0.07000000000000001
3.023557901382446,2,3,3,2,-9.710000000000001,0.16,1.54,-0.13,0,0.07000000000000001
3.033557891845703,2,3,3,2,-9.710000000000001,0.18,1.53,-0.11,0,0.07000000000000001
3.04355788230896,2,3,3,2,-9.720000000000001,0.15,1.53,-0.06,0.02,0.07000000000000001
3.053557872772217,2,3,3,2,-9.74,0.17,1.41,0.03,-0.01,0.06
3.063557863235474,2,3,3,2,-9.74,0.15,1.49,0.06,0.02,0.06
3.07355785369873,2,3,3,2,-9.76,0.15,1.51,0.1,0.06,0.05
3.083557844161987,2,3,3,3,-9.76,0.16,1.57,0.08,0.06,0.04
3.093558073043823,2,3,3,3,-9.75,0.18,1.54,0.1,-0.03,0.05
3.10355806350708,2,3,3,3,-9.74,0.19,1.47,0.17,-0.05,0.02
3.113558053970337,2,3,3,3,-9.74,0.19,1.49,0.19,-0.04,0
3.123558044433594,2,3,3,3,-9.74,0.23,1.56,0.22,-0.09,0.02
3.133558034896851,2,3,3,3,-9.720000000000001,0.22,1.54,0.19,-0.1,-0.03
3.143558025360107,2,3,3,3,-9.73,0.25,1.54,0.12,-0.05,-0.02
3.153558015823364,2,3,3,3,-9.710000000000001,0.25,1.47,0.06,-0.05,0
3.163558006286621,2,3,3,3,-9.720000000000001,0.25,1.55,-0.02,-0.06,-0.01
3.173557996749878,2,3,3,3,-9.710000000000001,0.22,1.57,-0.08,-0.04,0
3.183557987213135,2,3,3,3,-9.75,0.25,1.61,-0.16,-0.08,-0.03
3.193557977676392,2,3,3,3,-9.720000000000001,0.22,1.57,-0.2,-0.12,-0.04
3.203557968139648,2,3,3,3,-9.75,0.26,1.47,-0.14,-0.12,-0.04
3.213557958602905,2,3,3,3,-9.76,0.26,1.45,-0.13,-0.09,-0.04
3.223557949066162,2,3,3,3,-9.75,0.26,1.47,-0.14,-0.05,-0.05
3.233557939529419,2,3,3,3,-9.75,0.28,1.51,-0.16,-0.07000000000000001,-0.04
3.243557929992676,2,3,3,3,-9.73,0.26,1.45,-0.23,-0.13,-0.05
3.253557920455933,2,3,3,3,-9.73,0.27,1.44,-0.28,-0.17,-0.06
3.263557910919189,2,3,3,3,-9.74,0.23,1.52,-0.34,-0.22,-0.11
3.273557901382446,2,3,3,3,-9.710000000000001,0.22,1.6,-0.31,-0.21,-0.11
3.283557891845703,2,3,3,3,-9.73,0.2,1.61,-0.24,-0.22,-0.1
3.29355788230896,2,3,3,3,-9.73,0.19,1.56,-0.16,-0.18,-0.03
3.303557872772217,2,3,3,3,-9.74,0.22,1.48,-0.14,-0.11,-0.04
3.313557863235474,2,3,3,3,-9.76,0.2,1.49,-0.16,-0.15,-0.01
3.32355785369873,2,3,3,3,-9.73,0.25,1.48,-0.13,-0.18,-0.03
3.333557844161987,2,3,3,3,-9.75,0.28,1.52,-0.06,-0.18,0
3.343558073043823,2,3,3,3,-9.76,0.25,1.56,-0.15,-0.22,-0.01
3.35355806350708,2,3,3,3,-9.720000000000001,0.19,1.48,-0.22,-0.16,-0.03
3.363558053970337,2,3,3,3,-9.73,0.2,1.58,-0.4,-0.13,-0.01
3.373558044433594,2,3,3,3,-9.73,0.17,1.6,-0.41,-0.18,0.04
3.383558034896851,2,3,3,2,-9.73,0.2,1.59,-0.23,-0.16,0.09
3.393558025360107,2,3,3,2,-9.73,0.22,1.53,-0.06,-0.06,0.07000000000000001
3.403558015823364,2,3,3,2,-9.74,0.25,1.5,-0.01,-0.01,0.05
3.413558006286621,2,3,3,2,-9.73,0.22,1.52,-0.08,0.02,0.04
3.423557996749878,2,3,3,2,-9.75,0.18,1.58,-0.19,-0.06,0.04
3.433557987213135,2,3,3,2,-9.73,0.2,1.58,-0.2,-0.14,0.05
3.443557977676392,2,3,3,2,-9.720000000000001,0.17,1.57,-0.22,-0.18,0.04
3.453557968139648,2,3,3,2,-9.720000000000001,0.15,1.49,-0.21,-0.12,0.04
3.463557958602905,2,3,3,2,-9.74,0.15,1.55,-0.21,-0.14,0.04
3.473557949066162,2,3,3,2,-9.73,0.18,1.61,-0.16,-0.15,0
3.483557939529419,2,3,3,2,-9.76,0.18,1.56,-0.02,-0.18,0.03
3.493557929992676,2,3,3,2,-9.720000000000001,0.22,1.5,0.18,-0.16,0.05
3.503557920455933,2,3,3,2,-9.74,0.23,1.46,0.09,-0.11,0.08
3.513557910919189,2,3,3,2,-9.74,0.23,1.54,0,-0.08,0.09
3.523557901382446,2,3,3,2,-9.75,0.23,1.57,-0.11,-0.13,0.07000000000000001
3.533557891845703,2,3,3,2,-9.73,0.23,1.62,-0.19,-0.19,0.06
3.54355788230896,2,3,3,2,-9.720000000000001,0.21,1.62,-0.32,-0.23,0
3.553557872772217,2,3,3,2,-9.73,0.2,1.62,-0.42,-0.29,-0.07000000000000001
3.563557863235474,2,3,3,2,-9.69,0.18,1.62,-0.39,-0.35,-0.1
3.57355785369873,2,3,3,2,-9.67,0.19,1.59,-0.19,-0.39,-0.04
3.583557844161987,2,3,3,2,-9.710000000000001,0.2,1.55,-0.04,-0.29,-0.05
3.593558073043823,2,3,3,2,-9.73,0.2,1.49,-0.02,-0.23,0
3.60355806350708,2,3,3,2,-9.74,0.24,1.44,-0.1,-0.11,0.01
3.613558053970337,2,3,3,2,-9.76,0.19,1.53,-0.27,-0.11,0.04
3.623558044433594,2,3,3,2,-9.720000000000001,0.18,1.61,-0.29,-0.13,0.07000000000000001
3.633558034896851,2,3,3,2,-9.720000000000001,0.16,1.63,-0.25,-0.12,0.04
3.643558025360107,2,3,3,2,-9.74,0.18,1.64,-0.18,-0.07000000000000001,0.07000000000000001
3.653558015823364,2,3,3,2,-9.720000000000001,0.13,1.56,-0.17,-0.09,0.07000000000000001
3.663558006286621,2,3,3,2,-9.720000000000001,0.19,1.55,-0.03,-0.16,0.11
3.673557996749878,2,3,3,2,-9.710000000000001,0.19,1.56,0.12,-0.06,0.15
3.683557987213135,2,3,3,2,-9.720000000000001,0.19,1.59,0.11,-0.01,0.15
3.693557977676392,2,3,3,2,-9.73,0.21,1.6,0.07000000000000001,0.03,0.15
3.7045578956604,2,3,3,2,-9.720000000000001,0.18,1.46,0.08,0.04,0.17
3.713557958602905,2,3,3,2,-9.73,0.17,1.58,0,0.08,0.15
3.723557949066162,2,3,3,2,-9.74,0.16,1.6,-0.06,0.12,0.13
3.734557867050171,2,3,3,2,-9.75,0.18,1.66,-0.07000000000000001,0.07000000000000001,0.12
3.743557929992676,2,3,3,2,-9.74,0.18,1.6,-0.03,0.02,0.18
3.753557920455933,2,3,3,2,-9.73,0.18,1.46,0.1,-0.04,0.18
3.764557838439941,2,3,3,2,-9.73,0.2,1.52,0.15,-0.02,0.18
3.773557901382446,2,3,3,2,-9.710000000000001,0.18,1.63,0.08,-0.03,0.18
3.783557891845703,2,3,3,2,-9.68,0.19,1.63,0.1,-0.04,0.18
3.794558048248291,2,3,3,2,-9.68,0.19,1.6,0.09,-0.04,0.19
3.804558038711548,2,3,3,2,-9.69,0.18,1.5,0.11,0.04,0.2
3.814558029174805,2,3,3,2,-9.74,0.2,1.61,0.1,0.1,0.18
3.824558019638062,2,3,3,2,-9.73,0.19,1.6,0.09,0.13,0.19
3.834558010101318,2,3,3,2,-9.73,0.23,1.6,0.23,0.11,0.19
3.844558000564575,2,3,3,2,-9.75,0.24,1.57,0.27,0.14,0.18
3.854557991027832,2,3,3,2,-9.720000000000001,0.26,1.52,0.21,0.17,0.2
3.864557981491089,2,3,3,2,-9.74,0.24,1.62,0.16,0.17,0.21
3.874557971954346,2,3,3,2,-9.74,0.26,1.61,0.15,0.12,0.21
3.884557962417603,2,3,3,2,-9.76,0.21,1.64,0.02,-0.01,0.15
3.894557952880859,2,3,3,2,-9.710000000000001,0.2,1.61,-0.1,-0.05,0.11
3.904557943344116,2,3,3,2,-9.69,0.2,1.6,-0.11,-0.07000000000000001,0.07000000000000001
3.914557933807373,2,3,3,2,-9.699999999999999,0.19,1.59,-0.08,-0.12,0.07000000000000001
3.92455792427063,2,3,3,2,-9.69,0.2,1.61,-0.05,-0.13,0.05
3.934557914733887,2,3,3,2,-9.69,0.19,1.67,-0.09,-0.11,0.04
3.944557905197144,2,3,3,2,-9.710000000000001,0.21,1.67,-0.04,-0.1,0.06
3.9545578956604,2,3,3,2,-9.74,0.22,1.55,0.05,-0.07000000000000001,0.1
3.964557886123657,2,3,3,2,-9.779999999999999,0.23,1.57,0.06,-0.07000000000000001,0.1
3.974557876586914,2,3,3,2,-9.75,0.24,1.59,0.07000000000000001,-0.09,0.15
3.984557867050171,2,3,3,2,-9.75,0.25,1.62,0.08,-0.06,0.13
3.994557857513428,2,3,3,2,-9.73,0.27,1.64,-0.07000000000000001,-0.07000000000000001,0.14
4.004557847976685,2,3,3,2,-9.710000000000001,0.23,1.51,-0.16,-0.15,0.16
4.014557838439941,2,3,3,2,-9.69,0.24,1.55,-0.14,-0.15,0.12
4.024558067321777,2,3,3,2,-9.720000000000001,0.23,1.63,-0.13,-0.17,0.08
4.034558057785034,2,3,3,2,-9.720000000000001,0.24,1.64,-0.1,-0.17,0.08
4.044558048248291,2,3,3,2,-9.720000000000001,0.25,1.63,-0.02,-0.13,0.08
4.054558038711548,2,3,3,2,-9.710000000000001,0.25,1.57,0,-0.14,0.09
4.064558029174805,2,3,3,2,-9.74,0.25,1.59,0.03,-0.17,0.12
4.074558019638062,2,3,3,2,-9.720000000000001,0.24,1.65,0.11,-0.17,0.12
4.084558010101318,2,3,3,2,-9.720000000000001,0.24,1.65,0.06,-0.21,0.13
4.094558000564575,2,3,3,2,-9.720000000000001,0.25,1.63,0.06,-0.16,0.13
4.104557991027832,2,3,3,2,-9.76,0.26,1.57,0.06,-0.13,0.1
4.114557981491089,2,3,3,2,-9.75,0.24,1.57,0.11,-0.19,0.13
4.124557971954346,2,3,3,2,-9.77,0.35,1.66,0.18,-0.14,0.16
4.134557962417603,2,3,3,2,-9.75,0.33,1.6,0.07000000000000001,-0.1,0.16
4.144557952880859,2,3,3,2,-9.710000000000001,0.34,1.64,-0.06,-0.18,0.16
4.154557943344116,2,3,3,2,-9.710000000000001,0.34,1.54,-0.15,-0.26,0.19
4.164557933807373,2,3,3,2,-9.699999999999999,0.35,1.6,-0.16,-0.31,0.14
4.17455792427063,2,3,3,2,-9.699999999999999,0.36,1.63,-0.22,-0.32,0.11
4.184557914733887,2,3,3,2,-9.699999999999999,0.36,1.63,-0.21,-0.34,0.11
4.194557905197144,2,3,3,2,-9.699999999999999,0.31,1.61,-0.17,-0.22,0.13
4.2045578956604,2,3,3,2,-9.789999999999999,0.27,1.52,-0.22,-0.13,0.23
4.214557886123657,2,3,3,2,-9.800000000000001,0.21,1.6,-0.22,-0.12,0.28
4.224557876586914,2,3,3,2,-9.77,0.23,1.64,-0.22,-0.12,0.35
4.234557867050171,2,3,3,2,-9.77,0.23,1.64,-0.22,-0.12,0.35
4.244557857513428,2,3,3,2,-9.76,0.22,1.74,-0.21,-0.2,0.43
4.254557847976685,2,3,3,2,-9.82,0.29,1.64,-0.04,-0.33,0.54
4.264557838439941,2,3,3,2,-9.77,0.3,1.63,-0.03,-0.46,0.51
4.274558067321777,2,3,3,2,-9.77,0.3,1.63,0.19,-0.51,0.52
4.284558057785034,2,3,3,2,-9.75,0.36,1.63,0.19,-0.51,0.52
4.294558048248291,2,3,3,2,-9.710000000000001,0.35,1.63,0.34,-0.41,0.54
4.304558038711548,2,3,3,2,-9.69,0.32,1.57,0.23,-0.16,0.71
4.314558029174805,2,3,3,2,-9.710000000000001,0.28,1.52,0.1,-0.1,0.74
4.324558019638062,2,3,3,2,-9.779999999999999,0.22,1.66,-0.12,-0.19,0.74
4.334558010101318,2,3,3,2,-9.75,0.22,1.7,-0.12,-0.19,0.74
4.344558000564575,2,3,3,2,-9.73,0.24,1.73,-0.07000000000000001,-0.27,0.6899999999999999
4.354557991027832,2,3,3,2,-9.68,0.23,1.71,0.42,-0.33,0.72
4.364557981491089,2,3,3,2,-9.75,0.27,1.55,0.64,-0.26,0.79
4.374557971954346,2,3,3,2,-9.74,0.35,1.59,0.74,-0.23,0.89
4.384557962417603,2,3,3,2,-9.720000000000001,0.33,1.54,0.74,-0.23,0.89
4.394557952880859,2,3,3,2,-9.699999999999999,0.39,1.59,0.86,-0.17,0.95
4.404557943344116,2,3,3,2,-9.73,0.38,1.63,0.77,-0.08,0.96
4.414557933807373,2,3,3,2,-9.67,0.32,1.56,0.82,-0.04,0.9
4.42455792427063,2,3,3,2,-9.65,0.33,1.6,0.8100000000000001,0.08,0.8100000000000001
4.434557914733887,2,3,3,2,-9.69,0.32,1.72,0.8100000000000001,0.08,0.8100000000000001
4.444557905197144,2,3,3,2,-9.66,0.33,1.71,0.68,0.04,0.76
4.4545578956604,2,3,3,2,-9.59,0.33,1.67,0.97,-0.22,0.7
4.464557886123657,2,3,3,2,-9.609999999999999,0.43,1.55,1.18,-0.13,0.72
4.474557876586914,2,3,3,2,-9.65,0.47,1.59,1.36,0.03,0.68
4.484557867050171,2,3,3,2,-9.699999999999999,0.51,1.66,1.36,0.03,0.68
4.494557857513428,2,3,3,2,-9.69,0.6,1.63,1.37,0.19,0.66
4.504557847976685,2,3,3,2,-9.609999999999999,0.61,1.62,1.4,0.27,0.68
4.514557838439941,2,3,3,2,-9.6,0.73,1.64,1.19,0.26,0.66
4.524558067321777,2,3,3,2,-9.57,0.75,1.64,1.1,0.22,0.62
4.534558057785034,2,3,3,2,-9.57,0.74,1.67,1.1,0.22,0.62
4.544558048248291,2,3,3,2,-9.619999999999999,0.71,1.74,0.95,0.27,0.52
4.554558038711548,2,3,3,2,-9.77,0.63,1.76,0.51,0.32,0.4
4.564558029174805,2,3,3,2,-9.82,0.58,1.66,0.49,0.29,0.47
4.574558019638062,2,3,3,2,-9.85,0.58,1.75,0.4,0.23,0.67
4.584558010101318,2,3,3,2,-9.83,0.5600000000000001,1.78,0.4,0.23,0.67
4.594558000564575,2,3,3,2,-9.76,0.61,1.63,0.63,0.16,1.05
4.604557991027832,2,3,3,2,-9.77,0.66,1.63,0.88,0.64,1.72
4.614557981491089,2,3,3,2,-9.789999999999999,0.67,1.57,0.67,0.77,1.95
4.624557971954346,2,3,3,2,-9.75,0.72,1.61,0.54,0.74,2.12
4.634557962417603,2,3,3,2,-9.75,0.73,1.55,0.54,0.74,2.12
4.644557952880859,2,3,3,3,-9.73,0.75,1.63,0.37,0.61,2.17
4.654557943344116,2,3,3,3,-9.710000000000001,0.72,1.65,-0.15,0.2,2.08
4.664557933807373,2,3,3,3,-9.57,0.74,1.49,-0.15,-0.05,1.99
4.67455792427063,2,3,3,3,-9.58,0.77,1.51,-0.15,-0.05,1.99
4.684557914733887,2,3,3,3,-9.6,0.78,1.53,-0.09,0.01,1.79
4.694557905197144,2,3,3,3,-9.59,0.68,1.57,-0.17,0.12,1.52
4.7045578956604,2,3,3,3,-9.59,0.54,1.59,-0.41,0.06,1.29
4.714557886123657,2,3,3,3,-9.67,0.44,1.55,-0.41,0.17,1.19
4.724557876586914,2,3,3,3,-9.710000000000001,0.32,1.61,-0.5600000000000001,0.24,1.05
4.734557867050171,2,3,3,3,-9.68,0.29,1.66,-0.55,0.23,0.89
4.744557857513428,2,3,3,3,-9.710000000000001,0.19,1.66,-0.37,0.22,0.83
4.754557847976685,2,3,3,3,-9.720000000000001,0.2,1.61,-0.06,0.22,0.78
4.764557838439941,2,3,3,3,-9.74,0.18,1.49,0.3,0.21,0.79
4.774558067321777,2,3,3,3,-9.789999999999999,0.21,1.51,0.62,0.25,0.89
4.784558057785034,2,3,3,3,-9.859999999999999,0.29,1.57,0.86,0.23,0.98
4.794558048248291,2,3,3,3,-9.869999999999999,0.38,1.6,1.37,0.14,1.24
4.804558038711548,2,3,3,3,-9.859999999999999,0.46,1.58,1.37,0.14,1.24
4.815557956695557,2,3,3,3,-9.859999999999999,0.59,1.5,1.67,0.05,1.45
4.825557947158813,2,3,3,3,-9.73,0.79,1.36,2,-0.15,1.86
4.83555793762207,2,3,3,3,-9.69,0.9399999999999999,1.33,2.24,-0.09,1.99
4.845557928085327,2,3,3,3,-9.65,1.09,1.33,2.17,-0.03,2.04
4.855557918548584,2,3,3,3,-9.619999999999999,1.32,1.27,1.97,-0.06,1.9
4.865557909011841,2,3,3,3,-9.56,1.41,1.23,1.66,-0.1,1.75
4.875557899475098,2,3,3,3,-9.59,1.49,1.36,1.31,-0.09,1.65
4.885557889938354,2,3,3,3,-9.6,1.6,1.42,0.96,-0.23,1.51
4.895557880401611,2,3,3,3,-9.5,1.64,1.4,0.9,-0.29,1.43
4.905557870864868,2,3,3,3,-9.529999999999999,1.69,1.34,0.8,-0.16,1.37
4.915557861328125,2,3,3,3,-9.630000000000001,1.67,1.25,0.57,-0.07000000000000001,1.35
4.925557851791382,2,3,3,3,-9.65,1.7,1.23,0.19,-0.08,1.31
4.935557842254639,2,3,3,3,-9.66,1.64,1.32,-0.17,-0.11,1.38
4.945558071136475,2,3,3,3,-9.67,1.58,1.34,-0.43,-0.17,1.42
4.955558061599731,2,3,3,3,-9.619999999999999,1.56,1.42,-0.74,-0.16,1.59
4.965558052062988,2,3,3,3,-9.630000000000001,1.5,1.43,-0.96,-0.15,1.75
4.975558042526245,2,3,3,3,-9.630000000000001,1.36,1.5,-0.73,-0.17,1.94
4.985558032989502,2,3,3,3,-9.539999999999999,1.29,1.48,-0.35,-0.11,2.25
4.995558023452759,2,3,3,2,-9.470000000000001,1.31,1.49,0.35,0.14,2.76
5.005558013916016,2,3,3,2,-9.49,1.38,1.4,1.14,0.54,3.29
5.015558004379272,2,3,3,2,-9.539999999999999,1.6,1.23,1.51,0.75,3.78
5.025557994842529,2,3,3,2,-9.48,1.68,1.2,1.78,0.72,4.12
5.035557985305786,2,3,3,2,-9.42,1.85,1.16,2.01,0.63,4.28
5.045557975769043,2,3,3,2,-9.029999999999999,2.12,0.99,1.97,0.42,4.27
5.0555579662323,2,3,3,2,-8.76,2.33,1.04,1.7,0.31,4.3
5.065557956695557,2,3,3,2,-8.52,2.46,1,1.52,0.25,4.3
5.075557947158813,2,3,3,2,-8.23,2.58,1.03,1.81,0.39,4.33
5.08555793762207,2,3,3,2,-7.63,2.67,0.86,2.38,0.66,4.36
5.095557928085327,2,3,3,2,-7.33,2.57,0.73,2.86,1.03,4.46
5.105557918548584,2,3,3,2,-6.96,2.43,0.6,2.82,1.8,4.73
5.115557909011841,2,3,3,2,-6.72,2.23,0.58,2.17,2.86,5.04
5.125557899475098,2,3,3,2,-6.59,1.91,0.99,0.97,3.27,5.23
5.145557880401611,2,3,3,2,-6.62,1.68,1.32,-0.28,2.06,4.93
5.155557870864868,2,3,3,2,-6.8,1.69,1.35,0.4,1.38,4.5
5.165557861328125,2,3,3,2,-7.2,1.64,1.21,1.23,1.09,4.22
5.175557851791382,2,3,3,2,-7.32,1.77,1.06,2.12,0.59,4.24
5.185557842254639,2,3,3,2,-7.09,0.95,0.73,3.12,0.18,5.14
5.195558071136475,2,3,3,2,-7,1.26,0.49,4.15,1.19,6.45
5.205558061599731,2,3,3,2,-7.09,1.15,0.6,3.51,1.54,7.46
5.215558052062988,2,3,3,2,-6.87,1.2,0.37,3.33,0.78,8.1
5.225558042526245,2,3,3,2,-6.52,1.41,0.12,3.58,0.3,8.130000000000001
5.235558032989502,2,3,3,2,-6.37,1.43,0.74,2.65,0.06,7.73
5.245558023452759,2,3,3,2,-6.32,1.54,1.25,1.19,-0.38,7.05
5.255558013916016,2,3,3,2,-6.13,1.65,1.32,0.5600000000000001,-0.98,6.1
5.265558004379272,2,3,3,2,-6.14,1.76,1.31,0.14,-1.21,4.92
5.275557994842529,2,3,3,2,-6.79,1.78,1.79,-0.35,-0.88,3.4
5.285557985305786,2,3,3,2,-7.19,1.82,2,-0.35,-0.44,2.02
5.295557975769043,2,3,3,2,-7.72,1.82,2,0.43,-0.24,1.01
5.3055579662323,2,3,3,2,-8.15,1.92,1.76,1.63,0.5,0.44
5.315557956695557,2,3,3,2,-9.69,1.82,2.17,2.06,2.01,0.38
5.325557947158813,2,3,3,2,-10.44,2.05,2.32,2.32,3.13,0.66
5.33555793762207,2,3,3,2,-10.91,2.07,2.07,2.82,4.07,1.31
5.345557928085327,2,3,3,2,-11.32,2.12,1.72,2.75,4.4,2.1
5.355557918548584,2,3,3,2,-12.04,2.74,0.78,2.18,4.08,2.82
5.365557909011841,2,3,3,2,-11.97,3.1,0.32,1.3,3.02,3.37
5.375557899475098,2,3,3,2,-12.12,3.36,0.38,-0.45,2,3.4
5.385557889938354,2,3,3,2,-11.83,3.26,0.6,-2.96,0.58,2.91
5.395557880401611,2,3,3,2,-11.71,2.71,1.97,-4.94,-0.8,1.84
5.405557870864868,2,3,3,2,-11.53,2.52,2.33,-5.08,-2.14,0.49
5.415557861328125,2,3,3,2,-11.24,2.15,2.11,-3.66,-2.88,-0.82
5.425557851791382,2,3,3,2,-11.09,1.87,1.94,-2.32,-2.11,-2
5.435557842254639,2,3,3,2,-11.53,1.64,2.27,-1.99,-0.93,-2.91
5.445558071136475,2,3,3,2,-12.06,1.58,2.47,-2.38,0.06,-3.65
5.455558061599731,2,3,3,2,-12.82,1.63,2.54,-2.46,0.08,-4.26
5.465558052062988,2,3,3,2,-14.58,1.88,3.04,-1,-0.46,-4.81
5.475558042526245,2,3,3,2,-15.92,2.44,3.35,1.33,-1.18,-5.04
5.485558032989502,2,3,3,2,-17.23,2.72,3.28,2.45,-1.04,-5.04
5.495558023452759,2,3,3,2,-18.39,3.26,3.21,3.52,0.55,-4.81
5.505558013916016,2,3,3,2,-20.36,4.27,2.31,3.95,2.1,-3.77
5.515558004379272,2,3,3,2,-21.53,4.86,2.17,3.37,2.45,-2.05
5.525557994842529,2,3,3,2,-22.16,5.26,2.28,1.62,1.64,-0.39
5.535557985305786,2,3,3,2,-21.99,5.71,2.39,0.57,0.22,1.32
5.545557975769043,2,3,3,2,-21.7,5.54,4,-0.88,-1.03,2.56
5.5555579662323,2,3,3,2,-21.46,4.99,4.36,-3.29,-1.44,2.04
5.565557956695557,2,3,3,2,-21.53,4.04,5,-4.99,-1.1,0.01
5.575557947158813,2,3,3,2,-21.89,2.6,5.16,-6.13,-0.38,-2.9
5.58555793762207,2,3,3,2,-23,0.62,6.12,-5.94,1.27,-6.16
5.595557928085327,2,3,3,2,-23.65,-0.29,5.4,-3.65,3.01,-8.43
5.605557918548584,2,3,3,2,-24.77,-0.55,4.65,0.64,5.31,-9.48
5.615557909011841,2,3,3,2,-25.85,-0.15,4.03,3.75,5.73,-8.84
5.625557899475098,2,3,3,2,-27.29,1.31,1.92,4.33,1.82,-7.75
5.635557889938354,2,3,3,2,-26.2,2.72,1.37,3.65,-2.53,-6.26
5.645557880401611,2,3,3,2,-24.49,4.21,1.65,1.48,-3.23,-4.85
5.655557870864868,2,3,3,2,-18.7,6.1,1.36,-0.18,-2.52,-3.78
5.665557861328125,2,3,3,2,-15.17,6.63,0.76,-0.95,-3.47,-2.91
5.675557851791382,2,3,3,2,-11.8,6.75,0.21,-1.67,-4.8,-1.97
5.685557842254639,2,3,3,2,-8.869999999999999,7.04,0.01,-1.1,-3.95,-0.93
5.695558071136475,2,3,3,2,-3.92,7.22,-1.47,0.29,-1.67,0.1
5.705558061599731,2,3,3,2,-1.06,6.55,-2.86,2.1,-0.35,0.83
5.715558052062988,2,3,3,2,1.85,6.27,-3,3.58,0.57,0.91
5.725558042526245,2,3,3,2,5.12,7.29,-2.15,3.18,0.95,1.48
5.735558032989502,2,3,3,2,7.4,9.289999999999999,-3.24,3.41,1.1,2.76
5.745558023452759,2,3,3,2,6.52,10.39,-4.22,6.42,3.63,2.96
5.755558013916016,2,3,3,2,6.42,9.17,-5.27,7.69,2.61,2.06
5.765558004379272,2,3,3,2,6.91,6.94,-6.58,5.11,-2.25,1.07
5.775557994842529,2,3,3,2,3.91,1.52,-1.65,-3.52,-1.23,-1.65
5.785557985305786,2,3,3,2,3.49,1.03,0.45,-12.02,0.62,-5.67
5.795557975769043,2,3,3,2,3.24,1.2,1.17,-14.83,1.69,-7.6
5.8055579662323,2,3,3,2,2.26,0.92,1.3,-15.23,1.72,-7.09
5.815557956695557,2,3,3,2,0.05,-0.43,1.61,-14.67,-0.01,-6.35
5.825557947158813,2,3,3,2,-0.21,-0.96,1.8,-12.82,-0.77,-5.36
5.83555793762207,2,3,3,2,-0.31,-1.66,1.06,-10.4,-1.36,-4.26
5.846557855606079,2,3,3,2,-1.6,-1.96,-0.33,-6.39,-0.53,-4.25
5.856557846069336,2,3,3,2,-3.11,-2.36,0.04,-2.98,0.85,-5.13
5.866558074951172,2,3,3,2,-4.58,-2.76,0.6899999999999999,-1.21,-0.38,-5.73
5.876558065414429,2,3,3,2,-5.81,-3.21,1.54,-0.16,-2.58,-5.19
5.886558055877686,2,3,3,2,-6.63,-2.98,0.8100000000000001,1.22,-3.75,-3.92
5.896558046340942,2,3,3,2,-5.48,-2.3,0.34,2.4,-4.09,-1.97
5.906558036804199,2,3,3,2,-3.7,-1.5,0.08,2.44,-2.8,0.37
5.916558027267456,2,3,3,2,-1.67,-1.03,-0.2,1.52,-0.08,2.36
5.926558017730713,2,3,3,2,1.29,-1.2,0.19,0.78,2.22,4
5.93655800819397,2,3,3,2,1.98,-1.45,0.5,0.92,3,5.44
5.946557998657227,2,3,3,2,2.11,-1.54,0.43,2.43,2.68,6.76
5.956557989120483,2,3,3,2,2.14,-1.46,0.18,5.26,1.45,7.59
5.96655797958374,2,3,3,2,1.72,-0.72,-0.42,8.630000000000001,-0.25,7.74
5.976557970046997,2,3,3,2,1.59,-0.46,-0.3,10.89,-1.26,6.88
5.986557960510254,2,3,3,2,1.43,-0.04,-0.02,11,-2.31,5.87
5.996557950973511,2,3,3,2,1.19,0.51,0.26,9.24,-3.06,4.74
6.006557941436768,2,3,3,2,1.26,1.4,0.04,7.4,-4.51,3.58
6.016557931900024,2,3,3,2,1.69,1.83,-0.6899999999999999,6.37,-6.22,2.46
6.026557922363281,2,3,3,2,1.66,2.27,-0.8100000000000001,4.67,-6.32,1.48
6.036557912826538,2,3,3,2,1.03,2.51,-0.58,1.33,-5.72,0.35
6.046557903289795,2,3,3,2,1.01,1.82,-1.19,-2.13,-5.77,-0.98
6.056557893753052,2,3,3,2,1.01,1.82,-1.19,-3.45,-4.46,-2.32
6.066557884216309,2,3,3,2,0.08,1.15,-0.79,-5.65,-2.86,-3.21
6.076557874679565,2,3,3,2,0.28,1.22,1.38,-7.35,-1.82,-3.86
6.086557865142822,2,3,3,2,-0.44,1.99,1.58,-7.87,-1.2,-4.61
6.096557855606079,2,3,3,2,-0.44,1.99,1.58,-6.46,-2.95,-4.52
6.106557846069336,2,3,3,2,-1.05,2.58,1.06,-1.87,-4.64,-3.53
6.116558074951172,2,3,3,2,-6.31,7.46,1.38,2.11,-4.1,-3.03
6.126558065414429,2,3,3,2,-11.2,10.3,0.91,2.57,-3.08,-5.58
6.136558055877686,2,3,3,2,-19.1,11.55,2.1,2.69,-3.98,-8.529999999999999
6.146558046340942,2,3,3,2,-19.1,11.55,2.1,-6.57,-4.61,-15.45
6.156558036804199,2,3,3,2,-29.93,9.220000000000001,5.06,-24.9,-4.76,-27.69
6.166558027267456,2,3,3,2,-39.29,-4.49,1.9,-36.79,11.21,-24.07
6.176558017730713,2,3,3,2,-39.28,-3.8,1.05,-26.5,1.38,-5.58
6.18655800819397,2,3,3,2,-39.29,-12.49,1.74,-9.69,-14.88,3.67
6.196557998657227,2,3,3,2,-39.29,-12.49,1.74,8.119999999999999,-1.29,3.32
6.206557989120483,2,3,3,2,-16.86,-2.92,11.36,8.119999999999999,-1.29,3.32
6.21655797958374,2,3,3,2,-12.74,-2.57,8.49,3.13,3.57,2.4
6.226557970046997,2,3,3,2,-14.15,-3.09,5.79,9.289999999999999,-1.09,-1.15
6.236557960510254,2,3,3,2,-17.21,-2.08,4.29,10.2,-1.33,-4.63
6.246557950973511,2,3,3,2,-17.21,-2.08,4.29,9.140000000000001,-1.71,-4.06
6.256557941436768,2,3,3,2,-17.85,-0.83,4.84,10.32,-0.73,-0.75
6.266557931900024,2,3,3,2,-18.32,1.55,2.73,8.82,1.72,2.77
6.276557922363281,2,3,3,2,-17.9,1.69,2.27,5.38,5.53,6.24
6.286557912826538,2,3,3,2,-17.61,2.61,2.28,3.34,7.95,9.460000000000001
6.296557903289795,2,3,3,2,-17.61,2.61,2.28,0.04,7.52,11.99
6.306557893753052,2,3,3,2,-15.88,2.44,2.7,-2.92,4.62,12.7
6.316557884216309,2,3,3,2,-10.96,1.71,2.43,-3.82,0.36,11.28
6.326557874679565,2,3,3,2,-10.2,1.36,2.38,-2.67,-2.5,8.58
6.336557865142822,2,3,3,2,-9.640000000000001,1.08,2.21,-0.9399999999999999,-3.5,5.44
6.346557855606079,2,3,3,2,-9.640000000000001,1.08,2.21,-0.9399999999999999,-3.5,5.44
6.356557846069336,2,3,3,2,-9.15,1.14,1.85,1.03,-1.61,2.77
6.366558074951172,2,3,3,2,-8.52,1,1.01,3.97,5.7,-0.44
6.376558065414429,2,3,3,2,-8.75,0.75,0.57,4.17,8.109999999999999,-0.75
6.386558055877686,2,3,3,2,-8.75,0.75,0.57,3.47,7.16,-0.64
6.396558046340942,2,3,3,2,-9.289999999999999,1.06,0.57,3.47,7.16,-0.64
6.406558036804199,2,3,3,2,-8.859999999999999,1.06,0.66,2.24,3.66,-0.02
6.416558027267456,2,3,3,2,-8.109999999999999,1.37,0.9,0.85,-2.27,1.65
6.426558017730713,2,3,3,2,-7.14,1.58,1.19,0.77,-3.32,2.42
6.43655800819397,2,3,3,2,-5.03,1.57,1.1,1.27,-2.82,3.11
6.446557998657227,2,3,3,2,-4.28,1.58,0.96,1.27,-2.82,3.11
6.456557989120483,2,3,3,2,-4.03,1.66,1.13,1.73,-0.9399999999999999,3.57
6.46655797958374,2,3,3,2,-4.31,1.87,1.17,1.77,3.2,4.1
6.476557970046997,2,3,3,2,-5.17,1.88,0.6899999999999999,1.63,4.01,3.82
6.486557960510254,2,3,3,2,-5.93,1.86,0.86,1.31,4.17,2.84
6.496557950973511,2,3,3,2,-6.5,1.73,0.95,1.31,4.17,2.84
6.506557941436768,2,3,3,2,-7.26,1.76,1,1.31,3.31,1.58
6.516557931900024,2,3,3,2,-7.34,2,1.14,1.18,1.17,-1.14
6.526557922363281,2,3,3,2,-7.43,2.29,1.09,1.21,0.82,-2.25
6.536557912826538,2,3,3,2,-7.47,2.41,0.93,1.24,0.82,-3.04
6.546557903289795,2,3,3,2,-7.73,2.45,0.98,1.24,0.82,-3.04
6.556557893753052,2,3,3,2,-7.99,2.43,1.18,0.95,1.07,-3.67
6.566557884216309,2,3,3,2,-8.26,2.43,1.12,0.23,0.64,-4.04
6.576557874679565,2,3,3,2,-8.470000000000001,2.38,0.82,-0.32,0.36,-3.72
6.586557865142822,2,3,3,2,-8.99,2.05,0.5600000000000001,-1.21,0.38,-3.2
6.596557855606079,2,3,3,2,-9.25,1.85,0.64,-1.21,0.38,-3.2
6.606557846069336,2,3,3,2,-9.49,1.72,0.98,-1.99,0.17,-2.65
6.616558074951172,2,3,3,2,-9.56,1.69,1.22,-2.07,-2.26,-1.61
6.626558065414429,2,3,3,2,-9.529999999999999,1.66,1,-1.04,-2.98,-1.38
6.636558055877686,2,3,3,2,-9.67,1.8,1.19,-0.41,-2.42,-1.4
6.646558046340942,2,3,3,2,-9.77,1.81,1.35,-0.41,-2.42,-1.4
6.656558036804199,2,3,3,2,-9.83,1.7,1.38,-0.55,-1.34,-1.44
6.666558027267456,2,3,3,2,-10.01,1.54,1.54,-1.72,0.5,-1.42
6.676558017730713,2,3,3,2,-10.15,1.52,1.77,-2.61,1.06,-1.34
6.68655800819397,2,3,3,2,-10.26,1.47,2.03,-2.7,1.06,-1.1
6.696557998657227,2,3,3,2,-10.22,1.44,1.89,-2.7,1.06,-1.1
6.706557989120483,2,3,3,2,-10.14,1.53,1.85,-2.09,0.71,-0.72
6.71655797958374,2,3,3,2,-10.13,1.5,1.81,-0.99,1.12,0.47
6.726557970046997,2,3,3,2,-10.1,1.57,1.63,-0.38,1.72,1.14
6.736557960510254,2,3,3,2,-10.33,1.78,1.5,0.23,2.03,1.82
6.746557950973511,2,3,3,2,-10.44,1.82,1.38,0.23,2.03,1.82
6.756557941436768,2,3,3,2,-10.3,1.88,1.26,0.95,1.93,2.44
6.766557931900024,2,3,3,2,-10.03,1.93,1.16,2.07,1.32,3.55
6.776557922363281,2,3,3,2,-9.449999999999999,1.77,0.8100000000000001,1.89,1.53,3.87
6.786557912826538,2,3,3,2,-9.23,1.64,0.87,1.14,1.84,3.83
6.796557903289795,2,3,3,2,-9.15,1.51,1.29,1.14,1.84,3.83
6.806557893753052,2,3,3,2,-9.16,1.43,1.76,-0.67,1.66,3.3
6.816557884216309,2,3,3,2,-8.82,1.54,1.74,-1.69,0.4,2.43
6.826557874679565,2,3,3,2,-8.699999999999999,1.53,1.53,-1.03,-1.08,1.39
6.836557865142822,2,3,3,2,-8.81,1.62,1.34,0.27,-1.45,0.4
6.846557855606079,2,3,3,2,-8.93,1.61,1.11,1.07,-0.73,-0.44
6.856557846069336,2,3,3,2,-9.630000000000001,1.36,1.4,0.8,0.37,-0.88
6.867558002471924,2,3,3,2,-9.869999999999999,1.33,1.35,0.14,0.93,-1.04
6.877557992935181,2,3,3,2,-10.11,1.41,1.27,0.08,0.5600000000000001,-0.95
6.887557983398438,2,3,3,2,-10.35,1.63,1.32,0.36,-0.09,-0.74
6.897557973861694,2,3,3,2,-10.3,1.75,1.31,0.45,-0.75,-0.48
6.907557964324951,2,3,3,2,-10.32,1.85,1.31,0.58,-1.22,-0.13
6.917557954788208,2,3,3,2,-10.3,1.98,1.29,0.52,-1.43,0.19
6.927557945251465,2,3,3,2,-10.01,2.03,1.25,0.33,-1.6,0.57
6.937557935714722,2,3,3,2,-9.609999999999999,1.96,1.12,-0.02,-1.86,0.97
6.947557926177979,2,3,3,2,-9.34,2,1.06,-0.05,-1.99,1.39
6.957557916641235,2,3,3,2,-9.18,2.03,1.18,0.05,-1.59,1.71
6.967557907104492,2,3,3,2,-8.720000000000001,2.26,1.18,-0.21,-1.26,1.85
6.977557897567749,2,3,3,2,-8.51,2.36,0.92,-0.2,-1.39,2.06
6.987557888031006,2,3,3,2,-8.33,2.48,0.73,0.25,-1.51,2.3
6.997557878494263,2,3,3,2,-8.19,2.5,0.59,0.57,-1.08,2.39
7.00755786895752,2,3,3,2,-7.89,2.42,0.62,-0.18,0.64,2.52
7.017557859420776,2,3,3,2,-7.77,2.31,0.7,-0.18,0.64,2.52
7.027557849884033,2,3,3,2,-7.6,2.26,0.75,-0.74,1.02,2.48
7.03755784034729,2,3,3,2,-7.51,2.3,1.04,-0.86,0.49,2.1
7.047558069229126,2,3,3,2,-7.77,2.68,1.44,-0.58,-0.07000000000000001,1.64
7.057558059692383,2,3,3,2,-8.07,3,1.35,-0.08,-0.63,1.08
7.06755805015564,2,3,3,2,-8.52,3.23,1.2,0.17,-1.31,0.58
7.077558040618896,2,3,3,2,-8.970000000000001,3.45,0.96,0.09,-2.19,0.42
7.087558031082153,2,3,3,2,-8.81,3.46,0.3,0.07000000000000001,-3.18,0.77
7.09755802154541,2,3,3,2,-8.1,3.17,-0.28,0.92,-3.21,1.62
7.107558012008667,2,3,3,2,-7.52,3.07,-0.55,1.61,-2.05,2.89
7.117558002471924,2,3,3,2,-6.5,2.64,-0.18,1.13,-0.57,4.4
7.127557992935181,2,3,3,2,-6.23,2.32,0.39,-0.25,0.44,5.68
7.137557983398438,2,3,3,2,-5.83,1.94,0.85,-1.17,0.1,6.45
7.147557973861694,2,3,3,2,-5.4,1.65,1.03,-0.44,-1.53,6.55
7.177557945251465,2,3,3,2,-3.91,1.06,0.61,-0.12,-1.12,4.7
7.187557935714722,2,3,3,2,-4.13,1.12,1.2,-0.68,-0.79,4.34
7.197557926177979,2,3,3,2,-4.06,1.35,1.4,-0.53,-0.52,4.43
7.207557916641235,2,3,3,2,-4.62,1.42,1.59,-0.36,0.64,4.28
7.217557907104492,2,3,3,2,-5.22,1.51,1.48,1.08,0.89,4.01
7.227557897567749,2,3,3,2,-5.6,1.5,0.95,2.84,0.9,3.84
7.237557888031006,2,3,3,2,-6.17,0.71,0.62,2.87,1.67,3.78
7.247557878494263,2,3,3,2,-6.86,0.72,0.92,2.08,2.79,3.98
7.25755786895752,2,3,3,2,-7.91,1.06,1.66,1.24,3.61,4.07
7.267557859420776,2,3,3,2,-8.710000000000001,1.21,1.74,1.3,2.96,4.25
7.277557849884033,2,3,3,2,-10.58,1.83,1.06,1.5,2.17,3.75
7.28755784034729,2,3,3,2,-11.37,1.87,1.4,1.27,2.02,2.88
7.297558069229126,2,3,3,2,-12.2,2.04,1.76,1.13,1.46,1.78
7.307558059692383,2,3,3,2,-13.42,1.89,1.36,0.19,0.89,0.49
7.31755805015564,2,3,3,2,-14.36,1.86,1.77,-1.74,0.62,-0.92
7.327558040618896,2,3,3,2,-14.86,1.64,1.9,-3.55,-1.4,-2.32
7.337558031082153,2,3,3,2,-15.27,1.5,2.19,-3.75,-3.61,-3.44
7.34755802154541,2,3,3,2,-15.39,0.99,2.53,-2.55,-4.07,-4.35
7.357558012008667,2,3,3,2,-15.63,1.08,2.84,0.43,-3.52,-5.1
7.367558002471924,2,3,3,2,-16.39,1.31,3.3,3.06,-2.86,-5.47
7.377557992935181,2,3,3,2,-17.26,1.6,3.49,4.24,-2,-5.42
7.387557983398438,2,3,3,2,-18.64,2.35,4.07,4.9,-0.77,-4.86
7.397557973861694,2,3,3,2,-19.51,2.75,4.52,4.72,0.23,-4.37
7.407557964324951,2,3,3,2,-19.84,3.13,4.49,4.23,0.82,-3.93
7.417557954788208,2,3,3,2,-20.27,3.54,4.65,4.1,1.4,-3.53
7.427557945251465,2,3,3,2,-21.09,4.05,4,3.63,1.4,-3.06
7.437557935714722,2,3,3,2,-20.71,4.2,3.32,3.67,1.08,-2.16
7.447557926177979,2,3,3,2,-20.35,3.76,2.95,2.79,1.32,-0.91
7.457557916641235,2,3,3,2,-19.92,3.52,3.1,1.2,1.86,-0.42
7.467557907104492,2,3,3,2,-21.25,3.06,5.06,-0.79,2.21,-0.64
7.477557897567749,2,3,3,2,-22.26,2.3,5.43,-2.33,1.62,-2.39
7.487557888031006,2,3,3,2,-22.58,1.2,5.01,-2.59,1.81,-4.92
7.497557878494263,2,3,3,2,-23.35,0.16,5.23,-2.51,3.34,-7.94
7.50755786895752,2,3,3,2,-24.38,-0.83,5.94,-2.72,4.08,-10.61
7.517557859420776,2,3,3,2,-24.3,-0.84,5.99,-1.12,4.48,-11.37
7.527557849884033,2,3,3,2,-24.35,-0.62,5.42,1.08,3.53,-10.71
7.53755784034729,2,3,3,2,-24.81,-0.05,4.66,2.78,1.65,-9.619999999999999
7.547558069229126,2,3,3,2,-25.98,0.22,4.98,1.96,-0.99,-8.82
7.557558059692383,2,3,3,2,-26.13,0.22,4.02,-0.02,-3.29,-8.17
7.56755805015564,2,3,3,2,-25.38,0.73,3.44,-0.28,-3.51,-7.51
7.577558040618896,2,3,3,2,-22.79,2.18,2.95,1.35,-3.5,-7.17
7.587558031082153,2,3,3,2,-17.99,4.27,0.61,6.48,-4.84,-6.51
7.59755802154541,2,3,3,2,-12.71,5.85,-1.71,14.39,-4.2,-3.93
7.607558012008667,2,3,3,2,-8.26,7.09,-4.07,19.48,0.72,-1.34
7.617558002471924,2,3,3,2,-2.89,11.18,-6.01,20.86,4.57,2.52
7.627557992935181,2,3,3,2,0.87,12.87,-6.47,18.93,1.72,6.29
7.637557983398438,2,3,3,2,7.66,15.64,-7.12,17.52,-2.45,8.82
7.647557973861694,2,3,3,2,11.9,18.03,-7.59,14.99,0.64,11.32
7.657557964324951,2,3,3,2,7.07,16.86,-11.04,9.029999999999999,7.88,10.2
7.667557954788208,2,3,3,2,8.720000000000001,12.35,-9.33,-3.06,1.43,9.380000000000001
7.677557945251465,2,3,3,2,11.01,7.78,-4.59,-18.38,-2.36,6.78
7.687557935714722,2,3,3,2,8.039999999999999,4.65,-1.02,-27.5,5.98,1.39
7.697557926177979,2,3,3,2,2.61,1.56,0.62,-30.22,7.16,-4.75
7.707557916641235,2,3,3,2,3.75,-1.52,1.07,-32.55,3.87,-9.529999999999999
7.717557907104492,2,3,3,2,3.12,-4.51,2.36,-32.78,4.76,-12.58
7.727557897567749,2,3,3,2,1.76,-5.96,3.58,-27.56,3.04,-13.67
7.737557888031006,2,3,3,2,-0.48,-8.279999999999999,3.96,-18.66,-0.99,-12.24
7.747557878494263,2,3,3,2,-2.78,-9.31,3.65,-8.84,-4.42,-10.51
7.75755786895752,2,3,3,2,-5,-9.390000000000001,3.44,1.28,-6.26,-9.380000000000001
7.767557859420776,2,3,3,2,-7.05,-8.279999999999999,1.48,9.92,-5.81,-8.91
7.777557849884033,2,3,3,2,-7.14,-5.39,0.73,15.3,-3.3,-6.8
7.78755784034729,2,3,3,2,-6.61,-3.1,-0.42,16.27,-0.99,-2.29
7.797558069229126,2,3,3,2,-5.31,-1.21,-1.41,15.44,0.05,2.13
7.807558059692383,2,3,3,2,-1.96,1.5,-1.23,13.45,-0.61,5.32
7.81755805015564,2,3,3,2,-0.22,1.95,-0.87,11.33,-2.28,7.42
7.827558040618896,2,3,3,2,0.95,2.34,-0.67,10.1,-3.37,8.449999999999999
7.837558031082153,2,3,3,2,1.98,2.71,-0.64,8.4,-2.89,8.25
7.848557949066162,2,3,3,2,1.76,2.45,-0.43,6.43,-1.3,6.95
7.857558012008667,2,3,3,2,1.55,2.45,-0.52,5.36,0.9399999999999999,5.22
7.867558002471924,2,3,3,2,1.78,2.51,-1.07,4.77,0.34,3.84
7.878557920455933,2,3,3,2,1.99,2.32,-1.23,2.87,-1.46,2.83
7.887557983398438,2,3,3,2,2.86,1.48,-1.02,-0.78,-4.07,1.76
7.898557901382446,2,3,3,2,3.43,1.2,-1.18,-3.43,-6.04,0.28
7.908557891845703,2,3,3,2,3.29,0.86,-0.84,-5.22,-5.23,-1.14
7.91855788230896,2,3,3,2,2.56,0.82,0.06,-6.89,-3.48,-2.33
7.928557872772217,2,3,3,2,0.41,0.48,0.39,-7.63,-2.89,-2.87
7.938557863235474,2,3,3,2,0.07000000000000001,0.25,-0.19,-7.13,-3.29,-3.32
7.94855785369873,2,3,3,2,-0.12,-0.26,-0.4,-6.63,-2.6,-4.02
7.958557844161987,2,3,3,2,-1.85,-0.44,0.6,-6.01,-1.02,-4.03
7.968558073043823,2,3,3,2,-2.18,-0.47,0.16,-4.31,-1.85,-3.32
7.97855806350708,2,3,3,2,-2.11,-0.29,-0.63,-0.9,-3.78,-2.62
7.988558053970337,2,3,3,2,-1.41,-0.3,-1.46,2.31,-4.71,-2
7.998558044433594,2,3,3,2,-1.09,0.19,-1.27,3.95,-3.73,-1.66
8.008558034896851,2,3,3,2,-0.32,0.33,-1.31,3.96,-3.3,-1.28
8.018558025360107,2,3,3,2,0.88,1.68,0.54,4.46,-2.74,-0.79
8.028558015823364,2,3,3,2,0.39,2.87,-0.3,3.7,-0.74,-1.3
8.038558006286621,2,3,3,2,-2.63,4.41,-0.09,2.09,-0.14,-3.03
8.048557996749878,2,3,3,2,-2.22,5.75,3.32,-0.43,-2.55,-4.64
8.058557987213135,2,3,3,2,-4.78,6.17,3.66,-5.34,-3.8,-6.63
8.068557977676392,2,3,3,2,-8.289999999999999,7.54,2.68,-8.18,-7.93,-9.6
8.078557968139648,2,3,3,2,-16.33,10.48,7.62,-10.33,-10.54,-12.9
8.088557958602905,2,3,3,2,-20.98,9.15,7.33,-20.77,-8.49,-17.4
8.098557949066162,2,3,3,2,-27.1,7.51,9.42,-27.36,4.7,-26.51
8.108557939529419,2,3,3,2,-38.33,1.03,3.98,-32.41,11.38,-31.58
8.118557929992676,2,3,3,2,-39.24,-22.12,-8.029999999999999,-19.09,5.29,-12.5
8.128557920455933,2,3,3,2,-37.78,-11.49,1.43,-17.72,-1.9,10.91
8.138557910919189,2,3,3,2,-14.94,-0.39,5.28,-1.27,-6.19,12.95
8.148557901382446,2,3,3,2,-7.05,-2.01,16.34,-15.88,13.15,11.89
8.158557891845703,2,3,3,2,-7.32,-5.74,11.07,-13.9,-0.92,1.51
8.16855788230896,2,3,3,2,-13.45,-8.789999999999999,7.12,-1.1,-8.279999999999999,-8.970000000000001
8.178557872772217,2,3,3,2,-17.27,-7.82,8.140000000000001,3.13,-0.65,-11.67
8.188557863235474,2,3,3,2,-17.68,-6.33,5.79,5.44,-1.93,-10.79
8.19855785369873,2,3,3,2,-20.25,-4.54,4.34,11,-2.63,-6.82
8.208557844161987,2,3,3,2,-23.32,-5.17,3.54,8.5,6.27,-0.95
8.218558073043823,2,3,3,2,-25.59,-5.03,1.52,5.06,15.73,5.3
8.22855806350708,2,3,3,2,-22.86,-3.38,0.92,2.22,12.71,12.47
8.238558053970337,2,3,3,2,-19.07,-2.72,3.02,0.77,1.62,17.19
8.248558044433594,2,3,3,2,-14.77,-1.84,3.92,3.09,-5.16,17.57
8.258558034896851,2,3,3,2,-10.57,-0.26,4,6.74,-6.91,15.15
8.268558025360107,2,3,3,2,-6.34,2.44,3.35,8.529999999999999,-6.03,10.81
8.278558015823364,2,3,3,2,-5.31,2.9,3.3,9.18,-3.44,6.05
8.288558006286621,2,3,3,2,-5.51,2.48,3.34,9.880000000000001,-0.51,2.37
8.298557996749878,2,3,3,2,-6.39,1.81,2.96,9.449999999999999,3.47,-0.08
8.308557987213135,2,3,3,2,-8.31,1.34,1.85,9.140000000000001,6.1,-1.48
8.318557977676392,2,3,3,2,-9.44,1.24,1.13,7.86,6.04,-1.61
8.328557968139648,2,3,3,2,-10.18,1.36,0.45,6.07,4.33,-0.49
8.338557958602905,2,3,3,2,-10.33,1.63,0.36,3.62,1.68,1.21
8.348557949066162,2,3,3,2,-8.59,1.72,0.49,0.6899999999999999,-0.9,2.95
8.358557939529419,2,3,3,2,-8.59,1.72,0.49,-0.9399999999999999,-2.87,4.26
8.368557929992676,2,3,3,2,-7.52,1.6,0.59,-1.33,-3.02,4.84
8.378557920455933,2,3,3,2,-4.08,0.92,1.14,-1.29,-2.1,5.23
8.388557910919189,2,3,3,2,-3.51,1.16,1.37,-0.38,-0.39,5.41
8.398557901382446,2,3,3,2,-3.69,1.19,1.48,1,1.31,5.86
8.408557891845703,2,3,3,2,-3.69,1.19,1.48,1,1.31,5.86
8.41855788230896,2,3,3,2,-4.19,1.24,1.42,2.56,2.96,6.02
8.428557872772217,2,3,3,2,-6.29,1.65,1.17,4.67,4.74,4.49
8.438557863235474,2,3,3,2,-6.74,1.88,1.27,4.82,4.53,3.34
8.44855785369873,2,3,3,2,-7.07,2.2,1.34,4.57,3.7,2.35
8.458557844161987,2,3,3,2,-7.07,2.2,1.34,4.57,3.7,2.35
8.468558073043823,2,3,3,2,-7.59,2.85,1.44,3.34,2.95,1.44
8.47855806350708,2,3,3,2,-6.95,2.85,0.27,0.97,1.59,0.58
8.488558053970337,2,3,3,2,-7.15,2.77,0.25,0.25,1.95,0.33
8.498558044433594,2,3,3,2,-7.77,1.92,0.59,-1.81,1.93,-0.05
8.508558034896851,2,3,3,2,-7.77,1.92,0.59,-3.41,1.13,-0.5
8.518558025360107,2,3,3,2,-7.95,1.54,0.83,-3.41,1.13,-0.5
8.528558015823364,2,3,3,2,-8.609999999999999,0.6899999999999999,0.95,-4.65,0.39,-1.51
8.538558006286621,2,3,3,2,-9.56,0.07000000000000001,1.51,-4.16,0.91,-1.99
8.548557996749878,2,3,3,2,-10.37,-0.05,2.08,-3.83,1.65,-2.28
8.558557987213135,2,3,3,2,-10.37,-0.05,2.08,-3.83,1.65,-2.28
8.568557977676392,2,3,3,2,-11.13,-0.19,2.45,-3.34,1.65,-2.36
8.578557968139648,2,3,3,2,-12,-0.17,2.13,0.16,0.24,-2.01
8.588557958602905,2,3,3,2,-12.16,-0.07000000000000001,1.97,0.61,0.59,-1.61
8.598557949066162,2,3,3,2,-12.01,-0.09,1.84,0.63,1.16,-0.96
8.608557939529419,2,3,3,2,-11.7,0.07000000000000001,1.81,0.63,1.16,-0.96
8.618557929992676,2,3,3,2,-11.04,0.47,1.74,0.34,1.26,0
8.628557920455933,2,3,3,2,-10.88,0.48,1.49,-0.53,0.5,1.33
8.638557910919189,2,3,3,2,-10.74,0.48,1.31,-0.25,0.5600000000000001,1.7
8.648557901382446,2,3,3,2,-10.64,0.55,1.44,-0.47,0.42,1.98
8.658557891845703,2,3,3,2,-10.67,0.65,1.86,-0.47,0.42,1.98
8.66855788230896,2,3,3,2,-10.33,0.57,1.68,-0.61,-0.1,2.2
8.678557872772217,2,3,3,2,-10.01,0.63,1.42,1.59,-0.31,2.33
8.688557863235474,2,3,3,2,-9.83,0.68,1.29,1.91,0.16,2.36
8.69855785369873,2,3,3,2,-9.5,0.7,1.52,1.91,0.11,2.4
8.708557844161987,2,3,3,2,-9.27,0.82,1.44,1.91,0.11,2.4
8.718558073043823,2,3,3,2,-9,1.08,1.2,2.06,-0.41,2.43
8.72855806350708,2,3,3,2,-8.76,1.27,0.8100000000000001,2.7,-0.51,2.36
8.738558053970337,2,3,3,2,-8.65,1.73,0.7,2.04,-0.23,2.06
8.748558044433594,2,3,3,2,-8.640000000000001,1.87,0.91,1.2,-0.31,1.64
8.758558034896851,2,3,3,2,-8.630000000000001,2,1.01,1.2,-0.31,1.64
8.768558025360107,2,3,3,2,-8.74,2.11,1.06,0.61,-0.42,1.16
8.778558015823364,2,3,3,2,-8.92,2.09,1.11,-0.24,-0.78,0.16
8.788558006286621,2,3,3,2,-9.16,2.12,1.03,-0.49,-0.97,-0.22
8.798557996749878,2,3,3,2,-9.34,2.01,1.11,-0.83,-1.24,-0.57
8.808557987213135,2,3,3,2,-9.640000000000001,1.72,1.16,-0.83,-1.24,-0.57
8.818557977676392,2,3,3,2,-9.76,1.52,1.19,-0.99,-1.24,-0.79
8.828557968139648,2,3,3,2,-9.77,1.37,1.09,-0.8100000000000001,-1.08,-0.76
8.838557958602905,2,3,3,2,-9.800000000000001,1.28,0.96,-0.76,-0.72,-0.47
8.848557949066162,2,3,3,2,-9.880000000000001,1.2,1.08,-0.9399999999999999,-0.59,0.06
8.858557939529419,2,3,3,2,-9.75,1.14,1.12,-0.9399999999999999,-0.59,0.06
8.868557929992676,2,3,3,2,-9.65,1.22,1.17,-0.97,-0.61,0.63
8.878557920455933,2,3,3,2,-9.56,1.31,1.26,-0.61,-0.44,1.28
8.888557910919189,2,3,3,2,-9.220000000000001,1.42,1.35,-0.58,-0.42,1.32
8.898557901382446,2,3,3,2,-9.1,1.46,1.58,-0.6899999999999999,-0.5,1.28
8.908557891845703,2,3,3,2,-8.99,1.52,1.63,-0.6899999999999999,-0.5,1.28
8.919558048248291,2,3,3,2,-8.859999999999999,1.57,1.51,-0.45,-0.67,1.16
8.929558038711548,2,3,3,2,-8.91,1.58,1.34,-0.48,-0.21,0.87
8.939558029174805,2,3,3,2,-8.98,1.62,1.33,-0.67,0.1,0.65
8.949558019638062,2,3,3,2,-9.08,1.67,1.31,-0.55,0.26,0.44
8.959558010101318,2,3,3,2,-9.24,1.77,1.28,-0.55,0.26,0.44
8.969558000564575,2,3,3,2,-9.529999999999999,1.72,1.19,-0.36,0.52,0.13
8.979557991027832,2,3,3,2,-9.630000000000001,1.61,1.25,-0.35,0.9399999999999999,-0.2
8.989557981491089,2,3,3,2,-9.66,1.47,1.31,-0.77,1.22,-0.47
8.999557971954346,2,3,3,2,-9.68,1.31,1.67,-1.26,1.13,-0.49
9.009557962417603,2,3,3,2,-9.74,1.34,1.86,-1.31,0.77,-0.31
9.019557952880859,2,3,3,2,-9.66,1.42,1.84,-0.95,0.32,-0.11
9.029557943344116,2,3,3,2,-9.57,1.48,1.72,-0.05,-0.11,0.17
9.039557933807373,2,3,3,2,-9.56,1.76,1.4,1.04,-0.06,0.36
9.04955792427063,2,3,3,2,-9.52,1.87,1.4,1.76,0.35,0.57
9.059557914733887,2,3,3,2,-9.41,1.96,1.41,2.03,0.77,0.9399999999999999
9.069557905197144,2,3,3,2,-9.19,1.98,1.2,2.13,0.97,1.47
9.0795578956604,2,3,3,2,-8.81,2.23,1,2.42,1.1,2.03
9.089557886123657,2,3,3,2,-8.630000000000001,2.35,0.92,2.36,1.29,2.6
9.099557876586914,2,3,3,2,-8.43,2.54,0.97,2.06,1.38,3
9.109557867050171,2,3,3,2,-8.289999999999999,2.79,1.09,1.82,1.39,3.18
9.119557857513428,2,3,3,2,-7.78,3.08,0.7,1.85,1.37,3.26
9.129557847976685,2,3,3,2,-7.5,3.01,0.42,2.39,1.32,3.29
9.139557838439941,2,3,3,2,-7.19,2.75,0.06,2.86,1.65,3.28
9.149558067321777,2,3,3,2,-6.97,2.6,0.29,2.68,2.17,3.2
9.159558057785034,2,3,3,2,-6.77,2.36,1.02,1.21,2.44,3.02
9.169558048248291,2,3,3,2,-6.66,2.47,1.12,-0.54,1.5,2.85
9.179558038711548,2,3,3,2,-6.65,2.67,1,-0.9399999999999999,-0.02,2.65
9.189558029174805,2,3,3,2,-6.51,2.75,0.48,-0.28,-1.36,2.42
9.199558019638062,2,3,3,2,-6.14,2.44,0.17,0.93,-2,2.35
9.209558010101318,2,3,3,2,-5.83,1.96,0.13,2.18,-1.83,2.44
9.219558000564575,2,3,3,2,-5.57,1.53,0.37,2.26,-0.99,2.7
9.229557991027832,2,3,3,2,-4.74,0.87,0.48,0.96,-0.44,3.17
9.239557981491089,2,3,3,2,-4.54,0.89,0.84,-0.31,-0.61,3.82
9.249557971954346,2,3,3,2,-4.38,1.15,1.26,-1.28,-1.1,4.29
9.259557962417603,2,3,3,2,-4.11,1.23,1.01,-1.36,-1.94,4.46
9.269557952880859,2,3,3,2,-4.46,1.46,0.7,1.52,-0.58,4
9.279557943344116,2,3,3,2,-5.08,1.49,1.17,1.52,-0.58,4
9.289557933807373,2,3,3,2,-6.1,1.43,1.66,1.32,1.19,3.45
9.29955792427063,2,3,3,2,-7.01,1.34,1.95,-0.21,2.15,2.62
9.309557914733887,2,3,3,2,-8.41,1.59,1.75,-0.24,1.23,0.88
9.319557905197144,2,3,3,2,-8.74,1.53,1.52,0.7,1.34,0.59
9.3295578956604,2,3,3,2,-9.6,1.86,1.68,0.82,2.15,0.41
9.339557886123657,2,3,3,2,-10.57,2.09,1.78,0.47,3.21,0.39
9.349557876586914,2,3,3,2,-11.25,1.99,1.4,1.17,4.39,1.14
9.359557867050171,2,3,3,2,-11.71,2.08,1.05,2.6,5.63,2.24
9.369557857513428,2,3,3,2,-12.14,2.09,0.59,3.04,6.09,3.25
9.379557847976685,2,3,3,2,-12.77,2.21,0.5600000000000001,1.87,4.53,3.84
9.389557838439941,2,3,3,2,-14.66,2.33,1.15,-0.27,1.7,3.31
9.399558067321777,2,3,3,2,-15.76,2.45,2.24,-2.67,-1.87,2.09
9.409558057785034,2,3,3,2,-16.77,2.41,3.25,-3.33,-4.97,0.35
9.419558048248291,2,3,3,2,-17.61,2.2,4.19,-2.39,-5.62,-1.51
9.429558038711548,2,3,3,2,-18.09,1.99,4.13,-0.54,-2.81,-2.75
9.439558029174805,2,3,3,2,-18.64,1.84,3.83,1.79,0.99,-3.31
9.449558019638062,2,3,3,2,-19.06,1.93,3.31,3.6,3.22,-2.64
9.459558010101318,2,3,3,2,-19.76,2.03,3.26,3.94,3.49,-1.67
9.489557981491089,2,3,3,2,-22.63,3.26,3.55,3.77,-0.44,0.76
9.54955792427063,2,3,3,2,-23.81,-2.23,6.19,-5.76,6.04,-10.17
9.559557914733887,2,3,3,2,-24.65,-3.26,5.76,-2.74,6.92,-12.28
9.569557905197144,2,3,3,2,-25.94,-4.06,5.21,1.99,7.61,-12.83
9.5795578956604,2,3,3,2,-27.91,-2.98,3.84,5.68,5.72,-11.41
9.589557886123657,2,3,3,2,-27.74,-1.46,2.55,8.029999999999999,2.26,-8.449999999999999
9.599557876586914,2,3,3,2,-26.57,0.52,1.52,8.83,-0.96,-4.87
9.609557867050171,2,3,3,2,-22.72,5.26,0.64,7.24,-2.76,-0.86
9.619557857513428,2,3,3,2,-18.01,6.55,-0.95,6.65,-3.47,2.89
9.629557847976685,2,3,3,2,-12.64,7.76,-0.93,8.92,-0.34,5.67
9.639557838439941,2,3,3,2,-8.02,6.96,-2.24,10.82,3.75,6.46
9.649558067321777,2,3,3,2,-0.1,9.630000000000001,-1.74,14.73,5.63,6.95
9.659558057785034,2,3,3,2,1.85,10.08,-0.62,13.16,4.07,8.31
9.669558048248291,2,3,3,2,4.81,12.39,-4.19,15.58,-0.13,9.359999999999999
9.679558038711548,2,3,3,2,5.5,15.62,-8.119999999999999,21.57,-1.63,11.84
9.689558029174805,2,3,3,2,2.51,16.94,-13.48,19.79,1.81,12.06
9.699558019638062,2,3,3,2,3.81,14.76,-10.57,10.67,-4,10.22
9.71055793762207,2,3,3,2,6.18,11.33,-5.94,-6.07,-10.17,6.25
9.719558000564575,2,3,3,2,7.68,6.76,-3.45,-19.14,-7.84,-0.1
9.729557991027832,2,3,3,2,4.02,2.92,0.74,-28.51,-2.8,-8.24
9.739557981491089,2,3,3,2,3.77,0.83,1.15,-34.01,-1.59,-13.76
9.749557971954346,2,3,3,2,4.24,-0.88,0.68,-34.28,-2.48,-17.77
9.759557962417603,2,3,3,2,5.08,-3.58,-0.06,-30.84,-2.94,-19.37
9.769557952880859,2,3,3,2,4.38,-6.01,1.27,-24.84,-2.16,-16.68
9.779557943344116,2,3,3,2,2.25,-6.61,0.74,-17.02,0.92,-12.89
9.789557933807373,2,3,3,2,-0.83,-7.33,0.2,-9.449999999999999,3.95,-8.91
9.79955792427063,2,3,3,2,-5.57,-7.43,0.75,-3.58,3.82,-6.26
9.809557914733887,2,3,3,2,-7.19,-7.54,0.77,1.48,1.44,-4.04
9.819557905197144,2,3,3,2,-7.43,-7.14,0.52,6.12,0.38,-1.68
9.8295578956604,2,3,3,2,-6.95,-5.69,0.34,9.710000000000001,1.82,1.79
9.839557886123657,2,3,3,2,-3.77,-2.63,-1.14,11.26,3.56,5.13
9.849557876586914,2,3,3,2,-2,-1.24,-0.95,10.56,5.3,7.4
9.859557867050171,2,3,3,2,-0.71,-0.13,-0.67,8.73,5.97,8.73
9.869557857513428,2,3,3,2,0.06,0.58,-0.51,7.8,3.95,9.640000000000001
9.879557847976685,2,3,3,2,0.5600000000000001,1.08,0.5600000000000001,7.67,0.91,10.37
9.890558004379272,2,3,3,2,1.07,1.08,0.64,8.4,-2.33,10.22
9.899558067321777,2,3,3,2,1.48,1.21,0.73,9.26,-5.01,9.33
9.909558057785034,2,3,3,2,1.78,1.02,0.72,9.640000000000001,-6.13,7.87
9.919558048248291,2,3,3,2,2.84,1.61,0.34,9.859999999999999,-5.78,6.01
9.929558038711548,2,3,3,2,3.67,1.67,-0.16,9.06,-5.15,3.99
9.940557956695557,2,3,3,2,4.44,1.56,-0.59,6.49,-3.51,2.2
9.950557947158813,2,3,3,2,4.53,1.69,-0.53,3.08,-0.46,0.38
9.96055793762207,2,3,3,2,2.34,1.72,0.3,-0.89,1.8,-1.26
9.970557928085327,2,3,3,3,1.11,1.56,0.2,-4.07,2.11,-2.45
9.980557918548584,2,3,3,3,0.22,1.35,-0.12,-6.14,1.91,-3.2
9.990557909011841,2,3,3,3,-0.51,1.11,-0.18,-7.41,1.71,-3.74
10.0005578994751,2,3,3,3,-1.69,0.5600000000000001,0.55,-7.41,1.13,-4.08
10.01055788993835,2,3,3,3,-1.98,0.24,0.82,-6.09,0.03,-4.01
10.02055788040161,2,3,3,3,-2.13,0.18,0.95,-4.28,-1.17,-3.44
10.03055787086487,2,3,3,3,-1.85,0.02,-0.58,-2.54,-2.56,-2.64
10.04055786132812,2,3,3,3,-1.49,1.26,0.16,0.72,-4.54,-2.1
10.05055785179138,2,3,3,3,-0.72,2.11,-0.03,2.95,-3.89,-1.47
10.06055784225464,2,3,3,3,-0.54,2,-1.62,3.82,-2.27,-1.76
10.07055807113647,2,3,3,3,-4.64,5.61,1.6,3.01,-1.33,-3.02
10.08055806159973,2,3,3,3,-7.46,8.779999999999999,1.81,5.32,-2.94,-4.34
10.09055805206299,2,3,3,3,-14.41,12.31,4.35,4.53,-6.51,-8.98
10.10055804252625,2,3,3,3,-25.07,15.11,4.79,-3.44,-15.07,-17.03
10.1105580329895,2,3,3,3,-38.39,20.45,-1.84,-22.48,-26.37,-32.09
10.12055802345276,2,3,3,3,-39.29,-2.27,-6.01,-51.68,-5.64,-33.51
10.13055801391602,2,3,3,3,-37.25,-25.63,-0.63,-57.43,26.49,-6.81
10.14055800437927,2,3,3,3,-39.29,-21.93,9.18,-25.66,12.37,-1.46
10.15055799484253,2,3,3,3,-31.29,-6.34,2.65,11.18,-6.63,-7.75
10.16055798530579,2,3,3,3,-19.64,-4.36,4.15,19.85,-8.44,0.9399999999999999
10.17055797576904,2,3,3,3,-15.56,-2.89,6.83,11.26,-4.63,0.82
10.1805579662323,2,3,3,3,-16.19,-3.32,8.65,8.01,-0.96,-1.34
10.19055795669556,2,3,3,3,-20.08,-4.82,6.41,9.789999999999999,2.85,-1.32
10.20055794715881,2,3,3,3,-21.8,-3.29,4.84,11.3,0.73,-0.65
10.21055793762207,2,3,3,3,-22.43,-0.67,3.19,12.41,-2.09,0.46
10.22055792808533,2,3,3,3,-20.38,1.84,1.74,11.56,-0.03,3.17
10.27055788040161,2,3,3,3,-12.42,2.12,1.29,4.9,-1.65,12.08
10.28055787086487,2,3,3,3,-10.27,2.1,1.06,5.34,-3.81,10.4
10.29055786132812,2,3,3,3,-7.98,2.06,0.68,6.78,-4.7,8.960000000000001
10.30055785179138,2,3,3,3,-5.32,1.6,0.09,7.73,-3.63,7.47
10.31055784225464,2,3,3,3,-4.14,1.81,-0.17,8.32,-0.3,6.21
10.32055807113647,2,3,3,3,-2.92,1.83,-0.28,7.69,1.97,5.38
10.33055806159973,2,3,3,3,-2.1,1.86,-0.08,5.72,3.25,5.22
10.34055805206299,2,3,3,3,-1.69,2.05,0.34,3.82,3.18,5.36
10.35055804252625,2,3,3,3,-1.58,2.13,0.28,3.02,1.91,5.8
10.3605580329895,2,3,3,3,-1.44,2.5,0.33,3.09,0.49,6.06
10.37055802345276,2,3,3,3,-1.44,2.5,0.33,2.79,0.05,6.09
10.38055801391602,2,3,3,3,-1.4,2.83,0.3,2.37,0.29,5.73
10.39055800437927,2,3,3,3,-1.6,2.76,0,1.92,0.48,5.34
10.40055799484253,2,3,3,3,-1.64,2.34,-0.1,1.55,0.5,4.76
10.41055798530579,2,3,3,3,-2.09,2.02,-0.06,1.19,0.83,3.98
10.42055797576904,2,3,3,2,-2.09,2.02,-0.06,0.83,1.27,3.56
10.4305579662323,2,3,3,2,-2.64,2.35,0.32,-0.08,2.05,2.99
10.44055795669556,2,3,3,2,-3.82,3.2,1.29,-1.39,2.97,1.98
10.45055794715881,2,3,3,2,-5.51,3.92,0.39,-2.5,3.19,0.44
10.46055793762207,2,3,3,2,-6.74,4.41,-0.14,-2.4,1.86,-1.56
10.47055792808533,2,3,3,2,-6.74,4.41,-0.14,-2.02,0.07000000000000001,-3.82
10.48055791854858,2,3,3,2,-8.66,4.89,0.36,-2.97,-1.8,-6.53
10.49055790901184,2,3,3,2,-18.14,3.25,2.29,-2.98,-3.99,-10.52
10.5005578994751,2,3,3,2,-19.51,1.59,0.5600000000000001,-1.63,-3.84,-15.3
10.51055788993835,2,3,3,2,-19.9,-0.55,-1.82,-1.01,3.43,-17.71
10.52055788040161,2,3,3,2,-19.9,-0.55,-1.82,-1.01,3.43,-17.71
10.53055787086487,2,3,3,2,-19.62,-2.82,-2.66,-2.21,14.08,-12.53
10.54055786132812,2,3,3,2,-14.78,-0.22,-0.54,-6.04,4.99,6.3
10.55055785179138,2,3,3,2,-11.75,1.08,0.45,-5.4,-7.04,9.65
10.56055784225464,2,3,3,2,-8.27,2.8,1.68,0.58,-11.53,9.44
10.57055807113647,2,3,3,2,-8.27,2.8,1.68,2.87,-8.6,7.7
10.58055806159973,2,3,3,2,-6.01,3.77,3.02,0.45,-2.18,5.46
10.59055805206299,2,3,3,2,-6.78,2.64,1.53,-2.14,2.74,3.1
10.60055804252625,2,3,3,2,-7.21,2.05,1.11,-4.26,4.02,0.89
10.6105580329895,2,3,3,2,-6.71,1.28,1.29,-6.12,2.25,-0.8
10.62055802345276,2,3,3,2,-6.71,1.28,1.29,-6.12,2.25,-0.8
10.63055801391602,2,3,3,2,-6.15,1.04,1.69,-7.31,-0.44,-1.97
10.64055800437927,2,3,3,2,-6.58,0.5600000000000001,3.16,-6.48,-1.97,-3.47
10.65055799484253,2,3,3,2,-7.35,0.5600000000000001,3.32,-4.86,-1.35,-4.15
10.66055798530579,2,3,3,2,-8.199999999999999,0.44,2.89,-2.87,-0.66,-4.65
10.67055797576904,2,3,3,2,-8.199999999999999,0.44,2.89,-2.87,-0.66,-4.65
10.6805579662323,2,3,3,2,-9.5,0.59,2.26,-0.8100000000000001,-0.07000000000000001,-4.52
10.69055795669556,2,3,3,2,-11.92,0.63,0.77,0.36,-0.51,-3.07
10.70055794715881,2,3,3,2,-12.26,0.61,0.05,0.5,-0.52,-2.38
10.71055793762207,2,3,3,2,-12.37,0.71,-0.27,0.34,0.27,-1.81
10.72055792808533,2,3,3,2,-12.42,0.86,0.09,0.34,0.27,-1.81
10.7505578994751,2,3,3,2,-10.79,1.91,1.47,0.9399999999999999,-4.53,0.93
10.76055788993835,2,3,3,2,-10.43,2.17,1.69,1.21,-4.39,0.67
10.78055787086487,2,3,3,2,-10.25,2.13,1.82,1.28,-4.2,0.14
10.79055786132812,2,3,3,2,-9.880000000000001,2.05,1.58,1.58,-2.95,-0.92
10.80055785179138,2,3,3,2,-9.369999999999999,1.79,1.35,0.57,-1.74,-1.01
10.81055784225464,2,3,3,2,-8.449999999999999,1.37,1.54,-0.38,-0.63,-0.73
10.82055807113647,2,3,3,2,-8.210000000000001,1.37,1.83,-0.38,-0.63,-0.73
10.83055806159973,2,3,3,2,-8.109999999999999,1.43,1.99,-0.8100000000000001,0.23,-0.31
10.84055805206299,2,3,3,2,-8.210000000000001,1.56,1.76,0.07000000000000001,0.2,0.7
10.85055804252625,2,3,3,2,-8.59,1.62,1.57,0.43,0.24,0.87
10.8605580329895,2,3,3,2,-8.789999999999999,1.64,1.41,0.88,-0.11,1.05
10.87055802345276,2,3,3,2,-8.859999999999999,1.65,1.29,0.88,-0.11,1.05
10.88055801391602,2,3,3,2,-9.41,1.86,0.99,1.53,-0.1,1.26
10.89055800437927,2,3,3,2,-9.800000000000001,2.02,0.9,2.04,0.55,1.34
10.90055799484253,2,3,3,2,-10.05,2.2,0.76,1.87,0.49,1.22
10.91055798530579,2,3,3,2,-10.2,2.39,0.79,1.39,0.36,1
10.92055797576904,2,3,3,2,-10.32,2.43,1.01,1.39,0.36,1
10.9305579662323,2,3,3,2,-10.24,2.3,1.06,0.61,0.08,0.68
10.94055795669556,2,3,3,2,-10.01,2.16,1.04,-0.2,-1.1,-0.03
10.95055794715881,2,3,3,2,-9.789999999999999,2.05,0.95,-0.52,-1.38,-0.36
10.96055793762207,2,3,3,2,-9.460000000000001,1.85,1.2,-0.95,-1.41,-0.61
10.97155785560608,2,3,3,2,-9.42,1.76,1.36,-0.95,-1.41,-0.61
10.98155784606934,2,3,3,2,-9.369999999999999,1.64,1.39,-1.3,-1.4,-0.6899999999999999
10.99155807495117,2,3,3,2,-9.300000000000001,1.52,1.22,-0.96,-0.99,-0.72
11.00155806541443,2,3,3,2,-9.42,1.44,1.21,-0.87,-0.47,-0.84
11.01155805587769,2,3,3,2,-9.449999999999999,1.42,1.24,-0.44,-0.28,-0.93
11.02155804634094,2,3,3,2,-9.630000000000001,1.45,1.25,-0.44,-0.28,-0.93
11.0315580368042,2,3,3,2,-9.890000000000001,1.43,1.33,0.04,0.05,-1.02
11.04155802726746,2,3,3,2,-10.08,1.3,1.34,0.13,0.16,-0.74
11.05155801773071,2,3,3,2,-10.01,1.24,1.24,0.07000000000000001,0.16,-0.23
11.06155800819397,2,3,3,2,-9.85,1.21,1.31,0.22,0.08,0.39
11.07155799865723,2,3,3,2,-9.49,1.38,1.33,0.22,0.08,0.39
11.08155798912048,2,3,3,2,-9.390000000000001,1.49,1.31,0.72,0.16,0.84
11.09155797958374,2,3,3,2,-9.42,1.59,1.47,1.02,0.24,1.04
11.101557970047,2,3,3,2,-9.48,1.63,1.42,1.03,0.28,0.9399999999999999
11.11155796051025,2,3,3,2,-9.58,1.82,1.38,1.14,0.24,0.72
11.12155795097351,2,3,3,2,-9.6,1.82,1.36,1.24,0.27,0.45
11.13155794143677,2,3,3,2,-9.56,1.81,1.34,1.14,0.17,0.18
11.14155793190002,2,3,3,2,-9.57,1.78,1.42,0.98,-0.09,-0.07000000000000001
11.15155792236328,2,3,3,2,-9.66,1.79,1.39,0.91,-0.46,-0.34
11.16155791282654,2,3,3,2,-9.68,1.86,1.39,1,-0.82,-0.66
11.17155790328979,2,3,3,2,-9.65,1.88,1.39,1.16,-1.02,-0.92
11.18155789375305,2,3,3,2,-9.57,1.89,1.37,1.15,-1.03,-1
11.19155788421631,2,3,3,2,-9.6,1.93,1.42,0.99,-0.8100000000000001,-0.9399999999999999
11.20155787467957,2,3,3,2,-9.59,1.87,1.34,0.8100000000000001,-0.65,-0.84
11.21155786514282,2,3,3,2,-9.59,1.84,1.35,0.65,-0.67,-0.72
11.22155785560608,2,3,3,2,-9.58,1.86,1.43,0.76,-0.59,-0.58
11.23155784606934,2,3,3,3,-9.640000000000001,1.86,1.44,0.9,-0.39,-0.46
11.24155807495117,2,3,3,3,-9.67,1.89,1.31,0.91,-0.15,-0.3
11.25155806541443,2,3,3,3,-9.710000000000001,1.89,1.17,0.75,0.15,-0.08
11.26155805587769,2,3,3,3,-9.630000000000001,1.91,1.18,0.4,0.26,0.14
11.27155804634094,2,3,3,3,-9.550000000000001,1.94,1.25,-0.01,0.26,0.34
11.2815580368042,2,3,3,3,-9.52,1.92,1.37,-0.29,0.26,0.49
11.29155802726746,2,3,3,3,-9.470000000000001,1.96,1.48,-0.42,0.19,0.53
11.30155801773071,2,3,3,3,-9.51,1.94,1.23,-0.49,0.13,0.46
11.31155800819397,2,3,3,3,-9.609999999999999,1.91,1.25,-0.4,0.16,0.25
11.32155799865723,2,3,3,3,-9.67,1.77,1.29,-0.58,0.22,-0.01
11.33155798912048,2,3,3,3,-9.710000000000001,1.7,1.3,-0.89,0.19,-0.21
11.34155797958374,2,3,3,3,-9.699999999999999,1.57,1.35,-1.04,-0.01,-0.29
11.351557970047,2,3,3,3,-9.69,1.55,1.38,-1.15,-0.26,-0.27
11.36155796051025,2,3,3,3,-9.66,1.54,1.43,-1.07,-0.34,-0.22
11.37155795097351,2,3,3,3,-9.65,1.52,1.46,-0.78,-0.36,-0.21
11.38155794143677,2,3,3,3,-9.65,1.5,1.41,-0.54,-0.19,-0.21
11.39155793190002,2,3,3,3,-9.65,1.5,1.42,-0.44,-0.07000000000000001,-0.26
11.40155792236328,2,3,3,3,-9.69,1.49,1.35,-0.36,-0.03,-0.22
11.41155791282654,2,3,3,3,-9.710000000000001,1.5,1.43,-0.44,-0.05,-0.21
11.42155790328979,2,3,3,3,-9.65,1.51,1.44,-0.46,-0.21,-0.16
11.43155789375305,2,3,3,3,-9.619999999999999,1.51,1.48,-0.28,-0.35,-0.09
11.44155788421631,2,3,3,3,-9.550000000000001,1.53,1.38,-0.14,-0.45,-0.1
11.45155787467957,2,3,3,3,-9.56,1.56,1.29,0.01,-0.42,-0.06
11.46155786514282,2,3,3,3,-9.57,1.6,1.31,-0.03,-0.3,-0.06
11.47155785560608,2,3,3,3,-9.59,1.61,1.35,-0.16,-0.24,-0.06
11.48155784606934,2,3,3,3,-9.58,1.63,1.37,-0.09,-0.03,-0.13
11.49155807495117,2,3,3,3,-9.630000000000001,1.61,1.36,-0.1,0.03,-0.16
11.50155806541443,2,3,3,3,-9.65,1.61,1.31,-0.1,0.03,-0.16
11.51155805587769,2,3,3,3,-9.619999999999999,1.58,1.36,-0.17,0,-0.17
11.52155804634094,2,3,3,3,-9.68,1.57,1.48,-0.27,-0.08,-0.17
11.5315580368042,2,3,3,3,-9.640000000000001,1.5,1.51,-0.28,-0.35,-0.2
11.54155802726746,2,3,3,3,-9.58,1.51,1.43,-0.07000000000000001,-0.46,-0.24
11.55155801773071,2,3,3,3,-9.58,1.51,1.37,0,-0.42,-0.2
11.56155800819397,2,3,3,3,-9.59,1.48,1.44,0.03,-0.4,-0.25
11.57155799865723,2,3,3,3,-9.6,1.53,1.46,0.12,-0.35,-0.27
11.58155798912048,2,3,3,3,-9.6,1.55,1.46,0.17,-0.33,-0.3
11.59155797958374,2,3,3,3,-9.59,1.54,1.5,0.21,-0.34,-0.29
11.601557970047,2,3,3,3,-9.609999999999999,1.57,1.39,0.19,-0.32,-0.26
11.61155796051025,2,3,3,3,-9.619999999999999,1.62,1.42,0.17,-0.2,-0.28
11.62155795097351,2,3,3,3,-9.630000000000001,1.6,1.44,0.15,-0.11,-0.28
11.63155794143677,2,3,3,3,-9.640000000000001,1.6,1.43,0.12,-0.08,-0.25
11.64155793190002,2,3,3,3,-9.640000000000001,1.59,1.46,0.11,-0.05,-0.23
11.65155792236328,2,3,3,3,-9.630000000000001,1.56,1.39,0,-0.05,-0.17
11.66155791282654,2,3,3,3,-9.59,1.55,1.42,-0.04,0.01,-0.04
11.67155790328979,2,3,3,3,-9.619999999999999,1.56,1.48,-0.07000000000000001,0.08,0.02
11.68155789375305,2,3,3,3,-9.609999999999999,1.52,1.52,-0.12,0.06,0.09
11.69155788421631,2,3,3,3,-9.609999999999999,1.54,1.49,-0.04,0.08,0.07000000000000001
11.70155787467957,2,3,3,3,-9.609999999999999,1.53,1.39,-0.06,0.13,0.07000000000000001
11.71155786514282,2,3,3,3,-9.6,1.5,1.46,-0.08,0.15,0.02
11.72155785560608,2,3,3,3,-9.59,1.47,1.57,-0.11,0.18,0
11.73155784606934,2,3,3,3,-9.56,1.46,1.57,-0.09,0.14,-0.03
11.74155807495117,2,3,3,3,-9.58,1.5,1.56,0.06,0.09,-0.02
11.75155806541443,2,3,3,3,-9.6,1.49,1.47,0.16,0.1,-0.06
11.76155805587769,2,3,3,3,-9.65,1.55,1.48,0.24,0.11,-0.05
11.77155804634094,2,3,3,3,-9.66,1.57,1.46,0.26,0.09,-0.05
11.7815580368042,2,3,3,3,-9.68,1.57,1.5,0.18,0.14,-0.08
11.80155801773071,2,3,3,3,-9.66,1.61,1.33,0.12,0.1,-0.09
11.81155800819397,2,3,3,3,-9.65,1.58,1.43,0.06,0.08,-0.04
11.82155799865723,2,3,3,3,-9.65,1.56,1.5,0,0.1,-0.04
11.83155798912048,2,3,3,3,-9.640000000000001,1.58,1.5,-0.03,0.14,-0.02
11.84155797958374,2,3,3,3,-9.630000000000001,1.58,1.42,-0.04,0.13,-0.01
11.851557970047,2,3,3,3,-9.609999999999999,1.59,1.34,-0.05,0.18,-0.01
11.86155796051025,2,3,3,3,-9.59,1.55,1.39,-0.14,0.15,0.02
11.87155795097351,2,3,3,3,-9.57,1.53,1.47,-0.23,0.16,-0.01
11.88155794143677,2,3,3,3,-9.57,1.53,1.46,-0.22,0.14,-0.08
11.89155793190002,2,3,3,3,-9.58,1.51,1.51,-0.27,0.15,-0.08
11.90155792236328,2,3,3,3,-9.6,1.5,1.45,-0.31,0.13,-0.07000000000000001
11.91155791282654,2,3,3,3,-9.640000000000001,1.53,1.5,-0.24,0.11,-0.08
11.92155790328979,2,3,3,3,-9.65,1.56,1.46,-0.18,0.08,-0.06
11.93155789375305,2,3,3,3,-9.66,1.58,1.47,-0.15,0.14,-0.03
11.94155788421631,2,3,3,3,-9.67,1.56,1.49,-0.28,0.19,0.04
11.95155787467957,2,3,3,3,-9.65,1.61,1.36,-0.33,0.18,0.07000000000000001
11.96155786514282,2,3,3,3,-9.66,1.64,1.44,-0.34,0.12,0.08
11.97155785560608,2,3,3,3,-9.67,1.64,1.46,-0.33,0.02,0.05
11.98155784606934,2,3,3,2,-9.6,1.64,1.43,-0.34,-0.04,0.02
11.99255800247192,2,3,3,2,-9.609999999999999,1.58,1.44,-0.44,-0.03,0
12.01255798339844,2,3,3,2,-9.609999999999999,1.55,1.49,-0.7,-0.04,-0.01
12.02255797386169,2,3,3,2,-9.609999999999999,1.5,1.52,-0.68,-0.09,-0.03
12.03255796432495,2,3,3,2,-9.6,1.47,1.51,-0.6,-0.1,-0.03
12.04255795478821,2,3,3,2,-9.57,1.48,1.51,-0.54,-0.05,-0.02
12.05255794525146,2,3,3,2,-9.58,1.48,1.4,-0.54,0,0.03
12.06255793571472,2,3,3,2,-9.58,1.5,1.43,-0.57,0.03,0.07000000000000001
12.07255792617798,2,3,3,2,-9.619999999999999,1.49,1.49,-0.6,-0.02,0.07000000000000001
12.08255791664124,2,3,3,2,-9.609999999999999,1.45,1.53,-0.62,0.01,0.06
12.09255790710449,2,3,3,2,-9.619999999999999,1.44,1.61,-0.65,0.02,0.04
12.10255789756775,2,3,3,2,-9.59,1.4,1.51,-0.67,0.08,0.05
12.11255788803101,2,3,3,2,-9.58,1.4,1.56,-0.59,0.09,0.09
12.12255787849426,2,3,3,2,-9.609999999999999,1.4,1.6,-0.5,0.13,0.15
12.13255786895752,2,3,3,2,-9.6,1.37,1.59,-0.32,0.15,0.16
12.14255785942078,2,3,3,2,-9.630000000000001,1.4,1.49,-0.12,0.14,0.16
12.15255784988403,2,3,3,2,-9.640000000000001,1.4,1.42,-0.05,0.07000000000000001,0.17
12.16255784034729,2,3,3,2,-9.630000000000001,1.41,1.44,-0.02,0.04,0.17
12.17255806922913,2,3,3,2,-9.640000000000001,1.42,1.5,-0.08,0.06,0.19
12.19255805015564,2,3,3,2,-9.65,1.41,1.61,-0.1,-0.04,0.13
12.2025580406189,2,3,3,2,-9.65,1.41,1.55,-0.01,-0.09,0.1
12.21255803108215,2,3,3,2,-9.609999999999999,1.44,1.52,0.08,-0.1,0.13
12.22255802154541,2,3,3,2,-9.609999999999999,1.46,1.56,0.14,-0.06,0.18
12.23255801200867,2,3,3,2,-9.630000000000001,1.45,1.56,0.16,-0.01,0.22
12.24255800247192,2,3,3,2,-9.6,1.46,1.55,0.14,0.03,0.3
12.25255799293518,2,3,3,2,-9.609999999999999,1.49,1.5,0.12,0.04,0.37
12.26255798339844,2,3,3,2,-9.67,1.53,1.58,0.1,0.03,0.41
12.27255797386169,2,3,3,2,-9.67,1.55,1.53,0.21,0.02,0.39
12.28255796432495,2,3,3,2,-9.65,1.56,1.51,0.29,0.08,0.39
12.29255795478821,2,3,3,2,-9.619999999999999,1.53,1.46,0.16,0.1,0.4
12.30255794525146,2,3,3,2,-9.609999999999999,1.55,1.41,0.02,0.06,0.44
12.31255793571472,2,3,3,2,-9.630000000000001,1.58,1.47,-0.05,0.06,0.46
12.32255792617798,2,3,3,2,-9.640000000000001,1.59,1.47,-0.05,-0.01,0.52
12.33255791664124,2,3,3,2,-9.630000000000001,1.62,1.49,0.05,0.02,0.48
12.34255790710449,2,3,3,2,-9.630000000000001,1.63,1.46,0.08,0.05,0.46
12.35255789756775,2,3,3,2,-9.609999999999999,1.64,1.39,0.04,0.1,0.4
12.36255788803101,2,3,3,2,-9.6,1.65,1.43,-0.08,0.11,0.36
12.37255787849426,2,3,3,2,-9.6,1.61,1.49,-0.21,0.04,0.31
12.38255786895752,2,3,3,2,-9.59,1.61,1.5,-0.27,-0.08,0.25
12.39255785942078,2,3,3,2,-9.59,1.6,1.52,-0.29,-0.15,0.16
12.40255784988403,2,3,3,2,-9.57,1.56,1.45,-0.3,-0.17,0.07000000000000001
12.41255784034729,2,3,3,2,-9.58,1.55,1.56,-0.26,-0.18,0
12.42255806922913,2,3,3,2,-9.52,1.53,1.52,-0.22,-0.3,-0.03
12.43255805969238,2,3,3,2,-9.51,1.53,1.47,-0.14,-0.28,-0.02
12.44255805015564,2,3,3,2,-9.529999999999999,1.53,1.55,-0.17,-0.19,-0.07000000000000001
12.46255803108215,2,3,3,2,-9.57,1.47,1.48,-0.2,-0.16,-0.14
12.47255802154541,2,3,3,2,-9.58,1.47,1.48,-0.09,-0.13,-0.11
12.48255801200867,2,3,3,2,-9.65,1.52,1.75,-0.08,-0.07000000000000001,-0.07000000000000001
12.49255800247192,2,3,3,2,-9.82,1.54,1.92,-0.34,-0.12,-0.06
12.50255799293518,2,3,3,2,-9.75,1.5,1.67,-0.9,-0.72,-0.07000000000000001
12.51255798339844,2,3,3,2,-9.49,1.49,1.45,-0.82,-1.42,0
12.52255797386169,2,3,3,2,-9.65,1.61,1.54,-0.37,-1.39,0.1
12.53255796432495,2,3,3,2,-9.65,1.61,1.54,-0.63,-1.54,0.15
12.54255795478821,2,3,3,2,-9.56,1.57,1.61,-0.85,-1.91,0.24
12.55255794525146,2,3,3,2,-9.32,1.52,1.29,-0.19,-1.53,0.28
12.56255793571472,2,3,3,2,-9.51,1.42,1.49,-0.12,-0.86,0.21
12.57255792617798,2,3,3,2,-9.58,1.42,1.56,-0.32,-0.57,0.12
12.58255791664124,2,3,3,3,-9.58,1.42,1.56,-0.25,-0.54,0.05
12.59255790710449,2,3,3,3,-9.619999999999999,1.31,1.59,-0.01,-0.74,0.25
12.60255789756775,2,3,3,3,-9.67,1.36,1.52,0.48,-0.71,0.54
12.61255788803101,2,3,3,3,-9.75,1.41,1.44,1,-0.53,0.83
12.62255787849426,2,3,3,3,-9.82,1.53,1.24,1.52,-0.41,1.12
12.63255786895752,2,3,3,3,-9.82,1.53,1.24,1.52,-0.41,1.12
12.64255785942078,2,3,3,3,-9.880000000000001,1.67,1.11,1.96,-0.22,1.25
12.65255784988403,2,3,3,3,-9.91,1.87,0.9,1.72,-0.18,1.18
12.66255784034729,2,3,3,3,-9.93,1.87,1.06,1.38,-0.13,0.97
12.67255806922913,2,3,3,3,-9.81,1.87,1.18,0.91,-0.19,0.76
12.68255805969238,2,3,3,3,-9.81,1.87,1.18,0.5600000000000001,-0.14,0.65
12.69255805015564,2,3,3,3,-9.640000000000001,1.81,1.35,0.21,-0.13,0.5600000000000001
12.7025580406189,2,3,3,3,-9.34,1.66,1.11,0.08,-0.24,0.52
12.71255803108215,2,3,3,3,-9.25,1.63,1.21,-0.07000000000000001,-0.17,0.59
12.72255802154541,2,3,3,3,-9.300000000000001,1.55,1.24,-0.41,0.09,0.5600000000000001
12.73255801200867,2,3,3,3,-9.300000000000001,1.55,1.24,-0.41,0.09,0.5600000000000001
12.74255800247192,2,3,3,3,-9.380000000000001,1.45,1.24,-0.67,0.23,0.45
12.75255799293518,2,3,3,3,-9.73,1.21,1.29,-0.78,0.2,0.05
12.76255798339844,2,3,3,3,-9.73,1.21,1.29,-0.54,0.19,-0.08
12.77255797386169,2,3,3,3,-9.779999999999999,1.12,1.31,-0.22,0.09,-0.01
12.78255796432495,2,3,3,3,-9.82,1.07,1.23,-0.22,0.09,-0.01
12.79255795478821,2,3,3,3,-9.800000000000001,1.08,1.18,0.19,0.16,0.25
12.80255794525146,2,3,3,3,-9.800000000000001,1.07,1.01,0.45,0.49,1.04
12.81255793571472,2,3,3,3,-9.74,1.04,1.02,0.32,0.43,1.4
12.82255792617798,2,3,3,3,-9.73,0.98,1.12,0.49,0.19,1.59
12.83255791664124,2,3,3,3,-9.779999999999999,0.99,1.16,0.49,0.19,1.59
12.84255790710449,2,3,3,3,-9.93,0.96,1.24,0.8100000000000001,0.09,1.57
12.85255789756775,2,3,3,3,-10.04,1,1.21,1.63,0.07000000000000001,1.13
12.86255788803101,2,3,3,3,-10.08,1.07,1.07,1.89,0,1.03
12.87255787849426,2,3,3,3,-10.04,1.16,1.01,1.93,-0.11,1.02
12.88255786895752,2,3,3,3,-9.880000000000001,1.42,1.06,1.93,-0.11,1.02
12.89255785942078,2,3,3,3,-9.83,1.51,1.11,1.71,-0.24,1.03
12.90255784988403,2,3,3,3,-9.789999999999999,1.62,1.16,1.1,-0.73,0.85
12.91255784034729,2,3,3,3,-9.779999999999999,1.77,1.15,0.84,-0.86,0.58
12.92255806922913,2,3,3,3,-9.76,1.82,1.18,0.68,-0.9399999999999999,0.27
12.93255805969238,2,3,3,3,-9.76,1.83,1.24,0.68,-0.9399999999999999,0.27
12.94255805015564,2,3,3,3,-9.75,1.79,1.3,0.35,-0.9,-0.09
12.9525580406189,2,3,3,3,-9.789999999999999,1.65,1.37,-0.15,-0.89,-0.75
12.96255803108215,2,3,3,3,-9.85,1.6,1.38,-0.17,-0.93,-0.93
12.97255802154541,2,3,3,3,-9.84,1.55,1.49,0.04,-1.02,-0.95
12.98255801200867,2,3,3,3,-9.880000000000001,1.58,1.59,0.04,-1.02,-0.95
12.99255800247192,2,3,3,3,-9.970000000000001,1.74,1.64,0.33,-1.13,-0.83
13.00255799293518,2,3,3,3,-10.12,1.83,1.6,1.14,-1.39,-0.68
13.01255798339844,2,3,3,3,-10.28,1.99,1.58,1.24,-1.85,-0.68
13.02355790138245,2,3,3,3,-10.43,2.06,1.57,1.36,-2.41,-0.76
13.0335578918457,2,3,3,3,-10.67,2.26,1.55,1.36,-2.41,-0.76
13.04355788230896,2,3,3,3,-10.65,2.23,1.54,1.18,-2.82,-0.96
13.05355787277222,2,3,3,3,-10.62,2.28,1.72,0.1,-3.46,-1.29
13.06355786323547,2,3,3,3,-10.58,2.31,1.82,-0.25,-3.84,-1.26
13.07355785369873,2,3,3,3,-10.05,2.4,1.81,-0.31,-3.85,-1.22
13.08355784416199,2,3,3,3,-9.67,2.39,1.95,-0.31,-3.85,-1.22
13.09355807304382,2,3,3,3,-9.18,2.31,2.19,-0.79,-3.65,-1.14
13.12355804443359,2,3,3,3,-7.2,1.69,2.91,-3.45,-4.23,-0.17
13.13355803489685,2,3,3,3,-7.12,1.43,3.11,-3.45,-4.23,-0.17
13.14355802536011,2,3,3,3,-7.5,0.92,3.81,-4.16,-3.85,-0.37
13.15355801582336,2,3,3,3,-8.19,0.68,4.08,-4.6,-3.75,-1.49
13.16355800628662,2,3,3,3,-8.880000000000001,0.52,4.11,-4.6,-3.75,-1.49
13.17355799674988,2,3,3,3,-9.41,0.45,3.84,-3.64,-4.5,-2.13
13.18355798721313,2,3,3,3,-10.63,0.31,3.31,-2.34,-4.42,-2.49
13.19355797767639,2,3,3,3,-11.23,0.27,3.27,-1.73,-3.41,-2.49
13.20355796813965,2,3,3,3,-11.53,0.28,3.06,-1.84,-2.54,-2.04
13.21355795860291,2,3,3,3,-11.61,0.29,2.72,-1.52,-2.21,-1.06
13.22355794906616,2,3,3,3,-11.06,0.58,2.54,-1,-2.31,0.41
13.23355793952942,2,3,3,3,-10.39,0.74,2.48,-0.78,-2.6,1.95
13.24355792999268,2,3,3,3,-9.859999999999999,0.78,2.56,-0.86,-2.94,3.01
13.25355792045593,2,3,3,3,-9.210000000000001,0.86,2.76,-1.36,-3.39,3.24
13.26355791091919,2,3,3,3,-7.93,0.83,3.13,-1.86,-3.46,2.84
13.27355790138245,2,3,3,3,-7.59,0.68,3.42,-2.34,-3.44,2.05
13.2835578918457,2,3,3,3,-7.51,0.47,3.66,-2.5,-3.31,0.92
13.29355788230896,2,3,3,3,-7.61,0.23,3.71,-2.41,-3.12,-0.35
13.30355787277222,2,3,3,3,-7.74,-0.1,3.64,-1.99,-2.88,-1.53
13.31355786323547,2,3,3,3,-8,-0.33,3.51,-1.52,-2.5,-2.46
13.32355785369873,2,3,3,3,-8.23,-0.63,3.49,-1.03,-2.05,-3.16
13.33355784416199,2,3,3,3,-9.050000000000001,-1.27,3.67,-0.51,-1.9,-3.63
13.34355807304382,2,3,3,3,-8.800000000000001,-1.19,3.76,-0.02,-1.89,-3.58
13.35355806350708,2,3,3,3,-9.16,-1.33,3.67,0.79,-1.48,-2.92
13.36355805397034,2,3,3,3,-8.84,-0.83,3.51,1.5,-1.75,-2.19
13.37355804443359,2,3,3,3,-8.779999999999999,-1.08,3.41,2.06,-2.36,-1.9
13.38355803489685,2,3,3,3,-8.48,-0.92,3.46,2.59,-2.56,-1.7
13.39355802536011,2,3,3,3,-8.35,-0.98,3.56,3.34,-2.58,-1.45
13.40355801582336,2,3,3,3,-8.369999999999999,-0.96,3.57,3.83,-2.04,-1.39
13.41355800628662,2,3,3,3,-8.24,-0.88,3.43,4.23,-1.36,-1.31
13.44355797767639,2,3,3,3,-8.220000000000001,-0.64,3.66,4.94,0.84,-0.88
13.45355796813965,2,3,3,3,-8.41,-0.38,3.89,5.17,1.03,-0.84
13.51355791091919,2,3,3,3,-9.52,-0.05,3.64,6.48,0.05,-2.99
13.52355790138245,2,3,3,3,-9.81,0.35,3.97,6.91,0.53,-2.9
13.5335578918457,2,3,3,3,-9.880000000000001,0.57,4.05,7.32,1.05,-2.62
13.54355788230896,2,3,3,3,-9.789999999999999,0.67,4.18,7.4,1.38,-2.07
13.55355787277222,2,3,3,3,-9.83,0.95,4.38,7.29,1.53,-1.38
13.56355786323547,2,3,3,3,-9.630000000000001,0.47,4.28,6.77,1.58,-0.93
13.57355785369873,2,3,3,3,-9.640000000000001,-0.19,4.56,5.48,1.44,-0.76
13.58355784416199,2,3,3,3,-9.73,-0.5600000000000001,4.97,4.6,1.97,-1
13.59355807304382,2,3,3,3,-9.59,-1.32,5.09,3.98,1.78,-1.44
13.60355806350708,2,3,3,3,-9.35,-2.19,5.77,3.09,0.9399999999999999,-2.17
13.61355805397034,2,3,3,3,-9.59,-1.9,5.81,2.74,0.12,-3.27
13.62355804443359,2,3,3,3,-10.23,-1.65,5.46,4.25,-0.99,-4.48
13.63355803489685,2,3,3,3,-10.98,-0.96,5.12,7.32,-2.22,-5.67
13.64355802536011,2,3,3,3,-13.26,0.73,4.48,10.05,-2.64,-6.14
13.65355801582336,2,3,3,3,-13.87,2.24,3.21,10.92,-3.26,-5.75
13.66355800628662,2,3,3,3,-14.77,3.7,2.06,12.09,-3.22,-4.57
13.67355799674988,2,3,3,3,-15.88,4.87,1.36,12.91,-1.43,-2.53
13.68355798721313,2,3,3,3,-16.03,4.62,0.48,11.28,0.71,-0.06
13.69355797767639,2,3,3,2,-13.92,3.84,1.52,1.32,-1.03,3.77
13.70355796813965,2,3,3,2,-11.43,3.06,3.28,1.32,-1.03,3.77
13.71355795860291,2,3,3,2,-8.91,2.77,4.51,-4.66,-9.220000000000001,1.77
13.72355794906616,2,3,3,2,-5.23,1.79,5.4,-4.76,-8.18,-0.71
13.73355793952942,2,3,3,2,-4.48,1.33,5.55,-3.73,-5.3,-2.91
13.74355792999268,2,3,3,2,-4.25,0.85,4.97,-1,-1.51,-4.15
13.75355792045593,2,3,3,2,-5.79,0.52,3.21,2.22,2.31,-4.22
13.76355791091919,2,3,3,2,-7.05,0.71,2.53,4.51,5.62,-3.54
13.77355790138245,2,3,3,2,-8.75,1.06,1.8,4.66,8,-2.01
13.7835578918457,2,3,3,2,-10.67,1.62,0.8,3.41,9.27,0.01
13.79355788230896,2,3,3,2,-12.97,2.67,-0.58,2.39,9.140000000000001,2.09
13.80355787277222,2,3,3,2,-12.78,3.03,-0.5600000000000001,0.85,7.11,3.74
13.81355786323547,2,3,3,2,-11.75,3.44,-0.16,-0.34,3.82,4.94
13.82355785369873,2,3,3,2,-10.36,3.79,0.6,-1.26,0.9,5.13
13.83355784416199,2,3,3,2,-8.09,3.9,1.51,-1.5,-0.88,4.78
13.84355807304382,2,3,3,2,-7.39,3.77,1.5,-1.28,-1.3,4.22
13.85355806350708,2,3,3,2,-6.88,3.48,1.46,-1.31,-0.77,3.3
13.86355805397034,2,3,3,2,-6.67,3.12,1.35,-1.34,-0.29,2.55
13.87355804443359,2,3,3,2,-6.72,2.89,1.1,-0.72,0.78,1.92
13.88355803489685,2,3,3,2,-6.94,2.82,0.84,-0.45,1.99,1.51
13.89355802536011,2,3,3,2,-7.13,2.96,0.61,-0.68,2.76,1.33
13.90355801582336,2,3,3,2,-7.48,3.17,0.62,-1.55,3.06,1.02
13.91355800628662,2,3,3,2,-8.43,3.55,0.61,-2.35,2.89,0.62
13.92355799674988,2,3,3,2,-8.880000000000001,3.64,0.72,-2.98,2.48,0.12
13.93355798721313,2,3,3,2,-9.34,3.7,0.97,-3.96,2.02,-0.39
13.94355797767639,2,3,3,2,-9.31,3.57,1.28,-4.9,1.71,-0.61
13.95355796813965,2,3,3,2,-8.93,3.24,1.23,-5.95,2,-0.44
13.96355795860291,2,3,3,2,-8.539999999999999,2.96,1.16,-6.89,2.73,0.25
13.97355794906616,2,3,3,2,-8.31,2.46,1.33,-7.6,3.77,1.08
13.98355793952942,2,3,3,2,-8.52,1.8,1.65,-7.82,4.63,1.75
13.99355792999268,2,3,3,2,-8.869999999999999,1.74,1.79,-7.59,5.17,2.07
14.00355792045593,2,3,3,2,-9.19,1.65,1.75,-7.23,5.03,1.9
14.01355791091919,2,3,3,2,-9.43,1.36,1.54,-7.11,4.44,1.52
14.02355790138245,2,3,3,2,-9.960000000000001,1.15,1.55,-6.87,4.43,1.31
14.0335578918457,2,3,3,2,-10.09,1.01,1.52,-7.08,4.2,0.91
14.04455804824829,2,3,3,2,-9.960000000000001,0.86,1.59,-7.36,3.77,0.63
14.05455803871155,2,3,3,2,-9.74,0.5600000000000001,1.65,-7.57,3.63,0.8100000000000001
14.0645580291748,2,3,3,2,-9.529999999999999,0.28,1.67,-7.52,3.77,1.08
14.07455801963806,2,3,3,2,-9.48,0.11,1.72,-6.94,3.82,1.35
14.08455801010132,2,3,3,2,-9.42,0.04,1.74,-5.82,3.48,1.64
14.09455800056458,2,3,3,2,-9.27,0.17,1.76,-4.67,3.22,1.98
14.10455799102783,2,3,3,2,-9.130000000000001,0.76,1.66,-3.68,3.24,2.46
14.11455798149109,2,3,3,2,-9.210000000000001,1.07,1.51,-3.07,3.52,2.8
14.12455797195435,2,3,3,2,-9.25,1.21,1.49,-2.97,3.41,3.01
14.1345579624176,2,3,3,2,-9.33,1.53,1.51,-3.33,3.1,3.12
14.14455795288086,2,3,3,1,-9.4,1.52,1.55,-4.22,2.8,3.12
14.15455794334412,2,3,3,1,-9.630000000000001,1.49,1.69,-5.03,2.2,2.75
14.16455793380737,2,3,3,1,-9.970000000000001,1.19,1.56,-5.63,1.49,1.94
14.17455792427063,2,3,3,1,-10.25,0.52,1.68,-5.98,1.45,1.31
14.18455791473389,2,3,3,1,-10.21,0.15,1.86,-6.17,1.02,0.6
14.19455790519714,2,3,3,1,-10.03,0,1.94,-6.17,0.41,0.24
14.2045578956604,2,3,3,1,-9.869999999999999,-0.07000000000000001,2.01,-5.97,0.2,0.18
14.21455788612366,2,3,3,1,-9.57,-0.11,1.9,-5.56,0.03,0.5
14.22455787658691,2,3,3,1,-9.4,-0.06,2,-4.91,0.03,0.93
14.23455786705017,2,3,3,1,-9.300000000000001,-0.05,2.05,-4.31,0.2,1.38
14.24455785751343,2,3,3,1,-9.32,0.11,2.18,-3.55,0.49,1.79
14.25455784797668,2,3,3,1,-9.609999999999999,0.36,1.98,-3.02,0.84,2.02
14.26455783843994,2,3,3,1,-9.69,0.38,1.61,-2.67,0.97,2.11
14.27455806732178,2,3,3,1,-9.81,0.43,1.51,-2.71,0.91,2.21
14.28455805778503,2,3,3,1,-9.85,0.52,1.61,-3.17,0.68,2.45
14.29455804824829,2,3,3,1,-9.76,0.66,1.65,-3.67,0.42,2.87
14.30455803871155,2,3,3,1,-9.710000000000001,0.73,1.68,-4.41,0.27,3.42
14.3145580291748,2,3,3,1,-9.66,0.6899999999999999,1.55,-4.9,0.17,4.05
14.32455801963806,2,3,3,1,-9.640000000000001,0.6899999999999999,1.62,-5.13,0.25,4.53
14.33455801010132,2,3,3,1,-9.710000000000001,0.59,2.17,-5.25,0.5600000000000001,4.73
14.34455800056458,2,3,3,0,-9.74,0.52,2.31,-5.2,0.75,4.68
14.35455799102783,2,3,3,0,-9.779999999999999,0.42,2.11,-4.69,0.98,4.27
14.36455798149109,2,3,3,0,-10.06,0.33,1.76,-4.35,1.09,3.58
14.37455797195435,2,3,3,0,-10.29,0.29,1.93,-4.82,1.03,2.74
14.3845579624176,2,3,3,0,-10.38,0.29,2.07,-5.43,0.4,2.12
14.39455795288086,2,3,3,0,-10.37,0.21,2.19,-6.07,-0.29,1.7
14.40455794334412,2,3,3,0,-9.960000000000001,0.2,2.32,-6.55,-0.51,1.38
14.44455790519714,2,3,3,0,-10.95,-0.21,2.53,-6.03,4.2,-0.18
14.4545578956604,2,3,3,0,-11.05,-0.08,2.1,-4.94,5.17,-0.72
14.47455787658691,2,3,3,0,-11.54,0.1,1.6,-3.03,7.15,-0.83
14.48455786705017,2,3,3,0,-12.57,0.5,1.25,-2.55,7.55,-0.85
14.49455785751343,2,3,3,0,-12.83,0.4,0.68,-1.07,6.61,-1.34
14.50455784797668,2,3,3,0,-12.81,0.36,0.13,0.8100000000000001,5.38,-1.42
14.51455783843994,2,3,3,0,-12.86,0.93,-0.13,2.34,3.51,-0.78
14.52455806732178,2,3,3,0,-12.06,1.98,0.43,3.13,1.96,-0.46
14.53455805778503,2,3,3,0,-10.96,0.9399999999999999,0.76,3.8,1.86,-0.5
14.54455804824829,2,3,3,0,-10.32,2.68,1.17,6.59,5.31,1.47
14.55455803871155,2,3,3,0,-10.58,5.26,0.75,7.71,8.4,1.5
14.5645580291748,2,3,3,0,-9.890000000000001,5.91,0.75,6.16,5.92,0.85
14.57455801963806,2,3,3,0,-8.890000000000001,6.4,0.93,3.89,1.16,0.14
14.58455801010132,2,3,3,0,-7.91,7.06,0.84,2.09,-0.71,-1.3
14.59455800056458,2,3,3,0,-6.68,7.27,0.47,-0.64,-0.16,-3.16
14.60455799102783,2,3,3,0,-6.77,7.12,0.55,-4.36,1.2,-5.07
14.61455798149109,2,3,3,0,-6.7,5.99,0.53,-8.85,3.04,-6.57
14.62455797195435,2,3,3,0,-7.3,5.09,0.75,-11.94,4.1,-7.94
14.6345579624176,2,3,3,0,-8.470000000000001,2.71,1.41,-12.95,5.1,-9.17
14.64455795288086,2,3,3,0,-8.470000000000001,2.71,1.41,-12.67,5.77,-10.33
14.65455794334412,2,3,3,0,-9.279999999999999,1.19,2.06,-11.35,4.81,-11.02
14.66455793380737,2,3,3,0,-10.77,-0.49,3.56,-9.029999999999999,1.69,-10.98
14.67455792427063,2,3,3,0,-11.4,-1.02,3.09,-5.57,-2.36,-10.54
14.68455791473389,2,3,3,0,-11.39,-1.12,2.5,-1.82,-5.15,-9.5
14.69455790519714,2,3,3,0,-11.39,-1.12,2.5,0.57,-5.64,-7.88
14.7045578956604,2,3,3,0,-11.56,-0.62,2.01,1.25,-5.01,-6.72
14.71455788612366,2,3,3,0,-11.49,0.29,0.67,1,-5.41,-5.52
14.72455787658691,2,3,3,0,-10.82,0.35,0.58,1.28,-6.15,-4.18
14.73455786705017,2,3,3,0,-10.54,0.4,0.79,1.41,-6.21,-3.07
14.74455785751343,2,3,3,0,-10.54,0.4,0.79,1.41,-6.21,-3.07
14.75455784797668,2,3,3,0,-10.38,0.26,1.22,1.49,-6.95,-2.01
14.76455783843994,2,3,3,0,-9.01,0,2.18,1.76,-7.56,-0.79
14.77455806732178,2,3,3,0,-8.359999999999999,-0.14,2.11,3.16,-8.84,-0.78
14.78455805778503,2,3,3,0,-7.45,0.03,2.42,5.39,-9.93,-1.07
14.79455804824829,2,3,3,0,-7.45,0.03,2.42,7.34,-8.92,-1.62
14.80455803871155,2,3,3,0,-7.74,0.36,2.72,8.44,-8.369999999999999,-2.28
14.8145580291748,2,3,3,0,-8.02,0.96,2.85,8.890000000000001,-8.779999999999999,-2.91
14.82455801963806,2,3,3,0,-7.97,1.3,2.44,8.779999999999999,-9.539999999999999,-3.31
14.83455801010132,2,3,3,0,-7.7,1.49,1.83,8.77,-9.56,-3.38
14.84455800056458,2,3,3,0,-7.7,1.49,1.83,8.77,-9.56,-3.38
14.85455799102783,2,3,3,0,-7.84,1.87,1.82,8.77,-7.34,-3.17
14.86455798149109,2,3,3,0,-8.49,2.1,2.59,5.2,-2.94,-1.55
14.87455797195435,2,3,3,0,-8.49,2.1,2.59,4.05,-2.45,-1
14.8845579624176,2,3,3,0,-8.460000000000001,1.5,2.59,2.33,-3.2,-0.65
14.89455795288086,2,3,3,0,-8.15,1.07,2.67,2.33,-3.2,-0.65
14.90455794334412,2,3,3,0,-8.01,0.63,2.64,2.09,-2.97,-0.46
14.91455793380737,2,3,3,0,-7.75,-0.18,2.43,2.54,-1.09,-0.6899999999999999
14.92455792427063,2,3,3,0,-7.78,-0.41,2.37,2.85,-0.19,-0.99
14.93455791473389,2,3,3,0,-7.87,-0.7,2.42,3.01,0.35,-0.93
14.94455790519714,2,3,3,0,-7.99,-0.89,2.51,3.01,0.35,-0.93
14.9545578956604,2,3,3,0,-8.199999999999999,-1.07,2.61,3.06,0.58,-0.67
14.96455788612366,2,3,3,0,-8.279999999999999,-1.09,2.55,3.9,0.89,0.18
14.97455787658691,2,3,3,0,-8.33,-1.28,2.44,4.53,0.98,0.39
14.98455786705017,2,3,3,0,-8.470000000000001,-1.52,2.61,5.12,0.84,0.45
14.99455785751343,2,3,3,0,-8.51,-1.68,2.7,5.12,0.84,0.45
15.00455784797668,2,3,3,0,-8.699999999999999,-1.71,2.93,5.92,0.84,0.4
15.01455783843994,2,3,3,0,-8.880000000000001,-1.76,3.21,6.59,0.14,0.29
15.02455806732178,2,3,3,0,-9.029999999999999,-1.48,3.23,7.37,-0.27,0.1
15.03455805778503,2,3,3,0,-8.85,-1.28,3.12,8.52,-0.36,-0.15
15.04455804824829,2,3,3,0,-8.699999999999999,-1.05,2.89,8.52,-0.36,-0.15
15.05455803871155,2,3,3,0,-8.59,-0.72,2.72,9.710000000000001,0,-0.3
15.06555795669556,2,3,3,0,-8.9,0.2,2.92,11.6,0.16,-0.1
15.07555794715881,2,3,3,0,-9.06,0.92,2.95,13.07,-0.53,0.36
15.08555793762207,2,3,3,0,-9.199999999999999,1.72,2.83,14.7,-1.2,1.13
15.09555792808533,2,3,3,0,-9.220000000000001,2.28,2.23,14.7,-1.2,1.13
15.10555791854858,2,3,3,0,-10.33,2.29,1.74,15.42,-0.77,1.77
15.11555790901184,2,3,3,0,-11.3,2,2.49,8.33,0.92,1.07
15.1255578994751,2,3,3,0,-11.93,1.66,3.48,2.2,0.23,-0.02
15.13555788993835,2,3,3,0,-12.27,0.92,4.21,-0.9,-0.5,-1.73
15.14555788040161,2,3,3,0,-11.73,-0.37,4.71,-0.9,-0.5,-1.73
15.15555787086487,2,3,3,0,-11.46,-1.45,5.25,-1.94,-0.61,-3.42
15.19555807113647,2,3,3,0,-14.05,-0.9399999999999999,5.62,7.59,-5.64,-7.12
15.20555806159973,2,3,3,0,-15.82,-0.04,4.52,9.42,-6.48,-6.37
15.21555805206299,2,3,3,0,-17.24,2.99,1.34,9.470000000000001,-2.5,-1.17
15.22555804252625,2,3,3,0,-16.96,3.17,0.41,3.34,-0.74,1.25
15.2355580329895,2,3,3,0,-15.4,2.43,1.2,-4.83,-3.73,2.3
15.24555802345276,2,3,3,0,-12.76,1.97,3.09,-4.83,-3.73,2.3
15.25555801391602,2,3,3,0,-7.47,2.72,5.25,-8.9,-9.52,2.53
15.26555800437927,2,3,3,0,-5.86,2.15,4.8,-8.18,-7.02,1.71
15.27555799484253,2,3,3,0,-5.32,1.43,4.44,-6.91,-2.19,0.15
15.28555798530579,2,3,3,0,-5.22,0.34,4.04,-3.85,1.56,-1.22
15.29555797576904,2,3,3,0,-6.64,-0.52,3.41,-3.85,1.56,-1.22
15.3055579662323,2,3,3,0,-7.26,-0.31,2.38,0.55,3.05,-1.45
15.31555795669556,2,3,3,0,-7.82,0.24,1.18,4.65,4.38,-0.5600000000000001
15.32555794715881,2,3,3,0,-8.470000000000001,0.74,-0.17,5.5,6.37,1.35
15.33555793762207,2,3,3,0,-9.880000000000001,2.4,-1.02,4.8,7.82,3.64
15.34555792808533,2,3,3,0,-10.21,3.21,-0.45,4.23,6.7,5.72
15.35555791854858,2,3,3,0,-9.99,3.38,0.22,3.55,3.36,6.33
15.36555790901184,2,3,3,0,-9.65,3.64,0.85,3.65,0.26,5.93
15.3755578994751,2,3,3,0,-8.369999999999999,3.72,1.37,3.69,-1.13,4.55
15.38555788993835,2,3,3,0,-7.94,3.81,1.51,3.6,-1.72,3.08
15.39555788040161,2,3,3,0,-7.73,3.62,1.66,3.78,-1.57,1.96
15.40555787086487,2,3,3,0,-7.51,3.21,1.75,3.84,-0.75,1.17
15.41555786132812,2,3,3,0,-7.5,2.95,1.42,3.78,0.19,0.82
15.42555785179138,2,3,3,0,-7.54,2.97,1.28,3.66,1.32,0.65
15.43555784225464,2,3,3,0,-7.51,3.05,1.19,2.8,2.54,0.67
15.44555807113647,2,3,3,0,-7.78,3.29,1.14,1.7,3.36,0.89
15.45555806159973,2,3,3,0,-8.039999999999999,3.37,1.2,0.43,4.18,1.18
15.46555805206299,2,3,3,0,-8.33,3.41,1.12,-0.68,4.87,1.41
15.47555804252625,2,3,3,0,-8.51,3.44,0.9399999999999999,-1.76,5.19,1.74
15.4855580329895,2,3,3,0,-8.470000000000001,3.5,0.71,-2.96,5.69,2.15
15.49555802345276,2,3,3,0,-8.43,3.34,0.68,-4.39,6.1,2.89
15.50555801391602,2,3,3,0,-8.609999999999999,3.28,0.6,-5.6,6.49,3.64
15.51555800437927,2,3,3,0,-8.699999999999999,3.31,0.68,-6.44,6.9,4.13
15.52555799484253,2,3,3,0,-8.710000000000001,2.52,0.53,-7.56,6.98,4.25
15.53555798530579,2,3,3,0,-9.039999999999999,2.32,0.62,-7.99,6.73,4.11
15.54555797576904,2,3,3,0,-9.25,2.12,0.84,-8.720000000000001,6.12,3.47
15.5555579662323,2,3,3,0,-9.52,1.99,1,-9.279999999999999,4.94,2.78
15.56555795669556,2,3,3,0,-9.77,1.54,1.06,-9.23,4.12,2.15
15.57555794715881,2,3,3,0,-9.970000000000001,1.41,1.19,-8.800000000000001,3.95,1.72
15.58555793762207,2,3,3,0,-10.23,1.3,1.17,-8.27,3.63,1.5
15.59555792808533,2,3,3,0,-10.15,0.61,1.05,-7.52,3.16,1.22
15.60555791854858,2,3,3,0,-10.07,0.45,1.01,-7.28,2.72,1.2
15.61555790901184,2,3,3,0,-9.94,0.28,1.2,-7.55,2.74,1.45
15.6255578994751,2,3,3,0,-9.82,0,1.37,-8.25,2.75,1.81
15.63555788993835,2,3,3,0,-9.68,-0.27,2.05,-8.98,2.57,2.15
15.64555788040161,2,3,3,0,-9.6,-0.39,2.26,-9.039999999999999,2.22,2.32
15.65555787086487,2,3,3,0,-9.539999999999999,-0.43,2.35,-8.34,1.68,2.29
15.66555786132812,2,3,3,0,-9.35,-0.51,2.33,-7.08,1.37,2.29
15.67555785179138,2,3,3,0,-9.42,-0.51,2.07,-5.71,1.38,2.39
15.68555784225464,2,3,3,0,-9.6,-0.54,2.05,-4.63,1.61,2.58
15.69555807113647,2,3,3,0,-9.65,-0.41,1.98,-4.11,1.49,2.94
15.70555806159973,2,3,3,0,-9.710000000000001,-0.37,1.83,-3.6,0.8,3.36
15.71555805206299,2,3,3,0,-9.73,-0.21,1.58,-3.12,0.18,3.83
15.72555804252625,2,3,3,0,-9.84,-0.13,1.43,-2.75,-0.24,4.2
15.7355580329895,2,3,3,0,-9.9,-0.09,1.38,-2.87,-0.7,4.32
15.74555802345276,2,3,3,0,-9.9,-0.13,1.28,-3.37,-1.32,4.32
15.75555801391602,2,3,3,0,-9.59,-0.05,1.53,-4.16,-1.93,4.23
15.76555800437927,2,3,3,0,-9.359999999999999,0.03,1.72,-5.15,-2.6,4.17
15.77555799484253,2,3,3,0,-9.199999999999999,0.21,1.71,-5.93,-3.12,4.12
15.78555798530579,2,3,3,0,-8.99,0.34,1.73,-6.29,-3.27,3.95
15.79555797576904,2,3,3,0,-8.470000000000001,0.43,2.18,-6.24,-2.98,3.8
15.81555795669556,2,3,3,0,-8.26,0.04,2.07,-3.91,-0.46,3.58
15.82555794715881,2,3,3,0,-9.109999999999999,-0.64,0.96,-1.57,1.26,2.92
15.83555793762207,2,3,3,0,-9.94,-0.68,1.12,-0.47,2.75,1.91
15.84555792808533,2,3,3,0,-10.64,-0.48,1.82,-1.61,3.29,1.08
15.85555791854858,2,3,3,0,-11.12,-0.07000000000000001,2.53,-6.12,0.98,0.98
15.86555790901184,2,3,3,0,-11.8,0.6,3.03,-6.12,0.98,0.98
15.8755578994751,2,3,3,0,-11.75,0.78,3.52,-6.11,-0.73,0.92
15.88555788993835,2,3,3,0,-11.52,0.93,3.87,-5.39,-1.14,0.3
15.89555788040161,2,3,3,0,-11.18,0.84,3.48,-3.93,0.41,-0.57
15.90555787086487,2,3,3,0,-11.44,0.31,2.14,-0.45,7.62,-2.27
15.91555786132812,2,3,3,0,-12.17,-0.25,1.79,-0.45,7.62,-2.27
15.92555785179138,2,3,3,0,-13.22,-0.16,1.52,0.04,12.46,-1.18
15.93555784225464,2,3,3,0,-13.85,0.04,0.79,0.91,11.33,0.04
15.94555807113647,2,3,3,0,-13.85,1.61,-0.41,1.42,9.58,1.38
15.95555806159973,2,3,3,0,-13.88,2.44,-0.41,1.48,7.13,2.27
15.96555805206299,2,3,3,0,-13.19,3.42,-0.06,1.39,4.55,1.96
15.97555804252625,2,3,3,0,-12.01,3.88,0.24,2.03,3.39,1.86
15.9855580329895,2,3,3,0,-9.66,6.5,0.31,2.4,2.74,1.17
15.99555802345276,2,3,3,0,-8.609999999999999,7.14,-0.16,1.61,2.35,-0.21
16.00555801391602,2,3,3,0,-7.88,7.25,-0.37,-1.05,3.31,-2.22
16.01555800437927,2,3,3,0,-7.87,7.05,0.43,-4.99,4.93,-4.97
16.02555799484253,2,3,3,0,-8.51,6.77,1.02,-9.619999999999999,4.98,-7.96
16.03555798530579,2,3,3,0,-9.210000000000001,6.09,1.74,-13.48,3.77,-10.31
16.04555797576904,2,3,3,0,-10.12,5.23,2.37,-15.54,2.42,-12
16.0555579662323,2,3,3,1,-10.48,2.45,2.64,-15.69,1.45,-13.19
16.06555795669556,2,3,3,1,-10.28,0.8100000000000001,2.4,-14.13,1.31,-13.61
16.07555794715881,2,3,3,1,-10.13,-0.92,2.39,-11.81,1.63,-13.15
16.08555793762207,2,3,3,1,-10.29,-1.86,2.77,-8.81,1.42,-12.09
16.09655785560608,2,3,3,1,-10.36,-2.65,2.8,-4.92,0.14,-10.38
16.10655784606934,2,3,3,1,-10.34,-2.53,2.64,-1.26,-1.78,-8.199999999999999
16.11655807495117,2,3,3,1,-10.49,-1.42,2.29,1.59,-3.79,-6.6
16.12655806541443,2,3,3,1,-10.49,-0.98,1.7,3.46,-6.05,-5.39
16.13655805587769,2,3,3,1,-9.539999999999999,0.17,1.22,5.23,-7.65,-4.66
16.14655804634094,2,3,3,1,-9.550000000000001,0.41,1.31,6.39,-8.289999999999999,-4.26
16.1565580368042,2,3,3,2,-9.34,0.73,1.44,7.39,-9.02,-3.71
16.16655802726746,2,3,3,2,-8.73,0.93,1.41,7.85,-11.06,-2.9
16.17655801773071,2,3,3,2,-7.74,1.28,1.24,7.12,-9.85,-2.19
16.18655800819397,2,3,3,2,-7.34,1.41,1.4,6.85,-7.8,-1.81
16.19655799865723,2,3,3,2,-6.9,1.05,1.53,5.98,-7.81,-1.76
16.20655798912048,2,3,3,2,-6.56,0.48,2.22,5.17,-7.8,-2.1
16.21655797958374,2,3,3,2,-6.73,0.23,2.41,4.88,-7.41,-3.04
16.226557970047,2,3,3,2,-6.87,0.07000000000000001,2.37,5.48,-7.11,-4.12
16.23655796051025,2,3,3,2,-7.17,0.04,2.4,6.38,-6.24,-4.82
16.24655795097351,2,3,3,2,-7.76,0.26,2.6,7.08,-5.13,-4.99
16.25655794143677,2,3,3,2,-8.199999999999999,0.22,2.64,7.31,-4.06,-4.82
16.26655793190002,2,3,3,2,-8.289999999999999,0.5,2.51,7.15,-3.33,-4.28
16.27655792236328,2,3,3,2,-8.470000000000001,0.63,2.19,6.8,-2.91,-3.63
16.28655791282654,2,3,3,2,-8.800000000000001,0.8100000000000001,2.44,6.37,-2.12,-2.57
16.29655790328979,2,3,3,2,-9.15,0.67,2.76,5.5,-1.83,-1.69
16.30655789375305,2,3,3,2,-9.18,0.21,2.72,4.85,-2.76,-0.9
16.31655788421631,2,3,3,2,-8.84,-0.08,2.43,5.52,-3.68,0.28
16.32655787467957,2,3,3,2,-8.359999999999999,-0.71,2.31,5.96,-3,0.96
16.33655786514282,2,3,3,2,-8.4,-0.91,2.82,5.63,-2.07,1.29
16.36655807495117,2,3,3,2,-6.97,-1.86,2.14,5.13,-1.83,1.67
16.37655806541443,2,3,3,2,-6.91,-1.94,2.43,4.06,-0.11,1.41
16.38655805587769,2,3,3,2,-7.08,-1.86,3.05,2.57,0.97,0.91
16.39655804634094,2,3,3,2,-7.23,-1.96,3.3,2.67,0.58,0.22
16.4065580368042,2,3,3,2,-7.5,-1.8,3.39,4.67,-0.08,-0.61
16.41655802726746,2,3,3,2,-8.07,-1.72,3.56,6.56,-0.48,-1.43
16.42655801773071,2,3,3,2,-8.609999999999999,-1.78,3.1,8.25,-1.02,-2.2
16.43655800819397,2,3,3,2,-9.43,-1.37,2.39,9.83,-0.78,-2.65
16.44655799865723,2,3,3,2,-9.869999999999999,-0.75,2.43,10.64,-0.07000000000000001,-2.54
16.45655798912048,2,3,3,2,-10.22,0.05,2.43,11.5,0.21,-1.72
16.46655797958374,2,3,3,2,-10.66,0.82,2.22,12.77,0.17,-0.5
16.476557970047,2,3,3,2,-11.69,1.03,1.76,13.21,0.42,0.49
16.48655796051025,2,3,3,2,-12.19,0.19,2.28,11.24,0.9,0.68
16.49655795097351,2,3,3,2,-12.61,-0.78,3.24,7.18,1.31,-0.1
16.50655794143677,2,3,3,2,-12.68,-1.72,4.23,3.33,0.53,-1.43
16.51655793190002,2,3,3,2,-11.53,-3.04,5.28,1.82,-1.04,-3.14
16.52655792236328,2,3,3,2,-10.6,-2.89,5.95,2.75,-1.9,-4.92
16.53655791282654,2,3,3,2,-10.51,-2.89,6.41,5.13,-3.28,-7.19
16.54655790328979,2,3,3,2,-11.07,-2.27,6.94,10.73,-5.25,-8.619999999999999
16.55655789375305,2,3,3,2,-13.66,-0.87,5.48,14.92,-7,-8.83
16.56655788421631,2,3,3,2,-15.2,-0.3,5.13,14.31,-6.8,-8.01
16.57655787467957,2,3,3,2,-16.15,1.27,4.33,12.78,-5.26,-5.54
16.58655786514282,2,3,3,2,-16.71,3.27,2.6,11.93,-2.36,-1.25
16.59655785560608,2,3,3,2,-16.13,5.01,0.28,7.31,0.12,3.15
16.60655784606934,2,3,3,2,-14.34,5,2.06,0.53,-0.4,6.19
16.66655802726746,2,3,3,2,-7.81,0.25,0.86,1.38,6.55,-0.5600000000000001
16.67655801773071,2,3,3,2,-8.26,0.68,0.59,3.1,7.71,0.3
16.68655800819397,2,3,3,2,-8.640000000000001,1.23,0.34,3.14,6.64,2.18
16.69655799865723,2,3,3,2,-8.75,1.67,-0.15,2.8,4.39,4.09
16.70655798912048,2,3,3,1,-8.75,1.67,-0.15,3.06,2.04,5.41
16.71655797958374,2,3,3,1,-8.220000000000001,2.95,1.17,3.29,-0.13,6.04
16.726557970047,2,3,3,1,-7.81,3.18,1.69,3.37,-1.31,6.31
16.73655796051025,2,3,3,1,-7.63,3.53,1.91,3.26,-1.34,6.38
16.74655795097351,2,3,3,1,-7.33,3.32,1.5,2.76,-0.75,5.67
16.75655794143677,2,3,3,1,-7.33,3.32,1.5,2.04,0.74,4.97
16.76655793190002,2,3,3,1,-7.31,2.98,1.66,1.28,2.55,4.26
16.77655792236328,2,3,3,1,-7.41,2.83,1.39,0.47,2.78,3.44
16.78655791282654,2,3,3,1,-7.23,3.03,0.9399999999999999,-0.05,2.1,2.93
16.79655790328979,2,3,3,1,-7.11,3.01,0.79,-1.3,1.66,2.45
16.80655789375305,2,3,3,1,-7.11,3.01,0.79,-3.17,1.69,2.42
16.81655788421631,2,3,3,1,-7.19,3.35,0.88,-5.38,2.12,2.06
16.82655787467957,2,3,3,1,-7.53,2.96,0.89,-7.36,2.44,1.47
16.83655786514282,2,3,3,1,-7.79,2.47,1.17,-8.84,2.94,1.02
16.84655785560608,2,3,3,1,-8.16,2.35,1.29,-9.130000000000001,3.34,0.83
16.85655784606934,2,3,3,1,-8.16,2.35,1.29,-8.99,3.96,0.33
16.86655807495117,2,3,3,1,-8.67,1.99,0.99,-9.029999999999999,4.41,0.09
16.87655806541443,2,3,3,1,-9.550000000000001,1.85,1.1,-9.56,4.74,-0.05
16.88655805587769,2,3,3,1,-9.82,1.5,1.03,-10.06,4.11,-0.29
16.89655804634094,2,3,3,1,-9.619999999999999,0.91,0.88,-10.15,3.1,-0.6
16.9065580368042,2,3,3,1,-9.619999999999999,0.91,0.88,-10.79,2.56,-0.62
16.91655802726746,2,3,3,1,-9.58,0.54,1.1,-11.27,2.09,-0.44
16.92655801773071,2,3,3,1,-9.630000000000001,-0.22,1.38,-11.09,1.44,-0.16
16.93655800819397,2,3,3,1,-9.720000000000001,-0.91,2,-10.37,1,0.06
16.94655799865723,2,3,3,1,-9.52,-1.14,1.89,-9.34,0.61,0.51
16.95655798912048,2,3,3,1,-9.52,-1.14,1.89,-9.34,0.61,0.51
16.96655797958374,2,3,3,1,-9.5,-1.22,2.1,-7.81,0.8100000000000001,1.1
16.976557970047,2,3,3,1,-9.34,-1.16,2.09,-5.46,1.88,2.43
16.98655796051025,2,3,3,1,-9.34,-1.16,2.09,-4.52,2.37,3.04
16.99655795097351,2,3,3,1,-9.289999999999999,-0.9399999999999999,2.18,-3.94,2.5,3.8
17.00655794143677,2,3,3,1,-9.119999999999999,-0.77,2.15,-3.94,2.5,3.8
17.01655793190002,2,3,3,1,-8.98,-0.43,2.02,-3.36,2.34,4.54
17.02655792236328,2,3,3,1,-8.9,-0.03,1.96,-2.65,1.9,5.7
17.03655791282654,2,3,3,1,-8.859999999999999,0.18,1.86,-2.44,1.49,6.08
17.04655790328979,2,3,3,1,-8.98,0.25,1.89,-2.46,1,6.23
17.05655789375305,2,3,3,1,-9.31,0.21,1.88,-2.46,1,6.23
17.06655788421631,2,3,3,1,-9.4,0.13,1.85,-2.59,0.48,6.18
17.07655787467957,2,3,3,1,-9.6,0.07000000000000001,1.87,-3.19,-0.59,5.88
17.08655786514282,2,3,3,1,-9.74,0.05,1.83,-3.72,-0.99,5.75
17.09655785560608,2,3,3,1,-9.609999999999999,0.06,1.89,-3.94,-1.22,5.66
17.10655784606934,2,3,3,1,-9.460000000000001,0.18,1.85,-3.94,-1.22,5.66
17.11755800247192,2,3,3,1,-9.369999999999999,0.33,1.78,-3.98,-1.29,5.51
17.12755799293518,2,3,3,1,-9.369999999999999,0.52,1.4,-3.75,-1.34,5.24
17.13755798339844,2,3,3,1,-9.31,0.8,0.93,-3.92,-0.71,5.3
17.14755797386169,2,3,3,1,-9.16,1,1.99,-2.91,0.27,5.31
17.15755796432495,2,3,3,1,-8.970000000000001,0.97,2.34,-2.91,0.27,5.31
17.16755795478821,2,3,3,1,-8.93,0.6899999999999999,1.61,-0.21,1.83,4.72
17.17755794525146,2,3,3,1,-9.789999999999999,0.2,0.44,-0.99,3.03,2.2
17.18755793571472,2,3,3,1,-10.52,0.15,1.17,-5.17,2.06,1.3
17.19755792617798,2,3,3,1,-11.16,-0.1,1.95,-8.09,0.35,0.9
17.20755791664124,2,3,3,1,-11.51,0.36,2.67,-8.09,0.35,0.9
17.21755790710449,2,3,3,1,-11.47,0.64,4.18,-10.06,-1.16,0.87
17.22755789756775,2,3,3,1,-11.21,0.49,4.74,-8.73,-0.07000000000000001,-0.08
17.23755788803101,2,3,3,1,-11.03,0.34,4.65,-5.61,3.1,-1.22
17.24755787849426,2,3,3,1,-11.41,-0.61,2.94,-2.45,7.79,-2.64
17.25755786895752,2,3,3,1,-11.56,-1.76,2.05,-2.45,7.79,-2.64
17.26755785942078,2,3,3,2,-12.39,-1.79,1.96,-0.45,12.29,-2.66
17.27755784988403,2,3,3,2,-13.53,-1.27,1.79,0.41,15.89,-0.02
17.28755784034729,2,3,3,2,-15.29,0.5,0.24,1.32,13.85,1.47
17.29755806922913,2,3,3,2,-15.59,0.93,-0.12,2.4,10.72,2.54
17.30755805969238,2,3,3,2,-15.21,2.14,-0.27,2.4,10.72,2.54
17.31755805015564,2,3,3,2,-14.24,2.91,-0.39,3.49,6.66,2.54
17.3275580406189,2,3,3,2,-11.06,4.59,0.12,4,1.57,1.76
17.33755803108215,2,3,3,2,-9.5,5.78,0.12,3.93,2.63,1.34
17.34755802154541,2,3,3,2,-8.539999999999999,6.43,0.16,2.66,4.3,0.42
17.35755801200867,2,3,3,2,-7.75,6.87,0.46,2.66,4.3,0.42
17.36755800247192,2,3,3,2,-6.61,6.26,0.88,0.35,4.65,-1.43
17.37755799293518,2,3,3,2,-7.08,5.95,1.61,-5.33,5.02,-6.97
17.38755798339844,2,3,3,2,-8.24,5.21,2.38,-8.02,4.31,-9.210000000000001
17.39755797386169,2,3,3,2,-9.19,4.26,2.97,-8.6,2.89,-11
17.40755796432495,2,3,3,2,-10.31,2.2,2.56,-8.6,2.89,-11
17.41755795478821,2,3,3,2,-10.42,1.12,2.27,-7.47,1.66,-12.32
17.42755794525146,2,3,3,2,-10.35,0.03,2.29,-6.17,0.6899999999999999,-12.92
17.43755793571472,2,3,3,2,-10.07,-0.84,2.29,-4.88,-0.71,-12.76
17.44755792617798,2,3,3,2,-9.65,-1.95,2.29,-2.61,-1.73,-11.89
17.45755791664124,2,3,3,2,-9.9,-1.28,2.27,0.46,-2.17,-9.93
17.46755790710449,2,3,3,2,-10.33,-0.98,1.92,3.59,-2.79,-8
17.47755789756775,2,3,3,2,-10.4,0.38,1.2,5.9,-4.32,-6.34
17.48755788803101,2,3,3,2,-10.04,1.02,0.83,7.58,-5.84,-5.19
17.49755787849426,2,3,3,2,-9.699999999999999,1.33,0.8,8.25,-7.45,-4.18
17.50755786895752,2,3,3,2,-9.279999999999999,1.59,0.98,8.32,-8.09,-3.29
17.51755785942078,2,3,3,2,-8.720000000000001,1.9,1.52,7.75,-8.34,-2.86
17.52755784988403,2,3,3,2,-8.41,2,1.72,6.89,-8.9,-2.52
17.53755784034729,2,3,3,2,-7.81,2.08,1.8,6.61,-9.25,-2.1
17.54755806922913,2,3,3,2,-7.4,1.94,1.93,6.18,-9.25,-1.95
17.55755805969238,2,3,3,2,-7.68,1.08,2.43,5.36,-8.300000000000001,-2.12
17.56755805015564,2,3,3,2,-7.68,0.82,2.48,4.67,-7.71,-2.54
17.5775580406189,2,3,3,2,-7.45,0.67,2.27,4.96,-8.119999999999999,-2.76
17.58755803108215,2,3,3,2,-7.6,0.77,2.18,5.89,-7.16,-2.97
17.59755802154541,2,3,3,2,-8.24,0.85,2.22,6.21,-5.17,-2.86
17.60755801200867,2,3,3,2,-8.42,0.89,2.36,5.74,-3.86,-2.62
17.61755800247192,2,3,3,2,-8.76,0.84,2.63,4.92,-3.21,-2.43
17.62755799293518,2,3,3,2,-8.81,0.85,2.54,3.9,-3.61,-2.07
17.63755798339844,2,3,3,2,-7.99,1.22,1.92,4.27,-4.06,-1.14
17.64755797386169,2,3,3,2,-7.81,0.86,2.11,4.77,-3.78,-0.71
17.65755796432495,2,3,3,2,-7.9,0.73,2.45,4.64,-3.01,-0.18
17.66755795478821,2,3,3,2,-8.08,0.27,2.57,4.72,-2.35,-0.04
17.67755794525146,2,3,3,2,-8,-0.14,2.45,4.67,-2.51,-0.15
17.68755793571472,2,3,3,2,-7.94,-0.47,2.21,5.01,-2.54,-0.3
17.69755792617798,2,3,3,2,-7.8,-0.75,2.08,5.35,-2.03,-0.51
17.70755791664124,2,3,3,2,-7.71,-0.83,2.45,5.69,-1.04,-0.5600000000000001
17.71755790710449,2,3,3,2,-7.69,-0.8100000000000001,2.7,4.96,-0.05,-0.62
17.72755789756775,2,3,3,2,-7.79,-0.85,2.93,4.16,0.53,-0.55
17.73755788803101,2,3,3,2,-7.98,-0.84,2.91,3.81,0.48,-0.53
17.74755787849426,2,3,3,2,-8.07,-1.25,2.82,3.6,-0.06,-0.57
17.75755786895752,2,3,3,2,-8.119999999999999,-1.59,2.9,3.4,-0.31,-0.83
17.76755785942078,2,3,3,3,-8.369999999999999,-1.76,3.33,3.16,-0.12,-1.1
17.77755784988403,2,3,3,3,-8.609999999999999,-1.97,3.7,3.03,-0.17,-1.32
17.78755784034729,2,3,3,3,-8.880000000000001,-1.99,3.34,3.66,-0.87,-1.13
17.79755806922913,2,3,3,3,-8.960000000000001,-1.87,2.97,5.72,-1.5,-1.08
17.80755805969238,2,3,3,3,-9.16,-1.42,2.76,8.390000000000001,-1.22,-1.03
17.81755805015564,2,3,3,3,-9.460000000000001,-0.79,2.81,10.6,-0.36,-0.8
17.8275580406189,2,3,3,3,-9.800000000000001,0.8,2.6,12.14,0.09,-0.1
17.83755803108215,2,3,3,3,-10.1,1.5,2.08,13.62,0.02,1
17.84755802154541,2,3,3,3,-10.37,1.64,1.87,14.15,0.44,1.81
17.85755801200867,2,3,3,3,-11.42,0.75,2.96,12.45,1.09,2.02
17.86755800247192,2,3,3,3,-11.98,0.02,3.9,8.699999999999999,1.13,1.4
17.87755799293518,2,3,3,3,-11.92,-0.85,4.32,3.66,0.41,-0.04
17.88755798339844,2,3,3,3,-11.6,-1.56,4.78,0.12,-0.6899999999999999,-2.1
17.89755797386169,2,3,3,3,-10.71,-2.81,6.25,-1.52,-1.44,-4.27
17.90755796432495,2,3,3,3,-10.2,-2.66,6.47,-0.92,-2.02,-5.72
17.91755795478821,2,3,3,3,-10.05,-2.73,6.28,1.62,-4.35,-7.74
17.92755794525146,2,3,3,3,-10.24,-2.13,5.51,6.42,-6.55,-8.77
17.93755793571472,2,3,3,3,-13.55,-1.25,5.52,12.34,-6.17,-8.33
17.94755792617798,2,3,3,3,-15.72,-0.41,5.81,13.45,-3.83,-7.25
17.95755791664124,2,3,3,3,-16.92,1.43,3.74,12.37,-3.46,-5.01
17.96755790710449,2,3,3,3,-17.78,3.84,1.38,12.43,-3.93,-1.43
17.97755789756775,2,3,3,3,-17.48,5.08,-0.03,9.800000000000001,-2.37,2.32
17.98755788803101,2,3,3,3,-14.6,5.16,1.43,3.8,-1.33,5.76
17.99755787849426,2,3,3,3,-11.91,5.5,2.63,-2.91,-3.5,8.33
18.00755786895752,2,3,3,3,-9.539999999999999,5.07,3.09,-7.81,-6.97,9.32
18.01755785942078,2,3,3,3,-5.99,2.93,4.28,-9.69,-7.7,7.71
18.02755784988403,2,3,3,3,-5.36,2.09,4.11,-9.07,-5.92,4.64
18.03755784034729,2,3,3,3,-5.5,1.38,3.5,-6.68,-2.81,1.82
18.04755806922913,2,3,3,3,-5.86,0.52,2.49,-3.61,0.43,-0.43
18.05755805969238,2,3,3,3,-7.18,0.22,0.71,-0.17,3.41,-1.7
18.06755805015564,2,3,3,3,-8.109999999999999,0.79,0,2.17,5.65,-1.23
18.07855796813965,2,3,3,3,-8.859999999999999,1.46,-0.65,2.62,6.65,0.64
18.08755803108215,2,3,3,3,-9.92,2.82,-0.48,2.02,6.02,3.04
18.09755802154541,2,3,3,3,-9.960000000000001,3.34,0.28,1.34,3.83,4.8
18.10755801200867,2,3,3,3,-9.57,3.4,0.87,0.73,1.01,5.41
18.11755800247192,2,3,3,3,-9.01,3.46,1.47,0.53,-0.74,3.91
18.12755799293518,2,3,3,3,-8.07,3.15,1.49,0.53,-0.74,3.91
18.13755798339844,2,3,3,3,-7.68,2.5,1.47,0.53,-0.4,2.79
18.14855790138245,2,3,3,3,-7.45,2.41,1.67,0.5,0.98,2.3
18.16855788230896,2,3,3,3,-6.84,2.32,1.24,0.17,1.12,2.85
18.17855787277222,2,3,3,3,-6.65,2.55,1.26,-0.65,1.84,3.32
18.18855786323547,2,3,3,3,-6.75,2.82,1.27,-1.79,2.8,3.66
18.19855785369873,2,3,3,3,-7.16,2.97,1.29,-2.79,3.64,3.63
18.20855784416199,2,3,3,3,-8.27,2.98,1.23,-3.54,4.7,3.02
18.21855807304382,2,3,3,3,-8.76,2.71,1.28,-4.65,5.44,2.33
18.22855806350708,2,3,3,3,-9.26,2.75,1.32,-5.69,5.53,1.59
18.23855805397034,2,3,3,3,-9.34,2.52,1.01,-6.61,5.24,1.43
18.24855804443359,2,3,3,3,-9.289999999999999,2.35,0.98,-7.39,5.48,1.64
18.25855803489685,2,3,3,3,-9.49,1.99,1.01,-8.1,5.16,1.74
18.26855802536011,2,3,3,3,-9.449999999999999,1.68,1.3,-8.67,4.38,1.6
18.27855801582336,2,3,3,3,-9.69,0.92,1.35,-8.98,4.59,1.17
18.28855800628662,2,3,3,3,-9.65,0.74,1.28,-9.050000000000001,4.02,0.71
18.29855799674988,2,3,3,3,-9.48,0.32,1.35,-8.99,3.34,0.4
18.30855798721313,2,3,3,3,-9.539999999999999,0.14,1.46,-8.529999999999999,2.81,0.39
18.31855797767639,2,3,3,3,-9.710000000000001,-0.09,1.77,-8.01,2.54,0.48
18.32855796813965,2,3,3,3,-9.66,-0.41,1.82,-7.24,2.21,0.65
18.33855795860291,2,3,3,3,-9.58,-0.6,1.87,-6.43,2.11,0.89
18.34855794906616,2,3,3,3,-9.369999999999999,-0.65,1.91,-5.57,2.1,1.38
18.35855793952942,2,3,3,3,-9.42,-0.71,2.28,-4.84,2.21,2.04
18.36855792999268,2,3,3,3,-9.43,-0.64,2.1,-3.72,2.32,2.69
18.37855792045593,2,3,3,3,-9.41,-0.43,2.18,-2.83,2.5,3.42
18.38855791091919,2,3,3,3,-9.470000000000001,-0.24,2.18,-2.12,2.32,4.13
18.39855790138245,2,3,3,3,-9.33,0.23,2.05,-1.42,1.87,4.73
18.4085578918457,2,3,3,3,-9.289999999999999,0.63,1.94,-0.84,1.57,5.13
18.41855788230896,2,3,3,3,-9.210000000000001,0.86,1.8,-0.74,1.27,5.37
18.42855787277222,2,3,3,3,-9.09,0.91,1.62,-1.01,0.8,5.46
18.43855786323547,2,3,3,3,-9.279999999999999,0.85,1.71,-1.64,0.24,5.34
18.44855785369873,2,3,3,3,-9.4,0.84,1.7,-2.08,-0.54,5.01
18.48855805397034,2,3,3,3,-9.31,0.22,2.08,-4.46,-2.37,3.22
18.51855802536011,2,3,3,3,-9.300000000000001,0.76,1.4,-3.75,-1.65,3.21
18.52855801582336,2,3,3,3,-9.140000000000001,0.97,1.21,-3.8,-1.05,3.74
18.53855800628662,2,3,3,3,-8.960000000000001,1.11,1.56,-3.78,-0.03,4.25
18.54855799674988,2,3,3,3,-8.880000000000001,0.75,1.71,-2.75,1.21,4.19
18.55855798721313,2,3,3,3,-9.08,0.39,1.32,-1.88,2.15,3.53
18.56855797767639,2,3,3,3,-9.630000000000001,-0.06,1.01,-2.52,2.75,2.37
18.57855796813965,2,3,3,3,-10.16,-0.1,1.3,-4.66,2.59,1.5
18.58855795860291,2,3,3,3,-11.08,-0.04,2.45,-7.39,1.64,1.2
18.59855794906616,2,3,3,3,-11.19,0.03,3,-9.19,-0.14,1.21
18.60855793952942,2,3,3,3,-10.73,-0.13,3.29,-9.51,-1.61,1.19
18.61855792999268,2,3,3,3,-10.09,0,3.65,-9.32,-0.78,1.04
18.62855792045593,2,3,3,3,-10.1,-0.64,3.73,-9.08,1.95,0.7
18.63855791091919,2,3,3,3,-10.55,-1.17,3.29,-7.26,4.79,0.12
18.64855790138245,2,3,3,3,-11.01,-1.62,2.93,-4.67,7.58,-0.33
18.6585578918457,2,3,3,3,-11.55,-1.32,1.85,-2.35,9.91,0.08
18.66855788230896,2,3,3,3,-12.08,-0.79,1.57,-1.03,11.91,1.32
18.67855787277222,2,3,3,3,-13.08,-0.08,1.63,-1.08,12.72,2.61
18.68855786323547,2,3,3,3,-13.79,0.48,1.16,-0.6899999999999999,11.07,3.14
18.69855785369873,2,3,3,3,-13.21,1.84,-0.31,0.96,7.94,1.92
18.70855784416199,2,3,3,3,-12.43,1.86,-0.2,2.08,5.5,1.48
18.71855807304382,2,3,3,3,-12.01,3.05,0.21,4.22,4.94,1.18
18.72855806350708,2,3,3,3,-11.62,3.26,0.25,5.23,4.34,0.07000000000000001
18.73855805397034,2,3,3,3,-10.46,5.74,-0.07000000000000001,6.46,3.93,-0.32
18.74855804443359,2,3,3,3,-10.09,6.29,-0.3,5.88,4.71,-0.74
18.75855803489685,2,3,3,3,-9.77,7.06,-0.38,3.99,5.61,-1.3
18.76855802536011,2,3,3,3,-9.210000000000001,7.27,-0.34,1.22,4.65,-2.68
18.77855801582336,2,3,3,3,-7.4,6.92,0.04,-2.54,2.92,-4.35
18.78855800628662,2,3,3,3,-6.94,6.55,0.36,-6.61,2.26,-5.88
18.79855799674988,2,3,3,3,-7.16,6.13,1.05,-11.22,2.75,-7.29
18.80855798721313,2,3,3,3,-8.15,5.76,2.09,-15.57,3.36,-8.789999999999999
18.81855797767639,2,3,3,3,-9.470000000000001,4.01,3.25,-17.93,3.14,-10.35
18.82855796813965,2,3,3,3,-9.91,2.78,2.79,-17.51,2.57,-11.96
18.83855795860291,2,3,3,3,-10.44,1.31,2.29,-14.62,2.6,-13.31
18.84855794906616,2,3,3,3,-10.79,-0.08,2.47,-11.3,2.21,-14.15
18.85855793952942,2,3,3,3,-11.35,-2.27,3.13,-8.42,0.8,-13.82
18.86855792999268,2,3,3,3,-11.35,-2.27,3.13,-4.56,-1.34,-11.95
18.87855792045593,2,3,3,3,-11.47,-2.74,3.14,-0.8100000000000001,-3.01,-8.550000000000001
18.88855791091919,2,3,3,3,-11.87,-0.51,1.88,1.56,-4.16,-5.9
18.89855790138245,2,3,3,3,-11.39,0.14,1.34,2.56,-6.52,-3.95
18.9085578918457,2,3,3,3,-10.61,0.64,0.74,3.62,-8.5,-2.71
18.91855788230896,2,3,3,3,-10.61,0.64,0.74,4.71,-8.68,-2.14
18.92855787277222,2,3,3,3,-9.99,0.96,0.57,4.85,-8.31,-1.97
18.93855786323547,2,3,3,3,-8.890000000000001,1.36,1.87,4.02,-9.02,-2.17
18.94855785369873,2,3,3,3,-8.82,1.01,2.08,3.11,-8.890000000000001,-2.52
18.95855784416199,2,3,3,3,-8.470000000000001,0.88,2.19,3.34,-9.359999999999999,-2.82
18.96855807304382,2,3,3,3,-8.470000000000001,0.88,2.19,3.34,-9.359999999999999,-2.82
18.97855806350708,2,3,3,3,-7.58,0.29,2.18,3.73,-9.57,-3.19
18.98855805397034,2,3,3,3,-7.09,0.09,2.14,4.99,-7.81,-4.08
18.99855804443359,2,3,3,3,-7.15,-0.07000000000000001,2.2,5.19,-6.84,-4.41
19.00855803489685,2,3,3,3,-7.46,0.06,2.41,5.21,-6.06,-4.43
19.01855802536011,2,3,3,3,-7.46,0.06,2.41,5.21,-6.06,-4.43
19.02855801582336,2,3,3,3,-7.55,0.18,2.38,5.06,-5.55,-3.97
19.03855800628662,2,3,3,3,-7.67,0.3,2.23,4.78,-3.96,-2.65
19.04855799674988,2,3,3,3,-7.77,0.29,2.23,4.28,-3.42,-2.31
19.05855798721313,2,3,3,3,-7.68,0.22,2.08,4.19,-3.01,-1.71
19.06855797767639,2,3,3,3,-7.68,0.22,2.08,4.61,-2.36,-1.01
19.07855796813965,2,3,3,3,-7.66,0.05,2.06,4.61,-2.36,-1.01
19.08855795860291,2,3,3,3,-8,-0.19,2.33,4.78,-1.12,-0.06
19.09855794906616,2,3,3,3,-8,-0.19,2.33,4.81,-0.95,0.16
19.10855793952942,2,3,3,3,-8.09,-0.31,2.23,4.92,-0.63,0.28
19.11855792999268,2,3,3,3,-8.07,-0.4,2.2,4.92,-0.63,0.28
19.12855792045593,2,3,3,3,-8.23,-0.67,2.41,4.55,0.15,0.24
19.13855791091919,2,3,3,3,-8,-0.84,2.44,3.2,1.28,0.21
19.14855790138245,2,3,3,3,-7.91,-1.01,2.59,2.53,1.74,0.14
19.1585578918457,2,3,3,3,-7.99,-1.25,2.78,2.53,1.83,0.02
19.16955804824829,2,3,3,3,-8.15,-1.79,3.14,2.53,1.83,0.02
19.17955803871155,2,3,3,3,-8.35,-1.96,3.2,3.48,1.69,-0.11
19.1895580291748,2,3,3,3,-8.6,-2.06,3.26,6.78,1.51,-0.44
19.19955801963806,2,3,3,3,-8.960000000000001,-2.19,3.14,7.91,1.33,-0.48
19.20955801010132,2,3,3,3,-9.51,-2.17,2.71,8.43,1.27,-0.37
19.21955800056458,2,3,3,3,-9.56,-1.99,2.58,8.43,1.27,-0.37
19.22955799102783,2,3,3,3,-9.550000000000001,-1.61,2.66,8.34,1.43,-0.23
19.23955798149109,2,3,3,3,-9.539999999999999,-1.06,2.75,9.390000000000001,1.45,-0.49
19.24955797195435,2,3,3,3,-9.49,-0.27,2.82,10.87,1.16,-0.58
19.2595579624176,2,3,3,3,-9.460000000000001,0.16,2.9,12.66,0.93,-0.4
19.26955795288086,2,3,3,3,-9.35,0.55,2.78,12.66,0.93,-0.4
19.27955794334412,2,3,3,3,-9.23,0.73,1.91,14.1,1.33,0.15
19.28955793380737,2,3,3,3,-9.51,0.55,1.91,13.3,4,1.33
19.29955792427063,2,3,3,3,-10.12,0.33,2.66,10.16,4.12,1.19
19.30955791473389,2,3,3,3,-10.7,-0.13,3.57,7.78,2.75,0.06
19.31955790519714,2,3,3,3,-10.7,-0.9399999999999999,3.33,7.78,2.75,0.06
19.3295578956604,2,3,3,3,-10.36,-1.46,3.47,5.9,2.03,-1.53
19.33955788612366,2,3,3,3,-9.82,-2.28,4.03,2.58,3,-3.84
19.34955787658691,2,3,3,3,-9.33,-2.97,4.41,3.47,2.92,-4.78
19.35955786705017,2,3,3,3,-9.15,-3.06,4.85,5.7,0.97,-5.9
19.36955785751343,2,3,3,3,-9.529999999999999,-2.18,4.63,5.7,0.97,-5.9
19.37955784797668,2,3,3,3,-10.04,-0.85,4.42,11.98,-1.99,-5.82
19.44955801963806,2,3,3,3,-14.57,6.24,0.1,-13.05,-6.91,9
19.45955801010132,2,3,3,3,-10.6,4.75,2.6,-14.48,-9.93,6.31
19.46955800056458,2,3,3,3,-7.84,3.47,4.46,-14.48,-9.93,6.31
19.47955799102783,2,3,3,3,-4.46,1.12,5.13,-12.46,-8.640000000000001,2.68
19.48955798149109,2,3,3,3,-4.34,-0.08,4.26,-2.78,-1.83,-3.48
19.49955797195435,2,3,3,3,-5,-0.98,3.14,2.92,1.67,-4.92
19.5095579624176,2,3,3,3,-6.46,-1.92,1.05,2.92,1.67,-4.92
19.51955795288086,2,3,3,3,-7.15,-1.6,0.38,7.46,3.79,-5.01
19.52955794334412,2,3,3,3,-7.99,-0.71,-0.02,9.65,4.39,-3.76
19.53955793380737,2,3,3,3,-9.02,0.5600000000000001,-0.53,9.720000000000001,3.98,-1.52
19.54955792427063,2,3,3,3,-11,3,-0.9399999999999999,8.35,2.59,2.35
19.55955791473389,2,3,3,3,-11.67,3.74,-0.95,8.35,2.59,2.35
19.56955790519714,2,3,3,3,-11.86,4.21,-0.83,7.22,1.61,3.12
19.5795578956604,2,3,3,3,-11.6,4.53,-0.54,5.45,1.15,3.34
19.58955788612366,2,3,3,3,-9.949999999999999,4.9,-0.07000000000000001,3.26,0.73,3.56
19.59955787658691,2,3,3,3,-8.890000000000001,4.67,-0.14,1.71,0.52,4.28
