timestamp,magCalib,accCalib,gyrCalib,sysCalib,accX,accY,accZ,gyrX,gyrY,gyrZ
-0.002799153327941895,1,3,3,2,-9.699999999999999,-0.25,1.21,-0.5,0.11,-0.4
0.007201075553894043,1,3,3,2,-9.67,-0.33,1.17,-0.49,0.13,-0.38
0.01720106601715088,1,3,3,2,-9.67,-0.35,1.13,-0.48,0.1,-0.33
0.02720105648040771,1,3,3,2,-9.69,-0.35,1.16,-0.52,0.08,-0.29
0.03720104694366455,1,3,3,2,-9.65,-0.32,1.21,-0.53,0.04,-0.24
0.04720103740692139,1,3,3,2,-9.640000000000001,-0.29,1.26,-0.58,0.04,-0.17
0.05720102787017822,1,3,3,2,-9.65,-0.31,1.28,-0.55,0.06,-0.19
0.06720101833343506,1,3,3,2,-9.66,-0.31,1.18,-0.58,0.08,-0.15
0.07720100879669189,1,3,3,2,-9.65,-0.34,1.22,-0.5600000000000001,0.06,-0.15
0.08720099925994873,1,3,3,2,-9.67,-0.33,1.24,-0.59,0.08,-0.13
0.09720098972320557,1,3,3,2,-9.699999999999999,-0.32,1.25,-0.6,0.1,-0.09
0.1272009611129761,1,3,3,2,-9.699999999999999,-0.3,1.21,-0.62,0.09,-0.12
0.1372009515762329,1,3,3,2,-9.699999999999999,-0.32,1.24,-0.65,0.1,-0.15
0.1472009420394897,1,3,3,1,-9.67,-0.29,1.27,-0.68,0.15,-0.21
0.1572009325027466,1,3,3,1,-9.66,-0.28,1.21,-0.67,0.17,-0.26
0.1672009229660034,1,3,3,1,-9.67,-0.32,1.15,-0.62,0.17,-0.3
0.1772009134292603,1,3,3,1,-9.66,-0.31,1.19,-0.57,0.19,-0.36
0.1872009038925171,1,3,3,1,-9.66,-0.31,1.22,-0.5,0.16,-0.38
0.1972008943557739,1,3,3,1,-9.630000000000001,-0.33,1.26,-0.44,0.13,-0.37
0.2072008848190308,1,3,3,1,-9.619999999999999,-0.3,1.24,-0.41,0.11,-0.33
0.2172008752822876,1,3,3,1,-9.609999999999999,-0.26,1.2,-0.43,0.11,-0.31
0.2272008657455444,1,3,3,1,-9.59,-0.26,1.24,-0.45,0.13,-0.3
0.2372008562088013,1,3,3,1,-9.609999999999999,-0.25,1.26,-0.48,0.1,-0.26
0.2472008466720581,1,3,3,1,-9.609999999999999,-0.24,1.28,-0.54,0.13,-0.25
0.257201075553894,1,3,3,1,-9.630000000000001,-0.25,1.28,-0.61,0.14,-0.23
0.2672010660171509,1,3,3,1,-9.68,-0.28,1.18,-0.61,0.09,-0.21
0.2772010564804077,1,3,3,1,-9.66,-0.27,1.2,-0.65,0.1,-0.24
0.2872010469436646,1,3,3,1,-9.68,-0.28,1.2,-0.6899999999999999,0.1,-0.23
0.2972010374069214,1,3,3,1,-9.66,-0.29,1.24,-0.71,0.09,-0.24
0.3072010278701782,1,3,3,1,-9.69,-0.32,1.21,-0.71,0.1,-0.22
0.3172010183334351,1,3,3,1,-9.69,-0.32,1.17,-0.7,0.1,-0.22
0.3272010087966919,1,3,3,1,-9.69,-0.31,1.16,-0.7,0.08,-0.2
0.3372009992599487,1,3,3,1,-9.68,-0.33,1.22,-0.72,0.09,-0.17
0.3472009897232056,1,3,3,1,-9.69,-0.35,1.25,-0.73,0.1,-0.16
0.3572009801864624,1,3,3,1,-9.699999999999999,-0.36,1.23,-0.7,0.06,-0.15
0.3682008981704712,1,3,3,1,-9.68,-0.39,1.13,-0.7,0.06,-0.13
0.3772009611129761,1,3,3,1,-9.67,-0.4,1.14,-0.68,0.04,-0.14
0.3982008695602417,1,3,3,1,-9.699999999999999,-0.4,1.2,-0.6,0.06,-0.1
0.4082008600234985,1,3,3,1,-9.699999999999999,-0.4,1.2,-0.58,0.03,-0.09
0.4182008504867554,1,3,3,1,-9.69,-0.42,1.1,-0.5600000000000001,0.06,-0.07000000000000001
0.4282010793685913,1,3,3,1,-9.67,-0.41,1.15,-0.47,0.05,-0.08
0.4382010698318481,1,3,3,1,-9.66,-0.39,1.19,-0.48,0.01,-0.05
0.448201060295105,1,3,3,1,-9.66,-0.39,1.19,-0.41,0,-0.05
0.4582010507583618,1,3,3,1,-9.640000000000001,-0.38,1.19,-0.41,0.01,-0.03
0.4682010412216187,1,3,3,1,-9.720000000000001,-0.4,1.09,-0.38,0.05,-0.04
0.4782010316848755,1,3,3,1,-9.710000000000001,-0.4,1.11,-0.35,-0.01,-0.07000000000000001
0.4882010221481323,1,3,3,1,-9.710000000000001,-0.39,1.15,-0.38,-0.04,-0.08
0.4982010126113892,1,3,3,1,-9.710000000000001,-0.39,1.15,-0.38,-0.04,-0.08
0.508201003074646,1,3,3,1,-9.69,-0.4,1.17,-0.36,-0.06,-0.11
0.5182009935379028,1,3,3,1,-9.66,-0.37,1.09,-0.23,-0.06,-0.13
0.5282009840011597,1,3,3,1,-9.65,-0.39,1.13,-0.2,-0.06,-0.1
0.5382009744644165,1,3,3,1,-9.65,-0.37,1.19,-0.21,-0.09,-0.1
0.5482009649276733,1,3,3,1,-9.65,-0.37,1.19,-0.21,-0.09,-0.1
0.5582009553909302,1,3,3,1,-9.65,-0.35,1.19,-0.24,-0.05,-0.08
0.568200945854187,1,3,3,1,-9.68,-0.33,1.12,-0.23,-0.1,-0.11
0.5782009363174438,1,3,3,1,-9.66,-0.32,1.14,-0.28,-0.09,-0.1
0.5882009267807007,1,3,3,1,-9.66,-0.32,1.14,-0.29,-0.1,-0.12
0.5982009172439575,1,3,3,1,-9.68,-0.32,1.18,-0.29,-0.1,-0.12
0.6082009077072144,1,3,3,1,-9.67,-0.34,1.18,-0.3,-0.06,-0.13
0.6182008981704712,1,3,3,1,-9.65,-0.35,1.17,-0.31,-0.03,-0.13
0.628200888633728,1,3,3,1,-9.66,-0.33,1.13,-0.35,-0.04,-0.11
0.6382008790969849,1,3,3,1,-9.640000000000001,-0.35,1.16,-0.35,-0.03,-0.11
0.6482008695602417,1,3,3,1,-9.65,-0.36,1.2,-0.35,-0.03,-0.11
0.6582008600234985,1,3,3,1,-9.67,-0.36,1.22,-0.34,-0.01,-0.1
0.6682008504867554,1,3,3,1,-9.66,-0.4,1.2,-0.36,0,-0.08
0.6782010793685913,1,3,3,1,-9.65,-0.4,1.12,-0.32,0.01,-0.07000000000000001
0.6882010698318481,1,3,3,1,-9.65,-0.42,1.14,-0.31,0.01,-0.05
0.698201060295105,1,3,3,1,-9.640000000000001,-0.46,1.2,-0.31,0.01,-0.05
0.7082010507583618,1,3,3,1,-9.66,-0.49,1.21,-0.26,0,-0.02
0.7182010412216187,1,3,3,1,-9.66,-0.48,1.23,-0.19,-0.01,0.01
0.7282010316848755,1,3,3,1,-9.68,-0.51,1.13,-0.14,-0.02,0.03
0.7382010221481323,1,3,3,1,-9.66,-0.51,1.15,-0.08,-0.02,0.01
0.7482010126113892,1,3,3,1,-9.69,-0.52,1.2,-0.03,-0.02,0.01
0.758201003074646,1,3,3,1,-9.67,-0.51,1.22,0.06,-0.02,0.02
0.7682009935379028,1,3,3,1,-9.68,-0.51,1.22,0.1,-0.03,0.03
0.7782009840011597,1,3,3,1,-9.67,-0.5,1.15,0.18,0,0.02
0.7882009744644165,1,3,3,1,-9.67,-0.5,1.21,0.23,-0.04,0.02
0.7982009649276733,1,3,3,1,-9.640000000000001,-0.5,1.23,0.23,-0.04,0.02
0.8082009553909302,1,3,3,1,-9.66,-0.5,1.26,0.23,0.01,0.03
0.818200945854187,1,3,3,1,-9.66,-0.47,1.28,0.25,0.02,0.02
0.8282009363174438,1,3,3,1,-9.66,-0.46,1.19,0.23,0,0.06
0.8382009267807007,1,3,3,1,-9.66,-0.47,1.25,0.22,0,0.06
0.8482009172439575,1,3,3,1,-9.67,-0.47,1.27,0.22,0,0.06
0.8582009077072144,1,3,3,1,-9.65,-0.48,1.27,0.21,0.02,0.05
0.8682008981704712,1,3,3,1,-9.67,-0.5,1.29,0.17,-0.03,0.1
0.878200888633728,1,3,3,1,-9.640000000000001,-0.49,1.18,0.13,-0.01,0.12
0.8882008790969849,1,3,3,1,-9.68,-0.47,1.25,0.12,-0.03,0.14
0.8982008695602417,1,3,3,1,-9.66,-0.49,1.27,0.12,-0.03,0.14
0.9082008600234985,1,3,3,1,-9.65,-0.49,1.28,0.08,-0.01,0.17
0.9182008504867554,1,3,3,1,-9.640000000000001,-0.51,1.24,0.03,-0.01,0.17
0.9282010793685913,1,3,3,1,-9.66,-0.51,1.2,0.03,-0.03,0.18
0.9382010698318481,1,3,3,1,-9.65,-0.51,1.24,0.04,0,0.19
0.948201060295105,1,3,3,1,-9.630000000000001,-0.48,1.24,0.01,-0.01,0.2
0.9582010507583618,1,3,3,1,-9.65,-0.52,1.27,0,-0.03,0.21
0.9682010412216187,1,3,3,1,-9.65,-0.49,1.24,-0.03,-0.01,0.21
0.9782010316848755,1,3,3,1,-9.66,-0.5,1.16,-0.02,0.01,0.21
0.9882010221481323,1,3,3,1,-9.65,-0.48,1.19,-0.02,-0.01,0.19
0.9982010126113892,1,3,3,1,-9.65,-0.46,1.22,-0.02,-0.01,0.19
1.008201003074646,1,3,3,1,-9.65,-0.49,1.25,-0.03,0.02,0.22
1.018200993537903,1,3,3,1,-9.66,-0.46,1.25,-0.04,-0.01,0.17
1.02820098400116,1,3,3,1,-9.640000000000001,-0.47,1.19,-0.11,-0.04,0.19
1.038200974464417,1,3,3,1,-9.66,-0.43,1.19,-0.1,-0.05,0.18
1.048200964927673,1,3,3,1,-9.68,-0.45,1.24,-0.1,-0.05,0.18
1.05820095539093,1,3,3,1,-9.67,-0.43,1.27,-0.1,-0.07000000000000001,0.22
1.068200945854187,1,3,3,1,-9.67,-0.42,1.25,-0.14,-0.09,0.23
1.078200936317444,1,3,3,1,-9.68,-0.44,1.16,-0.14,-0.06,0.23
1.088200926780701,1,3,3,1,-9.65,-0.45,1.16,-0.19,-0.07000000000000001,0.26
1.098200917243958,1,3,3,1,-9.67,-0.47,1.23,-0.19,-0.05,0.25
1.108200907707214,1,3,3,1,-9.66,-0.47,1.19,-0.25,-0.08,0.27
1.118200898170471,1,3,3,1,-9.66,-0.47,1.17,-0.34,-0.06,0.27
1.128200888633728,1,3,3,1,-9.640000000000001,-0.44,1.1,-0.34,-0.06,0.27
1.138200879096985,1,3,3,1,-9.66,-0.42,1.12,-0.24,0,0.27
1.148200869560242,1,3,3,1,-9.710000000000001,-0.49,1.15,-0.2,0.06,0.26
1.158200860023499,1,3,3,1,-9.699999999999999,-0.47,1.18,-0.24,0.02,0.27
1.168200850486755,1,3,3,1,-9.68,-0.45,1.17,-0.31,-0.04,0.26
1.178201079368591,1,3,3,1,-9.699999999999999,-0.43,1.07,-0.29,-0.03,0.26
1.188201069831848,1,3,3,1,-9.67,-0.44,1.08,-0.26,-0.02,0.26
1.208201050758362,1,3,3,1,-9.66,-0.41,1.16,-0.38,-0.02,0.21
1.218201041221619,1,3,3,1,-9.66,-0.42,1.18,-0.32,-0.05,0.17
1.228201031684875,1,3,3,1,-9.66,-0.39,1.05,-0.25,-0.02,0.18
1.238201022148132,1,3,3,1,-9.68,-0.39,1.08,-0.26,-0.02,0.14
1.248201012611389,1,3,3,1,-9.66,-0.38,1.13,-0.24,-0.03,0.17
1.258201003074646,1,3,3,1,-9.67,-0.35,1.14,-0.22,-0.04,0.18
1.268200993537903,1,3,3,1,-9.67,-0.34,1.08,-0.25,-0.03,0.13
1.27820098400116,1,3,3,1,-9.699999999999999,-0.35,1.04,-0.23,-0.04,0.17
1.288200974464417,1,3,3,1,-9.699999999999999,-0.36,1.09,-0.23,-0.02,0.15
1.299200892448425,1,3,3,1,-9.69,-0.4,1.18,-0.28,-0.04,0.15
1.30820095539093,1,3,3,1,-9.68,-0.4,1.17,-0.29,-0.05,0.18
1.318200945854187,1,3,3,1,-9.67,-0.41,1.18,-0.29,-0.08,0.17
1.328200936317444,1,3,3,1,-9.67,-0.43,1.11,-0.31,-0.09,0.15
1.338200926780701,1,3,3,1,-9.69,-0.45,1.15,-0.3,-0.1,0.14
1.348200917243958,1,3,3,1,-9.69,-0.45,1.18,-0.3,-0.13,0.12
1.359201073646545,1,3,3,1,-9.68,-0.45,1.19,-0.26,-0.09,0.11
1.368200898170471,1,3,3,1,-9.699999999999999,-0.44,1.22,-0.15,-0.13,0.09
1.378200888633728,1,3,3,1,-9.699999999999999,-0.5,1.12,-0.04,-0.13,0.05
1.389201045036316,1,3,3,1,-9.69,-0.49,1.17,-0.03,-0.12,0.03
1.398200869560242,1,3,3,1,-9.69,-0.46,1.19,0.01,-0.14,0.01
1.408200860023499,1,3,3,1,-9.67,-0.48,1.21,0.03,-0.18,0.02
1.419201016426086,1,3,3,1,-9.68,-0.46,1.21,0.08,-0.18,-0.02
1.429201006889343,1,3,3,1,-9.66,-0.46,1.12,0.23,-0.15,-0.03
1.4392009973526,1,3,3,1,-9.67,-0.48,1.12,0.39,-0.11,0
1.449200987815857,1,3,3,1,-9.67,-0.51,1.12,0.46,-0.07000000000000001,0
1.459200978279114,1,3,3,1,-9.65,-0.46,1.16,0.49,-0.09,-0.05
1.469200968742371,1,3,3,1,-9.640000000000001,-0.44,1.17,0.53,-0.09,-0.11
1.479200959205627,1,3,3,1,-9.66,-0.43,1.11,0.57,-0.07000000000000001,-0.17
1.489200949668884,1,3,3,1,-9.68,-0.41,1.16,0.58,-0.06,-0.2
1.499200940132141,1,3,3,1,-9.66,-0.4,1.17,0.6,-0.07000000000000001,-0.18
1.509200930595398,1,3,3,1,-9.68,-0.38,1.14,0.61,-0.1,-0.14
1.519200921058655,1,3,3,1,-9.65,-0.42,1.19,0.5600000000000001,-0.07000000000000001,-0.2
1.529200911521912,1,3,3,1,-9.65,-0.39,1.07,0.53,-0.11,-0.19
1.539200901985168,1,3,3,1,-9.68,-0.39,1.15,0.48,-0.07000000000000001,-0.17
1.549200892448425,1,3,3,1,-9.68,-0.37,1.17,0.4,-0.08,-0.17
1.559200882911682,1,3,3,1,-9.68,-0.35,1.17,0.38,-0.06,-0.13
1.569200873374939,1,3,3,1,-9.69,-0.37,1.13,0.41,-0.05,-0.1
1.579200863838196,1,3,3,1,-9.67,-0.36,1.07,0.4,-0.06,-0.09
1.589200854301453,1,3,3,1,-9.68,-0.35,1.1,0.36,-0.05,-0.12
1.599200844764709,1,3,3,1,-9.66,-0.34,1.11,0.29,-0.03,-0.12
1.609201073646545,1,3,3,1,-9.66,-0.35,1.14,0.23,-0.03,-0.06
1.619201064109802,1,3,3,1,-9.66,-0.32,1.09,0.2,-0.01,-0.05
1.629201054573059,1,3,3,1,-9.67,-0.34,1.01,0.25,0.02,-0.04
1.639201045036316,1,3,3,1,-9.67,-0.37,1.08,0.19,0.05,-0.04
1.649201035499573,1,3,3,1,-9.65,-0.37,1.09,0.11,0.09,0
1.679201006889343,1,3,3,1,-9.69,-0.33,0.99,-0.05,0.05,0.11
1.6892009973526,1,3,3,1,-9.699999999999999,-0.32,1.03,-0.16,0.02,0.14
1.699200987815857,1,3,3,1,-9.699999999999999,-0.32,1.05,-0.22,0.02,0.14
1.709200978279114,1,3,3,1,-9.699999999999999,-0.32,1.04,-0.24,-0.01,0.16
1.719200968742371,1,3,3,1,-9.69,-0.3,1.03,-0.29,-0.01,0.18
1.729200959205627,1,3,3,1,-9.710000000000001,-0.28,0.97,-0.29,-0.04,0.16
1.739200949668884,1,3,3,1,-9.69,-0.29,1,-0.3,-0.02,0.15
1.749200940132141,1,3,3,1,-9.68,-0.29,1.05,-0.33,-0.03,0.17
1.759200930595398,1,3,3,1,-9.66,-0.27,1.12,-0.4,-0.02,0.18
1.769200921058655,1,3,3,1,-9.67,-0.26,1.09,-0.47,-0.03,0.19
1.779200911521912,1,3,3,1,-9.640000000000001,-0.28,1.03,-0.53,-0.04,0.21
1.789200901985168,1,3,3,1,-9.619999999999999,-0.27,1,-0.55,-0.03,0.22
1.799200892448425,1,3,3,1,-9.630000000000001,-0.29,1.03,-0.67,-0.06,0.2
1.809200882911682,1,3,3,1,-9.619999999999999,-0.3,1.1,-0.72,-0.01,0.18
1.819200873374939,1,3,3,1,-9.630000000000001,-0.33,1.08,-0.76,0.01,0.15
1.829200863838196,1,3,3,1,-9.67,-0.34,1,-0.8,0.03,0.11
1.839200854301453,1,3,3,1,-9.69,-0.35,1.06,-0.9,0.05,0.12
1.849200844764709,1,3,3,1,-9.699999999999999,-0.37,1.05,-0.95,0.02,0.12
1.859201073646545,1,3,3,1,-9.710000000000001,-0.34,1.07,-0.97,0.04,0.1
1.869201064109802,1,3,3,1,-9.66,-0.37,1.01,-1.06,0.03,0.1
1.879201054573059,1,3,3,1,-9.69,-0.37,0.93,-1.19,0.03,0.06
1.889201045036316,1,3,3,1,-9.68,-0.38,0.9399999999999999,-1.2,0.01,0
1.899201035499573,1,3,3,1,-9.73,-0.42,0.96,-1.23,0.07000000000000001,-0.01
1.90920102596283,1,3,3,1,-9.779999999999999,-0.5,1,-1.22,0.06,-0.01
1.919201016426086,1,3,3,1,-9.789999999999999,-0.47,0.92,-1.22,0.07000000000000001,-0.03
1.929201006889343,1,3,3,1,-9.75,-0.47,0.83,-1.18,0.03,-0.03
1.9392009973526,1,3,3,1,-9.77,-0.5,0.84,-1.18,0.05,0
1.949200987815857,1,3,3,1,-9.73,-0.45,0.92,-1.19,0,0.03
1.959200978279114,1,3,3,1,-9.710000000000001,-0.46,0.93,-1.16,0,0.01
1.969200968742371,1,3,3,1,-9.720000000000001,-0.43,0.9399999999999999,-1.13,0,0.01
1.979200959205627,1,3,3,1,-9.699999999999999,-0.42,0.83,-1.13,0.02,0.01
1.989200949668884,1,3,3,1,-9.710000000000001,-0.45,0.87,-1.13,-0.01,0.05
1.999200940132141,1,3,3,1,-9.710000000000001,-0.44,0.88,-1.1,0.02,0
2.009200930595398,1,3,3,1,-9.710000000000001,-0.43,0.89,-1.08,0.02,0.03
2.019200921058655,1,3,3,1,-9.699999999999999,-0.38,0.79,-1.1,-0.02,0.05
2.029200911521912,1,3,3,1,-9.710000000000001,-0.35,0.7,-1.07,0,0.07000000000000001
2.039200901985168,1,3,3,1,-9.699999999999999,-0.38,0.76,-1.08,0.01,0.1
2.049200892448425,1,3,3,1,-9.67,-0.38,0.79,-1.1,0.06,0.08
2.059200882911682,1,3,3,1,-9.619999999999999,-0.43,0.84,-1.04,0.07000000000000001,0.1
2.069200873374939,1,3,3,1,-9.59,-0.4,0.8100000000000001,-1.05,0.13,0.14
2.079200863838196,1,3,3,1,-9.56,-0.39,0.7,-0.99,0.15,0.14
2.089200854301453,1,3,3,1,-9.57,-0.39,0.71,-1,0.19,0.14
2.099200844764709,1,3,3,1,-9.630000000000001,-0.3,0.64,-1.06,0.2,0.16
2.109201073646545,1,3,3,1,-9.66,-0.3,0.63,-1.2,0.2,0.16
2.119201064109802,1,3,3,1,-9.699999999999999,-0.29,0.63,-1.32,0.16,0.12
2.129201054573059,1,3,3,1,-9.73,-0.33,0.59,-1.5,0.15,0.08
2.139201045036316,1,3,3,1,-9.75,-0.45,0.7,-1.63,0.17,-0.01
2.149201035499573,1,3,3,1,-9.75,-0.47,0.75,-1.75,0.2,-0.06
2.15920102596283,1,3,3,1,-9.76,-0.53,0.8100000000000001,-1.87,0.23,-0.14
2.169201016426086,1,3,3,1,-9.74,-0.58,0.77,-1.93,0.25,-0.16
2.179201006889343,1,3,3,1,-9.75,-0.59,0.8,-1.99,0.26,-0.19
2.1892009973526,1,3,3,1,-9.75,-0.54,0.88,-1.98,0.25,-0.21
2.199200987815857,1,3,3,1,-9.789999999999999,-0.55,0.99,-1.98,0.21,-0.27
2.209200978279114,1,3,3,1,-9.92,-0.55,1.01,-1.9,0.21,-0.28
2.219200968742371,1,3,3,1,-9.970000000000001,-0.52,1.04,-1.9,0.16,-0.28
2.229200959205627,1,3,3,1,-9.99,-0.6,1.09,-1.9,0.06,-0.33
2.239200949668884,1,3,3,1,-9.970000000000001,-0.7,1.17,-1.85,-0.01,-0.33
2.249200940132141,1,3,3,1,-9.890000000000001,-0.75,1.24,-1.81,-0.09,-0.3
2.259200930595398,1,3,3,1,-9.82,-0.71,1.23,-1.81,-0.2,-0.26
2.269200921058655,1,3,3,1,-9.77,-0.6899999999999999,1.29,-1.75,-0.34,-0.19
2.279200911521912,1,3,3,1,-9.640000000000001,-0.63,1.36,-1.61,-0.41,-0.07000000000000001
2.289200901985168,1,3,3,1,-9.699999999999999,-0.49,1.52,-1.21,-0.25,0.11
2.299200892448425,1,3,3,1,-9.73,-0.61,1.67,-0.59,-0.02,0.43
2.309200882911682,1,3,3,1,-9.779999999999999,-0.6899999999999999,1.58,-0.22,-0.08,0.64
2.319200873374939,1,3,3,1,-9.85,-0.5600000000000001,1.49,-0.43,-0.37,0.78
2.329200863838196,1,3,3,1,-9.890000000000001,-0.46,1.44,-0.88,-0.63,0.87
2.339200854301453,1,3,3,1,-9.94,-0.48,1.62,-1.05,-0.8,0.96
2.349200844764709,1,3,3,1,-9.94,-0.44,1.65,-1.09,-0.96,1
2.359201073646545,1,3,3,1,-10,-0.38,1.69,-1.2,-1.14,1.06
2.369201064109802,1,3,3,1,-10.09,-0.23,1.76,-1.2,-1.24,1.18
2.379201054573059,1,3,3,1,-10.14,-0.21,1.77,-1.16,-1.38,1.38
2.389201045036316,1,3,3,1,-9.98,-0.26,1.74,-0.95,-1.68,1.65
2.399201035499573,1,3,3,1,-9.67,-0.04,1.65,-1.1,-2.04,1.75
2.40920102596283,1,3,3,1,-9.56,0.02,1.78,-1.51,-1.96,1.76
2.419201016426086,1,3,3,1,-9.460000000000001,0.09,1.82,-1.6,-1.71,1.85
2.429201006889343,1,3,3,1,-9.4,0.12,1.78,-1.67,-1.57,1.88
2.4392009973526,1,3,3,1,-9.4,0.14,2.02,-1.85,-1.46,1.9
2.450200915336609,1,3,3,1,-9.470000000000001,0.12,2.05,-2.09,-1.38,1.93
2.460200905799866,1,3,3,1,-9.52,0.14,2.04,-2.87,-1.56,1.86
2.470200896263123,1,3,3,1,-9.59,0.09,2.1,-2.87,-1.56,1.86
2.480200886726379,1,3,3,1,-9.67,0.05,2.08,-3.54,-1.59,1.66
2.490200877189636,1,3,3,1,-9.699999999999999,0,2.18,-3.78,-1.51,1.6
2.500200867652893,1,3,3,1,-9.77,-0.11,2.25,-3.99,-1.46,1.53
2.51020085811615,1,3,3,1,-9.81,-0.16,2.32,-4.11,-1.44,1.44
2.520200848579407,1,3,3,1,-9.85,-0.23,2.29,-4.08,-1.52,1.33
2.530201077461243,1,3,3,1,-9.85,-0.29,2.22,-3.98,-1.65,1.29
2.5402010679245,1,3,3,1,-9.800000000000001,-0.35,2.3,-3.85,-1.81,1.21
2.550201058387756,1,3,3,1,-9.699999999999999,-0.36,2.46,-3.66,-1.94,1.14
2.560201048851013,1,3,3,0,-9.640000000000001,-0.37,2.43,-3.5,-2.06,1.11
2.57020103931427,1,3,3,0,-9.619999999999999,-0.29,2.38,-3.42,-2.08,1.04
2.580201029777527,1,3,3,0,-9.630000000000001,-0.25,2.33,-3.25,-2.03,0.9
2.590201020240784,1,3,3,0,-9.5,-0.07000000000000001,2.42,-2.99,-1.91,0.84
2.600201010704041,1,3,3,0,-9.460000000000001,0.03,2.42,-2.84,-1.7,0.87
2.610201001167297,1,3,3,0,-9.44,0.11,2.5,-2.77,-1.74,0.88
2.620200991630554,1,3,3,0,-9.359999999999999,0.2,2.47,-2.83,-1.78,0.89
2.630200982093811,1,3,3,0,-9.23,0.38,2.11,-2.96,-1.55,0.9399999999999999
2.640200972557068,1,3,3,0,-9.24,0.43,2.11,-3.07,-1.3,1.01
2.650200963020325,1,3,3,0,-9.24,0.53,2.16,-3.17,-1.19,1.07
2.660200953483582,1,3,3,0,-9.33,0.55,2.27,-3.38,-1.24,1.14
2.670200943946838,1,3,3,0,-9.359999999999999,0.45,2.41,-3.54,-1.64,1.1
2.680200934410095,1,3,3,0,-9.220000000000001,0.38,2.11,-3.96,-1.98,0.92
2.690200924873352,1,3,3,0,-9.140000000000001,0.55,1.78,-4.3,-1.43,0.9399999999999999
2.700200915336609,1,3,3,0,-9.19,0.78,2.27,-3.7,-1.2,1.18
2.710200905799866,1,3,3,0,-9.029999999999999,0.76,2.14,-2.91,-1.12,1.36
2.720200896263123,1,3,3,0,-8.98,0.77,2.04,-2.58,-0.68,1.5
2.730200886726379,1,3,3,0,-8.859999999999999,0.6899999999999999,1.82,-2.52,-0.13,1.63
2.740200877189636,1,3,3,0,-8.880000000000001,0.55,1.43,-3.09,0.49,1.59
2.750200867652893,1,3,3,0,-8.98,0.65,1.5,-3.9,0.86,1.57
2.76020085811615,1,3,3,0,-9.01,0.71,1.61,-4.13,1.14,1.55
2.770200848579407,1,3,3,0,-9.039999999999999,0.65,1.58,-4.34,1.44,1.58
2.780201077461243,1,3,3,0,-9.119999999999999,0.63,1.21,-4.82,1.7,1.6
2.7902010679245,1,3,3,0,-9.06,0.63,1.28,-5.12,1.88,1.62
2.800201058387756,1,3,3,0,-9.01,0.65,1.25,-5.44,2.12,1.63
2.810201048851013,1,3,3,0,-9.01,0.65,1.25,-5.82,2.31,1.58
2.82020103931427,1,3,3,0,-8.99,0.68,1.19,-6.03,2.45,1.56
2.830201029777527,1,3,3,0,-8.84,0.8,1.26,-6.18,2.56,1.55
2.840201020240784,1,3,3,0,-8.789999999999999,0.85,1.25,-6.52,2.75,1.55
2.850201010704041,1,3,3,0,-8.859999999999999,0.91,1.37,-6.88,2.86,1.55
2.860201001167297,1,3,3,0,-8.859999999999999,0.91,1.37,-6.88,2.86,1.55
2.870200991630554,1,3,3,0,-8.869999999999999,0.89,1.33,-7.38,2.87,1.64
2.880200982093811,1,3,3,0,-9.039999999999999,0.78,0.96,-8.51,3.27,1.81
2.890200972557068,1,3,3,0,-9.039999999999999,0.5600000000000001,1.17,-8.76,3.38,1.75
2.900200963020325,1,3,3,0,-8.99,0.45,0.88,-9.07,3.55,1.62
2.910200953483582,1,3,3,0,-8.99,0.45,0.88,-9.07,3.55,1.62
2.920200943946838,1,3,3,0,-8.970000000000001,0.45,0.89,-9.25,3.67,1.37
2.930200934410095,1,3,3,0,-9.130000000000001,0.26,1.24,-7.74,3.17,0.88
2.940200924873352,1,3,3,0,-9.460000000000001,0.06,1.44,-6.95,2.86,0.8100000000000001
2.950200915336609,1,3,3,0,-9.970000000000001,-0.26,1.66,-6.24,2.74,1.1
2.960200905799866,1,3,3,0,-9.970000000000001,-0.26,1.66,-6.24,2.74,1.1
2.970200896263123,1,3,3,0,-10.37,-0.49,1.56,-5.91,2.55,1.45
2.980200886726379,1,3,3,0,-11.25,-1.14,0.54,-5.15,1.89,1.52
2.990200877189636,1,3,3,0,-11.25,-1.14,0.54,-4.99,1.59,1.39
3.000200867652893,1,3,3,0,-11.41,-1.16,0.46,-4.53,1.38,1.06
3.01020085811615,1,3,3,0,-11.38,-1.25,0.5600000000000001,-4.53,1.38,1.06
3.020200848579407,1,3,3,0,-10.8,-1.2,0.15,-4.04,1.3,0.71
3.030201077461243,1,3,3,0,-10.3,-1.01,0.4,-2.81,1.99,-0.17
3.0402010679245,1,3,3,0,-9.94,-0.66,0.64,-2.53,2.4,-0.57
3.050201058387756,1,3,3,0,-9.26,-0.24,1.02,-2.71,2.74,-0.84
3.060201048851013,1,3,3,0,-9.039999999999999,-0.1,1.12,-2.71,2.74,-0.84
3.07020103931427,1,3,3,0,-9.06,0.1,0.97,-3.37,3.02,-1.2
3.080201029777527,1,3,3,0,-9.119999999999999,0.22,0.8100000000000001,-5.22,3.31,-1.7
3.090201020240784,1,3,3,0,-9.49,0.39,0.6,-6.18,3.18,-1.69
3.100201010704041,1,3,3,0,-9.65,0.36,0.59,-7.09,3.04,-1.48
3.110201001167297,1,3,3,0,-9.81,0.37,0.57,-7.09,3.04,-1.48
3.120200991630554,1,3,3,0,-9.949999999999999,0.29,0.33,-8.06,2.83,-1.24
3.130200982093811,1,3,3,0,-10.17,0.21,0.12,-9.76,1.94,-0.67
3.140200972557068,1,3,3,0,-10.17,0.11,0.09,-10.18,1.46,-0.39
3.150200963020325,1,3,3,0,-10.19,-0.08,0.12,-10.38,1.18,-0.11
3.160200953483582,1,3,3,0,-10.15,-0.2,0.29,-10.38,1.18,-0.11
3.170200943946838,1,3,3,0,-10.13,-0.3,0.29,-10.42,1.15,0.2
3.180200934410095,1,3,3,0,-10.11,-0.29,0.27,-10.2,1.39,0.52
3.190200924873352,1,3,3,0,-9.93,-0.35,0.35,-9.960000000000001,1.7,0.47
3.200200915336609,1,3,3,0,-9.57,-0.35,0.41,-9.67,2.11,0.32
3.210200905799866,1,3,3,0,-9.49,-0.27,0.43,-9.67,2.11,0.32
3.220200896263123,1,3,3,0,-9.5,-0.09,0.39,-9.42,2.48,0.14
3.230200886726379,1,3,3,0,-9.51,0.06,0.38,-9.19,2.7,-0.09
3.240200877189636,1,3,3,0,-9.369999999999999,0.09,0.1,-9.35,2.67,-0.22
3.250200867652893,1,3,3,0,-9.35,0.08,0.02,-9.449999999999999,2.64,-0.23
3.26020085811615,1,3,3,0,-9.359999999999999,0.08,-0.02,-9.449999999999999,2.64,-0.23
3.270200848579407,1,3,3,0,-9.44,0.05,-0.02,-9.529999999999999,2.44,-0.16
3.280201077461243,1,3,3,0,-9.56,-0.23,-0.06,-9.26,1.85,0.13
3.2902010679245,1,3,3,0,-9.550000000000001,-0.27,-0.15,-9.1,1.71,0.4
3.300201058387756,1,3,3,0,-9.57,-0.24,-0.09,-8.98,1.63,0.7
3.310201048851013,1,3,3,0,-9.6,-0.14,-0.04,-8.98,1.63,0.7
3.32020103931427,1,3,3,1,-9.640000000000001,-0.01,0.01,-8.76,1.4,0.93
3.330201029777527,1,3,3,1,-9.66,0.14,0.05,-8.66,0.85,1.19
3.340201020240784,1,3,3,1,-9.65,0.25,-0.05,-8.699999999999999,0.64,1.32
3.350201010704041,1,3,3,1,-9.640000000000001,0.36,-0.04,-8.91,0.48,1.38
3.360201001167297,1,3,3,1,-9.699999999999999,0.58,-0.09,-8.91,0.48,1.38
3.370200991630554,1,3,3,1,-9.720000000000001,0.6,-0.17,-9.15,0.36,1.44
3.380200982093811,1,3,3,1,-9.789999999999999,0.59,-0.17,-9.75,0.12,1.22
3.390200972557068,1,3,3,1,-9.73,0.61,-0.58,-10.36,0.09,1.02
3.400200963020325,1,3,3,1,-9.890000000000001,0.61,-0.68,-10.85,-0.19,0.85
3.410200953483582,1,3,3,1,-9.9,0.67,-0.63,-10.85,-0.19,0.85
3.420200943946838,1,3,3,1,-9.869999999999999,0.65,-0.54,-11.05,-0.54,0.67
3.430200934410095,1,3,3,1,-9.68,0.53,-0.66,-11.12,-0.89,0.34
3.440200924873352,1,3,3,1,-9.550000000000001,0.49,-0.68,-11.12,-0.89,0.34
3.450200915336609,1,3,3,1,-9.42,0.46,-0.68,-11.12,-0.9,0.25
3.460200905799866,1,3,3,1,-9.34,0.44,-0.66,-11.1,-0.75,0.12
3.471201062202454,1,3,3,1,-9.279999999999999,0.33,-0.64,-11.09,-0.5600000000000001,0.03
3.48120105266571,1,3,3,1,-9.289999999999999,0.23,-0.63,-11.04,-0.33,-0.04
3.491201043128967,1,3,3,1,-9.279999999999999,0.12,-0.66,-10.92,-0.25,-0.16
3.501201033592224,1,3,3,1,-9.26,-0.01,-0.55,-10.82,-0.22,-0.33
3.511201024055481,1,3,3,1,-9.289999999999999,-0.09,-0.54,-10.76,-0.26,-0.54
3.521201014518738,1,3,3,1,-9.33,-0.08,-0.62,-10.74,-0.28,-0.73
3.531201004981995,1,3,3,1,-9.390000000000001,-0.09,-0.63,-10.57,-0.35,-0.97
3.541200995445251,1,3,3,1,-9.51,-0.11,-0.71,-10.26,-0.47,-1.3
3.551200985908508,1,3,3,1,-9.85,-0.16,-0.67,-9.94,-0.76,-1.58
3.561200976371765,1,3,3,1,-10.07,-0.19,-0.62,-9.5,-1.1,-1.87
3.571200966835022,1,3,3,1,-10.26,-0.3,-0.59,-8.960000000000001,-1.49,-2.1
3.581200957298279,1,3,3,1,-10.43,-0.37,-0.72,-8.369999999999999,-1.91,-2.28
3.591200947761536,1,3,3,1,-10.39,-0.38,-0.7,-7.64,-2.08,-2.5
3.601200938224792,1,3,3,1,-10.31,-0.34,-0.6,-6.77,-2.2,-2.74
3.611200928688049,1,3,3,1,-10.15,-0.29,-0.5,-5.88,-2.22,-2.99
3.621200919151306,1,3,3,1,-10,-0.23,-0.43,-5.23,-2.08,-3.14
3.631200909614563,1,3,3,1,-9.949999999999999,-0.16,-0.55,-4.7,-1.87,-3.1
3.64120090007782,1,3,3,1,-9.83,-0.11,-0.57,-4.29,-1.73,-2.97
3.651200890541077,1,3,3,1,-9.710000000000001,-0.15,-0.48,-3.91,-1.56,-2.8
3.661200881004333,1,3,3,1,-9.699999999999999,-0.19,-0.48,-3.59,-1.47,-2.67
3.67120087146759,1,3,3,1,-9.77,-0.18,-0.6,-3.35,-1.48,-2.61
3.681200861930847,1,3,3,1,-9.84,-0.2,-0.75,-3.18,-1.51,-2.62
3.691200852394104,1,3,3,1,-9.99,-0.22,-0.97,-3.08,-1.54,-2.67
3.701200842857361,1,3,3,1,-10.46,-0.45,-0.95,-2.89,-1.43,-2.75
3.711201071739197,1,3,3,1,-10.68,-0.51,-0.84,-2.56,-1.3,-2.83
3.721201062202454,1,3,3,2,-10.86,-0.55,-0.68,-2.14,-1.14,-2.96
3.73120105266571,1,3,3,2,-11.03,-0.57,-0.55,-1.79,-1.05,-2.94
3.741201043128967,1,3,3,2,-11.52,-0.9399999999999999,-0.24,-1.53,-0.99,-2.86
3.751201033592224,1,3,3,2,-11.65,-1.11,0.11,-1.49,-0.96,-2.72
3.761201024055481,1,3,3,2,-11.64,-1.27,0.45,-1.63,-0.95,-2.49
3.771201014518738,1,3,3,2,-11.57,-1.56,0.25,-1.89,-0.86,-2.17
3.781201004981995,1,3,3,2,-11.6,-1.46,0.18,-2.26,-0.7,-1.82
3.791200995445251,1,3,3,2,-11.64,-1.46,0.49,-2.48,-0.46,-1.47
3.801200985908508,1,3,3,2,-11.52,-1.53,1.06,-2.46,-0.24,-1.04
3.811200976371765,1,3,3,2,-11.22,-1.62,1.48,-2.31,-0.11,-0.57
3.821200966835022,1,3,3,2,-10.99,-1.51,1.39,-2.41,-0.06,-0.05
3.831200957298279,1,3,3,2,-10.67,-1.39,1.33,-2.75,-0.25,0.39
3.841200947761536,1,3,3,2,-10.38,-1.25,1.28,-3.31,-0.78,0.8
3.851200938224792,1,3,3,2,-9.5,-1.14,1.63,-4,-1.59,1.13
3.861200928688049,1,3,3,2,-8.99,-1.08,1.64,-4.91,-2.43,1.41
3.871200919151306,1,3,3,2,-8.48,-1,1.67,-6.05,-2.81,1.78
3.881200909614563,1,3,3,2,-8.029999999999999,-0.87,1.68,-7.36,-2.65,2.28
3.89120090007782,1,3,3,2,-7.55,-0.64,1.79,-8.32,-2.07,2.9
3.901200890541077,1,3,3,2,-7.66,-0.53,1.83,-8.890000000000001,-1.44,3.65
3.911200881004333,1,3,3,2,-8.09,-0.53,1.86,-9.199999999999999,-0.79,4.54
3.92120087146759,1,3,3,2,-9.109999999999999,-0.66,1.81,-9.42,-0.68,5.35
3.931200861930847,1,3,3,2,-9.539999999999999,-0.75,1.68,-9.93,-1.02,5.97
3.941200852394104,1,3,3,2,-9.85,-0.78,1.56,-10.61,-1.4,6.34
3.951200842857361,1,3,3,2,-10.11,-0.79,1.61,-11.06,-1.49,6.53
3.961201071739197,1,3,3,2,-10.41,-0.98,1.74,-11.02,-1.46,6.53
3.971201062202454,1,3,3,2,-10.41,-0.98,1.74,-11.02,-1.46,6.53
3.98120105266571,1,3,3,2,-10.39,-1.08,1.7,-10.4,-1.68,5.88
3.991201043128967,1,3,3,2,-10.28,-1.02,1.59,-10.23,-1.76,5.46
4.001201033592224,1,3,3,2,-9.92,-1,1.65,-10.12,-1.62,5.08
4.011201024055481,1,3,3,2,-9.76,-0.96,1.66,-10.17,-1.37,4.77
4.021201014518738,1,3,3,3,-9.550000000000001,-0.88,1.72,-10.25,-1.3,4.55
4.031201004981995,1,3,3,3,-9.34,-0.82,1.82,-10.4,-1.4,4.38
4.041200995445251,1,3,3,3,-9.07,-0.79,1.8,-10.56,-1.41,4.32
4.051200985908508,1,3,3,3,-9.02,-0.75,1.78,-10.66,-1.41,4.33
4.061200976371765,1,3,3,3,-9.06,-0.65,1.68,-10.7,-1.39,4.46
4.071200966835022,1,3,3,3,-9.130000000000001,-0.5600000000000001,1.47,-10.77,-1.29,4.64
4.081200957298279,1,3,3,3,-9.25,-0.3,1.16,-10.65,-1.2,4.81
4.091200947761536,1,3,3,3,-9.32,-0.17,1.03,-10.47,-1.06,4.95
4.101200938224792,1,3,3,3,-9.359999999999999,-0.07000000000000001,1.05,-10.14,-0.92,4.97
4.111200928688049,1,3,3,3,-9.31,0.18,1.02,-9.98,-0.97,4.87
4.121200919151306,1,3,3,3,-9.289999999999999,0.29,1.07,-9.960000000000001,-1.06,4.66
4.131200909614563,1,3,3,3,-9.210000000000001,0.38,1.24,-10.01,-1.2,4.36
4.14120090007782,1,3,3,3,-9.15,0.43,1.22,-10.25,-1.29,4.07
4.151200890541077,1,3,3,3,-8.970000000000001,0.57,1.18,-10.47,-1.37,3.85
4.161200881004333,1,3,3,3,-8.91,0.57,1.13,-10.7,-1.36,3.68
4.17120087146759,1,3,3,3,-8.789999999999999,0.57,1.05,-10.77,-1.2,3.55
4.181200861930847,1,3,3,3,-8.67,0.49,1.05,-10.83,-0.99,3.33
4.191200852394104,1,3,3,3,-8.539999999999999,0.2,0.9,-10.69,-0.67,3.03
4.201200842857361,1,3,3,3,-8.609999999999999,0,0.98,-10.55,-0.36,2.71
4.211201071739197,1,3,3,3,-8.73,-0.19,0.9399999999999999,-10.34,-0.03,2.4
4.221201062202454,1,3,3,3,-8.869999999999999,-0.32,0.85,-10,0.23,1.95
4.23120105266571,1,3,3,3,-9.32,-0.27,1.02,-9.59,0.3,1.52
4.241201043128967,1,3,3,3,-9.49,-0.11,1.25,-8.859999999999999,0.19,1.18
4.251201033592224,1,3,3,3,-9.470000000000001,-0.2,1.31,-7.61,-0.13,0.9
4.261201024055481,1,3,3,3,-9.289999999999999,-0.22,0.85,-6.45,-0.31,0.6899999999999999
4.271201014518738,1,3,3,3,-9.15,-0.21,0.95,-6.06,-0.36,0.52
4.281201004981995,1,3,3,3,-8.94,-0.26,1.37,-5.99,-0.57,0.32
4.291200995445251,1,3,3,3,-8.779999999999999,-0.18,1.39,-6.15,-0.8,0.12
4.301200985908508,1,3,3,3,-8.52,0.55,1.29,-6.48,-0.48,0.09
4.311200976371765,1,3,3,3,-8.33,0.87,1.54,-6.29,-0.04,0.45
4.321200966835022,1,3,3,3,-8.130000000000001,1.06,1.79,-5.56,0.39,1.06
4.331200957298279,1,3,3,3,-7.96,1.18,1.88,-4.99,0.98,1.65
4.341200947761536,1,3,3,3,-7.92,1.49,1.72,-4.99,1.6,2.07
4.351200938224792,1,3,3,3,-8.119999999999999,1.6,1.55,-5.55,2.31,2.32
4.361200928688049,1,3,3,3,-8.5,1.6,1.1,-6.16,2.92,2.42
4.371200919151306,1,3,3,3,-8.93,1.51,0.83,-6.8,3.39,2.3
4.381200909614563,1,3,3,3,-9.720000000000001,1.39,0.8100000000000001,-7.49,3.49,1.94
4.39120090007782,1,3,3,3,-9.890000000000001,1.37,0.77,-8.119999999999999,3.34,1.65
4.401200890541077,1,3,3,3,-9.92,1.41,0.82,-8.550000000000001,2.99,1.45
4.411200881004333,1,3,3,3,-9.890000000000001,1.48,0.8100000000000001,-8.77,2.64,1.42
4.42120087146759,1,3,3,3,-9.82,1.55,1.1,-8.77,2.34,1.43
4.431200861930847,1,3,3,3,-9.859999999999999,1.59,1.22,-8.779999999999999,1.97,1.47
4.441200852394104,1,3,3,3,-9.93,1.64,1.21,-9.01,1.59,1.54
4.451200842857361,1,3,3,3,-10.09,1.95,1.18,-9.390000000000001,1.22,1.68
4.461201071739197,1,3,3,3,-10.17,2.09,1.21,-9.85,0.92,1.73
4.471201062202454,1,3,3,3,-10.11,2.13,1.36,-10.33,0.7,1.68
4.48120105266571,1,3,3,3,-10.11,2.07,1.55,-10.7,0.65,1.54
4.491201043128967,1,3,3,3,-10.36,1.54,1.65,-10.85,0.66,1.35
4.502200961112976,1,3,3,3,-10.6,1.28,1.6,-10.83,0.53,1.16
4.512200951576233,1,3,3,3,-10.91,0.87,1.73,-10.72,0.38,1.03
4.52220094203949,1,3,3,3,-11.13,0.16,1.78,-10.17,0.12,1
4.532200932502747,1,3,3,3,-11.35,-0.92,1.6,-9.31,-0.13,0.96
4.542200922966003,1,3,3,3,-11.37,-1.31,1.7,-8.029999999999999,-0.26,0.62
4.55220091342926,1,3,3,3,-11.25,-1.87,1.8,-5.77,-0.38,0.01
4.562200903892517,1,3,3,3,-11.33,-2.5,1.9,-2.84,-0.31,-0.5
4.572200894355774,1,3,3,3,-11.76,-3.45,2.03,-0.15,-0.5600000000000001,-0.91
4.582200884819031,1,3,3,3,-11.92,-4.17,1.58,2.13,-1.29,-1.66
4.592200875282288,1,3,3,3,-12.07,-4.08,1.09,3.75,-2.22,-2.68
4.602200865745544,1,3,3,3,-11.45,-3.88,2.27,5.09,-3,-3.12
4.612200856208801,1,3,3,3,-11.04,-3.65,1.97,7.2,-4.26,-3.11
4.622200846672058,1,3,3,3,-10.41,-3.13,1.58,9.18,-5.31,-2.83
4.632201075553894,1,3,3,3,-9.35,-2.34,1.28,10.78,-5.15,-2.08
4.642201066017151,1,3,3,3,-7.67,-1.14,1.4,11.73,-4.04,-1.3
4.652201056480408,1,3,3,3,-7.38,-0.93,1.64,11.9,-2.76,-0.87
4.662201046943665,1,3,3,3,-7.39,-0.91,1.81,11.32,-1.51,-0.71
4.672201037406921,1,3,3,3,-7.8,-0.99,1.64,10.43,-0.16,-0.57
4.682201027870178,1,3,3,3,-9.119999999999999,-1.05,1.31,9.550000000000001,1.13,-0.35
4.692201018333435,1,3,3,3,-9.789999999999999,-1.06,1.17,8.69,2.04,-0.13
4.702201008796692,1,3,3,3,-10.26,-0.95,1.14,7.8,2.35,0.06
4.712200999259949,1,3,3,3,-10.53,-0.72,1.02,7.06,2.15,0.18
4.722200989723206,1,3,3,3,-10.47,-0.5,1.13,6.37,1.72,0.22
4.732200980186462,1,3,3,3,-10.3,-0.61,1.05,5.81,1.23,0.07000000000000001
4.742200970649719,1,3,3,3,-10.34,-0.68,0.97,5.48,0.99,-0.32
4.752200961112976,1,3,3,3,-10.32,-0.88,1.03,5.35,0.9,-0.71
4.762200951576233,1,3,3,3,-10,-1.33,1.24,5.38,0.85,-0.9
4.77220094203949,1,3,3,3,-9.789999999999999,-1.47,1.34,5.55,1.01,-1.07
4.782200932502747,1,3,3,3,-9.6,-1.53,1.42,6.01,1.25,-1.24
4.792200922966003,1,3,3,3,-9.35,-1.77,1.08,6.69,1.52,-1.46
4.80220091342926,1,3,3,3,-9.26,-1.85,1.01,7.39,1.98,-1.7
4.812200903892517,1,3,3,3,-9.26,-1.94,0.82,8,2.32,-1.97
4.822200894355774,1,3,3,2,-9.289999999999999,-1.97,0.66,8.630000000000001,2.72,-2.2
4.832200884819031,1,3,3,2,-9.619999999999999,-1.91,0.41,9.32,2.84,-2.39
4.842200875282288,1,3,3,2,-9.69,-1.91,0.3,10.08,2.74,-2.49
4.852200865745544,1,3,3,2,-9.609999999999999,-1.94,0.37,10.94,2.47,-2.49
4.862200856208801,1,3,3,2,-9.529999999999999,-1.88,0.26,11.8,2.27,-2.46
4.872200846672058,1,3,3,2,-9.470000000000001,-1.62,0.24,12.48,2.2,-2.36
4.882201075553894,1,3,3,2,-9.359999999999999,-1.61,0.22,13.11,2.03,-2.21
4.892201066017151,1,3,3,2,-9.33,-1.54,0.08,13.69,1.89,-2.05
4.902201056480408,1,3,3,2,-9.34,-1.43,0.09,14.01,1.79,-1.78
4.912201046943665,1,3,3,2,-9.25,-1.34,0.21,14.37,1.6,-1.6
4.922201037406921,1,3,3,2,-9.23,-1.36,0.26,14.7,1.45,-1.43
4.932201027870178,1,3,3,2,-9.130000000000001,-1.35,0.18,15.01,1.23,-1.33
4.942201018333435,1,3,3,2,-9.23,-1.29,0.04,15.25,1.1,-1.2
4.952201008796692,1,3,3,2,-9.6,-1.38,0,15.43,1.02,-1.3
4.962200999259949,1,3,3,2,-9.85,-1.29,0.09,15.74,0.52,-1.4
4.972200989723206,1,3,3,2,-9.890000000000001,-1.38,0.1,16.3,-0.68,-1.75
4.982200980186462,1,3,3,2,-9.890000000000001,-1.28,-0.1,16.3,-0.68,-1.75
4.992200970649719,1,3,3,2,-9.92,-1.19,-0.12,16.65,-1.13,-1.85
5.002200961112976,1,3,3,2,-9.92,-1.07,-0.08,16.95,-1.54,-1.85
5.012200951576233,1,3,3,2,-9.890000000000001,-0.9399999999999999,0.08,17.15,-1.98,-1.79
5.02220094203949,1,3,3,1,-9.66,-0.9399999999999999,0.23,16.91,-2.73,-1.69
5.032200932502747,1,3,3,1,-9.619999999999999,-0.87,0.35,16.91,-2.73,-1.69
5.042200922966003,1,3,3,1,-9.619999999999999,-0.8100000000000001,0.35,16.58,-3.2,-1.71
5.05220091342926,1,3,3,1,-9.5,-0.85,0.41,16.37,-3.46,-1.71
5.062200903892517,1,3,3,1,-9.470000000000001,-0.95,0.25,16.37,-3.78,-1.73
5.072200894355774,1,3,3,1,-9.69,-1.03,0.35,16.64,-4.31,-1.73
5.082200884819031,1,3,3,1,-9.779999999999999,-1.24,-0.06,17.18,-4.73,-1.75
5.092200875282288,1,3,3,1,-10.07,-1.41,-0.24,18.07,-5.03,-1.83
5.102200865745544,1,3,3,1,-10.32,-1.38,-0.36,19.23,-5.08,-1.94
5.112200856208801,1,3,3,1,-10.49,-1.57,-0.68,20.53,-5.02,-2.18
5.122200846672058,1,3,3,1,-10.56,-1.39,-0.9,21.69,-5.08,-2.5
5.132201075553894,1,3,3,1,-10.23,-1.18,-0.76,22.89,-5.2,-2.81
5.142201066017151,1,3,3,1,-10.09,-1.17,-0.78,24.05,-5.21,-3.17
5.152201056480408,1,3,3,1,-10,-1.03,-0.97,24.8,-5.02,-3.52
5.162201046943665,1,3,3,1,-10.08,-0.78,-1.04,25.26,-4.73,-3.79
5.172201037406921,1,3,3,1,-10.08,-0.78,-1.04,25.6,-4.42,-4.03
5.182201027870178,1,3,3,1,-10.06,-0.17,-0.99,25.69,-4.17,-4.12
5.192201018333435,1,3,3,1,-9.91,-0.08,-1.06,25.61,-3.8,-4.13
5.202201008796692,1,3,3,1,-9.76,0.1,-0.93,25.21,-3.33,-4.06
5.212200999259949,1,3,3,1,-9.58,0.5,-0.92,24.69,-2.78,-3.96
5.222200989723206,1,3,3,1,-9.58,0.5,-0.92,24.05,-2.11,-3.82
5.232200980186462,1,3,3,1,-9.66,0.61,-0.95,24.05,-2.11,-3.82
5.242200970649719,1,3,3,1,-9.720000000000001,0.46,-0.93,22.49,-1.23,-3.8
5.252200961112976,1,3,3,1,-9.93,-0.2,-0.83,21.83,-0.96,-3.98
5.262200951576233,1,3,3,1,-10.23,-0.74,-0.8100000000000001,21.52,-0.82,-4.27
5.27220094203949,1,3,3,1,-10.23,-0.74,-0.8100000000000001,21.52,-0.82,-4.27
5.282200932502747,1,3,3,1,-10.4,-1.23,-0.77,21.86,-0.89,-4.71
5.292200922966003,1,3,3,1,-10.64,-2.2,-0.26,22.71,-0.87,-4.8
5.30220091342926,1,3,3,1,-10.63,-2.4,0.13,23.75,-0.76,-4.76
5.312200903892517,1,3,3,1,-10.72,-2.44,0.76,24.87,-0.62,-4.65
5.322200894355774,1,3,3,1,-10.72,-2.44,0.76,24.87,-0.62,-4.65
5.332200884819031,1,3,3,1,-10.95,-2.36,2.19,26.16,-0.41,-4.43
5.342200875282288,1,3,3,1,-11.5,-1.81,2.59,27.7,0.04,-3.93
5.352200865745544,1,3,3,1,-11.5,-1.81,2.59,26.86,0.07000000000000001,-3.93
5.362200856208801,1,3,3,1,-11.72,-1.29,2.51,24.71,-0.03,-4.1
5.372200846672058,1,3,3,1,-11.76,-0.17,1.83,24.71,-0.03,-4.1
5.382201075553894,1,3,3,1,-11.97,0.29,1.3,21.83,-0.14,-4.23
5.392201066017151,1,3,3,1,-12.2,0.59,0.91,16.25,-1.38,-4.68
5.402201056480408,1,3,3,1,-12.26,0.6899999999999999,0.58,14.42,-2.66,-5.33
5.412201046943665,1,3,3,1,-11.58,0.71,0.49,13.37,-4.04,-6.24
5.422201037406921,1,3,3,1,-11.01,0.52,0.45,13.37,-4.04,-6.24
5.432201027870178,1,3,3,1,-10.34,0.26,0.5,12.92,-5.1,-7.31
5.442201018333435,1,3,3,1,-9.75,-0.2,0.54,13.2,-6.69,-9.369999999999999
5.452201008796692,1,3,3,1,-8.550000000000001,-1.09,0.5600000000000001,13.05,-6.36,-10.13
5.462200999259949,1,3,3,1,-7.8,-1.37,0.47,13.09,-4.46,-10.58
5.472200989723206,1,3,3,1,-7.45,-1.26,0.62,13.09,-4.46,-10.58
5.482200980186462,1,3,3,1,-7.09,-0.66,1.62,14.39,-2.48,-10.66
5.492200970649719,1,3,3,1,-6.94,-0.52,2.07,19.65,0.19,-9.9
5.502200961112976,1,3,3,1,-7.1,-0.46,2.34,22.58,1.49,-9.16
5.512200951576233,1,3,3,1,-7.35,-0.39,2.61,25.19,2.52,-8.289999999999999
5.523200869560242,1,3,3,1,-8.33,-0.08,2.7,25.19,2.52,-8.289999999999999
5.533200860023499,1,3,3,1,-8.91,0.34,2.68,27.11,2.9,-7.34
5.543200850486755,1,3,3,1,-9.44,0.61,2.61,28.8,1.99,-6.05
5.553201079368591,1,3,3,1,-9.880000000000001,0.77,2.45,28.59,1.36,-5.79
5.563201069831848,1,3,3,1,-10.34,1,1.74,27.84,0.91,-5.79
5.573201060295105,1,3,3,1,-10.36,1.03,1.46,27.84,0.91,-5.79
5.583201050758362,1,3,3,1,-10.18,1.09,1.26,26.94,0.61,-5.89
5.593201041221619,1,3,3,1,-9.800000000000001,1.07,1.3,25.29,0.05,-6.57
5.603201031684875,1,3,3,1,-8.869999999999999,0.71,1.62,24.6,0.04,-6.87
5.613201022148132,1,3,3,1,-8.380000000000001,0.5,1.83,23.97,0.54,-7.08
5.623201012611389,1,3,3,1,-8.02,0.21,1.92,23.97,0.54,-7.08
5.633201003074646,1,3,3,1,-7.83,0.03,1.96,23.51,1.2,-7.18
5.643200993537903,1,3,3,1,-8.01,-0.3,1.96,23.03,2.21,-7.18
5.65320098400116,1,3,3,1,-8.27,-0.37,1.84,22.69,2.64,-6.97
5.663200974464417,1,3,3,1,-8.57,-0.46,1.77,22.23,2.95,-6.61
5.673200964927673,1,3,3,1,-8.99,-0.49,1.54,22.23,2.95,-6.61
5.68320095539093,1,3,3,1,-9.220000000000001,-0.48,1.37,21.82,3.15,-6.2
5.693200945854187,1,3,3,1,-9.43,-0.45,1.28,21.25,2.91,-5.32
5.703200936317444,1,3,3,1,-9.720000000000001,-0.43,1.21,21.23,2.75,-4.89
5.713200926780701,1,3,3,1,-9.970000000000001,-0.68,1.54,21.29,2.59,-4.53
5.723200917243958,1,3,3,1,-10.06,-0.83,1.72,21.29,2.59,-4.53
5.733200907707214,1,3,3,1,-10.09,-0.93,1.84,21.33,2.38,-4.25
5.743200898170471,1,3,3,1,-10.07,-1,1.85,21.29,2.26,-4.16
5.753200888633728,1,3,3,1,-9.960000000000001,-0.92,1.62,21.2,2.37,-4.21
5.763200879096985,1,3,3,1,-9.869999999999999,-0.86,1.6,21.16,2.48,-4.28
5.773200869560242,1,3,3,2,-9.75,-0.79,1.53,21.16,2.48,-4.28
5.783200860023499,1,3,3,2,-9.6,-0.77,1.47,21.13,2.47,-4.41
5.793200850486755,1,3,3,2,-9.35,-0.7,1.36,21.13,2.5,-4.84
5.803201079368591,1,3,3,2,-9.23,-0.7,1.28,21,2.5,-5.06
5.813201069831848,1,3,3,2,-9.130000000000001,-0.72,1.28,21,2.5,-5.06
5.823201060295105,1,3,3,2,-9.140000000000001,-0.84,1.39,20.64,2.62,-5.22
5.833201050758362,1,3,3,2,-9.1,-0.84,1.34,20.26,2.71,-5.38
5.843201041221619,1,3,3,2,-9.029999999999999,-0.8,1.28,19.93,2.8,-5.48
5.853201031684875,1,3,3,2,-9.039999999999999,-0.66,1.22,19.81,2.95,-5.58
5.863201022148132,1,3,3,2,-9.1,-0.5600000000000001,1.33,19.9,2.97,-5.57
5.873201012611389,1,3,3,2,-9.24,-0.47,1.36,20,2.91,-5.44
5.883201003074646,1,3,3,2,-9.4,-0.43,1.45,20.06,2.82,-5.19
5.893200993537903,1,3,3,2,-9.550000000000001,-0.4,1.53,20.06,2.73,-4.84
5.90320098400116,1,3,3,2,-9.779999999999999,-0.31,1.64,19.94,2.5,-4.48
5.913200974464417,1,3,3,2,-9.710000000000001,-0.11,1.7,19.51,2.25,-4.09
5.923200964927673,1,3,3,2,-9.59,-0.01,1.62,18.88,2.16,-3.73
5.93320095539093,1,3,3,2,-9.539999999999999,-0.07000000000000001,1.73,18.07,2.26,-3.57
5.943200945854187,1,3,3,2,-9.1,-0.19,1.99,16.98,2.46,-3.46
5.953200936317444,1,3,3,2,-8.99,-0.08,2.41,16.08,2.64,-3.26
5.963200926780701,1,3,3,2,-8.74,-0.2,2.52,15.92,2.39,-2.84
5.973200917243958,1,3,3,2,-8.279999999999999,-0.41,1.75,15.3,2.66,-2.46
5.983200907707214,1,3,3,1,-8.48,-0.29,2.39,14.62,3.7,-2.05
5.993200898170471,1,3,3,1,-8.390000000000001,-0.62,1.94,15.53,3.67,-1.57
6.003200888633728,1,3,3,1,-8.109999999999999,-0.87,0.82,15.3,3.63,-1.25
6.013200879096985,1,3,3,1,-8.869999999999999,-0.43,1.2,14.67,4.65,-0.84
6.023200869560242,1,3,3,1,-9.02,-0.22,2.04,15.5,4.31,-0.38
6.033200860023499,1,3,3,0,-8.81,-0.36,1.58,16.87,3.42,0.17
6.043200850486755,1,3,3,0,-8.789999999999999,-0.35,0.5600000000000001,16.19,3.55,0.49
6.053201079368591,1,3,3,0,-9.369999999999999,0.15,0.29,14.63,4.13,0.6
6.063201069831848,1,3,3,0,-9.630000000000001,0.28,0.6899999999999999,13.45,4.38,0.79
6.073201060295105,1,3,3,0,-10.16,0.22,0.71,12.01,4.34,1.04
6.083201050758362,1,3,3,0,-10.79,0.26,0.57,9.710000000000001,4.09,1.22
6.093201041221619,1,3,3,0,-12.07,0.17,0.65,7.73,3.53,1.44
6.103201031684875,1,3,3,0,-12.51,-0.04,0.91,6.51,2.58,1.71
6.113201022148132,1,3,3,0,-12.95,-0.41,1.21,5.7,1.34,2
6.123201012611389,1,3,3,0,-13.62,-0.61,1.32,4.76,-0.23,2.34
6.133201003074646,1,3,3,0,-14.86,-0.98,0.19,3.99,-1.64,2.91
6.143200993537903,1,3,3,0,-14.84,-0.75,0.03,2.99,-2.54,3.53
6.15320098400116,1,3,3,0,-13.55,-0.53,-0.02,2.6,-3.14,3.59
6.163200974464417,1,3,3,0,-10.24,-0.28,0.79,2.62,-2.99,2.78
6.173200964927673,1,3,3,0,-9.380000000000001,-0.24,1.13,2.83,-1.96,1.69
6.18320095539093,1,3,3,0,-8.529999999999999,-0.43,1.24,2.91,-0.8100000000000001,0.77
6.193200945854187,1,3,3,0,-7.7,-0.71,1.36,3,0.17,0.16
6.203200936317444,1,3,3,0,-6.57,-1.06,1.03,3.55,1.29,-0.15
6.213200926780701,1,3,3,0,-6.55,-1.19,0.8,4.58,2.63,-0.18
6.223200917243958,1,3,3,0,-6.81,-1.23,0.55,6.12,3.82,0.03
6.233200907707214,1,3,3,0,-7.44,-1.08,0.04,7.55,4.95,0.46
6.243200898170471,1,3,3,0,-9.539999999999999,-0.4,-0.76,9.16,5.67,1.13
6.253200888633728,1,3,3,0,-10.44,-0.13,-1.11,10.9,5.71,1.84
6.263200879096985,1,3,3,0,-10.99,0.14,-0.97,12.48,5.01,2.55
6.273200869560242,1,3,3,0,-11.07,0.32,-0.79,13.97,3.98,3.16
6.283200860023499,1,3,3,0,-10.52,0.61,-0.41,15.16,2.78,3.54
6.293200850486755,1,3,3,0,-10.23,0.67,-0.15,15.94,1.8,3.56
6.303201079368591,1,3,3,0,-9.949999999999999,0.66,-0.2,16.3,1.06,3.24
6.313201069831848,1,3,3,0,-9.9,0.77,-0.16,16.25,0.68,2.83
6.323201060295105,1,3,3,0,-9.94,0.9,-0.08,16.03,0.49,2.33
6.333201050758362,1,3,3,0,-10,1,0.15,15.81,0.52,1.85
6.343201041221619,1,3,3,0,-10.01,1.06,0.33,15.5,0.71,1.27
6.353201031684875,1,3,3,0,-10.11,1.26,0.52,15.05,1.07,0.66
6.363201022148132,1,3,3,0,-10.05,1.27,0.46,14.6,1.41,-0.01
6.373201012611389,1,3,3,0,-10.12,1.39,0.35,13.53,1.68,-0.6
6.383201003074646,1,3,3,0,-10.14,1.45,0.38,12.47,1.97,-1
6.393200993537903,1,3,3,0,-10.04,1.2,0.58,11.5,1.98,-1.26
6.40320098400116,1,3,3,0,-9.890000000000001,1.03,0.49,10.44,1.9,-1.32
6.413200974464417,1,3,3,0,-9.76,0.9399999999999999,0.5,9.390000000000001,1.79,-1.23
6.423200964927673,1,3,3,0,-9.68,0.89,0.59,8.73,1.6,-1.12
6.43320095539093,1,3,3,0,-9.41,0.62,0.4,8.130000000000001,1.26,-0.93
6.443200945854187,1,3,3,0,-9.369999999999999,0.5,0.25,7.45,0.79,-0.8
6.453200936317444,1,3,3,0,-9.31,0.36,0.06,6.98,0.45,-0.7
6.463200926780701,1,3,3,0,-9.369999999999999,0.23,0.03,6.68,0.19,-0.59
6.473200917243958,1,3,3,0,-9.4,-0.09,-0.05,6.24,-0.07000000000000001,-0.5600000000000001
6.483200907707214,1,3,3,0,-9.44,-0.18,-0.12,5.81,-0.3,-0.49
6.493200898170471,1,3,3,0,-9.529999999999999,-0.24,-0.19,5.51,-0.37,-0.47
6.503200888633728,1,3,3,0,-9.65,-0.33,-0.27,5.48,-0.36,-0.41
6.513200879096985,1,3,3,0,-9.65,-0.62,-0.05,5.68,-0.38,-0.4
6.523200869560242,1,3,3,0,-9.58,-0.77,0.03,5.91,-0.38,-0.37
6.533200860023499,1,3,3,0,-9.51,-0.96,0.12,6.15,-0.23,-0.36
6.543200850486755,1,3,3,0,-9.699999999999999,-0.96,-0.03,6.29,-0.08,-0.44
6.554201006889343,1,3,3,0,-9.789999999999999,-0.78,0.05,6.2,0.06,-0.53
6.5642009973526,1,3,3,0,-9.869999999999999,-0.6899999999999999,0.34,6.31,0.15,-0.62
6.574200987815857,1,3,3,0,-9.74,-0.62,0.5600000000000001,6.45,0.28,-0.73
6.584200978279114,1,3,3,0,-9.69,-0.25,0.67,6.34,0.42,-0.82
6.594200968742371,1,3,3,0,-9.66,-0.02,0.72,6.03,0.38,-0.8
6.604200959205627,2,3,3,0,-9.74,0.31,0.63,5.51,0.2,-0.72
6.614200949668884,2,3,3,0,-9.85,0.5600000000000001,0.86,4.74,-0.33,-0.62
6.624200940132141,2,3,3,0,-9.890000000000001,0.89,1.31,3.86,-1.35,-0.25
6.634200930595398,2,3,3,0,-9.859999999999999,0.85,1.22,2.99,-2.29,0.17
6.644200921058655,2,3,3,0,-9.869999999999999,0.85,1.1,1.82,-3.09,0.49
6.654200911521912,2,3,3,0,-10,0.75,0.8100000000000001,0.4,-3.85,0.6
6.664200901985168,2,3,3,0,-10.38,0.1,0.77,-0.9399999999999999,-4.44,0.48
6.674200892448425,2,3,3,0,-10.54,-0.27,1.33,-1.96,-5.09,0.05
6.694200873374939,2,3,3,0,-9.960000000000001,-1.47,2.22,-2.94,-5.53,-0.88
6.704200863838196,2,3,3,0,-9.73,-1.49,2.18,-2.74,-4.25,-1.1
6.714200854301453,2,3,3,0,-9.93,-1.21,1.88,-2.03,-2.02,-1.23
6.724200844764709,2,3,3,0,-10.25,-0.79,1.53,-1.34,0.14,-1.3
6.734201073646545,2,3,3,0,-10.54,-0.14,1.13,-0.6,1.38,-1.5
6.744201064109802,2,3,3,0,-10.59,-0.07000000000000001,0.8100000000000001,0.66,1.45,-1.92
6.754201054573059,2,3,3,0,-10.6,0.07000000000000001,0.26,1.97,0.3,-2.47
6.764201045036316,2,3,3,0,-10.42,0.22,0.25,3.1,-0.86,-2.75
6.774201035499573,2,3,3,0,-9.880000000000001,0.37,0.5600000000000001,4.41,-1.51,-2.78
6.78420102596283,2,3,3,0,-9.390000000000001,0.6,0.6,5.51,-2.58,-2.71
6.794201016426086,2,3,3,0,-8.960000000000001,0.7,0.92,6.37,-3.6,-2.61
6.804201006889343,2,3,3,0,-8.65,0.68,1.23,7.12,-4.25,-2.4
6.8142009973526,2,3,3,0,-8.52,0.84,2.2,7.73,-4.57,-2.11
6.824200987815857,2,3,3,0,-8.550000000000001,1.03,2.43,8.130000000000001,-4.72,-1.65
6.834200978279114,2,3,3,0,-8.74,1.28,2.59,7.98,-4.38,-0.87
6.844200968742371,2,3,3,0,-9.109999999999999,1.61,2.68,7.09,-3.3,-0.01
6.854200959205627,2,3,3,0,-9.59,2.33,2.34,5.43,-2.47,0.5600000000000001
6.864200949668884,2,3,3,0,-9.85,2.53,2.45,3.37,-1.79,0.8
6.874200940132141,2,3,3,0,-10.14,2.56,2.55,1.46,-1.36,0.78
6.884200930595398,2,3,3,0,-10.17,1.91,1.89,-0.1,-1.43,0.65
6.894200921058655,2,3,3,0,-10.19,1.69,1.69,-1.55,-1.53,0.31
6.904200911521912,2,3,3,0,-10.07,1.48,1.57,-2.68,-1.48,-0.03
6.914200901985168,2,3,3,0,-9.869999999999999,1.24,1.7,-3.28,-1.59,-0.3
6.924200892448425,2,3,3,0,-9.529999999999999,0.75,1.74,-3.73,-1.88,-0.58
6.934200882911682,2,3,3,0,-9.460000000000001,0.5600000000000001,2.12,-3.88,-2.17,-0.64
6.944200873374939,2,3,3,0,-9.26,0.16,2.16,-3.45,-2.6,-0.35
6.954200863838196,2,3,3,0,-9.119999999999999,0.02,1.88,-3.24,-2.9,-0.04
6.964200854301453,2,3,3,0,-8.74,0.02,1.91,-3.31,-2.74,0.25
6.974200844764709,2,3,3,0,-8.470000000000001,0.05,1.96,-3.19,-2.5,0.38
6.984201073646545,2,3,3,0,-8.41,0.13,2.25,-2.99,-1.97,0.37
6.994201064109802,2,3,3,0,-8.35,-0.12,2.54,-2.45,-1.69,0.29
7.004201054573059,2,3,3,0,-8.49,-0.13,2.01,-2.16,-1.42,0.03
7.014201045036316,2,3,3,0,-8.6,-0.17,2.03,-2.11,-0.55,-0.23
7.024201035499573,2,3,3,0,-8.82,-0.21,2.02,-1.86,-0.05,-0.61
7.03420102596283,2,3,3,0,-9.210000000000001,-0.36,1.94,-1.43,0.18,-0.99
7.044201016426086,2,3,3,0,-9.300000000000001,-0.42,1.87,-0.77,0.08,-1.37
7.054201006889343,2,3,3,0,-9.279999999999999,-0.53,1.77,-0.19,0.23,-1.65
7.0642009973526,2,3,3,0,-9.23,-0.5,1.7,0.28,0.35,-1.83
7.074200987815857,2,3,3,0,-9.109999999999999,-0.38,1.93,0.51,0.49,-1.93
7.084200978279114,2,3,3,0,-9.029999999999999,-0.41,1.93,1.03,0.45,-1.87
7.094200968742371,2,3,3,0,-9.01,-0.47,1.89,1.59,0.65,-1.66
7.104200959205627,2,3,3,0,-8.99,-0.45,1.75,1.79,0.9399999999999999,-1.45
7.114200949668884,2,3,3,0,-9.06,-0.44,1.94,1.7,1.21,-1.33
7.124200940132141,2,3,3,0,-9.140000000000001,-0.38,1.95,1.68,1.44,-1.2
7.134200930595398,2,3,3,0,-9.25,-0.28,1.94,1.61,1.64,-1.06
7.144200921058655,2,3,3,0,-9.34,-0.17,2.02,1.58,1.81,-0.92
7.154200911521912,2,3,3,0,-9.26,-0.05,2,1.69,1.94,-0.8
7.164200901985168,2,3,3,0,-9.17,-0.07000000000000001,1.91,1.67,2.04,-0.7
7.174200892448425,2,3,3,0,-9.1,-0.01,1.8,1.23,2.31,-0.71
7.184200882911682,2,3,3,0,-9.050000000000001,0.01,1.82,0.49,2.48,-0.7
7.194200873374939,2,3,3,0,-9,0.19,1.93,-0.22,2.7,-0.66
7.204200863838196,2,3,3,0,-9.01,0.23,1.96,-0.8,2.85,-0.58
7.214200854301453,2,3,3,0,-9.119999999999999,0.18,2.09,-1.26,2.98,-0.41
7.224200844764709,2,3,3,0,-9.380000000000001,0.05,2.02,-1.52,3.18,-0.1
7.234201073646545,2,3,3,0,-9.550000000000001,-0.14,1.84,-1.6,3.4,0.34
7.244201064109802,2,3,3,0,-9.710000000000001,-0.33,1.69,-1.96,3.54,0.73
7.254201054573059,2,3,3,0,-9.92,-0.4,1.53,-2.63,3.55,0.9399999999999999
7.264201045036316,2,3,3,0,-10.18,-0.39,1.72,-3.37,3.57,1.1
7.324200987815857,2,3,3,0,-10.35,-0.63,1.75,-5.15,3.54,1.47
7.334200978279114,2,3,3,0,-10.15,-0.84,1.47,-4.96,3.16,1.42
7.344200968742371,2,3,3,0,-9.960000000000001,-0.78,0.9399999999999999,-5.14,3.02,1.37
7.354200959205627,2,3,3,0,-9.869999999999999,-0.6899999999999999,1.11,-5.06,2.91,1.26
7.364200949668884,2,3,3,0,-9.76,-0.88,1.32,-4.1,2.54,1.07
7.374200940132141,2,3,3,0,-9.460000000000001,-1.09,0.76,-3.22,2,0.88
7.384200930595398,2,3,3,0,-9.32,-0.87,0.48,-3.32,1.78,0.68
7.394200921058655,2,3,3,0,-9.27,-0.76,0.65,-3.18,1.72,0.41
7.404200911521912,2,3,3,0,-9.279999999999999,-0.6,0.86,-3.02,1.57,0.23
7.414200901985168,2,3,3,0,-9.550000000000001,-0.71,0.49,-2.84,1.35,0.16
7.424200892448425,2,3,3,0,-9.6,-0.79,0.26,-2.53,1.15,0.04
7.434200882911682,2,3,3,0,-9.699999999999999,-0.78,0.19,-2.52,1.16,-0.06
7.444200873374939,2,3,3,0,-9.789999999999999,-0.66,0.18,-2.62,1.3,-0.24
7.454200863838196,2,3,3,0,-10.13,-0.62,0.38,-2.71,1.42,-0.4
7.464200854301453,2,3,3,0,-10.3,-0.62,0.53,-2.67,1.4,-0.47
7.474200844764709,2,3,3,0,-10.49,-0.65,0.44,-2.56,1.29,-0.42
7.484201073646545,2,3,3,0,-10.56,-0.75,0.23,-2.49,1.34,-0.27
7.494201064109802,2,3,3,0,-10.35,-0.92,0.02,-2.53,1.4,-0.21
7.504201054573059,2,3,3,0,-10.24,-0.91,0.04,-2.76,1.42,-0.16
7.514201045036316,2,3,3,0,-10.07,-0.88,0.21,-2.81,1.37,-0.09
7.524201035499573,2,3,3,0,-9.880000000000001,-0.84,-0.02,-2.64,1.27,0.02
7.53420102596283,2,3,3,0,-9.859999999999999,-0.66,0.06,-2.4,1.22,0.14
7.544201016426086,2,3,3,0,-9.800000000000001,-0.62,0.05,-2.09,1.08,0.33
7.554201006889343,2,3,3,0,-9.779999999999999,-0.57,0.01,-1.74,0.98,0.4
7.5642009973526,2,3,3,0,-9.77,-0.37,0.1,-1.17,0.77,0.5600000000000001
7.575200915336609,2,3,3,0,-9.890000000000001,-0.23,0.11,-1.17,0.77,0.5600000000000001
7.585200905799866,2,3,3,0,-9.890000000000001,-0.23,0.11,-1.09,0.1,0.72
7.595200896263123,2,3,3,0,-10.08,-0.09,0.33,-1.09,0.1,0.72
7.605200886726379,2,3,3,0,-9.890000000000001,-0.21,0.46,-0.7,-0.84,0.6899999999999999
7.615200877189636,2,3,3,0,-9.890000000000001,-0.23,0.5600000000000001,-0.58,-1.33,0.63
7.625200867652893,2,3,3,0,-9.85,-0.24,0.59,-0.6,-1.87,0.55
7.63520085811615,2,3,3,0,-9.85,-0.24,0.59,-0.71,-2.4,0.44
7.645200848579407,2,3,3,0,-9.789999999999999,-0.38,0.7,-0.85,-2.81,0.34
7.655201077461243,2,3,3,0,-9.720000000000001,-0.79,0.61,-1.01,-3,0.3
7.6652010679245,2,3,3,0,-9.76,-0.9,0.58,-0.93,-3.03,0.32
7.675201058387756,2,3,3,0,-9.92,-1.06,0.51,-0.8,-2.99,0.31
7.685201048851013,2,3,3,0,-9.92,-1.06,0.51,-0.8,-2.99,0.31
7.69520103931427,2,3,3,0,-10.15,-1.19,0.43,-0.61,-3.15,0.39
7.705201029777527,2,3,3,0,-10.07,-1.13,0.52,0,-3.29,0.44
7.715201020240784,2,3,3,0,-9.92,-1.04,0.68,0.18,-3.09,0.49
7.725201010704041,2,3,3,0,-9.59,-0.91,1.22,0.26,-2.6,0.5
7.735201001167297,2,3,3,0,-9.59,-0.91,1.22,0.26,-2.6,0.5
7.745200991630554,2,3,3,0,-9.539999999999999,-0.79,1.29,0.22,-1.99,0.53
7.755200982093811,2,3,3,0,-9.57,-0.63,1.42,0.36,-0.62,0.57
7.765200972557068,2,3,3,0,-9.300000000000001,-0.7,1.42,0.39,0.06,0.5
7.775200963020325,2,3,3,0,-9.24,-0.66,1.21,0.51,0.62,0.38
7.785200953483582,2,3,3,0,-9.220000000000001,-0.62,1.13,0.51,0.62,0.38
7.795200943946838,2,3,3,0,-9.130000000000001,-0.73,1.03,0.67,0.92,0.27
7.805200934410095,2,3,3,0,-9.32,-0.82,0.55,1.08,1.04,0.12
7.815200924873352,2,3,3,0,-9.470000000000001,-0.86,0.54,1.3,0.72,0.04
7.825200915336609,2,3,3,0,-9.550000000000001,-0.8100000000000001,0.6,1.55,0.4,-0.03
7.835200905799866,2,3,3,0,-9.609999999999999,-0.72,0.62,1.55,0.4,-0.03
7.845200896263123,2,3,3,0,-9.640000000000001,-0.54,0.71,1.72,0.11,-0.02
7.855200886726379,2,3,3,0,-9.630000000000001,-0.42,0.9,1.53,-0.27,0.1
7.865200877189636,2,3,3,0,-9.58,-0.35,0.89,1.03,-0.39,0.22
7.875200867652893,2,3,3,0,-9.539999999999999,-0.27,0.89,0.46,-0.41,0.29
7.88520085811615,2,3,3,0,-9.51,-0.26,1.16,0.46,-0.41,0.29
7.895200848579407,2,3,3,0,-9.550000000000001,-0.32,1.27,0,-0.34,0.31
7.905201077461243,2,3,3,0,-9.58,-0.32,1.33,-0.41,-0.17,0.09
7.9152010679245,2,3,3,0,-9.619999999999999,-0.31,1.38,-0.39,-0.15,-0.12
7.925201058387756,2,3,3,0,-9.82,-0.37,1.59,-0.39,-0.16,-0.31
7.935201048851013,2,3,3,0,-9.880000000000001,-0.48,1.58,-0.39,-0.16,-0.31
7.94520103931427,2,3,3,0,-9.890000000000001,-0.59,1.52,-0.59,-0.15,-0.45
7.955201029777527,2,3,3,0,-9.81,-0.64,1.35,-0.71,-0.07000000000000001,-0.77
7.965201020240784,2,3,3,0,-9.81,-0.66,1.21,-0.44,-0.07000000000000001,-0.91
7.975201010704041,2,3,3,0,-9.74,-0.73,1.17,-0.11,-0.04,-1
7.985201001167297,2,3,3,0,-9.640000000000001,-0.83,1.14,-0.11,-0.04,-1
7.995200991630554,2,3,3,0,-9.43,-0.88,0.98,0.14,-0.06,-1.03
8.005200982093811,2,3,3,0,-9.359999999999999,-0.83,0.92,0.75,0.03,-0.88
8.015200972557068,2,3,3,0,-9.359999999999999,-0.8100000000000001,0.87,1.02,0.09,-0.8100000000000001
8.025200963020325,2,3,3,0,-9.41,-0.8,0.9399999999999999,1.23,0.1,-0.68
8.035200953483582,2,3,3,0,-9.550000000000001,-0.86,1.21,1.23,0.1,-0.68
8.045200943946838,2,3,3,0,-9.6,-0.84,1.27,1.08,-0.04,-0.53
8.055200934410095,2,3,3,0,-9.630000000000001,-0.82,1.24,1.1,-0.1,-0.36
8.065200924873352,2,3,3,0,-9.65,-0.79,1.07,1.25,-0.06,-0.4
8.075200915336609,2,3,3,0,-9.65,-0.6899999999999999,1.1,1.33,0.02,-0.42
8.085200905799866,2,3,3,0,-9.640000000000001,-0.65,1.1,1.33,0.02,-0.42
8.095200896263123,2,3,3,0,-9.699999999999999,-0.66,1.09,1.35,0.08,-0.49
8.105200886726379,2,3,3,0,-9.76,-0.6,1.05,1.25,0.08,-0.55
8.115200877189636,2,3,3,0,-9.81,-0.59,0.99,1.21,0.03,-0.62
8.125200867652893,2,3,3,0,-9.85,-0.5600000000000001,1.01,1.21,-0.07000000000000001,-0.6
8.13520085811615,2,3,3,0,-9.869999999999999,-0.54,0.99,1.21,-0.07000000000000001,-0.6
8.145200848579407,2,3,3,0,-9.859999999999999,-0.6,1.06,1.2,-0.2,-0.5600000000000001
8.155201077461243,2,3,3,0,-9.789999999999999,-0.59,1.04,1.17,-0.33,-0.47
8.1652010679245,2,3,3,0,-9.76,-0.5600000000000001,0.9,0.84,-0.42,-0.34
8.175201058387756,2,3,3,0,-9.74,-0.54,1,0.73,-0.5,-0.32
8.185201048851013,2,3,3,0,-9.699999999999999,-0.58,1.01,0.73,-0.5,-0.32
8.19520103931427,2,3,3,0,-9.66,-0.58,1.08,0.6899999999999999,-0.47,-0.31
8.205201029777527,2,3,3,0,-9.65,-0.57,1.14,0.65,-0.4,-0.29
8.215201020240784,2,3,3,0,-9.67,-0.55,1.11,0.5,-0.29,-0.26
8.225201010704041,2,3,3,0,-9.699999999999999,-0.58,1.2,0.29,-0.21,-0.26
8.235201001167297,2,3,3,0,-9.75,-0.59,1.24,0.09,-0.15,-0.27
8.245200991630554,2,3,3,0,-9.77,-0.64,1.31,-0.05,-0.14,-0.3
8.255200982093811,2,3,3,0,-9.779999999999999,-0.68,1.34,-0.17,-0.08,-0.29
8.265200972557068,2,3,3,0,-9.81,-0.77,1.25,-0.32,-0.04,-0.32
8.275200963020325,2,3,3,0,-9.800000000000001,-0.84,1.27,-0.45,-0.02,-0.3
8.285200953483582,2,3,3,0,-9.77,-0.88,1.32,-0.57,-0.04,-0.28
8.295200943946838,2,3,3,0,-9.699999999999999,-0.97,1.25,-0.63,-0.12,-0.25
8.305200934410095,2,3,3,0,-9.67,-0.96,1.17,-0.57,-0.13,-0.18
8.315200924873352,2,3,3,0,-9.640000000000001,-0.96,1.05,-0.48,-0.26,-0.02
8.325200915336609,2,3,3,0,-9.539999999999999,-0.91,1.06,-0.33,-0.39,0.07000000000000001
8.335200905799866,2,3,3,0,-9.539999999999999,-0.8,1.04,-0.1,-0.54,0.23
8.345200896263123,2,3,3,0,-9.539999999999999,-0.76,1.2,0.16,-0.63,0.31
8.355200886726379,2,3,3,0,-9.550000000000001,-0.72,1.35,0.44,-0.7,0.49
8.365200877189636,2,3,3,0,-9.58,-0.73,1.33,0.67,-0.74,0.63
8.375200867652893,2,3,3,0,-9.59,-0.63,1.3,0.6899999999999999,-0.8100000000000001,0.73
8.38520085811615,2,3,3,0,-9.6,-0.58,1.36,0.5,-0.86,0.77
8.395200848579407,2,3,3,0,-9.619999999999999,-0.53,1.4,0.37,-0.83,0.72
8.405201077461243,2,3,3,0,-9.66,-0.48,1.45,0.31,-0.72,0.6899999999999999
8.4152010679245,2,3,3,0,-9.710000000000001,-0.53,1.33,0.16,-0.58,0.61
8.425201058387756,2,3,3,0,-9.74,-0.5,1.38,-0.01,-0.46,0.51
8.435201048851013,2,3,3,0,-9.73,-0.48,1.35,-0.18,-0.35,0.38
8.44520103931427,2,3,3,0,-9.67,-0.4,1.38,-0.45,-0.29,0.24
8.455201029777527,2,3,3,0,-9.66,-0.39,1.31,-0.65,-0.19,0.14
8.465201020240784,2,3,3,0,-9.609999999999999,-0.41,1.25,-0.87,-0.14,0.07000000000000001
8.475201010704041,2,3,3,0,-9.59,-0.4,1.23,-1.04,-0.14,0.02
8.485201001167297,2,3,3,0,-9.57,-0.43,1.33,-1.28,-0.14,0.01
8.495200991630554,2,3,3,0,-9.550000000000001,-0.46,1.33,-1.36,-0.13,0.04
8.505200982093811,2,3,3,0,-9.539999999999999,-0.45,1.34,-1.4,-0.13,0.05
8.515200972557068,2,3,3,0,-9.56,-0.44,1.26,-1.45,-0.08,0.07000000000000001
8.525200963020325,2,3,3,0,-9.59,-0.49,1.31,-1.51,-0.07000000000000001,0.1
8.535200953483582,2,3,3,0,-9.56,-0.51,1.34,-1.58,-0.07000000000000001,0.08
8.545200943946838,2,3,3,0,-9.539999999999999,-0.5600000000000001,1.37,-1.54,0.01,0.05
8.555200934410095,2,3,3,0,-9.58,-0.58,1.37,-1.54,-0.02,0.03
8.565200924873352,2,3,3,0,-9.619999999999999,-0.67,1.23,-1.5,-0.04,-0.03
8.575200915336609,2,3,3,0,-9.640000000000001,-0.7,1.24,-1.39,0,-0.09
8.585200905799866,2,3,3,0,-9.640000000000001,-0.72,1.24,-1.24,-0.02,-0.11
8.596201062202454,2,3,3,0,-9.65,-0.73,1.24,-1.05,0.02,-0.12
8.60620105266571,2,3,3,0,-9.66,-0.73,1.19,-0.91,0,-0.16
8.616201043128967,2,3,3,0,-9.640000000000001,-0.75,1.16,-0.8100000000000001,0.04,-0.16
8.626201033592224,2,3,3,0,-9.630000000000001,-0.78,1.17,-0.68,0.05,-0.18
8.646201014518738,2,3,3,0,-9.66,-0.79,1.24,-0.42,0.04,-0.16
8.656201004981995,2,3,3,0,-9.66,-0.79,1.24,-0.32,0.05,-0.16
8.666200995445251,2,3,3,0,-9.69,-0.79,1.15,-0.21,0.05,-0.13
8.676200985908508,2,3,3,0,-9.68,-0.74,1.23,-0.07000000000000001,0.07000000000000001,-0.13
8.686200976371765,2,3,3,0,-9.65,-0.73,1.24,0.03,0.05,-0.14
8.696200966835022,2,3,3,0,-9.630000000000001,-0.71,1.27,0.08,0.03,-0.12
8.706200957298279,2,3,3,0,-9.640000000000001,-0.68,1.28,0.09,0.05,-0.1
8.716200947761536,2,3,3,0,-9.66,-0.66,1.17,0.05,0.04,-0.09
8.726200938224792,2,3,3,0,-9.67,-0.64,1.16,0.02,0.05,-0.04
8.736200928688049,2,3,3,0,-9.68,-0.65,1.22,-0.08,0.07000000000000001,-0.03
8.746200919151306,2,3,3,0,-9.710000000000001,-0.62,1.23,-0.11,0.06,0.05
8.756200909614563,2,3,3,0,-9.699999999999999,-0.68,1.22,-0.16,0.01,0.1
8.76620090007782,2,3,3,0,-9.699999999999999,-0.6899999999999999,1.17,-0.23,-0.08,0.18
8.776200890541077,2,3,3,0,-9.699999999999999,-0.71,1.17,-0.29,-0.1,0.22
8.786200881004333,2,3,3,0,-9.68,-0.72,1.17,-0.34,-0.05,0.23
8.79620087146759,2,3,3,0,-9.640000000000001,-0.74,1.22,-0.34,-0.07000000000000001,0.26
8.806200861930847,2,3,3,0,-9.65,-0.73,1.24,-0.32,-0.04,0.26
8.816200852394104,2,3,3,0,-9.66,-0.74,1.17,-0.31,0.01,0.28
8.826200842857361,2,3,3,0,-9.67,-0.74,1.21,-0.3,0.04,0.28
8.836201071739197,2,3,3,0,-9.69,-0.75,1.22,-0.34,0.04,0.3
8.846201062202454,2,3,3,0,-9.699999999999999,-0.76,1.24,-0.33,0.09,0.31
8.85620105266571,2,3,3,0,-9.76,-0.75,1.24,-0.33,0.08,0.33
8.866201043128967,2,3,3,0,-9.81,-0.76,1.11,-0.28,0.07000000000000001,0.37
8.876201033592224,2,3,3,0,-9.800000000000001,-0.75,1.17,-0.26,0.08,0.43
8.886201024055481,2,3,3,0,-9.83,-0.77,1.2,-0.23,0.08,0.51
8.896201014518738,2,3,3,0,-9.779999999999999,-0.6899999999999999,1.28,-0.23,0.08,0.55
8.906201004981995,2,3,3,0,-9.69,-0.74,1.13,-0.11,0.21,0.64
8.916200995445251,2,3,3,0,-9.630000000000001,-0.77,1.11,-0.02,0.26,0.67
8.926200985908508,2,3,3,0,-9.58,-0.68,1.09,-0.15,0.27,0.68
8.936200976371765,2,3,3,0,-9.58,-0.65,1.08,-0.21,0.32,0.6899999999999999
8.946200966835022,2,3,3,0,-9.57,-0.61,1.09,-0.21,0.38,0.68
8.956200957298279,2,3,3,0,-9.6,-0.6,1.05,-0.19,0.47,0.68
8.966200947761536,2,3,3,0,-9.640000000000001,-0.6,1.02,-0.25,0.5,0.7
8.976200938224792,2,3,3,0,-9.67,-0.54,1.04,-0.24,0.4,0.6899999999999999
8.986200928688049,2,3,3,0,-9.699999999999999,-0.5,1.02,-0.35,0.34,0.68
8.996200919151306,2,3,3,0,-9.710000000000001,-0.5,1.07,-0.33,0.29,0.71
9.006200909614563,2,3,3,0,-9.73,-0.5,1.08,-0.29,0.23,0.68
9.01620090007782,2,3,3,0,-9.69,-0.5,0.97,-0.25,0.18,0.6899999999999999
9.026200890541077,2,3,3,0,-9.69,-0.5,1.05,-0.28,0.12,0.65
9.036200881004333,2,3,3,0,-9.640000000000001,-0.52,1.08,-0.32,0.06,0.6
9.04620087146759,2,3,3,0,-9.630000000000001,-0.5,1.1,-0.29,0.05,0.54
9.056200861930847,2,3,3,0,-9.619999999999999,-0.49,1.03,-0.28,0.03,0.5
9.066200852394104,2,3,3,0,-9.67,-0.5,0.95,-0.3,0.03,0.42
9.076200842857361,2,3,3,0,-9.67,-0.5,1.01,-0.31,0.03,0.35
9.086201071739197,2,3,3,0,-9.699999999999999,-0.53,1.08,-0.28,0,0.3
9.096201062202454,2,3,3,0,-9.720000000000001,-0.58,1.14,-0.27,-0.04,0.22
9.10620105266571,2,3,3,0,-9.720000000000001,-0.58,1.07,-0.23,-0.07000000000000001,0.15
9.116201043128967,2,3,3,0,-9.720000000000001,-0.59,1,-0.23,-0.1,0.12
9.126201033592224,2,3,3,0,-9.710000000000001,-0.6,1.05,-0.21,-0.07000000000000001,0.02
9.136201024055481,2,3,3,0,-9.69,-0.64,1.16,-0.15,-0.1,-0.05
9.146201014518738,2,3,3,0,-9.68,-0.67,1.15,-0.04,-0.1,-0.1
9.156201004981995,2,3,3,0,-9.699999999999999,-0.7,1.1,0,-0.09,-0.1
9.166200995445251,2,3,3,0,-9.710000000000001,-0.68,1.02,0.09,-0.09,-0.11
9.176200985908508,2,3,3,0,-9.69,-0.64,1.05,0.16,-0.13,-0.14
9.186200976371765,2,3,3,0,-9.68,-0.65,1.07,0.26,-0.16,-0.11
9.196200966835022,2,3,3,0,-9.67,-0.63,1.1,0.33,-0.19,-0.13
9.206200957298279,2,3,3,0,-9.66,-0.58,1.09,0.38,-0.17,-0.1
9.216200947761536,2,3,3,0,-9.66,-0.59,1.06,0.41,-0.17,-0.1
9.226200938224792,2,3,3,0,-9.66,-0.58,1.09,0.43,-0.18,-0.05
9.236200928688049,2,3,3,0,-9.67,-0.5600000000000001,1.15,0.47,-0.18,-0.07000000000000001
9.246200919151306,2,3,3,0,-9.640000000000001,-0.51,1.17,0.45,-0.17,-0.05
9.256200909614563,2,3,3,0,-9.68,-0.52,1.14,0.43,-0.18,-0.03
9.26620090007782,2,3,3,0,-9.710000000000001,-0.49,1.04,0.37,-0.19,0.01
9.276200890541077,2,3,3,0,-9.69,-0.46,1.05,0.33,-0.14,0
9.286200881004333,2,3,3,0,-9.699999999999999,-0.48,1.17,0.32,-0.14,0
9.29620087146759,2,3,3,0,-9.699999999999999,-0.46,1.17,0.31,-0.14,0
9.306200861930847,2,3,3,0,-9.710000000000001,-0.47,1.16,0.28,-0.14,-0.03
9.316200852394104,2,3,3,0,-9.68,-0.46,1.05,0.22,-0.13,-0.04
9.366201043128967,2,3,3,0,-9.66,-0.49,1.09,-0.06,-0.1,-0.1
9.376201033592224,2,3,3,0,-9.66,-0.5,1.17,-0.11,-0.11,-0.12
9.386201024055481,2,3,3,0,-9.68,-0.55,1.19,-0.16,-0.1,-0.16
9.396201014518738,2,3,3,0,-9.68,-0.63,1.22,-0.2,-0.09,-0.15
9.406201004981995,2,3,3,0,-9.67,-0.65,1.19,-0.16,-0.12,-0.17
9.416200995445251,2,3,3,0,-9.67,-0.63,1.11,-0.13,-0.11,-0.17
9.426200985908508,2,3,3,0,-9.66,-0.65,1.17,-0.12,-0.11,-0.16
9.436200976371765,2,3,3,0,-9.66,-0.65,1.19,-0.09,-0.06,-0.15
9.446200966835022,2,3,3,0,-9.67,-0.67,1.22,-0.07000000000000001,-0.05,-0.16
9.456200957298279,2,3,3,0,-9.69,-0.64,1.21,-0.03,-0.01,-0.17
9.466200947761536,2,3,3,0,-9.65,-0.64,1.14,0.02,-0.03,-0.13
9.476200938224792,2,3,3,0,-9.630000000000001,-0.64,1.21,0.09,-0.03,-0.14
9.487200856208801,2,3,3,0,-9.640000000000001,-0.62,1.23,0.16,-0.01,-0.13
9.496200919151306,2,3,3,1,-9.640000000000001,-0.61,1.25,0.17,0.01,-0.13
9.506200909614563,2,3,3,1,-9.65,-0.63,1.16,0.17,-0.01,-0.1
9.517201066017151,2,3,3,1,-9.65,-0.62,1.12,0.15,-0.01,-0.09
9.526200890541077,2,3,3,1,-9.66,-0.63,1.19,0.19,-0.04,-0.06
9.536200881004333,2,3,3,1,-9.68,-0.63,1.22,0.19,-0.03,-0.06
9.547201037406921,2,3,3,1,-9.66,-0.63,1.27,0.16,-0.03,-0.05
9.556200861930847,2,3,3,1,-9.67,-0.62,1.23,0.18,-0.03,-0.04
9.566200852394104,2,3,3,1,-9.67,-0.6,1.14,0.16,-0.02,0
9.577201008796692,2,3,3,1,-9.67,-0.61,1.16,0.19,-0.05,0
9.586201071739197,2,3,3,1,-9.67,-0.58,1.23,0.19,0.01,-0.01
9.597200989723206,2,3,3,1,-9.66,-0.61,1.23,0.16,-0.04,-0.03
9.607200980186462,2,3,3,1,-9.65,-0.61,1.23,0.18,-0.01,-0.05
9.617200970649719,2,3,3,1,-9.65,-0.58,1.16,0.16,-0.02,-0.05
9.627200961112976,2,3,3,1,-9.630000000000001,-0.57,1.22,0.17,0.01,-0.04
9.637200951576233,2,3,3,1,-9.609999999999999,-0.58,1.22,0.18,0.02,-0.05
9.64720094203949,2,3,3,1,-9.65,-0.61,1.19,0.22,0.03,-0.09
9.657200932502747,2,3,3,1,-9.640000000000001,-0.59,1.24,0.21,0.03,-0.05
9.667200922966003,2,3,3,1,-9.66,-0.59,1.12,0.17,0.05,-0.06
9.67720091342926,2,3,3,1,-9.66,-0.57,1.16,0.16,0.03,-0.06
9.687200903892517,2,3,3,1,-9.65,-0.58,1.2,0.16,0,-0.04
9.697200894355774,2,3,3,1,-9.66,-0.59,1.21,0.12,0.01,-0.04
9.707200884819031,2,3,3,1,-9.68,-0.58,1.2,0.12,-0.01,-0.04
9.717200875282288,2,3,3,1,-9.65,-0.57,1.12,0.11,0,-0.03
9.727200865745544,2,3,3,1,-9.65,-0.57,1.16,0.1,0.01,-0.02
9.737200856208801,2,3,3,1,-9.67,-0.57,1.21,0.03,0.01,-0.02
9.747200846672058,2,3,3,1,-9.67,-0.53,1.24,0.01,0.03,-0.05
9.787201046943665,2,3,3,1,-9.66,-0.55,1.22,-0.13,0,-0.06
9.797201037406921,2,3,3,1,-9.66,-0.55,1.22,-0.21,0,-0.05
9.807201027870178,2,3,3,1,-9.66,-0.54,1.21,-0.23,0.01,-0.05
9.817201018333435,2,3,3,1,-9.65,-0.51,1.09,-0.26,0.01,-0.04
9.847200989723206,2,3,3,1,-9.66,-0.52,1.2,-0.49,0.03,-0.06
9.857200980186462,2,3,3,1,-9.67,-0.6,1.26,-0.6,0.01,-0.04
9.867200970649719,2,3,3,1,-9.699999999999999,-0.6,1.06,-0.62,0.04,-0.04
9.877200961112976,2,3,3,1,-9.699999999999999,-0.58,1.15,-0.71,-0.02,-0.03
9.887200951576233,2,3,3,1,-9.66,-0.5600000000000001,1.23,-0.71,0,-0.06
9.89720094203949,2,3,3,1,-9.66,-0.5600000000000001,1.23,-0.59,0.05,-0.05
9.907200932502747,2,3,3,1,-9.68,-0.65,1.19,-0.41,0.05,-0.06
9.917200922966003,2,3,3,1,-9.68,-0.7,1.09,-0.35,0.07000000000000001,-0.1
9.92720091342926,2,3,3,1,-9.699999999999999,-0.6899999999999999,1.2,-0.34,0.09,-0.07000000000000001
9.937200903892517,2,3,3,1,-9.67,-0.68,1.2,-0.33,0.07000000000000001,-0.11
9.947200894355774,2,3,3,1,-9.67,-0.68,1.2,-0.31,0,-0.15
9.957200884819031,2,3,3,1,-9.66,-0.64,1.22,-0.27,0.01,-0.15
9.967200875282288,2,3,3,1,-9.65,-0.58,1.1,-0.18,-0.03,-0.19
9.977200865745544,2,3,3,1,-9.67,-0.6,1.15,-0.12,-0.01,-0.19
9.987200856208801,2,3,3,1,-9.68,-0.58,1.2,-0.1,-0.06,-0.22
9.997200846672058,2,3,3,1,-9.68,-0.58,1.2,-0.1,-0.06,-0.22
10.00720107555389,2,3,3,1,-9.699999999999999,-0.59,1.21,-0.16,-0.04,-0.23
10.01720106601715,2,3,3,1,-9.69,-0.58,1.08,-0.13,-0.04,-0.25
10.02720105648041,2,3,3,1,-9.67,-0.61,1.17,-0.15,-0.07000000000000001,-0.23
10.03720104694366,2,3,3,1,-9.609999999999999,-0.58,1.16,-0.15,-0.02,-0.22
10.04720103740692,2,3,3,1,-9.609999999999999,-0.58,1.16,-0.13,0.04,-0.2
10.05720102787018,2,3,3,1,-9.59,-0.57,1.12,-0.1,0.02,-0.21
10.06720101833344,2,3,3,1,-9.630000000000001,-0.5600000000000001,1.03,-0.16,0.01,-0.12
10.07720100879669,2,3,3,1,-9.66,-0.57,1.12,-0.24,0.01,-0.08
10.08720099925995,2,3,3,1,-9.69,-0.57,1.14,-0.25,-0.03,-0.06
10.09720098972321,2,3,3,1,-9.69,-0.57,1.14,-0.25,-0.03,-0.06
10.10720098018646,2,3,3,1,-9.68,-0.58,1.15,-0.27,-0.06,-0.07000000000000001
10.11720097064972,2,3,3,1,-9.69,-0.58,1.19,-0.31,-0.04,-0.05
10.12720096111298,2,3,3,1,-9.65,-0.62,1.08,-0.42,-0.05,-0.03
10.13720095157623,2,3,3,1,-9.66,-0.6,1.13,-0.42,0.01,-0.03
10.14720094203949,2,3,3,1,-9.630000000000001,-0.61,1.16,-0.42,0.01,-0.03
10.15720093250275,2,3,3,1,-9.65,-0.62,1.14,-0.36,0.02,-0.05
10.167200922966,2,3,3,1,-9.699999999999999,-0.65,1.11,-0.32,0.02,-0.05
10.17720091342926,2,3,3,1,-9.699999999999999,-0.66,1.04,-0.32,0,0.02
10.18720090389252,2,3,3,1,-9.699999999999999,-0.6899999999999999,1.08,-0.25,0,0.01
10.19720089435577,2,3,3,1,-9.66,-0.66,1.13,-0.19,-0.03,0.02
10.20720088481903,2,3,3,1,-9.630000000000001,-0.67,1.18,-0.13,-0.05,0.04
10.21720087528229,2,3,3,1,-9.640000000000001,-0.67,1.16,-0.08,-0.01,0.04
10.22720086574554,2,3,3,1,-9.65,-0.66,1.08,-0.05,-0.02,0.04
10.2372008562088,2,3,3,1,-9.640000000000001,-0.6899999999999999,1.16,-0.06,-0.04,0.06
10.24720084667206,2,3,3,1,-9.65,-0.66,1.2,-0.06,-0.04,0.06
10.26720106601715,2,3,3,1,-9.640000000000001,-0.63,1.22,0.06,-0.05,0.1
10.27720105648041,2,3,3,1,-9.619999999999999,-0.58,1.13,0.12,-0.07000000000000001,0.15
10.28720104694366,2,3,3,1,-9.58,-0.54,1.21,0.15,-0.02,0.18
10.29720103740692,2,3,3,1,-9.59,-0.53,1.27,0.15,-0.02,0.18
10.30720102787018,2,3,3,1,-9.58,-0.53,1.29,0.18,-0.01,0.26
10.31720101833344,2,3,3,1,-9.630000000000001,-0.55,1.23,-0.13,-0.06,0.33
10.32720100879669,2,3,3,1,-9.67,-0.53,1.12,-0.25,-0.02,0.4
10.33720099925995,2,3,3,1,-9.710000000000001,-0.55,1.16,-0.41,-0.01,0.42
10.34720098972321,2,3,3,1,-9.73,-0.55,1.2,-0.41,-0.01,0.42
10.35720098018646,2,3,3,2,-9.73,-0.54,1.3,-0.58,0.01,0.4
10.36720097064972,2,3,3,2,-9.710000000000001,-0.5,1.26,-0.8,0.05,0.4
10.37720096111298,2,3,3,2,-9.710000000000001,-0.47,1.19,-1.14,0.2,0.28
10.38720095157623,2,3,3,2,-9.699999999999999,-0.51,1.17,-1.29,0.19,0.21
10.39720094203949,2,3,3,2,-9.67,-0.55,1.17,-1.29,0.19,0.21
10.40720093250275,2,3,3,2,-9.67,-0.57,1.16,-1.34,0.21,0.18
10.417200922966,2,3,3,2,-9.69,-0.58,1.14,-1.34,0.22,0.15
10.42720091342926,2,3,3,2,-9.69,-0.64,1.03,-1.28,0.16,0.11
10.43720090389252,2,3,3,2,-9.68,-0.61,1.06,-1.24,0.12,0.08
10.44720089435577,2,3,3,2,-9.640000000000001,-0.58,1.08,-1.24,0.12,0.08
10.45720088481903,2,3,3,2,-9.609999999999999,-0.55,1.09,-1.14,0.1,0.05
10.46720087528229,2,3,3,2,-9.59,-0.52,1.04,-1.1,0.06,0.03
10.47720086574554,2,3,3,2,-9.609999999999999,-0.53,0.99,-1.17,-0.03,0.03
10.4872008562088,2,3,3,2,-9.630000000000001,-0.53,1.05,-1.11,-0.02,-0.01
10.49720084667206,2,3,3,2,-9.67,-0.53,1.1,-1.11,-0.02,-0.01
10.50720107555389,2,3,3,2,-9.720000000000001,-0.55,1.19,-1.16,-0.04,-0.04
10.51720106601715,2,3,3,2,-9.720000000000001,-0.58,1.17,-1.13,0.02,-0.1
10.52720105648041,2,3,3,2,-9.720000000000001,-0.63,1.05,-1.07,0.08,-0.17
10.53720104694366,2,3,3,2,-9.74,-0.67,1.1,-1.04,0.15,-0.25
10.54720103740692,2,3,3,2,-9.73,-0.75,1.15,-1.04,0.15,-0.25
10.55720102787018,2,3,3,2,-9.699999999999999,-0.76,1.17,-1.05,0.19,-0.29
10.56720101833344,2,3,3,2,-9.699999999999999,-0.79,1.21,-0.93,0.2,-0.3
10.57720100879669,1,3,3,2,-9.65,-0.8100000000000001,1.18,-0.78,0.23,-0.29
10.58720099925995,1,3,3,2,-9.67,-0.82,1.26,-0.63,0.16,-0.22
10.59720098972321,1,3,3,2,-9.69,-0.85,1.21,-0.4,0.1,-0.1
10.60720098018646,1,3,3,2,-9.710000000000001,-0.86,1.2,-0.31,0.08,0.05
10.61820089817047,1,3,3,2,-9.699999999999999,-0.89,1.07,-0.25,0.13,0.17
10.62820088863373,1,3,3,2,-9.710000000000001,-0.88,0.97,-0.17,0.18,0.28
10.63820087909698,1,3,3,2,-9.68,-0.84,0.98,-0.22,0.26,0.41
10.64820086956024,1,3,3,2,-9.68,-0.78,1.06,-0.39,0.36,0.51
10.6582008600235,1,3,3,2,-9.59,-0.73,1.21,-0.42,0.48,0.62
10.66820085048676,1,3,3,2,-9.59,-0.75,1.2,-0.53,0.7,0.72
10.67820107936859,1,3,3,2,-9.59,-0.72,1.19,-0.61,0.84,0.8
10.68820106983185,1,3,3,2,-9.59,-0.68,1.31,-0.64,0.92,0.86
10.6982010602951,1,3,3,2,-9.449999999999999,-0.67,1.31,-0.64,0.99,1
10.70820105075836,1,3,3,2,-9.380000000000001,-0.78,1.22,-0.65,1.23,1.15
10.71820104122162,1,3,3,2,-9.380000000000001,-0.97,1.15,-0.68,1.54,1.3
10.72820103168488,1,3,3,2,-9.35,-1.38,1.01,-0.82,1.81,1.41
10.74820101261139,1,3,3,2,-9.140000000000001,-1.64,0.93,-1.43,2.11,1.26
10.75820100307465,1,3,3,2,-8.949999999999999,-1.68,0.88,-1.96,2.19,0.91
10.7682009935379,1,3,3,2,-8.35,-1.59,0.6,-2.23,2.37,0.55
10.77820098400116,1,3,3,2,-8.02,-1.51,0.49,-2.1,2.74,0.29
10.78820097446442,1,3,3,2,-7.73,-1.43,0.49,-1.73,3.31,0.12
10.79820096492767,1,3,3,2,-7.46,-1.37,0.55,-1.2,3.9,-0.02
10.80820095539093,1,3,3,2,-7.21,-1.11,0.59,-0.59,4.35,0.03
10.81820094585419,1,3,3,2,-7.15,-1.13,0.5600000000000001,0.05,4.62,0.1
10.82820093631744,1,3,3,2,-6.96,-1.19,0.57,0.8,4.78,0.25
10.8382009267807,1,3,3,2,-6.74,-1.26,0.58,1.27,4.69,0.31
10.84820091724396,1,3,3,2,-6.47,-1.4,0.6,1.51,4.55,0.31
10.85820090770721,1,3,3,2,-6.32,-1.35,0.55,1.51,4.29,0.33
10.86820089817047,1,3,3,2,-6.4,-1.26,0.41,1.27,3.93,0.28
10.87820088863373,1,3,3,2,-6.49,-1.01,0.04,0.97,2.89,0.14
10.88820087909698,1,3,3,2,-6.65,-0.39,0.28,0.83,1.69,-0.08
10.89820086956024,1,3,3,2,-7.08,-0.04,0.9399999999999999,1.26,0.45,-0.09
10.9082008600235,1,3,3,2,-7.22,0.19,1.51,2.33,-1.61,-0.02
10.91820085048676,2,3,3,2,-7.26,-0.3,0.22,3.5,-2.88,0.25
10.92820107936859,2,3,3,2,-7.19,-0.49,-0.8,3.8,-3.77,0.24
10.93820106983185,2,3,3,2,-6.91,-0.66,-1.09,3.25,-4.8,-0.4
10.9482010602951,2,3,3,2,-6.45,-0.55,-1.1,2.63,-5.21,-1.08
10.95820105075836,2,3,3,2,-6.45,-0.15,0.19,2.77,-4.62,-1.49
10.96820104122162,2,3,3,2,-6.91,-0.01,0.48,3.07,-3.84,-1.28
10.97820103168488,2,3,3,2,-7.51,0.27,0.3,3.19,-3.36,-0.51
10.98820102214813,2,3,3,2,-8.220000000000001,0.66,0.41,2.79,-3.44,0.17
10.99820101261139,2,3,3,2,-9.529999999999999,1.38,0.59,2.19,-3.78,0.51
11.00820100307465,2,3,3,2,-10.15,1.34,0.38,1.78,-4.01,0.7
11.0182009935379,2,3,3,2,-10.72,1.05,0.73,1.1,-3.77,0.99
11.02820098400116,2,3,3,2,-11.04,0.74,0.61,-0.03,-3.36,1.36
11.03820097446442,2,3,3,2,-11.03,0.61,0.73,-1.36,-3.32,1.46
11.04820096492767,2,3,3,2,-11.26,0.42,1.65,-1.28,-2.89,1.3
11.05820095539093,2,3,3,2,-11.31,-0.17,1.28,-1.54,-2,1.44
11.06820094585419,2,3,3,2,-12.48,-0.24,2.51,-1.61,-0.76,1.99
11.07820093631744,2,3,3,2,-13.3,-0.46,2.52,-3.55,-0.27,2.77
11.0882009267807,2,3,3,2,-14.7,-0.45,2.26,-3.94,0.46,3.71
11.09820091724396,2,3,3,2,-16.39,-0.27,2.06,-3.55,1.3,4.63
11.10820090770721,2,3,3,2,-18.41,0.09,1.45,-3.28,1.44,5.08
11.11820089817047,2,3,3,2,-19.31,0.28,1.2,-2.27,1.68,5.02
11.12820088863373,2,3,3,2,-20.16,0.82,1.56,-1.07,1.53,4.2
11.13820087909698,2,3,3,2,-21.03,1,2.17,0.12,1.17,2.7
11.14820086956024,2,3,3,2,-22.2,0.89,2.96,1.32,1.28,0.86
11.1582008600235,2,3,3,2,-22.76,0.89,3.04,2.6,1.56,-0.75
11.16820085048676,2,3,3,2,-23.45,1.16,2.76,3.45,2.69,-1.84
11.17820107936859,2,3,3,2,-24.03,1.35,2.81,4.4,3.07,-3.01
11.18820106983185,2,3,3,2,-25.73,1.91,2.86,5.91,3.01,-4.45
11.1982010602951,2,3,3,2,-27.02,2.47,2.48,7.03,3.71,-5.36
11.20820105075836,2,3,3,2,-27.87,3.21,2.07,7.78,3.99,-5.55
11.21820104122162,2,3,3,2,-28.5,3.9,1.7,8.44,3.22,-5.28
11.22820103168488,2,3,3,2,-27.24,4.07,1.22,7.91,1.78,-5.07
11.23820102214813,2,3,3,2,-25.43,3.33,1.83,7.15,-0.03,-5.31
11.24820101261139,2,3,3,2,-22.86,2.51,2.37,6.95,-1.81,-6.02
11.25820100307465,2,3,3,2,-17.32,0.22,2.97,7.08,-2.81,-6.8
11.2682009935379,2,3,3,2,-14.83,-0.82,2.56,7.11,-2.92,-7.35
11.27820098400116,2,3,3,2,-12.48,-1.52,1.66,7.07,-2.48,-8
11.28820097446442,2,3,3,2,-10.31,-1.45,0.68,6.27,-1.93,-8.800000000000001
11.29820096492767,2,3,3,2,-6.57,0.38,-0.61,4.04,-1.92,-9.59
11.30820095539093,2,3,3,2,-5.07,0.33,0.04,1.5,-1.81,-9.710000000000001
11.31820094585419,2,3,3,2,-2.56,-0.24,-0.07000000000000001,-2.21,-0.41,-8.630000000000001
11.32820093631744,2,3,3,2,-0.88,-0.93,-0.28,-4.58,1.36,-7.42
11.3382009267807,2,3,3,2,3.82,-4.27,1.35,-4.8,1.7,-6.9
11.34820091724396,2,3,3,2,6.49,-5.6,1.85,-3.72,1.39,-6.74
11.35820090770721,2,3,3,2,9.140000000000001,-6.8,1.47,-3.83,0.14,-6.47
11.36820089817047,2,3,3,2,10.37,-7.68,1.24,-5.48,-0.64,-6.06
11.37820088863373,2,3,3,2,7.79,-6.72,-0.04,-6,0.04,-4.85
11.38820087909698,2,3,3,2,5.5,-4.85,-1.01,-4.31,2.51,-1.35
11.39820086956024,2,3,3,2,3.62,-2.98,-1.43,-2.13,4.71,3.8
11.4082008600235,2,3,3,2,0.52,0,-2.11,-0.73,4.83,8.26
11.41820085048676,2,3,3,2,-1.04,1.17,-1.74,-0.45,3.24,10.49
11.42820107936859,2,3,3,2,-1.73,1.64,-0.97,-1.42,0.65,11.5
11.43820106983185,2,3,3,2,-1.56,1.65,-0.26,-1.61,-1.73,11.82
11.4482010602951,2,3,3,2,-1.74,1.79,-0.23,-1,-2.99,11.18
11.45820105075836,2,3,3,2,-1.96,1.83,-0.28,-1.24,-3.25,10.02
11.46820104122162,2,3,3,2,-2.02,1.83,-0.32,-1.79,-3.12,8.27
11.47820103168488,2,3,3,2,-2.2,1.69,-0.55,-2.34,-2.15,6.02
11.48820102214813,2,3,3,2,-2.76,1.51,0.33,-2.43,-0.9399999999999999,3.71
11.49820101261139,2,3,3,2,-2.19,1.14,0.31,-2.09,-0.75,1.59
11.50820100307465,2,3,3,2,-1.68,0.87,0.19,-1.94,-0.13,-0.35
11.5182009935379,2,3,3,2,-1.21,0.71,0.15,-1.76,0.78,-2.07
11.52820098400116,2,3,3,2,-0.57,0.33,-0.24,-1.32,1.45,-3.45
11.53820097446442,2,3,3,2,-0.26,-0.01,-0.26,-0.62,1.86,-4.28
11.55820095539093,2,3,3,2,0.44,-0.7,0.17,0.82,2.18,-4.4
11.56820094585419,2,3,3,2,0.77,-1.33,1.23,2.02,2.19,-3.57
11.57820093631744,2,3,3,2,1.17,-1.93,1.22,3.78,2.19,-2.04
11.5882009267807,2,3,3,2,1.48,-2.54,1.21,4.83,2.27,-0.43
11.59820091724396,2,3,3,2,1.28,-2.8,1.17,5.28,2.31,1.16
11.60820090770721,2,3,3,2,1.46,-2.69,0.78,5.56,2.17,2.99
11.61820089817047,2,3,3,2,1.59,-2.1,0.41,4.37,1.89,4.89
11.62820088863373,2,3,3,2,1.49,-1.77,0.59,2.26,2.12,6.74
11.63920104503632,2,3,3,2,0.19,-2.9,1.07,1.74,2.54,9.08
11.64920103549957,2,3,3,2,-1.36,-2.24,0.13,0.96,1.83,11.8
11.65920102596283,2,3,3,2,-4.4,-2.16,1.59,-2.13,-2.01,14.21
11.66920101642609,2,3,3,2,-9.01,-1.44,1.06,-2.84,-6.87,18.1
11.67920100688934,2,3,3,2,-27.07,-1.97,0.38,-2.64,-14.16,21.76
11.6892009973526,2,3,3,2,-38.84,4.74,5.21,1.24,-13.03,24.36
11.69920098781586,2,3,3,2,-38.31,10.25,5.05,3.41,-11.06,23.06
11.70920097827911,2,3,3,2,-39.17,17.63,7.14,-1.42,-0.14,16.2
11.71920096874237,2,3,3,2,-31.81,5.67,-1.05,-8.869999999999999,8.210000000000001,6.32
11.72920095920563,2,3,3,2,-26.91,6.1,-0.39,-11.18,5.37,4.41
11.73920094966888,2,3,3,2,-22.94,5.88,0.42,-12.36,0.9,4.9
11.74920094013214,2,3,3,2,-20.25,4.26,1.12,-12.62,-0.74,3.88
11.7592009305954,2,3,3,2,-20.33,3.38,1.16,-11.63,-0.58,1.75
11.76920092105865,2,3,3,2,-20.42,2.96,2.1,-9.59,-1.17,-0.49
11.77920091152191,2,3,3,2,-19.65,1.87,2.81,-6.9,-1.8,-2.65
11.78920090198517,2,3,3,2,-17.01,-0.26,3.29,-4.92,-1.73,-4.63
11.79920089244843,2,3,3,2,-16.09,-0.85,2.96,-3.5,-0.85,-6.35
11.80920088291168,2,3,3,2,-15.12,-1.07,2.1,-1.77,0.33,-7.75
11.81920087337494,2,3,3,2,-14.09,-0.85,1.29,-0.15,1.51,-9.06
11.8292008638382,2,3,3,2,-11.31,-0.5,0.77,1.21,2.12,-10.28
11.83920085430145,2,3,3,2,-9.49,-0.8,0.8,2.01,2.88,-11.09
11.84920084476471,2,3,3,2,-7.93,-0.82,0.62,2.16,3.66,-11.09
11.85920107364655,2,3,3,1,-6.9,-0.89,0.61,1.78,4.25,-10.57
11.8692010641098,2,3,3,1,-5.31,-1.42,0.62,1.24,4.39,-9.84
11.87920105457306,2,3,3,1,-4.66,-1.64,0.31,0.61,4.35,-8.98
11.88920104503632,2,3,3,1,-4.38,-1.85,0.09,0.02,4.1,-8.119999999999999
11.89920103549957,2,3,3,1,-4.16,-2.06,-0.18,-0.41,3.42,-7.47
11.90920102596283,2,3,3,1,-4.3,-2.11,-0.62,-0.64,2.59,-6.97
11.97920095920563,2,3,3,1,-7.56,-1.46,0.57,1.49,-3.44,-1.29
11.98920094966888,2,3,3,1,-8.07,-1.25,0.65,2.29,-3.89,-0.16
11.99920094013214,2,3,3,1,-8.77,-0.93,0.6899999999999999,2.76,-4.19,1.09
12.0092009305954,2,3,3,1,-9.609999999999999,-0.75,0.95,2.6,-4.13,2.48
12.01920092105865,2,3,3,1,-11.27,-0.55,1.17,1.9,-4.19,3.64
12.02920091152191,2,3,3,1,-11.86,-0.4,1.26,0.66,-4.06,4.46
12.03920090198517,2,3,3,1,-12.39,-0.29,1.51,-0.89,-3.86,4.68
12.04920089244843,2,3,3,1,-12.47,-0.31,2.04,-2.2,-3.34,4.22
12.05920088291168,2,3,3,1,-11.46,-0.55,2.42,-3.19,-2.52,3.14
12.06920087337494,2,3,3,1,-11.09,-0.78,2.05,-4.04,-1.13,1.42
12.0792008638382,2,3,3,1,-10.79,-1.19,1.56,-4.88,0.64,-0.4
12.08920085430145,2,3,3,1,-10.39,-1.51,1.15,-5.31,2.02,-1.71
12.09920084476471,2,3,3,1,-9.539999999999999,-1.9,0.59,-5.35,2.83,-2.53
12.10920107364655,2,3,3,1,-9.17,-1.96,0.54,-5.07,2.9,-2.88
12.1192010641098,2,3,3,1,-8.83,-2.1,0.57,-4.75,2.39,-2.84
12.12920105457306,2,3,3,1,-8.5,-2.18,0.52,-4.38,1.63,-2.43
12.13920104503632,2,3,3,1,-8.449999999999999,-2.15,0.5600000000000001,-3.93,0.95,-1.74
12.14920103549957,2,3,3,1,-8.41,-2.04,0.55,-3.01,0.35,-0.86
12.15920102596283,2,3,3,1,-8.44,-1.85,0.59,-1.9,-0.21,0.17
12.16920101642609,2,3,3,1,-8.44,-1.48,0.54,-0.74,-0.6899999999999999,1.34
12.17920100688934,2,3,3,1,-8.58,-1.42,0.51,0.4,-0.88,2.49
12.1892009973526,2,3,3,1,-8.75,-1.21,0.5600000000000001,1.1,-1.06,3.4
12.19920098781586,2,3,3,1,-9.039999999999999,-0.9399999999999999,0.66,1.5,-1.07,3.98
12.20920097827911,2,3,3,1,-9.710000000000001,-0.39,1.15,1.9,-0.8,4.34
12.21920096874237,2,3,3,1,-10,-0.07000000000000001,1.11,2.15,-0.72,4.46
12.22920095920563,2,3,3,1,-10.46,0.24,0.9399999999999999,2,-0.5,4.26
12.23920094966888,2,3,3,1,-10.96,0.43,0.92,1.56,-0.12,3.64
12.24920094013214,2,3,3,1,-11.4,0.24,1.02,1.17,0.07000000000000001,2.63
12.2592009305954,2,3,3,1,-11.28,0.19,1,0.74,0.14,1.34
12.26920092105865,2,3,3,1,-11.02,0.16,0.97,0.48,0.28,0.01
12.27920091152191,2,3,3,1,-10.63,0.18,0.87,0.26,0.28,-1.12
12.28920090198517,2,3,3,1,-9.81,0.05,0.95,0.01,0.13,-1.79
12.29920089244843,2,3,3,1,-9.44,-0.06,1.09,-0.13,-0.04,-2.02
12.30920088291168,2,3,3,1,-9.08,-0.12,1.1,-0.24,-0.13,-1.88
12.31920087337494,2,3,3,1,-9.08,-0.12,1.1,-0.31,-0.17,-1.57
12.3292008638382,2,3,3,1,-8.56,0,0.78,-0.47,-0.2,-1.1
12.33920085430145,2,3,3,1,-8.619999999999999,0.02,0.8100000000000001,-0.72,-0.14,-0.62
12.34920084476471,2,3,3,1,-8.69,0,0.87,-0.99,-0.12,-0.14
12.35920107364655,2,3,3,1,-8.69,0,0.87,-1.18,-0.09,0.23
12.3692010641098,2,3,3,1,-8.970000000000001,-0.04,0.9399999999999999,-1.21,-0.09,0.52
12.37920105457306,2,3,3,1,-9.31,-0.14,0.92,-1.1,-0.08,0.7
12.38920104503632,2,3,3,1,-9.49,-0.23,1.01,-0.99,-0.01,0.85
12.39920103549957,2,3,3,1,-9.869999999999999,-0.35,1.24,-0.71,0.04,0.85
12.40920102596283,2,3,3,1,-9.869999999999999,-0.35,1.24,-0.71,0.04,0.85
12.41920101642609,2,3,3,1,-10.07,-0.39,1.24,-0.3,0.09,0.85
12.42920100688934,2,3,3,1,-10.3,-0.42,1.14,0.34,-0.1,0.6899999999999999
12.4392009973526,2,3,3,1,-10.16,-0.36,1.28,0.55,-0.25,0.45
12.44920098781586,2,3,3,1,-10.01,-0.34,1.42,0.8,-0.42,0.17
12.45920097827911,2,3,3,1,-10.01,-0.34,1.42,0.8,-0.42,0.17
12.46920096874237,2,3,3,1,-9.880000000000001,-0.34,1.49,1.1,-0.49,-0.16
12.47920095920563,2,3,3,1,-9.65,-0.42,1.45,1.48,-0.36,-0.75
12.48920094966888,2,3,3,1,-9.619999999999999,-0.41,1.33,1.55,-0.3,-0.9399999999999999
12.49920094013214,2,3,3,1,-9.619999999999999,-0.41,1.33,1.5,-0.2,-1.12
12.5092009305954,2,3,3,1,-9.619999999999999,-0.33,1.22,1.5,-0.2,-1.12
12.51920092105865,2,3,3,1,-9.710000000000001,-0.19,1.22,1.4,-0.14,-1.19
12.52920091152191,2,3,3,1,-9.720000000000001,-0.2,1.19,1.64,-0.15,-0.98
12.53920090198517,2,3,3,1,-9.75,-0.31,1.12,1.85,-0.3,-0.76
12.54920089244843,2,3,3,1,-9.699999999999999,-0.44,1.12,1.83,-0.52,-0.5600000000000001
12.55920088291168,2,3,3,2,-9.529999999999999,-0.64,1.09,1.83,-0.52,-0.5600000000000001
12.56920087337494,2,3,3,2,-9.470000000000001,-0.68,1.12,1.53,-0.65,-0.26
12.5792008638382,2,3,3,2,-9.449999999999999,-0.75,1.17,1.47,-0.63,-0.13
12.58920085430145,2,3,3,2,-9.44,-0.8,1.09,1.5,-0.59,0.01
12.59920084476471,2,3,3,2,-9.470000000000001,-0.84,1.05,1.88,-0.44,0.11
12.6102010011673,2,3,3,2,-9.56,-0.86,1.08,1.88,-0.44,0.11
12.6192010641098,2,3,3,2,-9.68,-0.88,1.11,2.02,-0.46,0.1
12.62920105457306,2,3,3,2,-9.75,-0.83,1.14,2.38,-0.27,-0.07000000000000001
12.64020097255707,2,3,3,2,-9.890000000000001,-0.72,1.04,2.51,-0.18,-0.23
12.64920103549957,2,3,3,2,-9.84,-0.62,1.13,2.59,-0.06,-0.32
12.65920102596283,2,3,3,2,-9.789999999999999,-0.53,1.2,2.59,-0.06,-0.32
12.67020094394684,2,3,3,2,-9.699999999999999,-0.36,1.19,2.49,0.08,-0.41
12.6802009344101,2,3,3,2,-9.69,-0.25,1.18,1.96,0.22,-0.38
12.69020092487335,2,3,3,2,-9.65,-0.12,1.06,1.62,0.26,-0.36
12.70020091533661,2,3,3,2,-9.619999999999999,-0.04,1.04,1.31,0.24,-0.34
12.71020090579987,2,3,3,2,-9.67,0.1,1.08,1.31,0.24,-0.34
12.72020089626312,2,3,3,2,-9.67,0.15,1.05,0.97,0.15,-0.29
12.73020088672638,2,3,3,2,-9.68,0.16,1.05,0.23,0.11,-0.26
12.74020087718964,2,3,3,2,-9.699999999999999,0.1,0.96,-0.06,0.05,-0.18
12.75020086765289,2,3,3,2,-9.720000000000001,0.05,1.02,-0.35,-0.06,-0.14
12.76020085811615,2,3,3,2,-9.67,0.01,1.02,-0.35,-0.06,-0.14
12.77020084857941,2,3,3,2,-9.619999999999999,-0.03,0.96,-0.65,-0.14,-0.1
12.78020107746124,2,3,3,2,-9.550000000000001,-0.04,0.98,-0.93,-0.19,-0.13
12.7902010679245,2,3,3,2,-9.470000000000001,-0.02,0.87,-1.22,-0.24,-0.26
12.80020105838776,2,3,3,2,-9.460000000000001,-0.05,0.98,-1.22,-0.22,-0.37
12.81020104885101,2,3,3,2,-9.49,-0.09,1.07,-1.22,-0.22,-0.37
12.82020103931427,2,3,3,2,-9.66,-0.3,1.11,-1.14,-0.24,-0.47
12.83020102977753,2,3,3,2,-9.789999999999999,-0.44,1.08,-1.06,-0.17,-0.63
12.84020102024078,2,3,3,2,-9.890000000000001,-0.57,1.04,-1.09,-0.09,-0.71
12.85020101070404,2,3,3,2,-9.960000000000001,-0.67,1.1,-1.05,-0.03,-0.78
12.8602010011673,2,3,3,2,-10,-0.87,1.15,-1.05,-0.03,-0.78
12.87020099163055,2,3,3,2,-9.94,-0.96,1.23,-1.02,0.05,-0.85
12.88020098209381,2,3,3,2,-9.82,-1.03,1.28,-0.48,0.38,-1.06
12.89020097255707,2,3,3,2,-9.720000000000001,-1.16,1.19,-0.31,0.52,-1.15
12.90020096302032,2,3,3,2,-9.630000000000001,-1.31,1.24,-0.19,0.59,-1.16
12.91020095348358,2,3,3,2,-9.58,-1.32,1.23,-0.19,0.59,-1.16
12.92020094394684,2,3,3,2,-9.550000000000001,-1.31,1.21,-0.08,0.59,-1.15
12.9302009344101,2,3,3,2,-9.52,-1.28,1.21,0.11,0.6,-1.15
12.94020092487335,2,3,3,2,-9.5,-1.23,1.05,0.67,0.58,-1.09
12.95020091533661,2,3,3,2,-9.460000000000001,-1.2,1.08,0.67,0.58,-1.09
12.96020090579987,2,3,3,2,-9.41,-1.18,1.11,0.93,0.5600000000000001,-1.08
12.97020089626312,2,3,3,2,-9.41,-1.17,1.16,1.14,0.59,-1
12.98020088672638,2,3,3,2,-9.369999999999999,-1.21,1.15,1.21,0.6,-0.89
12.99020087718964,2,3,3,2,-9.35,-1.25,1.05,1.09,0.61,-0.79
13.00020086765289,2,3,3,2,-9.25,-1.26,1.14,0.84,0.66,-0.73
13.01020085811615,2,3,3,2,-9.02,-1.34,1.12,0.57,0.77,-0.68
13.02020084857941,2,3,3,2,-8.92,-1.38,1.11,0.31,1.01,-0.64
13.03020107746124,2,3,3,2,-8.81,-1.48,1.08,0.12,1.28,-0.68
13.0402010679245,2,3,3,2,-8.69,-1.59,0.98,-0.12,1.62,-0.79
13.05020105838776,2,3,3,2,-8.42,-1.76,0.95,-0.27,1.99,-0.9399999999999999
13.06020104885101,2,3,3,2,-8.26,-1.83,0.9399999999999999,-0.45,2.38,-1.09
13.07020103931427,2,3,3,2,-8.07,-1.81,0.85,-0.59,2.87,-1.28
13.08020102977753,2,3,3,2,-7.83,-1.73,0.78,-0.63,3.27,-1.48
13.09020102024078,2,3,3,2,-7.2,-1.54,0.63,-0.62,3.57,-1.7
13.10020101070404,2,3,3,2,-6.76,-1.4,0.6899999999999999,-0.71,3.65,-1.91
13.1102010011673,2,3,3,2,-6.36,-1.34,0.74,-1.05,3.83,-1.91
13.12020099163055,2,3,3,2,-6.15,-1.27,0.6899999999999999,-1.32,3.78,-1.85
13.13020098209381,2,3,3,2,-5.77,-1.01,0.59,-1.48,3.29,-1.89
13.14020097255707,2,3,3,2,-5.72,-0.85,0.21,-1.58,2.26,-1.87
13.15020096302032,2,3,3,2,-5.63,-0.51,-0.29,-1.95,0.59,-1.81
13.16020095348358,2,3,3,2,-5.27,-0.06,0.14,-2.31,-1.12,-1.5
13.17020094394684,2,3,3,2,-5.49,-0.11,0.49,-2.49,-2.36,-0.85
13.1802009344101,2,3,3,2,-5.75,-0.36,0.62,-2.35,-3.61,-0.35
13.19020092487335,2,3,3,2,-6.01,-0.46,0.53,-1.81,-4.81,-0.1
13.20020091533661,2,3,3,2,-6.64,-0.48,0.01,-0.83,-5.58,0.14
13.21020090579987,2,3,3,2,-6.98,-0.95,-0.32,0.32,-5.43,0.66
13.22020089626312,2,3,3,2,-7.32,-1.21,-0.8,1,-5.11,1.63
13.23020088672638,2,3,3,2,-7.54,-1.2,-0.97,1.14,-4.72,2.53
13.24020087718964,2,3,3,2,-8,-0.58,-0.37,1,-3.9,2.88
13.25020086765289,2,3,3,2,-8.220000000000001,-0.23,0.28,1.62,-2.89,2.79
13.26020085811615,2,3,3,2,-8.699999999999999,-0.04,0.92,2.83,-1.8,2.75
13.27020084857941,2,3,3,2,-9.43,0.43,1.51,3.7,-1.15,3.22
13.28020107746124,2,3,3,2,-11.63,1.24,2.38,3.86,-0.88,3.74
13.2902010679245,2,3,3,2,-12.86,1.66,2.49,2.25,-0.58,4.24
13.30020105838776,2,3,3,2,-14.26,2.12,2.84,0.08,-0.58,4.51
13.31020104885101,2,3,3,2,-15.66,2.29,2.72,-1.67,-0.58,4.73
13.32020103931427,2,3,3,2,-16.14,1.83,2.21,-2.71,-0.71,4.96
13.33020102977753,2,3,3,2,-16.5,1.29,2.15,-2.34,0.29,4.97
13.34020102024078,2,3,3,2,-17.06,0.96,2.49,-0.88,2.04,4.84
13.35020101070404,2,3,3,2,-19.25,0.29,2.97,-0.4,2.7,4.72
13.3602010011673,2,3,3,2,-21.03,0.36,2.5,-0.32,2.6,4.09
13.37020099163055,2,3,3,2,-23.06,0.77,2.36,0.35,2.6,2.54
13.38020098209381,2,3,3,2,-25.13,1.21,3,1.74,2.55,0.85
13.39020097255707,2,3,3,2,-27.23,0.87,3.48,3.28,1.83,-0.43
13.40020096302032,2,3,3,2,-28,0.8100000000000001,3.34,4.46,1.99,-1.67
13.41020095348358,2,3,3,2,-28.24,1.32,3.42,5.33,3.16,-2.65
13.42020094394684,2,3,3,2,-27.95,1.46,3.44,6.27,3.92,-3
13.4302009344101,2,3,3,2,-26.83,1.1,2.8,7.23,4.14,-3.13
13.44020092487335,2,3,3,2,-26.44,1.3,2.54,7.6,3.96,-3.36
13.45020091533661,2,3,3,2,-26.07,1.35,2.07,7.8,3.69,-3.61
13.46020090579987,2,3,3,2,-25.31,1.2,1.43,7.82,3,-4.21
13.47020089626312,2,3,3,2,-21.49,0.83,1.01,7.89,2.06,-5.22
13.53020107746124,2,3,3,2,-3.3,2.31,-1.54,-2.05,0.63,-10.44
13.5402010679245,2,3,3,2,0.8100000000000001,0.71,-0.5600000000000001,-3.73,1.59,-9.59
13.55020105838776,2,3,3,2,2.64,-0.86,0.49,-3.72,1.55,-9.32
13.56020104885101,2,3,3,2,5.03,-2.91,1.51,-4.33,-0.11,-9.02
13.59020102024078,2,3,3,2,7.13,-7.76,0.44,-11.35,-1.59,-4.62
13.62020099163055,2,3,3,2,1.04,-2.21,-1.77,-6.02,1.19,7.58
13.7112010717392,2,3,3,2,-1.78,1.24,0.53,0.21,-1.61,1.17
13.77120101451874,2,3,3,2,0.35,-1.15,0.32,0,3.63,-3.87
13.78120100498199,2,3,3,2,0.45,-1.43,0.53,0.64,3.69,-2.93
13.79120099544525,2,3,3,2,0.47,-1.52,0.79,1.52,3.44,-1.62
13.80120098590851,2,3,3,2,0.54,-1.72,0.9399999999999999,2.49,2.97,0.32
13.81120097637177,2,3,3,2,0.53,-1.93,1.12,2.55,2.1,2.13
13.82120096683502,2,3,3,2,0.3,-1.51,0.9399999999999999,2.04,0.97,3.73
13.83120095729828,2,3,3,2,0.45,-1.09,0.92,1.81,0.39,5.62
13.84120094776154,2,3,3,2,0.95,-0.92,0.21,0.9,0.87,7.29
13.85120093822479,2,3,3,2,-1.09,-2.24,-0.25,1.54,1.8,9.51
13.86120092868805,2,3,3,2,-2.95,-2.53,-1.38,-1.37,-0.97,11.28
13.87120091915131,2,3,3,2,-7.62,-1.9,-0.62,-3.7,-5.19,13.97
13.88120090961456,2,3,3,2,-25.68,-2.88,-5.04,-2.67,-12.76,19.2
13.92120087146759,2,3,3,2,-24.61,4.85,8.640000000000001,-2.57,-6.38,6.02
13.93120086193085,2,3,3,2,-26.22,1.22,7.68,-5.56,1.33,0.24
13.9412008523941,2,3,3,2,-26.9,2.45,4.7,-8.640000000000001,5.45,1.93
13.95120084285736,2,3,3,2,-24.35,4.73,3.27,-10.84,8.380000000000001,4
13.9612010717392,2,3,3,2,-21.4,6.32,1.19,-10.18,8.48,4.06
13.97120106220245,2,3,3,2,-20.19,7.05,1.09,-8.65,6.56,4.22
13.98120105266571,2,3,3,2,-18.56,6.54,1.5,-7.84,4.79,4.97
13.99120104312897,2,3,3,2,-16.15,5.5,2.21,-6.91,2.97,4.09
14.00120103359222,2,3,3,2,-13.51,4.84,3.26,-6.53,2.03,1.74
14.01120102405548,2,3,3,2,-13,3.71,3.27,-7.3,2.24,-1.15
14.02120101451874,2,3,3,2,-12.43,2.37,2.54,-7.82,2.85,-4.05
14.03120100498199,2,3,3,2,-11.49,0.93,1.79,-7.44,3.04,-6.46
14.04120099544525,2,3,3,2,-9.43,-1.35,0.64,-6.96,2.95,-8.51
14.05120098590851,2,3,3,2,-8.82,-2.37,0.62,-6.26,2.88,-10.28
14.06120097637177,2,3,3,2,-8.77,-2.95,0.43,-5.29,2.73,-11.39
14.07120096683502,2,3,3,2,-8.82,-3.26,0.23,-4.82,2.38,-11.37
14.08120095729828,2,3,3,2,-8.43,-3.23,0.53,-4.29,1.75,-10.49
14.09120094776154,2,3,3,2,-7.73,-3.17,0.6,-3.23,1.25,-9.289999999999999
14.10120093822479,2,3,3,2,-6.83,-3.04,0.59,-2.02,0.91,-7.98
14.11120092868805,2,3,3,2,-5.33,-2.88,0.52,-0.9,0.85,-6.64
14.12120091915131,2,3,3,2,-4.94,-2.95,0.48,0.09,0.93,-5.6
14.13120090961456,2,3,3,2,-4.63,-2.98,0.5,1.12,1.21,-4.79
14.14120090007782,2,3,3,2,-4.51,-2.97,0.34,2.07,1.58,-4.16
14.15120089054108,2,3,3,2,-4.46,-2.9,0.18,2.77,1.59,-3.83
14.16120088100433,2,3,3,2,-4.75,-2.73,0.28,3.27,1.47,-3.65
14.17120087146759,2,3,3,2,-5.25,-2.64,0.35,3.91,1.01,-3.53
14.18120086193085,2,3,3,2,-5.81,-2.55,0.31,4.51,0.34,-3.29
14.1912008523941,2,3,3,2,-7.21,-2.17,0.15,4.93,-0.48,-2.84
14.20120084285736,2,3,3,2,-7.82,-1.93,0.48,4.92,-1.42,-2.13
14.2112010717392,2,3,3,2,-8.5,-1.59,0.9,4.38,-2.11,-1.24
14.22120106220245,2,3,3,2,-9.94,-1.05,1.61,3.83,-2.41,-0.17
14.25120103359222,2,3,3,2,-11.71,-0.92,1.86,3.08,-0.61,3.1
14.26120102405548,2,3,3,2,-13.21,-0.35,1.67,2.44,0.45,3.76
14.27120101451874,2,3,3,2,-13.61,0.03,1.22,1.35,1.07,3.67
14.28120100498199,2,3,3,2,-13.73,0.34,0.96,0.02,1.75,2.85
14.29120099544525,2,3,3,2,-13.2,0.38,0.76,-0.92,2.09,1.51
14.30120098590851,2,3,3,2,-11.02,-0.16,0.62,-1.09,2.05,-0.16
14.31120097637177,2,3,3,2,-10.09,-0.48,0.58,-1.03,2.01,-1.6
14.32120096683502,2,3,3,2,-9.31,-0.72,0.57,-0.85,1.83,-2.46
14.33120095729828,2,3,3,2,-8.69,-0.97,0.59,-0.51,1.61,-2.82
14.34120094776154,2,3,3,2,-8.029999999999999,-1.12,0.74,-0.07000000000000001,1.27,-2.79
14.35120093822479,2,3,3,2,-7.89,-1.03,0.92,0.6899999999999999,0.65,-2.45
14.36120092868805,2,3,3,2,-7.92,-0.96,0.95,1.83,0.01,-1.88
14.37120091915131,2,3,3,2,-7.9,-0.86,0.88,2.57,-0.55,-1.32
14.38120090961456,2,3,3,2,-8.31,-0.34,0.85,2.64,-1.01,-0.68
14.39120090007782,2,3,3,2,-8.640000000000001,-0.18,0.98,2.73,-1.36,0.2
14.40120089054108,2,3,3,2,-8.970000000000001,-0.15,1.21,2.89,-1.83,1.15
14.41120088100433,2,3,3,2,-9.529999999999999,-0.17,1.16,2.89,-2.25,2.05
14.42120087146759,2,3,3,2,-9.75,-0.19,1.05,2.59,-2.53,2.77
14.43120086193085,2,3,3,2,-9.869999999999999,-0.24,0.92,2.29,-2.45,3.11
14.4412008523941,2,3,3,2,-9.99,-0.23,0.8100000000000001,2.1,-2.08,3.07
14.45120084285736,2,3,3,2,-10.27,-0.18,0.86,1.93,-1.53,2.55
14.4612010717392,2,3,3,2,-10.5,-0.23,0.99,1.83,-0.9399999999999999,1.75
14.47120106220245,2,3,3,2,-10.67,-0.35,1.05,1.84,-0.33,0.83
14.48120105266571,2,3,3,2,-10.71,-0.29,0.9399999999999999,1.55,-0.01,0.03
14.49120104312897,2,3,3,2,-10.54,-0.19,0.59,1.27,0.17,-0.64
14.50120103359222,2,3,3,2,-10.16,-0.27,0.7,1.17,0.14,-1.1
14.51120102405548,2,3,3,2,-9.75,-0.37,0.8100000000000001,1.28,0.15,-1.38
14.52120101451874,2,3,3,2,-9.359999999999999,-0.46,0.93,1.3,0.13,-1.3
14.53120100498199,2,3,3,2,-8.970000000000001,-0.5600000000000001,1.08,1.27,0.19,-1.01
14.54120099544525,2,3,3,2,-8.9,-0.51,1.11,1.15,0.12,-0.58
14.55120098590851,2,3,3,2,-8.93,-0.48,1.14,1.03,0.09,-0.12
14.56120097637177,2,3,3,2,-9.09,-0.44,1.28,1.05,0.09,0.29
14.57120096683502,2,3,3,2,-9.24,-0.42,1.28,1.13,0.1,0.63
14.58120095729828,2,3,3,2,-9.380000000000001,-0.47,1.22,1.35,0.11,0.92
14.59120094776154,2,3,3,2,-9.550000000000001,-0.46,1.12,1.6,0.04,1.21
14.60120093822479,2,3,3,2,-9.609999999999999,-0.38,1.01,1.86,-0.01,1.34
14.61120092868805,2,3,3,2,-9.67,-0.41,0.83,2.15,0.03,1.39
14.62120091915131,2,3,3,2,-9.65,-0.27,0.75,2.09,0.06,1.26
14.63120090961456,2,3,3,2,-9.68,-0.1,0.78,1.83,0.05,1.03
14.64120090007782,2,3,3,2,-9.84,0.04,0.91,1.62,0.14,0.83
14.65120089054108,2,3,3,2,-9.960000000000001,0.11,1.14,1.62,0.21,0.71
14.66120088100433,2,3,3,2,-9.949999999999999,-0.05,0.99,1.84,-0.03,0.7
14.67120087146759,2,3,3,2,-9.949999999999999,-0.05,0.99,1.94,-0.29,0.61
14.68120086193085,2,3,3,2,-9.890000000000001,-0.21,0.88,1.7,-0.29,0.44
14.6912008523941,2,3,3,2,-9.949999999999999,-0.43,0.84,1.49,-0.2,0.24
14.70120084285736,2,3,3,2,-9.960000000000001,-0.45,1,1.25,-0.18,0.12
14.7112010717392,2,3,3,2,-9.99,-0.48,1.11,1.09,-0.15,0.05
14.72220098972321,2,3,3,2,-9.99,-0.48,1.11,1.17,-0.22,0.02
14.73220098018646,2,3,3,2,-9.92,-0.58,1.28,1.55,-0.49,0.05
14.74220097064972,2,3,3,2,-9.66,-0.82,0.79,1.51,-0.54,-0.01
14.75220096111298,2,3,3,2,-9.56,-0.52,0.95,1.08,-0.5,-0.1
14.76220095157623,2,3,3,2,-9.43,-0.54,1.09,1.12,-0.53,-0.17
14.77220094203949,2,3,3,2,-9.43,-0.54,1.09,1.12,-0.53,-0.17
14.78220093250275,2,3,3,2,-9.279999999999999,-0.62,1.03,1.58,-0.57,-0.16
14.792200922966,2,3,3,2,-9.35,-0.7,0.6,1.83,-0.1,-0.03
14.80220091342926,2,3,3,2,-9.5,-0.57,0.64,1.52,-0.1,0.04
14.81220090389252,2,3,3,2,-9.630000000000001,-0.53,0.78,1.18,0.01,0.16
14.82220089435577,2,3,3,2,-9.630000000000001,-0.53,0.78,1.18,0.01,0.16
14.83220088481903,2,3,3,2,-9.66,-0.47,0.79,1.21,-0.02,0.24
14.84220087528229,2,3,3,2,-9.779999999999999,-0.39,0.6899999999999999,0.76,-0.01,0.31
14.85220086574554,2,3,3,2,-9.81,-0.35,0.63,0.37,0.03,0.31
14.8622008562088,2,3,3,2,-9.869999999999999,-0.32,0.73,0.09,-0.07000000000000001,0.27
14.87220084667206,2,3,3,2,-9.83,-0.32,0.6899999999999999,0.09,-0.07000000000000001,0.27
14.88220107555389,2,3,3,2,-9.85,-0.28,0.82,-0.32,-0.07000000000000001,0.21
14.94220101833344,2,3,3,2,-9.74,-0.39,0.9399999999999999,-1.03,0.03,-0.05
14.95220100879669,2,3,3,2,-9.76,-0.43,0.78,-1.09,0.01,-0.05
14.96220099925995,2,3,3,2,-9.77,-0.43,0.8100000000000001,-1.02,-0.03,-0.03
14.97220098972321,2,3,3,2,-9.75,-0.46,0.9399999999999999,-1.02,-0.03,-0.03
14.98220098018646,2,3,3,2,-9.699999999999999,-0.51,0.9399999999999999,-0.82,-0.08,-0.03
14.99220097064972,2,3,3,2,-9.6,-0.67,0.93,-0.41,-0.2,-0.05
15.00220096111298,2,3,3,2,-9.550000000000001,-0.71,0.79,-0.47,-0.17,-0.07000000000000001
15.01220095157623,2,3,3,2,-9.56,-0.7,0.8,-0.54,-0.16,-0.09
15.02220094203949,2,3,3,2,-9.57,-0.67,0.86,-0.54,-0.16,-0.09
15.03220093250275,2,3,3,2,-9.630000000000001,-0.6899999999999999,0.95,-0.55,-0.1,-0.07000000000000001
15.042200922966,2,3,3,2,-9.710000000000001,-0.71,0.9399999999999999,-0.52,0.03,0
15.05220091342926,2,3,3,2,-9.81,-0.7,0.86,-0.53,0.04,0.02
15.06220090389252,2,3,3,2,-9.869999999999999,-0.7,0.89,-0.57,0,0.04
15.07220089435577,2,3,3,2,-9.949999999999999,-0.62,1.09,-0.57,0,0.04
15.08220088481903,2,3,3,2,-9.92,-0.67,1.11,-0.44,-0.08,0.03
15.09220087528229,2,3,3,2,-9.880000000000001,-0.74,1.12,-0.08,-0.42,0.04
15.10220086574554,2,3,3,2,-9.69,-0.8100000000000001,1.02,-0.08,-0.52,-0.02
15.1122008562088,2,3,3,2,-9.609999999999999,-0.8,1.07,-0.14,-0.25,-0.27
15.12220084667206,2,3,3,2,-9.58,-0.87,1.19,-0.14,-0.25,-0.27
15.13220107555389,2,3,3,2,-9.56,-0.92,1.22,-0.09,-0.06,-0.38
15.14220106601715,2,3,3,2,-9.720000000000001,-0.89,1.12,-0.07000000000000001,0.13,-0.49
15.15220105648041,2,3,3,2,-9.77,-0.8100000000000001,1.02,0.06,0.48,-0.6
15.16220104694366,2,3,3,2,-9.82,-0.78,1,0.22,0.62,-0.64
15.17220103740692,2,3,3,2,-9.82,-0.8,0.96,0.22,0.62,-0.64
15.18220102787018,2,3,3,1,-9.92,-0.83,1.05,0.37,0.74,-0.67
15.19220101833344,2,3,3,1,-9.85,-0.8100000000000001,1.14,0.45,0.76,-0.61
15.20220100879669,2,3,3,1,-9.789999999999999,-0.84,0.9399999999999999,0.47,0.9399999999999999,-0.6
15.21220099925995,2,3,3,1,-9.77,-0.86,0.92,0.46,1.01,-0.61
15.22220098972321,2,3,3,1,-9.68,-0.9,0.92,0.46,1.01,-0.61
15.23220098018646,2,3,3,1,-9.58,-0.96,0.92,0.41,1.12,-0.6
15.24220097064972,2,3,3,1,-9.470000000000001,-1.02,0.99,0.26,1.33,-0.54
15.25220096111298,2,3,3,1,-9.359999999999999,-1.14,0.95,0.24,1.42,-0.5
15.26220095157623,2,3,3,1,-9.130000000000001,-1.3,1.03,0.16,1.51,-0.46
15.27220094203949,2,3,3,1,-8.970000000000001,-1.41,1.01,0.16,1.51,-0.46
15.28220093250275,2,3,3,1,-8.720000000000001,-1.51,0.96,0.14,1.53,-0.51
15.292200922966,2,3,3,1,-8.220000000000001,-1.79,0.74,0.18,1.52,-0.67
15.30220091342926,2,3,3,1,-7.94,-1.95,0.71,0.17,1.65,-0.87
15.31220090389252,2,3,3,1,-7.68,-2.03,0.77,0.18,1.95,-1.07
15.32220089435577,2,3,3,1,-7.41,-2.07,0.91,0.25,2.36,-1.19
15.33220088481903,2,3,3,1,-6.95,-1.75,1.25,0.48,2.8,-1.21
15.34220087528229,2,3,3,1,-6.67,-1.52,1.24,0.75,3.04,-1.04
15.35220086574554,2,3,3,1,-6.62,-1.38,1.01,0.92,3.26,-0.6899999999999999
15.3622008562088,2,3,3,1,-6.61,-1.26,0.6,0.71,3.06,-0.31
15.37220084667206,2,3,3,1,-7.06,-1.25,0.35,0.09,1.89,-0.21
15.38220107555389,2,3,3,0,-7.08,-1.28,0.32,-0.46,0.42,-0.3
15.39220106601715,2,3,3,0,-7.07,-1.19,0.26,-0.83,-1.04,-0.33
15.40220105648041,2,3,3,0,-7.02,-1.12,0.21,-1.03,-2.21,-0.05
15.41220104694366,2,3,3,0,-6.64,-0.8,0.36,-1.32,-3.55,0.38
15.42220103740692,2,3,3,0,-6.34,-0.6,0.31,-1.64,-4.62,0.57
15.43220102787018,2,3,3,0,-6.07,-0.36,0.13,-1.64,-5.18,0.43
15.44220101833344,2,3,3,0,-5.72,-0.34,0.14,-1.08,-5.43,0.1
15.45220100879669,2,3,3,0,-4.9,-0.85,-0.02,0.02,-4.93,-0.18
15.46220099925995,2,3,3,0,-4.64,-0.9399999999999999,-0.07000000000000001,0.93,-4.1,-0.11
15.47220098972321,2,3,3,0,-4.72,-0.9399999999999999,0.09,1.27,-3.26,0.17
15.48220098018646,2,3,3,0,-5.5,-0.43,0.39,1.1,-2.79,0.59
15.49220097064972,2,3,3,0,-6.42,0.06,0.6,0.97,-2.33,1.08
15.50220096111298,2,3,3,0,-7.74,0.59,0.5600000000000001,1.06,-1.8,1.89
15.51220095157623,2,3,3,0,-9.23,0.99,0.63,1.34,-1.54,2.96
15.52220094203949,2,3,3,0,-12.39,1.31,1.82,1.62,-1,4
15.53220093250275,2,3,3,0,-13.67,1.62,2.32,1.54,-0.59,4.82
15.542200922966,2,3,3,0,-14.61,2.26,2.38,0.83,-0.09,5.29
15.55220091342926,2,3,3,0,-15.49,2.84,2.41,-0.04,0.62,5.51
15.56220090389252,2,3,3,0,-16.94,3.47,1.91,-0.12,1.1,5.58
15.57220089435577,2,3,3,0,-17.86,3.64,2.14,0.36,1.35,5.19
15.58220088481903,2,3,3,1,-18.96,3.43,2.16,1.03,1.29,4.34
15.59220087528229,2,3,3,1,-20.23,3.36,2.1,1.41,1.26,2.94
15.60220086574554,2,3,3,1,-23.96,3.36,2.73,1.51,1.37,1.05
15.6122008562088,2,3,3,1,-25.65,3.27,2.76,1.63,1.8,-0.8
15.62220084667206,2,3,3,1,-27.1,3.1,2.84,1.98,2.1,-2.4
15.63220107555389,2,3,3,1,-29.68,3.32,3.09,2.43,2.29,-3.78
15.64220106601715,2,3,3,1,-30.81,3.53,2.6,2.71,2.48,-5.1
15.65220105648041,2,3,3,1,-31.3,3.62,1.93,2.91,2.42,-5.82
15.66220104694366,2,3,3,1,-30.9,3.61,1.96,2.7,1.78,-5.76
15.67220103740692,2,3,3,1,-27.53,3,1.85,1.78,0.26,-5.41
15.68220102787018,2,3,3,1,-25.09,2.7,1.96,0.63,-1.53,-5.43
15.69220101833344,2,3,3,1,-22.64,1.62,2.39,-0.29,-2.59,-5.91
15.70220100879669,2,3,3,1,-20.3,0.45,2.8,-0.91,-2.89,-6.39
15.71220099925995,2,3,3,1,-16.03,-1.71,3.17,-1.24,-2.7,-6.81
15.72220098972321,2,3,3,1,-13.72,-2.27,2.3,-1.21,-2.29,-7.13
15.73220098018646,2,3,3,2,-11.27,-2.55,1.11,-0.76,-1.68,-7.81
15.74320089817047,2,3,3,2,-8.640000000000001,-2.46,0.5600000000000001,0.11,-0.85,-8.859999999999999
15.75320088863373,2,3,3,2,-4.09,-0.82,-1.22,0.51,0.48,-9.41
15.76320087909698,2,3,3,2,-1.36,-0.74,-0.91,-0.29,0.99,-9.789999999999999
15.77320086956024,2,3,3,2,1.1,-1.05,-0.6899999999999999,-1.11,1.68,-9.869999999999999
15.7832008600235,2,3,3,2,2.95,-1.84,-0.07000000000000001,-0.41,2.72,-9.85
15.79320085048676,2,3,3,2,6.42,-3.93,0.33,0.12,3.23,-9.48
15.80320107936859,2,3,3,2,8.23,-5.18,0.35,-1.37,2.51,-8.74
15.81320106983185,2,3,3,2,8.460000000000001,-6.1,0.21,-3.55,1.99,-7.61
15.8232010602951,2,3,3,2,5.36,-6.35,-0.19,-4.59,1.46,-4.77
15.83320105075836,2,3,3,2,3.76,-5.67,-0.97,-3.91,1.08,-0.26
15.84320104122162,2,3,3,2,2.43,-4.9,-1.65,-2.77,0.76,4.15
15.85320103168488,2,3,3,2,1.25,-4.08,-1.99,-0.96,0.22,7.78
15.86320102214813,2,3,3,2,-1.17,-1.32,-1.53,0.27,-1.2,10.2
15.87320101261139,2,3,3,2,-1.78,-0.36,-0.42,0.33,-3.41,11.58
15.88320100307465,2,3,3,2,-1.54,-0.09,0.44,1.32,-5.29,11.82
15.8932009935379,2,3,3,2,-1.46,0.13,0.58,3.65,-5.56,10.59
15.90320098400116,2,3,3,2,-1.23,0.41,0.63,4.75,-5.14,8.76
15.91320097446442,2,3,3,2,-1.11,0.68,0.84,4.81,-4.22,6.32
15.92320096492767,2,3,3,2,-0.95,1.11,0.76,4.21,-2.86,3.77
15.93320095539093,2,3,3,2,-1.08,1.49,0.6899999999999999,3.57,-1,1.47
15.94320094585419,2,3,3,2,-0.82,1.51,0.99,2.58,0.72,-0.35
15.95320093631744,2,3,3,2,-0.68,1.2,0.91,1.45,2.19,-1.65
15.9632009267807,2,3,3,2,-0.53,0.77,0.83,0.5600000000000001,3.11,-2.57
15.97320091724396,2,3,3,2,-0.47,0,0.9,0.09,3.46,-3.1
15.98320090770721,2,3,3,2,-0.34,-0.49,0.74,0.07000000000000001,3.06,-3.21
15.99320089817047,2,3,3,2,-0.08,-1.05,0.55,0.29,2.4,-2.9
16.00320088863373,2,3,3,2,0.21,-1.51,0.15,0.46,1.91,-2.24
16.01320087909698,2,3,3,2,0.5,-2.02,0.34,0.71,1.48,-1.16
16.02320086956024,2,3,3,2,0.71,-2.33,0.49,1.04,1,0.43
16.0332008600235,2,3,3,2,0.86,-2.57,0.58,1.24,0.61,2.22
16.04320085048676,2,3,3,2,1.06,-2.46,0.25,0.95,0.53,4.26
16.05320107936859,2,3,3,2,1.31,-1.93,-1.31,0.16,1.13,6.24
16.06320106983185,2,3,3,2,1.18,-1.82,-0.97,-0.74,2.03,7.56
16.0732010602951,2,3,3,2,0.14,-1.98,1.03,-0.35,2.15,8.65
16.08320105075836,2,3,3,2,-1.29,-2.12,-0.28,-0.7,0.41,10.69
16.09320104122162,2,3,3,2,-7.26,-2.92,1.05,-4.21,-4.58,13.02
16.10320103168488,2,3,3,2,-14.41,-1.41,0.02,-2.48,-8.09,17.3
16.11320102214813,2,3,3,2,-22,0.88,2.12,1.61,-11.96,21.98
16.12320101261139,2,3,3,2,-34.7,5.55,1.12,4.1,-7.05,22.43
16.13320100307465,2,3,3,1,-36.05,10.77,8.84,4.42,-1.39,19.4
16.1432009935379,2,3,3,1,-35.3,12.18,8.67,-1.83,5.75,9.800000000000001
16.15320098400116,2,3,3,1,-33.44,5.88,5.57,-5.2,10.76,0.54
16.16320097446442,2,3,3,1,-32.07,4.14,3.41,-7.34,9.42,0.55
16.17320096492767,2,3,3,1,-26.24,4.79,1.1,-9.699999999999999,5.76,3.23
16.18320095539093,2,3,3,1,-23.27,4.49,1.17,-10.32,2.62,4.54
16.19320094585419,2,3,3,1,-20.71,3.94,0.14,-10.22,0.07000000000000001,5.45
16.20320093631744,2,3,3,1,-17.61,2.38,-0.29,-9.31,-0.58,6.36
16.2132009267807,2,3,3,1,-15.54,1.83,0.54,-7.33,-1.84,5.39
16.22320091724396,2,3,3,1,-13.95,1.77,1.39,-6.12,-2.44,2.82
16.23320090770721,2,3,3,1,-12.16,1.61,2,-5.37,-1.34,-0.66
16.24320089817047,2,3,3,1,-9.460000000000001,0.14,1.68,-4.24,0.68,-3.97
16.25320088863373,2,3,3,1,-8.34,-0.31,1.2,-2.63,2.55,-6.84
16.26320087909698,2,3,3,1,-7.58,-0.82,1.05,-1.06,3.65,-9.25
16.27320086956024,2,3,3,1,-7.01,-1.15,0.93,0.49,3.91,-11.33
16.2832008600235,2,3,3,1,-6.57,-1.3,0.95,1.46,3.49,-12.9
16.29320085048676,2,3,3,1,-6.71,-1.58,1.08,1.33,2.91,-13.36
16.30320107936859,2,3,3,1,-7.07,-1.91,1.04,0.51,2.83,-12.36
16.31320106983185,2,3,3,1,-7.76,-2.48,1.3,-0.39,2.92,-10.18
16.35320103168488,2,3,3,1,-4.06,-3.53,-0.12,-0.41,1.31,-1.85
16.36320102214813,2,3,3,1,-3.71,-3.46,-0.28,0.25,1.82,-0.83
16.38320100307465,2,3,3,0,-4.25,-2.99,-1.03,1.65,2.51,-0.28
16.3932009935379,2,3,3,0,-6.5,-2.2,-1.15,2.16,2.57,0.05
16.40320098400116,2,3,3,0,-8.199999999999999,-2.05,-1.19,2.71,1.95,0.67
16.41320097446442,2,3,3,0,-9.93,-1.91,-1.1,2.74,0.66,1.53
16.42320096492767,2,3,3,0,-11.74,-1.9,-1.02,1.73,-1.17,2.39
16.43320095539093,2,3,3,0,-14.25,-1.27,-0.36,0.06,-3.2,3.2
16.44320094585419,2,3,3,0,-13.97,-0.52,0.05,-0.99,-5.2,3.83
16.45320093631744,2,3,3,0,-12.5,-0.04,0.58,-1.39,-6.54,3.8
16.4632009267807,2,3,3,0,-10.66,0.42,1.23,-1.38,-6.16,3.08
16.47320091724396,2,3,3,0,-8.869999999999999,0.91,2.82,-1.36,-4.22,2.11
16.48320090770721,2,3,3,0,-8.720000000000001,0.9,2.99,-1.45,-1.4,1.29
16.49320089817047,2,3,3,0,-8.880000000000001,0.96,2.67,-1.83,1.58,0.61
16.50320088863373,2,3,3,0,-10.12,0.66,1.52,-2.44,4.28,0.21
16.51320087909698,2,3,3,0,-10.77,0.44,1.02,-2.86,5.91,-0.09
16.52320086956024,2,3,3,0,-11.18,0.35,0.6,-2.83,6.08,-0.43
16.5332008600235,2,3,3,0,-11.29,0.25,0.35,-2.27,5.29,-0.64
16.54320085048676,2,3,3,0,-10.81,-0.01,-0.13,-1.57,3.98,-0.63
16.55320107936859,2,3,3,0,-10.29,-0.22,-0.25,-1.01,2.62,-0.54
16.56320106983185,2,3,3,0,-9.75,-0.43,-0.28,-0.58,1.24,-0.5
16.5732010602951,2,3,3,0,-9.42,-0.49,-0.31,-0.14,0.19,-0.35
16.58320105075836,2,3,3,0,-9.140000000000001,-0.53,-0.1,0.24,-0.63,-0.16
16.59320104122162,2,3,3,0,-9.1,-0.51,-0.02,0.58,-1.22,0
16.60320103168488,2,3,3,0,-9.130000000000001,-0.45,-0.02,0.8,-1.51,0.04
16.61320102214813,2,3,3,0,-9.210000000000001,-0.4,0.09,1.01,-1.51,0
16.62320101261139,2,3,3,0,-9.390000000000001,-0.19,0.37,1.1,-1.38,-0.03
16.63320100307465,2,3,3,0,-9.49,-0.11,0.51,1.03,-1.06,-0.06
16.6432009935379,2,3,3,0,-9.59,-0.02,0.55,0.8,-0.62,-0.12
16.65320098400116,2,3,3,0,-9.68,0.07000000000000001,0.57,0.45,-0.17,-0.19
16.66320097446442,2,3,3,0,-9.73,0.14,0.76,0.12,0.12,-0.23
16.67320096492767,2,3,3,0,-9.76,0.18,0.93,-0.07000000000000001,0.22,-0.25
16.68320095539093,2,3,3,0,-9.77,0.19,1.02,-0.21,0.14,-0.15
16.69320094585419,2,3,3,0,-9.68,0.06,0.95,-0.36,-0.13,-0.05
16.70320093631744,2,3,3,0,-9.56,-0.02,0.8100000000000001,-0.44,-0.48,0.13
16.7132009267807,2,3,3,0,-9.41,-0.01,0.77,-0.54,-0.91,0.4
16.72320091724396,2,3,3,0,-9.31,0.02,0.63,-0.54,-1.13,0.65
16.73320090770721,2,3,3,0,-9.380000000000001,0.18,0.44,-0.58,-1.27,0.93
16.74320089817047,2,3,3,0,-9.539999999999999,0.22,0.39,-0.5600000000000001,-1.19,1.08
16.75320088863373,2,3,3,0,-9.69,0.22,0.34,-0.43,-1.01,1.16
16.76420104503632,2,3,3,0,-9.859999999999999,0.17,0.38,-0.24,-0.95,1.13
16.77420103549957,2,3,3,0,-10.12,0.2,0.36,0.11,-0.92,1
16.78420102596283,2,3,3,0,-10.16,0.26,0.42,0.4,-0.91,0.73
16.79420101642609,2,3,3,0,-10.15,0.32,0.5600000000000001,0.63,-0.82,0.42
16.80420100688934,2,3,3,0,-10.04,0.33,0.66,0.82,-0.77,0.11
16.8142009973526,2,3,3,0,-9.76,0.35,0.8100000000000001,0.91,-0.72,-0.19
16.82420098781586,2,3,3,0,-9.6,0.31,0.91,0.95,-0.58,-0.41
16.83420097827911,2,3,3,0,-9.43,0.29,1.01,0.9,-0.47,-0.5600000000000001
16.84420096874237,2,3,3,0,-9.279999999999999,0.36,0.88,0.73,-0.41,-0.59
16.85420095920563,2,3,3,0,-9.27,0.34,0.78,0.45,-0.4,-0.54
16.86420094966888,2,3,3,0,-9.32,0.35,0.85,0.18,-0.39,-0.4
16.87420094013214,2,3,3,0,-9.31,0.3,0.9399999999999999,-0.06,-0.47,-0.19
16.8842009305954,2,3,3,0,-9.41,0.11,1.03,-0.27,-0.54,0.03
16.89420092105865,2,3,3,0,-9.470000000000001,0.09,1,-0.46,-0.5600000000000001,0.24
16.90420091152191,2,3,3,0,-9.550000000000001,0.06,0.87,-0.64,-0.55,0.43
16.91420090198517,2,3,3,0,-9.630000000000001,0.05,0.84,-0.76,-0.5,0.62
16.92420089244843,2,3,3,0,-9.75,0.06,0.87,-0.8,-0.46,0.76
16.93420088291168,2,3,3,0,-9.75,0.06,0.87,-0.74,-0.49,0.87
16.94420087337494,2,3,3,0,-9.800000000000001,0.08,0.84,-0.64,-0.5,0.88
16.9542008638382,2,3,3,0,-9.789999999999999,0,0.75,-0.52,-0.51,0.83
16.96420085430145,2,3,3,0,-9.779999999999999,-0.07000000000000001,0.89,-0.32,-0.48,0.7
16.97420084476471,2,3,3,0,-9.74,-0.14,1.06,-0.11,-0.41,0.51
16.98420107364655,2,3,3,1,-9.710000000000001,-0.09,1.04,0.04,-0.27,0.33
16.9942010641098,2,3,3,1,-9.710000000000001,-0.09,1.04,0.2,-0.1,0.16
17.00420105457306,2,3,3,1,-9.66,0.01,0.99,0.28,0.04,-0.03
17.01420104503632,2,3,3,1,-9.66,0,1.07,0.39,0.09,-0.2
17.02420103549957,2,3,3,1,-9.609999999999999,-0.03,1.07,0.42,0.1,-0.33
17.03420102596283,2,3,3,1,-9.609999999999999,-0.03,1.07,0.52,0.14,-0.35
17.04420101642609,2,3,3,1,-9.66,-0.01,1,0.61,0.16,-0.31
17.05420100688934,2,3,3,1,-9.710000000000001,0.01,0.86,0.7,0.13,-0.23
17.0642009973526,2,3,3,1,-9.710000000000001,0.07000000000000001,0.87,0.8100000000000001,0.05,-0.1
17.07420098781586,2,3,3,1,-9.710000000000001,0.08,0.93,0.87,-0.02,-0.03
17.08420097827911,2,3,3,2,-9.710000000000001,0.08,0.93,0.87,-0.02,-0.03
17.09420096874237,2,3,3,2,-9.710000000000001,0.06,0.97,0.87,-0.15,0.05
17.10420095920563,2,3,3,2,-9.65,0.08,0.85,0.73,-0.24,0
17.11420094966888,2,3,3,2,-9.630000000000001,0.04,0.93,0.59,-0.24,-0.07000000000000001
17.12420094013214,2,3,3,2,-9.630000000000001,0.03,0.97,0.47,-0.2,-0.09
17.1342009305954,2,3,3,2,-9.630000000000001,0.03,0.97,0.47,-0.2,-0.09
17.14420092105865,2,3,3,2,-9.66,0.01,0.9399999999999999,0.43,-0.17,-0.14
17.15420091152191,2,3,3,2,-9.630000000000001,0,0.87,0.21,-0.1,-0.22
17.16420090198517,2,3,3,2,-9.6,0,0.95,0.14,-0.06,-0.2
17.17420089244843,2,3,3,2,-9.58,0.02,0.99,0.13,0,-0.18
17.18420088291168,2,3,3,2,-9.58,0.02,0.99,0.13,0,-0.18
17.19420087337494,2,3,3,2,-9.6,-0.03,0.98,0.1,0.06,-0.06
17.2042008638382,2,3,3,2,-9.640000000000001,-0.06,0.89,0.04,0.12,-0.04
17.21420085430145,2,3,3,2,-9.69,-0.06,0.93,0.02,0.17,0.02
17.22420084476471,2,3,3,2,-9.76,-0.1,0.9,-0.07000000000000001,0.13,0.05
17.23420107364655,2,3,3,2,-9.76,-0.1,0.9,-0.07000000000000001,0.13,0.05
17.2442010641098,2,3,3,2,-9.82,-0.09,0.86,-0.23,0.1,0.1
17.25420105457306,2,3,3,2,-9.82,-0.1,0.8100000000000001,-0.61,-0.08,0.02
17.26420104503632,2,3,3,2,-9.789999999999999,-0.14,0.73,-0.64,-0.11,-0.1
17.27420103549957,2,3,3,2,-9.81,-0.26,0.83,-0.55,-0.12,-0.19
17.28420102596283,2,3,3,2,-9.77,-0.36,0.85,-0.55,-0.12,-0.19
17.29420101642609,2,3,3,2,-9.73,-0.42,0.86,-0.41,-0.17,-0.28
17.30420100688934,2,3,3,2,-9.720000000000001,-0.47,0.88,-0.04,-0.09,-0.32
17.3142009973526,2,3,3,2,-9.66,-0.52,0.76,0.11,-0.07000000000000001,-0.32
17.32420098781586,2,3,3,2,-9.65,-0.53,0.82,0.35,-0.02,-0.25
17.33420097827911,2,3,3,2,-9.609999999999999,-0.53,0.86,0.35,-0.02,-0.25
17.34420096874237,2,3,3,2,-9.57,-0.53,0.93,0.55,0.01,-0.18
17.35420095920563,2,3,3,2,-9.539999999999999,-0.45,0.87,0.93,0.15,-0.02
17.36420094966888,2,3,3,2,-9.56,-0.43,0.8100000000000001,1.15,0.17,0.08
17.37420094013214,2,3,3,2,-9.57,-0.39,0.86,1.33,0.22,0.16
17.3842009305954,2,3,3,2,-9.619999999999999,-0.25,0.86,1.33,0.22,0.16
17.39420092105865,2,3,3,2,-9.66,-0.18,0.91,1.46,0.25,0.22
17.40420091152191,2,3,3,2,-9.69,-0.13,0.89,1.51,0.16,0.29
17.41420090198517,2,3,3,2,-9.699999999999999,-0.12,0.83,1.55,0.15,0.25
17.42420089244843,2,3,3,2,-9.77,-0.04,0.91,1.42,0.08,0.23
17.43420088291168,2,3,3,2,-9.81,-0.03,0.9399999999999999,1.42,0.08,0.23
17.44420087337494,2,3,3,3,-9.800000000000001,-0.03,0.96,1.29,0.03,0.22
17.4542008638382,2,3,3,3,-9.800000000000001,0,0.95,0.99,-0.01,0.21
17.46420085430145,2,3,3,3,-9.75,0.01,0.8100000000000001,0.8100000000000001,0,0.2
17.47420084476471,2,3,3,3,-9.74,0.02,0.86,0.7,0.02,0.16
17.48420107364655,2,3,3,3,-9.710000000000001,0.04,0.84,0.7,0.02,0.16
17.4942010641098,2,3,3,3,-9.73,0.04,0.84,0.51,0.02,0.13
17.50420105457306,2,3,3,3,-9.699999999999999,0.1,0.84,0.15,-0.01,0.04
17.55420100688934,2,3,3,3,-9.699999999999999,-0.04,0.84,-0.29,0.03,-0.04
17.5642009973526,2,3,3,3,-9.74,-0.08,0.74,-0.22,0.04,-0.09
17.57420098781586,2,3,3,3,-9.779999999999999,-0.16,0.6899999999999999,-0.28,0.03,-0.12
17.58420097827911,2,3,3,3,-9.75,-0.2,0.73,-0.28,0.03,-0.12
17.59420096874237,2,3,3,3,-9.75,-0.22,0.7,-0.25,0.02,-0.14
17.60420095920563,2,3,3,3,-9.73,-0.24,0.72,-0.19,0.04,-0.14
17.61420094966888,2,3,3,3,-9.67,-0.22,0.63,-0.12,0.08,-0.15
17.62420094013214,2,3,3,3,-9.65,-0.23,0.65,-0.01,0.07000000000000001,-0.15
17.6342009305954,2,3,3,3,-9.630000000000001,-0.2,0.6899999999999999,-0.01,0.07000000000000001,-0.15
17.64420092105865,2,3,3,3,-9.619999999999999,-0.19,0.74,0.19,0.15,-0.14
17.65420091152191,2,3,3,3,-9.619999999999999,-0.17,0.72,0.28,0.18,-0.07000000000000001
17.66420090198517,2,3,3,3,-9.65,-0.19,0.63,0.31,0.18,-0.04
17.67420089244843,2,3,3,3,-9.65,-0.15,0.6899999999999999,0.32,0.23,-0.03
17.68420088291168,2,3,3,3,-9.67,-0.11,0.6899999999999999,0.32,0.23,-0.03
17.69420087337494,2,3,3,3,-9.720000000000001,-0.02,0.67,0.21,0.15,0.03
17.7042008638382,2,3,3,3,-9.73,-0.02,0.67,0.21,0.15,0.03
17.71420085430145,2,3,3,3,-9.76,0.01,0.6,0.22,0.07000000000000001,0.08
17.72420084476471,2,3,3,3,-9.77,-0.01,0.68,0.19,0.03,0.06
17.73420107364655,2,3,3,3,-9.75,-0.01,0.71,0.13,0.01,0.05
17.7442010641098,2,3,3,3,-9.75,-0.01,0.74,0.07000000000000001,-0.01,0.08
17.75420105457306,2,3,3,3,-9.75,-0.03,0.72,0.03,-0.05,0.06
17.76420104503632,2,3,3,3,-9.720000000000001,0,0.63,-0.07000000000000001,-0.09,0.02
17.77420103549957,2,3,3,3,-9.710000000000001,-0.01,0.67,-0.07000000000000001,-0.04,0
17.78420102596283,2,3,3,3,-9.710000000000001,-0.03,0.7,-0.04,-0.05,0
17.79520094394684,2,3,3,3,-9.699999999999999,-0.07000000000000001,0.74,0.04,-0.01,-0.01
17.8052009344101,2,3,3,3,-9.699999999999999,-0.09,0.68,0.02,-0.01,-0.01
17.81520092487335,2,3,3,3,-9.720000000000001,-0.08,0.64,0.02,-0.01,-0.01
17.82520091533661,2,3,3,3,-9.710000000000001,-0.08,0.7,0.04,0,0.01
17.83520090579987,2,3,3,3,-9.699999999999999,-0.08,0.75,0.05,0.01,0
17.84520089626312,2,3,3,3,-9.69,-0.09,0.79,0.03,-0.03,0.01
17.85520088672638,2,3,3,3,-9.68,-0.12,0.72,-0.09,-0.07000000000000001,0.02
17.86520087718964,2,3,3,3,-9.699999999999999,-0.12,0.68,-0.12,-0.04,0
17.87520086765289,2,3,3,3,-9.699999999999999,-0.12,0.64,-0.14,-0.07000000000000001,0
17.88520085811615,2,3,3,3,-9.720000000000001,-0.11,0.7,-0.24,-0.09,-0.01
17.89520084857941,2,3,3,3,-9.74,-0.09,0.76,-0.29,-0.12,-0.02
17.90520107746124,2,3,3,3,-9.710000000000001,-0.08,0.8,-0.34,-0.09,-0.05
17.9152010679245,2,3,3,3,-9.699999999999999,-0.12,0.72,-0.39,-0.1,-0.07000000000000001
17.92520105838776,2,3,3,3,-9.69,-0.14,0.72,-0.42,-0.08,-0.07000000000000001
17.93520104885101,2,3,3,3,-9.67,-0.2,0.76,-0.47,-0.06,-0.08
17.94520103931427,2,3,3,2,-9.67,-0.21,0.75,-0.48,-0.06,-0.07000000000000001
17.95520102977753,2,3,3,2,-9.68,-0.27,0.76,-0.4,-0.05,-0.05
17.96520102024078,2,3,3,2,-9.67,-0.27,0.7,-0.35,-0.02,-0.04
17.97520101070404,2,3,3,2,-9.69,-0.24,0.74,-0.25,0.01,-0.04
17.9852010011673,2,3,3,2,-9.710000000000001,-0.22,0.75,-0.19,0.02,-0.03
17.99520099163055,2,3,3,2,-9.720000000000001,-0.21,0.83,-0.16,0.02,-0.03
18.00520098209381,2,3,3,2,-9.73,-0.2,0.82,-0.08,0.01,-0.02
18.01520097255707,2,3,3,2,-9.720000000000001,-0.17,0.71,-0.08,0.01,-0.04
18.02520096302032,2,3,3,2,-9.720000000000001,-0.17,0.74,-0.09,0.04,-0.06
18.03520095348358,2,3,3,2,-9.710000000000001,-0.16,0.8100000000000001,-0.15,0.05,-0.07000000000000001
18.04520094394684,2,3,3,2,-9.73,-0.16,0.85,-0.17,0.07000000000000001,-0.08
18.0552009344101,2,3,3,2,-9.720000000000001,-0.18,0.85,-0.25,0.05,-0.1
18.06520092487335,2,3,3,2,-9.710000000000001,-0.17,0.74,-0.31,0.07000000000000001,-0.14
18.07520091533661,2,3,3,2,-9.699999999999999,-0.15,0.79,-0.39,0.04,-0.15
18.08520090579987,2,3,3,2,-9.699999999999999,-0.16,0.78,-0.41,0.01,-0.17
18.09520089626312,2,3,3,1,-9.68,-0.16,0.8,-0.52,0,-0.18
18.10520088672638,2,3,3,1,-9.67,-0.15,0.78,-0.58,0,-0.16
18.11520087718964,2,3,3,1,-9.699999999999999,-0.19,0.74,-0.64,-0.01,-0.14
18.12520086765289,2,3,3,1,-9.73,-0.23,0.79,-0.63,0.01,-0.1
18.13520085811615,2,3,3,1,-9.69,-0.23,0.84,-0.68,0,-0.1
18.14520084857941,2,3,3,1,-9.720000000000001,-0.27,0.84,-0.75,0,-0.08
18.15520107746124,2,3,3,1,-9.710000000000001,-0.29,0.83,-0.74,-0.01,-0.1
18.1652010679245,2,3,3,1,-9.710000000000001,-0.27,0.74,-0.72,0.01,-0.1
18.17520105838776,2,3,3,1,-9.69,-0.25,0.74,-0.72,0.05,-0.12
18.18520104885101,2,3,3,1,-9.69,-0.31,0.83,-0.67,0.02,-0.1
18.19520103931427,2,3,3,1,-9.710000000000001,-0.33,0.83,-0.67,0,-0.1
18.20520102977753,2,3,3,1,-9.710000000000001,-0.36,0.84,-0.7,0.01,-0.09
18.21520102024078,2,3,3,1,-9.710000000000001,-0.36,0.75,-0.63,0.02,-0.1
18.22520101070404,2,3,3,1,-9.699999999999999,-0.38,0.75,-0.59,0,-0.07000000000000001
18.2352010011673,2,3,3,1,-9.699999999999999,-0.37,0.78,-0.61,0.02,-0.11
18.24520099163055,2,3,3,1,-9.699999999999999,-0.38,0.79,-0.51,0,-0.13
18.27520096302032,2,3,3,1,-9.73,-0.35,0.76,-0.29,-0.01,-0.12
18.28520095348358,2,3,3,1,-9.73,-0.37,0.77,-0.22,0.01,-0.15
18.29520094394684,2,3,3,1,-9.74,-0.33,0.8,-0.21,0.02,-0.15
18.3052009344101,2,3,3,1,-9.73,-0.32,0.77,-0.2,0.02,-0.14
18.31520092487335,2,3,3,1,-9.73,-0.31,0.7,-0.13,0.01,-0.15
18.32520091533661,2,3,3,1,-9.74,-0.3,0.7,-0.09,-0.01,-0.15
18.33520090579987,2,3,3,1,-9.710000000000001,-0.26,0.77,-0.13,0.02,-0.18
18.34520089626312,2,3,3,1,-9.699999999999999,-0.25,0.77,-0.07000000000000001,0.04,-0.16
18.35520088672638,2,3,3,1,-9.699999999999999,-0.24,0.78,-0.14,0.01,-0.17
18.36520087718964,2,3,3,1,-9.69,-0.23,0.71,-0.11,0.01,-0.15
18.37520086765289,2,3,3,1,-9.68,-0.26,0.75,-0.14,0.05,-0.15
18.38520085811615,2,3,3,1,-9.68,-0.25,0.77,-0.12,0.01,-0.15
18.39520084857941,2,3,3,1,-9.67,-0.24,0.78,-0.12,0.04,-0.14
18.40520107746124,2,3,3,1,-9.68,-0.22,0.77,-0.15,0.07000000000000001,-0.11
18.4152010679245,2,3,3,1,-9.710000000000001,-0.23,0.6899999999999999,-0.13,0.05,-0.11
18.42520105838776,2,3,3,1,-9.73,-0.19,0.6899999999999999,-0.13,0.03,-0.11
18.43520104885101,2,3,3,1,-9.710000000000001,-0.19,0.72,-0.18,0.01,-0.08
18.44520103931427,2,3,3,1,-9.699999999999999,-0.22,0.8100000000000001,-0.2,-0.02,-0.04
18.45520102977753,2,3,3,1,-9.720000000000001,-0.23,0.8,-0.18,-0.06,-0.04
18.46520102024078,2,3,3,1,-9.73,-0.22,0.71,-0.2,-0.06,-0.03
18.47520101070404,2,3,3,1,-9.699999999999999,-0.23,0.7,-0.26,-0.1,-0.02
18.4852010011673,2,3,3,1,-9.75,-0.22,0.85,-0.27,-0.11,-0.04
18.49520099163055,2,3,3,1,-9.75,-0.19,0.9399999999999999,-0.26,-0.23,-0.03
18.50520098209381,2,3,3,1,-9.699999999999999,-0.19,0.85,-0.19,-0.34,0.09
18.51520097255707,2,3,3,1,-9.75,-0.23,0.6899999999999999,0,-0.29,0.16
18.52520096302032,2,3,3,1,-9.74,-0.25,0.7,0.04,-0.26,0.19
18.53520095348358,2,3,3,1,-9.77,-0.22,0.7,-0.1,-0.23,0.16
18.54520094394684,2,3,3,1,-9.75,-0.16,0.75,-0.2,-0.18,0.13
18.5552009344101,2,3,3,1,-9.720000000000001,-0.16,0.79,-0.14,-0.12,0.04
18.56520092487335,2,3,3,1,-9.65,-0.26,0.66,-0.16,-0.12,-0.05
18.57520091533661,2,3,3,1,-9.65,-0.32,0.71,-0.12,-0.08,-0.09
18.58520090579987,2,3,3,1,-9.619999999999999,-0.35,0.71,-0.15,-0.05,-0.13
18.59520089626312,2,3,3,1,-9.6,-0.37,0.7,-0.19,-0.03,-0.17
18.60520088672638,2,3,3,1,-9.609999999999999,-0.35,0.68,-0.19,-0.03,-0.17
18.61520087718964,2,3,3,1,-9.6,-0.35,0.63,-0.18,0.01,-0.16
18.62520086765289,2,3,3,1,-9.630000000000001,-0.31,0.66,-0.14,0.04,-0.15
18.63520085811615,2,3,3,1,-9.68,-0.32,0.7,-0.03,0.06,-0.1
18.64520084857941,2,3,3,1,-9.699999999999999,-0.32,0.74,-0.01,0.04,-0.08
18.65520107746124,2,3,3,1,-9.699999999999999,-0.32,0.74,0,0.07000000000000001,-0.04
18.6652010679245,2,3,3,1,-9.710000000000001,-0.33,0.64,0.05,0.06,-0.01
18.67520105838776,2,3,3,1,-9.74,-0.28,0.72,0.14,0.08,-0.05
18.68520104885101,2,3,3,1,-9.74,-0.28,0.72,0.24,0.12,-0.04
18.69520103931427,2,3,3,1,-9.73,-0.24,0.74,0.24,0.13,-0.06
18.70520102977753,2,3,3,1,-9.74,-0.23,0.76,0.23,0.13,-0.07000000000000001
18.71520102024078,2,3,3,1,-9.710000000000001,-0.19,0.66,0.21,0.11,-0.1
18.72520101070404,2,3,3,1,-9.73,-0.16,0.72,0.18,0.13,-0.11
18.7352010011673,2,3,3,1,-9.710000000000001,-0.15,0.75,0.12,0.1,-0.13
18.74520099163055,2,3,3,1,-9.73,-0.16,0.75,0.13,0.05,-0.11
18.75520098209381,2,3,3,1,-9.779999999999999,-0.16,0.78,0.07000000000000001,0,-0.14
18.76520097255707,2,3,3,1,-9.73,-0.19,0.71,0.06,-0.06,-0.12
18.77520096302032,2,3,3,1,-9.720000000000001,-0.21,0.8,0.08,-0.12,-0.11
18.78520095348358,2,3,3,1,-9.69,-0.27,0.84,0.06,-0.19,-0.13
18.79520094394684,2,3,3,1,-9.69,-0.3,0.83,-0.02,-0.15,-0.14
18.8052009344101,2,3,3,1,-9.69,-0.28,0.8,-0.03,-0.13,-0.17
18.8162008523941,2,3,3,1,-9.720000000000001,-0.28,0.72,-0.06,-0.12,-0.18
18.82620084285736,2,3,3,1,-9.76,-0.19,0.8,-0.04,-0.1,-0.21
18.8362010717392,2,3,3,1,-9.789999999999999,-0.22,0.84,-0.01,-0.09,-0.22
18.84620106220245,2,3,3,1,-9.76,-0.26,0.97,-0.07000000000000001,-0.15,-0.2
18.85620105266571,2,3,3,1,-9.710000000000001,-0.29,0.96,-0.07000000000000001,-0.09,-0.22
18.86620104312897,2,3,3,1,-9.67,-0.32,0.79,-0.13,-0.05,-0.22
18.87620103359222,2,3,3,1,-9.67,-0.29,0.85,-0.13,-0.05,-0.23
18.88620102405548,2,3,3,1,-9.68,-0.32,0.85,-0.13,-0.06,-0.22
18.89620101451874,2,3,3,1,-9.67,-0.36,0.9,-0.08,-0.07000000000000001,-0.17
18.90620100498199,2,3,3,1,-9.699999999999999,-0.39,0.84,0.03,-0.06,-0.16
18.91620099544525,2,3,3,1,-9.710000000000001,-0.38,0.76,0.1,-0.09,-0.17
18.92620098590851,2,3,3,1,-9.710000000000001,-0.34,0.8100000000000001,0.16,-0.08,-0.18
18.93620097637177,2,3,3,1,-9.69,-0.32,0.86,0.25,-0.1,-0.2
18.94620096683502,2,3,3,1,-9.73,-0.27,0.89,0.25,-0.06,-0.25
18.95620095729828,2,3,3,1,-9.710000000000001,-0.27,0.86,0.23,-0.04,-0.3
18.96620094776154,2,3,3,1,-9.76,-0.25,0.74,0.19,-0.03,-0.33
18.97620093822479,2,3,3,1,-9.699999999999999,-0.25,0.83,0.14,-0.02,-0.39
18.98620092868805,2,3,3,1,-9.720000000000001,-0.25,0.86,0.13,0,-0.43
18.99620091915131,2,3,3,1,-9.74,-0.25,0.85,0.01,-0.03,-0.5
19.00620090961456,2,3,3,1,-9.720000000000001,-0.28,0.87,-0.03,-0.01,-0.54
19.01620090007782,2,3,3,1,-9.720000000000001,-0.32,0.72,-0.09,-0.01,-0.54
19.02620089054108,2,3,3,1,-9.710000000000001,-0.33,0.78,-0.14,-0.05,-0.55
19.03620088100433,2,3,3,1,-9.699999999999999,-0.31,0.77,-0.18,-0.04,-0.53
19.04620087146759,2,3,3,1,-9.699999999999999,-0.38,0.79,-0.15,-0.04,-0.51
19.05620086193085,2,3,3,1,-9.69,-0.4,0.77,-0.15,-0.09,-0.44
19.0662008523941,2,3,3,1,-9.65,-0.47,0.6899999999999999,-0.14,-0.11,-0.38
19.07620084285736,2,3,3,1,-9.640000000000001,-0.51,0.75,-0.13,-0.11,-0.32
19.0862010717392,2,3,3,1,-9.609999999999999,-0.5600000000000001,0.77,-0.14,-0.14,-0.24
19.09620106220245,2,3,3,2,-9.59,-0.62,0.77,-0.13,-0.11,-0.14
19.10620105266571,2,3,3,2,-9.6,-0.62,0.75,-0.15,-0.16,-0.02
19.11620104312897,2,3,3,2,-9.609999999999999,-0.63,0.68,-0.13,-0.18,0.07000000000000001
19.12620103359222,2,3,3,2,-9.630000000000001,-0.64,0.78,-0.08,-0.18,0.16
