timestamp,magCalib,accCalib,gyrCalib,sysCalib,accX,accY,accZ,gyrX,gyrY,gyrZ
-0.4587990045547485,2,3,3,3,-9.73,-0.95,-0.83,0.74,0.07000000000000001,0.39
-0.4387990236282349,2,3,3,3,-9.69,-0.98,-0.8100000000000001,0.71,0.01,0.46
-0.4087990522384644,2,3,3,3,-9.68,-1.04,-0.84,0.75,0.03,0.44
-0.2587989568710327,2,3,3,3,-9.74,-0.91,-0.83,-0.03,-0.04,-0.02
-0.2487989664077759,2,3,3,3,-9.74,-0.86,-0.85,0.07000000000000001,-0.12,-0.05
-0.238798975944519,2,3,3,3,-9.74,-0.77,-0.77,0.07000000000000001,-0.12,-0.05
-0.2287989854812622,2,3,3,3,-9.76,-0.78,-0.73,0.01,0.03,-0.03
-0.2177990674972534,2,3,3,3,-9.800000000000001,-0.76,-0.71,-0.01,0.01,0.01
-0.2077990770339966,2,3,3,3,-9.73,-0.73,-0.8,-0.03,0.06,0.01
-0.1977990865707397,2,3,3,3,-9.74,-0.7,-0.76,-0.13,0.07000000000000001,0.01
-0.1877990961074829,2,3,3,3,-9.76,-0.68,-0.74,-0.13,0.07000000000000001,0.01
-0.1777991056442261,2,3,3,3,-9.74,-0.7,-0.74,-0.12,-0.09,0.04
-0.1077989339828491,2,3,3,3,-9.720000000000001,-0.79,-0.82,0.02,-0.3,0.18
-0.09779894351959229,2,3,3,3,-9.69,-0.79,-0.78,-0.05,-0.14,0.18
-0.08779895305633545,2,3,3,3,-9.710000000000001,-0.84,-0.78,-0.05,-0.14,0.18
-0.07779896259307861,2,3,3,3,-9.73,-0.92,-0.74,-0.07000000000000001,-0.11,0.23
-0.06779897212982178,2,3,3,3,-9.699999999999999,-0.9399999999999999,-0.77,0.02,-0.3,0.16
-0.05779898166656494,2,3,3,3,-9.710000000000001,-0.95,-0.88,-0.03,-0.17,0.16
-0.04779899120330811,2,3,3,3,-9.75,-0.97,-0.87,0.13,-0.13,0.22
-0.03779900074005127,2,3,3,3,-9.699999999999999,-0.9399999999999999,-0.75,0.13,-0.13,0.22
-0.02779901027679443,2,3,3,3,-9.69,-0.92,-0.73,0.05,-0.13,0.1
-0.0177990198135376,2,3,3,3,-9.710000000000001,-0.91,-0.76,0,-0.04,0.07000000000000001
-0.007799029350280762,2,3,3,3,-9.73,-0.91,-0.87,0.02,0,0.04
0.002200961112976074,2,3,3,3,-9.720000000000001,-0.87,-0.79,0.07000000000000001,-0.02,0
0.01220095157623291,2,3,3,3,-9.710000000000001,-0.86,-0.74,0.07000000000000001,-0.02,0
0.02220094203948975,2,3,3,3,-9.76,-0.8,-0.71,0.02,-0.02,-0.06
0.03220093250274658,2,3,3,3,-9.75,-0.77,-0.73,-0.06,-0.03,-0.06
0.04220092296600342,2,3,3,3,-9.76,-0.77,-0.8,-0.17,-0.05,-0.02
0.07220089435577393,2,3,3,3,-9.76,-0.7,-0.68,-0.26,-0.05,-0.05
0.08220088481903076,2,3,3,3,-9.74,-0.7,-0.76,-0.24,0.04,-0.07000000000000001
0.0922008752822876,2,3,3,3,-9.77,-0.72,-0.8,-0.26,0.01,-0.08
0.1022008657455444,2,3,3,3,-9.76,-0.7,-0.76,-0.28,-0.05,-0.09
0.1122008562088013,2,3,3,3,-9.76,-0.7,-0.72,-0.28,-0.05,-0.09
0.1222008466720581,2,3,3,3,-9.76,-0.7,-0.6899999999999999,-0.31,-0.03,-0.07000000000000001
0.132201075553894,2,3,3,3,-9.76,-0.74,-0.71,-0.33,-0.01,-0.05
0.1422010660171509,2,3,3,3,-9.75,-0.71,-0.8,-0.35,-0.03,-0.04
0.1522010564804077,2,3,3,3,-9.76,-0.74,-0.77,-0.29,-0.08,-0.02
0.1622010469436646,2,3,3,3,-9.76,-0.7,-0.76,-0.29,-0.08,-0.02
0.1722010374069214,2,3,3,3,-9.75,-0.7,-0.72,-0.16,-0.13,-0.01
0.1822010278701782,2,3,3,3,-9.75,-0.72,-0.7,-0.08,-0.05,0
0.1922010183334351,2,3,3,3,-9.74,-0.71,-0.85,-0.13,0,0.03
0.2022010087966919,2,3,3,3,-9.75,-0.76,-0.79,-0.09,-0.06,0.05
0.2122009992599487,2,3,3,3,-9.76,-0.8100000000000001,-0.78,-0.09,-0.06,0.05
0.2222009897232056,2,3,3,3,-9.74,-0.8100000000000001,-0.75,-0.01,-0.1,0.04
0.2322009801864624,2,3,3,3,-9.75,-0.77,-0.77,-0.03,-0.06,0.07000000000000001
0.2422009706497192,2,3,3,3,-9.74,-0.78,-0.84,-0.03,-0.06,0.04
0.2522009611129761,2,3,3,3,-9.710000000000001,-0.78,-0.8,0.02,-0.05,0.1
0.2622009515762329,2,3,3,3,-9.720000000000001,-0.78,-0.77,0.02,-0.05,0.1
0.2722009420394897,2,3,3,3,-9.720000000000001,-0.77,-0.75,0.05,-0.07000000000000001,0.09
0.2822009325027466,2,3,3,3,-9.74,-0.79,-0.78,0.04,-0.1,0.04
0.2922009229660034,2,3,3,3,-9.74,-0.78,-0.85,0.02,-0.09,0.02
0.3022009134292603,2,3,3,3,-9.73,-0.79,-0.8100000000000001,0.06,-0.09,0.02
0.3122009038925171,2,3,3,3,-9.710000000000001,-0.82,-0.78,0.06,-0.09,0.02
0.3222008943557739,2,3,3,3,-9.74,-0.84,-0.78,0.02,-0.1,0.03
0.3322008848190308,2,3,3,3,-9.74,-0.82,-0.77,0.05,-0.13,0.04
0.3422008752822876,2,3,3,3,-9.720000000000001,-0.8100000000000001,-0.85,0.04,-0.09,-0.01
0.3522008657455444,2,3,3,3,-9.73,-0.78,-0.8100000000000001,0.01,-0.06,-0.02
0.3622008562088013,2,3,3,3,-9.75,-0.75,-0.79,0.01,-0.06,-0.02
0.3722008466720581,2,3,3,3,-9.73,-0.74,-0.77,-0.01,-0.01,-0.05
0.382201075553894,2,3,3,3,-9.720000000000001,-0.77,-0.76,-0.03,-0.11,-0.09
0.3922010660171509,2,3,3,3,-9.74,-0.76,-0.89,-0.1,-0.14,-0.07000000000000001
0.4022010564804077,2,3,3,3,-9.720000000000001,-0.77,-0.83,-0.08,-0.1,-0.08
0.4122010469436646,2,3,3,3,-9.710000000000001,-0.76,-0.78,-0.08,-0.1,-0.08
0.4222010374069214,2,3,3,3,-9.720000000000001,-0.79,-0.79,-0.1,-0.07000000000000001,-0.14
0.4322010278701782,2,3,3,3,-9.74,-0.79,-0.79,-0.13,-0.08,-0.17
0.4422010183334351,2,3,3,3,-9.74,-0.79,-0.86,-0.18,-0.14,-0.2
0.4522010087966919,2,3,3,3,-9.74,-0.8,-0.83,-0.13,-0.1,-0.17
0.4622009992599487,2,3,3,3,-9.720000000000001,-0.78,-0.77,-0.13,-0.1,-0.17
0.4722009897232056,2,3,3,3,-9.73,-0.77,-0.74,-0.14,-0.06,-0.17
0.4822009801864624,2,3,3,3,-9.75,-0.78,-0.74,-0.15,-0.07000000000000001,-0.18
0.4922009706497192,2,3,3,3,-9.74,-0.82,-0.83,-0.12,-0.13,-0.17
0.5022009611129761,2,3,3,3,-9.73,-0.82,-0.82,-0.07000000000000001,-0.15,-0.17
0.5122009515762329,2,3,3,3,-9.720000000000001,-0.82,-0.74,-0.07000000000000001,-0.15,-0.17
0.5222009420394897,2,3,3,3,-9.73,-0.83,-0.74,-0.05,-0.09,-0.14
0.5322009325027466,2,3,3,3,-9.73,-0.87,-0.75,0,-0.07000000000000001,-0.15
0.5422009229660034,2,3,3,3,-9.75,-0.87,-0.84,0.07000000000000001,-0.11,-0.11
0.5522009134292603,2,3,3,3,-9.73,-0.89,-0.79,0.17,-0.08,-0.11
0.5622009038925171,2,3,3,3,-9.73,-0.88,-0.74,0.17,-0.08,-0.11
0.5722008943557739,2,3,3,3,-9.73,-0.86,-0.72,0.23,-0.04,-0.11
0.5822008848190308,2,3,3,3,-9.73,-0.85,-0.73,0.19,-0.07000000000000001,-0.17
0.5922008752822876,2,3,3,3,-9.76,-0.85,-0.79,0.18,-0.05,-0.14
0.6022008657455444,2,3,3,3,-9.720000000000001,-0.85,-0.78,0.18,-0.07000000000000001,-0.12
0.6122008562088013,2,3,3,3,-9.720000000000001,-0.84,-0.73,0.18,-0.07000000000000001,-0.12
0.6222008466720581,2,3,3,3,-9.710000000000001,-0.84,-0.7,0.24,-0.05,-0.1
0.632201075553894,2,3,3,3,-9.74,-0.83,-0.74,0.05,-0.07000000000000001,-0.08
0.6422010660171509,2,3,3,3,-9.74,-0.84,-0.84,0.02,-0.09,-0.11
0.6522010564804077,2,3,3,3,-9.75,-0.86,-0.8100000000000001,-0.03,-0.05,-0.12
0.6622010469436646,2,3,3,3,-9.74,-0.85,-0.74,-0.03,-0.05,-0.12
0.6722010374069214,2,3,3,3,-9.699999999999999,-0.86,-0.75,-0.03,-0.03,-0.11
0.6822010278701782,2,3,3,3,-9.73,-0.86,-0.73,-0.05,-0.01,-0.13
0.6922010183334351,2,3,3,3,-9.74,-0.89,-0.82,-0.13,-0.02,-0.12
0.7022010087966919,2,3,3,3,-9.720000000000001,-0.89,-0.8,-0.14,0,-0.09
0.7122009992599487,2,3,3,3,-9.710000000000001,-0.91,-0.73,-0.14,0,-0.09
0.7222009897232056,2,3,3,3,-9.710000000000001,-0.92,-0.74,-0.11,-0.02,-0.11
0.7322009801864624,2,3,3,3,-9.720000000000001,-0.91,-0.77,-0.08,-0.02,-0.09
0.7422009706497192,2,3,3,3,-9.75,-0.93,-0.82,-0.07000000000000001,-0.01,-0.08
0.7522009611129761,2,3,3,3,-9.710000000000001,-0.93,-0.79,-0.07000000000000001,-0.02,-0.1
0.7622009515762329,2,3,3,3,-9.720000000000001,-0.92,-0.75,-0.07000000000000001,-0.02,-0.1
0.7722009420394897,2,3,3,3,-9.74,-0.92,-0.74,-0.08,0.01,-0.11
0.7822009325027466,2,3,3,3,-9.710000000000001,-0.95,-0.75,-0.09,0.02,-0.08
0.7922009229660034,2,3,3,3,-9.710000000000001,-0.91,-0.87,-0.15,0.02,-0.11
0.8032010793685913,2,3,3,3,-9.710000000000001,-0.9399999999999999,-0.84,-0.11,0.01,-0.13
0.8132010698318481,2,3,3,3,-9.710000000000001,-0.9399999999999999,-0.78,-0.15,0.03,-0.12
0.883201003074646,2,3,3,3,-9.710000000000001,-0.88,-0.8100000000000001,-0.32,0.03,-0.14
0.8932009935379028,2,3,3,3,-9.720000000000001,-0.89,-0.89,-0.33,0.02,-0.11
0.9032009840011597,2,3,3,3,-9.74,-0.89,-0.9,-0.28,0.01,-0.11
0.9132009744644165,2,3,3,3,-9.73,-0.91,-0.8,-0.28,0.01,-0.11
0.9232009649276733,2,3,3,3,-9.720000000000001,-0.91,-0.76,-0.24,-0.07000000000000001,-0.09
0.9332009553909302,2,3,3,3,-9.73,-0.89,-0.8,-0.13,0.03,-0.06
0.943200945854187,2,3,3,3,-9.73,-0.91,-0.9,-0.1,0.04,-0.06
0.9532009363174438,2,3,3,3,-9.73,-0.92,-0.89,-0.05,0.03,-0.04
0.9632009267807007,2,3,3,3,-9.699999999999999,-0.92,-0.87,-0.05,0.03,-0.04
1.003200888633728,2,3,3,3,-9.710000000000001,-0.83,-0.87,-0.01,-0.08,-0.11
1.013200879096985,2,3,3,3,-9.710000000000001,-0.85,-0.88,-0.06,-0.08,-0.12
1.023200869560242,2,3,3,3,-9.710000000000001,-0.83,-0.8100000000000001,-0.14,-0.04,-0.14
1.093201041221619,2,3,3,3,-9.73,-0.93,-0.92,-0.47,-0.22,-0.15
1.103201031684875,2,3,3,3,-9.69,-0.97,-0.82,-0.43,-0.2,-0.16
1.113201022148132,2,3,3,3,-9.710000000000001,-0.95,-0.79,-0.43,-0.2,-0.16
1.123201012611389,2,3,3,3,-9.74,-0.9399999999999999,-0.79,-0.33,-0.13,-0.14
1.133201003074646,2,3,3,3,-9.75,-0.96,-0.79,-0.25,-0.17,-0.15
1.143200993537903,2,3,3,3,-9.720000000000001,-1,-0.89,-0.15,-0.14,-0.1
1.15320098400116,2,3,3,3,-9.69,-1.01,-0.8100000000000001,-0.06,-0.1,-0.1
1.163200974464417,2,3,3,3,-9.69,-1.02,-0.85,-0.06,-0.1,-0.1
1.173200964927673,2,3,3,3,-9.710000000000001,-1.02,-0.89,0.22,-0.14,-0.09
1.18320095539093,2,3,3,3,-9.74,-1.02,-0.82,0.31,-0.17,-0.08
1.193200945854187,2,3,3,3,-9.699999999999999,-1.03,-0.86,0.43,-0.18,-0.06
1.203200936317444,2,3,3,3,-9.69,-1.06,-0.78,0.65,-0.1,-0.03
1.213200926780701,2,3,3,3,-9.720000000000001,-1.08,-0.75,0.65,-0.1,-0.03
1.223200917243958,2,3,3,3,-9.73,-1.13,-0.8100000000000001,0.73,-0.01,-0.04
1.233200907707214,2,3,3,3,-9.74,-1.09,-0.9,1.28,-0.01,0.03
1.243200898170471,2,3,3,3,-9.710000000000001,-0.98,-0.98,1.46,-0.02,0.03
1.253200888633728,2,3,3,3,-9.699999999999999,-0.85,-0.9399999999999999,1.49,0.01,0.03
1.263200879096985,2,3,3,3,-9.720000000000001,-0.84,-0.82,1.49,0.01,0.03
1.273200869560242,2,3,3,3,-9.74,-0.97,-0.79,1.34,-0.06,0
1.283200860023499,2,3,3,3,-9.720000000000001,-1.02,-0.77,1.22,-0.21,-0.02
1.293200850486755,2,3,3,3,-9.699999999999999,-0.96,-0.91,1.26,-0.1,-0.04
1.303201079368591,2,3,3,3,-9.73,-0.75,-0.88,1.25,0,-0.05
1.313201069831848,2,3,3,3,-9.720000000000001,-0.68,-0.87,1.25,0,-0.05
1.323201060295105,2,3,3,3,-9.74,-0.64,-0.86,1.14,-0.05,-0.03
1.333201050758362,2,3,3,3,-9.74,-0.66,-0.78,0.6899999999999999,-0.23,-0.08
1.343201041221619,2,3,3,3,-9.75,-0.87,-0.85,0.54,-0.3,-0.12
1.353201031684875,2,3,3,3,-9.710000000000001,-0.86,-0.8100000000000001,0.6,-0.28,-0.05
1.363201022148132,2,3,3,3,-9.710000000000001,-0.8100000000000001,-0.85,0.6,-0.28,-0.05
1.373201012611389,2,3,3,3,-9.74,-0.77,-0.83,0.61,-0.25,-0.03
1.383201003074646,2,3,3,3,-9.77,-0.89,-0.79,0.64,-0.38,-0.04
1.393200993537903,2,3,3,3,-9.73,-1.01,-0.87,0.8100000000000001,-0.47,0.01
1.40320098400116,2,3,3,3,-9.69,-0.96,-0.87,1.13,-0.29,0.03
1.413200974464417,2,3,3,3,-9.710000000000001,-0.84,-0.9,1.13,-0.29,0.03
1.423200964927673,2,3,3,3,-9.75,-0.64,-0.87,1.26,-0.21,0.01
1.43320095539093,2,3,3,3,-9.720000000000001,-0.59,-0.87,1.15,-0.35,0.01
1.443200945854187,2,3,3,3,-9.710000000000001,-0.61,-0.95,0.95,-0.45,-0.03
1.453200936317444,2,3,3,3,-9.75,-0.66,-0.87,0.6899999999999999,-0.55,-0.05
1.463200926780701,2,3,3,3,-9.76,-0.68,-0.73,0.6899999999999999,-0.55,-0.05
1.473200917243958,2,3,3,3,-9.75,-0.7,-0.7,0.33,-0.57,-0.08
1.483200907707214,2,3,3,3,-9.74,-0.72,-0.72,0.12,-0.61,-0.07000000000000001
1.493200898170471,2,3,3,3,-9.75,-0.78,-0.83,-0.09,-0.62,-0.08
1.503200888633728,2,3,3,3,-9.720000000000001,-0.76,-0.84,-0.09,-0.62,-0.08
1.513200879096985,2,3,3,3,-9.720000000000001,-0.73,-0.79,-0.09,-0.62,-0.08
1.523200869560242,2,3,3,3,-9.73,-0.74,-0.75,-0.45,-0.67,-0.1
1.533200860023499,2,3,3,3,-9.720000000000001,-0.72,-0.77,-0.58,-0.72,-0.19
1.543200850486755,2,3,3,3,-9.720000000000001,-0.79,-0.86,-0.74,-0.87,-0.24
1.553201079368591,2,3,3,3,-9.75,-0.93,-0.8,-0.74,-1.09,-0.3
1.563201069831848,2,3,3,3,-9.699999999999999,-1.03,-0.73,-0.74,-1.09,-0.3
1.573201060295105,2,3,3,3,-9.67,-1.11,-0.75,-0.68,-1.02,-0.29
1.583201050758362,2,3,3,3,-9.720000000000001,-1.06,-0.89,-0.26,-0.77,-0.26
1.593201041221619,2,3,3,3,-9.77,-0.95,-0.91,-0.05,-0.86,-0.27
1.603201031684875,2,3,3,3,-9.74,-0.87,-0.85,-0.04,-1,-0.3
1.613201022148132,2,3,3,3,-9.74,-0.8,-0.8,-0.04,-1,-0.3
1.623201012611389,2,3,3,3,-9.73,-0.88,-0.7,-0.02,-1.09,-0.27
1.633201003074646,2,3,3,3,-9.75,-0.92,-0.68,0.19,-1.41,-0.33
1.643200993537903,2,3,3,3,-9.74,-0.93,-0.6899999999999999,0.2,-1.43,-0.3
1.65320098400116,2,3,3,3,-9.73,-0.88,-0.67,0.32,-1.41,-0.19
1.663200974464417,2,3,3,3,-9.81,-0.6899999999999999,-0.62,0.32,-1.41,-0.19
1.673200964927673,2,3,3,3,-9.800000000000001,-0.62,-0.59,0.39,-1.39,-0.09
1.68320095539093,2,3,3,3,-9.779999999999999,-0.62,-0.52,0.38,-1.59,-0.01
1.693200945854187,2,3,3,3,-9.779999999999999,-0.63,-0.62,0.44,-1.62,0.02
1.703200936317444,2,3,3,3,-9.779999999999999,-0.66,-0.61,0.44,-1.6,0.03
1.713200926780701,2,3,3,3,-9.789999999999999,-0.7,-0.6,0.44,-1.6,0.03
1.723200917243958,2,3,3,3,-9.81,-0.71,-0.5600000000000001,0.49,-1.63,0.09
1.733200907707214,2,3,3,3,-9.789999999999999,-0.73,-0.49,0.49,-1.78,0.12
1.743200898170471,2,3,3,3,-9.779999999999999,-0.76,-0.61,0.59,-1.74,0.16
1.753200888633728,2,3,3,3,-9.779999999999999,-0.71,-0.5600000000000001,0.65,-1.82,0.23
1.763200879096985,2,3,3,3,-9.789999999999999,-0.67,-0.55,0.65,-1.82,0.23
1.773200869560242,2,3,3,3,-9.74,-0.65,-0.55,0.6899999999999999,-1.83,0.33
1.783200860023499,2,3,3,3,-9.710000000000001,-0.72,-0.67,0.46,-1.82,0.42
1.793200850486755,2,3,3,3,-9.710000000000001,-0.83,-0.82,0.28,-1.78,0.35
1.803201079368591,2,3,3,3,-9.74,-0.92,-0.8,0.11,-1.8,0.27
1.813201069831848,2,3,3,3,-9.779999999999999,-0.93,-0.71,0.11,-1.8,0.27
1.823201060295105,2,3,3,3,-9.65,-0.77,-0.59,0,-1.95,0.17
1.834200978279114,2,3,3,3,-9.630000000000001,-0.74,-0.57,-0.62,-2.14,-0.03
1.844200968742371,2,3,3,3,-9.66,-0.74,-0.63,-0.9,-2.35,-0.06
1.854200959205627,2,3,3,3,-9.67,-0.72,-0.5600000000000001,-1.21,-2.43,-0.03
1.864200949668884,2,3,3,3,-9.699999999999999,-0.71,-0.39,-1.21,-2.43,-0.03
1.874200940132141,2,3,3,3,-9.75,-0.71,-0.4,-1.41,-2.5,0.05
1.884200930595398,2,3,3,3,-9.76,-0.72,-0.41,-1.34,-2.63,0.12
1.894200921058655,2,3,3,3,-9.779999999999999,-0.72,-0.51,-1.16,-2.74,0.15
1.904200911521912,2,3,3,3,-9.800000000000001,-0.79,-0.41,-1.2,-2.87,0.15
1.914200901985168,2,3,3,3,-9.800000000000001,-0.8,-0.22,-1.2,-2.87,0.15
1.924200892448425,2,3,3,3,-9.84,-0.77,-0.14,-1.12,-2.97,0.21
1.934200882911682,2,3,3,3,-9.859999999999999,-0.7,-0.08,-0.58,-3.22,0.36
1.944200873374939,2,3,3,3,-9.92,-0.58,-0.07000000000000001,-0.27,-3.45,0.45
1.954200863838196,2,3,3,3,-9.93,-0.43,0.08,0.13,-3.65,0.68
1.964200854301453,2,3,3,3,-9.960000000000001,-0.39,0.12,0.13,-3.65,0.68
1.974200844764709,2,3,3,3,-10.02,-0.34,0.2,0.51,-3.76,0.9399999999999999
1.984201073646545,2,3,3,3,-10.09,-0.18,0.53,0.87,-3.91,1.41
1.994201064109802,2,3,3,3,-10.05,-0.1,0.53,1.04,-3.84,1.67
2.004201054573059,2,3,3,3,-10.07,0.04,0.63,1.14,-3.9,1.89
2.014201045036316,2,3,3,3,-10.03,0.23,0.77,1.14,-3.9,1.89
2.024201035499573,2,3,3,3,-9.93,0.29,0.76,1.15,-3.83,2.15
2.03420102596283,2,3,3,3,-9.85,0.27,0.74,1.25,-3.48,2.64
2.044201016426086,2,3,3,3,-9.890000000000001,0.25,0.58,1.42,-3.32,2.88
2.054201006889343,2,3,3,3,-10,0.39,0.73,1.34,-3.25,3.08
2.0642009973526,2,3,3,3,-10.02,0.47,0.75,1.34,-3.25,3.08
2.074200987815857,2,3,3,3,-10.01,0.48,0.78,1.17,-3.32,3.27
2.084200978279114,2,3,3,3,-10.15,0.21,0.68,0.21,-3.22,3.47
2.094200968742371,2,3,3,3,-10.15,0.21,0.68,-0.22,-2.98,3.54
2.104200959205627,2,3,3,3,-10.22,0.14,0.7,-0.45,-2.53,3.66
2.114200949668884,2,3,3,3,-10.27,0.18,0.71,-0.45,-2.53,3.66
2.124200940132141,2,3,3,3,-10.27,0.28,0.76,-0.92,-2,3.81
2.134200930595398,2,3,3,3,-10.26,0.38,0.6899999999999999,-1.69,-0.28,3.89
2.144200921058655,2,3,3,3,-10.2,0.5,0.62,-2.38,0.32,3.91
2.154200911521912,2,3,3,3,-10.16,0.58,0.53,-3.26,0.63,3.82
2.164200901985168,2,3,3,3,-10.16,0.58,0.53,-3.26,0.63,3.82
2.174200892448425,2,3,3,3,-9.93,0.62,0.6,-4.51,0.58,3.66
2.184200882911682,2,3,3,3,-10.1,0.2,0.12,-7.38,0.52,3.52
2.194200873374939,2,3,3,3,-10.08,0.07000000000000001,0.25,-9.15,0.04,3.69
2.204200863838196,2,3,3,3,-10.17,0.89,-0.16,-12.02,-0.18,3.84
2.214200854301453,2,3,3,3,-10.17,0.89,-0.16,-12.02,-0.18,3.84
2.224200844764709,2,3,3,3,-10.16,0.89,0.01,-14.95,-0.59,4.15
2.234201073646545,2,3,3,3,-9.41,0.82,-0.05,-16.81,-1.73,3.32
2.244201064109802,2,3,3,3,-9.460000000000001,-0.42,-0.16,-17.08,-1.7,2.32
2.254201054573059,2,3,3,3,-9.529999999999999,-0.87,-0.03,-15.59,-1.08,1.64
2.264201045036316,2,3,3,3,-9.529999999999999,-0.87,-0.03,-15.59,-1.08,1.64
2.274201035499573,2,3,3,3,-9.550000000000001,-0.79,0.06,-13.23,-0.09,1.41
2.28420102596283,2,3,3,3,-9.619999999999999,-0.63,-0.26,-11.49,2.01,1.61
2.294201016426086,2,3,3,3,-9.800000000000001,-0.5,-0.49,-12.14,2.71,1.9
2.304201006889343,2,3,3,3,-10.01,-0.67,-0.47,-13.4,2.91,2.4
2.3142009973526,2,3,3,3,-10.01,-0.67,-0.47,-13.4,2.91,2.4
2.324200987815857,2,3,3,3,-9.99,-0.7,-0.41,-14.3,2.92,2.92
2.334200978279114,2,3,3,3,-9.6,-0.42,-0.6899999999999999,-16.66,3,3.13
2.344200968742371,2,3,3,3,-9.550000000000001,-0.39,-0.55,-18.26,3.06,3.09
2.354200959205627,2,3,3,3,-9.52,-0.43,-0.46,-20.29,3.12,3.03
2.364200949668884,2,3,3,3,-9.52,-0.43,-0.46,-20.29,3.12,3.03
2.374200940132141,2,3,3,3,-9.539999999999999,-0.29,-0.57,-21.8,3.15,2.98
2.384200930595398,2,3,3,3,-9.49,-0.09,-0.62,-23.25,3.05,3.02
2.394200921058655,2,3,3,3,-9.470000000000001,-0.05,-0.58,-23.26,3.05,3.12
2.404200911521912,2,3,3,3,-9.359999999999999,-0.14,-0.6899999999999999,-22.99,3.24,3.32
2.414200901985168,2,3,3,3,-9.359999999999999,-0.14,-0.6899999999999999,-22.43,3.75,3.62
2.424200892448425,2,3,3,3,-9.24,-0.05,-1.05,-22.43,3.75,3.62
2.434200882911682,2,3,3,3,-9.09,0.66,-1.63,-20.86,5.39,4.35
2.444200873374939,2,3,3,3,-9.32,0.57,-1.57,-19.94,5.65,4.59
2.454200863838196,2,3,3,3,-9.5,0.53,-1.45,-18.56,5.41,4.55
2.464200854301453,2,3,3,3,-9.5,0.53,-1.45,-18.56,5.41,4.55
2.474200844764709,2,3,3,3,-9.69,0.44,-1.38,-16.15,4.96,3.48
2.484201073646545,2,3,3,3,-9.82,0.72,-0.04,-16,4.85,2.84
2.494201064109802,2,3,3,3,-9.85,0.65,0.22,-16.54,4.82,2.55
2.504201054573059,2,3,3,3,-9.9,0.54,0.38,-16.98,4.66,2.38
2.514201045036316,2,3,3,3,-9.9,0.54,0.38,-16.98,4.66,2.38
2.524201035499573,2,3,3,3,-9.92,0.44,0.62,-17.52,4.08,2.12
2.53420102596283,2,3,3,3,-9.59,0.15,1.34,-19.93,3.48,1.5
2.544201016426086,2,3,3,3,-9.369999999999999,0.2,1.42,-20.72,3.65,1.32
2.554201006889343,2,3,3,3,-9.210000000000001,0.41,1.23,-20.39,3.82,1.15
2.5642009973526,2,3,3,3,-9.210000000000001,0.41,1.23,-19.91,3.78,0.9
2.574200987815857,2,3,3,3,-9.119999999999999,1.26,0.96,-20.16,3.59,0.54
2.584200978279114,2,3,3,3,-9.35,1.22,0.68,-20.38,3.2,0.31
2.594200968742371,2,3,3,3,-9.44,1.01,0.73,-20.49,2.8,0.19
2.604200959205627,2,3,3,3,-9.44,0.5600000000000001,0.68,-20.26,2.4,0.33
2.614200949668884,2,3,3,3,-9.44,0.5600000000000001,0.68,-19.79,2.07,0.53
2.624200940132141,2,3,3,3,-9.42,0.33,0.65,-18.79,1.95,0.6899999999999999
2.634200930595398,2,3,3,3,-9.300000000000001,0.05,0.25,-17.23,2.02,0.8100000000000001
2.644200921058655,2,3,3,3,-9.26,0.27,-0.27,-16.03,1.75,0.88
2.654200911521912,2,3,3,3,-9.279999999999999,0.3,-0.6899999999999999,-14.87,1.72,0.98
2.664200901985168,2,3,3,3,-9.279999999999999,0.3,-0.6899999999999999,-13.68,1.01,0.9399999999999999
2.674200892448425,2,3,3,3,-9.41,-0.33,-0.53,-12.51,-0.83,0.07000000000000001
2.684200882911682,2,3,3,3,-8.779999999999999,-2.56,0.34,-10.15,-1.99,-1.06
2.694200873374939,2,3,3,3,-8.94,-3.24,-0.07000000000000001,-7.6,-1.77,-1.77
2.704200863838196,2,3,3,3,-9.630000000000001,-3.68,-0.28,-4.26,-0.3,-1.89
2.714200854301453,2,3,3,3,-9.630000000000001,-3.68,-0.28,-0.11,0.71,-1.43
2.724200844764709,2,3,3,3,-10.44,-2.97,0.05,2.8,0.91,-1.02
2.734201073646545,2,3,3,3,-11.52,3.06,0.6899999999999999,3.37,1.36,-0.92
2.744201064109802,2,3,3,3,-11.69,2.79,1,1.89,2.07,-0.86
2.754201054573059,2,3,3,3,-11.48,0.96,0.97,0.01,2.8,-1.09
2.764201045036316,2,3,3,3,-11.48,0.96,0.97,0.73,3.01,-1.34
2.774201035499573,2,3,3,3,-10.29,-0.96,0.35,2.01,2.68,-1.24
2.78420102596283,2,3,3,3,-9.25,0.97,-0.77,2.25,2.21,-1.23
2.794201016426086,2,3,3,3,-9.26,1.35,-1.49,1.73,2.2,-1.06
2.804201006889343,2,3,3,3,-10.1,1.02,-2.06,1.01,2.01,-0.55
2.8142009973526,2,3,3,3,-10.1,1.02,-2.06,0.6,1.55,-0.64
2.824200987815857,2,3,3,3,-9.91,1.28,-2.1,0.11,1.2,-1.26
2.835200905799866,2,3,3,3,-9.460000000000001,1.18,-1.76,-0.51,1.03,-1.77
2.844200968742371,2,3,3,3,-9.48,0.89,-1.62,-1.36,1,-2.06
2.855200886726379,2,3,3,3,-9.77,0.75,-1.6,-2.54,1.12,-2.06
2.865200877189636,2,3,3,3,-9.77,0.75,-1.6,-3.84,1.27,-2.08
2.875200867652893,2,3,3,3,-9.92,0.65,-1.44,-3.84,1.27,-2.08
2.88520085811615,2,3,3,3,-9.99,0.47,-0.84,-4.81,1.6,-2.4
2.895200848579407,2,3,3,3,-10.04,0.5600000000000001,-0.84,-4.84,1.71,-2.59
2.905201077461243,2,3,3,3,-10.04,0.63,-0.9,-4.78,1.77,-2.73
2.9152010679245,2,3,3,3,-10.04,0.63,-0.9,-4.78,1.77,-2.73
2.925201058387756,2,3,3,3,-10.08,0.57,-1.03,-4.62,1.96,-2.69
2.935201048851013,2,3,3,3,-9.859999999999999,0.49,-1.02,-3.41,2.09,-2.68
2.94520103931427,2,3,3,3,-9.77,0.45,-0.9,-2.69,1.96,-2.84
2.955201029777527,2,3,3,3,-9.720000000000001,0.37,-0.83,-2.09,1.99,-3
2.965201020240784,2,3,3,3,-9.720000000000001,0.37,-0.83,-2.09,1.99,-3
2.975201010704041,2,3,3,3,-9.74,0.5600000000000001,-0.79,-1.59,2.15,-3.14
2.985201001167297,2,3,3,3,-9.69,0.74,-0.88,-1.15,2.6,-3.2
2.995200991630554,2,3,3,3,-9.699999999999999,0.74,-0.68,-0.9399999999999999,2.63,-3.05
3.005200982093811,2,3,3,3,-9.550000000000001,0.89,-0.68,-0.63,2.25,-3.09
3.015200972557068,2,3,3,3,-9.550000000000001,0.89,-0.68,-0.63,2.25,-3.09
3.025200963020325,2,3,3,3,-9.539999999999999,0.8,-0.64,-0.33,1.91,-3.12
3.035200953483582,2,3,3,3,-9.619999999999999,0.77,-1.01,-0.4,1.55,-3.03
3.045200943946838,2,3,3,3,-9.609999999999999,0.83,-0.99,-0.19,1.51,-3.14
3.055200934410095,2,3,3,3,-9.67,0.65,-0.82,-0.09,1.36,-3.28
3.065200924873352,2,3,3,3,-9.67,0.65,-0.82,-0.09,1.36,-3.28
3.075200915336609,2,3,3,3,-9.710000000000001,0.65,-0.7,0.07000000000000001,1.29,-3.33
3.085200905799866,2,3,3,3,-9.699999999999999,0.66,-0.6899999999999999,-1.02,1.82,-3.56
3.095200896263123,2,3,3,3,-9.630000000000001,0.67,-0.87,-2.09,2.1,-3.7
3.105200886726379,2,3,3,3,-9.68,0.64,-0.92,-2.82,2.44,-3.87
3.115200877189636,2,3,3,3,-9.68,0.64,-0.92,-2.82,2.44,-3.87
3.125200867652893,2,3,3,3,-9.76,0.27,-0.96,-3.97,3.05,-3.9
3.13520085811615,2,3,3,3,-9.710000000000001,0.06,-0.8,-4.77,3.12,-4.08
3.145200848579407,2,3,3,3,-9.65,-0.18,-0.96,-5.83,3.34,-4.46
3.155201077461243,2,3,3,3,-10.01,-1.03,-1.42,-6.51,3.69,-4.66
3.1652010679245,2,3,3,3,-10.01,-1.03,-1.42,-6.79,3.67,-4.82
3.175201058387756,2,3,3,3,-9.91,-1.2,-1.48,-7.07,3.6,-5.26
3.185201048851013,2,3,3,3,-9.73,-1.05,-1.85,-7.45,3.5,-5.9
3.19520103931427,2,3,3,3,-9.710000000000001,-0.8100000000000001,-2.29,-7.5,3.12,-6.49
3.205201029777527,2,3,3,3,-9.699999999999999,-0.79,-2.3,-7.29,2.61,-6.94
3.215201020240784,2,3,3,3,-9.699999999999999,-0.79,-2.3,-6.99,2.14,-7.33
3.225201010704041,2,3,3,3,-9.68,-0.82,-2.2,-6.21,1.76,-7.66
3.235201001167297,2,3,3,3,-9.67,-1.17,-2.06,-5.01,1.37,-7.99
3.245200991630554,2,3,3,3,-9.699999999999999,-1.24,-1.84,-3.2,0.9399999999999999,-8.449999999999999
3.255200982093811,2,3,3,3,-9.710000000000001,-1.14,-1.51,-0.57,0.38,-9.15
3.265200972557068,2,3,3,3,-9.609999999999999,-0.77,-1.09,2.29,-0.38,-9.880000000000001
3.275200963020325,2,3,3,3,-9.26,0.17,-0.66,4.36,-0.95,-10.54
3.285200953483582,2,3,3,3,-9.17,0.8,-0.73,5.44,-1.17,-11.05
3.295200943946838,2,3,3,3,-9.210000000000001,1.41,-0.77,5.43,-0.84,-11.42
3.305200934410095,2,3,3,3,-9.26,1.68,-0.95,3.96,-0.45,-11.24
3.315200924873352,2,3,3,3,-9.51,1.67,-1.26,2.13,-0.1,-10.69
3.325200915336609,2,3,3,3,-9.640000000000001,1.37,-1.31,0.88,0.05,-10.13
3.335200905799866,2,3,3,3,-9.84,0.8,-1.41,0.44,0.31,-9.41
3.345200896263123,2,3,3,3,-10.04,0.42,-1.34,0.52,0.3,-8.4
3.355200886726379,2,3,3,3,-10.36,-0.17,-1.27,0.36,-0.09,-7.16
3.365200877189636,2,3,3,3,-10.32,-0.27,-1.32,0.25,-0.68,-5.69
3.375200867652893,2,3,3,3,-10.32,-0.27,-1.32,0.25,-0.68,-5.69
3.38520085811615,2,3,3,3,-9.92,0.18,-1.66,0.73,-0.96,-4.63
3.395200848579407,2,3,3,3,-9.74,-0.11,-1.88,0.18,-1.17,-5.05
3.405201077461243,2,3,3,3,-9.77,-0.52,-1.93,-0.2,-1.32,-5.53
3.4152010679245,2,3,3,3,-9.77,-0.52,-1.93,-0.2,-1.32,-5.53
3.425201058387756,2,3,3,3,-9.779999999999999,-0.76,-1.98,-0.17,-1.45,-5.9
3.435201048851013,2,3,3,3,-9.970000000000001,-1.1,-1.96,0.84,-2.02,-6.18
3.44520103931427,2,3,3,3,-10.01,-0.9,-1.81,1.52,-2.54,-6.56
3.455201029777527,2,3,3,3,-10.24,-0.8100000000000001,-1.5,1.78,-2.83,-6.63
3.465201020240784,2,3,3,3,-10.24,-0.8100000000000001,-1.5,1.78,-3.16,-6.17
3.475201010704041,2,3,3,3,-10.42,-0.8,-1.25,1.59,-3.39,-5.63
3.485201001167297,2,3,3,3,-10.76,0.1,-0.96,1.43,-3.5,-5.16
3.495200991630554,2,3,3,3,-11.09,0.35,-0.71,1.41,-3.64,-4.76
3.505200982093811,2,3,3,3,-11.39,0.5,-0.4,1.44,-4.1,-4.45
3.515200972557068,2,3,3,3,-11.39,0.5,-0.4,1.75,-4.65,-4.13
3.525200963020325,2,3,3,3,-11.35,0.97,0.44,2.51,-5.08,-3.74
3.535200953483582,2,3,3,3,-11.3,1.29,0.29,3.76,-5.64,-3.32
3.545200943946838,2,3,3,3,-11.29,1.89,0.3,4.85,-6.12,-2.88
3.555200934410095,2,3,3,3,-11.29,2.95,0.33,5.23,-6.4,-2.39
3.565200924873352,2,3,3,3,-11.1,3.27,0.27,4.7,-6.52,-1.46
3.575200915336609,2,3,3,3,-10.89,3.51,0.16,3.95,-6.43,-0.21
3.585200905799866,2,3,3,3,-10.64,3.53,-0.05,2.03,-6.03,0.96
3.595200896263123,2,3,3,3,-9.76,3.06,-0.95,-0.57,-4.99,2.24
3.605200886726379,2,3,3,3,-9.369999999999999,2.84,-1.53,-2.9,-3.1,3.73
3.615200877189636,2,3,3,3,-9.369999999999999,2.84,-1.53,-4.82,-1.13,5.18
3.625200867652893,2,3,3,3,-9.140000000000001,2.39,-1.68,-4.82,-1.13,5.18
3.63520085811615,2,3,3,3,-9.33,2.11,-0.03,-6.53,-0.87,6.22
3.645200848579407,2,3,3,3,-9.859999999999999,0.42,-0.03,-8.970000000000001,-2.07,5.58
3.655201077461243,2,3,3,3,-10.62,-1.78,-0.31,-13.88,-3.02,4.02
3.6652010679245,2,3,3,3,-10.62,-1.78,-0.31,-14.63,-3.44,3.31
3.675201058387756,2,3,3,3,-10.82,-1.62,-0.84,-14.79,-3.14,3.8
3.685201048851013,2,3,3,3,-10.41,-1.43,-2.29,-14.88,-3.35,4.55
3.69520103931427,2,3,3,3,-10.25,-2.08,-2.49,-14.61,-3.37,4.99
3.705201029777527,2,3,3,3,-10.32,-2.83,-2.63,-14.15,-3.55,5.36
3.715201020240784,2,3,3,3,-10.54,-1.76,-3.13,-12.81,-3.38,5.94
3.725201010704041,2,3,3,3,-10.6,-1.4,-3.4,-12.98,-3.05,6.74
3.735201001167297,2,3,3,3,-10.56,-1.4,-3.66,-14.89,-2.8,7.74
3.745200991630554,2,3,3,3,-10.64,-1.47,-3.61,-16.71,-2.7,9.16
3.755200982093811,2,3,3,3,-10.19,-1.76,-4.01,-17.67,-2.91,10.27
3.765200972557068,2,3,3,3,-9.94,-1.84,-4.05,-18.8,-3.1,10.76
3.775200963020325,2,3,3,3,-10.09,-2.1,-4.23,-19.1,-3.06,11.68
3.785200953483582,2,3,3,3,-10.03,-1.98,-4.5,-19.34,-2.88,12.36
3.795200943946838,2,3,3,3,-10.11,-2.07,-4.5,-19.73,-2.49,12.32
3.805200934410095,2,3,3,3,-10.36,-1.97,-4.43,-20.11,-2.06,12.51
3.815200924873352,2,3,3,3,-10.38,-2.29,-4.13,-20.42,-1.71,12.46
3.825200915336609,2,3,3,3,-10.38,-2.29,-4.13,-20.38,-1.3,12.63
3.835200905799866,2,3,3,3,-10.26,-2.97,-3.33,-20.39,-1.05,12.6
3.845200896263123,2,3,3,3,-10,-3.21,-3.02,-20.23,-0.88,12.47
3.855200886726379,2,3,3,3,-9.800000000000001,-3.35,-2.83,-19.96,-0.6899999999999999,12.28
3.865200877189636,2,3,3,3,-9.800000000000001,-3.35,-2.83,-19.81,-0.52,12.19
3.875200867652893,2,3,3,3,-9.640000000000001,-3.65,-2.54,-19.37,-0.38,12.27
3.886201024055481,2,3,3,3,-9.119999999999999,-3.72,-2.41,-18.83,0.1,12.32
3.896201014518738,2,3,3,3,-9.09,-3.76,-2.46,-18.31,0.6899999999999999,12.36
3.906201004981995,2,3,3,3,-9.09,-3.4,-1.83,-17.5,1.25,12.32
3.916200995445251,2,3,3,3,-9.029999999999999,-3.42,-1.23,-16.81,1.29,11.8
3.926200985908508,2,3,3,3,-9.01,-3.42,-0.68,-16.48,0.78,11.11
3.936200976371765,2,3,3,3,-8.93,-2.95,-0.24,-15.89,0.09,10.6
3.946200966835022,2,3,3,3,-8.84,-2.08,0.49,-15.41,-0.63,10.4
3.956200957298279,2,3,3,3,-8.800000000000001,-1.55,0.64,-14.79,-1.2,10.26
3.966200947761536,2,3,3,3,-8.94,-0.9399999999999999,0.91,-14.49,-1.48,9.66
3.976200938224792,2,3,3,3,-9.199999999999999,-0.33,1.37,-14.83,-1.73,9.039999999999999
3.986200928688049,2,3,3,3,-9.640000000000001,0.38,2.02,-15.87,-2.4,8.449999999999999
3.996200919151306,2,3,3,3,-9.710000000000001,0.48,2.27,-16.9,-3.22,8.09
4.006200909614563,2,3,3,3,-9.69,0.36,2.33,-17.79,-3.7,8.029999999999999
4.01620090007782,2,3,3,3,-9.44,0.17,2.23,-18.78,-3.37,8.1
4.026200890541077,2,3,3,3,-8.49,-0.14,0.74,-18.83,-2.04,8.33
4.036200881004333,2,3,3,3,-8.17,-0.14,-0.11,-16.95,0.65,8.65
4.04620087146759,2,3,3,3,-8.08,-0.28,-0.61,-13.79,3.58,8.91
4.056200861930847,2,3,3,3,-7.97,-0.31,-1.18,-9.539999999999999,4.99,8.92
4.066200852394104,2,3,3,3,-7.97,-0.31,-1.18,-4.08,5.63,9.02
4.076200842857361,2,3,3,3,-8,0.75,-2.11,1.65,6.25,8.6
4.096201062202454,2,3,3,3,-8.890000000000001,3.62,-1.58,7,5.94,6.3
4.10620105266571,2,3,3,3,-9.390000000000001,3.07,1.02,4.8,1.89,5.2
4.116201043128967,2,3,3,3,-9.390000000000001,3.07,1.02,0.64,-2.44,4.42
4.126201033592224,2,3,3,3,-8.92,2.39,1.26,-2.4,-2.94,4.83
4.136201024055481,2,3,3,3,-8.85,2.49,0.88,-2.97,-1.3,5.88
4.146201014518738,2,3,3,3,-9.07,3.52,0.83,-2.34,0.36,6.95
4.156201004981995,2,3,3,3,-9.26,4.01,0.9,-1.81,1.01,7.8
4.166200995445251,2,3,3,3,-9.449999999999999,4.45,0.75,-0.9399999999999999,1.31,8.1
4.176200985908508,2,3,3,3,-9.59,4.67,0.51,-0.33,1,7.56
4.186200976371765,2,3,3,3,-9.33,4.73,0.45,-0.57,-0.73,6.37
4.196200966835022,2,3,3,3,-9.25,4.72,0.51,-1.45,-2.38,4.97
4.206200957298279,2,3,3,3,-9.31,4.62,0.42,-3.1,-2.77,3.85
4.216200947761536,2,3,3,3,-9.44,4.35,0.45,-5.06,-2.18,3.41
4.226200938224792,2,3,3,3,-9.33,3.44,-0.38,-7.18,-1.2,3.43
4.236200928688049,2,3,3,3,-9.23,2.85,-0.86,-8.44,-0.16,3.7
4.246200919151306,2,3,3,3,-9.18,1.9,-1.1,-9.17,0.37,3.58
4.256200909614563,2,3,3,3,-9.25,1.22,-0.93,-9.06,0.09,2.78
4.276200890541077,2,3,3,3,-10.07,-0.77,-1.21,-8.07,0.2,-0.4
4.286200881004333,2,3,3,3,-11.29,-2.7,-0.73,-6.09,0.27,-2.06
4.29620087146759,2,3,3,3,-11.58,-1.19,1.5,-5.58,0.15,-2.61
4.306200861930847,2,3,3,3,-11.5,5.48,2.2,-6.58,1.06,-1.21
4.316200852394104,2,3,3,3,-12.36,6.98,2.12,-9.779999999999999,1.86,1.27
4.326200842857361,2,3,3,3,-11.41,6.91,2.79,-12.08,-3.82,0.5
4.336201071739197,2,3,3,3,-10.8,4.33,3.54,-18.17,-7.1,-4
4.346201062202454,2,3,3,3,-11.3,-0.65,2.36,-22.15,-3.65,-6.47
4.35620105266571,2,3,3,3,-10.84,-0.67,0.68,-20.72,1.48,-6.22
4.366201043128967,2,3,3,3,-9.56,-0.11,-0.47,-17.44,3.22,-5.29
4.376201033592224,2,3,3,3,-9.460000000000001,0.91,-1.76,-12.19,5.08,-3.72
4.386201024055481,2,3,3,3,-9.43,1.11,-1.78,-9.01,6.61,-2.23
4.396201014518738,2,3,3,3,-9.460000000000001,-0.07000000000000001,-0.06,-6.36,5.14,-3.69
4.406201004981995,2,3,3,3,-9.300000000000001,-1.38,0.5600000000000001,-2.69,4.3,-4.71
4.416200995445251,2,3,3,3,-9.25,-1.99,-0.6,0.36,4.32,-4.84
4.426200985908508,2,3,3,3,-8.56,-2.21,-3.44,1.91,4.98,-4.19
4.436200976371765,2,3,3,3,-8.56,-1.62,-3.21,4.04,5.15,-3.74
4.446200966835022,2,3,3,3,-9.1,-0.54,-2.34,8.16,4.94,-3.24
4.456200957298279,2,3,3,3,-9.529999999999999,0.96,-1.96,11.08,3.69,-3.38
4.466200947761536,2,3,3,3,-9.529999999999999,0.96,-1.96,10.62,3.1,-3.5
4.476200938224792,2,3,3,3,-10.52,1.73,-1.09,8.23,3.21,-3.09
4.486200928688049,2,3,3,3,-9.98,1.13,-1.43,5.04,3.5,-2.95
4.496200919151306,2,3,3,3,-9.6,0.66,-1.64,2.64,3.58,-3.74
4.506200909614563,2,3,3,3,-9.74,-0.3,-1.92,1.76,3.53,-4.56
4.51620090007782,2,3,3,3,-9.92,-0.57,-1.99,1.76,3.55,-4.94
4.526200890541077,2,3,3,3,-9.98,-0.6899999999999999,-2.08,2.14,3.65,-4.99
4.536200881004333,2,3,3,3,-10,-0.83,-2.26,2.52,3.98,-4.95
4.54620087146759,2,3,3,3,-9.800000000000001,-0.39,-2.17,2.81,4.22,-5.02
4.556200861930847,2,3,3,3,-9.84,-0.06,-2,3.28,4.36,-5.23
4.566200852394104,2,3,3,2,-9.85,0.23,-1.76,3.6,4.35,-5.48
4.576200842857361,2,3,3,2,-9.789999999999999,0.54,-1.51,3.91,4.16,-5.66
4.586201071739197,2,3,3,2,-9.85,0.7,-1.26,4.2,3.89,-5.71
4.60620105266571,2,3,3,2,-9.710000000000001,0.84,-1.17,4.79,3.54,-5.38
4.616201043128967,2,3,3,2,-9.66,0.86,-1.16,5.02,3.36,-5.17
4.626201033592224,2,3,3,2,-9.58,1.07,-1.14,5.26,3.24,-4.86
4.636201024055481,2,3,3,2,-9.58,1.01,-1.21,5.43,3.08,-4.84
4.646201014518738,2,3,3,2,-9.609999999999999,1.2,-1.28,5.9,2.94,-4.72
4.656201004981995,2,3,3,2,-9.57,1.73,-1.34,6.05,2.74,-4.53
4.666200995445251,2,3,3,2,-9.43,1.46,-1.33,5.84,2.56,-4.45
4.676200985908508,2,3,3,2,-9.279999999999999,1.65,-1.37,5.96,2.41,-4.16
4.686200976371765,2,3,3,2,-9.199999999999999,1.52,-1.36,6.09,2.2,-4.02
4.696200966835022,2,3,3,2,-9.32,1.64,-1.35,6.32,1.96,-3.76
4.706200957298279,2,3,3,2,-9.390000000000001,1.75,-1.1,6.1,1.61,-3.67
4.716200947761536,2,3,3,2,-9.51,1.54,-1.1,5.8,1.34,-3.8
4.726200938224792,2,3,3,2,-9.51,1.66,-1.25,5.76,1.14,-3.76
4.736200928688049,2,3,3,2,-9.550000000000001,1.62,-1.37,5.78,0.9,-3.64
4.746200919151306,2,3,3,2,-9.609999999999999,1.05,-1.2,5.7,0.65,-3.22
4.756200909614563,2,3,3,2,-9.59,0.98,-1.09,5.76,0.54,-2.79
4.76620090007782,2,3,3,1,-9.49,0.91,-1.05,5.75,0.45,-2.53
4.776200890541077,2,3,3,1,-9.43,1.04,-1.02,5.94,0.32,-2.46
4.786200881004333,2,3,3,1,-9.59,0.84,-1.08,5.93,0.11,-2.55
4.816200852394104,2,3,3,1,-9.449999999999999,0.14,-1.4,6.04,-0.21,-2.25
4.826200842857361,2,3,3,1,-9.460000000000001,-0.09,-1.58,6.03,-0.48,-1.92
4.836201071739197,2,3,3,1,-9.5,-0.24,-1.74,6.3,-0.75,-1.7
4.846201062202454,2,3,3,1,-9.69,-0.42,-1.62,6.72,-0.96,-1.79
4.85620105266571,2,3,3,1,-9.91,-0.82,-1.5,7.23,-1.13,-2.17
4.866201043128967,2,3,3,1,-10.01,-1.07,-1.41,8.130000000000001,-1.16,-2.62
4.876201033592224,2,3,3,1,-9.970000000000001,-0.98,-1.3,9.470000000000001,-1.29,-3.06
4.886201024055481,2,3,3,1,-9.949999999999999,-0.7,-1.35,10.91,-1.62,-3.46
4.896201014518738,2,3,3,1,-9.94,0.22,-1.43,12.7,-2.06,-3.68
4.907200932502747,2,3,3,1,-10.04,0.71,-1.45,14.2,-2.52,-3.69
4.917200922966003,2,3,3,1,-10.05,1.19,-1.55,15.25,-2.94,-3.71
4.92720091342926,2,3,3,1,-10,1.56,-1.75,16,-3.23,-3.58
4.937200903892517,2,3,3,1,-9.710000000000001,2.13,-2.28,16.33,-3.37,-3.43
4.947200894355774,2,3,3,1,-9.720000000000001,2.19,-2.24,16.41,-3.53,-3.28
4.957200884819031,2,3,3,1,-9.720000000000001,2.38,-2.17,15.75,-3.93,-3.24
4.967200875282288,2,3,3,1,-9.77,2.33,-2.27,14.47,-4.32,-3.42
4.977200865745544,2,3,3,1,-9.880000000000001,1.37,-2.38,13.04,-4.87,-3.65
4.987200856208801,2,3,3,1,-9.85,1.1,-2.49,12.13,-5.58,-3.82
4.997200846672058,2,3,3,1,-9.789999999999999,0.95,-2.43,11.91,-5.94,-4.18
5.007201075553894,2,3,3,1,-9.789999999999999,0.95,-2.27,12.02,-6.24,-4.78
5.017201066017151,2,3,3,1,-10.25,1.1,-1.84,12.59,-6.66,-5.38
5.027201056480408,2,3,3,1,-10.53,1.22,-1.8,13.28,-7.19,-5.83
5.037201046943665,2,3,3,1,-10.65,1.44,-1.8,14.16,-7.66,-6.05
5.047201037406921,2,3,3,1,-10.58,1.66,-1.99,14.53,-7.94,-6.07
5.057201027870178,2,3,3,1,-11.03,0.48,-2.15,14.42,-7.77,-5.73
5.067201018333435,2,3,3,1,-11.12,0.06,-2.19,13.99,-7.89,-5.03
5.077201008796692,2,3,3,1,-11.24,-0.19,-2.24,14.31,-7.99,-4.71
5.087200999259949,2,3,3,1,-11.56,-0.64,-2.13,15.5,-8.140000000000001,-4.76
5.097200989723206,2,3,3,1,-12.72,-1.68,-1.18,16.93,-8.49,-4.93
5.107200980186462,2,3,3,1,-13.34,-2.46,-0.48,18.59,-8.99,-4.93
5.117200970649719,2,3,3,1,-13.69,-3.42,0.03,20.55,-9.19,-4.54
5.127200961112976,2,3,3,1,-13.44,-4.43,0.3,23.39,-9.41,-4.28
5.137200951576233,2,3,3,1,-11.56,-5.21,-0.14,27.41,-9.35,-4.14
5.14720094203949,2,3,3,1,-10.64,-5,-0.67,32.19,-8.720000000000001,-3.7
5.157200932502747,2,3,3,1,-9.869999999999999,-4.73,-1.25,37.07,-7.87,-3.08
5.167200922966003,2,3,3,1,-9.460000000000001,-4.37,-1.57,41.81,-7.07,-2.44
5.17720091342926,2,3,3,1,-9.470000000000001,-3.14,-1.89,45.47,-6.5,-1.97
5.187200903892517,2,3,3,1,-9.539999999999999,-2.77,-2.13,48.17,-6.13,-1.52
5.197200894355774,2,3,3,1,-9.5,-2.64,-2.27,50.53,-5.72,-1.25
5.207200884819031,2,3,3,1,-9.31,-2.54,-2.43,52.3,-4.97,-1.06
5.217200875282288,2,3,3,1,-8.75,-2.04,-2.56,53.65,-4.32,-0.78
5.227200865745544,2,3,3,1,-8.69,-1.54,-2.64,54.74,-3.53,-0.35
5.237200856208801,2,3,3,1,-8.640000000000001,-1.12,-2.74,55.95,-3.03,0.14
5.247200846672058,2,3,3,1,-8.58,-0.82,-2.63,56.87,-3.12,0.51
5.257201075553894,2,3,3,1,-8.19,-0.85,-2.36,57.44,-3.31,0.87
5.267201066017151,2,3,3,1,-8.109999999999999,-0.93,-2.17,58.07,-3.25,1.33
5.277201056480408,2,3,3,1,-8.029999999999999,-1.07,-2.16,58.46,-2.66,1.55
5.287201046943665,2,3,3,1,-8.01,-1.49,-2.16,58.55,-1.67,1.52
5.297201037406921,2,3,3,1,-7.96,-1.41,-2.47,58.65,-0.5,1.23
5.307201027870178,2,3,3,1,-8.199999999999999,-0.97,-2.51,58.48,0.8100000000000001,0.68
5.317201018333435,2,3,3,1,-8.619999999999999,-0.53,-2.26,57.28,2.26,-0.02
5.327201008796692,2,3,3,1,-8.949999999999999,-0.31,-2.06,55.18,3.52,-0.87
5.337200999259949,2,3,3,1,-8.869999999999999,0.12,-2.07,52.76,5.09,-1.57
5.347200989723206,2,3,3,1,-8.58,0.49,-1.85,50.62,7.94,-1.95
5.357200980186462,2,3,3,1,-8.380000000000001,0.92,-1.8,48.22,12.15,-1.69
5.367200970649719,2,3,3,1,-8.32,1.23,-2.17,45.62,15.41,-0.95
5.377200961112976,2,3,3,1,-8.92,1.58,-2.88,43.55,15.65,0.04
5.387200951576233,2,3,3,1,-9.34,1.89,-3,41.96,14.02,1.3
5.39720094203949,2,3,3,1,-9.359999999999999,2.79,-3.04,39.72,11.95,1.79
5.417200922966003,2,3,3,1,-8.949999999999999,3.07,-2.33,34.75,7.45,-0.31
5.42720091342926,2,3,3,1,-9.06,3.09,-2.37,33.77,6.01,-1.41
5.437200903892517,2,3,3,1,-9.529999999999999,2.44,-2.47,32.03,5.39,-2.05
5.447200894355774,2,3,3,1,-9.869999999999999,1.53,-2.45,29.33,5.3,-2.48
5.457200884819031,2,3,3,1,-9.81,0.98,-1.8,27.94,4.97,-2.95
5.467200875282288,2,3,3,1,-9.710000000000001,1.14,-1.91,29.03,4.64,-3.31
5.477200865745544,2,3,3,1,-9.74,1.39,-2.06,29.83,4.83,-4.18
5.487200856208801,2,3,3,1,-9.92,1.77,-2.28,30.5,5.29,-4.98
5.497200846672058,2,3,3,1,-10.11,2.35,-2.28,30.56,5.75,-5.38
5.507201075553894,2,3,3,1,-10.14,2.59,-2.09,29.74,5.94,-5.67
5.517201066017151,2,3,3,1,-10.16,2.61,-1.71,27.83,6.11,-5.81
5.527201056480408,2,3,3,1,-10.2,2.41,-1.26,25.64,6.16,-5.7
5.537201046943665,2,3,3,1,-10.15,0.63,-0.46,24.31,6.14,-5.46
5.547201037406921,2,3,3,1,-10.02,0,-0.08,24.51,6.02,-5.13
5.557201027870178,2,3,3,1,-9.859999999999999,-0.23,0.04,25.4,6.03,-4.82
5.567201018333435,2,3,3,1,-9.789999999999999,-0.31,-0.05,26.29,6.25,-4.4
5.577201008796692,2,3,3,1,-9.710000000000001,-0.15,-0.8100000000000001,27.22,6.51,-3.8
5.587200999259949,2,3,3,1,-9.619999999999999,0.42,-1.21,28.57,6.18,-3.15
5.597200989723206,2,3,3,1,-9.52,1.45,-1.62,29,5.24,-2.59
5.607200980186462,2,3,3,1,-9.710000000000001,1.67,-1.67,27.3,4.29,-1.94
5.617200970649719,2,3,3,1,-9.619999999999999,0.8100000000000001,-1.19,24.95,2.99,-1.1
5.627200961112976,2,3,3,1,-9.6,0.19,-1.15,23,2.39,-0.65
5.637200951576233,2,3,3,1,-9.6,-0.08,-1.36,22.57,2.86,-0.6
5.64720094203949,2,3,3,1,-9.550000000000001,0,-1.4,22.6,3.64,-0.6899999999999999
5.657200932502747,2,3,3,1,-9.789999999999999,-0.05,-1.55,22.14,4.73,-0.75
5.667200922966003,2,3,3,1,-9.91,-0.03,-1.77,21.32,5.45,-0.55
5.67720091342926,2,3,3,1,-9.869999999999999,0.32,-2.38,19.97,5.47,-0.2
5.687200903892517,2,3,3,1,-9.85,0.2,-2.64,18.99,5.28,0.28
5.697200894355774,2,3,3,1,-9.029999999999999,0.76,-3.06,18.77,4.63,0.86
5.707200884819031,2,3,3,1,-8.75,1.59,-3.38,18.68,4.19,1.3
5.717200875282288,2,3,3,2,-8.76,1.99,-3.54,18.29,4.24,1.57
5.727200865745544,2,3,3,2,-8.81,2.39,-3.62,16.96,4.33,1.64
5.737200856208801,2,3,3,2,-8.880000000000001,3.1,-3.76,15.21,4.23,1.58
5.747200846672058,2,3,3,2,-8.98,2.11,-3.26,12.41,4.2,1.74
5.757201075553894,2,3,3,2,-8.880000000000001,1.3,-2.89,8.640000000000001,4.4,1.68
5.767201066017151,2,3,3,2,-9.51,-0.05,-1.11,6.37,4.86,1.57
5.777201056480408,2,3,3,2,-9.779999999999999,0.34,1.26,4.69,4.67,1.48
5.787201046943665,2,3,3,2,-9.1,3.63,2.14,6.38,2.09,1.21
5.797201037406921,2,3,3,2,-8.630000000000001,5.96,1.64,7.79,-0.01,0.32
5.807201027870178,2,3,3,2,-10.05,1.22,-0.77,3.22,0.71,-0.35
5.817201018333435,2,3,3,2,-11.83,-2.38,-0.25,-3.79,2.69,-0.1
5.827201008796692,2,3,3,2,-11.95,-3.19,0.33,-7.2,3.31,0.52
5.837200999259949,2,3,3,2,-10.91,-0.93,0,-5.31,2.02,1.13
5.847200989723206,2,3,3,2,-10.94,2.45,-0.66,-2.32,1.12,2.42
5.857200980186462,2,3,3,2,-11.91,2.5,-0.19,-4.26,1.28,3.38
5.867200970649719,2,3,3,2,-13.08,3.13,-0.55,-6.85,1.05,3.81
5.877200961112976,2,3,3,2,-14.5,3.33,-0.76,-7.31,0.8,4.3
5.887200951576233,2,3,3,2,-14.9,4.25,2.5,-4.86,0.29,5.03
5.898200869560242,2,3,3,2,-12.97,2.97,2.77,-2.86,-0.77,5.29
5.907200932502747,2,3,3,2,-11.44,2.15,2.22,-4.75,-1.11,4.49
5.917200922966003,2,3,3,2,-10.31,2.08,1.02,-4.16,-0.4,4.1
5.928201079368591,2,3,3,2,-7.37,2.65,-1.79,-2.11,-0.32,4.86
5.938201069831848,2,3,3,2,-6.71,3.21,-2.59,-0.19,-0.8,6.16
5.948201060295105,2,3,3,2,-7.13,3.96,-3.24,1.57,-1.2,7.36
5.958201050758362,2,3,3,2,-7.88,3.63,-3.43,2.29,-1.65,9.109999999999999
5.968201041221619,2,3,3,2,-8.859999999999999,2.97,-1.82,3.01,-2.56,10.5
5.978201031684875,2,3,3,2,-9.130000000000001,2.7,-1.69,3.06,-3.56,10.37
5.988201022148132,2,3,3,2,-10.26,0.42,-1.2,2.46,-4.29,9.07
5.998201012611389,2,3,3,2,-10.76,-0.89,-1.36,3.09,-4.5,8.84
6.008201003074646,2,3,3,2,-9.82,-0.35,-1.76,4.88,-4.5,8.56
6.018200993537903,2,3,3,3,-10.12,-0.41,-2.04,6,-4.31,7.31
6.02820098400116,2,3,3,3,-9.91,0.65,-2.19,6.41,-3.93,6.84
6.038200974464417,2,3,3,3,-9.67,0.5600000000000001,-2.1,5.44,-3.47,6.2
6.048200964927673,2,3,3,3,-9.470000000000001,-0.2,-2.14,3.84,-2.98,5.44
6.05820095539093,2,3,3,3,-9.779999999999999,-0.77,-2.26,2.87,-3.07,4.61
6.078200936317444,2,3,3,3,-9.98,-0.92,-2.31,4.6,-3.31,4.17
6.088200926780701,2,3,3,3,-9.630000000000001,0.18,-2.12,5.84,-3.16,4.24
6.098200917243958,2,3,3,3,-9.59,0.89,-2.01,7.11,-3.05,3.87
6.108200907707214,2,3,3,3,-9.6,1.24,-1.89,7.48,-3,3.65
6.118200898170471,2,3,3,3,-9.609999999999999,1.27,-1.69,6.65,-2.89,3.41
6.128200888633728,2,3,3,3,-9.74,1.58,-1.33,6.03,-2.83,3.1
6.138200879096985,2,3,3,3,-9.699999999999999,1.5,-1.24,5.39,-2.86,2.83
6.148200869560242,2,3,3,3,-9.74,1.44,-1.1,4.89,-2.87,2.51
6.158200860023499,2,3,3,3,-9.65,1.17,-1.12,4.59,-2.9,2.28
6.168200850486755,2,3,3,2,-9.4,1.25,-1.33,4.3,-2.77,2.03
6.178201079368591,2,3,3,2,-9.31,1.19,-1.45,4.17,-2.66,1.86
6.188201069831848,2,3,3,2,-9.4,1.11,-1.47,3.92,-2.5,1.77
6.198201060295105,2,3,3,2,-9.34,1.16,-1.32,3.39,-2.5,1.7
6.208201050758362,2,3,3,2,-9.369999999999999,1.21,-1.17,3.32,-2.66,1.23
6.218201041221619,2,3,3,2,-9.550000000000001,1.25,-1.02,3.51,-2.82,0.95
6.228201031684875,2,3,3,2,-9.550000000000001,1.09,-0.86,3.57,-3.16,0.87
6.238201022148132,2,3,3,2,-9.550000000000001,0.92,-0.71,4.01,-3.54,0.8
6.248201012611389,2,3,3,2,-9.470000000000001,0.98,-0.73,4.97,-3.84,0.78
6.258201003074646,2,3,3,2,-9.390000000000001,1.44,-0.7,5.94,-4.15,0.77
6.268200993537903,2,3,3,2,-9.289999999999999,1.99,-0.63,6.81,-4.45,0.77
6.27820098400116,2,3,3,2,-9.300000000000001,2.45,-0.6,7.35,-4.65,0.7
6.288200974464417,2,3,3,2,-9.35,3.21,-0.53,7.58,-4.82,0.61
6.298200964927673,2,3,3,2,-9.4,3.36,-0.13,7.51,-5.17,0.39
6.30820095539093,2,3,3,2,-9.550000000000001,3.3,0,7.24,-5.67,0.17
6.318200945854187,2,3,3,2,-9.57,3.1,-0.19,6.89,-6.05,0.23
6.328200936317444,2,3,3,2,-9.74,2.22,0.02,6.42,-6.29,0.65
6.338200926780701,2,3,3,2,-9.73,1.65,-0.12,6.35,-6.06,1.26
6.348200917243958,2,3,3,2,-9.74,1.24,0.04,6.16,-5.85,1.5
6.358200907707214,2,3,3,2,-9.76,0.87,0.03,5.41,-5.21,1.63
6.368200898170471,2,3,3,2,-9.9,0.11,-0.84,4.15,-4.31,1.75
6.378200888633728,2,3,3,2,-10.01,0.13,-1.09,2.66,-3.49,2.02
6.388200879096985,2,3,3,2,-10.01,0.35,-1.15,1.33,-3,2.35
6.398200869560242,2,3,3,2,-9.970000000000001,0.51,-1.21,-0.55,-2.64,2.19
6.408200860023499,2,3,3,2,-9.74,0.92,-1.12,-2.7,-2.47,1.74
6.418200850486755,2,3,3,2,-9.720000000000001,0.9,-1.3,-4.54,-2.42,1.06
6.428201079368591,2,3,3,2,-9.82,0.6899999999999999,-1.4,-5.37,-2.38,0.42
6.438201069831848,2,3,3,2,-10.15,0.29,-1.2,-4.66,-2.42,0.29
6.448201060295105,2,3,3,2,-10.78,-0.52,-0.35,-3.5,-2.84,0.87
6.458201050758362,2,3,3,2,-10.87,-1.15,0.01,-2.49,-3.5,1.53
6.498201012611389,2,3,3,2,-9.91,-0.37,0.71,2.46,-3.23,1.08
6.508201003074646,2,3,3,2,-9.949999999999999,0.22,0.97,3.8,-3.35,0.77
6.518200993537903,2,3,3,2,-9.99,0.86,1.16,4.35,-3.74,0.46
6.52820098400116,2,3,3,2,-9.94,2.25,1.57,4.52,-4.01,0.15
6.538200974464417,2,3,3,2,-9.77,2.87,1.64,5,-3.95,-0.02
6.548200964927673,2,3,3,2,-9.6,3.18,1.8,5.06,-3.77,-0.09
6.55820095539093,2,3,3,2,-9.42,3.13,1.88,5.09,-3.44,-0.06
6.568200945854187,2,3,3,2,-9.130000000000001,3,1.58,4.72,-2.94,-0.11
6.578200936317444,2,3,3,2,-9.140000000000001,2.72,1.57,3.87,-2.54,0
6.588200926780701,2,3,3,2,-9.140000000000001,2.83,1.42,3.32,-2.14,0.6899999999999999
6.598200917243958,2,3,3,2,-8.949999999999999,2.98,0.97,2.63,-1.41,1.19
6.608200907707214,2,3,3,2,-9.029999999999999,3.07,0.55,1.74,-0.75,1.3
6.618200898170471,2,3,3,2,-9.02,2.86,0.3,1.31,-0.16,1.49
6.628200888633728,2,3,3,2,-9.02,2.56,0.05,1.01,-0.03,0.93
6.638200879096985,2,3,3,2,-9.380000000000001,2,-0.05,1.15,0.48,0.1
6.648200869560242,2,3,3,2,-9.77,1.75,0.18,0.74,1.19,-0.21
6.658200860023499,2,3,3,2,-9.699999999999999,1.84,0.05,-0.41,1.03,-1.04
6.668200850486755,2,3,3,2,-9.800000000000001,1.56,0.13,-1.58,1.3,-1.87
6.678201079368591,2,3,3,2,-9.84,0.95,0.39,-2.06,1.65,-2.18
6.688201069831848,2,3,3,2,-9.76,0.99,0.7,-2.07,1.99,-1.8
6.698201060295105,2,3,3,2,-10.04,1.42,0.83,-2,2.84,-0.77
6.709200978279114,2,3,3,2,-10.46,2.06,0.2,-3,4.13,1.22
6.718201041221619,2,3,3,2,-8.17,2.6,0.75,-5.51,5.44,3.97
6.728201031684875,2,3,3,2,-6.26,2.25,0.35,-5.46,5.98,3.3
6.739200949668884,2,3,3,2,-7.12,1.55,0.08,-5.62,5.5,-2.51
6.748201012611389,2,3,3,2,-9.050000000000001,1.02,0.01,-5.92,6.35,-4.25
6.758201003074646,2,3,3,2,-9.34,0.1,-0.28,-5.07,5.79,-2.61
6.769200921058655,2,3,3,2,-9.27,-0.86,-0.1,-5.14,4.89,-1.78
6.77820098400116,2,3,3,2,-9.1,-1.25,-0.11,-3.64,4.94,-1.24
6.788200974464417,2,3,3,2,-9.119999999999999,-1.12,-0.28,-1.52,4.66,-1.23
6.799200892448425,2,3,3,2,-9.56,-0.4,-0.62,0.44,4.31,-1.46
6.80820095539093,2,3,3,2,-9.65,0.23,-0.6,1.89,3.64,-1.43
6.818200945854187,2,3,3,2,-9.619999999999999,0.67,-0.43,2.5,2.85,-1.44
6.829200863838196,2,3,3,2,-9.630000000000001,1.13,-0.43,2.69,2.32,-1.66
6.838200926780701,2,3,3,2,-9.66,1.01,-0.42,2.55,1.98,-1.73
6.848200917243958,2,3,3,2,-9.6,0.95,-0.3,1.83,1.63,-1.47
6.858200907707214,2,3,3,2,-9.56,0.95,0.02,1.27,1.22,-1.2
6.868200898170471,2,3,3,1,-9.460000000000001,0.98,0.33,1.65,0.76,-1.04
6.878200888633728,2,3,3,1,-9.48,1.03,0.6,1.82,0.5600000000000001,-1.08
6.888200879096985,2,3,3,1,-9.529999999999999,1.22,0.61,2.19,0.75,-1.05
6.898200869560242,2,3,3,1,-9.59,1.44,0.63,2.25,0.88,-0.8
6.908200860023499,2,3,3,1,-9.550000000000001,1.75,0.76,2.51,0.86,-0.54
6.918200850486755,2,3,3,1,-9.16,2.22,0.98,2.9,0.4,-0.73
6.928201079368591,2,3,3,1,-9.130000000000001,2.23,0.9,2.9,0.4,-0.73
6.938201069831848,2,3,3,1,-9.1,2.17,0.87,3.45,0.31,-0.96
6.948201060295105,2,3,3,1,-9.02,2.01,0.97,4.14,0.1,-1.14
6.959200978279114,2,3,3,1,-8.91,2.46,0.65,5.13,-0.11,-1.2
6.969200968742371,2,3,3,1,-9.109999999999999,2.6,0.16,5.75,-0.25,-1.1
6.979200959205627,2,3,3,1,-9.48,2.34,-0.06,5.75,-0.25,-1.1
6.989200949668884,2,3,3,1,-9.93,1.92,-0.16,5.31,-0.08,-0.87
6.999200940132141,2,3,3,1,-10.45,1.96,0.08,4.41,0.04,-0.89
7.009200930595398,2,3,3,1,-10.43,2.51,0.26,3.58,-0.2,-1.26
7.019200921058655,2,3,3,1,-10.28,2.84,0.51,0.85,-0.49,-1.78
7.029200911521912,2,3,3,1,-9.960000000000001,2.77,0.58,0.85,-0.49,-1.78
7.039200901985168,2,3,3,1,-9.880000000000001,2.19,-0.15,-0.96,-0.26,-1.81
7.049200892448425,2,3,3,1,-10.34,1.87,-0.05,-2.55,0.44,-1.36
7.059200882911682,2,3,3,1,-10.59,1.72,-0.01,-2.61,0.19,-1.22
7.069200873374939,2,3,3,1,-10.62,1.62,0.06,-2.65,0.17,-0.97
7.079200863838196,2,3,3,1,-10.25,1.23,0.37,-3.09,0.15,-0.79
7.089200854301453,2,3,3,1,-10.05,0.98,0.18,-4.02,0.09,-0.8100000000000001
7.099200844764709,2,3,3,1,-9.94,0.77,0,-4.25,0.08,-0.77
7.109201073646545,2,3,3,1,-9.94,0.76,-0.12,-4.08,0.2,-0.6
7.119201064109802,2,3,3,1,-9.880000000000001,0.14,-0.1,-4.56,0.46,-0.42
7.129201054573059,2,3,3,1,-9.699999999999999,-0.12,-0.41,-4.85,0.75,-0.37
7.139201045036316,2,3,3,1,-9.43,-0.19,-0.9399999999999999,-4.35,0.91,-0.46
7.149201035499573,2,3,3,1,-9.4,-0.37,-1.07,-3.65,0.89,-0.31
7.15920102596283,2,3,3,1,-9.550000000000001,-0.74,-1.26,-2.96,0.66,-0.2
7.169201016426086,2,3,3,1,-9.67,-0.73,-1.3,-2.41,0.55,-0.28
7.179201006889343,2,3,3,1,-9.82,-0.72,-1.28,-2.08,0.61,-0.44
7.1892009973526,2,3,3,1,-9.779999999999999,-0.74,-1.38,-1.4,0.5600000000000001,-0.5600000000000001
7.199200987815857,2,3,3,1,-9.59,0.1,-1.16,-0.51,0.49,-0.85
7.209200978279114,2,3,3,1,-9.69,0.46,-1.17,0.04,0.53,-0.96
7.219200968742371,2,3,3,1,-9.960000000000001,0.83,-1.15,0.21,0.59,-0.8100000000000001
7.229200959205627,2,3,3,1,-10.25,1.11,-1.12,-0.66,0.43,-0.63
7.239200949668884,2,3,3,1,-10.39,1.34,-0.64,-1.51,0.38,-0.43
7.249200940132141,2,3,3,1,-10.29,1.14,-0.24,-2.04,0.26,-0.38
7.259200930595398,2,3,3,1,-10.04,0.91,-0.2,-1.96,0.12,-0.52
7.269200921058655,2,3,3,1,-9.699999999999999,1,-0.44,-1.8,0.31,-0.71
7.279200911521912,2,3,3,1,-9.779999999999999,0.82,-0.9,-1.76,0.6899999999999999,-0.49
7.289200901985168,2,3,3,1,-9.81,0.78,-1.25,-1.58,0.73,-0.16
7.299200892448425,2,3,3,1,-9.880000000000001,0.77,-1.24,-1.13,0.66,-0.05
7.309200882911682,2,3,3,1,-9.94,0.67,-1.1,-0.89,0.39,-0.21
7.319200873374939,2,3,3,1,-9.92,0.33,-0.87,-0.62,0.24,-0.45
7.329200863838196,2,3,3,1,-9.869999999999999,0.14,-0.83,-0.35,0.14,-0.78
7.339200854301453,2,3,3,1,-9.800000000000001,-0.04,-0.9,-0.18,0.24,-0.97
7.349200844764709,2,3,3,1,-9.82,-0.21,-0.85,-0.12,0.54,-0.96
7.359201073646545,2,3,3,1,-9.699999999999999,-0.21,-0.78,-0.19,0.84,-0.97
7.369201064109802,2,3,3,1,-9.65,-0.12,-0.74,-0.3,1.07,-1.15
7.379201054573059,2,3,3,1,-9.69,0.04,-0.75,-0.22,1.34,-1.34
7.389201045036316,2,3,3,1,-9.76,0.2,-0.85,-0.22,1.43,-1.46
7.399201035499573,2,3,3,1,-9.74,0.59,-0.82,-0.42,1.61,-1.58
7.40920102596283,2,3,3,1,-9.710000000000001,0.6,-0.7,-0.6899999999999999,1.8,-1.69
7.419201016426086,2,3,3,2,-9.77,0.51,-0.5600000000000001,-1.18,1.91,-1.71
7.429201006889343,2,3,3,2,-9.869999999999999,0.27,-0.51,-1.41,2.01,-1.74
7.4392009973526,2,3,3,2,-10.05,-0.25,-0.8100000000000001,-1.38,1.99,-1.6
7.449200987815857,2,3,3,2,-10.05,-0.5,-0.97,-1,2.18,-1.5
7.459200978279114,2,3,3,2,-10.04,-0.55,-1.22,0.01,2.44,-1.37
7.469200968742371,2,3,3,2,-10.09,-0.58,-1.41,1.09,2.6,-1.19
7.479200959205627,2,3,3,2,-9.98,-0.66,-1.51,2.2,2.77,-1.04
7.489200949668884,2,3,3,2,-9.82,-0.52,-1.75,3.4,2.92,-1.1
7.499200940132141,2,3,3,2,-9.710000000000001,-0.25,-1.89,4.59,2.9,-1.25
7.509200930595398,2,3,3,2,-9.65,0.07000000000000001,-1.81,5.38,2.52,-1.36
7.519200921058655,2,3,3,2,-9.65,0.31,-1.65,5.64,2.16,-1.44
7.529200911521912,2,3,3,2,-9.52,0.51,-1.47,5.88,1.91,-1.5
7.539200901985168,2,3,3,2,-9.48,0.76,-1.33,5.37,1.92,-1.53
7.549200892448425,2,3,3,2,-9.529999999999999,0.74,-1.05,4.46,1.65,-1.44
7.559200882911682,2,3,3,2,-9.43,0.77,-0.5,3.71,1.46,-1.57
7.569200873374939,2,3,3,2,-9.5,0.88,-0.58,2.88,1.46,-1.79
7.579200863838196,2,3,3,2,-9.630000000000001,0.8,-0.57,2.1,1.4,-1.82
7.589200854301453,2,3,3,2,-9.81,0.54,-0.52,1.86,1.2,-1.64
7.599200844764709,2,3,3,2,-9.66,0.47,-0.34,1.88,1.3,-1.62
7.609201073646545,2,3,3,2,-9.59,0.51,-0.35,1.73,1.67,-1.69
7.619201064109802,2,3,3,2,-9.6,0.58,-0.6,1.76,1.93,-1.72
7.629201054573059,2,3,3,2,-9.69,0.82,-0.7,1.91,1.8,-1.63
7.639201045036316,2,3,3,2,-9.640000000000001,0.84,-0.83,1.7,1.66,-1.58
7.649201035499573,2,3,3,2,-9.59,0.8,-0.86,1.57,1.62,-1.48
7.65920102596283,2,3,3,2,-9.609999999999999,0.84,-1.1,1.07,1.71,-1.28
7.669201016426086,2,3,3,2,-9.92,0.31,-1.03,0.64,1.65,-0.84
7.679201006889343,2,3,3,2,-9.84,0.13,-0.99,0.62,1.48,-0.59
7.6892009973526,2,3,3,2,-9.73,-0.04,-1.19,0.65,1.49,-0.71
7.699200987815857,2,3,3,2,-9.699999999999999,-0.08,-1.38,1.17,1.51,-0.92
7.709200978279114,2,3,3,2,-9.779999999999999,-0.34,-1.13,1.6,1.22,-0.9399999999999999
7.719200968742371,2,3,3,2,-9.68,-0.37,-1.1,2.18,1.03,-1.03
7.729200959205627,2,3,3,2,-9.59,-0.23,-1.12,2.93,0.97,-1.35
7.739200949668884,2,3,3,2,-9.56,0,-1.3,3.68,0.96,-1.63
7.749200940132141,2,3,3,2,-9.640000000000001,0.34,-1.4,3.59,0.91,-1.69
7.759200930595398,2,3,3,2,-9.73,0.42,-1.42,2.85,0.75,-1.37
7.769200921058655,2,3,3,3,-9.77,0.38,-1.19,2.3,0.63,-0.71
7.779200911521912,2,3,3,3,-9.73,0.07000000000000001,-0.9,1.98,0.61,-0.11
7.789200901985168,2,3,3,3,-9.380000000000001,-0.11,-1.19,1.63,0.79,-0.12
7.799200892448425,2,3,3,3,-9.380000000000001,-0.17,-1.38,1.55,1.02,-0.42
7.809200882911682,2,3,3,3,-9.449999999999999,-0.27,-1.52,1.9,1.09,-0.6899999999999999
7.819200873374939,2,3,3,3,-9.57,-0.27,-1.54,2.43,1.07,-0.88
7.829200863838196,2,3,3,3,-9.77,-0.06,-1.8,2.47,0.86,-1.04
7.839200854301453,2,3,3,3,-9.84,-0.09,-1.68,2.37,0.44,-1
7.849200844764709,2,3,3,3,-9.73,-0.17,-1.47,2.49,-0.01,-1.03
7.859201073646545,2,3,3,3,-9.640000000000001,-0.1,-1.45,2.54,-0.06,-1.29
7.869201064109802,2,3,3,3,-9.82,-0.14,-1.3,2.58,-0.06,-1.27
7.879201054573059,2,3,3,3,-9.85,-0.03,-1.16,2.86,-0.07000000000000001,-0.9399999999999999
7.889201045036316,2,3,3,3,-9.779999999999999,0.12,-1.12,2.7,-0.01,-0.78
7.899201035499573,2,3,3,3,-9.74,0.26,-1.06,2.7,0.18,-0.8
7.90920102596283,2,3,3,3,-9.68,0.5600000000000001,-1.06,2.52,0.32,-0.95
7.919201016426086,2,3,3,3,-9.69,0.55,-1.06,2.16,0.27,-0.97
7.929201006889343,2,3,3,3,-9.74,0.51,-0.98,1.76,0.24,-0.92
7.9392009973526,2,3,3,3,-9.74,0.42,-1.08,1.41,0.27,-0.8
7.949200987815857,2,3,3,3,-9.75,0.5,-1.23,1.18,0.27,-0.67
7.959200978279114,2,3,3,3,-9.84,0.38,-1.3,0.88,0.29,-0.34
7.969200968742371,2,3,3,3,-9.789999999999999,0.3,-1.29,0.7,-0.01,0.12
7.980200886726379,2,3,3,3,-9.73,0.27,-1.27,0.51,0.02,0.59
7.990200877189636,2,3,3,3,-9.6,0.22,-1.4,0.63,0.04,0.79
8.000200867652893,2,3,3,3,-9.630000000000001,0.12,-1.39,0.35,-0.15,0.62
8.01020085811615,2,3,3,3,-9.74,0.06,-1.29,0.1,-0.29,0.64
8.020200848579407,2,3,3,3,-9.82,-0.01,-1.21,-0.03,-0.38,0.7
8.030201077461243,2,3,3,3,-9.76,-0.13,-1.16,-0.32,-0.42,0.64
8.0402010679245,2,3,3,3,-9.69,-0.2,-1.2,-0.44,-0.32,0.59
8.050201058387756,2,3,3,3,-9.69,-0.17,-1.19,-0.61,-0.25,0.51
8.060201048851013,2,3,3,3,-9.76,-0.24,-1.15,-0.89,-0.18,0.5
8.07020103931427,2,3,3,3,-9.710000000000001,-0.22,-1.22,-1.14,-0.15,0.52
8.080201029777527,2,3,3,3,-9.699999999999999,-0.2,-1.36,-1.65,-0.43,0.52
8.090201020240784,2,3,3,3,-9.74,-0.22,-1.4,-1.91,-0.51,0.79
8.100201010704041,2,3,3,3,-9.76,-0.35,-1.23,-2.05,-0.6,1.04
8.110201001167297,2,3,3,3,-9.65,-0.36,-1.03,-2.17,-0.7,0.96
8.120200991630554,2,3,3,3,-9.59,-0.24,-1.08,-2.12,-0.6899999999999999,0.68
8.130200982093811,2,3,3,3,-9.56,-0.05,-1.2,-1.95,-0.47,0.5
8.140200972557068,2,3,3,3,-9.619999999999999,0.06,-1.44,-1.95,-0.35,0.45
8.150200963020325,2,3,3,3,-9.789999999999999,0.18,-1.46,-2.06,-0.37,0.6
8.160200953483582,2,3,3,3,-9.81,0.23,-1.39,-2.04,-0.59,0.75
8.170200943946838,2,3,3,3,-9.76,0.12,-1.22,-2.14,-0.78,0.92
8.180200934410095,2,3,3,3,-9.710000000000001,0.06,-1.16,-2.28,-0.93,0.97
8.190200924873352,2,3,3,3,-9.609999999999999,-0.08,-1.3,-2.45,-1.01,0.82
8.200200915336609,2,3,3,3,-9.550000000000001,-0.15,-1.2,-2.06,-1.11,0.63
8.210200905799866,2,3,3,3,-9.5,-0.11,-1.17,-1.84,-1.04,0.37
8.220200896263123,2,3,3,2,-9.529999999999999,-0.02,-1.18,-1.86,-0.7,0.09
8.230200886726379,2,3,3,2,-9.710000000000001,-0.07000000000000001,-1.2,-1.61,-0.34,0.02
8.240200877189636,2,3,3,2,-9.73,-0.21,-1.23,-1.51,-0.17,0.04
8.250200867652893,2,3,3,2,-9.68,-0.34,-1.26,-1.44,-0.01,0.01
8.26020085811615,2,3,3,2,-9.6,-0.4,-1.33,-1.46,0.1,-0.13
8.270200848579407,2,3,3,2,-9.619999999999999,-0.41,-1.33,-1.41,0.15,-0.27
8.280201077461243,2,3,3,2,-9.6,-0.36,-1.34,-1.15,0.2,-0.44
8.2902010679245,2,3,3,2,-9.619999999999999,-0.29,-1.48,-1.13,0.16,-0.53
8.300201058387756,2,3,3,2,-9.630000000000001,-0.33,-1.39,-0.83,0.17,-0.55
8.310201048851013,2,3,3,2,-9.720000000000001,-0.3,-1.46,-0.6899999999999999,0.26,-0.57
8.32020103931427,2,3,3,2,-9.81,-0.41,-1.33,-0.55,0.25,-0.44
8.330201029777527,2,3,3,2,-9.74,-0.42,-1.25,-0.4,0.2,-0.35
8.340201020240784,2,3,3,2,-9.609999999999999,-0.42,-1.37,-0.38,0.27,-0.5
8.350201010704041,2,3,3,2,-9.58,-0.25,-1.31,-0.1,0.37,-0.65
8.360201001167297,2,3,3,2,-9.609999999999999,-0.18,-1.27,0.2,0.43,-0.78
8.370200991630554,2,3,3,2,-9.640000000000001,-0.15,-1.27,0.26,0.54,-0.92
8.380200982093811,2,3,3,2,-9.66,-0.19,-1.28,0.25,0.73,-0.95
8.390200972557068,2,3,3,2,-9.710000000000001,-0.21,-1.45,0.25,0.65,-0.88
8.400200963020325,2,3,3,2,-9.720000000000001,-0.22,-1.43,0.29,0.57,-0.8100000000000001
8.410200953483582,2,3,3,2,-9.74,-0.23,-1.34,0.5600000000000001,0.54,-0.7
8.420200943946838,2,3,3,2,-9.69,-0.23,-1.35,0.71,0.5,-0.6899999999999999
8.430200934410095,2,3,3,2,-9.630000000000001,-0.29,-1.38,0.9,0.51,-0.71
8.440200924873352,2,3,3,2,-9.619999999999999,-0.22,-1.45,1.17,0.47,-0.83
8.450200915336609,2,3,3,2,-9.65,-0.19,-1.43,1.36,0.42,-0.99
8.460200905799866,2,3,3,2,-9.68,-0.14,-1.36,1.57,0.27,-1.17
8.470200896263123,2,3,3,2,-9.640000000000001,-0.13,-1.23,1.66,0.33,-1.37
8.480200886726379,2,3,3,2,-9.6,-0.15,-1.24,1.87,0.48,-1.6
8.490200877189636,2,3,3,2,-9.539999999999999,-0.14,-1.34,2.01,0.63,-1.87
8.500200867652893,2,3,3,2,-9.58,-0.15,-1.36,1.95,0.71,-2.1
8.51020085811615,2,3,3,2,-9.59,-0.11,-1.26,1.96,0.45,-2.42
8.520200848579407,2,3,3,2,-9.550000000000001,-0.04,-1.25,2.09,0.26,-2.85
8.530201077461243,2,3,3,2,-9.460000000000001,0.04,-1.29,2.13,0.26,-3.41
8.5402010679245,2,3,3,2,-9.470000000000001,0.12,-1.33,2.14,0.36,-3.79
8.550201058387756,2,3,3,2,-9.529999999999999,0.08,-1.25,2.17,0.46,-4.09
8.560201048851013,2,3,3,2,-9.5,0.08,-1.22,2.14,0.68,-4.33
8.57020103931427,2,3,3,2,-9.529999999999999,0.06,-1.26,1.95,1.14,-4.53
8.580201029777527,2,3,3,2,-9.67,-0.01,-1.23,1.73,1.52,-4.57
8.590201020240784,2,3,3,2,-9.83,-0.14,-1.37,1.31,1.6,-4.36
8.600201010704041,2,3,3,2,-9.99,-0.27,-1.38,0.83,1.58,-3.81
8.610201001167297,2,3,3,2,-10.05,-0.36,-1.4,0.66,1.36,-3.04
8.620200991630554,2,3,3,2,-10,-0.46,-1.42,0.5600000000000001,1.13,-2.23
8.630200982093811,2,3,3,2,-9.94,-0.46,-1.47,0.43,1.02,-1.55
8.640200972557068,2,3,3,2,-9.869999999999999,-0.41,-1.58,0.33,0.9399999999999999,-1.03
8.650200963020325,2,3,3,2,-9.82,-0.42,-1.59,0.2,0.85,-0.68
8.660200953483582,2,3,3,2,-9.69,-0.52,-1.54,0.08,0.68,-0.45
8.680200934410095,2,3,3,2,-9.66,-0.6,-1.63,-0.03,0.48,-0.17
8.690200924873352,2,3,3,2,-9.640000000000001,-0.67,-1.74,-0.03,0.39,-0.08
8.700200915336609,2,3,3,2,-9.609999999999999,-0.74,-1.67,-0.03,0.31,0.01
8.710200905799866,2,3,3,2,-9.630000000000001,-0.79,-1.64,0.03,0.29,0.1
8.720200896263123,2,3,3,2,-9.6,-0.84,-1.58,0.13,0.28,0.15
8.730200886726379,2,3,3,2,-9.619999999999999,-0.83,-1.59,0.17,0.24,0.25
8.740200877189636,2,3,3,2,-9.65,-0.83,-1.75,0.2,0.22,0.28
8.750200867652893,2,3,3,2,-9.68,-0.88,-1.7,0.15,0.26,0.3
8.76020085811615,2,3,3,2,-9.66,-0.92,-1.69,0,0.22,0.29
8.770200848579407,2,3,3,2,-9.67,-0.93,-1.68,-0.08,0.18,0.22
8.780201077461243,2,3,3,2,-9.58,-0.9,-1.79,-0.15,0.18,0.16
8.7902010679245,2,3,3,2,-9.550000000000001,-0.9399999999999999,-1.88,-0.19,0.19,0.14
8.800201058387756,2,3,3,2,-9.56,-0.99,-1.88,-0.25,0.27,0.15
8.810201048851013,2,3,3,2,-9.57,-1.03,-1.86,-0.39,0.27,0.03
8.82020103931427,2,3,3,2,-9.6,-1.08,-1.8,-0.45,0.24,-0.07000000000000001
8.830201029777527,2,3,3,2,-9.6,-1.11,-1.84,-0.47,0.22,-0.1
8.840201020240784,2,3,3,2,-9.6,-1.16,-1.89,-0.34,0.24,-0.2
8.850201010704041,2,3,3,2,-9.609999999999999,-1.14,-1.86,-0.31,0.24,-0.25
8.860201001167297,2,3,3,2,-9.619999999999999,-1.08,-1.76,-0.11,0.24,-0.3
8.870200991630554,2,3,3,2,-9.57,-1.04,-1.76,0.03,0.09,-0.31
8.880200982093811,2,3,3,2,-9.59,-0.98,-1.73,0.16,0.04,-0.35
8.890200972557068,2,3,3,2,-9.6,-0.86,-1.78,0.16,-0.06,-0.35
8.900200963020325,2,3,3,2,-9.6,-0.73,-1.65,0.18,-0.08,-0.33
8.910200953483582,2,3,3,2,-9.6,-0.72,-1.63,0.09,-0.08,-0.3
8.920200943946838,2,3,3,2,-9.619999999999999,-0.74,-1.57,0,0,-0.31
8.930200934410095,2,3,3,2,-9.609999999999999,-0.77,-1.61,-0.08,-0.04,-0.3
8.940200924873352,2,3,3,2,-9.609999999999999,-0.78,-1.71,-0.08,0.03,-0.31
8.950200915336609,2,3,3,2,-9.59,-0.78,-1.65,-0.03,0.03,-0.25
8.960200905799866,2,3,3,2,-9.609999999999999,-0.77,-1.64,0.07000000000000001,0.13,-0.28
8.970200896263123,2,3,3,2,-9.6,-0.77,-1.64,0.17,0.16,-0.27
8.980200886726379,2,3,3,2,-9.630000000000001,-0.6899999999999999,-1.7,0.21,0.16,-0.25
8.990200877189636,2,3,3,2,-9.619999999999999,-0.7,-1.75,0.26,0.17,-0.28
9.000200867652893,2,3,3,2,-9.640000000000001,-0.68,-1.67,0.27,0.13,-0.3
9.011201024055481,2,3,3,2,-9.640000000000001,-0.65,-1.63,0.24,0.09,-0.26
9.021201014518738,2,3,3,2,-9.65,-0.6899999999999999,-1.61,0.31,0.08,-0.24
9.031201004981995,2,3,3,2,-9.65,-0.67,-1.63,0.28,0.06,-0.24
9.041200995445251,2,3,3,2,-9.65,-0.67,-1.73,0.27,0.04,-0.25
9.051200985908508,2,3,3,2,-9.630000000000001,-0.6899999999999999,-1.7,0.31,0.05,-0.19
9.061200976371765,2,3,3,2,-9.630000000000001,-0.67,-1.62,0.29,0.02,-0.21
9.071200966835022,2,3,3,2,-9.630000000000001,-0.6899999999999999,-1.63,0.2,-0.03,-0.2
9.081200957298279,2,3,3,2,-9.6,-0.72,-1.6,0.17,0.03,-0.22
9.091200947761536,2,3,3,2,-9.609999999999999,-0.75,-1.71,0.07000000000000001,0.06,-0.26
9.101200938224792,2,3,3,2,-9.609999999999999,-0.8100000000000001,-1.68,0.05,0.1,-0.29
9.111200928688049,2,3,3,2,-9.619999999999999,-0.82,-1.64,0.02,0.04,-0.28
9.121200919151306,2,3,3,2,-9.630000000000001,-0.79,-1.63,0.04,0.05,-0.3
9.131200909614563,2,3,3,2,-9.6,-0.8100000000000001,-1.62,0.07000000000000001,0.06,-0.25
9.14120090007782,2,3,3,2,-9.609999999999999,-0.8,-1.69,0.04,0.01,-0.26
9.151200890541077,2,3,3,2,-9.609999999999999,-0.79,-1.64,0.05,-0.02,-0.24
9.161200881004333,2,3,3,2,-9.6,-0.77,-1.65,0.05,-0.02,-0.23
9.17120087146759,2,3,3,2,-9.6,-0.75,-1.62,0.1,-0.01,-0.21
9.181200861930847,2,3,3,2,-9.609999999999999,-0.77,-1.67,0.13,-0.03,-0.15
9.191200852394104,2,3,3,2,-9.619999999999999,-0.78,-1.72,0.16,-0.03,-0.14
9.201200842857361,2,3,3,2,-9.609999999999999,-0.79,-1.69,0.11,-0.08,-0.18
9.211201071739197,2,3,3,2,-9.6,-0.8100000000000001,-1.65,0.11,-0.05,-0.14
9.221201062202454,2,3,3,2,-9.6,-0.85,-1.59,0.18,-0.03,-0.15
9.23120105266571,2,3,3,2,-9.609999999999999,-0.83,-1.62,0.23,0.03,-0.15
9.241201043128967,2,3,3,2,-9.59,-0.8100000000000001,-1.74,0.25,0.03,-0.1
9.251201033592224,2,3,3,2,-9.609999999999999,-0.8,-1.72,0.22,0.02,-0.13
9.261201024055481,2,3,3,2,-9.609999999999999,-0.79,-1.67,0.25,0.01,-0.1
9.271201014518738,2,3,3,2,-9.609999999999999,-0.82,-1.64,0.25,-0.07000000000000001,-0.09
9.281201004981995,2,3,3,2,-9.6,-0.83,-1.62,0.24,-0.06,-0.07000000000000001
9.291200995445251,2,3,3,2,-9.609999999999999,-0.8100000000000001,-1.68,0.21,-0.12,-0.07000000000000001
9.301200985908508,2,3,3,2,-9.6,-0.82,-1.67,0.2,-0.01,-0.05
9.311200976371765,2,3,3,2,-9.6,-0.87,-1.63,0.19,-0.03,-0.07000000000000001
9.321200966835022,2,3,3,2,-9.609999999999999,-0.8100000000000001,-1.63,0.19,-0.05,-0.05
9.331200957298279,2,3,3,2,-9.6,-0.84,-1.62,0.08,0.02,-0.07000000000000001
9.341200947761536,2,3,3,2,-9.6,-0.9,-1.76,0.12,0.03,-0.11
9.351200938224792,2,3,3,2,-9.6,-0.9,-1.69,0.17,0.05,-0.08
9.361200928688049,2,3,3,2,-9.6,-0.9,-1.64,0.18,0.01,-0.08
9.371200919151306,2,3,3,2,-9.59,-0.87,-1.64,0.13,0.02,-0.07000000000000001
9.381200909614563,2,3,3,2,-9.58,-0.85,-1.69,0.23,0.07000000000000001,-0.11
9.39120090007782,2,3,3,2,-9.6,-0.86,-1.78,0.24,0.02,-0.1
9.401200890541077,2,3,3,2,-9.6,-0.87,-1.75,0.25,-0.06,-0.12
9.411200881004333,2,3,3,2,-9.6,-0.85,-1.71,0.25,-0.07000000000000001,-0.09
9.42120087146759,2,3,3,2,-9.6,-0.87,-1.63,0.18,-0.1,-0.08
9.431200861930847,2,3,3,2,-9.609999999999999,-0.86,-1.64,0.17,-0.05,-0.1
9.441200852394104,2,3,3,2,-9.6,-0.84,-1.72,0.14,-0.06,-0.09
9.451200842857361,2,3,3,2,-9.59,-0.8,-1.73,0.13,-0.01,-0.11
9.461201071739197,2,3,3,2,-9.619999999999999,-0.84,-1.65,0.11,0.03,-0.1
9.471201062202454,2,3,3,2,-9.609999999999999,-0.8,-1.61,0.05,0.02,-0.15
9.48120105266571,2,3,3,2,-9.59,-0.82,-1.61,0.03,-0.03,-0.14
9.491201043128967,2,3,3,2,-9.59,-0.82,-1.71,-0.06,-0.02,-0.15
9.501201033592224,2,3,3,2,-9.6,-0.85,-1.66,-0.04,0.01,-0.18
9.511201024055481,2,3,3,2,-9.6,-0.83,-1.66,-0.09,0.04,-0.16
9.521201014518738,2,3,3,2,-9.609999999999999,-0.83,-1.64,-0.1,0.02,-0.19
9.531201004981995,2,3,3,2,-9.609999999999999,-0.82,-1.65,-0.14,-0.03,-0.19
9.541200995445251,2,3,3,2,-9.609999999999999,-0.83,-1.74,-0.15,-0.01,-0.21
9.551200985908508,2,3,3,2,-9.619999999999999,-0.83,-1.7,-0.17,-0.03,-0.18
9.561200976371765,2,3,3,2,-9.59,-0.86,-1.64,-0.16,-0.02,-0.2
9.571200966835022,2,3,3,2,-9.57,-0.82,-1.65,-0.21,-0.03,-0.22
9.581200957298279,2,3,3,2,-9.58,-0.82,-1.68,-0.21,-0.02,-0.25
9.591200947761536,2,3,3,2,-9.6,-0.83,-1.77,-0.24,0,-0.24
9.601200938224792,2,3,3,2,-9.619999999999999,-0.89,-1.75,-0.28,0.01,-0.24
9.611200928688049,2,3,3,2,-9.640000000000001,-0.86,-1.68,-0.29,0.01,-0.25
9.621200919151306,2,3,3,2,-9.609999999999999,-0.87,-1.64,-0.29,-0.01,-0.23
9.631200909614563,2,3,3,2,-9.59,-0.89,-1.65,-0.26,0,-0.23
9.64120090007782,2,3,3,2,-9.58,-0.9,-1.75,-0.3,-0.04,-0.23
9.651200890541077,2,3,3,2,-9.619999999999999,-0.86,-1.63,-0.28,-0.04,-0.23
9.661200881004333,2,3,3,2,-9.6,-0.88,-1.55,-0.2,-0.1,-0.24
9.67120087146759,2,3,3,2,-9.6,-0.91,-1.6,-0.13,-0.15,-0.16
9.681200861930847,2,3,3,2,-9.609999999999999,-1.01,-1.59,0.02,-0.07000000000000001,-0.11
9.691200852394104,2,3,3,2,-9.6,-0.99,-1.79,0.17,-0.02,-0.14
9.701200842857361,2,3,3,2,-9.57,-0.88,-1.74,0.36,-0.06,-0.12
9.711201071739197,2,3,3,2,-9.6,-0.82,-1.69,0.42,-0.09,-0.12
9.721201062202454,2,3,3,2,-9.609999999999999,-0.77,-1.65,0.43,-0.03,-0.13
9.73120105266571,2,3,3,2,-9.6,-0.86,-1.71,0.31,-0.08,-0.11
9.741201043128967,2,3,3,2,-9.66,-0.93,-1.77,0.33,-0.09,-0.13
9.751201033592224,2,3,3,2,-9.68,-0.93,-1.7,0.3,-0.06,-0.16
9.761201024055481,2,3,3,2,-9.66,-0.84,-1.63,0.33,-0.12,-0.14
9.771201014518738,2,3,3,1,-9.6,-0.71,-1.67,0.39,-0.13,-0.1
9.781201004981995,2,3,3,1,-9.6,-0.71,-1.7,0.4,-0.12,-0.11
9.791200995445251,2,3,3,1,-9.59,-0.71,-1.75,0.4,-0.14,-0.15
9.801200985908508,2,3,3,1,-9.550000000000001,-0.71,-1.69,0.34,-0.11,-0.2
9.811200976371765,2,3,3,1,-9.57,-0.75,-1.64,0.06,-0.06,-0.18
9.821200966835022,2,3,3,1,-9.58,-0.75,-1.66,-0.05,-0.07000000000000001,-0.17
9.831200957298279,2,3,3,1,-9.640000000000001,-0.77,-1.66,-0.09,0.02,-0.14
9.841200947761536,2,3,3,1,-9.619999999999999,-0.79,-1.78,-0.06,0.03,-0.13
9.851200938224792,2,3,3,1,-9.619999999999999,-0.77,-1.69,-0.08,-0.02,-0.12
9.861200928688049,2,3,3,1,-9.6,-0.74,-1.67,-0.07000000000000001,-0.07000000000000001,-0.16
9.871200919151306,2,3,3,1,-9.57,-0.74,-1.63,-0.07000000000000001,-0.05,-0.17
9.881200909614563,2,3,3,1,-9.58,-0.76,-1.62,-0.1,-0.07000000000000001,-0.18
9.89120090007782,2,3,3,1,-9.57,-0.79,-1.76,-0.1,-0.04,-0.15
9.901200890541077,2,3,3,1,-9.609999999999999,-0.83,-1.74,-0.17,-0.02,-0.13
9.911200881004333,2,3,3,1,-9.66,-0.87,-1.69,-0.2,0,-0.16
9.92120087146759,2,3,3,1,-9.630000000000001,-0.85,-1.65,-0.13,-0.03,-0.15
9.931200861930847,2,3,3,1,-9.609999999999999,-0.8,-1.7,-0.14,-0.07000000000000001,-0.13
9.941200852394104,2,3,3,1,-9.609999999999999,-0.85,-1.75,-0.08,-0.07000000000000001,-0.13
9.951200842857361,2,3,3,1,-9.6,-0.85,-1.71,-0.09,-0.06,-0.14
9.961201071739197,2,3,3,1,-9.57,-0.87,-1.67,-0.1,-0.05,-0.16
9.971201062202454,2,3,3,1,-9.58,-0.85,-1.66,-0.1,-0.08,-0.16
9.98120105266571,2,3,3,1,-9.58,-0.85,-1.65,-0.16,-0.08,-0.14
9.991201043128967,2,3,3,1,-9.6,-0.86,-1.78,-0.13,-0.05,-0.11
10.00120103359222,2,3,3,1,-9.6,-0.91,-1.76,-0.17,-0.05,-0.09
10.01120102405548,2,3,3,1,-9.6,-0.95,-1.64,-0.1,-0.06,-0.09
10.02120101451874,2,3,3,1,-9.57,-0.91,-1.64,0.03,-0.04,-0.09
10.03220093250275,2,3,3,1,-9.56,-0.91,-1.65,0.05,0.01,-0.11
10.042200922966,2,3,3,1,-9.56,-0.93,-1.72,0.06,0.06,-0.16
10.05220091342926,2,3,3,1,-9.6,-0.88,-1.65,0.01,0.08,-0.21
10.06220090389252,2,3,3,1,-9.630000000000001,-0.87,-1.6,-0.13,-0.01,-0.26
10.07220089435577,2,3,3,1,-9.65,-0.84,-1.57,-0.27,-0.04,-0.28
10.08220088481903,2,3,3,1,-9.67,-0.8,-1.56,-0.3,0.02,-0.24
10.09220087528229,2,3,3,1,-9.640000000000001,-0.74,-1.71,-0.34,0.01,-0.24
10.10220086574554,2,3,3,1,-9.630000000000001,-0.73,-1.69,-0.41,0.05,-0.25
10.1122008562088,2,3,3,1,-9.609999999999999,-0.6899999999999999,-1.63,-0.43,0.02,-0.28
10.12220084667206,2,3,3,1,-9.56,-0.67,-1.59,-0.49,0,-0.23
10.13220107555389,2,3,3,1,-9.550000000000001,-0.59,-1.63,-0.57,0.03,-0.22
10.14220106601715,2,3,3,1,-9.550000000000001,-0.65,-1.7,-0.6899999999999999,0.08,-0.21
10.15220105648041,2,3,3,1,-9.59,-0.7,-1.7,-0.82,0.02,-0.15
10.16220104694366,2,3,3,1,-9.619999999999999,-0.83,-1.73,-0.9,0.1,-0.12
10.17220103740692,2,3,3,1,-9.66,-0.95,-1.69,-0.88,0.13,-0.08
10.18220102787018,2,3,3,1,-9.6,-0.95,-1.74,-0.75,-0.05,-0.06
10.19220101833344,2,3,3,1,-9.539999999999999,-0.96,-1.81,-0.64,-0.08,-0.05
10.20220100879669,2,3,3,1,-9.52,-1.01,-1.8,-0.64,-0.07000000000000001,-0.11
10.21220099925995,2,3,3,1,-9.51,-1.09,-1.77,-0.6,-0.05,-0.16
10.22220098972321,2,3,3,1,-9.529999999999999,-1.07,-1.74,-0.52,-0.03,-0.22
10.23220098018646,2,3,3,1,-9.529999999999999,-1.04,-1.73,-0.45,-0.02,-0.23
10.24220097064972,2,3,3,1,-9.59,-1.02,-1.82,-0.4,-0.04,-0.22
10.25220096111298,2,3,3,1,-9.58,-0.98,-1.75,-0.32,-0.05,-0.26
10.26220095157623,2,3,3,1,-9.59,-0.99,-1.72,-0.26,-0.08,-0.29
10.27220094203949,2,3,3,2,-9.6,-0.95,-1.64,-0.19,-0.09,-0.32
10.28220093250275,2,3,3,2,-9.6,-0.83,-1.6,-0.14,-0.16,-0.28
10.292200922966,2,3,3,2,-9.6,-0.65,-1.68,-0.04,-0.15,-0.24
10.30220091342926,2,3,3,2,-9.609999999999999,-0.57,-1.58,0,-0.22,-0.16
10.31220090389252,2,3,3,2,-9.609999999999999,-0.49,-1.5,-0.01,-0.28,-0.06
10.32220089435577,2,3,3,2,-9.58,-0.41,-1.47,0.04,-0.38,0.03
10.33220088481903,2,3,3,2,-9.609999999999999,-0.29,-1.46,-0.01,-0.47,0.16
10.34220087528229,2,3,3,2,-9.67,-0.28,-1.48,-0.01,-0.61,0.29
10.35220086574554,2,3,3,2,-9.68,-0.2,-1.45,-0.07000000000000001,-0.75,0.39
10.3622008562088,2,3,3,2,-9.69,-0.12,-1.39,-0.13,-0.86,0.58
10.37220084667206,2,3,3,2,-9.720000000000001,0.11,-1.18,-0.1,-0.8100000000000001,0.88
10.38220107555389,2,3,3,2,-9.699999999999999,0.23,-1.18,0.06,-1.06,1.08
10.39220106601715,2,3,3,2,-9.67,0.36,-1.24,0.03,-1.13,1.29
10.40220105648041,2,3,3,2,-9.66,0.45,-1.23,-0.02,-1.24,1.55
10.41220104694366,2,3,3,2,-9.710000000000001,0.61,-1.1,-0.12,-1.27,1.74
10.42220103740692,2,3,3,2,-9.710000000000001,0.74,-0.99,-0.22,-1.38,1.96
10.43220102787018,2,3,3,2,-9.65,0.96,-0.93,-0.24,-1.62,2.24
10.45220100879669,2,3,3,2,-9.82,1.59,-0.91,-0.58,-2.16,3.24
10.46220099925995,2,3,3,2,-9.94,1.99,-0.84,-1.37,-2.72,4.31
10.47220098972321,2,3,3,2,-10.34,2.08,-0.79,-2.88,-2.89,6.34
10.48220098018646,2,3,3,2,-10.55,2.19,-0.8,-4.24,-3.09,9.16
10.49220097064972,2,3,3,2,-9.52,4.56,-2.13,-4.18,-3.97,11.35
10.50220096111298,2,3,3,2,-10.17,6.56,-2.22,-5.43,-3.76,12.38
10.51220095157623,2,3,3,2,-9.369999999999999,5.18,0.3,-7.54,-6.69,11.67
10.52220094203949,2,3,3,2,-7.98,3.3,1.18,-12.41,-11.46,7.37
10.53220093250275,2,3,3,2,-8.210000000000001,-1.04,2.08,-13.13,-11.96,3.81
10.542200922966,2,3,3,2,-7.6,-0.15,1.22,-7.46,-11.28,3.12
10.55220091342926,2,3,3,2,-7.75,-0.1,1.43,-3.05,-8.77,3.65
10.56220090389252,2,3,3,2,-8.77,0.71,0.92,0.28,-6.77,5.79
10.57220089435577,2,3,3,2,-8.779999999999999,0.21,1.21,6.02,-5.23,8.06
10.58220088481903,2,3,3,2,-8.19,0.31,0.6,8.5,-5.9,7.24
10.59220087528229,2,3,3,2,-8,0.54,0.37,8.76,-6.95,5.86
10.60220086574554,2,3,3,2,-8.92,1.44,0.49,9.31,-6.64,6.26
10.6122008562088,2,3,3,2,-8.84,1.91,-0.16,8.1,-7.31,7.4
10.62220084667206,2,3,3,2,-9.220000000000001,1.88,0.08,6.03,-8.25,8.44
10.63220107555389,2,3,3,2,-8.800000000000001,1.86,-0.02,4.95,-8.74,9.56
10.64220106601715,2,3,3,2,-8.01,-0.55,-1.19,3.62,-9.029999999999999,9.19
10.65220105648041,2,3,3,2,-8.06,-1.46,-0.43,1.56,-9.68,8.960000000000001
10.66220104694366,2,3,3,2,-8.23,-1.63,0.09,2.07,-9.84,9.039999999999999
10.67220103740692,2,3,3,2,-8.17,-1.12,0.6899999999999999,3.26,-9.4,8.85
10.68220102787018,2,3,3,2,-8.130000000000001,1.32,1.42,5.47,-9.31,8.51
10.69220101833344,2,3,3,2,-7.86,2.51,1.54,8.48,-9.460000000000001,8.210000000000001
10.70220100879669,2,3,3,2,-7.74,3.6,1.33,10.77,-9.41,7.68
10.71220099925995,2,3,3,2,-8.16,3.47,1.41,10.45,-8.34,7.39
10.72220098972321,2,3,3,2,-8.94,2.19,0.77,8.970000000000001,-7,8.1
10.73220098018646,2,3,3,2,-9.24,2,1.15,6.08,-5.67,9.6
10.74220097064972,2,3,3,2,-9.33,1.63,0.38,5.49,-3.87,10.25
10.75220096111298,2,3,3,2,-9.789999999999999,2.49,0.34,5.96,-4.81,9.970000000000001
10.76220095157623,2,3,3,2,-10.36,2.56,1.29,6.12,-6.3,8.640000000000001
10.77220094203949,2,3,3,2,-10.44,1.03,0.09,3.24,-6.48,7.38
10.78220093250275,2,3,3,2,-10.41,-0.22,-0.93,0.5,-4.31,7.4
10.792200922966,2,3,3,2,-10.28,-0.41,-1.23,-0.86,-3.77,7.77
10.80220091342926,2,3,3,2,-10.45,-0.3,-0.97,1.64,-2.71,7.52
10.81220090389252,2,3,3,2,-10.69,0.18,-0.67,3.84,-1.86,6.57
10.82220089435577,2,3,3,2,-11.28,0.75,-0.72,4.68,-1.31,6.3
10.83220088481903,2,3,3,2,-11.97,0.55,-1.71,4.41,-0.71,6.32
10.84220087528229,2,3,3,2,-13.86,-0.61,-2.68,4.49,-0.73,5.98
10.85220086574554,2,3,3,2,-14.54,-0.91,-2.37,4.59,-1.16,5.34
10.8622008562088,2,3,3,2,-14.85,-1.49,-2.14,3.9,-1.17,3.73
10.87220084667206,2,3,3,2,-14.95,-2.65,-2.24,2.73,-0.51,1.87
10.88220107555389,2,3,3,2,-14.56,-5.99,-2.16,2.46,0.31,0.71
10.89220106601715,2,3,3,2,-14.81,-6.85,-2.26,3.18,1.04,0.45
10.90220105648041,2,3,3,2,-15.86,-7.13,-2.57,3.66,0.7,-0.39
10.91220104694366,2,3,3,2,-16.93,-7.1,-2.6,4.57,-0.05,-2.27
10.92220103740692,2,3,3,2,-18.42,-6.29,-1.85,5.22,-1.29,-4.52
10.93220102787018,2,3,3,2,-19.41,-4.86,-1.16,4.99,-2.75,-6.76
10.94220101833344,3,3,3,2,-20.7,-3.53,-0.76,3.52,-4.57,-8.859999999999999
10.95220100879669,3,3,3,2,-22.49,-2.73,0.2,0.61,-5.93,-10.42
10.96220099925995,3,3,3,2,-26.13,-2.21,1.92,-3.94,-5.55,-11.06
10.97220098972321,3,3,3,2,-27.15,-3.19,2.1,-8,-2.13,-11.05
10.98220098018646,3,3,3,2,-27.27,-4.41,2.62,-11.68,1.93,-10.7
10.99220097064972,3,3,3,2,-26.45,-5.37,2.32,-14.01,5.09,-11.53
11.00220096111298,3,3,3,2,-23.03,-3.28,2.54,-14.44,6.66,-12.65
11.01220095157623,3,3,3,2,-22.58,0.21,3.29,-12.19,8.41,-13.23
11.02220094203949,3,3,3,2,-22.42,3.97,4.31,-9.539999999999999,8.57,-14.19
11.03220093250275,3,3,3,2,-22.45,7.4,5.52,-8.1,7.96,-15.14
11.042200922966,3,3,3,2,-17.54,11.56,4.96,-8.039999999999999,7.81,-15.16
11.05320107936859,3,3,3,2,-12.97,9.81,4.09,-9.470000000000001,10.13,-13.8
11.06320106983185,3,3,3,2,-9.01,4.66,3.42,-11.06,16.82,-11.37
11.0732010602951,3,3,3,2,-6.45,-1.57,2.87,-9.58,25.21,-7.18
11.08320105075836,3,3,3,2,-2.99,-1,2.37,-1.48,27.31,-3.39
11.09320104122162,3,3,3,2,0.82,9.58,1.02,9.73,20.55,-3.21
11.10320103168488,3,3,3,2,4.1,21.86,1.61,18.45,14.92,-4.84
11.11320102214813,3,3,3,2,5.21,33.8,4.4,18.73,9.4,-4.65
11.12320101261139,3,3,3,2,1.73,27.33,5.78,10.77,0.29,-4.08
11.13320100307465,3,3,3,2,0.7,7.95,2.79,-10.93,-4.89,-6.76
11.1432009935379,3,3,3,2,0.24,-0.99,0.25,-19,-4.12,-5.06
11.15320098400116,3,3,3,2,0.27,-0.13,0.38,-11.48,-5.87,1
11.16320097446442,3,3,3,2,-0.8,2.78,4.84,-8.32,-7.9,3.7
11.17320096492767,3,3,3,2,-0.42,3.26,3.82,-4.82,-9.43,2.66
11.18320095539093,3,3,3,2,0.4,1.46,1.98,-5.82,-7.63,1.57
11.19320094585419,3,3,3,2,0.88,-0.68,0.17,-6.57,-4.65,1.71
11.20320093631744,3,3,3,2,-0.88,-4.3,-1.6,-4.81,-1.39,2.49
11.2132009267807,3,3,3,2,-1.52,-5.35,-2.34,-2.26,1.62,3.32
11.22320091724396,3,3,3,2,-1.56,-5.25,-2.93,0.33,2.66,3.89
11.23320090770721,3,3,3,2,-1.46,-4.65,-3.34,1.99,2.03,3.71
11.24320089817047,3,3,3,2,0,-3.13,-3.33,1.61,0.06,2.77
11.25320088863373,3,3,3,2,-0.18,-2.5,-2.97,1.27,-2.02,1.9
11.26320087909698,3,3,3,2,0.57,-1.12,-2.63,1.31,-3.57,2.32
11.27320086956024,3,3,3,2,0.26,-1.53,-2,1.71,-5.08,0.82
11.2832008600235,3,3,3,2,-0.47,-0.7,-1.02,2.85,-5.54,0.63
11.29320085048676,3,3,3,2,-0.31,-0.23,-0.4,3.65,-5.2,0.6899999999999999
11.30320107936859,3,3,3,2,0,0.72,0.11,4.22,-4.71,0.71
11.31320106983185,3,3,3,2,0.24,1.03,0.71,3.74,-3.83,0.53
11.3232010602951,3,3,3,1,0.7,2.34,1.83,3.06,-2.84,0.67
11.33320105075836,3,3,3,1,0.6899999999999999,3.39,2.1,2.44,-1.69,1.02
11.34320104122162,3,3,3,1,0.47,4.46,2.39,0.87,-0.6,1.39
11.35320103168488,3,3,3,1,0.03,5.55,2.65,-1.12,0.34,1.64
11.36320102214813,3,3,3,1,-0.86,7.19,3.58,-2.67,0.95,1.79
11.37320101261139,3,3,3,1,-1.22,8.66,3.42,-3.39,0.4,1.74
11.38320100307465,3,3,3,1,-1.7,9.44,2.41,-3.96,-1.37,1.83
11.3932009935379,3,3,3,1,-1.75,9.9,0.64,-5.93,-4.11,2.52
11.40320098400116,3,3,3,1,-3.01,11.79,13.8,-3.9,-8.039999999999999,2.69
11.41320097446442,3,3,3,1,-4.33,12.51,3.6,14.97,-14.99,1.1
11.42320096492767,3,3,3,1,-10.32,-1.96,-7.96,12.18,-2.65,0.48
11.43320095539093,3,3,3,1,-24.36,-17.17,-7.66,3.15,1.45,0.6899999999999999
11.44320094585419,3,3,3,1,-37.74,0.71,-8.06,18.07,-16.16,3.11
11.45320093631744,3,3,3,1,-29.38,17.66,-3.7,25.62,-12.62,16.9
11.4632009267807,3,3,3,1,-28.41,5.21,-8.02,12.69,6.59,10.67
11.47320091724396,3,3,3,1,-17,-5.13,0.26,1.95,3.38,3.32
11.48320090770721,3,3,3,1,-17.93,-0.73,-0.75,-1.95,2.4,4.53
11.49320089817047,3,3,3,1,-27.61,-4.74,1.93,-3.42,0.13,1.68
11.50320088863373,3,3,3,1,-35.76,-8.68,0,-6.92,-2.04,0.91
11.51320087909698,3,3,3,1,-31.2,-11.88,-2.24,-13.53,1.33,3.61
11.52320086956024,3,3,3,1,-12.33,-17.78,-3.23,-16.23,3.38,0.5
11.5332008600235,3,3,3,1,-11.95,-15.59,-3.32,-12.64,4.56,-4.83
11.54320085048676,3,3,3,1,-15.65,-8.76,-3.48,-4.23,6.26,-5.64
11.55320107936859,3,3,3,1,-18.24,-1.67,-3.17,0.6899999999999999,7.37,-5.87
11.56320106983185,3,3,3,1,-18.6,5.4,-0.42,1.28,6.38,-8.59
11.5732010602951,3,3,3,1,-18.8,5.93,0.74,-0.8100000000000001,5.73,-10.62
11.58320105075836,3,3,3,1,-17.51,3.13,0.99,-6.09,6.49,-10.04
11.59320104122162,3,3,3,1,-13.8,-0.23,1,-10.28,7.71,-8.77
11.60320103168488,3,3,3,1,-9.34,-2.29,0.46,-10.94,8.83,-8.93
11.61320102214813,3,3,3,1,-8.18,-2.89,0.22,-9.17,9.31,-7.72
11.62320101261139,3,3,3,1,-6.86,-2.83,0.25,-6.79,9.029999999999999,-5.55
11.63320100307465,3,3,3,1,-6.12,-2.07,-0.43,-3.55,8.710000000000001,-5.09
11.6432009935379,3,3,3,1,-6.44,-1.5,-0.71,-0.82,8.119999999999999,-5.05
11.65320098400116,3,3,3,1,-6.8,-0.54,-0.88,1.15,7.45,-5.47
11.66320097446442,3,3,3,1,-7,0.58,-1.21,2.81,6.27,-6.01
11.67320096492767,3,3,3,1,-7.09,0.7,-1.23,3.36,5.42,-5.98
11.68320095539093,3,3,3,1,-6.89,0.99,-1.46,2.77,5.09,-5.15
11.69320094585419,3,3,3,1,-6.65,1.25,-1.78,2.3,4.97,-4.15
11.70320093631744,3,3,3,1,-6.71,1.11,-1.75,2.03,5.12,-3.84
11.7132009267807,3,3,3,1,-6.99,2.17,-2.39,2.33,5.2,-3.54
11.72320091724396,3,3,3,2,-6.88,2.63,-2.54,2.85,5.11,-3.16
11.73320090770721,3,3,3,2,-7.14,3.25,-2.59,2.84,4.88,-3.47
11.74320089817047,3,3,3,2,-7.93,3.26,-2.14,2.03,4.53,-3.88
11.75320088863373,3,3,3,2,-9.960000000000001,4.85,0.67,0.76,3.76,-3.74
11.76320087909698,3,3,3,2,-11.12,5.24,2.02,-0.72,2.95,-2.94
11.77320086956024,3,3,3,2,-11.82,4.77,2.65,-4.99,2.61,-2.71
11.7832008600235,3,3,3,2,-11.8,3.97,3.09,-9.81,2.42,-3.21
11.79320085048676,3,3,3,2,-10.86,1.86,2.29,-12.66,2.78,-3.86
11.80320107936859,3,3,3,2,-10.18,0.98,1.86,-13.45,3.59,-3.89
11.81320106983185,3,3,3,2,-9.76,0.19,1.18,-12.8,4.3,-2.83
11.8232010602951,3,3,3,3,-9.609999999999999,-0.49,0.39,-10.43,4.35,-1.4
11.83320105075836,3,3,3,3,-10.02,-1.77,-0.86,-7.23,3.77,-0.28
11.84320104122162,3,3,3,3,-10.28,-1.98,-1.47,-3.87,3.02,0.24
11.85320103168488,3,3,3,3,-10.24,-1.88,-1.81,-0.39,2.22,0.31
11.86320102214813,3,3,3,3,-10,-1.65,-1.91,2.84,1.38,0.07000000000000001
11.87320101261139,3,3,3,3,-9.58,-0.88,-2.1,5.57,0.91,-0.08
11.88320100307465,3,3,3,3,-9.289999999999999,-0.18,-2.1,7.27,0.45,0.01
11.8932009935379,3,3,3,3,-8.98,0.59,-2.23,8.300000000000001,-0.16,0.01
11.90320098400116,3,3,3,3,-8.85,1.13,-2.14,8.44,-0.6899999999999999,-0.4
11.91320097446442,3,3,3,3,-8.84,1.52,-1.95,7.15,-0.96,-0.8
11.92320096492767,3,3,3,3,-9.029999999999999,1.35,-1.72,4.92,-1.08,-0.97
11.93320095539093,3,3,3,3,-9.19,0.93,-1.44,2.21,-0.98,-0.91
11.94320094585419,3,3,3,3,-9.23,0.35,-1.5,-0.4,-0.73,-0.67
11.95320093631744,3,3,3,3,-9.34,-0.89,-1.36,-2.34,-0.48,-0.32
11.9632009267807,3,3,3,3,-9.529999999999999,-0.84,-1.36,-3.51,-0.34,-0.17
11.97320091724396,3,3,3,3,-9.76,-0.79,-1.23,-3.11,-0.44,-0.02
11.98320090770721,3,3,3,3,-9.9,-0.83,-1.23,-2.49,-0.7,0.05
11.99320089817047,3,3,3,3,-9.94,-1.13,-1.12,-2.06,-0.77,-0.11
12.00320088863373,3,3,3,3,-10,-0.86,-0.91,-0.52,-0.93,-0.23
12.01320087909698,3,3,3,3,-10.16,-0.47,-0.91,0.93,-0.88,-0.23
12.02320086956024,3,3,3,3,-10.02,-0.26,-0.8100000000000001,1.94,-0.6899999999999999,0.05
12.0332008600235,3,3,3,3,-9.960000000000001,0.61,-0.87,2.83,-0.7,0.02
12.04320085048676,3,3,3,3,-9.800000000000001,0.9399999999999999,-0.92,3.56,-0.62,0.01
12.05320107936859,3,3,3,3,-9.800000000000001,1.04,-0.9,3.32,-0.46,-0.2
12.06320106983185,3,3,3,3,-9.6,1.03,-1,2.65,-0.4,-0.15
12.0732010602951,3,3,3,3,-9.48,0.92,-1.22,2.1,-0.39,-0.22
12.08420097827911,3,3,3,3,-9.449999999999999,0.78,-1.21,1.69,-0.33,-0.11
12.09420096874237,3,3,3,3,-9.43,0.71,-1.48,1.14,-0.31,0.06
12.10420095920563,3,3,3,3,-9.44,0.06,-1.53,0.12,-0.18,0.27
12.11420094966888,3,3,3,3,-9.109999999999999,0.45,-1.65,0.34,-0.14,0.34
12.12420094013214,3,3,3,3,-9.1,0.14,-1.53,0.07000000000000001,-0.1,0.07000000000000001
12.1342009305954,3,3,3,3,-9.51,0.31,-1.53,-0.39,-0.23,-0.17
12.14420092105865,3,3,3,3,-9.49,0.2,-1.39,-0.88,-0.49,-0.05
12.15420091152191,3,3,3,3,-9.77,-0.24,-1,-1.35,-0.68,-0.22
12.16420090198517,3,3,3,3,-9.84,-0.67,-0.73,-1.07,-0.68,0.01
12.17420089244843,3,3,3,3,-10.09,-0.96,-0.63,-0.79,-0.61,0.1
12.18420088291168,3,3,3,3,-9.94,-1.01,-0.65,-0.33,-0.48,0.33
12.19420087337494,3,3,3,3,-9.949999999999999,-0.96,-0.92,0.4,-0.21,0.09
12.2042008638382,3,3,3,3,-9.890000000000001,-1.12,-0.95,1.13,-0.06,0.1
12.21420085430145,3,3,3,3,-9.81,-0.96,-1.02,1.83,-0.02,0.26
12.22420084476471,3,3,3,3,-9.69,-0.76,-1.07,2.38,0.12,0.29
12.23420107364655,3,3,3,3,-9.49,-0.13,-1.3,2.66,0.08,0.28
12.2442010641098,3,3,3,3,-9.6,-0.12,-1.44,2.51,-0.05,0.04
12.25420105457306,3,3,3,3,-9.68,-0.06,-1.5,2.22,-0.11,-0.17
12.26420104503632,3,3,3,3,-9.76,-0.09,-1.49,1.96,-0.21,-0.23
12.27420103549957,3,3,3,3,-9.84,-0.63,-1.41,1.52,-0.24,-0.11
12.28420102596283,3,3,3,3,-9.74,-0.54,-1.29,1.18,-0.16,0.08
12.29420101642609,3,3,3,3,-9.68,-0.32,-1.35,1.07,-0.02,0.16
12.30420100688934,3,3,3,3,-9.619999999999999,-0.11,-1.37,0.7,0.05,-0.11
12.3142009973526,3,3,3,3,-9.56,0.07000000000000001,-1.26,0.31,0.09,-0.6
12.32420098781586,3,3,3,3,-9.609999999999999,-0.21,-1.13,-0.2,0.18,-0.88
12.33420097827911,3,3,3,3,-9.619999999999999,-0.33,-1.13,-0.86,0.4,-0.85
12.34420096874237,3,3,3,3,-9.619999999999999,-0.32,-1.22,-0.96,0.5600000000000001,-0.57
12.35420095920563,3,3,3,3,-9.57,-0.05,-1.12,-0.66,0.45,-0.37
12.36420094966888,3,3,3,3,-9.699999999999999,-0.25,-0.95,-0.46,0.23,-0.3
12.37420094013214,3,3,3,3,-9.73,-0.35,-0.96,-0.02,0.03,-0.15
12.3842009305954,3,3,3,3,-9.800000000000001,-0.43,-0.99,0.44,-0.07000000000000001,0.01
12.39420092105865,3,3,3,3,-9.69,0.04,-1.04,1.2,-0.13,0.26
12.40420091152191,3,3,3,3,-9.6,0.07000000000000001,-0.99,1.63,-0.18,0.26
12.41420090198517,3,3,3,3,-9.66,0.13,-1.07,1.89,-0.22,0.14
12.42420089244843,3,3,3,3,-9.74,0.33,-1.18,2,-0.3,0.22
12.43420088291168,3,3,3,3,-9.75,0.25,-1.14,2.02,-0.44,0.25
12.44420087337494,3,3,3,3,-9.65,0.21,-1.36,1.86,-0.48,0.29
12.4542008638382,3,3,3,3,-9.619999999999999,0.16,-1.28,1.55,-0.46,0.31
12.46420085430145,3,3,3,3,-9.66,0.04,-1.21,1.09,-0.33,0.27
12.47420084476471,3,3,3,3,-9.640000000000001,0.03,-1.24,0.7,-0.31,0.21
12.48420107364655,3,3,3,3,-9.710000000000001,-0.04,-1.36,0.46,-0.3,0.15
12.4942010641098,3,3,3,3,-9.789999999999999,-0.26,-1.39,0,-0.29,0.04
12.50420105457306,3,3,3,3,-9.779999999999999,-0.28,-1.37,-0.27,-0.12,0.12
12.51420104503632,3,3,3,3,-9.66,-0.18,-1.43,-0.26,-0.05,0.07000000000000001
12.52420103549957,3,3,3,3,-9.66,-0.34,-1.33,-0.32,0.04,-0.05
12.53420102596283,3,3,3,3,-9.59,-0.26,-1.37,-0.42,0.16,-0.12
12.54420101642609,3,3,3,3,-9.5,-0.21,-1.55,-0.3,0.11,-0.22
12.55420100688934,3,3,3,3,-9.5,-0.4,-1.38,-0.24,0.19,-0.31
12.5642009973526,3,3,3,3,-9.529999999999999,-0.24,-1.38,-0.22,0.06,-0.34
12.57420098781586,3,3,3,3,-9.66,-0.17,-1.35,-0.05,-0.08,-0.42
12.58420097827911,3,3,3,3,-9.73,-0.1,-1.3,-0.01,-0.21,-0.48
12.59420096874237,3,3,3,3,-9.82,0.06,-1.32,-0.04,-0.28,-0.47
12.60420095920563,3,3,3,3,-9.869999999999999,-0.02,-1.24,-0.1,-0.33,-0.44
12.61420094966888,3,3,3,3,-9.82,-0.13,-1.09,-0.29,-0.27,-0.42
12.62420094013214,3,3,3,3,-9.68,-0.09,-1.12,-0.27,-0.36,-0.4
12.6342009305954,3,3,3,3,-9.710000000000001,-0.09,-1.12,-0.06,-0.37,-0.5
12.64420092105865,3,3,3,3,-9.75,-0.17,-1.1,0.19,-0.57,-0.59
12.65420091152191,3,3,3,3,-9.74,-0.16,-0.98,0.4,-0.8,-0.58
12.66420090198517,3,3,3,3,-9.69,-0.1,-0.73,0.83,-1.04,-0.51
12.67420089244843,3,3,3,3,-9.6,0,-0.58,1.04,-1.3,-0.49
12.68420088291168,3,3,3,3,-9.59,0.11,-0.49,1.34,-1.61,-0.44
12.69420087337494,3,3,3,3,-9.5,0.31,-0.53,1.74,-1.86,-0.43
12.7042008638382,3,3,3,3,-9.380000000000001,0.74,-0.5,2.09,-2.2,-0.37
12.71420085430145,3,3,3,3,-9.539999999999999,0.96,-0.34,2,-2.27,-0.33
12.72420084476471,3,3,3,3,-9.67,0.68,-0.25,1.43,-2.09,0.05
12.73420107364655,3,3,3,3,-9.529999999999999,0.71,-0.29,0.5600000000000001,-2.23,0.7
12.7442010641098,3,3,3,3,-9.32,1.14,-0.03,0.2,-2.49,0.95
12.75420105457306,3,3,3,3,-9.210000000000001,1.58,0.12,0.41,-2.71,1.1
12.76420104503632,3,3,3,3,-9.18,2.03,0.4,0.74,-2.95,1.15
12.77420103549957,3,3,3,3,-9.220000000000001,2.42,0.6,0.65,-3.73,1.55
12.78420102596283,3,3,3,3,-9.029999999999999,3.34,0.93,0.65,-3.73,1.55
12.79420101642609,3,3,3,3,-8.93,3.83,1.01,0.7,-4.29,1.85
12.80420100688934,3,3,3,3,-8.92,4.49,1,1.13,-4.88,2.28
12.8142009973526,3,3,3,3,-8.970000000000001,5.1,0.71,1.31,-5.51,3.03
12.82420098781586,3,3,3,3,-9.42,4.25,1.62,0.11,-6.45,5.41
12.83420097827911,3,3,3,3,-9.279999999999999,3.59,1.98,0.11,-6.45,5.41
12.84420096874237,3,3,3,3,-8.66,2.71,1.66,3.28,-7.23,6.98
12.85420095920563,3,3,3,3,-8.23,2.46,1.22,3.94,-8.67,7.52
12.86420094966888,3,3,3,3,-8.699999999999999,2.27,1.28,5.36,-8.630000000000001,8.390000000000001
12.87420094013214,3,3,3,3,-8.529999999999999,2.22,1.02,5.71,-8.779999999999999,8.48
12.8842009305954,3,3,3,3,-8.369999999999999,2.64,0.68,5.71,-8.779999999999999,8.48
12.89420092105865,3,3,3,3,-8.66,2.1,0.61,5.55,-8.81,7.94
12.90420091152191,3,3,3,3,-8.970000000000001,2.72,-0.97,4.45,-9.19,8.960000000000001
12.91420090198517,3,3,3,3,-9.02,1.56,0.12,3.53,-10.4,10.17
12.92420089244843,3,3,3,3,-8.4,-0.45,1.2,3.62,-9.210000000000001,10.93
12.93420088291168,3,3,3,3,-8.1,-0.53,0.7,3.41,-6.02,10.81
12.94420087337494,3,3,3,3,-8,1.01,0.48,4.57,-5.31,10.67
12.9542008638382,3,3,3,3,-8.380000000000001,2.11,0.79,7.63,-5.21,10.92
12.96420085430145,3,3,3,3,-8.800000000000001,1.58,0.98,7.36,-5.47,10.84
12.97420084476471,3,3,3,3,-8.789999999999999,0.77,0.73,4.55,-5.7,10.8
12.98420107364655,3,3,3,3,-9.359999999999999,2.47,1.28,3.46,-6.1,10.64
12.9942010641098,3,3,3,3,-9.42,4.31,1.82,4.22,-7.57,9.57
13.00420105457306,3,3,3,3,-9.619999999999999,4.9,2.29,3.32,-9,8.1
13.01420104503632,3,3,3,3,-9.18,2.82,2.69,-0.21,-7.35,8.789999999999999
13.02420103549957,3,3,3,3,-11.2,-1.39,-1.98,-7.4,-3.2,11.63
13.03420102596283,3,3,3,3,-11.16,-3.48,-2.07,-9.59,-4.14,13.71
13.04420101642609,3,3,3,3,-11.07,-5.38,-1.51,-5.22,-3.4,12.87
13.05420100688934,3,3,3,3,-10.66,-7.34,-1.98,-0.53,-1.19,10.14
13.0642009973526,3,3,3,3,-10.32,-6.94,-3.58,3.41,0.7,7.82
13.07420098781586,3,3,3,3,-10.56,-5.22,-3.68,6.45,1.06,5.2
13.08420097827911,3,3,3,3,-11.65,-3.03,-3.33,8.720000000000001,-0.49,1.77
13.09420096874237,3,3,3,3,-12.89,-1.95,-3.18,8.76,-3.02,-1.39
13.10520088672638,3,3,3,3,-15.16,-2.05,-2.11,7.86,-3.42,-3.79
13.11520087718964,3,3,3,3,-15.99,-3.9,-2.79,4.92,-3.26,-4.89
13.12520086765289,3,3,3,3,-16.71,-5.23,-2.31,3.68,-3.47,-4.63
13.13520085811615,3,3,3,3,-17.62,-5.88,-1.87,3.22,-3.85,-4.81
13.14520084857941,3,3,3,3,-20.53,-7.48,-2.36,1.83,-3.46,-5.95
13.15520107746124,3,3,3,3,-22.44,-7.56,-2.56,0.95,-2.93,-7.55
13.1652010679245,3,3,3,3,-24.33,-6.88,-1.71,-0.62,-2.2,-8.869999999999999
13.17520105838776,3,3,3,3,-25.7,-5.47,-0.5,-3.25,-0.5,-9.460000000000001
13.18520104885101,3,3,3,3,-26.8,-1.32,2.2,-7.51,2.01,-9.07
13.19520103931427,3,3,3,3,-27.74,-0.87,2.76,-12.25,4.41,-8.539999999999999
13.20520102977753,3,3,3,3,-28.42,-1.77,2.94,-14.69,5.82,-9.16
13.21520102024078,3,3,3,3,-28.31,-3.08,3.15,-13.6,7.28,-10.57
13.22520101070404,3,3,3,3,-25.85,-2.63,4.49,-10.46,8.9,-12.08
13.2352010011673,3,3,3,3,-23.22,0.29,5.08,-7.63,9.49,-12.64
13.24520099163055,3,3,3,3,-20.52,3.29,5.68,-5.49,9.1,-12.38
13.25520098209381,3,3,3,3,-17.65,5.72,5.58,-4.49,7.87,-11.6
13.26520097255707,3,3,3,3,-11.81,8.869999999999999,3.34,-5.98,6.96,-10.84
13.27520096302032,3,3,3,3,-8.27,7.51,2.28,-9.41,8.67,-9.789999999999999
13.28520095348358,3,3,3,3,-5.22,3,2.15,-11.54,14.94,-7.6
13.29520094394684,3,3,3,3,-3.82,-1.5,2.7,-7.08,21.11,-3.56
13.3052009344101,3,3,3,3,-1.53,4.7,2.07,1.22,18.98,-1.18
13.31520092487335,3,3,3,3,2.19,14.94,3.62,4.45,13.84,-0.77
13.32520091533661,3,3,3,3,3.84,24.16,3.74,1.64,13.93,0.13
13.33520090579987,3,3,3,3,2.49,31.11,2.66,-0.88,8.210000000000001,-2.82
13.34520089626312,3,3,3,3,1.75,14.41,2.24,-12.33,1.34,-7.92
13.35520088672638,3,3,3,3,-0.47,-0.63,1.74,-16.1,-2.05,-8.59
13.36520087718964,3,3,3,3,-1.99,-4.69,2.41,-7.3,-6.88,-2.98
13.37520086765289,3,3,3,2,-1.9,1.92,2.15,-6.54,-6.59,1.55
13.38520085811615,3,3,3,2,0.23,5.19,3.56,-6.74,-3.45,2.12
13.39520084857941,3,3,3,2,1.38,2.67,1.93,-8.65,-0.91,1.93
13.40520107746124,3,3,3,2,2.04,-0.51,1.72,-9.35,1.33,0.84
13.4152010679245,3,3,3,2,1.07,-2.79,0.89,-6.98,4.43,0.89
13.42520105838776,3,3,3,2,-1.49,-5.98,-1.78,-4.36,5.52,1.63
13.43520104885101,3,3,3,2,-1.44,-6.14,-2.67,-1.33,5.02,2.49
13.44520103931427,3,3,3,2,-1.06,-5.77,-3.3,1.75,3.52,2.91
13.45520102977753,3,3,3,2,-0.57,-4.91,-3.59,4.01,0.48,2.7
13.46520102024078,3,3,3,2,0.35,-2.44,-3.33,6.26,-3.32,2.46
13.47520101070404,3,3,3,2,0.35,-1.25,-2.67,8.83,-5.88,2.17
13.4852010011673,3,3,3,2,0,0.02,-2.2,9.85,-6.99,1.46
13.49520099163055,3,3,3,2,-0.42,0.27,-1.71,9.44,-7.11,0.67
13.50520098209381,3,3,3,2,-0.42,2.95,-0.72,7.09,-6.31,0.34
13.51520097255707,3,3,3,2,0.47,2.84,0.04,3.53,-5,-0.46
13.52520096302032,3,3,3,2,-0.1,2.52,0.57,0.8100000000000001,-3.1,0.57
13.53520095348358,3,3,3,2,0.08,3.3,0.92,-1.97,-1.77,1.52
13.54520094394684,3,3,3,2,0.06,3.61,1.55,-4.53,-0.6,1.23
13.5552009344101,3,3,3,2,-0.42,3.83,2.1,-6.55,-0.27,1.65
13.56520092487335,3,3,3,2,-0.53,4.06,2.81,-8.25,-0.62,1.46
13.57520091533661,3,3,3,2,-0.6899999999999999,4.48,3.07,-9.23,-0.84,1.25
13.58520090579987,3,3,3,2,-0.77,6.22,3.22,-10.23,-0.82,1.4
13.59520089626312,3,3,3,2,-0.77,6.73,2.3,-11.91,-0.53,1.97
13.60520088672638,3,3,3,2,-2.47,6.32,1.08,-10.21,-3.76,3.3
13.61520087718964,3,3,3,2,-5.72,13.32,10.83,8.69,-17.05,5.92
13.62520086765289,3,3,3,2,-9.369999999999999,13.27,12.14,-8.08,-5.72,2.99
13.63520085811615,3,3,3,2,-17.04,-23.07,-16.26,-22.08,1.12,-3.05
13.64520084857941,3,3,3,2,-36.92,-39.89,3.1,-1.23,-16.1,-2.36
13.65520107746124,3,3,3,2,-39.19,-22.56,3.97,22.27,-8.1,16.7
13.6652010679245,3,3,3,2,-13.9,7,-8.73,17.99,10.57,0.49
13.67520105838776,3,3,3,2,-6.56,-5.46,-8.51,16.24,0.97,-1.05
13.68520104885101,3,3,3,2,-2.57,-2.37,1.06,24.25,-8.42,8.890000000000001
13.69520103931427,3,3,3,2,-14.38,10.31,-4.73,26.51,-6.1,8.140000000000001
13.70520102977753,3,3,3,2,-39.19,32.44,1.36,13.34,-9.609999999999999,8.380000000000001
13.71520102024078,3,3,3,2,-38.48,17.98,1.97,-25.43,-0.74,7.63
13.72520101070404,3,3,3,2,-20.59,-8.050000000000001,-1.45,-38.28,0.98,-7.38
13.7352010011673,3,3,3,2,-2.73,-33.58,-3.13,-31.08,-1.35,-1.94
13.74520099163055,3,3,3,2,-6.23,-26.28,-2.64,-12.8,0.98,5.34
13.75520098209381,3,3,3,2,-10.52,-17.01,-2.81,-1.32,6.74,2.68
13.76520097255707,3,3,3,2,-13.22,-11.7,-4.16,2.8,9.31,-2.54
13.77520096302032,3,3,3,2,-14.71,-4.35,-5.05,5.34,8.66,-7.66
13.78520095348358,3,3,3,2,-13.54,0.62,-4.63,7.38,6.86,-14.6
13.79520094394684,3,3,3,2,-12.99,4.66,-3.57,8.49,6.22,-18.16
13.8052009344101,3,3,3,2,-14.05,7.29,-2.16,4.98,6.41,-13.87
13.81520092487335,3,3,3,2,-13.05,7.93,0.17,-2.45,6.37,-7.02
13.82520091533661,3,3,3,2,-10.46,5.61,0.92,-10.16,6.54,-5.19
13.83520090579987,3,3,3,2,-8.9,3.44,1.37,-14.4,6.97,-7.19
13.84520089626312,3,3,3,2,-8.130000000000001,1.23,1.69,-14.87,7.17,-7.77
13.85520088672638,3,3,3,2,-7.6,-1.6,2.27,-12.93,7.4,-6.25
13.86520087718964,3,3,3,2,-6.93,-2.28,2.46,-10.38,7.31,-4.91
13.87520086765289,3,3,3,2,-6.46,-2.8,2.54,-6.61,7.04,-4.27
13.88520085811615,3,3,3,2,-6.21,-3,2.63,-2.76,6.41,-3.83
13.89520084857941,3,3,3,2,-6.45,-2.37,1.61,1.49,5.73,-3.7
13.90520107746124,3,3,3,2,-6.68,-1.57,0.98,5.36,5.04,-3.72
13.9152010679245,3,3,3,2,-6.91,-0.97,0.23,8.07,4.25,-3.79
13.92520105838776,3,3,3,2,-6.96,-0.23,-0.33,9.619999999999999,3.37,-3.42
13.93520104885101,3,3,3,2,-6.69,1.3,-1.09,9.01,2.65,-3.11
13.94520103931427,3,3,3,2,-6.94,1.6,-1.23,7.53,2.42,-2.82
13.95520102977753,3,3,3,2,-7.47,1.64,-1.3,5.88,2.41,-1.81
13.96520102024078,3,3,3,2,-8.19,1.91,-1.51,3.96,2.5,-0.35
13.97520101070404,3,3,3,2,-9.470000000000001,1.4,-1.33,2.77,2.22,0.29
13.9852010011673,3,3,3,2,-10.13,1.68,-1.1,2.97,1.74,0.57
13.99520099163055,3,3,3,2,-10.85,2.16,-0.74,3.98,0.75,0.45
14.00520098209381,3,3,3,2,-11.85,3.6,-0.04,4.91,-0.33,0.32
14.01520097255707,3,3,3,2,-14.01,4.1,2.48,1.57,-1.05,-0.13
14.02520096302032,3,3,3,2,-13.61,3.25,2.82,-1.54,-1.01,-0.72
14.03520095348358,3,3,3,2,-12.61,1.55,2.99,-2.46,-0.27,-1.21
14.04520094394684,3,3,3,2,-11.3,-0.08,2.25,-1.91,1.02,-1.18
14.0552009344101,3,3,3,2,-8.9,-1.16,-0.14,-0.42,2.06,-0.43
14.06520092487335,3,3,3,2,-8.32,-1.12,-1.15,1.59,2.55,0.18
14.07520091533661,3,3,3,2,-8.57,-0.79,-1.77,3.58,2.63,0.27
14.08520090579987,3,3,3,2,-9.210000000000001,-0.61,-2.16,4.21,1.46,-1.09
14.09520089626312,3,3,3,2,-9.699999999999999,-0.36,-2.32,4.21,1.46,-1.09
14.10520088672638,3,3,3,2,-9.4,-0.44,-1.88,3.77,0.86,-1.51
14.11520087718964,3,3,3,2,-9.07,-0.6,-1.3,3.14,0.36,-1.21
14.12520086765289,3,3,3,2,-8.970000000000001,-0.88,-0.97,2.31,0.36,-0.68
14.13620102405548,3,3,3,2,-9.109999999999999,-1.63,-0.72,2.66,0.36,-0.45
14.14620101451874,3,3,3,2,-9.23,-1.32,-0.68,4.06,0.29,-0.5600000000000001
14.15620100498199,3,3,3,2,-9.470000000000001,-0.84,-0.52,4.91,0.46,-0.57
14.16620099544525,3,3,3,2,-9.720000000000001,-0.19,-0.5,4.91,0.58,-0.23
14.17620098590851,3,3,3,3,-9.640000000000001,1.32,-0.62,4.64,0.78,-0.11
14.18620097637177,3,3,3,3,-9.59,1.61,-0.83,3.73,1.24,-0.11
14.19620096683502,3,3,3,3,-9.51,1.6,-1.19,1.95,1.62,-0.1
14.20620095729828,3,3,3,3,-9.35,1.58,-1.3,0.7,1.56,-0.31
14.21620094776154,3,3,3,3,-9.66,1.2,-1.25,-0.19,1.32,-0.51
14.22620093822479,3,3,3,3,-9.869999999999999,1.15,-1.17,-0.49,0.7,-0.51
14.23620092868805,3,3,3,3,-10.1,0.96,-0.86,-0.8,0.08,-0.46
14.24620091915131,3,3,3,3,-10.21,0.72,-0.74,-1.13,-0.13,-0.43
14.25620090961456,3,3,3,3,-10.21,0.03,-0.47,-0.95,-0.19,-0.43
14.26620090007782,3,3,3,3,-10.02,-0.13,-0.46,-0.29,-0.27,-0.53
14.27620089054108,3,3,3,3,-9.83,-0.43,-0.38,0.55,-0.15,-0.65
14.28620088100433,3,3,3,3,-9.76,-0.59,-0.34,2.25,0.54,-0.5600000000000001
14.29620087146759,3,3,3,3,-9.56,1.06,-0.5,1.76,0.62,-1.07
14.30620086193085,3,3,3,3,-9.16,0.18,-0.33,1.76,0.62,-1.07
14.3162008523941,3,3,3,3,-9.77,0.32,-0.57,2.01,0.74,-0.55
14.32620084285736,3,3,3,3,-9.35,0.68,-0.74,1.72,0.59,-0.21
14.3362010717392,3,3,3,3,-9.75,0.35,-0.86,1.22,0.52,0.32
14.34620106220245,3,3,3,3,-9.550000000000001,-0.18,-0.74,1.45,0.44,0.28
14.35620105266571,3,3,3,3,-9.640000000000001,-0.33,-0.83,1.42,0.29,0.26
14.36620104312897,3,3,3,3,-9.67,-0.24,-0.91,1.42,0.29,0.26
14.37620103359222,3,3,3,3,-9.57,-0.2,-0.93,1.42,0.15,-0.13
14.38620102405548,3,3,3,3,-9.59,-0.02,-1.14,0.98,0.06,-0.29
14.39620101451874,3,3,3,3,-9.640000000000001,0.21,-1.4,0.13,0.1,-0.2
14.40620100498199,3,3,3,3,-9.77,-0.21,-1.2,-0.33,0.12,-0.22
14.41620099544525,3,3,3,3,-9.800000000000001,-0.36,-1.09,-0.33,0.12,-0.22
14.42620098590851,3,3,3,3,-9.77,-0.49,-1.16,-0.58,0.3,-0.22
14.43620097637177,3,3,3,3,-9.77,-0.64,-1.2,-0.13,0.55,-0.17
14.44620096683502,3,3,3,3,-9.74,-0.75,-1.29,0.39,0.45,-0.5600000000000001
14.45620095729828,3,3,3,3,-9.789999999999999,-0.38,-1.23,0.5600000000000001,0.41,-0.77
14.46620094776154,3,3,3,3,-9.98,-0.27,-1.15,0.5600000000000001,0.41,-0.77
14.47620093822479,3,3,3,3,-10.09,-0.13,-1.06,0.48,0.36,-0.54
14.48620092868805,3,3,3,3,-9.970000000000001,-0.14,-0.97,-0.11,0.43,-0.52
14.49620091915131,3,3,3,3,-9.73,-0.42,-0.96,-0.4,0.38,-0.47
14.50620090961456,3,3,3,3,-9.69,-0.31,-0.84,-0.47,0.15,-0.65
14.51620090007782,3,3,3,3,-9.470000000000001,-0.15,-0.85,-0.47,0.15,-0.65
14.52620089054108,3,3,3,3,-9.42,-0.31,-0.84,-0.48,0.04,-0.86
14.53620088100433,3,3,3,3,-9.529999999999999,-0.79,-1.12,0.44,0.15,-0.46
14.54620087146759,3,3,3,3,-9.460000000000001,-0.5,-1.28,0.91,0.02,-0.42
14.55620086193085,3,3,3,3,-9.51,-0.33,-1.2,0.99,-0.16,-0.44
14.5662008523941,3,3,3,3,-9.65,-0.22,-1.25,0.99,-0.16,-0.44
14.57620084285736,3,3,3,3,-9.789999999999999,-0.33,-1.32,0.91,-0.3,-0.34
14.5862010717392,3,3,3,3,-9.81,-0.16,-1.27,0.23,-0.26,-0.18
14.59620106220245,3,3,3,3,-9.67,-0.31,-1.3,0.15,-0.11,-0.2
14.60620105266571,3,3,3,3,-9.69,-0.43,-1.27,0.31,-0.08,-0.26
14.61620104312897,3,3,3,3,-9.720000000000001,-0.49,-1.25,0.31,-0.08,-0.26
14.62620103359222,3,3,3,3,-9.82,-0.41,-1.32,0.32,-0.06,-0.29
14.63620102405548,3,3,3,3,-9.85,-0.46,-1.25,0.2,-0.03,-0.17
14.64620101451874,3,3,3,3,-9.77,-0.51,-1.27,0.07000000000000001,0.07000000000000001,-0.32
14.65620100498199,3,3,3,3,-9.66,-0.42,-1.35,-0.14,0.12,-0.37
14.66620099544525,3,3,3,3,-9.699999999999999,-0.45,-1.29,-0.14,0.12,-0.37
14.67620098590851,3,3,3,3,-9.710000000000001,-0.41,-1.25,-0.35,0.19,-0.42
14.68620097637177,3,3,3,3,-9.77,-0.32,-1.22,-0.36,0.23,-0.44
14.69620096683502,3,3,3,3,-9.82,-0.4,-1.19,-0.72,0.09,-0.46
14.70620095729828,3,3,3,3,-9.779999999999999,-0.4,-1.17,-0.73,0.05,-0.48
14.71620094776154,3,3,3,3,-9.77,-0.37,-1.18,-0.73,0.05,-0.48
14.72620093822479,3,3,3,3,-9.76,-0.48,-1.14,-0.76,0.15,-0.45
14.73620092868805,3,3,3,3,-9.74,-0.53,-1.06,-0.67,0.15,-0.33
14.74620091915131,3,3,3,3,-9.68,-0.55,-1.05,-0.53,0.1,-0.41
14.75620090961456,3,3,3,3,-9.57,-0.46,-1.06,-0.39,-0.07000000000000001,-0.52
14.76620090007782,3,3,3,3,-9.49,-0.4,-1.04,-0.39,-0.07000000000000001,-0.52
14.77620089054108,3,3,3,3,-9.630000000000001,-0.44,-1.13,-0.3,-0.11,-0.49
14.78620088100433,3,3,3,3,-9.779999999999999,-0.47,-1.12,-0.3,-0.15,-0.06
14.79620087146759,3,3,3,3,-9.859999999999999,-0.47,-1.21,-0.35,-0.14,0.12
14.80620086193085,3,3,3,3,-9.859999999999999,-0.45,-1.11,-0.26,-0.16,0.22
14.8162008523941,3,3,3,3,-9.880000000000001,-0.42,-1.11,-0.26,-0.16,0.22
14.82620084285736,3,3,3,3,-9.92,-0.47,-1.07,-0.34,-0.21,0.2
14.8362010717392,3,3,3,3,-9.9,-0.55,-1.01,-0.02,-0.37,0.03
14.84620106220245,3,3,3,3,-9.789999999999999,-0.38,-0.84,0.04,-0.49,-0.01
14.85620105266571,3,3,3,3,-9.699999999999999,-0.21,-0.66,-0.09,-0.54,0.07000000000000001
14.86620104312897,3,3,3,3,-9.69,-0.12,-0.77,-0.09,-0.54,0.07000000000000001
14.87620103359222,3,3,3,3,-9.789999999999999,0.02,-0.88,-0.41,-0.64,0.46
14.88620102405548,3,3,3,3,-9.9,0.28,-0.67,-0.77,-1.15,1.24
14.89620101451874,3,3,3,3,-9.65,0.39,-0.54,-0.5,-1.57,0.61
14.90620100498199,3,3,3,3,-9.48,0.73,-0.6899999999999999,-0.41,-1.94,0.37
14.91620099544525,3,3,3,3,-9.789999999999999,0.73,-0.59,-0.41,-1.94,0.37
14.92620098590851,3,3,3,3,-10.15,0.35,-0.47,-0.48,-2.16,0.78
14.93620097637177,3,3,3,3,-10.09,-0.2,-0.46,-0.76,-1.78,1.44
14.94620096683502,3,3,3,3,-9.76,-0.62,-0.74,-0.29,-1.6,1.35
14.95620095729828,3,3,3,3,-9.59,-0.58,-1.01,0.62,-1.63,1.27
14.96620094776154,3,3,3,3,-9.789999999999999,-0.52,-0.76,0.62,-1.63,1.27
14.97620093822479,3,3,3,3,-9.77,-0.34,-0.71,1.33,-1.91,1.07
14.98620092868805,3,3,3,3,-9.710000000000001,-0.14,-0.5600000000000001,2.19,-2.38,0.61
14.99620091915131,3,3,3,3,-9.6,0.04,-0.49,2.46,-2.67,0.47
15.00620090961456,3,3,3,3,-9.449999999999999,0.82,-0.22,2.68,-2.99,0.6
15.01620090007782,3,3,3,3,-9.390000000000001,1.21,-0.07000000000000001,2.68,-2.99,0.6
15.02620089054108,3,3,3,3,-9.25,1.68,0.05,2.85,-3.4,0.85
15.03620088100433,3,3,3,3,-9.119999999999999,2.05,0.25,3.66,-4.18,1.92
15.04620087146759,3,3,3,3,-8.75,2.57,0.74,3.99,-4.67,2.69
15.05620086193085,3,3,3,3,-8.460000000000001,2.76,1.06,4.35,-5,3.52
15.0662008523941,3,3,3,3,-8.26,2.97,1.33,4.35,-5,3.52
15.07620084285736,3,3,3,3,-8.07,3.23,1.62,4.66,-5.45,4.43
15.0862010717392,3,3,3,3,-7.95,3.52,1.64,5.05,-6.44,6.6
15.09620106220245,3,3,3,3,-8.26,3.07,0.98,6.1,-7.94,7.65
15.10620105266571,3,3,3,3,-8.58,2.68,1.01,4.24,-8.800000000000001,8.34
15.11620104312897,3,3,3,3,-8.880000000000001,2.57,0.92,4.24,-8.800000000000001,8.34
15.12620103359222,3,3,3,3,-8.970000000000001,2.78,1.69,3.14,-8.449999999999999,8.23
15.13620102405548,3,3,3,3,-8.92,3.49,1.21,3.42,-7.86,7.39
15.14620101451874,3,3,3,3,-9.16,3.25,1.14,4.88,-8.050000000000001,8.01
15.15720093250275,3,3,3,3,-9.35,2.22,1.52,3.43,-7.36,9.32
15.167200922966,3,3,3,3,-9.220000000000001,1.07,0.11,3.43,-7.36,9.32
15.17720091342926,3,3,3,3,-8.449999999999999,0.7,0.18,0.37,-6.47,10.05
15.18720090389252,3,3,3,3,-7.83,0.7,0.51,2.16,-5.65,10.33
15.19720089435577,3,3,3,3,-7.26,0.54,0.53,4.17,-7.13,10.22
15.20720088481903,3,3,3,3,-6.59,0.8,0.72,6.24,-8.130000000000001,10.68
15.21720087528229,3,3,3,3,-6.9,1.59,0.9,6.24,-8.130000000000001,10.68
15.22720086574554,3,3,3,3,-7.99,2.53,0.83,8.85,-7.69,11.48
15.2372008562088,3,3,3,3,-8.91,2.99,0.04,0.78,-7.7,13.84
15.24720084667206,3,3,3,3,-9.84,1.45,-1.45,-2.06,-9.470000000000001,12.9
15.25720107555389,3,3,3,3,-9.210000000000001,0.19,-1.25,-0.72,-8.869999999999999,11.03
15.26720106601715,3,3,3,3,-9.300000000000001,-0.41,-0.32,-0.72,-8.869999999999999,11.03
15.27720105648041,3,3,3,3,-9.460000000000001,-1.3,-0.7,-1.04,-6.76,9.710000000000001
15.28720104694366,3,3,3,3,-10.54,-2.71,-2.74,-1.36,-1.6,9.17
15.29720103740692,3,3,3,3,-10.66,-2.9,-2.87,-0.74,0.32,8.02
15.30720102787018,3,3,3,3,-10.92,-2.84,-3.15,-0.06,1.3,5.98
15.31720101833344,3,3,3,3,-11.36,-3.5,-3.22,-0.06,1.3,5.98
15.32720100879669,3,3,3,3,-12.45,-5.06,-2.03,0.41,1.41,3.72
15.33720099925995,3,3,3,3,-13.29,-5.8,-1.74,1.68,0.03,-0.53
15.34720098972321,3,3,3,3,-14.58,-6.65,-1.82,2.52,-1.87,-2.91
15.35720098018646,3,3,3,3,-15.66,-7.19,-1.31,4.08,-3.18,-5.81
15.36720097064972,3,3,3,3,-18.92,-6.14,-1.11,4.08,-3.18,-5.81
15.37720096111298,3,3,3,3,-21.08,-5.34,-0.91,5.49,-4.1,-8.48
15.38720095157623,3,3,3,3,-23.25,-4.76,-0.4,2.88,-2.8,-10.24
15.39720094203949,3,3,3,3,-25.47,-4.05,0.49,-1.58,0.16,-9.25
15.40720093250275,3,3,3,3,-28.41,-2.49,2.93,-6.22,3.39,-8.32
15.417200922966,3,3,3,3,-28.94,-2.78,4.63,-6.22,3.39,-8.32
15.42720091342926,3,3,3,3,-28.73,-3.17,6.41,-10.37,5.23,-8.199999999999999
15.43720090389252,3,3,3,3,-27.84,-3.2,7.37,-10.88,6.07,-9.960000000000001
15.44720089435577,3,3,3,3,-25.71,-3.98,7.32,-7.17,6.31,-10.95
15.45720088481903,3,3,3,3,-24.85,-3.03,5.81,-3.02,6.43,-11.74
15.46720087528229,3,3,3,3,-23.64,-0.82,3.52,-3.02,6.43,-11.74
15.47720086574554,3,3,3,3,-20.23,5.45,-0.07000000000000001,-0.67,7.15,-11.51
15.4872008562088,3,3,3,3,-17.09,8.539999999999999,-1.48,-1.22,10.75,-10.25
15.49720084667206,3,3,3,3,-12.65,10.06,-2.26,-3.65,16.1,-9.4
15.50720107555389,3,3,3,3,-7.7,7.88,-2.69,-3.65,22.42,-7.6
15.51720106601715,3,3,3,3,-3.05,1.46,-1.13,-3.65,22.42,-7.6
15.52720105648041,3,3,3,3,-3.29,3.13,-0.13,0.01,24.86,-5.02
15.53720104694366,3,3,3,3,-1.83,7.47,0.43,6.7,8.77,-4.8
15.54720103740692,3,3,3,3,0.9399999999999999,14.69,0.92,7.15,1.65,-4.15
15.55720102787018,3,3,3,3,3.28,23.92,5.69,-2.47,-2.43,-3.59
15.56720101833344,3,3,3,3,1.86,19.96,5.47,-2.47,-2.43,-3.59
15.57720100879669,3,3,3,3,1.37,9.43,3.42,-10.93,-3.78,-4.74
15.58720099925995,3,3,3,3,-0.09,-0.2,1.52,-6.58,-6.58,-2.22
15.59720098972321,3,3,3,3,-2.06,-4.15,2.9,-0.45,-7.38,0.3
15.60720098018646,3,3,3,3,-1.91,-1.16,3.55,3.61,-4.5,1.19
15.61720097064972,3,3,3,3,-1.09,0.63,3.3,3.61,-4.5,1.19
15.62720096111298,3,3,3,3,0.43,1,2.33,4.01,-1.91,0.64
15.63720095157623,3,3,3,3,1.1,-1.31,0.84,6.32,1.43,1.14
15.64720094203949,3,3,3,3,-0.3,-2.32,-0.46,7.9,1.96,2.47
15.65720093250275,3,3,3,3,-0.99,-2.32,-1.31,8.66,1.3,2.89
15.667200922966,3,3,3,3,-0.99,-1.54,-1.7,8.66,1.3,2.89
15.67720091342926,3,3,3,3,-0.14,-0.06,-2.16,7.84,-0.13,2.66
15.68720090389252,3,3,3,3,0.39,0.14,-2.29,3.75,-3.34,1.91
15.69720089435577,3,3,3,3,0.8100000000000001,-0.05,-2.39,2.76,-4.24,1.82
15.70720088481903,3,3,3,3,0.88,-0.31,-2.22,2.8,-4.64,1.64
15.71720087528229,3,3,3,3,0.24,0.04,-1.25,2.8,-4.64,1.64
15.72720086574554,3,3,3,3,-0.27,-0.03,-0.68,2.54,-4.46,1.3
15.7372008562088,3,3,3,3,-0.43,0.41,-0.21,0.37,-2.76,1.04
15.74720084667206,3,3,3,3,-0.29,1.24,0.1,-1.75,-1.82,0.82
15.75720107555389,3,3,3,3,0.05,2.96,0.9399999999999999,-3.66,-1.19,0.82
15.76720106601715,3,3,3,3,0.32,3.44,1,-3.66,-1.19,0.82
15.77720105648041,3,3,3,3,0.15,3.99,1.32,-4.45,-0.73,0.61
15.78720104694366,3,3,3,3,-0.49,5.34,1.58,-6.42,0.08,2.75
15.79720103740692,3,3,3,3,-0.58,6.15,4.21,-7.68,-0.21,3.43
15.80720102787018,3,3,3,3,-0.4,6.98,5.24,-9.59,-0.46,3.58
15.81720101833344,3,3,3,2,-0.23,9.23,4.43,-9.59,-0.46,3.58
15.82720100879669,3,3,3,2,-1.36,8.74,3.34,-12.85,-0.79,4.12
15.83720099925995,3,3,3,2,-6.09,5.36,14.43,17.57,-19.71,5.98
15.84720098972321,3,3,3,2,-2.94,23.25,0.82,13.25,-8.619999999999999,5.67
15.85720098018646,3,3,3,2,-11.28,5.67,0.26,0.36,0.72,4.78
15.86720097064972,3,3,3,2,-19.27,-16.23,-12.68,0.36,0.72,4.78
15.87720096111298,3,3,3,2,-39.19,-13.27,-4.31,10.47,-4.99,4.88
15.88720095157623,3,3,3,2,-29.26,9.25,-3.89,23.58,4.32,3.87
15.89720094203949,3,3,3,2,-14.66,6.97,-5.54,16.05,9.66,-0.36
15.90720093250275,3,3,3,2,-10.27,1.72,-5.72,18.14,-9.75,5.56
15.917200922966,3,3,3,2,-22.32,16.72,6.31,18.14,-9.75,5.56
15.92720091342926,3,3,3,2,-38.9,28.14,8.09,18.07,-11.64,5.77
15.93720090389252,3,3,3,2,-39.19,22.11,4.43,-42.96,2.29,-1.21
15.94720089435577,3,3,3,2,-30.79,0.63,4.38,-44,5.5,-6.8
15.95720088481903,3,3,3,2,-3.99,-33.29,-1.81,-29.1,-1.56,2.86
15.96720087528229,3,3,3,2,-3.82,-31.01,-2.15,-29.1,-1.56,2.86
15.97720086574554,3,3,3,2,-9.449999999999999,-22.37,-1.08,-6.75,-1.21,6.69
15.9872008562088,3,3,3,2,-13.65,-16.13,-2.75,7.25,8.56,-1.97
15.99720084667206,3,3,3,2,-14.6,-9.32,-6.08,9.710000000000001,9.720000000000001,-9.220000000000001
16.00720107555389,3,3,3,2,-12.76,-5.69,-6.6,12.59,9.4,-13.54
16.01720106601715,3,3,3,2,-11.09,-1.71,-6.54,12.59,9.4,-13.54
16.02720105648041,3,3,3,2,-9.710000000000001,2.54,-5.03,16.17,6.75,-14.26
16.03720104694366,3,3,3,2,-9.41,9.039999999999999,-2.25,7.82,4.66,-8.49
16.04720103740692,3,3,3,2,-9.17,8.34,-1.8,-3.08,4.71,-5.15
16.05720102787018,3,3,3,2,-8.890000000000001,5.24,-1.68,-9.76,5.4,-4.24
16.06720101833344,3,3,3,2,-8.27,3.02,-1.55,-9.76,5.4,-4.24
16.07720100879669,3,3,3,2,-7.57,1.23,-1.63,-11.74,6.7,-5.09
16.08720099925995,3,3,3,2,-7.29,1.32,-1.33,-11.43,9.34,-5.17
16.09720098972321,3,3,3,2,-7.11,1.32,-1.19,-10.66,9.359999999999999,-4.87
16.10720098018646,3,3,3,2,-6.81,0.72,-0.8100000000000001,-9.56,8.35,-4.98
16.11720097064972,3,3,3,2,-6.2,0.02,1.14,-9.56,8.35,-4.98
16.12720096111298,3,3,3,2,-6.23,0.01,1.87,-8.109999999999999,7.08,-5.17
16.13720095157623,3,3,3,2,-6.48,1.1,2.09,-1.92,4.1,-4.92
16.14720094203949,3,3,3,2,-6.98,2.94,2.54,-1.73,2.36,-4.27
16.15720093250275,3,3,3,2,-9.9,3.85,4.65,-3.89,0.8,-2.59
16.167200922966,3,3,3,2,-11.66,4.33,5.09,-3.89,0.8,-2.59
16.17820107936859,3,3,3,2,-12.65,4.72,5.11,-4.7,-0.27,-0.16
16.18820106983185,3,3,3,2,-12.41,4.74,4.63,-4.14,0.43,3
16.1982010602951,3,3,3,2,-9.82,2.44,2.99,-3.27,0.99,4.22
16.20820105075836,3,3,3,2,-9.300000000000001,1.47,2,-1.7,1.17,5.24
16.21820104122162,3,3,3,2,-9.130000000000001,1.15,0.64,-1.7,1.17,5.24
16.22820103168488,3,3,3,2,-9.16,0.78,-0.59,0.12,0.49,6.15
16.23820102214813,3,3,3,2,-10.13,-0.29,-1.82,2.73,-1.28,5.75
16.24820101261139,3,3,3,2,-10.23,-0.64,-2.44,3.83,-2.04,4.08
16.25820100307465,3,3,3,2,-10.21,-0.8,-2.66,4.34,-1.99,2.73
16.2682009935379,3,3,3,2,-10.33,-1.06,-2.68,4.34,-1.99,2.73
16.27820098400116,3,3,3,3,-10.78,-0.53,-2.72,3.97,-1.03,2.08
16.28820097446442,3,3,3,3,-10.82,-0.16,-2.86,1.42,0.76,0.7
16.29820096492767,3,3,3,3,-10.61,0,-2.89,-0.06,1.01,-0.26
16.30820095539093,3,3,3,3,-10.18,0.25,-2.86,-1.09,0.91,-1.21
16.31820094585419,3,3,3,3,-9.56,0.18,-1.92,-1.09,0.91,-1.21
16.32820093631744,3,3,3,3,-9.619999999999999,0.04,-1.49,-1.84,0.76,-1.73
16.3382009267807,3,3,3,3,-9.789999999999999,-0.03,-1.03,-2.41,0.65,-1.95
16.34820091724396,3,3,3,3,-9.83,-0.09,-0.78,-1.95,0.7,-1.72
16.35820090770721,3,3,3,3,-9.529999999999999,0.22,0,-0.5600000000000001,0.43,-1.35
16.36820089817047,3,3,3,3,-9.119999999999999,0.93,0.3,-0.5600000000000001,0.43,-1.35
16.37820088863373,3,3,3,3,-9.09,1.16,0.62,0.65,0.1,-1.19
16.38820087909698,3,3,3,3,-9.25,1.63,0.77,1.75,-0.48,-0.13
16.39820086956024,3,3,3,3,-9.34,1.56,0.68,1.52,-0.55,0.28
16.4082008600235,3,3,3,3,-9.43,1.85,0.62,1.19,-0.68,0.52
16.41820085048676,3,3,3,3,-9.300000000000001,1.72,0.67,1.19,-0.68,0.52
16.42820107936859,3,3,3,3,-9.9,0.29,0.31,0.97,-0.52,1.35
16.43820106983185,3,3,3,3,-9.83,1.44,-0.01,2.06,-0.31,2.92
16.4482010602951,3,3,3,3,-9.789999999999999,2.07,-0.44,1.4,-0.51,2.07
16.45820105075836,3,3,3,3,-9.369999999999999,1.46,-0.53,1.27,-0.33,1.68
16.46820104122162,3,3,3,3,-9.5,1.62,-1.21,1.27,-0.33,1.68
16.47820103168488,3,3,3,3,-9.58,1.41,-1.31,0.98,-0.42,1.36
16.48820102214813,3,3,3,3,-9.609999999999999,1.34,-1.55,0.12,-0.31,0.92
16.49820101261139,3,3,3,3,-9.529999999999999,1.04,-1.74,-0.15,-0.27,0.77
16.50820100307465,3,3,3,3,-9.720000000000001,0.67,-1.44,-0.08,-0.36,0.63
16.5182009935379,3,3,3,3,-9.630000000000001,0.77,-1.1,-0.08,-0.36,0.63
16.52820098400116,3,3,3,3,-9.83,1.72,-0.95,-0.15,-0.28,0.31
16.53820097446442,3,3,3,3,-9.76,1.27,-0.61,-0.43,-0.67,-0.9
16.54820096492767,3,3,3,3,-9.94,0.62,-0.32,0.62,-0.5600000000000001,-0.68
16.55820095539093,3,3,3,3,-9.82,1.18,-0.07000000000000001,0.86,-0.63,-0.71
16.57820093631744,3,3,3,3,-9.529999999999999,0.84,0.2,1.29,-0.4,-0.25
16.5882009267807,3,3,3,3,-9.539999999999999,1.04,0.26,1.38,-0.55,-0.26
16.59820091724396,3,3,3,3,-9.65,1.31,0.04,1.14,-0.5,0.27
16.60820090770721,3,3,3,3,-9.470000000000001,1.51,0.04,0.79,-0.55,0.33
16.61820089817047,3,3,3,3,-9.48,1.27,0.03,0.79,-0.55,0.33
16.62820088863373,3,3,3,3,-9.390000000000001,1.32,-0.24,0.33,-0.54,0.6
16.63820087909698,3,3,3,3,-9.359999999999999,1.64,-0.33,-0.18,-0.67,0.31
16.64820086956024,3,3,3,3,-9.550000000000001,1.62,-0.46,-0.79,-0.61,0.24
16.6582008600235,3,3,3,3,-9.6,1.53,-0.51,-1.21,-0.66,0.12
16.66820085048676,3,3,3,3,-9.619999999999999,1.39,-0.37,-1.21,-0.66,0.12
16.67820107936859,3,3,3,3,-9.69,1.15,-0.37,-1.58,-0.54,0.04
16.68820106983185,3,3,3,3,-9.75,0.87,-0.32,-2.14,-0.2,0.31
16.6982010602951,3,3,3,3,-9.74,0.72,-0.49,-2.22,-0.18,0.28
16.70820105075836,3,3,3,3,-9.76,0.47,-0.32,-1.82,-0.15,0.17
16.71820104122162,3,3,3,3,-9.84,0.48,-0.23,-1.82,-0.15,0.17
16.72820103168488,3,3,3,3,-9.9,0.45,-0.2,-1.26,-0.23,0.13
16.73820102214813,3,3,3,3,-9.9,0.26,-0.22,0.1,-0.52,-0.01
16.74820101261139,3,3,3,3,-9.81,0.05,-0.41,0.78,-0.64,-0.08
16.75820100307465,3,3,3,3,-9.789999999999999,0.19,-0.42,1.38,-0.66,-0.05
16.7682009935379,3,3,3,3,-9.74,0.42,-0.36,1.38,-0.66,-0.05
16.77820098400116,3,3,3,3,-9.73,0.52,-0.29,1.63,-0.68,-0.07000000000000001
16.78820097446442,3,3,3,3,-9.66,0.59,-0.32,1.52,-0.65,-0.06
16.79820096492767,3,3,3,3,-9.66,0.7,-0.44,1.62,-0.42,-0.05
16.80820095539093,3,3,3,3,-9.720000000000001,0.71,-0.37,1.49,-0.35,0.05
16.81820094585419,3,3,3,3,-9.73,0.73,-0.39,1.49,-0.35,0.05
16.82820093631744,3,3,3,3,-9.75,0.9399999999999999,-0.28,1.27,-0.23,0.1
16.8382009267807,3,3,3,3,-9.67,1.07,-0.34,0.84,-0.27,-0.14
16.84820091724396,3,3,3,3,-9.73,1.06,-0.43,0.53,-0.18,-0.14
16.85820090770721,3,3,3,3,-9.779999999999999,1.03,-0.31,0.55,-0.17,-0.15
16.86820089817047,3,3,3,3,-9.66,1.01,-0.18,0.55,-0.17,-0.15
16.87820088863373,3,3,3,3,-9.68,0.85,-0.16,0.65,-0.25,-0.15
16.88820087909698,3,3,3,3,-9.68,0.78,-0.21,1.07,-0.29,-0.13
16.89820086956024,3,3,3,3,-9.68,0.68,-0.29,1.36,-0.23,-0.12
16.9082008600235,3,3,3,3,-9.710000000000001,0.64,-0.4,1.41,-0.22,-0.1
16.91820085048676,3,3,3,3,-9.74,0.66,-0.38,1.41,-0.22,-0.1
16.92820107936859,3,3,3,3,-9.699999999999999,0.64,-0.39,1.34,-0.3,0.02
16.93820106983185,3,3,3,3,-9.640000000000001,0.71,-0.4,1.33,-0.06,0.02
16.9482010602951,3,3,3,3,-9.74,0.76,-0.59,1.23,-0.03,-0.05
16.95820105075836,3,3,3,3,-9.83,0.74,-0.46,1.3,-0.18,-0.16
16.96820104122162,3,3,3,3,-9.779999999999999,0.68,-0.39,1.3,-0.18,-0.16
16.97820103168488,3,3,3,3,-9.800000000000001,0.64,-0.24,1.09,-0.15,-0.2
16.98820102214813,3,3,3,3,-9.869999999999999,0.82,-0.24,-1.15,0.49,-0.67
16.99820101261139,3,3,3,3,-9.83,0.7,-0.57,-1.7,0.85,-0.59
17.00820100307465,3,3,3,3,-9.77,0.52,-0.67,-1.38,0.97,-0.44
17.0182009935379,3,3,3,3,-9.76,0.42,-0.46,-1.38,0.97,-0.44
17.02820098400116,3,3,3,3,-9.73,0.41,-0.53,-1.21,0.96,-0.31
17.03820097446442,3,3,3,3,-9.68,0.5,-0.58,-0.53,0.9,-0.24
17.04820096492767,3,3,3,3,-9.73,0.54,-0.62,-0.4,0.86,-0.27
17.05820095539093,3,3,3,3,-9.710000000000001,0.61,-0.72,-0.11,0.83,-0.22
17.06820094585419,3,3,3,3,-9.720000000000001,0.85,-0.55,-0.11,0.83,-0.22
17.07820093631744,3,3,3,3,-9.73,0.87,-0.54,-0.1,0.79,-0.2
17.0882009267807,3,3,3,3,-9.69,0.9,-0.66,-0.35,0.71,-0.13
17.09820091724396,3,3,3,3,-9.699999999999999,0.83,-0.73,-0.25,0.49,-0.07000000000000001
17.10820090770721,3,3,3,3,-9.630000000000001,0.73,-0.58,-0.16,0.31,-0.01
17.11820089817047,3,3,3,3,-9.66,0.63,-0.54,-0.16,0.31,-0.01
17.12820088863373,3,3,3,3,-9.75,0.46,-0.45,0.22,0.14,0.08
17.13820087909698,3,3,3,3,-9.710000000000001,0.44,-0.52,0.8,-0.08,0.19
17.14820086956024,3,3,3,3,-9.74,0.25,-0.58,0.99,-0.1,0.22
17.1582008600235,3,3,3,3,-9.789999999999999,0.17,-0.47,1.19,-0.12,0.3
17.16820085048676,3,3,3,3,-9.83,0.21,-0.51,1.19,-0.12,0.3
17.17820107936859,3,3,3,3,-9.81,0.52,-0.55,1.53,-0.23,0.37
17.18820106983185,3,3,3,3,-9.76,0.71,-0.62,1.65,-0.13,0.31
17.1982010602951,3,3,3,3,-9.710000000000001,0.8100000000000001,-0.78,1.47,-0.07000000000000001,0.22
17.20920097827911,3,3,3,3,-9.699999999999999,0.91,-0.75,1.15,-0.04,0.15
17.21920096874237,3,3,3,3,-9.76,1.01,-0.61,1.15,-0.04,0.15
17.22920095920563,3,3,3,3,-9.75,0.9399999999999999,-0.54,0.77,-0.06,0.17
17.23920094966888,3,3,3,3,-9.720000000000001,0.88,-0.5,0.26,-0.05,0.13
17.24920094013214,3,3,3,3,-9.67,0.76,-0.5600000000000001,0.12,0.07000000000000001,0.12
17.2592009305954,3,3,3,3,-9.640000000000001,0.51,-0.57,-0.02,0.02,0.13
17.26920092105865,3,3,3,3,-9.66,0.49,-0.61,0.02,0.13,0.18
17.27920091152191,3,3,3,3,-9.710000000000001,0.55,-0.67,-0.15,0.15,0.14
17.28920090198517,3,3,3,3,-9.789999999999999,0.54,-0.67,-0.14,0.09,0.14
17.29920089244843,3,3,3,3,-9.76,0.63,-0.77,-0.1,0.04,0.15
17.30920088291168,3,3,3,3,-9.699999999999999,0.68,-0.64,-0.03,0,-0.01
17.31920087337494,3,3,3,3,-9.710000000000001,0.68,-0.6,-0.03,0,-0.01
17.3292008638382,3,3,3,3,-9.74,0.64,-0.57,0.1,-0.11,-0.2
17.33920085430145,3,3,3,3,-9.779999999999999,0.75,-0.52,0.12,-0.17,-0.17
17.34920084476471,3,3,3,3,-9.75,0.74,-0.5600000000000001,0.13,-0.14,-0.14
17.35920107364655,3,3,3,3,-9.73,0.76,-0.55,0.25,-0.1,-0.1
17.3692010641098,3,3,3,3,-9.73,0.66,-0.5,0.25,-0.1,-0.1
17.37920105457306,3,3,3,3,-9.67,0.77,-0.52,0.51,-0.14,-0.02
17.38920104503632,3,3,3,3,-9.640000000000001,0.76,-0.58,0.97,-0.2,0.01
17.39920103549957,3,3,3,3,-9.69,0.72,-0.6,1.23,-0.12,0.05
17.40920102596283,3,3,3,3,-9.75,0.77,-0.64,1.18,-0.2,0.11
17.41920101642609,3,3,3,3,-9.710000000000001,0.87,-0.68,1.18,-0.2,0.11
17.42920100688934,3,3,3,3,-9.68,0.88,-0.6,1.16,-0.26,0.12
17.4392009973526,3,3,3,3,-9.69,0.85,-0.59,0.98,-0.34,0.01
17.44920098781586,3,3,3,3,-9.69,0.86,-0.7,0.83,-0.3,0.02
17.45920097827911,3,3,3,3,-9.73,0.74,-0.59,0.8,-0.38,0.01
17.46920096874237,3,3,3,3,-9.74,0.76,-0.57,0.8,-0.38,0.01
17.47920095920563,3,3,3,3,-9.75,0.73,-0.52,0.77,-0.35,0.01
17.48920094966888,3,3,3,3,-9.779999999999999,0.73,-0.5,0.66,-0.29,0.04
17.49920094013214,3,3,3,3,-9.73,0.65,-0.61,0.63,-0.2,0.01
17.5092009305954,3,3,3,3,-9.76,0.8,-0.65,0.62,-0.17,-0.03
17.51920092105865,3,3,3,3,-9.710000000000001,0.86,-0.62,0.62,-0.17,-0.03
17.52920091152191,3,3,3,3,-9.710000000000001,0.82,-0.55,0.61,-0.16,-0.1
17.53920090198517,3,3,3,3,-9.710000000000001,0.79,-0.65,0.38,-0.13,-0.15
17.54920089244843,3,3,3,3,-9.710000000000001,0.83,-0.72,0.4,-0.15,-0.16
17.55920088291168,3,3,3,3,-9.76,0.73,-0.66,0.5,-0.13,-0.13
17.56920087337494,3,3,3,3,-9.779999999999999,0.66,-0.61,0.5,-0.13,-0.13
17.5792008638382,3,3,3,3,-9.720000000000001,0.63,-0.62,0.47,-0.13,-0.14
17.58920085430145,3,3,3,3,-9.69,0.62,-0.59,0.45,-0.11,-0.23
17.59920084476471,3,3,3,3,-9.73,0.73,-0.75,0.33,-0.07000000000000001,-0.33
17.60920107364655,3,3,3,3,-9.800000000000001,0.6899999999999999,-0.62,0.43,-0.1,-0.26
17.6192010641098,3,3,3,3,-9.710000000000001,0.63,-0.49,0.43,-0.1,-0.26
17.62920105457306,3,3,3,3,-9.699999999999999,0.72,-0.53,0.2,-0.03,-0.27
17.63920104503632,3,3,3,3,-9.720000000000001,0.66,-0.47,0.12,0.03,-0.34
17.64920103549957,3,3,3,3,-9.710000000000001,0.73,-0.64,0,0.02,-0.31
17.65920102596283,3,3,3,3,-9.720000000000001,0.6899999999999999,-0.59,-0.03,0.06,-0.27
17.66920101642609,3,3,3,3,-9.73,0.62,-0.51,-0.03,0.06,-0.27
17.67920100688934,3,3,3,3,-9.68,0.72,-0.53,-0.02,-0.01,-0.25
17.6892009973526,3,3,3,3,-9.69,0.73,-0.51,0.03,0.05,-0.24
17.69920098781586,3,3,3,3,-9.74,0.77,-0.65,0.07000000000000001,0.09,-0.24
17.70920097827911,3,3,3,3,-9.74,0.66,-0.58,-0.05,0.08,-0.27
17.71920096874237,3,3,3,3,-9.720000000000001,0.77,-0.66,-0.05,0.08,-0.27
17.72920095920563,3,3,3,3,-9.75,0.62,-0.57,0.02,0,-0.28
17.73920094966888,3,3,3,3,-9.73,0.59,-0.62,-0.05,-0.09,-0.32
17.74920094013214,3,3,3,3,-9.73,0.44,-0.6,0.05,0.02,-0.3
17.7592009305954,3,3,3,3,-9.76,0.54,-0.67,0.01,0.1,-0.29
17.76920092105865,3,3,3,3,-9.76,0.45,-0.63,0.01,0.1,-0.29
17.77920091152191,3,3,3,3,-9.779999999999999,0.49,-0.61,0.02,0.02,-0.3
17.78920090198517,3,3,3,3,-9.75,0.58,-0.62,0.12,-0.03,-0.34
17.79920089244843,3,3,3,3,-9.789999999999999,0.5,-0.59,0.15,0.08,-0.35
17.80920088291168,3,3,3,3,-9.75,0.57,-0.67,-0.08,0.09,-0.36
17.81920087337494,3,3,3,3,-9.76,0.5,-0.59,-0.08,0.09,-0.36
17.8292008638382,3,3,3,3,-9.74,0.55,-0.62,-0.02,0.04,-0.29
17.83920085430145,3,3,3,3,-9.69,0.58,-0.54,0.06,0.01,-0.35
17.84920084476471,3,3,3,3,-9.69,0.57,-0.66,0.07000000000000001,0.1,-0.37
17.85920107364655,3,3,3,3,-9.699999999999999,0.58,-0.61,-0.03,0.14,-0.36
17.8692010641098,3,3,3,3,-9.76,0.65,-0.62,-0.03,0.14,-0.36
17.87920105457306,3,3,3,3,-9.76,0.63,-0.5600000000000001,-0.13,0.07000000000000001,-0.32
17.88920104503632,3,3,3,3,-9.76,0.64,-0.54,-0.32,0.09,-0.29
17.89920103549957,3,3,3,3,-9.73,0.55,-0.62,-0.31,0.14,-0.28
17.90920102596283,3,3,3,3,-9.74,0.49,-0.62,-0.37,0.1,-0.34
17.91920101642609,3,3,3,3,-9.75,0.45,-0.5600000000000001,-0.37,0.1,-0.34
17.92920100688934,3,3,3,3,-9.73,0.43,-0.57,-0.4,0.13,-0.33
17.9392009973526,3,3,3,3,-9.76,0.44,-0.6,-0.3,0.21,-0.3
17.94920098781586,3,3,3,3,-9.779999999999999,0.48,-0.66,-0.33,0.24,-0.3
17.95920097827911,3,3,3,3,-9.800000000000001,0.51,-0.67,-0.29,0.23,-0.25
17.96920096874237,3,3,3,3,-9.77,0.54,-0.65,-0.29,0.23,-0.25
17.97920095920563,3,3,3,3,-9.77,0.42,-0.53,-0.31,0.16,-0.25
17.98920094966888,3,3,3,3,-9.76,0.42,-0.59,-0.19,0.17,-0.23
17.99920094013214,3,3,3,3,-9.73,0.42,-0.71,-0.09,0.04,-0.22
18.0092009305954,3,3,3,3,-9.73,0.42,-0.62,0,0.06,-0.18
18.01920092105865,3,3,3,3,-9.74,0.5,-0.57,0,0.06,-0.18
18.02920091152191,3,3,3,3,-9.779999999999999,0.49,-0.65,0.12,0.05,-0.14
18.03920090198517,3,3,3,3,-9.82,0.48,-0.61,-0.02,-0.03,-0.13
18.04920089244843,3,3,3,3,-9.75,0.52,-0.72,0,0.02,-0.14
18.05920088291168,3,3,3,3,-9.710000000000001,0.51,-0.63,0.04,0.02,-0.13
18.06920087337494,3,3,3,3,-9.720000000000001,0.48,-0.62,0.04,0.02,-0.13
18.0792008638382,3,3,3,3,-9.76,0.5,-0.6,0.02,-0.01,-0.09
18.08920085430145,3,3,3,3,-9.779999999999999,0.53,-0.65,0.06,-0.05,-0.17
18.09920084476471,3,3,3,3,-9.76,0.55,-0.73,0.12,-0.08,-0.18
18.10920107364655,3,3,3,3,-9.75,0.54,-0.73,0.1,-0.1,-0.18
18.1192010641098,3,3,3,3,-9.74,0.55,-0.66,0.1,-0.1,-0.18
18.12920105457306,3,3,3,3,-9.710000000000001,0.5600000000000001,-0.61,0.08,-0.11,-0.18
18.13920104503632,3,3,3,3,-9.710000000000001,0.59,-0.64,0.07000000000000001,-0.13,-0.23
18.14920103549957,3,3,3,3,-9.699999999999999,0.52,-0.72,0.22,-0.15,-0.25
18.15920102596283,3,3,3,3,-9.73,0.52,-0.76,0.21,-0.14,-0.25
18.16920101642609,3,3,3,3,-9.73,0.52,-0.58,0.21,-0.14,-0.25
18.17920100688934,3,3,3,3,-9.73,0.5600000000000001,-0.59,0.09,-0.01,-0.25
18.1892009973526,3,3,3,3,-9.76,0.61,-0.57,-0.15,-0.03,-0.24
18.19920098781586,3,3,3,3,-9.75,0.65,-0.72,-0.35,0.04,-0.22
18.20920097827911,3,3,3,3,-9.800000000000001,0.57,-0.62,-0.3,0.09,-0.13
18.21920096874237,3,3,3,3,-9.789999999999999,0.53,-0.61,-0.3,0.09,-0.13
18.23020088672638,3,3,3,3,-9.720000000000001,0.47,-0.68,-0.39,0.14,-0.13
18.24020087718964,3,3,3,3,-9.73,0.5,-0.61,-0.47,0.24,-0.18
18.25020086765289,3,3,3,3,-9.74,0.5,-0.63,-0.39,0.22,-0.18
18.26020085811615,3,3,3,3,-9.77,0.53,-0.63,-0.39,0.18,-0.22
18.27020084857941,3,3,3,3,-9.779999999999999,0.53,-0.58,-0.39,0.18,-0.22
18.28020107746124,3,3,3,3,-9.779999999999999,0.52,-0.62,-0.39,0.19,-0.19
18.2902010679245,3,3,3,3,-9.81,0.52,-0.6899999999999999,-0.55,0.31,-0.13
18.30020105838776,3,3,3,3,-9.789999999999999,0.47,-0.73,-0.41,0.29,-0.18
18.31020104885101,3,3,3,3,-9.74,0.4,-0.68,-0.21,0.26,-0.25
18.32020103931427,3,3,3,3,-9.699999999999999,0.36,-0.65,-0.21,0.26,-0.25
18.33020102977753,3,3,3,3,-9.67,0.48,-0.65,0.04,0.14,-0.31
18.34020102024078,3,3,3,3,-9.69,0.5600000000000001,-0.65,0.17,-0.07000000000000001,-0.31
