timestamp,magCalib,accCalib,gyrCalib,sysCalib,accX,accY,accZ,gyrX,gyrY,gyrZ
-0.03479897975921631,1,3,3,0,-9.42,0.59,2.62,-0.29,0.25,0.41
-0.02479898929595947,1,3,3,0,-9.4,0.59,2.55,-0.32,0.16,0.35
-0.01479899883270264,1,3,3,0,-9.42,0.67,2.57,-0.3,0.15,0.35
-0.004799008369445801,1,3,3,0,-9.4,0.6899999999999999,2.6,-0.29,0.08,0.26
0.005200982093811035,1,3,3,0,-9.390000000000001,0.65,2.65,-0.37,0.02,0.23
0.01520097255706787,1,3,3,0,-9.4,0.6899999999999999,2.63,-0.47,0.03,0.22
0.02520096302032471,1,3,3,0,-9.369999999999999,0.68,2.53,-0.51,0.05,0.18
0.03520095348358154,1,3,3,0,-9.359999999999999,0.68,2.49,-0.53,0.1,0.2
0.04520094394683838,1,3,3,0,-9.390000000000001,0.67,2.55,-0.48,0.09,0.19
0.05520093441009521,1,3,3,0,-9.42,0.67,2.54,-0.51,0.13,0.21
0.06520092487335205,1,3,3,0,-9.42,0.65,2.6,-0.54,0.13,0.18
0.07520091533660889,1,3,3,0,-9.43,0.61,2.52,-0.57,0.1,0.19
0.08520090579986572,1,3,3,0,-9.44,0.65,2.53,-0.65,0.09,0.16
0.09520089626312256,1,3,3,0,-9.41,0.63,2.61,-0.67,0.12,0.17
0.1052008867263794,1,3,3,0,-9.369999999999999,0.59,2.64,-0.67,0.16,0.16
0.1152008771896362,1,3,3,0,-9.380000000000001,0.57,2.52,-0.68,0.27,0.2
0.1252008676528931,1,3,3,0,-9.380000000000001,0.52,2.49,-0.64,0.26,0.26
0.1352008581161499,1,3,3,0,-9.380000000000001,0.52,2.51,-0.6,0.33,0.31
0.1452008485794067,1,3,3,0,-9.390000000000001,0.53,2.54,-0.51,0.34,0.32
0.1552010774612427,1,3,3,0,-9.4,0.5600000000000001,2.54,-0.41,0.32,0.35
0.1652010679244995,1,3,3,0,-9.42,0.57,2.52,-0.29,0.32,0.34
0.1752010583877563,1,3,3,0,-9.42,0.57,2.44,-0.24,0.31,0.36
0.1852010488510132,1,3,3,0,-9.41,0.59,2.44,-0.29,0.28,0.34
0.19520103931427,1,3,3,0,-9.42,0.64,2.5,-0.26,0.29,0.34
0.2052010297775269,1,3,3,0,-9.42,0.64,2.52,-0.25,0.27,0.32
0.2152010202407837,1,3,3,0,-9.390000000000001,0.63,2.55,-0.35,0.22,0.3
0.2252010107040405,1,3,3,0,-9.390000000000001,0.63,2.48,-0.48,0.14,0.27
0.2352010011672974,1,3,3,0,-9.390000000000001,0.66,2.48,-0.5600000000000001,0.12,0.26
0.2452009916305542,1,3,3,0,-9.390000000000001,0.65,2.47,-0.59,0.12,0.26
0.255200982093811,1,3,3,0,-9.4,0.63,2.52,-0.64,0.12,0.26
0.2652009725570679,1,3,3,0,-9.44,0.6,2.47,-0.6899999999999999,0.16,0.24
0.2752009630203247,1,3,3,0,-9.41,0.62,2.44,-0.7,0.18,0.25
0.2852009534835815,1,3,3,0,-9.41,0.63,2.48,-0.65,0.18,0.27
0.2952009439468384,1,3,3,0,-9.43,0.6,2.53,-0.66,0.18,0.24
0.3052009344100952,1,3,3,0,-9.42,0.63,2.54,-0.67,0.19,0.24
0.3152009248733521,1,3,3,0,-9.41,0.59,2.54,-0.66,0.23,0.24
0.3252009153366089,1,3,3,0,-9.4,0.6,2.42,-0.65,0.28,0.22
0.3352009057998657,1,3,3,0,-9.42,0.62,2.45,-0.72,0.23,0.23
0.3452008962631226,1,3,3,0,-9.41,0.58,2.5,-0.65,0.23,0.25
0.3552008867263794,1,3,3,0,-9.41,0.5600000000000001,2.55,-0.63,0.29,0.2
0.3652008771896362,1,3,3,0,-9.41,0.58,2.6,-0.62,0.28,0.2
0.3752008676528931,1,3,3,0,-9.42,0.57,2.51,-0.61,0.22,0.16
0.3852008581161499,1,3,3,0,-9.41,0.5600000000000001,2.54,-0.58,0.19,0.13
0.3952008485794067,1,3,3,0,-9.41,0.58,2.56,-0.55,0.17,0.1
0.4052010774612427,1,3,3,0,-9.43,0.57,2.57,-0.48,0.19,0.08
0.4152010679244995,1,3,3,0,-9.390000000000001,0.57,2.55,-0.46,0.17,0.07000000000000001
0.4252010583877563,1,3,3,0,-9.369999999999999,0.53,2.46,-0.45,0.22,0.07000000000000001
0.4352010488510132,1,3,3,0,-9.359999999999999,0.53,2.53,-0.41,0.19,0.06
0.44520103931427,1,3,3,0,-9.369999999999999,0.51,2.55,-0.35,0.18,0.11
0.4552010297775269,1,3,3,0,-9.369999999999999,0.54,2.55,-0.31,0.21,0.11
0.4652010202407837,1,3,3,0,-9.4,0.5600000000000001,2.52,-0.28,0.21,0.12
0.4752010107040405,1,3,3,0,-9.380000000000001,0.57,2.43,-0.22,0.22,0.15
0.4852010011672974,1,3,3,0,-9.380000000000001,0.57,2.5,-0.2,0.22,0.16
0.4952009916305542,1,3,3,0,-9.44,0.63,2.55,-0.16,0.22,0.14
0.505200982093811,1,3,3,0,-9.42,0.63,2.54,-0.13,0.21,0.1
0.5152009725570679,1,3,3,0,-9.4,0.64,2.5,-0.13,0.25,0.1
0.5252009630203247,1,3,3,0,-9.4,0.64,2.4,-0.15,0.25,0.11
0.5352009534835815,1,3,3,0,-9.41,0.62,2.45,-0.16,0.27,0.14
0.5452009439468384,1,3,3,0,-9.42,0.61,2.53,-0.2,0.23,0.14
0.5552009344100952,1,3,3,0,-9.43,0.62,2.54,-0.22,0.17,0.15
0.566200852394104,1,3,3,0,-9.43,0.64,2.54,-0.23,0.16,0.15
0.5762008428573608,1,3,3,0,-9.449999999999999,0.64,2.41,-0.23,0.14,0.15
0.5862010717391968,1,3,3,0,-9.449999999999999,0.64,2.47,-0.24,0.14,0.15
0.5962010622024536,1,3,3,0,-9.44,0.61,2.52,-0.27,0.12,0.18
0.6062010526657104,1,3,3,0,-9.460000000000001,0.64,2.55,-0.29,0.1,0.16
0.6162010431289673,1,3,3,0,-9.44,0.61,2.5,-0.29,0.06,0.12
0.6262010335922241,1,3,3,0,-9.449999999999999,0.59,2.44,-0.3,0.07000000000000001,0.09
0.636201024055481,1,3,3,0,-9.43,0.61,2.48,-0.33,0.03,0.09
0.6462010145187378,1,3,3,0,-9.43,0.62,2.5,-0.32,0.02,0.09
0.6562010049819946,1,3,3,0,-9.44,0.61,2.5,-0.28,-0.01,0.08
0.6662009954452515,1,3,3,0,-9.460000000000001,0.6,2.49,-0.23,-0.02,0.05
0.6762009859085083,1,3,3,0,-9.460000000000001,0.58,2.42,-0.22,-0.04,0
0.6862009763717651,1,3,3,0,-9.41,0.61,2.44,-0.24,-0.1,-0.01
0.696200966835022,1,3,3,0,-9.42,0.62,2.5,-0.19,-0.14,-0.02
0.7062009572982788,1,3,3,0,-9.42,0.6,2.47,-0.13,-0.1,-0.05
0.7162009477615356,1,3,3,0,-9.41,0.61,2.51,-0.07000000000000001,-0.09,-0.06
0.7262009382247925,1,3,3,0,-9.41,0.61,2.4,0,-0.09,-0.08
0.7362009286880493,1,3,3,0,-9.42,0.62,2.41,0.08,-0.1,-0.08
0.7462009191513062,1,3,3,0,-9.43,0.62,2.43,0.14,-0.07000000000000001,-0.11
0.756200909614563,1,3,3,0,-9.44,0.66,2.45,0.19,-0.1,-0.1
0.7662009000778198,1,3,3,0,-9.43,0.66,2.39,0.24,-0.05,-0.13
0.7762008905410767,1,3,3,0,-9.43,0.7,2.33,0.29,0,-0.12
0.7862008810043335,1,3,3,0,-9.449999999999999,0.6899999999999999,2.35,0.31,-0.02,-0.14
0.7962008714675903,1,3,3,0,-9.43,0.72,2.36,0.32,0.01,-0.12
0.8062008619308472,1,3,3,0,-9.41,0.75,2.45,0.28,0.03,-0.09
0.816200852394104,1,3,3,0,-9.41,0.76,2.41,0.25,0.04,-0.12
0.8262008428573608,1,3,3,0,-9.41,0.76,2.29,0.25,0.05,-0.12
0.8362010717391968,1,3,3,0,-9.41,0.78,2.35,0.24,0.04,-0.14
0.8462010622024536,1,3,3,0,-9.41,0.77,2.39,0.19,0.07000000000000001,-0.16
0.8562010526657104,1,3,3,0,-9.41,0.79,2.39,0.18,0.1,-0.12
0.8662010431289673,1,3,3,0,-9.44,0.8100000000000001,2.44,0.17,0.12,-0.17
0.8762010335922241,1,3,3,0,-9.41,0.78,2.29,0.1,0.18,-0.14
0.886201024055481,1,3,3,0,-9.42,0.8,2.35,0.11,0.16,-0.14
0.8962010145187378,1,3,3,0,-9.41,0.79,2.35,0.08,0.17,-0.13
0.9062010049819946,1,3,3,0,-9.41,0.8100000000000001,2.4,0.11,0.22,-0.13
0.9162009954452515,1,3,3,0,-9.42,0.79,2.33,0.13,0.26,-0.12
0.9262009859085083,1,3,3,0,-9.44,0.8100000000000001,2.28,0.14,0.29,-0.12
0.9362009763717651,1,3,3,0,-9.41,0.8100000000000001,2.29,0.14,0.29,-0.13
0.946200966835022,1,3,3,0,-9.42,0.8,2.35,0.17,0.34,-0.1
0.9562009572982788,1,3,3,0,-9.43,0.8,2.4,0.22,0.3,-0.09
0.9662009477615356,1,3,3,0,-9.42,0.8,2.39,0.23,0.31,-0.1
0.9762009382247925,1,3,3,0,-9.44,0.82,2.29,0.22,0.32,-0.08
0.9862009286880493,1,3,3,0,-9.42,0.79,2.33,0.2,0.31,-0.07000000000000001
0.9962009191513062,1,3,3,0,-9.41,0.8,2.41,0.17,0.33,-0.05
1.006200909614563,1,3,3,0,-9.42,0.78,2.42,0.15,0.32,-0.05
1.01620090007782,1,3,3,0,-9.44,0.8100000000000001,2.42,0.12,0.27,-0.05
1.026200890541077,1,3,3,0,-9.43,0.82,2.33,0.13,0.29,0
1.036200881004333,1,3,3,0,-9.43,0.83,2.39,0.08,0.25,0.01
1.04620087146759,1,3,3,0,-9.42,0.84,2.42,0.01,0.23,-0.01
1.056200861930847,1,3,3,0,-9.42,0.82,2.42,-0.07000000000000001,0.26,0
1.066200852394104,1,3,3,0,-9.43,0.8,2.38,-0.14,0.26,0.02
1.076200842857361,1,3,3,0,-9.44,0.8,2.32,-0.18,0.24,-0.01
1.086201071739197,1,3,3,0,-9.42,0.78,2.39,-0.23,0.22,-0.03
1.096201062202454,1,3,3,0,-9.4,0.77,2.4,-0.24,0.17,-0.01
1.10620105266571,1,3,3,0,-9.44,0.75,2.46,-0.25,0.16,0.01
1.116201043128967,1,3,3,0,-9.44,0.75,2.46,-0.22,0.13,-0.05
1.126201033592224,1,3,3,0,-9.449999999999999,0.75,2.39,-0.26,0.09,-0.02
1.136201024055481,1,3,3,0,-9.43,0.72,2.39,-0.23,0.08,-0.01
1.146201014518738,1,3,3,0,-9.42,0.67,2.49,-0.22,0.09,-0.04
1.156201004981995,1,3,3,0,-9.42,0.66,2.55,-0.23,0.1,-0.04
1.166200995445251,1,3,3,0,-9.42,0.68,2.56,-0.21,0.08,-0.04
1.176200985908508,1,3,3,0,-9.41,0.64,2.42,-0.2,0.08,-0.04
1.186200976371765,1,3,3,0,-9.41,0.64,2.46,-0.15,0.03,-0.05
1.196200966835022,1,3,3,0,-9.42,0.67,2.5,-0.14,0.01,-0.07000000000000001
1.206200957298279,1,3,3,0,-9.42,0.64,2.52,-0.09,0,-0.04
1.216200947761536,1,3,3,0,-9.44,0.66,2.52,-0.04,-0.01,-0.04
1.226200938224792,1,3,3,0,-9.41,0.67,2.4,-0.06,-0.06,-0.03
1.236200928688049,1,3,3,0,-9.380000000000001,0.68,2.44,-0.07000000000000001,-0.07000000000000001,-0.03
1.246200919151306,1,3,3,0,-9.4,0.6899999999999999,2.49,-0.12,-0.07000000000000001,-0.06
1.256200909614563,1,3,3,0,-9.380000000000001,0.7,2.49,-0.1,-0.11,-0.02
1.26620090007782,1,3,3,0,-9.4,0.68,2.49,-0.13,-0.09,-0.04
1.276200890541077,1,3,3,0,-9.390000000000001,0.6899999999999999,2.38,-0.21,-0.11,-0.05
1.286200881004333,1,3,3,0,-9.41,0.67,2.43,-0.27,-0.09,-0.05
1.29620087146759,1,3,3,0,-9.380000000000001,0.62,2.48,-0.27,-0.09,-0.04
1.306200861930847,1,3,3,0,-9.380000000000001,0.59,2.48,-0.28,-0.08,-0.01
1.316200852394104,1,3,3,0,-9.380000000000001,0.59,2.48,-0.22,-0.1,-0.02
1.326200842857361,1,3,3,0,-9.4,0.58,2.41,-0.17,-0.08,0
1.336201071739197,1,3,3,0,-9.4,0.59,2.43,-0.09,-0.05,0.03
1.346201062202454,1,3,3,0,-9.390000000000001,0.61,2.47,-0.03,-0.03,0.06
1.35620105266571,1,3,3,0,-9.390000000000001,0.6,2.47,0.02,0,0.06
1.366201043128967,1,3,3,0,-9.390000000000001,0.58,2.51,0.07000000000000001,0,0.12
1.376201033592224,1,3,3,0,-9.369999999999999,0.6,2.38,0.11,0.03,0.12
1.386201024055481,1,3,3,0,-9.390000000000001,0.6,2.4,0.19,0.04,0.14
1.396201014518738,1,3,3,0,-9.390000000000001,0.5600000000000001,2.47,0.26,0.01,0.15
1.406201004981995,1,3,3,0,-9.42,0.59,2.48,0.35,0.01,0.16
1.416200995445251,1,3,3,0,-9.41,0.65,2.43,0.46,-0.04,0.15
1.426200985908508,1,3,3,0,-9.42,0.68,2.36,0.58,-0.01,0.14
1.436200976371765,1,3,3,0,-9.4,0.67,2.4,0.65,-0.01,0.11
1.446200966835022,1,3,3,0,-9.4,0.74,2.44,0.71,0.05,0.11
1.456200957298279,1,3,3,0,-9.41,0.77,2.51,0.71,0.04,0.12
1.466200947761536,1,3,3,0,-9.42,0.79,2.5,0.72,0.03,0.09
1.476200938224792,1,3,3,0,-9.42,0.8100000000000001,2.44,0.72,0.03,0.08
1.486200928688049,1,3,3,0,-9.449999999999999,0.83,2.4,0.7,0.01,0.08
1.496200919151306,1,3,3,0,-9.449999999999999,0.83,2.49,0.64,0.03,0.05
1.506200909614563,1,3,3,0,-9.449999999999999,0.83,2.49,0.58,-0.05,0.01
1.51620090007782,1,3,3,0,-9.449999999999999,0.84,2.47,0.52,-0.05,0
1.526200890541077,1,3,3,0,-9.42,0.84,2.41,0.45,-0.07000000000000001,-0.02
1.536200881004333,1,3,3,0,-9.41,0.82,2.49,0.41,-0.01,-0.05
1.54620087146759,1,3,3,0,-9.44,0.84,2.53,0.38,-0.02,-0.02
1.556200861930847,1,3,3,0,-9.42,0.85,2.53,0.33,-0.01,-0.02
1.566200852394104,1,3,3,0,-9.43,0.88,2.48,0.33,0.01,-0.03
1.576200842857361,1,3,3,0,-9.44,0.86,2.42,0.29,-0.01,-0.07000000000000001
1.586201071739197,1,3,3,0,-9.44,0.88,2.48,0.27,-0.04,-0.08
1.597200989723206,1,3,3,0,-9.43,0.91,2.53,0.24,-0.07000000000000001,-0.14
1.607200980186462,1,3,3,0,-9.470000000000001,0.93,2.53,0.23,-0.08,-0.13
1.617200970649719,1,3,3,0,-9.449999999999999,0.93,2.54,0.17,-0.13,-0.15
1.627200961112976,1,3,3,0,-9.41,0.96,2.44,0.07000000000000001,-0.12,-0.17
1.637200951576233,1,3,3,0,-9.380000000000001,0.91,2.49,0,-0.11,-0.17
1.64720094203949,1,3,3,0,-9.369999999999999,0.89,2.56,-0.1,-0.1,-0.17
1.657200932502747,1,3,3,0,-9.35,0.88,2.55,-0.17,-0.07000000000000001,-0.19
1.667200922966003,1,3,3,0,-9.33,0.85,2.57,-0.2,-0.07000000000000001,-0.18
1.67720091342926,1,3,3,0,-9.35,0.82,2.48,-0.26,-0.04,-0.14
1.687200903892517,1,3,3,0,-9.35,0.83,2.53,-0.27,-0.04,-0.14
1.697200894355774,1,3,3,0,-9.390000000000001,0.83,2.57,-0.28,-0.03,-0.1
1.707200884819031,1,3,3,0,-9.390000000000001,0.83,2.57,-0.3,-0.02,-0.1
1.717200875282288,1,3,3,0,-9.4,0.83,2.56,-0.32,0,-0.05
1.727200865745544,1,3,3,0,-9.369999999999999,0.86,2.48,-0.38,-0.02,-0.04
1.737200856208801,1,3,3,0,-9.35,0.88,2.53,-0.42,-0.02,-0.04
1.747200846672058,1,3,3,0,-9.359999999999999,0.88,2.57,-0.52,-0.02,-0.01
1.757201075553894,1,3,3,0,-9.359999999999999,0.88,2.57,-0.6,-0.03,0.01
1.767201066017151,1,3,3,0,-9.369999999999999,0.91,2.59,-0.68,-0.03,0
1.777201056480408,1,3,3,0,-9.41,0.91,2.47,-0.7,-0.09,0.03
1.787201046943665,1,3,3,0,-9.41,0.91,2.48,-0.74,-0.07000000000000001,0.02
1.797201037406921,1,3,3,0,-9.42,0.89,2.55,-0.78,-0.04,0.06
1.807201027870178,1,3,3,0,-9.42,0.89,2.55,-0.8,-0.03,0.05
1.817201018333435,1,3,3,0,-9.390000000000001,0.9,2.58,-0.84,0.01,0.1
1.827201008796692,1,3,3,0,-9.390000000000001,0.84,2.52,-0.89,-0.01,0.13
1.837200999259949,1,3,3,0,-9.35,0.8,2.56,-0.97,0.04,0.16
1.847200989723206,1,3,3,0,-9.359999999999999,0.8,2.64,-1.04,0.04,0.21
1.857200980186462,1,3,3,0,-9.359999999999999,0.8,2.64,-1.06,0.08,0.24
1.867200970649719,1,3,3,0,-9.34,0.83,2.7,-1.03,0.12,0.24
1.877200961112976,1,3,3,0,-9.35,0.8100000000000001,2.56,-1.02,0.15,0.28
1.887200951576233,1,3,3,0,-9.34,0.82,2.62,-1.06,0.17,0.22
1.89720094203949,1,3,3,0,-9.34,0.83,2.65,-1.05,0.19,0.25
1.907200932502747,1,3,3,0,-9.34,0.83,2.65,-1.04,0.24,0.24
1.917200922966003,1,3,3,0,-9.34,0.8,2.67,-1.03,0.28,0.25
1.92720091342926,1,3,3,0,-9.34,0.8,2.58,-0.99,0.33,0.22
1.937200903892517,1,3,3,0,-9.33,0.8,2.62,-1.01,0.33,0.23
1.947200894355774,1,3,3,0,-9.35,0.79,2.69,-0.99,0.33,0.24
1.957200884819031,1,3,3,0,-9.35,0.79,2.69,-0.98,0.34,0.19
1.967200875282288,1,3,3,0,-9.34,0.78,2.71,-0.98,0.34,0.19
1.977200865745544,1,3,3,0,-9.35,0.8100000000000001,2.67,-0.99,0.35,0.2
1.987200856208801,1,3,3,0,-9.34,0.79,2.75,-1.02,0.35,0.15
1.997200846672058,1,3,3,0,-9.34,0.79,2.77,-1.03,0.34,0.13
2.007201075553894,1,3,3,0,-9.34,0.79,2.77,-1.03,0.34,0.13
2.017201066017151,1,3,3,0,-9.34,0.82,2.8,-1.04,0.35,0.12
2.027201056480408,1,3,3,0,-9.32,0.9399999999999999,2.68,-1.13,0.38,0.09
2.037201046943665,1,3,3,0,-9.33,0.98,2.73,-1.18,0.39,0.05
2.047201037406921,1,3,3,0,-9.34,0.98,2.71,-1.26,0.41,0.08
2.057201027870178,1,3,3,0,-9.34,0.98,2.71,-1.26,0.41,0.08
2.067201018333435,1,3,3,0,-9.43,0.91,3,-1.35,0.32,0.07000000000000001
2.077201008796692,1,3,3,0,-9.539999999999999,0.79,3.37,-1.83,-0.58,-0.05
2.087200999259949,1,3,3,0,-9.59,0.74,3.6,-2.17,-1.35,-0.17
2.097200989723206,1,3,3,0,-9.51,0.95,3.42,-2.41,-2.2,-0.44
2.107200980186462,1,3,3,0,-9.51,0.95,3.42,-2.41,-2.2,-0.44
2.117200970649719,1,3,3,0,-9.41,1.1,3.08,-1.74,-3.13,-0.85
2.127200961112976,1,3,3,0,-9.44,1.09,2.64,-1.35,-3.39,-0.75
2.137200951576233,1,3,3,0,-9.279999999999999,1.04,2.54,-0.82,-3.27,-0.58
2.14720094203949,1,3,3,0,-9.300000000000001,0.97,2.7,-0.4,-3.08,-0.54
2.157200932502747,1,3,3,0,-9.300000000000001,0.97,2.7,-0.4,-3.08,-0.54
2.167200922966003,1,3,3,0,-9.26,0.9,2.84,-0.26,-3.06,-0.46
2.17720091342926,1,3,3,0,-9.26,0.9,2.61,0.12,-2.75,-0.14
2.187200903892517,1,3,3,0,-9.220000000000001,0.8100000000000001,2.94,0.24,-2.75,-0.06
2.197200894355774,1,3,3,0,-9.01,0.83,2.54,0.39,-2.54,0.03
2.207200884819031,1,3,3,0,-9.01,0.83,2.54,0.39,-2.54,0.03
2.217200875282288,1,3,3,0,-9.050000000000001,0.67,2.29,0.25,-1.91,0.09
2.227200865745544,1,3,3,0,-9.220000000000001,0.74,2.5,-0.5,-1.15,0.18
2.237200856208801,1,3,3,0,-9.220000000000001,0.74,2.5,-0.42,-1.1,0.11
2.247200846672058,1,3,3,0,-9.27,0.83,2.52,-0.36,-0.88,0.05
2.257201075553894,1,3,3,0,-9.26,0.7,2.44,-0.36,-0.88,0.05
2.267201066017151,1,3,3,0,-9.31,0.6899999999999999,2.51,-0.5,-0.66,0
2.277201056480408,1,3,3,0,-9.279999999999999,0.66,2.48,-0.78,-0.37,0.02
2.287201046943665,1,3,3,0,-9.26,0.68,2.52,-0.9,-0.2,-0.02
2.297201037406921,1,3,3,0,-9.25,0.65,2.49,-1.15,-0.09,-0.04
2.307201027870178,1,3,3,0,-9.300000000000001,0.6,2.47,-1.15,-0.09,-0.04
2.317201018333435,1,3,3,0,-9.32,0.5,2.41,-1.44,0.03,-0.08
2.327201008796692,1,3,3,0,-9.369999999999999,0.5,2.46,-1.79,0.29,-0.2
2.337200999259949,1,3,3,0,-9.43,0.44,2.24,-1.8,0.37,-0.28
2.347200989723206,1,3,3,0,-9.470000000000001,0.45,2.39,-1.77,0.45,-0.3
2.357200980186462,1,3,3,0,-9.550000000000001,0.44,2.4,-1.77,0.45,-0.3
2.367200970649719,1,3,3,0,-9.529999999999999,0.48,2.46,-1.83,0.53,-0.29
2.377200961112976,1,3,3,0,-9.52,0.57,2.29,-2.06,0.75,-0.25
2.387200951576233,1,3,3,0,-9.51,0.6,2.19,-2.29,0.84,-0.19
2.39720094203949,1,3,3,0,-9.48,0.62,2.18,-2.47,1.01,-0.13
2.407200932502747,1,3,3,0,-9.359999999999999,0.71,2.19,-2.47,1.01,-0.13
2.417200922966003,1,3,3,0,-9.390000000000001,0.62,2.15,-2.69,1.18,-0.06
2.42720091342926,1,3,3,0,-9.390000000000001,0.6,2.19,-3.52,1.42,0.18
2.437200903892517,1,3,3,0,-9.41,0.63,2.12,-3.94,1.52,0.32
2.447200894355774,1,3,3,0,-9.470000000000001,0.57,2.03,-4.4,1.64,0.44
2.457200884819031,1,3,3,0,-9.529999999999999,0.53,2.06,-4.4,1.64,0.44
2.467200875282288,1,3,3,0,-9.550000000000001,0.49,2.04,-4.78,1.82,0.5
2.477200865745544,1,3,3,0,-9.640000000000001,0.37,1.94,-5.12,2.04,0.6899999999999999
2.487200856208801,1,3,3,0,-9.699999999999999,0.23,1.88,-5.13,2.05,0.8100000000000001
2.497200846672058,1,3,3,0,-9.699999999999999,0.19,1.86,-4.99,2.04,0.89
2.507201075553894,1,3,3,0,-9.74,0.18,1.91,-4.99,2.04,0.89
2.517201066017151,1,3,3,0,-9.720000000000001,0.17,1.95,-4.7,2.11,0.92
2.527201056480408,1,3,3,0,-9.73,0.1,1.8,-4.23,2.25,0.92
2.537201046943665,1,3,3,0,-9.710000000000001,0.12,1.77,-4.03,2.24,0.9399999999999999
2.547201037406921,1,3,3,0,-9.69,0.17,1.72,-3.78,2.29,0.98
2.557201027870178,1,3,3,0,-9.710000000000001,0.21,1.82,-3.78,2.29,0.98
2.567201018333435,1,3,3,0,-9.66,0.33,1.82,-3.59,2.26,1
2.577201008796692,1,3,3,0,-9.619999999999999,0.41,1.8,-3.46,2.29,1.05
2.587200999259949,1,3,3,0,-9.57,0.44,1.79,-3.57,2.38,1.12
2.597200989723206,1,3,3,0,-9.56,0.54,1.74,-3.76,2.41,1.14
2.607200980186462,1,3,3,0,-9.58,0.6,1.91,-3.76,2.41,1.14
2.618200898170471,1,3,3,0,-9.57,0.65,1.94,-4.04,2.4,1.18
2.628200888633728,1,3,3,0,-9.57,0.68,1.95,-4.67,2.26,1.3
2.638200879096985,1,3,3,0,-9.619999999999999,0.74,1.82,-5.06,2.18,1.38
2.648200869560242,1,3,3,0,-9.65,0.72,1.84,-5.45,2.06,1.42
2.658200860023499,1,3,3,0,-9.66,0.7,1.94,-5.45,2.06,1.42
2.668200850486755,1,3,3,0,-9.67,0.75,1.95,-5.82,2.06,1.49
2.678201079368591,1,3,3,0,-9.720000000000001,0.62,1.9,-6.34,1.91,1.63
2.688201069831848,1,3,3,0,-9.74,0.55,1.87,-6.36,1.72,1.66
2.698201060295105,1,3,3,0,-9.720000000000001,0.51,2.03,-6.4,1.56,1.7
2.708201050758362,1,3,3,0,-9.65,0.51,2.02,-6.4,1.56,1.7
2.718201041221619,1,3,3,0,-9.609999999999999,0.59,2.19,-6.43,1.39,1.79
2.728201031684875,1,3,3,0,-9.59,0.62,2.19,-6.69,1.12,1.95
2.738201022148132,1,3,3,0,-9.56,0.65,2.14,-6.74,0.96,1.97
2.748201012611389,1,3,3,0,-9.59,0.61,2.2,-6.94,0.7,1.94
2.758201003074646,1,3,3,0,-9.6,0.6,2.3,-6.94,0.7,1.94
2.768200993537903,1,3,3,0,-9.59,0.63,2.38,-7.16,0.46,1.94
2.77820098400116,1,3,3,0,-9.59,0.63,2.43,-7.62,-0.2,1.94
2.788200974464417,1,3,3,0,-9.59,0.67,2.34,-7.8,-0.53,1.95
2.798200964927673,1,3,3,0,-9.539999999999999,0.59,2.21,-7.89,-0.7,1.92
2.80820095539093,1,3,3,0,-9.529999999999999,0.5600000000000001,2.18,-7.89,-0.7,1.92
2.818200945854187,1,3,3,0,-9.51,0.53,2.06,-7.94,-0.72,1.97
2.828200936317444,1,3,3,0,-9.4,0.44,2.16,-8.380000000000001,-0.6,2.03
2.838200926780701,1,3,3,0,-9.42,0.38,2.05,-8.84,-0.64,2.06
2.848200917243958,1,3,3,0,-9.44,0.29,2.18,-9.23,-0.66,2.1
2.858200907707214,1,3,3,0,-9.42,0.24,2.36,-9.23,-0.66,2.1
2.868200898170471,1,3,3,0,-9.529999999999999,-0.13,2.23,-9.59,-0.75,2.08
2.878200888633728,1,3,3,0,-9.51,-0.31,2.38,-10.16,-0.9399999999999999,1.9
2.888200879096985,1,3,3,0,-9.42,-0.32,2.18,-10.3,-1.07,1.77
2.898200869560242,1,3,3,0,-9.52,-0.46,2.48,-10,-1.87,1.64
2.908200860023499,1,3,3,0,-9.69,-0.8100000000000001,2.34,-10,-1.87,1.64
2.918200850486755,1,3,3,0,-9.970000000000001,-0.97,2.15,-9.31,-2.22,1.58
2.928201079368591,1,3,3,0,-10.04,-1.03,2.23,-7.8,-2.44,1.57
2.938201069831848,1,3,3,0,-10.01,-0.89,2.31,-7.21,-2.31,1.54
2.948201060295105,1,3,3,0,-9.74,-0.39,2.66,-6.6,-2.02,1.47
2.958201050758362,1,3,3,0,-9.56,-0.15,2.93,-6.6,-2.02,1.47
2.968201041221619,1,3,3,0,-9.35,0.12,3.15,-5.97,-1.59,1.42
2.978201031684875,1,3,3,0,-9.19,0.4,3.17,-4.02,0.25,1.3
2.988201022148132,1,3,3,0,-9.140000000000001,0.97,2.94,-3.09,1.27,1.22
2.998201012611389,1,3,3,0,-9.34,1.22,2.88,-2.63,1.92,1.22
3.008201003074646,1,3,3,0,-9.52,1.54,2.65,-2.63,1.92,1.22
3.018200993537903,1,3,3,0,-9.6,2.08,2.4,-2.61,2.32,1.21
3.02820098400116,1,3,3,0,-9.59,2.33,2.3,-3.5,2.67,1.49
3.038200974464417,1,3,3,0,-9.609999999999999,2.52,2.29,-4.29,2.1,1.62
3.048200964927673,1,3,3,0,-9.65,2.67,2.49,-5.17,1.3,1.78
3.05820095539093,1,3,3,0,-9.49,2.78,2.85,-5.17,1.3,1.78
3.068200945854187,1,3,3,0,-9.31,2.68,2.47,-6.02,0.55,1.87
3.078200936317444,1,3,3,0,-9.18,2.47,2.3,-7.98,0.2,1.9
3.088200926780701,1,3,3,0,-9.01,2.27,2.24,-8.800000000000001,-0.25,1.91
3.098200917243958,1,3,3,0,-9.01,1.85,2.71,-9.6,-0.8100000000000001,1.75
3.108200907707214,1,3,3,0,-9.19,1.52,2.74,-9.6,-0.8100000000000001,1.75
3.118200898170471,1,3,3,0,-9.619999999999999,1.17,2.72,-10.35,-1.27,1.39
3.128200888633728,1,3,3,0,-9.949999999999999,0.78,2.78,-10.71,-2.12,1.15
3.138200879096985,1,3,3,0,-10.52,0.38,3.07,-10.25,-3.19,1.22
3.148200869560242,1,3,3,0,-10.77,0.09,3.58,-9.779999999999999,-4,1.29
3.158200860023499,1,3,3,0,-10.58,-0.06,3.22,-9.779999999999999,-4,1.29
3.168200850486755,1,3,3,0,-10.41,-0.09,2.8,-9.06,-3.93,1.43
3.178201079368591,1,3,3,0,-9.720000000000001,-0.28,2.72,-7.56,-3.17,2.47
3.188201069831848,1,3,3,0,-9.35,-0.22,2.68,-7.07,-2.69,3.1
3.198201060295105,1,3,3,0,-9.15,-0.13,2.7,-6.92,-2.32,3.61
3.208201050758362,1,3,3,0,-8.789999999999999,0.08,2.79,-6.92,-2.32,3.61
3.218201041221619,1,3,3,0,-8.52,0.2,2.96,-7.17,-1.92,3.92
3.228201031684875,1,3,3,0,-8.4,0.21,3,-7.98,-1.47,3.85
3.238201022148132,1,3,3,0,-8.390000000000001,0.19,2.96,-8.25,-1.65,3.51
3.248201012611389,1,3,3,0,-8.44,0.08,2.97,-8.289999999999999,-1.77,3.19
3.258201003074646,1,3,3,0,-8.58,0.09,2.89,-8.289999999999999,-1.77,3.19
3.268200993537903,1,3,3,0,-8.66,0.12,2.96,-8.1,-1.79,2.99
3.27820098400116,1,3,3,0,-8.66,0.21,2.97,-7.54,-1.89,2.52
3.288200974464417,1,3,3,0,-8.609999999999999,0.32,3.06,-7.45,-1.87,2.36
3.298200964927673,1,3,3,0,-8.49,0.38,3.22,-7.58,-1.71,2.26
3.30820095539093,1,3,3,0,-8.390000000000001,0.44,3.24,-7.58,-1.71,2.26
3.318200945854187,1,3,3,0,-8.380000000000001,0.42,3.35,-7.84,-1.49,2.28
3.328200936317444,1,3,3,0,-8.289999999999999,0.42,3.36,-8.49,-0.88,2.38
3.338200926780701,1,3,3,0,-8.289999999999999,0.35,3.27,-8.619999999999999,-0.44,2.54
3.348200917243958,1,3,3,0,-8.289999999999999,0.25,3.37,-8.65,-0.04,2.6
3.358200907707214,1,3,3,0,-8.32,0.19,3.51,-8.65,-0.04,2.6
3.368200898170471,1,3,3,0,-8.33,0.1,3.77,-8.69,0.17,2.7
3.378200888633728,1,3,3,0,-8.380000000000001,0.1,3.81,-8.880000000000001,0.4,2.82
3.388200879096985,1,3,3,0,-8.42,0.07000000000000001,3.76,-9.210000000000001,0.45,2.79
3.398200869560242,1,3,3,0,-8.529999999999999,0.06,3.75,-9.51,0.44,2.7
3.408200860023499,1,3,3,0,-8.640000000000001,-0.02,3.81,-9.51,0.44,2.7
3.418200850486755,1,3,3,0,-8.66,-0.11,3.8,-9.76,0.35,2.62
3.428201079368591,1,3,3,0,-8.710000000000001,-0.16,3.8,-9.970000000000001,0.41,2.31
3.438201069831848,1,3,3,0,-8.550000000000001,-0.27,3.61,-9.970000000000001,0.41,2.31
3.448201060295105,1,3,3,0,-8.449999999999999,-0.33,3.6,-9.69,0.6,2.11
3.458201050758362,1,3,3,0,-8.42,-0.4,3.53,-9.69,0.6,2.11
3.468201041221619,1,3,3,0,-8.34,-0.49,3.56,-9.56,0.84,2
3.478201031684875,1,3,3,0,-8.19,-0.59,3.68,-9.550000000000001,1.39,2.11
3.488201022148132,1,3,3,0,-8.16,-0.6899999999999999,3.84,-9.550000000000001,1.39,2.11
3.498201012611389,1,3,3,0,-8.15,-0.6899999999999999,4.04,-9.74,1.62,2.25
3.508201003074646,1,3,3,0,-8.199999999999999,-0.7,4.19,-9.82,1.76,2.36
3.518200993537903,1,3,3,0,-8.26,-0.83,4.36,-9.59,1.78,2.53
3.52820098400116,1,3,3,0,-8.32,-0.96,4.44,-9.02,1.9,2.7
3.538200974464417,1,3,3,0,-8.380000000000001,-1.07,4.46,-7.19,2.28,3.1
3.548200964927673,1,3,3,0,-8.5,-1.17,4.57,-7.19,2.28,3.1
3.55820095539093,1,3,3,0,-8.869999999999999,-1.29,4.66,-6.2,2.38,3.19
3.568200945854187,1,3,3,0,-9.029999999999999,-1.32,4.63,-5.11,2.43,3.17
3.578200936317444,1,3,3,0,-9.19,-1.27,4.63,-4.04,2.49,3.19
3.588200926780701,1,3,3,0,-9.380000000000001,-1.23,4.5,-3.08,2.55,3.22
3.598200917243958,1,3,3,0,-9.6,-1.15,4.61,-1.96,2.28,3.07
3.608200907707214,1,3,3,0,-9.59,-1.03,4.66,-1.96,2.28,3.07
3.618200898170471,1,3,3,0,-9.550000000000001,-1.02,4.68,-1.69,2.03,2.85
3.628200888633728,1,3,3,0,-9.26,-0.97,4.67,-1.49,1.63,2.53
3.639201045036316,1,3,3,0,-9.18,-0.8,4.77,-1.29,1.34,2.28
3.649201035499573,1,3,3,0,-9.140000000000001,-0.63,4.97,-0.9399999999999999,1.01,1.95
3.65920102596283,1,3,3,0,-9.300000000000001,-0.38,5.24,-0.37,0.44,1.63
3.669201016426086,1,3,3,0,-9.93,0.08,4.9,0.09,-0.26,1.4
3.679201006889343,1,3,3,0,-10.05,0.25,4.57,-0.03,-0.77,1.2
3.6892009973526,1,3,3,0,-9.9,0.34,4.7,-0.39,-0.82,1.13
3.699200987815857,1,3,3,0,-9.77,0.48,4.96,-0.1,-0.76,1.22
3.709200978279114,1,3,3,0,-10.2,0.7,4.52,0.1,-0.93,1.25
3.719200968742371,1,3,3,0,-10.31,0.83,4.4,-0.38,-0.83,1.41
3.729200959205627,1,3,3,0,-10.41,0.8,4.04,-0.89,-0.5600000000000001,1.7
3.739200949668884,1,3,3,0,-10.53,1.03,3.7,-0.66,-0.18,2.03
3.749200940132141,1,3,3,0,-11.11,1.69,4.17,0.37,-0.23,2.15
3.759200930595398,1,3,3,0,-11.14,1.86,4.05,1.08,-0.62,2.16
3.769200921058655,1,3,3,0,-10.93,2.01,3.62,1.02,-0.53,2.29
3.779200911521912,1,3,3,0,-10.42,2.11,3.2,0.67,0.05,2.29
3.789200901985168,1,3,3,0,-9.119999999999999,2.55,2.47,0.03,0.91,2.21
3.799200892448425,1,3,3,0,-8.529999999999999,2.77,2.32,-0.66,1.89,2.05
3.809200882911682,1,3,3,0,-8.039999999999999,2.97,2.12,-1.48,2.81,1.8
3.819200873374939,1,3,3,0,-7.7,3.24,1.59,-2.63,3.48,1.39
3.829200863838196,1,3,3,0,-7.77,3.29,1.47,-4.04,3.99,0.92
3.839200854301453,1,3,3,0,-7.9,3.28,1.35,-5.44,4.25,0.47
3.849200844764709,1,3,3,0,-8.27,3.26,1.3,-6.93,4.31,0.05
3.859201073646545,1,3,3,0,-8.800000000000001,2.91,1.37,-8.5,4.13,-0.29
3.869201064109802,1,3,3,0,-8.99,2.6,1.29,-9.869999999999999,3.91,-0.45
3.879201054573059,1,3,3,0,-9.279999999999999,2.25,1.27,-10.88,3.58,-0.5
3.889201045036316,1,3,3,0,-9.41,2.05,1.22,-11.59,3.17,-0.32
3.899201035499573,1,3,3,0,-9.49,1.94,1.3,-12.26,2.88,-0.13
3.90920102596283,1,3,3,0,-9.5,1.8,1.31,-12.81,2.84,0.02
3.919201016426086,1,3,3,1,-9.529999999999999,1.62,1.38,-13.18,2.87,0.14
3.929201006889343,1,3,3,1,-9.57,1.38,1.38,-13.29,3.02,0.17
3.9392009973526,1,3,3,1,-9.720000000000001,0.87,1.34,-12.96,3.22,0.22
3.949200987815857,1,3,3,1,-9.74,0.68,1.43,-12.51,3.41,0.37
3.959200978279114,1,3,3,1,-9.75,0.64,1.52,-11.98,3.62,0.64
3.969200968742371,1,3,3,1,-9.75,0.64,1.53,-11.52,3.92,0.95
3.979200959205627,1,3,3,1,-9.699999999999999,0.6,1.56,-11.21,4.21,1.3
3.989200949668884,1,3,3,1,-9.69,0.61,1.5,-11.17,4.38,1.65
3.999200940132141,1,3,3,1,-9.640000000000001,0.55,1.45,-11.22,4.42,1.9
4.009200930595398,1,3,3,1,-9.609999999999999,0.52,1.4,-11.26,4.37,2.13
4.019200921058655,1,3,3,2,-9.550000000000001,0.47,1.38,-11.29,4.25,2.36
4.029200911521912,1,3,3,2,-9.59,0.45,1.4,-11.31,4.14,2.45
4.039200901985168,1,3,3,2,-9.539999999999999,0.46,1.36,-11.24,3.94,2.46
4.049200892448425,1,3,3,2,-9.49,0.45,1.5,-11.09,3.66,2.42
4.059200882911682,1,3,3,2,-9.5,0.5,1.57,-10.95,3.28,2.38
4.069200873374939,1,3,3,2,-9.390000000000001,0.5600000000000001,1.54,-10.78,3,2.24
4.079200863838196,1,3,3,2,-9.32,0.59,1.64,-10.64,2.85,2.17
4.089200854301453,1,3,3,2,-9.300000000000001,0.65,1.56,-10.63,2.63,2.17
4.099200844764709,1,3,3,2,-9.279999999999999,0.7,1.61,-10.77,2.45,2.18
4.109201073646545,1,3,3,2,-9.390000000000001,0.76,1.71,-10.92,2.3,2.3
4.119201064109802,1,3,3,2,-9.34,0.79,1.67,-11.23,2.24,2.44
4.129201054573059,1,3,3,2,-9.51,0.78,1.73,-11.45,2.07,2.62
4.139201045036316,1,3,3,2,-9.539999999999999,0.74,1.72,-11.71,1.84,2.84
4.149201035499573,1,3,3,2,-9.59,0.68,1.83,-11.93,1.66,3.06
4.15920102596283,1,3,3,2,-9.550000000000001,0.58,1.82,-11.96,1.49,3.25
4.169201016426086,1,3,3,2,-9.550000000000001,0.27,1.84,-11.86,1.29,3.43
4.179201006889343,1,3,3,2,-9.449999999999999,0.09,1.82,-11.61,1.13,3.62
4.1892009973526,1,3,3,2,-9.41,-0.05,1.87,-11.16,0.92,3.72
4.199200987815857,1,3,3,2,-9.34,-0.28,1.96,-10.55,0.68,3.77
4.209200978279114,1,3,3,2,-9.34,-0.37,2.05,-9.74,0.44,3.8
4.219200968742371,1,3,3,2,-9.41,-0.47,2.06,-8.779999999999999,0.12,3.75
4.229200959205627,1,3,3,2,-9.41,-0.46,2.15,-7.84,-0.25,3.64
4.239200949668884,1,3,3,2,-9.42,-0.25,1.9,-6.99,-0.54,3.51
4.249200940132141,1,3,3,2,-9.48,-0.24,1.78,-6.22,-0.82,3.34
4.259200930595398,1,3,3,2,-9.59,-0.24,1.69,-5.52,-1.31,3.11
4.269200921058655,1,3,3,2,-9.67,-0.19,1.72,-4.93,-1.79,2.89
4.279200911521912,1,3,3,2,-9.720000000000001,-0.12,1.68,-4.41,-2.24,2.71
4.289200901985168,1,3,3,2,-9.67,-0.05,1.5,-4.2,-2.59,2.49
4.299200892448425,1,3,3,2,-9.58,0.05,1.48,-4.18,-2.81,2.22
4.309200882911682,1,3,3,2,-9.49,0.16,1.61,-4.37,-2.95,2.05
4.319200873374939,1,3,3,2,-9.43,0.4,2.01,-4.84,-3.05,2.06
4.329200863838196,1,3,3,2,-9.390000000000001,0.4,2.11,-5.58,-3.17,2.11
4.339200854301453,1,3,3,2,-9.33,0.34,2.08,-6.48,-3.25,2.22
4.349200844764709,1,3,3,2,-9.210000000000001,0.28,2.08,-7.31,-3.09,2.34
4.359201073646545,1,3,3,2,-9.050000000000001,-0.02,2.29,-7.95,-2.93,2.43
4.369201064109802,1,3,3,1,-9.02,-0.12,2.3,-8.380000000000001,-2.91,2.49
4.379201054573059,1,3,3,1,-9.01,-0.18,2.4,-8.609999999999999,-2.83,2.54
4.389201045036316,1,3,3,1,-9.08,-0.22,2.39,-8.67,-2.8,2.58
4.399201035499573,1,3,3,1,-9.27,-0.24,2.34,-8.73,-2.64,2.62
4.40920102596283,1,3,3,1,-9.4,-0.21,2.41,-8.84,-2.35,2.65
4.419201016426086,1,3,3,1,-9.44,-0.1,2.51,-9.210000000000001,-1.9,2.79
4.429201006889343,1,3,3,1,-9.449999999999999,0.01,2.54,-9.68,-1.44,2.96
4.4392009973526,1,3,3,1,-9.470000000000001,-0.09,2.47,-10.24,-0.92,3.17
4.449200987815857,1,3,3,1,-9.49,-0.29,2.29,-10.81,-0.31,3.42
4.459200978279114,1,3,3,1,-9.49,-0.57,2.2,-11.33,0.51,3.63
4.469200968742371,1,3,3,1,-9.48,-1.29,2.1,-11.75,1.42,3.85
4.479200959205627,1,3,3,1,-9.42,-1.71,2.19,-12.03,2.19,4.02
4.489200949668884,1,3,3,1,-9.41,-2.03,2.17,-11.96,2.81,4.04
4.499200940132141,1,3,3,1,-9.52,-2.3,2.29,-11.38,3.33,3.87
4.509200930595398,1,3,3,1,-9.84,-2.59,2.64,-10.23,3.68,3.51
4.519200921058655,1,3,3,1,-9.949999999999999,-2.68,2.63,-8.369999999999999,4.05,3.08
4.529200911521912,1,3,3,1,-10.14,-2.51,2.46,-5.91,4.55,2.61
4.539200901985168,1,3,3,1,-10.34,-2.33,2.21,-3.21,5.12,2.24
4.549200892448425,1,3,3,1,-10.56,-1.82,2.4,-0.25,5.75,1.95
4.559200882911682,1,3,3,1,-10.66,-1.42,2.66,2.95,6.26,1.73
4.569200873374939,1,3,3,1,-10.65,-1.05,2.86,6.13,6.56,1.4
4.579200863838196,1,3,3,1,-10.6,-0.45,2.2,9.35,6.87,0.95
4.589200854301453,1,3,3,1,-10.96,0.96,1.37,12.04,6.96,0.34
4.599200844764709,1,3,3,1,-11.03,1.94,1.51,13.7,6.66,-0.38
4.609201073646545,1,3,3,1,-10.96,3.07,1.55,14.68,6.22,-1.2
4.619201064109802,1,3,3,1,-10.91,4.64,1.38,14.53,5.73,-1.99
4.629201054573059,1,3,3,1,-10.89,4.9,1.25,13.05,5.01,-2.78
4.639201045036316,1,3,3,1,-10.9,4.88,1.21,11.07,4.14,-3.55
4.649201035499573,1,3,3,1,-10.77,4.7,1.4,8.94,2.94,-4.24
4.65920102596283,1,3,3,1,-10.41,4.12,2,6.84,1.28,-4.98
4.670200943946838,1,3,3,1,-10.26,3.77,1.85,4.99,-0.39,-5.72
4.680200934410095,1,3,3,1,-10.14,3.39,1.85,3.59,-1.52,-6.34
4.690200924873352,1,3,3,1,-10.09,2.93,2.09,2.58,-2.42,-6.74
4.700200915336609,1,3,3,1,-9.94,2.08,1.7,2.11,-3.34,-6.93
4.710200905799866,1,3,3,1,-10,1.49,1.86,2.17,-3.66,-6.85
4.720200896263123,1,3,3,1,-10.1,1.14,1.9,2.51,-3.91,-6.5
4.730200886726379,1,3,3,1,-10.12,0.8100000000000001,1.72,3.3,-3.79,-5.96
4.740200877189636,1,3,3,1,-10.44,0.58,1.57,4.23,-3.3,-5.29
4.750200867652893,1,3,3,1,-10.54,0.57,1.76,5.22,-3.06,-4.62
4.76020085811615,1,3,3,1,-10.56,0.57,1.85,6.21,-3.22,-4.07
4.770200848579407,1,3,3,1,-10.37,0.62,1.73,7.13,-3.42,-3.64
4.780201077461243,1,3,3,1,-9.970000000000001,0.64,1.75,7.86,-3.59,-3.39
4.7902010679245,1,3,3,1,-9.65,0.6,1.74,8.470000000000001,-3.68,-3.22
4.800201058387756,1,3,3,1,-9.48,0.55,1.96,9.039999999999999,-3.83,-3.24
4.810201048851013,1,3,3,1,-9.35,0.24,2.87,9.65,-4.68,-3.37
4.82020103931427,1,3,3,1,-9.1,0.36,2.41,10.39,-5.52,-3.77
4.830201029777527,1,3,3,1,-8.92,0.4,2.06,11.35,-5.56,-4.17
4.840201020240784,1,3,3,1,-8.85,0.4,2,12.04,-5.17,-4.54
4.850201010704041,1,3,3,1,-8.550000000000001,0.51,2.15,12.52,-4.88,-4.79
4.860201001167297,1,3,3,1,-8.49,0.51,2.15,12.76,-4.44,-4.97
4.870200991630554,1,3,3,1,-8.52,0.57,2.35,12.84,-4.1,-5.01
4.880200982093811,1,3,3,1,-8.449999999999999,0.59,2.39,13.03,-4.07,-5.02
4.890200972557068,1,3,3,1,-8.24,0.68,1.98,13.31,-3.79,-5.05
4.900200963020325,1,3,3,1,-8.119999999999999,0.67,1.98,13.53,-3.43,-5.06
4.910200953483582,1,3,3,1,-7.99,0.73,2.12,13.57,-2.97,-5.06
4.920200943946838,1,3,3,1,-7.94,0.62,2.55,13.68,-2.65,-4.98
4.930200934410095,1,3,3,1,-8.039999999999999,0.39,2.98,14.17,-2.74,-4.9
4.940200924873352,1,3,3,1,-7.97,0.4,2.82,15.34,-3.07,-5.02
4.950200915336609,1,3,3,1,-7.96,0.43,2.42,16.31,-3.06,-5.17
4.960200905799866,1,3,3,1,-7.98,0.38,2.41,16.69,-2.68,-5.15
4.970200896263123,1,3,3,1,-8,0.48,2.65,17.04,-2.31,-4.96
4.980200886726379,1,3,3,1,-8.15,0.43,2.96,17.54,-1.91,-4.67
4.990200877189636,1,3,3,1,-8.19,0.47,2.54,17.96,-1.68,-4.41
5.000200867652893,1,3,3,1,-8.32,0.39,2.25,17.74,-1.18,-4.27
5.01020085811615,1,3,3,1,-8.710000000000001,0.01,2.41,17.11,-0.71,-4.11
5.020200848579407,1,3,3,1,-8.85,-0.13,2.41,16.02,-0.37,-3.99
5.030201077461243,2,3,3,1,-8.85,-0.36,2.28,15.28,-0.25,-4.01
5.0402010679245,2,3,3,1,-8.960000000000001,-0.64,2.72,14.9,-0.03,-4.16
5.050201058387756,2,3,3,1,-9.07,-1.01,2.88,15.42,-0.46,-4.49
5.060201048851013,2,3,3,1,-8.949999999999999,-1.41,3.41,15.79,-0.88,-4.79
5.07020103931427,2,3,3,1,-8.720000000000001,-1.56,2.92,16.47,-0.79,-4.98
5.080201029777527,2,3,3,1,-8.68,-2.03,2.65,17.51,-0.58,-5.09
5.090201020240784,2,3,3,1,-8.970000000000001,-1.98,2.77,18.7,-0.48,-5.07
5.100201010704041,2,3,3,1,-8.81,-1.91,2.64,20.17,-0.63,-5.12
5.110201001167297,2,3,3,1,-8.630000000000001,-1.85,2.44,21.92,-0.34,-5.09
5.120200991630554,2,3,3,1,-8.6,-1.24,2.22,23.57,0.07000000000000001,-4.83
5.130200982093811,2,3,3,1,-8.720000000000001,-0.74,2.51,25.06,0.74,-4.55
5.140200972557068,2,3,3,1,-9.07,-0.19,2.49,26.09,1.13,-4.13
5.150200963020325,2,3,3,1,-9.48,0.24,2.83,26.47,1.23,-3.76
5.160200953483582,2,3,3,1,-10.22,0.88,2.82,26.59,1.24,-3.52
5.170200943946838,2,3,3,1,-10.45,1.14,3.02,26.34,1.12,-3.41
5.180200934410095,2,3,3,1,-10.7,1.38,3.01,25.71,1.06,-3.46
5.190200924873352,2,3,3,1,-10.89,1.58,2.97,24.49,1.02,-3.67
5.200200915336609,2,3,3,1,-10.48,1.67,3.01,22.91,1.2,-3.85
5.210200905799866,2,3,3,1,-10,1.66,2.95,21.19,1.58,-3.94
5.220200896263123,2,3,3,0,-9.57,1.55,2.76,19.62,2.14,-3.8
5.230200886726379,2,3,3,0,-8.93,1.18,2.66,18.25,2.83,-3.41
5.240200877189636,2,3,3,0,-8.83,1,2.51,17.41,3.48,-2.91
5.250200867652893,2,3,3,0,-8.970000000000001,0.97,2.2,17.45,3.94,-2.49
5.26020085811615,2,3,3,0,-9.06,0.87,1.87,18.28,4,-2.04
5.270200848579407,2,3,3,0,-9.19,1.03,1.35,19.83,3.89,-1.51
5.280201077461243,2,3,3,0,-9.49,1.29,1.04,21.94,3.73,-0.82
5.2902010679245,2,3,3,0,-10.05,1.68,0.2,24.08,3.32,-0.03
5.300201058387756,2,3,3,0,-10.63,2.06,-0.42,25.97,2.66,0.86
5.310201048851013,2,3,3,0,-12,2.99,-0.91,27.47,2.29,1.78
5.32020103931427,2,3,3,0,-13.47,3.59,-0.58,27.84,2.24,2.53
5.330201029777527,2,3,3,0,-15.2,4.08,-0.19,27.4,1.76,3
5.340201020240784,2,3,3,0,-15.75,3.98,0.59,26.22,0.54,3.02
5.350201010704041,2,3,3,0,-13.51,3.12,2.37,23.51,-0.49,2.64
5.360201001167297,2,3,3,0,-12.22,2.69,2.51,19.81,-1.13,1.92
5.370200991630554,2,3,3,0,-11.05,2.27,2.17,16.91,-2.08,1.14
5.380200982093811,2,3,3,0,-9.82,1.73,1.83,15.3,-3.14,0.59
5.390200972557068,2,3,3,0,-7.65,0.35,1.5,14.74,-3.59,0.44
5.400200963020325,2,3,3,0,-7.03,-0.2,1.05,15.23,-3.66,0.46
5.410200953483582,2,3,3,0,-6.66,-0.61,1.54,15.9,-3.05,0.33
5.420200943946838,2,3,3,0,-7.33,-1.18,0.26,17.13,-2.35,0.13
5.430200934410095,2,3,3,0,-7.38,-1.05,-0.89,19.41,-2.67,0.07000000000000001
5.440200924873352,2,3,3,0,-7.49,-1.27,-1.33,22.45,-2.6,0.2
5.450200915336609,2,3,3,0,-8.42,-1.52,-1.46,24.24,-1.57,0.19
5.460200905799866,2,3,3,0,-10.6,-1.29,-1.4,25.26,-1.16,-0.26
5.470200896263123,2,3,3,0,-11.03,-1.09,-1.51,26.95,-1.99,-0.9
5.480200886726379,2,3,3,0,-11.08,-1.05,-1.67,28.85,-3.03,-1.52
5.490200877189636,2,3,3,0,-11.08,-0.9,-1.64,29.85,-3.53,-2.3
5.500200867652893,2,3,3,0,-10.77,-0.22,-0.8100000000000001,30.5,-3.94,-3.06
5.51020085811615,2,3,3,0,-10.1,0.29,-0.95,31.25,-4.92,-3.5
5.520200848579407,2,3,3,0,-9.52,0.53,-1.21,31.61,-5.06,-3.79
5.530201077461243,2,3,3,0,-9.390000000000001,0.78,-1,30.92,-4.66,-4.1
5.5402010679245,2,3,3,0,-8.83,1.44,-0.92,30.04,-4.14,-4.42
5.550201058387756,2,3,3,0,-8.69,1.6,-0.8,28.72,-3.3,-4.69
5.560201048851013,2,3,3,0,-8.75,1.69,-0.6899999999999999,27.18,-2.4,-4.94
5.57020103931427,2,3,3,0,-8.859999999999999,1.6,-0.61,25.78,-1.67,-5.15
5.580201029777527,2,3,3,0,-9.35,1.4,-0.62,24.72,-1.45,-5.15
5.590201020240784,2,3,3,0,-9.57,1.39,-0.6899999999999999,23.79,-1.35,-5.02
5.600201010704041,2,3,3,0,-9.6,1.43,-0.77,23.2,-1.34,-4.82
5.610201001167297,2,3,3,0,-9.94,1.38,-0.63,22.72,-1.41,-4.55
5.620200991630554,2,3,3,0,-10,1.47,-0.55,22.39,-2,-4.25
5.630200982093811,2,3,3,0,-9.91,1.53,-0.47,22.29,-2.83,-4.02
5.640200972557068,2,3,3,0,-9.890000000000001,1.54,-0.57,21.84,-3.24,-3.99
5.650200963020325,2,3,3,0,-9.69,1.74,-0.59,21.25,-3.48,-4.26
5.660200953483582,2,3,3,0,-9.640000000000001,1.88,-0.44,21.1,-3.6,-4.61
5.670200943946838,2,3,3,0,-9.66,1.81,-0.26,21.69,-3.85,-4.89
5.680200934410095,2,3,3,0,-9.68,1.65,-0.25,21.98,-3.8,-5.23
5.691200852394104,2,3,3,0,-9.699999999999999,1.34,-0.36,21.95,-3.56,-5.52
5.701200842857361,2,3,3,0,-9.75,1.18,-0.3,22.04,-3.21,-5.77
5.711201071739197,2,3,3,0,-9.75,1.08,-0.32,22.21,-2.83,-5.81
5.721201062202454,2,3,3,0,-9.76,1.03,-0.26,22.4,-2.4,-5.71
5.73120105266571,2,3,3,0,-9.699999999999999,1.12,-0.3,22.47,-2.08,-5.55
5.741201043128967,2,3,3,0,-9.67,1.21,-0.32,22.49,-1.67,-5.3
5.751201033592224,2,3,3,0,-9.68,1.28,-0.3,22.59,-1.3,-4.97
5.761201024055481,2,3,3,0,-9.75,1.32,-0.25,22.48,-1.15,-4.52
5.771201014518738,2,3,3,0,-9.869999999999999,1.37,-0.37,22.14,-1.15,-4.08
5.781201004981995,2,3,3,0,-9.880000000000001,1.45,-0.47,21.63,-1.2,-3.72
5.791200995445251,2,3,3,0,-9.82,1.59,-0.42,21.23,-1.31,-3.34
5.801200985908508,2,3,3,0,-9.720000000000001,1.74,-0.29,21.22,-1.42,-2.95
5.811200976371765,2,3,3,0,-9.59,1.83,-0.3,21.01,-1.39,-2.57
5.821200966835022,2,3,3,0,-9.57,1.92,-0.27,20.6,-1.34,-2.34
5.831200957298279,2,3,3,0,-9.609999999999999,2.04,-0.2,20.38,-1.74,-2.14
5.841200947761536,2,3,3,0,-9.67,2.09,-0.16,20.6,-2.68,-2
5.851200938224792,2,3,3,0,-9.51,2.26,-0.53,20.45,-3.37,-1.98
5.861200928688049,2,3,3,0,-9.539999999999999,2.32,-0.52,20.24,-3.46,-2.09
5.871200919151306,2,3,3,0,-9.57,2.34,-0.28,19.74,-3.55,-2.25
5.881200909614563,2,3,3,0,-9.74,2.57,-0.25,18.97,-3.62,-2.49
5.89120090007782,2,3,3,0,-9.83,2.68,-0.24,18.18,-3.5,-2.72
5.901200890541077,2,3,3,0,-9.890000000000001,2.82,-0.08,17.31,-3.28,-2.9
5.911200881004333,2,3,3,0,-9.81,2.87,0.14,16.33,-3.04,-3.04
5.92120087146759,2,3,3,0,-9.83,2.87,0.43,15.17,-3.13,-3.06
5.931200861930847,2,3,3,0,-9.779999999999999,2.86,0.25,13.93,-3.5,-3.08
5.941200852394104,2,3,3,0,-9.779999999999999,2.76,0.24,12.85,-3.81,-3.05
5.951200842857361,2,3,3,0,-9.640000000000001,2.72,0.31,12,-4.27,-3.03
5.961201071739197,2,3,3,0,-9.48,2.64,0.33,11.75,-4.68,-3
5.971201062202454,2,3,3,0,-9.369999999999999,2.72,0.44,12.05,-4.9,-2.96
5.98120105266571,2,3,3,0,-9.24,2.84,0.53,12.49,-4.86,-2.86
5.991201043128967,2,3,3,0,-9.17,2.92,0.52,12.91,-4.72,-2.72
6.001201033592224,2,3,3,0,-9.220000000000001,2.85,0.87,13.12,-4.45,-2.48
6.011201024055481,2,3,3,0,-9.369999999999999,2.98,1.17,12.72,-4.17,-2.31
6.021201014518738,2,3,3,0,-9.470000000000001,3.11,1.38,11.93,-4.07,-2.06
6.031201004981995,2,3,3,0,-9.42,3.06,1.46,11.03,-4.04,-1.75
6.041200995445251,2,3,3,0,-9.369999999999999,3.06,1.52,9.880000000000001,-3.93,-1.34
6.051200985908508,2,3,3,0,-9.41,2.9,1.61,8.6,-3.74,-1.03
6.061200976371765,2,3,3,0,-9.359999999999999,2.61,1.64,7.13,-3.59,-0.83
6.071200966835022,2,3,3,0,-9.23,1.96,1.91,5.65,-3.36,-0.8100000000000001
6.081200957298279,2,3,3,0,-9.220000000000001,1.4,1.91,4.66,-2.94,-0.92
6.091200947761536,2,3,3,0,-9.369999999999999,0.67,2.03,3.97,-2.44,-1.2
6.101200938224792,2,3,3,0,-9.73,0.12,2.74,3.32,-1.97,-1.65
6.111200928688049,2,3,3,0,-10.21,0,3.78,2.6,-1.79,-2.3
6.121200919151306,2,3,3,0,-10.36,-0.1,4.02,1.82,-1.59,-3.05
6.131200909614563,2,3,3,0,-10.46,-0.32,3.92,1.21,-1.34,-3.78
6.14120090007782,2,3,3,0,-10.61,-0.74,3.43,1.32,-1.31,-4.28
6.151200890541077,2,3,3,0,-11.25,-1.66,3.07,1.72,-1.7,-4.35
6.161200881004333,2,3,3,0,-11.52,-1.9,2.96,2.18,-2.27,-4.25
6.17120087146759,2,3,3,0,-11.61,-2.16,2.83,2.96,-3.01,-4.05
6.181200861930847,2,3,3,0,-11.44,-2.33,2.85,3.95,-3.84,-3.83
6.191200852394104,2,3,3,0,-10.77,-2.27,2.62,5.25,-4.57,-3.53
6.201200842857361,2,3,3,0,-10.34,-1.99,2.74,6.81,-5.05,-3.27
6.211201071739197,2,3,3,0,-9.85,-1.84,2.91,8.49,-5.42,-3.1
6.221201062202454,2,3,3,0,-8.800000000000001,-1.1,2.97,9.92,-5.46,-3.05
6.23120105266571,2,3,3,0,-8.380000000000001,-0.7,2.7,11.68,-5.21,-3.18
6.241201043128967,2,3,3,0,-8.050000000000001,-0.61,2.66,13.22,-4.73,-3.64
6.251201033592224,2,3,3,0,-7.87,-0.67,2.94,14.14,-4.36,-4.24
6.261201024055481,2,3,3,0,-7.91,-0.66,3,14.91,-4.02,-4.82
6.271201014518738,2,3,3,0,-8.210000000000001,-0.62,2.96,15.19,-3.63,-5.29
6.281201004981995,2,3,3,0,-8.619999999999999,-0.55,3.23,15.23,-3.68,-5.51
6.291200995445251,2,3,3,0,-8.85,-0.44,3.38,15.28,-3.85,-5.44
6.301200985908508,2,3,3,0,-9.460000000000001,0.04,3.15,15.95,-3.95,-5.18
6.311200976371765,2,3,3,0,-9.76,0.22,2.72,16.39,-3.8,-4.72
6.321200966835022,2,3,3,0,-9.960000000000001,0.46,2.46,16.11,-3.47,-4.11
6.331200957298279,2,3,3,0,-9.960000000000001,0.63,2.47,15.44,-3.02,-3.39
6.341200947761536,2,3,3,0,-9.91,1.12,2.57,14.52,-2.62,-2.69
6.351200938224792,2,3,3,0,-9.83,1.23,2.72,13.39,-2.38,-2.17
6.361200928688049,2,3,3,0,-9.68,1.44,2.39,12,-2.37,-1.85
6.371200919151306,2,3,3,0,-9.35,1.56,2.1,10.55,-2.22,-1.76
6.381200909614563,2,3,3,0,-8.890000000000001,1.7,2.05,9.199999999999999,-1.79,-1.7
6.39120090007782,2,3,3,0,-8.75,1.62,2.18,8,-1.56,-1.77
6.401200890541077,2,3,3,0,-8.56,1.61,2.29,6.83,-1.35,-1.92
6.411200881004333,2,3,3,0,-8.43,1.45,2.4,5.79,-1.12,-2.05
6.42120087146759,2,3,3,0,-8.34,1.36,2.51,4.85,-0.78,-2.1
6.431200861930847,2,3,3,0,-8.27,1.31,2.59,4.06,-0.43,-2.13
6.441200852394104,2,3,3,0,-8.279999999999999,1.26,2.61,3.39,-0.1,-2.08
6.451200842857361,2,3,3,0,-8.44,1.14,2.79,2.97,0.21,-1.87
6.461201071739197,2,3,3,0,-8.52,1.04,2.85,2.87,0.48,-1.63
6.471201062202454,2,3,3,0,-8.6,0.96,2.84,2.94,0.6899999999999999,-1.33
6.48120105266571,2,3,3,0,-8.59,0.88,2.76,3.19,0.89,-0.97
6.491201043128967,2,3,3,0,-8.42,0.77,2.4,3.66,1.21,-0.57
6.501201033592224,2,3,3,0,-8.42,0.78,2.29,4.32,1.61,-0.17
6.511201024055481,2,3,3,0,-8.359999999999999,0.8100000000000001,2.47,5.37,2.07,0.16
6.521201014518738,2,3,3,0,-8.390000000000001,0.84,2.67,6.9,2.34,0.38
6.531201004981995,2,3,3,0,-8.51,1.03,1.95,8.279999999999999,2.46,0.39
6.541200995445251,2,3,3,0,-8.390000000000001,1.21,1.5,9.08,2.64,0.31
6.551200985908508,2,3,3,0,-8.279999999999999,1.46,1.32,9.42,3.03,0.42
6.561200976371765,2,3,3,0,-8.130000000000001,1.68,1.28,9.390000000000001,3.48,0.52
6.571200966835022,2,3,3,0,-7.97,2.29,1.77,8.800000000000001,3.72,0.52
6.581200957298279,2,3,3,0,-8.1,2.51,1.44,8.1,3.56,0.47
6.591200947761536,2,3,3,0,-8.359999999999999,2.5,1.23,6.97,3.26,0.4
6.601200938224792,2,3,3,0,-8.880000000000001,2.93,1.52,5.31,2.99,0.61
6.611200928688049,2,3,3,0,-9.15,3.17,2.06,3.49,2.59,0.92
6.621200919151306,2,3,3,0,-9.449999999999999,3.22,2.7,1.15,2.08,1.25
6.631200909614563,2,3,3,0,-10.19,3.13,3.41,-2.12,0.88,1.13
6.64120090007782,2,3,3,0,-12.95,2.45,3.2,-5.17,-1.18,0.55
6.651200890541077,2,3,3,0,-14.73,1.86,2.82,-6.78,-4.24,-0.16
6.661200881004333,2,3,3,0,-15.64,1.24,1.86,-6.24,-6.36,-0.08
6.67120087146759,2,3,3,0,-15.7,0.6899999999999999,1.23,-4.74,-6.64,0.44
6.681200861930847,2,3,3,0,-11.97,-0.22,1.9,-3.25,-4.95,0.61
6.691200852394104,2,3,3,0,-10.62,-0.59,1.88,-1.25,-2.72,0.42
6.701200842857361,2,3,3,0,-9.640000000000001,-0.89,2.1,0.53,-1.39,0.27
6.711201071739197,2,3,3,0,-8.41,-0.95,2.16,2.02,-0.44,0.09
6.722200989723206,2,3,3,0,-6.48,-0.82,2.54,3.4,0.5600000000000001,0.16
6.732200980186462,2,3,3,0,-5.86,-1.03,1.95,4.66,1.33,0.42
6.742200970649719,2,3,3,0,-5.82,-1.02,1.52,5.46,2.21,0.63
6.752200961112976,2,3,3,0,-6.17,-1.14,1.4,6.42,2.71,0.85
6.762200951576233,2,3,3,0,-8.19,-0.73,1.41,7.35,2.68,0.91
6.77220094203949,2,3,3,0,-9.32,-0.5,1.62,7.98,2.21,0.73
6.782200932502747,2,3,3,0,-10.17,-0.12,1.54,8.390000000000001,1.64,0.31
6.792200922966003,2,3,3,0,-10.92,0.3,1.37,8.51,1.2,-0.17
6.80220091342926,2,3,3,0,-11.67,1.1,1.36,8.210000000000001,0.99,-0.67
6.812200903892517,2,3,3,0,-11.6,1.42,1.43,7.25,0.92,-1.09
6.822200894355774,2,3,3,0,-11.27,1.64,1.47,5.73,0.89,-1.3
6.832200884819031,2,3,3,0,-10.35,1.66,1.47,3.89,1.02,-1.26
6.842200875282288,2,3,3,0,-9.93,1.68,1.46,1.95,1.12,-1.18
6.852200865745544,2,3,3,0,-9.5,1.64,1.44,0.22,1.25,-0.9399999999999999
6.862200856208801,2,3,3,0,-9.06,1.5,1.62,-1.28,1.52,-0.64
6.872200846672058,2,3,3,0,-8.69,1.03,1.61,-2.55,1.89,-0.42
6.882201075553894,2,3,3,0,-8.630000000000001,0.8100000000000001,1.63,-3.5,2.26,-0.34
6.892201066017151,2,3,3,0,-8.84,0.51,1.48,-4.02,2.59,-0.4
6.902201056480408,2,3,3,0,-9.16,0.21,1.52,-4.18,2.79,-0.53
6.912201046943665,2,3,3,0,-9.68,-0.03,1.44,-3.96,2.65,-0.65
6.922201037406921,2,3,3,0,-9.81,0,1.46,-3.7,2.54,-0.68
6.932201027870178,2,3,3,0,-9.960000000000001,0.01,1.44,-3.4,2.31,-0.7
6.942201018333435,2,3,3,0,-10.09,-0.04,1.42,-3.02,2,-0.68
6.952201008796692,2,3,3,0,-10.12,-0.06,1.55,-2.6,1.69,-0.59
6.962200999259949,2,3,3,0,-10.07,-0.09,1.61,-2.2,1.42,-0.39
6.972200989723206,2,3,3,0,-10.02,-0.17,1.5,-1.89,1.22,-0.07000000000000001
6.982200980186462,2,3,3,0,-9.94,-0.15,1.44,-1.46,0.98,0.26
6.992200970649719,2,3,3,0,-9.77,-0.1,1.36,-1.01,0.74,0.5600000000000001
7.002200961112976,2,3,3,0,-9.720000000000001,-0.04,1.41,-0.55,0.36,0.82
7.012200951576233,2,3,3,0,-9.66,0.12,1.6,-0.12,-0.04,1.03
7.02220094203949,2,3,3,0,-9.609999999999999,0.39,1.55,0.35,-0.39,1.16
7.032200932502747,2,3,3,0,-9.6,0.47,1.51,0.79,-0.61,1.17
7.042200922966003,2,3,3,0,-9.59,0.51,1.44,1.04,-0.84,1.13
7.05220091342926,2,3,3,0,-9.58,0.53,1.44,1.16,-1.01,0.98
7.062200903892517,2,3,3,0,-9.5,0.71,1.57,1.32,-1.16,0.87
7.072200894355774,2,3,3,0,-9.449999999999999,0.77,1.58,1.52,-1.28,0.76
7.082200884819031,2,3,3,0,-9.48,0.86,1.48,1.68,-1.32,0.61
7.092200875282288,2,3,3,0,-9.51,0.9399999999999999,1.36,1.7,-1.37,0.53
7.102200865745544,2,3,3,0,-9.609999999999999,1.14,1.52,1.51,-1.45,0.5
7.112200856208801,2,3,3,0,-9.67,1.23,1.45,1.25,-1.48,0.45
7.122200846672058,2,3,3,0,-9.74,1.32,1.44,1.14,-1.52,0.38
7.132201075553894,2,3,3,0,-9.779999999999999,1.33,1.4,1.03,-1.55,0.25
7.142201066017151,2,3,3,0,-9.75,1.39,1.38,0.65,-1.54,0.2
7.152201056480408,2,3,3,0,-9.699999999999999,1.41,1.45,0.17,-1.72,0.15
7.162201046943665,2,3,3,0,-9.66,1.43,1.48,-0.41,-2.01,0.13
7.172201037406921,2,3,3,0,-9.66,1.59,1.42,-0.62,-2.4,0
7.182201027870178,2,3,3,0,-9.65,1.34,1.35,-1.01,-2.68,-0.12
7.192201018333435,2,3,3,0,-9.68,1.32,1.33,-1.49,-2.86,-0.23
7.202201008796692,2,3,3,0,-9.59,1.35,1.45,-1.91,-3.02,-0.3
7.212200999259949,2,3,3,0,-9.279999999999999,1.67,1.47,-2.17,-2.77,-0.39
7.222200989723206,2,3,3,0,-9.34,1.67,1.35,-2.73,-2.18,-0.49
7.232200980186462,2,3,3,0,-9.449999999999999,1.56,1.36,-3.72,-1.55,-0.5600000000000001
7.242200970649719,2,3,3,0,-9.550000000000001,1.43,1.37,-4.5,-0.93,-0.61
7.252200961112976,2,3,3,0,-9.65,1.28,1.74,-5.18,-0.36,-0.5600000000000001
7.262200951576233,2,3,3,0,-9.59,1.3,1.66,-5.89,0.11,-0.52
7.27220094203949,2,3,3,0,-9.539999999999999,1.22,1.78,-6.36,0.6,-0.49
7.282200932502747,2,3,3,0,-9.529999999999999,1.2,1.78,-6.48,1.03,-0.48
7.292200922966003,2,3,3,0,-9.52,1.1,1.65,-6.31,1.22,-0.39
7.30220091342926,2,3,3,0,-9.470000000000001,1.05,1.79,-5.9,1.38,-0.28
7.312200903892517,2,3,3,0,-9.390000000000001,1.06,1.83,-5.36,1.58,-0.11
7.322200894355774,2,3,3,0,-9.34,1.04,1.87,-4.8,1.73,0.1
7.332200884819031,2,3,3,0,-9.42,0.88,1.84,-4.08,1.77,0.28
7.342200875282288,2,3,3,0,-9.48,0.91,1.96,-3.37,1.75,0.43
7.352200865745544,2,3,3,0,-9.4,0.99,2.1,-2.99,1.65,0.61
7.362200856208801,2,3,3,0,-9.44,1.02,2.03,-2.6,1.48,0.76
7.372200846672058,2,3,3,0,-9.58,0.9399999999999999,1.98,-2.33,1.25,0.85
7.382201075553894,2,3,3,0,-9.69,0.89,2.03,-2.14,0.93,0.88
7.392201066017151,2,3,3,0,-9.81,0.91,2.19,-2.12,0.54,0.92
7.402201056480408,2,3,3,0,-9.99,1.07,2.49,-2.27,0.16,0.97
7.412201046943665,2,3,3,0,-10.08,1.2,2.54,-2.42,-0.25,0.96
7.422201037406921,2,3,3,0,-10.16,1.25,2.52,-2.44,-0.54,0.95
7.432201027870178,2,3,3,0,-10.18,1.19,2.72,-2.49,-0.92,0.96
7.442201018333435,2,3,3,0,-10.01,0.9399999999999999,2.93,-2.65,-1.16,0.99
7.452201008796692,2,3,3,0,-9.94,0.79,3.13,-3.04,-1.18,1.07
7.462200999259949,2,3,3,0,-9.83,0.8100000000000001,3.08,-3.61,-1.07,0.95
7.472200989723206,2,3,3,0,-9.75,0.76,2.95,-3.77,-1.07,0.72
7.482200980186462,2,3,3,0,-9.51,0.4,2.67,-3.48,-1.12,0.55
7.492200970649719,2,3,3,0,-9.51,0.23,3.08,-3.12,-1.34,0.48
7.502200961112976,2,3,3,0,-9.390000000000001,0.12,3.83,-2.4,-2.18,0.61
7.512200951576233,2,3,3,0,-9.18,0.17,3.57,-1.01,-2.96,0.67
7.52220094203949,2,3,3,1,-9.24,0.13,2.99,-0.6,-3.22,0.35
7.532200932502747,2,3,3,1,-8.880000000000001,0.27,2.69,-0.34,-3.27,-0.04
7.542200922966003,2,3,3,1,-8.5,0.23,2.4,-0.04,-2.68,-0.32
7.55220091342926,2,3,3,1,-8.34,0.16,2.94,0.21,-2.14,-0.36
7.562200903892517,2,3,3,1,-7.72,-0.02,2.44,0.57,-1.82,-0.35
7.572200894355774,2,3,3,1,-7.67,0.04,1.97,0.23,-0.79,-0.32
7.582200884819031,2,3,3,1,-7.64,-0.04,2.06,-0.28,0.22,-0.17
7.592200875282288,2,3,3,1,-7.61,-0.1,2,-0.79,1.01,0
7.602200865745544,2,3,3,1,-7.86,-0.01,2.06,-1.1,1.76,0.17
7.612200856208801,2,3,3,1,-8.01,0.07000000000000001,2.07,-1.27,2.32,0.29
7.622200846672058,2,3,3,1,-8.130000000000001,0.12,1.97,-1.24,2.7,0.39
7.632201075553894,2,3,3,1,-8.51,0.2,1.96,-1.14,2.95,0.42
7.642201066017151,2,3,3,1,-8.75,0.27,1.99,-1,3.06,0.31
7.652201056480408,2,3,3,1,-9.140000000000001,0.44,2.13,-0.86,2.95,0.09
7.662201046943665,2,3,3,1,-9.66,0.66,2.42,-0.53,2.6,-0.24
7.672201037406921,2,3,3,1,-10.76,1.22,2.58,0.08,1.94,-0.59
7.682201027870178,2,3,3,1,-11.25,1.36,2.49,0.74,1.35,-0.9
7.692201018333435,2,3,3,1,-11.65,1.45,2.51,1.18,0.8100000000000001,-1.26
7.702201008796692,2,3,3,1,-11.83,1.56,2.59,1.51,0.18,-1.57
7.712200999259949,2,3,3,1,-11.69,1.5,3.58,2.22,-0.92,-1.71
7.722200989723206,2,3,3,1,-11.01,1.43,2.66,3.12,-2.13,-1.79
7.732200980186462,2,3,3,1,-10.49,1.37,1.84,3.01,-2.01,-1.99
7.743200898170471,2,3,3,1,-10.08,1.19,1.77,2.43,-1.55,-1.91
7.753200888633728,2,3,3,1,-9.050000000000001,0.8,1.66,1.87,-1.09,-1.5
7.763200879096985,2,3,3,1,-8.83,0.67,2.07,1.65,-0.63,-1.03
7.773200869560242,2,3,3,1,-8.67,0.6,2.4,1.76,-0.71,-0.67
7.783200860023499,2,3,3,1,-8.550000000000001,0.63,2.3,2.07,-0.83,-0.49
7.793200850486755,2,3,3,1,-8.880000000000001,0.72,1.99,2.46,-1.04,-0.4
7.803201079368591,2,3,3,1,-8.970000000000001,0.73,2.06,2.46,-1.27,-0.41
7.813201069831848,2,3,3,1,-9.109999999999999,0.88,2.29,2.35,-1.34,-0.42
7.823201060295105,2,3,3,1,-9.199999999999999,1.21,1.93,2.37,-1.31,-0.46
7.833201050758362,2,3,3,1,-9.390000000000001,1.27,2.05,2.14,-1.07,-0.58
7.843201041221619,2,3,3,1,-9.550000000000001,1.28,2.19,1.71,-1.33,-0.62
7.853201031684875,2,3,3,1,-9.59,1.31,1.98,1.29,-1.48,-0.63
7.863201022148132,2,3,3,1,-9.75,1.14,1.97,0.79,-1.35,-0.6
7.873201012611389,2,3,3,1,-9.77,1.08,1.96,0.43,-1.3,-0.47
7.883201003074646,2,3,3,1,-9.77,1.08,1.96,0.38,-1.25,-0.33
7.893200993537903,2,3,3,1,-9.800000000000001,0.95,1.69,0.47,-1.12,-0.08
7.90320098400116,2,3,3,1,-9.699999999999999,0.83,1.93,0.48,-0.97,0.08
7.913200974464417,2,3,3,1,-9.6,0.87,1.96,0.36,-0.75,0.29
7.923200964927673,2,3,3,1,-9.59,0.89,2,0.18,-0.49,0.44
7.93320095539093,2,3,3,1,-9.550000000000001,0.86,2.07,0.15,-0.22,0.54
7.943200945854187,2,3,3,1,-9.49,0.84,1.92,0.29,-0.13,0.61
7.953200936317444,2,3,3,1,-9.48,0.8100000000000001,1.95,0.48,0.05,0.67
7.963200926780701,2,3,3,1,-9.41,0.84,2.04,0.55,0.33,0.73
7.973200917243958,2,3,3,1,-9.369999999999999,0.9,2.04,0.59,0.66,0.73
7.983200907707214,2,3,3,1,-9.369999999999999,0.98,2.06,0.58,0.85,0.7
7.993200898170471,2,3,3,1,-9.33,0.96,2.02,0.55,0.97,0.65
8.003200888633728,2,3,3,1,-9.33,1.06,2.05,0.47,1.16,0.58
8.013200879096985,2,3,3,1,-9.369999999999999,1.13,2.06,0.41,1.31,0.46
8.023200869560242,2,3,3,1,-9.41,1.13,2.19,0.31,1.46,0.33
8.033200860023499,2,3,3,1,-9.48,1.1,2.38,0.32,1.4,0.24
8.043200850486755,2,3,3,1,-9.5,1.03,2.34,0.33,1.24,0.08
8.053201079368591,2,3,3,1,-9.550000000000001,1.12,2.19,0.44,1.16,-0.01
8.063201069831848,2,3,3,1,-9.58,1.08,2.13,0.58,1.15,-0.07000000000000001
8.073201060295105,2,3,3,1,-9.58,1.08,2.13,0.61,1.08,-0.08
8.083201050758362,2,3,3,1,-9.619999999999999,1.09,2.14,0.7,0.99,0.01
8.093201041221619,2,3,3,1,-9.449999999999999,1.02,2.27,0.85,0.71,0.09
8.103201031684875,2,3,3,1,-9.4,1.01,2.2,1.01,0.43,0.12
8.113201022148132,2,3,3,1,-9.359999999999999,1.02,2.13,1.1,0.39,0.15
8.123201012611389,2,3,3,1,-9.359999999999999,1.02,2.13,1.08,0.37,0.25
8.133201003074646,2,3,3,1,-9.359999999999999,1.03,2.12,1.06,0.33,0.36
8.143200993537903,2,3,3,1,-9.390000000000001,1.15,2.05,0.97,0.24,0.48
8.15320098400116,2,3,3,1,-9.4,1.27,2.1,0.99,-0.01,0.57
8.163200974464417,2,3,3,1,-9.359999999999999,1.35,2.05,1.13,-0.02,0.58
8.173200964927673,2,3,3,1,-9.460000000000001,1.42,2.04,0.99,0.06,0.6
8.18320095539093,2,3,3,1,-9.5,1.46,1.97,0.99,0.06,0.6
8.193200945854187,2,3,3,1,-9.529999999999999,1.44,1.83,0.82,0.14,0.67
8.203200936317444,2,3,3,1,-9.66,1.48,1.97,0.31,0.43,0.64
8.213200926780701,2,3,3,1,-9.699999999999999,1.44,2.12,0.11,0.24,0.63
8.223200917243958,2,3,3,1,-9.630000000000001,1.47,2.12,-0.02,0,0.64
8.233200907707214,2,3,3,1,-9.56,1.45,2.07,-0.02,0,0.64
8.243200898170471,2,3,3,1,-9.390000000000001,1.41,1.77,-0.21,0.03,0.58
8.253200888633728,2,3,3,1,-9.32,1.37,1.78,-0.54,0.23,0.41
8.263200879096985,2,3,3,1,-9.27,1.31,1.73,-0.61,0.35,0.28
8.273200869560242,2,3,3,2,-9.27,1.31,1.73,-0.6899999999999999,0.37,0.04
8.283200860023499,2,3,3,2,-9.26,1.24,1.82,-0.6899999999999999,0.37,0.04
8.293200850486755,2,3,3,2,-9.31,1.12,1.84,-0.7,0.25,-0.2
8.303201079368591,2,3,3,2,-9.35,1.08,1.91,-0.44,-0.12,-0.83
8.313201069831848,2,3,3,2,-9.390000000000001,1.08,1.99,-0.28,-0.44,-1.13
8.323201060295105,2,3,3,2,-9.390000000000001,1.08,1.99,-0.01,-0.51,-1.3
8.333201050758362,2,3,3,2,-9.359999999999999,1.13,1.84,-0.01,-0.51,-1.3
8.343201041221619,2,3,3,2,-9.44,0.99,1.75,0.13,-0.41,-1.39
8.353201031684875,2,3,3,2,-9.550000000000001,1.01,1.84,-0.16,-0.46,-1.34
8.363201022148132,2,3,3,2,-9.640000000000001,1.04,2.08,-0.24,-0.63,-1.26
8.373201012611389,2,3,3,2,-9.640000000000001,1.04,1.98,-0.16,-0.61,-1.11
8.383201003074646,2,3,3,2,-9.609999999999999,1.03,1.95,-0.16,-0.61,-1.11
8.393200993537903,2,3,3,2,-9.550000000000001,1.13,1.82,-0.2,-0.42,-0.9399999999999999
8.40320098400116,2,3,3,2,-9.539999999999999,1.12,1.88,-0.51,0.09,-0.47
8.413200974464417,2,3,3,2,-9.529999999999999,1.13,1.92,-0.66,0.3,-0.19
8.423200964927673,2,3,3,2,-9.529999999999999,1.12,1.9,-0.83,0.41,0.03
8.43320095539093,2,3,3,2,-9.6,1.1,1.83,-0.83,0.41,0.03
8.443200945854187,2,3,3,2,-9.630000000000001,1.11,1.73,-1.01,0.49,0.26
8.453200936317444,2,3,3,2,-9.640000000000001,1.05,1.79,-1.33,0.58,0.5600000000000001
8.463200926780701,2,3,3,2,-9.59,1,1.9,-1.49,0.59,0.62
8.473200917243958,2,3,3,2,-9.550000000000001,0.9399999999999999,2.01,-1.63,0.54,0.66
8.483200907707214,2,3,3,2,-9.550000000000001,0.9399999999999999,2.01,-1.63,0.54,0.66
8.493200898170471,2,3,3,2,-9.58,0.86,1.87,-1.72,0.46,0.67
8.503200888633728,2,3,3,2,-9.550000000000001,0.83,1.92,-1.78,0.39,0.64
8.513200879096985,2,3,3,2,-9.539999999999999,0.77,1.95,-1.85,0.35,0.64
8.523200869560242,2,3,3,2,-9.539999999999999,0.77,1.95,-1.85,0.35,0.64
8.533200860023499,2,3,3,2,-9.550000000000001,0.74,1.98,-1.75,0.39,0.61
8.543200850486755,2,3,3,2,-9.51,0.71,1.89,-1.62,0.43,0.59
8.553201079368591,2,3,3,2,-9.470000000000001,0.77,1.98,-1.49,0.46,0.63
8.563201069831848,2,3,3,2,-9.470000000000001,0.8,1.99,-1.13,0.52,0.55
8.573201060295105,2,3,3,2,-9.470000000000001,0.8,1.99,-1.13,0.52,0.55
8.583201050758362,2,3,3,2,-9.51,0.82,1.99,-0.95,0.55,0.53
8.593201041221619,2,3,3,2,-9.529999999999999,0.89,1.93,-0.75,0.59,0.53
8.603201031684875,2,3,3,2,-9.529999999999999,0.91,1.97,-0.47,0.61,0.44
8.613201022148132,2,3,3,2,-9.529999999999999,0.91,2.01,-0.22,0.58,0.41
8.623201012611389,2,3,3,2,-9.529999999999999,0.91,2.01,-0.22,0.58,0.41
8.633201003074646,2,3,3,2,-9.51,0.9399999999999999,2.05,-0.07000000000000001,0.5600000000000001,0.35
8.643200993537903,2,3,3,2,-9.539999999999999,0.95,1.91,0.06,0.47,0.28
8.65320098400116,2,3,3,2,-9.56,0.99,1.95,0.18,0.39,0.22
8.663200974464417,2,3,3,2,-9.56,1.03,2,0.18,0.3,0.14
8.673200964927673,2,3,3,2,-9.56,1.03,2,0.17,0.13,0.06
8.68320095539093,2,3,3,2,-9.539999999999999,1.06,2.05,0.17,0.13,0.06
8.693200945854187,2,3,3,2,-9.52,1.1,1.95,0.04,0.05,0.04
8.703200936317444,2,3,3,2,-9.51,1.14,2.01,-0.01,0.03,0.02
8.713200926780701,2,3,3,2,-9.49,1.09,2.04,-0.16,-0.03,0
8.723200917243958,2,3,3,2,-9.49,1.09,2.04,-0.16,-0.03,0
8.733200907707214,2,3,3,2,-9.51,1.08,2.04,-0.39,-0.1,-0.02
8.743200898170471,2,3,3,2,-9.529999999999999,1.05,1.93,-0.43,-0.1,-0.03
8.753200888633728,2,3,3,2,-9.529999999999999,1.03,1.95,-0.44,-0.12,-0.02
8.764201045036316,2,3,3,2,-9.51,1.03,1.97,-0.39,-0.12,-0.05
8.774201035499573,2,3,3,2,-9.51,1.03,1.97,-0.39,-0.12,-0.05
8.78420102596283,2,3,3,2,-9.470000000000001,1.01,1.98,-0.4,-0.12,-0.05
8.794201016426086,2,3,3,2,-9.44,0.99,1.91,-0.45,-0.1,-0.01
8.804201006889343,2,3,3,2,-9.42,1,1.92,-0.47,-0.06,0.01
8.8142009973526,2,3,3,2,-9.49,1.05,2.03,-0.45,0,0.02
8.824200987815857,2,3,3,2,-9.49,1.05,2.03,-0.45,0,0.02
8.834200978279114,2,3,3,2,-9.51,1.04,2.01,-0.47,0.04,0
8.844200968742371,2,3,3,2,-9.52,1.08,1.96,-0.45,0.05,-0.02
8.854200959205627,2,3,3,2,-9.52,1.09,1.96,-0.45,0.06,-0.07000000000000001
8.864200949668884,2,3,3,2,-9.529999999999999,1.07,1.99,-0.41,0.1,-0.14
8.874200940132141,2,3,3,2,-9.529999999999999,1.07,1.99,-0.41,0.1,-0.14
8.884200930595398,2,3,3,2,-9.51,1.06,2.04,-0.43,0.13,-0.21
8.904200911521912,2,3,3,2,-9.449999999999999,1.06,2,-0.52,0.16,-0.27
8.914200901985168,2,3,3,2,-9.44,1.06,2.02,-0.53,0.16,-0.29
8.924200892448425,2,3,3,2,-9.44,1.06,2.02,-0.53,0.16,-0.29
8.934200882911682,2,3,3,2,-9.449999999999999,1.08,2.07,-0.55,0.11,-0.32
8.944200873374939,2,3,3,2,-9.49,1.06,1.98,-0.57,0.06,-0.37
8.954200863838196,2,3,3,2,-9.5,1.03,2,-0.61,0.02,-0.4
8.964200854301453,2,3,3,2,-9.51,1.02,2.08,-0.6,-0.01,-0.43
8.974200844764709,2,3,3,2,-9.51,1.02,2.08,-0.6,-0.01,-0.43
8.984201073646545,2,3,3,2,-9.48,0.97,2.13,-0.6,-0.06,-0.44
8.994201064109802,2,3,3,2,-9.49,0.93,1.99,-0.54,-0.08,-0.41
9.004201054573059,2,3,3,2,-9.470000000000001,0.91,2.07,-0.51,-0.13,-0.39
9.014201045036316,2,3,3,2,-9.470000000000001,0.91,2.07,-0.5,-0.11,-0.35
9.024201035499573,2,3,3,2,-9.470000000000001,0.92,2.09,-0.5,-0.11,-0.35
9.03420102596283,2,3,3,2,-9.470000000000001,0.91,2.14,-0.51,-0.1,-0.31
9.044201016426086,2,3,3,2,-9.460000000000001,0.93,2.11,-0.46,-0.1,-0.26
9.054201006889343,2,3,3,2,-9.460000000000001,0.93,2,-0.38,-0.1,-0.23
9.0642009973526,2,3,3,2,-9.470000000000001,0.9399999999999999,2.05,-0.32,-0.08,-0.2
9.074200987815857,2,3,3,2,-9.470000000000001,0.93,2.08,-0.32,-0.08,-0.2
9.084200978279114,2,3,3,2,-9.470000000000001,0.92,2.11,-0.26,-0.11,-0.19
9.094200968742371,2,3,3,2,-9.449999999999999,0.89,2.08,-0.29,-0.08,-0.16
9.104200959205627,2,3,3,2,-9.44,0.87,2.03,-0.26,-0.03,-0.13
9.114200949668884,2,3,3,2,-9.44,0.85,2.07,-0.26,-0.02,-0.09
9.124200940132141,2,3,3,2,-9.460000000000001,0.84,2.06,-0.06,-0.01,-0.07000000000000001
9.134200930595398,2,3,3,2,-9.460000000000001,0.88,2.13,-0.06,-0.01,-0.07000000000000001
9.144200921058655,2,3,3,2,-9.470000000000001,0.88,2.05,0.06,0.01,-0.06
9.154200911521912,2,3,3,2,-9.449999999999999,0.88,1.98,0.13,-0.01,-0.08
9.164200901985168,2,3,3,2,-9.470000000000001,0.89,1.98,0.18,-0.03,-0.06
9.174200892448425,2,3,3,2,-9.5,0.89,2.06,0.18,-0.03,-0.06
9.184200882911682,2,3,3,2,-9.48,0.9,2.07,0.38,0.03,-0.04
9.194200873374939,2,3,3,2,-9.49,0.93,2.08,0.41,0.01,-0.08
9.204200863838196,2,3,3,2,-9.48,0.9399999999999999,1.97,0.45,-0.04,-0.1
9.214200854301453,2,3,3,2,-9.5,0.95,2.03,0.44,-0.04,-0.08
9.224200844764709,2,3,3,2,-9.5,0.95,2.05,0.44,-0.04,-0.08
9.234201073646545,2,3,3,2,-9.49,0.97,2.06,0.41,-0.07000000000000001,-0.1
9.244201064109802,2,3,3,2,-9.49,0.98,2.03,0.34,-0.11,-0.11
9.254201054573059,2,3,3,2,-9.49,0.97,1.97,0.34,-0.12,-0.14
9.264201045036316,2,3,3,2,-9.5,0.99,2.01,0.32,-0.13,-0.13
9.274201035499573,2,3,3,2,-9.49,0.99,2.02,0.32,-0.13,-0.13
9.28420102596283,2,3,3,2,-9.51,0.99,2.14,0.27,-0.13,-0.11
9.294201016426086,2,3,3,2,-9.51,1,2.07,0.22,-0.24,-0.15
9.304201006889343,2,3,3,2,-9.5,1.01,1.93,0.13,-0.24,-0.13
9.3142009973526,2,3,3,2,-9.52,0.99,1.99,0.09,-0.29,-0.14
9.324200987815857,2,3,3,2,-9.43,1,2.01,0.09,-0.29,-0.14
9.334200978279114,2,3,3,2,-9.449999999999999,1.02,1.98,-0.06,-0.31,-0.16
9.344200968742371,2,3,3,2,-9.449999999999999,0.95,2.08,-0.23,-0.05,0
9.354200959205627,2,3,3,2,-9.43,0.95,2.02,-0.36,0.04,0.02
9.364200949668884,2,3,3,2,-9.48,1.02,1.95,-0.37,0.02,0.09
9.374200940132141,2,3,3,2,-9.5,1.01,1.95,-0.37,0.02,0.09
9.384200930595398,2,3,3,2,-9.51,1.01,2.01,-0.27,0.07000000000000001,0.12
9.394200921058655,2,3,3,2,-9.51,1,2.04,-0.27,0.01,0.09
9.404200911521912,2,3,3,2,-9.52,0.97,1.93,-0.25,0.03,0.1
9.414200901985168,2,3,3,2,-9.52,0.97,1.92,-0.22,0.03,0.04
9.424200892448425,2,3,3,2,-9.52,0.99,1.95,-0.22,0.03,0.04
9.434200882911682,2,3,3,2,-9.51,0.96,1.99,-0.05,0.06,0.01
9.444200873374939,2,3,3,2,-9.5,0.98,1.99,-0.03,0.08,-0.03
9.454200863838196,2,3,3,2,-9.5,0.97,1.9,-0.03,0.02,-0.03
9.464200854301453,2,3,3,2,-9.51,0.97,1.92,-0.03,0.01,-0.04
9.474200844764709,2,3,3,2,-9.5,0.96,2.04,-0.03,0.01,-0.04
9.484201073646545,2,3,3,2,-9.48,0.97,2.03,-0.03,-0.01,-0.12
9.494201064109802,2,3,3,2,-9.51,0.99,2.01,-0.02,0,-0.13
9.504201054573059,2,3,3,2,-9.51,1,1.91,0.06,0,-0.13
9.514201045036316,2,3,3,2,-9.51,0.96,1.95,0.08,-0.02,-0.12
9.524201035499573,2,3,3,2,-9.52,0.98,1.99,0.08,-0.02,-0.12
9.53420102596283,2,3,3,2,-9.529999999999999,0.98,2.03,0.13,-0.11,-0.13
9.544201016426086,2,3,3,2,-9.52,1,2.03,0.15,-0.05,-0.1
9.554201006889343,2,3,3,2,-9.52,0.99,1.95,0.2,-0.04,-0.12
9.5642009973526,2,3,3,2,-9.52,1.02,1.99,0.18,-0.06,-0.13
9.574200987815857,2,3,3,2,-9.5,1,1.99,0.18,-0.06,-0.13
9.584200978279114,2,3,3,2,-9.49,1.01,2.03,0.24,0.01,-0.11
9.594200968742371,2,3,3,2,-9.49,1.02,1.99,0.24,-0.01,-0.09
9.604200959205627,2,3,3,2,-9.48,0.98,1.91,0.26,-0.02,-0.09
9.614200949668884,2,3,3,2,-9.48,1,1.97,0.26,-0.02,-0.09
9.624200940132141,2,3,3,2,-9.48,0.99,2.03,0.26,-0.02,-0.09
9.634200930595398,2,3,3,2,-9.470000000000001,0.99,2.03,0.25,-0.02,-0.12
9.644200921058655,2,3,3,2,-9.5,0.99,2.01,0.28,0,-0.08
9.654200911521912,2,3,3,2,-9.48,1.02,1.92,0.3,0.02,-0.06
9.664200901985168,2,3,3,2,-9.470000000000001,0.99,1.98,0.29,0.02,-0.1
9.674200892448425,2,3,3,2,-9.49,1.02,2.02,0.29,0.02,-0.1
9.684200882911682,2,3,3,2,-9.48,1.03,2.01,0.3,0.04,-0.06
9.694200873374939,2,3,3,2,-9.51,1.05,2.02,0.24,0.01,-0.06
9.704200863838196,2,3,3,2,-9.5,1.02,1.93,0.16,0.01,-0.06
9.714200854301453,2,3,3,2,-9.5,1.03,1.95,0.14,0.03,-0.05
9.724200844764709,2,3,3,2,-9.49,1.05,1.98,0.14,0.03,-0.05
9.734201073646545,2,3,3,2,-9.48,1.04,1.99,0.13,0.03,0
9.744201064109802,2,3,3,2,-9.48,1.05,1.97,0.09,0.03,0.03
9.754201054573059,2,3,3,2,-9.48,1.06,1.92,0.04,0.04,0.03
9.764201045036316,2,3,3,2,-9.49,1.1,1.91,-0.03,0.05,0.07000000000000001
9.774201035499573,2,3,3,2,-9.51,1.09,2.01,-0.03,0.05,0.07000000000000001
9.78420102596283,2,3,3,2,-9.470000000000001,1.06,2.03,-0.09,0.07000000000000001,0.09
9.795200943946838,2,3,3,2,-9.470000000000001,1.07,2.01,-0.18,0.1,0.12
9.805200934410095,2,3,3,2,-9.5,1.04,1.9,-0.26,0.09,0.1
9.815200924873352,2,3,3,2,-9.52,1.03,1.95,-0.34,0.09,0.13
9.825200915336609,2,3,3,2,-9.529999999999999,1,1.99,-0.34,0.09,0.13
9.835200905799866,2,3,3,2,-9.51,1.01,2.02,-0.43,0.09,0.18
9.845200896263123,2,3,3,2,-9.5,1,2.05,-0.55,0.11,0.23
9.855200886726379,2,3,3,2,-9.449999999999999,0.91,1.97,-0.59,0.09,0.24
9.865200877189636,2,3,3,2,-9.48,0.9,2,-0.5600000000000001,0.12,0.25
9.875200867652893,2,3,3,2,-9.470000000000001,0.87,2.05,-0.5600000000000001,0.12,0.25
9.88520085811615,2,3,3,3,-9.460000000000001,0.88,2.05,-0.45,0.16,0.3
9.895200848579407,2,3,3,3,-9.48,0.86,1.97,-0.22,0.15,0.28
9.905201077461243,2,3,3,3,-9.48,0.89,1.91,-0.14,0.17,0.27
9.9152010679245,2,3,3,3,-9.5,0.84,1.94,-0.11,0.13,0.29
9.925201058387756,2,3,3,3,-9.51,0.87,2.01,-0.11,0.13,0.29
9.935201048851013,2,3,3,3,-9.5,0.87,2.06,-0.03,0.1,0.25
9.94520103931427,2,3,3,3,-9.5,0.87,2.04,0.01,0.1,0.27
9.955201029777527,2,3,3,3,-9.48,0.91,1.96,0.06,0.14,0.27
9.965201020240784,2,3,3,3,-9.49,0.9,1.96,0.11,0.13,0.31
9.975201010704041,2,3,3,3,-9.51,0.92,2.02,0.11,0.13,0.31
9.985201001167297,2,3,3,3,-9.52,0.93,2.06,0.11,0.17,0.31
9.995200991630554,2,3,3,3,-9.5,0.95,2.06,0.1,0.22,0.27
10.00520098209381,2,3,3,3,-9.52,1.03,1.95,0.09,0.2,0.23
10.01520097255707,2,3,3,3,-9.5,1.04,2,0.06,0.2,0.22
10.02520096302032,2,3,3,3,-9.5,1.04,2.04,0.06,0.2,0.22
10.03520095348358,2,3,3,3,-9.49,1.04,2.02,0.02,0.18,0.23
10.04520094394684,2,3,3,3,-9.460000000000001,1.05,1.99,-0.09,0.09,0.18
10.0552009344101,2,3,3,3,-9.43,1.05,1.95,-0.15,0.04,0.16
10.06520092487335,2,3,3,3,-9.460000000000001,1.04,1.99,-0.19,0.08,0.13
10.07520091533661,2,3,3,3,-9.460000000000001,1.07,2.05,-0.19,0.08,0.13
10.08520090579987,2,3,3,3,-9.51,1.07,2.07,-0.28,0.03,0.08
10.09520089626312,2,3,3,3,-9.529999999999999,1.03,2.07,-0.31,0.06,0.05
10.10520088672638,2,3,3,3,-9.529999999999999,1.03,1.96,-0.31,0.06,0.04
10.11520087718964,2,3,3,3,-9.52,1.02,1.96,-0.32,0.03,0.09
10.12520086765289,2,3,3,3,-9.49,0.96,2.03,-0.32,0.03,0.09
10.13520085811615,2,3,3,3,-9.470000000000001,0.96,2.06,-0.33,0.08,0.1
10.14520084857941,2,3,3,3,-9.460000000000001,0.96,2.06,-0.36,0.05,0.09
10.15520107746124,2,3,3,3,-9.460000000000001,0.99,1.96,-0.3,0.02,0.06
10.1652010679245,2,3,3,3,-9.460000000000001,1.01,1.99,-0.22,0.03,0.03
10.17520105838776,2,3,3,3,-9.49,1,2,-0.22,0.03,0.03
10.18520104885101,2,3,3,3,-9.48,0.99,2.05,-0.18,0,-0.06
10.19520103931427,2,3,3,3,-9.449999999999999,1.01,2,-0.17,-0.06,-0.05
10.20520102977753,2,3,3,3,-9.460000000000001,1,1.92,-0.13,-0.04,-0.08
10.21520102024078,2,3,3,3,-9.460000000000001,1.01,1.95,-0.15,-0.07000000000000001,-0.08
10.22520101070404,2,3,3,3,-9.460000000000001,1.02,2.01,-0.15,-0.07000000000000001,-0.08
10.2352010011673,2,3,3,3,-9.460000000000001,1.06,2.03,-0.07000000000000001,-0.06,-0.08
10.24520099163055,2,3,3,3,-9.470000000000001,1.09,1.96,-0.11,-0.08,-0.12
10.25520098209381,2,3,3,3,-9.49,1.09,1.86,-0.06,-0.1,-0.13
10.26520097255707,2,3,3,3,-9.48,1.08,1.84,-0.07000000000000001,-0.17,-0.19
10.27520096302032,2,3,3,3,-9.49,1.15,1.93,-0.07000000000000001,-0.17,-0.19
10.28520095348358,2,3,3,3,-9.550000000000001,1.18,1.94,-0.12,-0.22,-0.16
10.29520094394684,2,3,3,3,-9.539999999999999,1.23,1.97,-0.21,-0.24,-0.2
10.3052009344101,2,3,3,3,-9.539999999999999,1.31,1.89,-0.31,-0.26,-0.24
10.31520092487335,2,3,3,3,-9.529999999999999,1.39,1.94,-0.45,-0.27,-0.24
10.32520091533661,2,3,3,3,-9.529999999999999,1.39,1.95,-0.61,-0.24,-0.26
10.33520090579987,2,3,3,3,-9.550000000000001,1.34,1.97,-1.08,-0.06,-0.25
10.34520089626312,2,3,3,3,-9.52,1.27,2,-1.08,-0.06,-0.25
10.35520088672638,2,3,3,3,-9.49,1.09,1.91,-1.36,-0.02,-0.2
10.36520087718964,2,3,3,3,-9.51,1.03,1.92,-1.57,0.05,-0.12
10.37520086765289,2,3,3,3,-9.529999999999999,0.95,1.97,-1.7,0.11,-0.04
10.38520085811615,2,3,3,3,-9.48,0.84,2.03,-1.68,0.15,0.01
10.39520084857941,2,3,3,3,-9.470000000000001,0.87,1.98,-1.61,0.11,0.1
10.40520107746124,2,3,3,3,-9.449999999999999,0.91,1.93,-1.53,0.1,0.14
10.4152010679245,2,3,3,3,-9.449999999999999,0.91,2,-1.41,0.09,0.14
10.42520105838776,2,3,3,3,-9.41,0.93,2.06,-1.26,0.13,0.12
10.43520104885101,2,3,3,3,-9.42,0.9,2.09,-1.08,0.08,0.04
10.44520103931427,2,3,3,3,-9.4,0.89,2.13,-1.08,0.08,0.04
10.45520102977753,2,3,3,3,-9.4,0.88,2.01,-1.11,-0.03,-0.01
10.46520102024078,2,3,3,3,-9.470000000000001,0.8100000000000001,2.06,-1.14,-0.06,0.01
10.47520101070404,2,3,3,3,-9.48,0.8100000000000001,2.12,-1.19,-0.05,0.01
10.4852010011673,2,3,3,3,-9.52,0.8100000000000001,2.13,-1.25,0.01,0.05
10.49520099163055,2,3,3,3,-9.550000000000001,0.8,2.12,-1.24,0.11,0.14
10.50520098209381,2,3,3,3,-9.539999999999999,0.8100000000000001,1.98,-1.21,0.11,0.18
10.51520097255707,2,3,3,3,-9.539999999999999,0.8100000000000001,2.05,-1.15,0.14,0.28
10.52520096302032,2,3,3,3,-9.539999999999999,0.85,2.06,-1.05,0.18,0.35
10.53520095348358,2,3,3,3,-9.5,0.85,2.06,-0.92,0.24,0.41
10.54520094394684,2,3,3,3,-9.449999999999999,0.87,2.01,-0.79,0.31,0.46
10.5552009344101,2,3,3,3,-9.44,0.87,1.93,-0.67,0.29,0.5
10.56520092487335,2,3,3,3,-9.43,0.91,1.88,-0.58,0.32,0.46
10.57520091533661,2,3,3,3,-9.48,1.06,1.98,-0.52,0.37,0.42
10.58520090579987,2,3,3,3,-9.470000000000001,1.14,1.99,-0.38,0.39,0.37
10.59520089626312,2,3,3,3,-9.48,1.25,1.95,-0.27,0.44,0.28
10.60520088672638,2,3,3,3,-9.52,1.31,1.88,-0.21,0.48,0.15
10.61520087718964,2,3,3,3,-9.539999999999999,1.36,1.91,-0.21,0.51,0.05
10.62520086765289,2,3,3,3,-9.52,1.37,1.95,-0.27,0.58,-0.11
10.63520085811615,2,3,3,3,-9.550000000000001,1.34,1.96,-0.47,0.64,-0.22
10.64520084857941,2,3,3,3,-9.5,1.35,1.97,-0.63,0.74,-0.35
10.65520107746124,2,3,3,3,-9.41,1.2,1.8,-0.85,0.84,-0.45
10.6652010679245,2,3,3,3,-9.4,1.17,1.84,-1.13,1.03,-0.58
10.67520105838776,2,3,3,3,-9.390000000000001,1.16,1.82,-1.42,1.16,-0.67
10.68520104885101,2,3,3,3,-9.44,1.21,1.84,-1.69,1.24,-0.8
10.69520103931427,2,3,3,3,-9.369999999999999,1.36,1.67,-1.86,1.23,-0.87
10.70520102977753,2,3,3,3,-9.26,1.37,1.66,-2.02,1.16,-0.9399999999999999
10.71520102024078,2,3,3,3,-9.15,1.39,1.76,-2.27,1.23,-0.97
10.72520101070404,2,3,3,3,-9.050000000000001,1.44,1.66,-2.57,1.48,-0.99
10.7352010011673,2,3,3,3,-8.83,1.22,1.59,-2.76,1.78,-1.06
10.74520099163055,2,3,3,3,-8.74,1.09,1.6,-2.96,1.98,-1.17
10.75520098209381,2,3,3,3,-8.66,1,1.48,-3.15,2.09,-1.22
10.76520097255707,2,3,3,3,-8.51,0.76,1.38,-2.96,2.01,-1.24
10.77520096302032,2,3,3,3,-8.390000000000001,0.63,1.37,-2.58,1.78,-1.21
10.78520095348358,2,3,3,3,-8.279999999999999,0.63,1.34,-2.3,1.55,-1.15
10.79520094394684,2,3,3,3,-8.15,0.72,1.3,-1.99,1.36,-1.05
10.8052009344101,2,3,3,3,-7.68,1.13,0.92,-1.5,1.12,-0.88
10.8162008523941,2,3,3,3,-7.26,1.37,0.9,-1,0.82,-0.66
10.82620084285736,2,3,3,3,-6.83,1.52,1.05,-0.51,0.57,-0.26
10.8362010717392,2,3,3,3,-6.41,1.47,1.18,0.14,0.51,0.38
10.84620106220245,2,3,3,3,-5.64,1.24,0.82,0.54,0.33,1.06
10.85620105266571,2,3,3,3,-5.5,1.01,0.42,0.86,0.16,1.68
10.86620104312897,2,3,3,3,-5.36,0.82,0.08,1.29,-0.21,2.18
10.87620103359222,2,3,3,3,-5.43,0.49,-0.2,1.93,-0.86,2.64
10.88620102405548,2,3,3,3,-6.28,-0.6899999999999999,0.53,2.43,-3.37,3.02
10.89620101451874,2,3,3,3,-6.43,-0.8,1.55,2.43,-3.37,3.02
10.90620100498199,2,3,3,3,-6.37,-0.45,2.08,2.41,-5.28,2.39
10.91620099544525,2,3,3,3,-6.4,0.26,1.87,2.66,-6.89,1.46
10.92620098590851,2,3,3,3,-6.54,1.32,1.21,3.16,-7.66,0.67
10.93620097637177,2,3,3,3,-6.79,1.64,1.38,3.58,-7.47,0.22
10.94620096683502,2,3,3,3,-7.16,1.33,2.05,3.77,-6.6,0.11
10.95620095729828,2,3,3,3,-7.56,1.07,2.6,3.45,-6.12,-0.08
10.96620094776154,2,3,3,3,-8.5,1.22,2.51,2.84,-5.37,-0.18
10.97620093822479,2,3,3,3,-8.93,1.38,2.69,2.14,-4.96,-0.25
10.98620092868805,2,3,3,3,-9.609999999999999,1.24,2.92,1.28,-4.86,-0.48
10.99620091915131,2,3,3,3,-10.62,1.29,3.19,0.44,-5.14,-1.04
11.00620090961456,2,3,3,3,-11.9,1.22,2.98,-0.6,-5.33,-1.56
11.01620090007782,2,3,3,3,-12.33,1.05,3.62,-1.83,-5.19,-2.19
11.02620089054108,2,3,3,3,-12.53,1.43,3.83,-3.07,-5.18,-2.91
11.03620088100433,2,3,3,3,-12.17,0.91,3.45,-4.4,-5.26,-3.99
11.04620087146759,2,3,3,3,-12.17,0.68,3.61,-4.4,-5.26,-3.99
11.05620086193085,2,3,3,3,-12.21,0.43,3.51,-5.33,-4.81,-4.12
11.0662008523941,2,3,3,3,-12.52,0.16,3.78,-5.99,-4.16,-4.15
11.07620084285736,2,3,3,3,-13.71,-0.75,5.25,-6.53,-3.27,-4.21
11.0862010717392,2,3,3,3,-14.86,-1.53,5.56,-6.35,-2.37,-4.68
11.09620106220245,2,3,3,3,-16.01,-2.33,6.37,-5.83,-1.63,-5.23
11.10620105266571,2,3,3,3,-17.46,-3.26,6.99,-5.67,-0.86,-5.51
11.11620104312897,2,3,3,3,-20.79,-4.41,7.49,-5.39,-0.14,-4.97
11.12620103359222,2,3,3,3,-22.1,-4.16,7.62,-4.19,0.4,-3.58
11.13620102405548,2,3,3,3,-22.89,-4.14,7.43,0.58,0.75,1.1
11.14620101451874,2,3,3,3,-23.07,-3.49,7.84,0.58,0.75,1.1
11.15620100498199,2,3,3,3,-23.48,-2.27,7.57,2.13,1.39,3.04
11.16620099544525,2,3,3,3,-23.72,-2.49,7.72,2.57,1.96,3.92
11.17620098590851,2,3,3,3,-24.08,-3.17,7.67,3.25,2.33,4.3
11.18620097637177,2,3,3,3,-24.71,-4.11,7.99,4.91,2.54,4.68
11.19620096683502,2,3,3,3,-23.57,-3.67,7.71,6.72,2.62,5.22
11.20620095729828,2,3,3,3,-21.85,-2.7,6.96,8.390000000000001,2.25,5.22
11.21620094776154,2,3,3,3,-20.05,-1.22,6,10.39,2.64,4.6
11.22620093822479,2,3,3,3,-16.94,2.2,4.18,12.09,4.17,3.81
11.23620092868805,2,3,3,3,-15.51,4.19,3.63,13.62,7.2,3.61
11.24620091915131,2,3,3,3,-14.16,6.51,3.38,13.62,7.2,3.61
11.25620090961456,2,3,3,3,-13.42,7.99,2.89,12.36,8.66,5.19
11.26620090007782,2,3,3,3,-11.48,7.37,1.71,9.41,10.11,6.86
11.27620089054108,2,3,3,3,-10.31,5.67,0.68,5.65,11.53,7.67
11.28620088100433,2,3,3,3,-8.15,4.52,-0.07000000000000001,2.53,12.11,7.72
11.29620087146759,2,3,3,3,-6.61,3.45,-1.24,0.12,12.02,7.17
11.30620086193085,2,3,3,3,-0.97,2.84,-3.06,-0.51,11.73,5.44
11.3162008523941,2,3,3,3,1.9,3.25,-3.1,-0.98,10.18,4.1
11.32620084285736,2,3,3,3,4.22,3.81,-3.22,-1.95,7.98,3.78
11.3362010717392,2,3,3,3,6.35,4.13,-2.73,-2.77,5.85,3.7
11.34620106220245,2,3,3,3,9.07,4.04,-1.42,-3.26,4.03,3.5
11.35620105266571,2,3,3,3,7.17,3.37,-1.31,-4.11,3.43,3.45
11.36620104312897,2,3,3,3,5.02,2.38,-0.53,-4.61,3.59,1.96
11.37620103359222,2,3,3,3,0.1,-0.33,-2.02,-5.06,3.06,-0.55
11.38620102405548,2,3,3,3,-1.56,-1.46,-1.21,-4.25,1.18,-3.05
11.39620101451874,2,3,3,3,-1.95,-0.26,1.26,-1.2,-3.3,-5.59
11.40620100498199,2,3,3,3,-2.35,0.12,1.79,-0.35,-6.55,-7.53
11.41620099544525,2,3,3,3,-2,-0.25,1.16,-1.56,-7.06,-9.34
11.42620098590851,2,3,3,3,-1.8,-0.4,1.16,-2.45,-7.25,-10.01
11.43620097637177,2,3,3,3,-1.25,-0.5600000000000001,0.93,-2.17,-7.49,-8.390000000000001
11.44620096683502,2,3,3,3,-0.63,-0.87,0.66,-2.17,-7.49,-8.390000000000001
11.45620095729828,2,3,3,3,0.21,-1.56,0.36,-2.81,-6.14,-6.58
11.46620094776154,2,3,3,3,0.14,-2.09,0.49,-3.37,-3.92,-4.3
11.47620093822479,2,3,3,3,-0.01,-2.59,0.57,-3.22,-1.22,-1.77
11.48620092868805,2,3,3,3,-0.34,-2.65,0.43,-2.34,1.1,0.54
11.49620091915131,2,3,3,3,-0.93,-2.03,0.06,-0.96,2.86,2.33
11.50620090961456,2,3,3,3,-1.25,-1.54,0.06,0.44,4.01,3.6
11.51620090007782,2,3,3,3,-1.26,-1.05,-0.05,1.84,4.25,4.46
11.52620089054108,2,3,3,3,-1.14,-0.63,-0.54,3.4,3.65,5.06
11.53620088100433,2,3,3,3,-1.43,-0.15,-1.17,4.92,3.28,5.38
11.54620087146759,2,3,3,3,-1.52,0.21,-1.1,6.05,3.09,5.22
11.55620086193085,2,3,3,3,-1.13,0.93,-1.37,6.65,1.95,4.59
11.5662008523941,2,3,3,3,-0.45,2.58,-1.7,6.97,0.89,3.53
11.57620084285736,2,3,3,3,-0.38,3.05,-1.69,6.67,0.46,2.15
11.5862010717392,2,3,3,3,-0.22,3.47,-1.56,5.43,-0.19,0.5600000000000001
11.59620106220245,2,3,3,3,0.28,3.62,-2.01,3.2,-1.51,-1.29
11.60620105266571,2,3,3,3,-1.03,3.61,-2.3,0.19,-2.19,-3.5
11.61620104312897,2,3,3,3,-1.69,4.42,-1.87,-3.65,-4.08,-6.17
11.62620103359222,2,3,3,3,-2.36,4.36,-1.47,-6.58,-8.48,-9.17
11.63620102405548,2,3,3,3,-6.73,3.96,-0.55,-5.65,-12.89,-11.69
11.64620101451874,2,3,3,3,-13.19,8.82,3.83,-3.72,-22.81,-15.64
11.65620100498199,2,3,3,3,-24.59,9.6,6.72,-3.57,-31.75,-21.14
11.66620099544525,2,3,3,3,-35.64,5.35,9.539999999999999,-11.36,-25.46,-23.23
11.67620098590851,2,3,3,3,-32.33,-3.31,9.640000000000001,-17.93,-19.85,-21.96
11.68620097637177,2,3,3,2,-29.36,-5.64,12.82,-18.13,0.34,-13.3
11.69620096683502,2,3,3,2,-23.91,-4.49,9.75,-18.13,0.34,-13.3
11.70620095729828,2,3,3,2,-25.34,-5.41,10.87,-15.85,7.85,-8.32
11.71620094776154,2,3,3,2,-24.75,-6.63,10.75,-15.69,7.51,-5.29
11.72620093822479,2,3,3,2,-19.56,-8.119999999999999,8.84,-13.27,5.44,-2.58
11.73620092868805,2,3,3,2,-20.41,-7.25,7.44,-10.22,4.11,-0.77
11.74620091915131,2,3,3,2,-19.76,-5.79,6.22,-5.89,3.58,0.47
11.75620090961456,2,3,3,2,-18.32,-3.96,4.87,-2.39,3.3,1.5
11.76620090007782,2,3,3,2,-17.49,-3.34,4.36,-0.31,3.44,2.87
11.77620089054108,2,3,3,2,-16.47,-3.15,3.87,1.07,3.86,4.92
11.78620088100433,2,3,3,2,-15.92,-2.61,3.61,2.92,4.86,6.95
11.79620087146759,2,3,3,2,-13.63,-1.32,3.21,4.99,5.37,8.52
11.80620086193085,2,3,3,2,-12.23,-0.71,2.82,6.7,5.22,9.51
11.8162008523941,2,3,3,2,-10.67,0.08,2.53,7.81,4.97,9.98
11.82620084285736,2,3,3,2,-9.33,0.7,2.18,8.029999999999999,4.88,10.19
11.8362010717392,2,3,3,2,-6.83,1.57,2,7.17,4.57,9.5
11.84720098972321,2,3,3,2,-5.76,2.25,2.2,7.17,4.57,9.5
11.85720098018646,2,3,3,2,-5.12,2.02,1.21,5.93,4.62,8.9
11.86720097064972,2,3,3,2,-4.6,1.99,1.1,4.26,4.71,8.25
11.87720096111298,2,3,3,2,-3.9,1.94,1.16,3.13,4.18,7.73
11.88720095157623,2,3,3,2,-3.67,1.97,1.17,2.18,3.39,7.24
11.89720094203949,2,3,3,2,-3.32,2,1.23,1.69,2.42,6.65
11.90720093250275,2,3,3,2,-3.08,2.06,1.12,1.7,1.24,6
11.917200922966,2,3,3,2,-3.29,2.09,1,1.69,0.41,5.29
11.92720091342926,2,3,3,2,-3.66,2.12,1.16,1.73,-0.03,4.37
11.93720090389252,2,3,3,2,-4.21,2.25,1.17,2.24,-0.43,2.44
11.94720089435577,2,3,3,2,-4.93,2.36,1.26,2.24,-0.43,2.44
11.95720088481903,2,3,3,2,-6.84,2.68,1.16,2.54,-0.48,1.51
11.96720087528229,2,3,3,2,-7.87,2.87,1.33,2.59,-0.66,0.53
11.97720086574554,2,3,3,2,-8.779999999999999,2.93,1.71,2.63,-0.95,-0.47
11.9872008562088,2,3,3,2,-10.22,2.94,1.85,1.68,-1.74,-2.41
11.99720084667206,2,3,3,2,-10.9,2.84,2.23,1.68,-1.74,-2.41
12.00720107555389,2,3,3,2,-11.64,2.85,2.28,0.5,-1.71,-3.2
12.01720106601715,2,3,3,2,-12.64,2.53,2.03,-1.01,-1.74,-3.7
12.02720105648041,2,3,3,2,-13.65,2.23,2.4,-2.52,-1.59,-3.81
12.03720104694366,2,3,3,2,-13.24,2.26,2.67,-3.46,-1.48,-3.2
12.04720103740692,2,3,3,2,-12.64,2.15,2.78,-4.01,-1,-1.67
12.05720102787018,2,3,3,2,-12.01,1.77,2.67,-4.41,0.01,0
12.06720101833344,2,3,3,2,-10.43,1.48,2.53,-4.44,1.06,1.37
12.07720100879669,2,3,3,2,-9.68,1.34,2.15,-4.18,1.75,2.47
12.08720099925995,2,3,3,2,-8.9,1.24,1.91,-3.66,2.06,3.2
12.09720098972321,2,3,3,2,-8.279999999999999,1.15,1.72,-3.66,2.06,3.2
12.10720098018646,2,3,3,2,-7.64,0.88,1.39,-3.24,1.89,2.91
12.11720097064972,2,3,3,2,-7.38,0.75,1.54,-2.71,1.49,2.31
12.12720096111298,2,3,3,2,-7.33,0.62,1.84,-2.05,1.02,1.44
12.13720095157623,2,3,3,2,-7.55,0.54,2.01,-1.2,0.76,0.47
12.14720094203949,2,3,3,2,-8.31,0.52,1.98,-0.31,0.49,-0.54
12.15720093250275,2,3,3,2,-8.82,0.54,1.99,0.32,0.24,-1.56
12.167200922966,2,3,3,2,-9.27,0.5,2.15,0.71,-0.09,-2.48
12.17720091342926,2,3,3,2,-9.81,0.25,2.4,0.84,-0.57,-3.2
12.18720090389252,2,3,3,2,-9.890000000000001,0.24,2.5,0.58,-1.31,-3.59
12.19720089435577,2,3,3,2,-9.9,0.2,2.62,0.58,-1.31,-3.59
12.20720088481903,2,3,3,2,-9.890000000000001,0.16,2.69,0.5,-1.31,-3.14
12.21720087528229,2,3,3,2,-9.93,-0.01,2.8,0.53,-1,-2.33
12.22720086574554,2,3,3,2,-9.949999999999999,-0.04,2.65,0.57,-0.49,-1.41
12.2372008562088,2,3,3,3,-9.960000000000001,0.01,2.56,0.9399999999999999,0.45,0.11
12.24720084667206,2,3,3,3,-9.94,0.1,2.52,0.9399999999999999,0.45,0.11
12.25720107555389,2,3,3,3,-9.84,0.2,2.75,1.07,0.62,0.58
12.26720106601715,2,3,3,3,-9.81,0.28,2.57,1.09,0.54,0.8
12.27720105648041,2,3,3,3,-9.710000000000001,0.44,2.12,0.85,0.33,0.85
12.28720104694366,2,3,3,3,-9.529999999999999,0.6,1.93,0.5,-0.18,0.59
12.29720103740692,2,3,3,3,-9.16,0.6899999999999999,1.9,0.5,-0.18,0.59
12.30720102787018,2,3,3,3,-9.01,0.72,1.84,0.23,-0.23,0.35
12.31720101833344,2,3,3,3,-8.91,0.65,1.86,-0.18,-0.44,0.09
12.32720100879669,2,3,3,3,-8.85,0.55,1.94,-0.58,-0.67,-0.11
12.33720099925995,2,3,3,3,-8.949999999999999,0.25,2.03,-1.44,-0.84,-0.39
12.34720098972321,2,3,3,3,-9.050000000000001,0.18,1.93,-1.44,-0.84,-0.39
12.35720098018646,2,3,3,3,-9.19,0.15,1.84,-1.72,-0.88,-0.44
12.36720097064972,2,3,3,3,-9.49,-0.04,2.15,-1.78,-0.79,-0.45
12.37720096111298,2,3,3,3,-9.609999999999999,-0.01,2.11,-1.75,-0.87,-0.48
12.38720095157623,2,3,3,3,-9.640000000000001,-0.06,2.18,-0.8100000000000001,-1.16,-0.33
12.39720094203949,2,3,3,3,-9.69,-0.06,2.28,-0.8100000000000001,-1.16,-0.33
12.40720093250275,2,3,3,3,-9.779999999999999,-0.01,2.12,-0.33,-1.05,-0.3
12.417200922966,2,3,3,3,-9.789999999999999,0.03,2.13,0.18,-1.02,-0.22
12.42720091342926,2,3,3,3,-9.73,0.13,2.09,0.6899999999999999,-0.95,-0.19
12.43720090389252,2,3,3,3,-9.73,0.18,2.07,1.72,-0.45,-0.06
12.44720089435577,2,3,3,3,-9.69,0.25,2,1.72,-0.45,-0.06
12.45720088481903,2,3,3,3,-9.619999999999999,0.38,1.95,1.97,-0.23,0.11
12.46720087528229,2,3,3,3,-9.51,0.5,2.04,2.12,0.03,0.32
12.47720086574554,2,3,3,3,-9.4,0.61,2.18,2.27,0.2,0.45
12.4872008562088,2,3,3,3,-9.289999999999999,0.6,2.26,2.39,0.32,0.42
12.49720084667206,2,3,3,3,-9.33,0.61,2.22,2.39,0.32,0.42
12.50720107555389,2,3,3,3,-9.34,0.71,2.17,2.16,0.36,0.31
12.51720106601715,2,3,3,3,-9.369999999999999,0.78,2.16,1.88,0.27,0.18
12.52720105648041,2,3,3,3,-9.449999999999999,0.88,2.09,1.68,0.12,0
12.53720104694366,2,3,3,3,-9.48,0.85,2.09,1.06,-0.01,-0.34
12.54720103740692,2,3,3,3,-9.44,0.83,2.07,1.06,-0.01,-0.34
12.55720102787018,2,3,3,3,-9.44,0.63,2.04,0.86,0.01,-0.48
12.56720101833344,2,3,3,3,-9.5,0.55,2.19,0.7,0,-0.5600000000000001
12.57720100879669,2,3,3,3,-9.49,0.51,2.28,0.71,-0.07000000000000001,-0.58
12.58720099925995,2,3,3,2,-9.51,0.52,2.16,1.35,-0.44,-0.53
12.59720098972321,2,3,3,2,-9.59,0.65,2.05,1.35,-0.44,-0.53
12.60720098018646,2,3,3,2,-9.619999999999999,0.7,2.06,1.8,-0.37,-0.45
12.61720097064972,2,3,3,2,-9.609999999999999,0.74,2.2,2.3,-0.21,-0.35
12.62720096111298,2,3,3,2,-9.619999999999999,0.86,2.24,2.6,-0.22,-0.2
12.63720095157623,2,3,3,2,-9.58,1.05,2.22,2.93,0,0.02
12.64720094203949,2,3,3,2,-9.550000000000001,1.14,2.14,2.93,0,0.02
12.65720093250275,2,3,3,2,-9.51,1.14,2.06,2.87,0.22,0.12
12.667200922966,2,3,3,2,-9.49,1.18,2.15,2.59,0.36,0.22
12.67720091342926,2,3,3,2,-9.4,1.16,2.32,2.18,0.42,0.26
12.68720090389252,2,3,3,2,-9.390000000000001,1.19,2.31,1.03,0.29,0.31
12.69720089435577,2,3,3,2,-9.380000000000001,1.2,2.26,1.03,0.29,0.31
12.70720088481903,2,3,3,2,-9.369999999999999,1.22,2.22,0.57,0.24,0.31
12.71720087528229,2,3,3,2,-9.4,1.23,2.27,0.07000000000000001,0.19,0.3
12.72720086574554,2,3,3,2,-9.41,1.19,2.27,-0.33,0.08,0.25
12.7372008562088,2,3,3,2,-9.380000000000001,1.18,2.25,-0.99,-0.05,0.12
12.74720084667206,2,3,3,2,-9.369999999999999,0.89,2.17,-0.99,-0.05,0.12
12.75720107555389,2,3,3,2,-9.35,0.8,2.11,-1.22,-0.03,0.08
12.76720106601715,2,3,3,2,-9.34,0.6899999999999999,2.19,-1.38,-0.07000000000000001,0.07000000000000001
12.77720105648041,2,3,3,2,-9.35,0.61,2.27,-1.47,-0.13,0.17
12.78720104694366,2,3,3,2,-9.449999999999999,0.68,2.45,-1.61,-0.13,0.31
12.79720103740692,2,3,3,2,-9.449999999999999,0.75,2.44,-1.61,-0.13,0.31
12.80720102787018,2,3,3,2,-9.460000000000001,0.8100000000000001,2.32,-1.53,-0.16,0.42
12.81720101833344,2,3,3,2,-9.57,0.9,2.39,-1.37,0.06,0.46
12.82720100879669,2,3,3,2,-9.640000000000001,0.88,2.39,-1.2,0.36,0.54
12.8382009267807,2,3,3,2,-9.66,0.79,2.29,-1,0.82,0.65
12.84720098972321,2,3,3,2,-9.67,0.72,2.21,-1,0.82,0.65
12.85720098018646,2,3,3,2,-9.68,0.61,2.03,-0.9399999999999999,0.92,0.71
12.86820089817047,2,3,3,2,-9.640000000000001,0.49,1.95,-0.85,1.05,0.74
12.87820088863373,2,3,3,2,-9.609999999999999,0.47,1.92,-0.75,1.1,0.8100000000000001
12.88820087909698,2,3,3,2,-9.550000000000001,0.45,1.88,-0.04,1.14,0.86
12.89820086956024,2,3,3,2,-9.49,0.5,1.85,-0.04,1.14,0.86
12.9082008600235,2,3,3,2,-9.300000000000001,0.6899999999999999,1.68,0.37,1.08,0.87
12.91820085048676,2,3,3,2,-9.210000000000001,0.85,1.75,0.83,1.01,0.79
12.92820107936859,2,3,3,2,-9.140000000000001,1,1.73,1.36,0.98,0.75
12.93820106983185,2,3,3,2,-9.119999999999999,1.24,1.71,2.1,1.05,0.52
12.9482010602951,2,3,3,2,-9.07,1.37,1.67,2.1,1.05,0.52
12.95820105075836,2,3,3,2,-9.09,1.48,1.61,2.09,1.14,0.44
12.96820104122162,2,3,3,2,-9.06,1.64,1.66,1.98,1.25,0.35
12.97820103168488,2,3,3,2,-9.01,1.83,1.74,1.75,1.45,0.3
12.98820102214813,2,3,3,2,-8.99,1.98,1.71,1.12,2.09,0.26
12.99820101261139,2,3,3,2,-9,2.09,1.58,1.12,2.09,0.26
13.00820100307465,2,3,3,2,-8.960000000000001,2.19,1.55,0.97,2.36,0.27
13.0182009935379,2,3,3,2,-8.83,2.38,1.44,0.91,2.53,0.33
13.02820098400116,2,3,3,2,-8.710000000000001,2.56,1.35,0.6899999999999999,2.91,0.48
13.03820097446442,2,3,3,2,-8.550000000000001,2.6,1.26,-0.16,3.86,1.18
13.04820096492767,2,3,3,2,-8.4,2.49,1.14,-0.16,3.86,1.18
13.05820095539093,2,3,3,2,-7.97,2.46,0.82,-1.16,4.04,1.5
13.06820094585419,2,3,3,2,-7.71,2.32,0.77,-2.15,3.95,1.78
13.07820093631744,2,3,3,2,-7.38,2.18,0.65,-2.76,3.66,2.01
13.0882009267807,2,3,3,2,-6.99,2.05,0.5,-3.97,2.56,2.8
13.09820091724396,2,3,3,2,-6.45,1.54,0.23,-3.97,2.56,2.8
13.10820090770721,2,3,3,2,-6.13,1.5,0.3,-4.95,1.82,3.36
13.11820089817047,2,3,3,2,-6.03,1.15,0.66,-5.62,0.45,3.62
13.12820088863373,2,3,3,2,-5.95,0.93,0.82,-5.42,-1.51,3.4
13.13820087909698,2,3,3,2,-5.82,0.7,0.86,-4.42,-5.46,2.64
13.14820086956024,2,3,3,2,-5.89,0.43,0.77,-4.42,-5.46,2.64
13.1582008600235,2,3,3,2,-5.81,0.25,0.82,-4.08,-6.17,2.53
13.16820085048676,2,3,3,2,-5.37,-0.37,2.38,-4.41,-6.85,1.94
13.17820107936859,2,3,3,2,-5.52,-0.18,2.43,-4.96,-7.35,0.66
13.18820106983185,2,3,3,2,-6.07,-0.03,2.43,-3.4,-6.72,-2.04
13.1982010602951,2,3,3,2,-6.75,0.24,2.63,-3.4,-6.72,-2.04
13.20820105075836,2,3,3,2,-8.35,0.41,3.4,-2.85,-5.97,-2.91
13.21820104122162,2,3,3,2,-9.42,0.07000000000000001,2.99,-2.37,-5.39,-3.62
13.22820103168488,2,3,3,2,-9.880000000000001,0.11,2.9,-1.86,-5.25,-4.35
13.23820102214813,2,3,3,2,-10.5,-0.11,3.21,0.3,-6.59,-5.11
13.24820101261139,2,3,3,2,-11.49,-1,2.73,0.3,-6.59,-5.11
13.25820100307465,2,3,3,2,-11.39,-1.29,3.01,1.08,-7.05,-5.23
13.2682009935379,2,3,3,2,-11.75,-1.04,3.3,0.97,-6.94,-5.29
13.27820098400116,2,3,3,2,-12.08,-0.77,3.67,0.28,-6.12,-5.09
13.28820097446442,2,3,3,2,-12.87,-0.8,4.5,-2.16,-3.56,-5.69
13.29820096492767,2,3,3,2,-14.04,-1.4,4.78,-2.16,-3.56,-5.69
13.30820095539093,2,3,3,2,-15.14,-1.98,5.16,-3.8,-2.01,-5.93
13.31820094585419,2,3,3,2,-16.19,-1.92,5.7,-5.09,-1.15,-6.3
13.32820093631744,2,3,3,2,-19.05,-3.29,6.26,-5.41,-0.59,-6.29
13.3382009267807,2,3,3,2,-20.72,-4.09,7,-3.65,0.75,-4.11
13.34820091724396,2,3,3,2,-22.32,-4.45,7.39,-3.65,0.75,-4.11
13.35820090770721,2,3,3,2,-24.62,-4.88,7.49,-2.2,1.55,-2.33
13.36820089817047,2,3,3,2,-25.83,-4.3,7.63,-0.62,2.52,-0.34
13.37820088863373,2,3,3,2,-26.89,-3.71,7.49,1,3.68,1.5
13.38820087909698,2,3,3,2,-27.18,-3.36,7.59,4.1,4.93,3.22
13.39820086956024,2,3,3,2,-26.57,-2.44,7.38,4.1,4.93,3.22
13.4082008600235,2,3,3,2,-26,-1.65,6.97,5.3,5.01,3.4
13.41820085048676,2,3,3,2,-24.75,-0.85,6.49,5.96,4.79,3.4
13.42820107936859,2,3,3,2,-22.94,-0.01,6.32,7.65,4.36,3.19
13.43820106983185,2,3,3,2,-18.68,2.78,5.29,11.49,5.03,4.26
13.4482010602951,2,3,3,2,-16.44,4.31,4.66,11.49,5.03,4.26
13.45820105075836,2,3,3,2,-14.58,5.79,4.21,12.91,6.12,5.65
13.46820104122162,2,3,3,2,-12.51,7.36,4.22,13.33,7.49,7.12
13.47820103168488,2,3,3,2,-9.41,6.26,2.45,11.95,9.15,8.279999999999999
13.48820102214813,2,3,3,2,-8.09,5.02,1.56,8.279999999999999,10.39,10
13.49820101261139,2,3,3,2,-5.71,3.9,1.21,8.279999999999999,10.39,10
13.50820100307465,2,3,3,2,-3.64,3.02,0.02,5.79,10.13,10.31
13.5182009935379,2,3,3,2,0.83,2.65,-2.48,3,9.880000000000001,9.960000000000001
13.52820098400116,2,3,3,2,3.36,3.19,-3.13,0.7,8.710000000000001,9.41
13.53820097446442,2,3,3,2,4.61,3.31,-3.34,-3.01,4.5,8.44
13.54820096492767,2,3,3,2,7.93,4.74,-1.67,-3.01,4.5,8.44
13.55820095539093,2,3,3,2,8.23,4.65,-0.73,-6.2,2.51,8.17
13.56820094585419,2,3,3,2,7.6,3.84,-0.53,-7.95,3.43,6.82
13.57820093631744,2,3,3,2,5.64,2.9,-0.09,-9.199999999999999,4.97,4.21
13.5882009267807,2,3,3,2,0.13,0.22,-1.33,-9.720000000000001,3.96,-5
13.59820091724396,2,3,3,2,-2.26,-2.68,-2.69,-9.720000000000001,3.96,-5
13.61820089817047,2,3,3,2,-2.45,-1.54,1.49,-1.52,-4.76,-12.87
13.62820088863373,2,3,3,2,-2.12,-1.33,1.5,-0.6,-6.66,-14.54
13.63820087909698,2,3,3,2,-2.2,-1.28,0.98,-0.03,-8.279999999999999,-13.99
13.64820086956024,2,3,3,2,-1.79,-0.8,0.85,-0.03,-8.279999999999999,-13.99
13.6582008600235,2,3,3,2,-1.28,-0.53,0.47,0.1,-8.460000000000001,-11.73
13.66820085048676,2,3,3,2,-0.91,-0.3,0.53,-0.21,-7.42,-8.33
13.67820107936859,2,3,3,2,-1.01,-0.63,0.6899999999999999,-0.62,-5.57,-4.38
13.68820106983185,2,3,3,2,-0.83,-0.9,0.51,0.1,-0.8,1.83
13.6982010602951,2,3,3,2,-0.76,-0.95,0.16,0.1,-0.8,1.83
13.70820105075836,2,3,3,2,-0.89,-0.52,-0.3,1.09,1.89,4.13
13.71820104122162,2,3,3,2,-1.2,0.07000000000000001,-0.09,2.38,3.83,5.92
13.72820103168488,2,3,3,2,-1.01,0.74,-0.48,3.68,4.33,7.14
13.73820102214813,2,3,3,2,-0.67,1.24,-1.7,5.46,4.08,7.64
13.74820101261139,2,3,3,2,-0.97,1.5,-1.51,5.46,4.08,7.64
13.75820100307465,2,3,3,2,-0.91,1.74,-1.26,4.93,4.23,6.68
13.7682009935379,2,3,3,2,-0.45,1.82,-1.53,4.7,2.85,5.3
13.77820098400116,2,3,3,2,-0.29,1.86,-1.59,4.29,1.84,3.56
13.78820097446442,2,3,3,2,-0.15,1.63,-1.5,0.89,-0.13,-0.41
13.79820096492767,2,3,3,2,0.28,1.39,-1.28,0.89,-0.13,-0.41
13.80820095539093,2,3,3,2,0.5,1.43,-0.37,-1.58,-1.56,-2.62
13.81820094585419,2,3,3,2,-0.06,5.26,0.15,-3.69,-3.65,-4.86
13.82820093631744,2,3,3,2,-0.6,5.42,-0.64,-6.69,-8.359999999999999,-7.64
13.8382009267807,2,3,3,2,-5.68,5.43,-0.09,-7.7,-13.3,-13.09
13.84820091724396,2,3,3,2,-9.970000000000001,8.09,7.24,-7.7,-13.3,-13.09
13.85820090770721,2,3,3,2,-17.64,3.42,9.24,-7.5,-19.95,-19.51
13.86820089817047,2,3,3,2,-30.99,2.27,10.64,-11.39,-17.39,-21.41
13.87820088863373,2,3,3,2,-34.8,0.35,9.699999999999999,-16.48,-11.38,-21.11
13.88920104503632,2,3,3,2,-32.06,-7.75,9.640000000000001,-12.99,-4.69,-17.46
13.89920103549957,2,3,3,2,-38.5,-4.37,6.34,-12.99,-4.69,-17.46
13.90920102596283,2,3,3,2,-33.16,-4.48,6.94,-7.48,4.62,-8.31
13.91920101642609,2,3,3,2,-28.7,-4.63,8.08,-8.51,6.53,-1.16
13.92920100688934,2,3,3,2,-20.96,-5.47,6.96,-9.390000000000001,4.27,1.22
13.9392009973526,2,3,3,2,-19.34,-5.61,6.06,-6.86,-1.25,-2.73
13.94920098781586,2,3,3,2,-17.3,-5.69,5.43,-6.86,-1.25,-2.73
13.95920097827911,2,3,3,2,-15.74,-5.11,4.43,-4.7,-2.14,-4.57
13.96920096874237,2,3,3,2,-13.62,-2.78,4.04,-3.07,-1.35,-4.67
13.97920095920563,2,3,3,2,-12.36,-1.94,3.92,-2.02,-0.76,-2.84
13.98920094966888,2,3,3,2,-11.06,-1.72,3.47,-2.25,3.15,4.5
13.99920094013214,2,3,3,2,-10.21,-1.48,3.16,-2.25,3.15,4.5
14.0092009305954,2,3,3,2,-8.19,-1.23,2.47,-2.85,4.73,8.279999999999999
14.01920092105865,2,3,3,2,-7.49,-1.02,2.27,-3.69,5.26,11.21
14.02920091152191,2,3,3,2,-7.03,-0.68,2.1,-3.87,5.43,12.98
14.03920090198517,2,3,3,2,-7.08,-0.28,2,-2.83,5.67,13.51
14.04920089244843,2,3,3,2,-7.02,0,1.38,-2.83,5.67,13.51
14.05920088291168,2,3,3,2,-7,-0.03,1.21,-2.22,5.35,12.37
14.06920087337494,2,3,3,2,-7.18,0.1,1.16,-1.59,5.1,10.42
14.0792008638382,2,3,3,2,-7.28,0.15,0.87,-0.6,4.74,8.15
14.08920085430145,2,3,3,2,-6.81,0.29,1.06,1.66,3.48,4.17
14.09920084476471,2,3,3,2,-6.43,0.36,0.97,1.66,3.48,4.17
14.10920107364655,2,3,3,2,-6.03,0.46,0.76,3.09,2.81,3.14
14.1192010641098,2,3,3,2,-5.51,0.72,0.74,4.28,2.06,2.76
14.12920105457306,2,3,3,2,-4.5,1.28,0.74,5.21,1.33,2.9
14.13920104503632,2,3,3,2,-4.32,1.47,0.8,6.68,0.14,3.87
14.14920103549957,2,3,3,2,-4.41,1.6,0.8100000000000001,6.68,0.14,3.87
14.15920102596283,2,3,3,2,-5.83,1.69,1.13,7.01,-0.57,4.22
14.16920101642609,2,3,3,2,-6.91,1.75,1.16,6.91,-1.41,4.03
14.17920100688934,2,3,3,2,-8.359999999999999,1.94,1.14,6.44,-2.53,3.39
14.1892009973526,2,3,3,2,-9.94,2.02,1.19,5.63,-5.07,0.8100000000000001
14.19920098781586,2,3,3,2,-12.6,2.54,1.36,5.63,-5.07,0.8100000000000001
14.20920097827911,2,3,3,2,-13.71,2.74,1.69,5.64,-6.65,-0.77
14.21920096874237,2,3,3,2,-14.08,2.7,2.17,5.27,-7.09,-2.37
14.22920095920563,2,3,3,2,-13.4,2.47,2.56,4.72,-7.07,-3.64
14.23920094966888,2,3,3,2,-10.84,2.24,2.99,2.98,-4.7,-4.1
14.24920094013214,2,3,3,2,-10.03,1.96,3.03,2.98,-4.7,-4.1
14.2592009305954,2,3,3,2,-9.42,1.62,2.87,2.09,-2.81,-3.47
14.26920092105865,2,3,3,2,-8.85,1.34,2.77,1.45,-0.98,-2.54
14.27920091152191,2,3,3,2,-8.16,1.18,2.46,1.24,0.59,-1.49
14.28920090198517,2,3,3,2,-8.09,1.01,2.21,0.96,3.18,0.35
14.29920089244843,2,3,3,2,-8.18,0.82,2.01,0.96,3.18,0.35
14.30920088291168,2,3,3,2,-8.44,0.54,1.83,0.85,3.74,0.84
14.31920087337494,2,3,3,2,-9.140000000000001,0.15,1.58,1.04,3.58,0.97
14.3292008638382,2,3,3,2,-9.380000000000001,0.09,1.47,1.75,2.79,0.76
14.33920085430145,2,3,3,2,-9.48,0.13,1.56,3.25,0.61,-0.16
14.34920084476471,2,3,3,2,-9.460000000000001,0.45,1.75,3.25,0.61,-0.16
14.35920107364655,2,3,3,2,-9.48,0.6,1.72,3.63,-0.39,-0.54
14.3692010641098,2,3,3,2,-9.460000000000001,0.62,1.8,3.64,-1.31,-0.95
14.37920105457306,2,3,3,2,-9.4,0.66,1.95,3.4,-2.06,-1.38
14.38920104503632,2,3,3,2,-9.4,0.66,1.95,2.35,-2.66,-2.16
14.39920103549957,2,3,3,2,-9.300000000000001,0.51,2.33,2.35,-2.66,-2.16
14.40920102596283,2,3,3,2,-9.359999999999999,0.43,2.24,1.77,-2.61,-2.27
14.41920101642609,2,3,3,2,-9.390000000000001,0.36,2.41,1.51,-2.4,-2.16
14.42920100688934,2,3,3,2,-9.42,0.41,2.55,1.4,-1.92,-1.81
14.4392009973526,2,3,3,2,-9.42,0.41,2.55,1.63,-0.74,-0.79
14.44920098781586,2,3,3,2,-9.58,0.68,2.58,1.63,-0.74,-0.79
14.45920097827911,2,3,3,2,-9.67,0.82,2.47,1.7,-0.06,-0.31
14.46920096874237,2,3,3,2,-9.83,0.92,2.45,1.66,0.5,0
14.47920095920563,2,3,3,2,-9.869999999999999,0.91,2.35,1.63,0.87,0.16
14.48920094966888,2,3,3,2,-9.859999999999999,0.92,2.25,1.6,0.97,0.27
14.49920094013214,2,3,3,2,-9.789999999999999,0.89,2.11,1.6,0.97,0.27
14.5092009305954,2,3,3,2,-9.59,0.83,1.95,1.6,0.8100000000000001,0.22
14.51920092105865,2,3,3,2,-9.49,0.78,1.95,1.65,0.53,0.13
14.52920091152191,2,3,3,2,-9.4,0.76,1.87,1.67,0.19,0
14.53920090198517,2,3,3,2,-9.31,0.64,1.81,1.48,-0.35,-0.29
14.54920089244843,2,3,3,2,-9.31,0.64,1.81,1.48,-0.35,-0.29
14.55920088291168,2,3,3,2,-9.300000000000001,0.51,1.82,1.42,-0.5,-0.43
14.56920087337494,2,3,3,2,-9.27,0.54,1.91,1.41,-0.57,-0.5600000000000001
14.5792008638382,2,3,3,2,-9.19,0.72,2.18,1.48,-0.5600000000000001,-0.6899999999999999
14.58920085430145,2,3,3,2,-9.19,0.72,2.18,1.46,-0.39,-0.84
14.59920084476471,2,3,3,2,-9.16,0.85,2.23,1.46,-0.39,-0.84
14.60920107364655,2,3,3,2,-9.220000000000001,0.9,2.16,1.32,-0.17,-0.89
14.6192010641098,2,3,3,2,-9.41,0.79,2.22,1.09,0.04,-0.89
14.62920105457306,2,3,3,2,-9.529999999999999,0.73,2.33,0.86,0.19,-0.8100000000000001
14.63920104503632,2,3,3,2,-9.609999999999999,0.78,2.4,0.62,0.25,-0.61
14.64920103549957,2,3,3,2,-9.74,0.84,2.37,0.62,0.25,-0.61
14.65920102596283,2,3,3,2,-9.83,0.87,2.17,0.63,0.34,-0.5
14.66920101642609,2,3,3,2,-9.789999999999999,0.86,2.15,0.75,0.48,-0.37
14.67920100688934,2,3,3,2,-9.720000000000001,0.88,2.16,0.87,0.6,-0.18
14.6892009973526,2,3,3,2,-9.619999999999999,0.93,2.22,0.87,0.9399999999999999,0.19
14.69920098781586,2,3,3,2,-9.529999999999999,0.98,2.25,0.87,0.9399999999999999,0.19
14.70920097827911,2,3,3,2,-9.51,1.04,2.16,0.73,1.01,0.3
14.71920096874237,2,3,3,2,-9.5,1.04,2.11,0.65,1.03,0.34
14.72920095920563,2,3,3,2,-9.5,1.06,2.04,0.79,0.88,0.41
14.73920094966888,2,3,3,2,-9.5,1.06,2.04,0.79,0.88,0.41
14.74920094013214,2,3,3,2,-9.460000000000001,1.12,2.17,0.8,0.8,0.43
14.7592009305954,2,3,3,2,-9.359999999999999,1.23,2.03,0.76,0.76,0.46
14.76920092105865,2,3,3,2,-9.35,1.3,2.29,0.74,0.76,0.42
14.77920091152191,2,3,3,2,-9.31,1.41,2.18,0.64,0.5600000000000001,0.32
14.7902010679245,2,3,3,2,-9.31,1.41,2.18,0.55,0.16,0.14
14.79920089244843,2,3,3,2,-9.32,1.37,2.06,0.55,0.16,0.14
14.80920088291168,2,3,3,2,-9.32,1.35,2.23,0.4,0.09,0.06
14.82020103931427,2,3,3,2,-9.31,1.31,2.28,0.15,-0.1,-0.02
14.8292008638382,2,3,3,2,-9.35,1.26,2.26,-0.1,-0.22,-0.09
14.83920085430145,2,3,3,2,-9.35,1.26,2.26,-0.55,-0.22,-0.15
14.85020101070404,2,3,3,2,-9.52,1.16,2.34,-0.55,-0.22,-0.15
14.85920107364655,2,3,3,2,-9.539999999999999,1.1,2.3,-0.75,-0.22,-0.15
14.8692010641098,2,3,3,2,-9.529999999999999,1.07,2.35,-0.87,-0.24,-0.13
14.88020098209381,2,3,3,2,-9.529999999999999,1,2.28,-1,-0.26,-0.12
14.88920104503632,2,3,3,2,-9.529999999999999,1,2.28,-1.02,-0.15,-0.01
14.89920103549957,2,3,3,2,-9.49,0.92,2.27,-1.02,-0.15,-0.01
14.90920102596283,2,3,3,2,-9.380000000000001,0.85,2.1,-0.96,-0.13,0.06
14.92020094394684,2,3,3,2,-9.33,0.9,2.13,-0.89,-0.04,0.14
14.9302009344101,2,3,3,2,-9.31,0.88,2.15,-0.8100000000000001,0,0.2
14.94020092487335,2,3,3,2,-9.31,0.88,2.15,-0.82,0.14,0.3
14.95020091533661,2,3,3,2,-9.33,0.91,2.14,-0.82,0.14,0.3
14.96020090579987,2,3,3,2,-9.43,0.95,2.14,-0.75,0.14,0.35
14.97020089626312,2,3,3,2,-9.460000000000001,0.93,2.23,-0.72,0.21,0.4
14.98020088672638,2,3,3,2,-9.49,0.91,2.24,-0.71,0.19,0.39
14.99020087718964,2,3,3,2,-9.49,0.91,2.24,-0.64,0.06,0.37
15.00020086765289,2,3,3,2,-9.49,0.93,2.22,-0.64,0.06,0.37
15.01020085811615,2,3,3,2,-9.42,0.85,2.22,-0.66,0.03,0.33
15.02020084857941,2,3,3,2,-9.380000000000001,0.92,2.21,-0.67,-0.03,0.28
15.03020107746124,2,3,3,2,-9.359999999999999,0.89,2.18,-0.62,-0.07000000000000001,0.29
15.0402010679245,2,3,3,2,-9.359999999999999,0.89,2.18,-0.27,-0.07000000000000001,0.27
15.05020105838776,2,3,3,2,-9.359999999999999,0.83,2.14,-0.27,-0.07000000000000001,0.27
15.06020104885101,2,3,3,2,-9.48,0.8,2.03,-0.2,0.07000000000000001,0.19
15.07020103931427,2,3,3,2,-9.57,0.8,2.04,-0.15,0.18,0.23
15.08020102977753,2,3,3,2,-9.720000000000001,0.84,2.1,-0.15,0.24,0.24
15.09020102024078,2,3,3,2,-9.720000000000001,0.84,2.1,-0.15,0.24,0.24
15.10020101070404,2,3,3,2,-9.779999999999999,0.84,2.12,-0.06,0.45,0.34
15.1102010011673,2,3,3,2,-9.85,0.86,2.2,0.02,0.34,0.42
15.12020099163055,2,3,3,2,-9.81,0.96,2.07,0.19,0.04,0.52
15.13020098209381,2,3,3,2,-9.800000000000001,1,1.99,0.52,-0.17,0.57
15.14020097255707,2,3,3,2,-9.800000000000001,1,1.99,0.52,-0.17,0.57
15.15020096302032,2,3,3,2,-9.779999999999999,1.02,2.01,0.97,-0.01,0.65
15.16020095348358,2,3,3,2,-9.76,1.29,1.93,1.1,-0.06,0.67
15.17020094394684,2,3,3,2,-9.76,1.39,2.04,1.25,0.02,0.6899999999999999
15.1802009344101,2,3,3,2,-9.67,1.46,2.1,1.36,0.07000000000000001,0.68
15.19020092487335,2,3,3,2,-9.67,1.46,2.1,1.36,0.07000000000000001,0.68
15.20020091533661,2,3,3,2,-9.44,1.68,1.98,1.46,0.13,0.52
15.21020090579987,2,3,3,2,-9.18,1.82,1.73,1.37,0.31,0.37
15.22020089626312,2,3,3,2,-9.01,1.86,1.7,1.01,0.6899999999999999,0.12
15.23020088672638,2,3,3,2,-8.710000000000001,1.94,1.67,1.01,0.6899999999999999,0.12
15.24020087718964,2,3,3,2,-8.710000000000001,1.94,1.67,1.01,0.6899999999999999,0.12
15.25020086765289,2,3,3,2,-8.59,1.95,1.63,0.72,1.23,-0.13
15.26020085811615,2,3,3,2,-8.5,1.96,1.68,0.7,1.44,-0.28
15.27020084857941,2,3,3,2,-8.24,2.2,1.35,1.06,1.76,-0.46
15.28020107746124,2,3,3,2,-8.24,2.2,1.35,1.06,1.76,-0.46
15.2902010679245,2,3,3,2,-8.050000000000001,2.22,1.29,1.06,1.76,-0.46
15.30020105838776,2,3,3,2,-7.74,2.09,0.91,0.62,2.93,-0.05
15.31020104885101,2,3,3,2,-7.37,2.04,0.41,-0.48,3.75,0.62
15.32020103931427,2,3,3,2,-6.42,1.69,0.11,-1.81,4.33,1.21
15.33020102977753,2,3,3,2,-6.09,1.71,0.54,-2.93,4.38,1.48
15.34020102024078,2,3,3,2,-5.89,1.82,0.8100000000000001,-2.93,4.38,1.48
15.35020101070404,2,3,3,2,-5.7,2.33,0.8,-3.31,2.04,0.97
15.3602010011673,2,3,3,2,-5.75,2.41,0.71,-3.14,0.9399999999999999,0.71
15.37020099163055,2,3,3,2,-5.72,2.33,0.48,-3.96,0.16,0.65
15.38020098209381,2,3,3,2,-5.74,2.32,0.51,-4.49,-0.3,0.47
15.39020097255707,2,3,3,2,-6.28,1.3,0.96,-4.49,-0.3,0.47
15.40020096302032,2,3,3,2,-6.91,0.6,1.15,-3.48,-1.68,-0.52
15.41020095348358,2,3,3,2,-7.3,0.36,1.18,-3.75,-2.77,-0.75
15.42020094394684,2,3,3,2,-7.42,0.41,1.06,-3.1,-3.9,-0.67
15.4302009344101,2,3,3,2,-6.99,0.43,1.52,-1.92,-4.8,-0.45
15.44020092487335,2,3,3,2,-6.9,0.04,1.63,-1.92,-4.8,-0.45
15.45020091533661,2,3,3,2,-6.91,-0.14,1.82,-1.78,-6.48,-1.35
15.46020090579987,2,3,3,2,-6.98,-0.21,2.1,-1.72,-6.89,-1.89
15.47020089626312,2,3,3,2,-7.66,0.09,1.84,-1.37,-7.02,-2.49
15.48020088672638,2,3,3,2,-8.16,-0.03,2.27,-0.68,-6.91,-3.24
15.49020087718964,2,3,3,2,-8.609999999999999,-0.36,2.66,-0.68,-6.91,-3.24
15.50020086765289,2,3,3,2,-9.99,-1.05,2.79,-2.19,-5.68,-5.15
15.51020085811615,2,3,3,2,-11.73,-1.84,4.17,-3.28,-5.65,-6.32
15.52020084857941,2,3,3,2,-12.35,-2.16,4.54,-2.95,-5.6,-6.69
15.53020107746124,2,3,3,2,-13.05,-2.63,4.42,-2.79,-4.84,-6.47
15.5402010679245,2,3,3,2,-15.28,-3.54,5.23,-2.79,-4.84,-6.47
15.55020105838776,2,3,3,2,-16.54,-3.9,5.7,-3.21,-3.71,-6.15
15.56020104885101,2,3,3,2,-17.78,-3.81,6.54,-4.4,-2.21,-5.33
15.57020103931427,2,3,3,2,-19.01,-3.71,6.95,-4.29,-1.09,-4.49
15.58020102977753,2,3,3,2,-23.17,-3.96,8.15,-4.18,-0.22,-2.93
15.59020102024078,2,3,3,2,-25.34,-4.06,8.51,-4.18,-0.22,-2.93
15.60020101070404,2,3,3,2,-26.84,-3.47,8.550000000000001,-3.64,1.1,1.28
15.6102010011673,2,3,3,2,-27.82,-2.67,8.880000000000001,-1.99,1.77,3.72
15.62020099163055,2,3,3,2,-28.17,-1.75,8.91,0.68,1.21,5.62
15.63020098209381,2,3,3,2,-27.09,-1.67,8.67,3.77,1.09,6.38
15.64020097255707,2,3,3,2,-25.54,-1.28,8.359999999999999,3.77,1.09,6.38
15.65020096302032,2,3,3,2,-24.69,-0.43,8.119999999999999,5.91,2.01,5.48
15.66020095348358,2,3,3,2,-22.51,-0.08,6.64,5.74,2.17,4.2
15.67020094394684,2,3,3,2,-20.29,0.39,5.36,5.7,3.15,3.76
15.6802009344101,2,3,3,2,-17.44,1.09,4.19,5.69,5.12,4.55
15.69020092487335,2,3,3,2,-15.02,2.09,3.05,5.69,5.12,4.55
15.70020091533661,2,3,3,2,-10.86,2.9,1.63,4.73,10.89,7.22
15.71020090579987,2,3,3,2,-9.24,3.41,2.32,4.86,12.59,8.449999999999999
15.72020089626312,2,3,3,2,-7.75,3.95,2.63,3.89,13.7,9.31
15.73020088672638,2,3,3,2,-5.94,1.5,1.51,3.3,13.54,9.77
15.74020087718964,2,3,3,2,-4,1.2,0.93,3.3,13.54,9.77
15.75020086765289,2,3,3,2,-2.29,1.44,-0.14,1.3,11.24,9.42
15.76020085811615,2,3,3,2,-0.71,1.92,-1.19,2.12,9.81,8.880000000000001
15.77020084857941,2,3,3,2,3.51,4.08,-2.46,2.7,7.5,8.26
15.78020107746124,2,3,3,2,4.71,4.72,-2.46,2.36,5.57,7.64
15.7902010679245,2,3,3,2,4.95,5.1,-1.43,2.36,5.57,7.64
15.80020105838776,2,3,3,2,5.08,4.87,-0.4,-2.02,2.38,3.81
15.81020104885101,2,3,3,2,3.92,3.23,-0.21,-3.93,1.87,0.24
15.82020103931427,2,3,3,2,1.76,1.88,-1.03,-4.36,1.72,-4.32
15.83020102977753,2,3,3,2,-0.39,0.07000000000000001,-1.89,-2.31,-0.47,-8.58
15.84020102024078,2,3,3,2,-1.34,-1.34,-1.93,-2.31,-0.47,-8.58
15.85020101070404,2,3,3,2,-1.29,-0.78,0.8100000000000001,1.17,-4.48,-11.59
15.8602010011673,2,3,3,2,-1.27,-0.84,0.67,3.22,-6.95,-12.62
15.87020099163055,2,3,3,2,-1.19,-0.92,0.47,3.76,-6.85,-11.31
15.88020098209381,2,3,3,2,-1.04,-0.76,0.31,4.34,-6.1,-9.199999999999999
15.89020097255707,2,3,3,2,-0.64,-0.1,-0.08,4.34,-6.1,-9.199999999999999
15.90020096302032,2,3,3,2,-0.65,0.06,-0.2,4.25,-2.7,-3.72
15.91020095348358,2,3,3,2,-0.7,0.01,-0.21,3.74,-0.77,-0.82
15.92020094394684,2,3,3,2,-0.64,-0.31,-0.35,2.84,1.18,1.47
15.9302009344101,2,3,3,2,-0.67,-0.24,-0.72,2.27,3.07,3.24
15.9412008523941,2,3,3,2,-0.8100000000000001,0.02,-1.01,2.27,3.07,3.24
15.95120084285736,2,3,3,2,-0.75,0.28,-1.21,2.32,4.37,4.38
15.9612010717392,2,3,3,2,-0.65,0.87,-1.33,2.01,4.49,4.65
15.97120106220245,2,3,3,2,-0.67,1.26,-1.12,2.07,3.43,4.03
15.98120105266571,2,3,3,2,-0.8,1.89,-0.44,2.8,1.12,3.15
15.99120104312897,2,3,3,2,-0.38,2.3,-0.9399999999999999,2.8,1.12,3.15
16.00120103359222,2,3,3,2,-0.18,2.36,-1.65,3.27,-1.73,0.71
16.01120102405548,2,3,3,2,-0.1,2.67,-0.91,1.95,-2.38,-1.17
16.02120101451874,2,3,3,2,0.59,2.93,-0.8100000000000001,1.35,-3.07,-3.08
16.03120100498199,2,3,3,2,1.01,2.82,-0.66,-0.05,-3.04,-4.96
16.04120099544525,2,3,3,2,-0.61,3.01,1.18,-0.05,-3.04,-4.96
16.05120098590851,2,3,3,2,-1.2,3.97,-0.59,-5.8,-7.84,-10.44
16.06120097637177,2,3,3,2,-2.67,4.12,-1.38,-4.77,-9.91,-12.41
16.07120096683502,2,3,3,2,-8.800000000000001,2.01,0.77,-5.92,-14.59,-16.64
16.08120095729828,2,3,3,2,-15.03,3.06,5.6,-6.51,-19.98,-19.46
16.09120094776154,2,3,3,2,-26.57,2.94,6.23,-6.51,-19.98,-19.46
16.10120093822479,2,3,3,2,-35.25,-0.66,7.28,-12.09,-17.57,-17.99
16.11120092868805,2,3,3,2,-28.42,-1.25,8.06,-13.29,-12.63,-12.99
16.12120091915131,2,3,3,2,-36.25,-2.46,8.82,-8.94,-3.31,-8.390000000000001
16.13120090961456,2,3,3,2,-39.06,-1.35,5.71,-8,2.87,-2.19
16.14120090007782,2,3,3,2,-33.71,-3.38,5.91,-8,2.87,-2.19
16.15120089054108,2,3,3,2,-19.26,-5.44,8.140000000000001,-11.93,3.51,2.12
16.16120088100433,2,3,3,2,-20.79,-5.78,7.1,-10.8,3.21,-1.8
16.17120087146759,2,3,3,2,-19.74,-5.49,6.91,-10.66,1.04,-6.09
16.18120086193085,2,3,3,2,-16.57,-5.91,6.66,-9.99,-0.89,-7.98
16.1912008523941,2,3,3,2,-13.65,-6.27,5.46,-9.99,-0.89,-7.98
16.20120084285736,2,3,3,2,-13.94,-5.5,4.85,-4.39,-0.31,-4.66
16.2112010717392,2,3,3,2,-12.54,-4.41,4.16,-1.23,1.53,-1.04
16.22120106220245,2,3,3,2,-10.68,-3.41,3.33,0.91,4.24,2.92
16.23120105266571,2,3,3,2,-7.95,-1.25,2.26,2.18,6,6.74
16.24120104312897,2,3,3,2,-7.04,-0.49,1.81,2.18,6,6.74
16.25120103359222,2,3,3,2,-7.02,0.42,1.29,3.12,6.59,10.27
16.26120102405548,2,3,3,2,-7.28,1.53,0.91,3.38,5.77,14.22
16.27120101451874,2,3,3,2,-7.79,3.2,0.71,2.72,5.17,13.49
16.28120100498199,2,3,3,2,-7.72,3.2,0.79,1.93,5.13,11.33
16.29120099544525,2,3,3,2,-7.58,2.9,0.6899999999999999,1.93,5.13,11.33
16.30120098590851,2,3,3,2,-7.41,2.47,0.35,0.52,4.9,6.39
16.31120097637177,2,3,3,2,-6.61,1.77,0.21,0.54,4.12,4.07
16.32120096683502,2,3,3,2,-6.11,1.66,0.29,1.07,3.31,2.32
16.33120095729828,2,3,3,2,-5.79,1.72,0.49,1.96,2.47,1.21
16.34120094776154,2,3,3,2,-5.23,2.01,0.97,1.96,2.47,1.21
16.35120093822479,2,3,3,2,-4.85,2.29,1.29,3.01,1.24,0.75
16.36120092868805,2,3,3,2,-4.59,2.56,1.69,4.02,-0.95,1.08
16.37120091915131,2,3,3,2,-4.48,2.72,1.89,4.26,-1.56,1.44
16.38120090961456,2,3,3,2,-5.11,2.8,2.33,4.35,-1.58,1.57
16.39120090007782,2,3,3,2,-6.01,2.6,2.58,4.35,-1.58,1.57
16.40120089054108,2,3,3,2,-7.13,2.38,2.69,2.78,-1.23,0.52
16.41120088100433,2,3,3,2,-8.51,2.19,2.91,0.96,-1.32,-0.72
16.42120087146759,2,3,3,2,-11.64,1.51,2.53,-0.9,-1.59,-2.18
16.43120086193085,2,3,3,2,-13.15,1.2,2.3,-2,-2,-3.47
16.4412008523941,2,3,3,2,-14.54,0.86,1.99,-2,-2,-3.47
16.45120084285736,2,3,3,2,-15.33,0.43,1.83,-1.82,-2.93,-4.19
16.4612010717392,2,3,3,2,-13.62,-0.53,2.12,-1.86,-2.66,-3.11
16.47120106220245,2,3,3,2,-11.92,-0.66,2.15,-1.73,-1.42,-1.23
16.48120105266571,2,3,3,2,-10.83,-0.79,2.12,-1.08,0.17,0.67
16.49120104312897,2,3,3,2,-9.91,-0.98,2.16,-1.08,0.17,0.67
16.50120103359222,2,3,3,2,-8.23,-0.57,2.23,-0.31,1.17,2.03
16.51120102405548,2,3,3,2,-7.72,-0.28,2.28,0.67,1.96,2.76
16.52120101451874,2,3,3,2,-7.51,-0.02,2.21,0.6899999999999999,2.18,2.3
16.53120100498199,2,3,3,2,-7.49,0.05,2.23,0.6899999999999999,2.18,2.3
16.54120099544525,2,3,3,2,-7.85,0,2.29,0.62,2.14,1.59
16.55120098590851,2,3,3,2,-8.09,-0.01,2.37,1.03,1.55,0.36
16.56120097637177,2,3,3,2,-8.33,0.11,2.4,1.03,1.55,0.36
16.57120096683502,2,3,3,2,-8.970000000000001,0.22,2.27,1.5,1.12,-0.01
16.58120095729828,2,3,3,2,-9.289999999999999,0.35,2.38,1.78,0.76,-0.28
16.59120094776154,2,3,3,2,-9.539999999999999,0.48,2.45,1.94,0.4,-0.5
16.60120093822479,2,3,3,2,-9.720000000000001,0.57,2.37,1.96,-0.17,-0.91
16.61120092868805,2,3,3,2,-9.9,0.8,2.02,1.96,-0.17,-0.91
16.62120091915131,2,3,3,2,-9.93,0.79,1.78,1.82,-0.32,-0.88
16.63120090961456,2,3,3,2,-9.970000000000001,0.73,1.73,1.63,-0.33,-0.76
16.64120090007782,2,3,3,2,-10,0.64,1.75,1.42,-0.32,-0.48
16.65120089054108,2,3,3,2,-9.91,0.5600000000000001,1.67,1.14,-0.32,-0.17
16.66120088100433,2,3,3,2,-9.789999999999999,0.5600000000000001,1.62,0.82,-0.35,-0.04
16.67120087146759,2,3,3,2,-9.68,0.55,1.58,0.58,-0.26,-0.03
16.68120086193085,2,3,3,2,-9.5,0.51,1.77,0.26,-0.12,-0.1
16.6912008523941,2,3,3,2,-9.279999999999999,0.29,2.08,-0.16,-0.09,-0.33
16.70120084285736,2,3,3,2,-9.300000000000001,0.15,2.46,-0.6899999999999999,-0.23,-0.93
16.7112010717392,2,3,3,2,-9.300000000000001,-0.13,2.87,-0.6899999999999999,-0.23,-0.93
16.72120106220245,2,3,3,2,-9.18,-0.26,2.77,-0.66,-0.89,-1.23
16.73120105266571,2,3,3,2,-9.16,-0.3,2.13,-0.22,-1.36,-1.5
16.74120104312897,2,3,3,2,-9.18,-0.26,2.06,0.26,-1.15,-1.74
16.75120103359222,2,3,3,2,-9.23,-0.34,2.17,0.7,-0.82,-1.68
16.76120102405548,2,3,3,2,-9.57,-0.31,2.46,1.06,-0.52,-1.54
16.77120101451874,2,3,3,2,-9.66,-0.25,2.31,1.33,-0.39,-1.32
16.78120100498199,2,3,3,2,-9.82,-0.15,2.2,1.66,-0.44,-1.03
16.79120099544525,2,3,3,2,-9.92,-0.07000000000000001,2.16,2.03,-0.28,-0.74
16.80120098590851,2,3,3,2,-9.94,0.2,1.71,2.32,-0.2,-0.53
16.81120097637177,2,3,3,2,-9.94,0.3,1.59,2.57,-0.06,-0.42
16.82120096683502,2,3,3,2,-9.85,0.3,1.5,2.46,0.03,-0.31
16.83120095729828,2,3,3,2,-9.720000000000001,0.38,1.68,1.8,-0.06,-0.13
16.84120094776154,2,3,3,2,-9.59,0.57,1.97,0.98,-0.14,-0.04
16.85120093822479,2,3,3,2,-9.49,0.58,1.84,0.47,-0.36,-0.01
16.86120092868805,2,3,3,2,-9.449999999999999,0.53,1.75,0.15,-0.76,-0.03
16.87120091915131,2,3,3,2,-9.44,0.47,1.61,-0.27,-0.9,-0.12
16.88120090961456,2,3,3,2,-9.41,0.27,1.78,-0.59,-0.82,-0.28
16.89120090007782,2,3,3,2,-9.43,0.13,1.97,-0.86,-0.7,-0.4
16.90120089054108,2,3,3,2,-9.42,0,1.99,-0.93,-0.53,-0.51
16.91120088100433,2,3,3,2,-9.52,-0.14,2.17,-0.89,-0.42,-0.63
16.92120087146759,2,3,3,2,-9.59,-0.19,1.94,-0.85,-0.59,-0.7
16.93120086193085,2,3,3,2,-9.609999999999999,-0.18,1.95,-0.79,-0.77,-0.75
16.9412008523941,2,3,3,2,-9.6,-0.19,1.98,-0.61,-0.79,-0.6899999999999999
16.95120084285736,2,3,3,2,-9.609999999999999,-0.26,1.94,-0.23,-0.75,-0.59
16.9612010717392,2,3,3,2,-9.609999999999999,-0.26,1.88,-0.03,-0.58,-0.44
16.97220098972321,2,3,3,2,-9.609999999999999,-0.23,1.8,0.12,-0.46,-0.32
16.98220098018646,2,3,3,2,-9.630000000000001,-0.18,1.74,0.21,-0.33,-0.13
16.99220097064972,2,3,3,2,-9.67,-0.11,1.99,0.29,-0.18,-0.01
17.00220096111298,2,3,3,2,-9.65,-0.07000000000000001,2.01,0.4,-0.08,0.24
17.01220095157623,2,3,3,2,-9.630000000000001,-0.02,1.92,0.4,-0.08,0.24
17.02220094203949,2,3,3,2,-9.609999999999999,0.01,1.91,0.46,-0.01,0.25
17.03220093250275,2,3,3,2,-9.539999999999999,0.02,1.96,0.54,0,0.2
17.042200922966,2,3,3,2,-9.51,0.06,2.05,0.66,0.04,0.16
17.05220091342926,2,3,3,3,-9.49,0.17,1.97,0.76,0.07000000000000001,0.06
17.06220090389252,2,3,3,3,-9.5,0.14,1.98,0.84,0.11,-0.05
17.07220089435577,2,3,3,3,-9.48,0.15,1.92,0.88,0.16,-0.12
17.08220088481903,2,3,3,3,-9.460000000000001,0.22,1.94,0.74,0.1,-0.16
17.09220087528229,2,3,3,3,-9.49,0.27,1.97,0.7,0.12,-0.12
17.10220086574554,2,3,3,3,-9.52,0.33,1.97,0.6,0.19,-0.04
17.1122008562088,2,3,3,3,-9.550000000000001,0.38,1.92,0.49,0.26,0.04
17.12220084667206,2,3,3,3,-9.6,0.42,1.78,0.39,0.27,0.12
17.13220107555389,2,3,3,3,-9.619999999999999,0.46,1.82,0.28,0.35,0.14
17.14220106601715,2,3,3,3,-9.58,0.46,1.82,0.2,0.38,0.17
17.15220105648041,2,3,3,3,-9.59,0.46,1.81,0.13,0.37,0.18
17.16220104694366,2,3,3,3,-9.58,0.46,1.77,0,0.42,0.18
17.17220103740692,2,3,3,3,-9.56,0.44,1.66,-0.09,0.5,0.21
17.18220102787018,2,3,3,3,-9.550000000000001,0.44,1.79,-0.15,0.57,0.22
17.19220101833344,2,3,3,3,-9.5,0.44,1.89,-0.26,0.6899999999999999,0.19
17.20220100879669,2,3,3,3,-9.539999999999999,0.41,1.94,-0.43,0.76,0.19
17.21220099925995,2,3,3,3,-9.5,0.33,1.97,-0.63,0.8100000000000001,0.18
17.22220098972321,2,3,3,3,-9.48,0.19,1.91,-0.76,0.83,0.23
17.23220098018646,2,3,3,3,-9.460000000000001,0.19,2.06,-0.97,0.85,0.25
17.24220097064972,2,3,3,3,-9.49,0.19,2.1,-1.15,0.9399999999999999,0.29
17.25220096111298,2,3,3,3,-9.51,0.14,2.1,-1.17,1,0.3
17.26220095157623,2,3,3,3,-9.6,0.12,2.05,-1.01,1.01,0.33
17.27220094203949,2,3,3,3,-9.6,0.12,1.94,-0.78,1.02,0.3
17.28220093250275,2,3,3,3,-9.619999999999999,0.13,1.91,-0.5600000000000001,1.01,0.29
17.292200922966,2,3,3,3,-9.6,0.15,1.92,-0.3,0.93,0.27
17.30220091342926,2,3,3,3,-9.56,0.17,1.94,0.05,0.95,0.25
17.31220090389252,2,3,3,3,-9.58,0.21,1.89,0.33,0.91,0.24
17.32220089435577,2,3,3,3,-9.539999999999999,0.25,1.72,0.6,0.89,0.25
17.33220088481903,2,3,3,3,-9.58,0.31,1.77,0.82,0.89,0.2
17.34220087528229,2,3,3,3,-9.58,0.34,1.81,1.05,0.82,0.14
17.35220086574554,2,3,3,3,-9.609999999999999,0.37,1.85,1.29,0.71,0.06
17.3622008562088,2,3,3,3,-9.58,0.41,1.83,1.48,0.61,0
17.37220084667206,2,3,3,3,-9.58,0.48,1.72,1.57,0.43,-0.06
17.38220107555389,2,3,3,3,-9.56,0.54,1.79,1.63,0.35,-0.14
17.39220106601715,2,3,3,3,-9.550000000000001,0.61,1.8,1.64,0.24,-0.19
17.40220105648041,2,3,3,3,-9.550000000000001,0.62,1.84,1.54,0.16,-0.24
17.41220104694366,2,3,3,3,-9.58,0.67,1.75,1.37,0.09,-0.23
17.42220103740692,2,3,3,3,-9.59,0.68,1.68,1.22,0.1,-0.24
17.43220102787018,2,3,3,3,-9.59,0.6899999999999999,1.72,1.01,0.06,-0.29
17.44220101833344,2,3,3,3,-9.57,0.6899999999999999,1.77,0.86,0.08,-0.29
17.45220100879669,2,3,3,3,-9.539999999999999,0.68,1.8,0.7,0.08,-0.28
17.46220099925995,2,3,3,3,-9.56,0.68,1.82,0.52,0.1,-0.31
17.47220098972321,2,3,3,3,-9.539999999999999,0.65,1.7,0.34,0.09,-0.3
17.48220098018646,2,3,3,3,-9.57,0.58,1.71,0.19,0.09,-0.31
17.49220097064972,2,3,3,3,-9.59,0.53,1.78,0.04,0.09,-0.26
17.50220096111298,2,3,3,3,-9.6,0.54,1.89,-0.11,0.05,-0.2
17.51220095157623,2,3,3,3,-9.609999999999999,0.51,1.89,-0.23,0.05,-0.16
17.52220094203949,2,3,3,3,-9.609999999999999,0.46,1.77,-0.36,0.02,-0.09
17.53220093250275,2,3,3,3,-9.6,0.35,1.84,-0.43,-0.01,-0.03
17.542200922966,2,3,3,3,-9.59,0.33,1.88,-0.48,-0.01,0.03
17.55220091342926,2,3,3,3,-9.59,0.29,1.92,-0.5,-0.03,0.1
17.56220090389252,2,3,3,3,-9.6,0.24,1.9,-0.44,0,0.17
17.57220089435577,2,3,3,3,-9.59,0.29,1.85,-0.36,0,0.18
17.58220088481903,2,3,3,3,-9.539999999999999,0.28,1.92,-0.3,-0.04,0.2
17.59220087528229,2,3,3,3,-9.529999999999999,0.26,1.93,-0.16,-0.01,0.19
17.60220086574554,2,3,3,3,-9.539999999999999,0.3,1.97,-0.07000000000000001,-0.03,0.19
17.6122008562088,2,3,3,3,-9.529999999999999,0.33,1.92,0.15,-0.02,0.17
17.62220084667206,2,3,3,3,-9.52,0.33,1.82,0.3,-0.05,0.15
17.63220107555389,2,3,3,3,-9.51,0.34,1.83,0.39,-0.06,0.14
17.64220106601715,2,3,3,3,-9.5,0.38,1.93,0.4,-0.07000000000000001,0.11
17.65220105648041,2,3,3,3,-9.5,0.39,1.94,0.34,-0.07000000000000001,0.07000000000000001
17.66220104694366,2,3,3,3,-9.51,0.4,1.96,0.28,-0.03,0.03
17.67220103740692,2,3,3,3,-9.529999999999999,0.39,1.85,0.23,-0.07000000000000001,0
17.68220102787018,2,3,3,3,-9.539999999999999,0.37,1.92,0.2,-0.09,-0.04
17.69220101833344,2,3,3,3,-9.550000000000001,0.4,1.95,0.16,-0.11,-0.07000000000000001
17.70220100879669,2,3,3,3,-9.550000000000001,0.4,1.99,0.13,-0.1,-0.07000000000000001
17.71220099925995,2,3,3,3,-9.56,0.38,1.99,0.08,-0.14,-0.12
17.72220098972321,2,3,3,3,-9.529999999999999,0.37,1.89,0.03,-0.13,-0.15
17.73220098018646,2,3,3,3,-9.539999999999999,0.35,1.94,-0.04,-0.11,-0.14
17.74220097064972,2,3,3,3,-9.529999999999999,0.35,1.96,-0.07000000000000001,-0.11,-0.11
17.75220096111298,2,3,3,3,-9.550000000000001,0.37,1.96,-0.07000000000000001,-0.07000000000000001,-0.09
17.76220095157623,2,3,3,3,-9.58,0.37,1.89,-0.04,-0.05,-0.06
17.77220094203949,2,3,3,3,-9.58,0.39,1.82,0.06,-0.07000000000000001,-0.03
17.78220093250275,2,3,3,3,-9.58,0.43,1.84,0.12,-0.08,-0.04
17.792200922966,2,3,3,3,-9.529999999999999,0.44,1.92,0.16,-0.06,-0.06
17.80220091342926,2,3,3,3,-9.51,0.48,1.9,0.19,-0.04,-0.02
17.81220090389252,2,3,3,3,-9.52,0.49,1.9,0.18,0.01,-0.01
17.82220089435577,2,3,3,3,-9.52,0.54,1.83,0.08,0.04,-0.02
17.83220088481903,2,3,3,3,-9.52,0.57,1.85,0.02,0.05,0.03
17.84220087528229,2,3,3,3,-9.539999999999999,0.55,1.84,-0.05,0.02,-0.02
17.85220086574554,2,3,3,3,-9.529999999999999,0.51,1.88,-0.04,0.02,-0.02
17.8622008562088,2,3,3,3,-9.550000000000001,0.46,1.9,-0.1,0.05,-0.06
17.87220084667206,2,3,3,3,-9.529999999999999,0.43,1.88,-0.2,0.04,-0.04
17.88220107555389,2,3,3,3,-9.529999999999999,0.42,1.93,-0.33,0.05,-0.04
17.89220106601715,2,3,3,3,-9.539999999999999,0.39,1.96,-0.43,0.05,-0.04
17.90220105648041,2,3,3,3,-9.539999999999999,0.38,1.93,-0.49,0.01,-0.02
17.91220104694366,2,3,3,3,-9.59,0.35,1.89,-0.45,-0.07000000000000001,0
17.92220103740692,2,3,3,3,-9.6,0.34,1.74,-0.42,-0.11,0.03
17.93220102787018,2,3,3,3,-9.6,0.35,1.79,-0.33,-0.1,0.08
17.94220101833344,2,3,3,3,-9.57,0.36,1.84,-0.29,-0.11,0.1
17.95220100879669,2,3,3,3,-9.57,0.39,1.9,-0.21,-0.1,0.1
17.96220099925995,2,3,3,3,-9.59,0.43,1.87,-0.1,-0.08,0.16
17.97220098972321,2,3,3,3,-9.58,0.45,1.73,0.02,-0.1,0.16
17.98220098018646,2,3,3,3,-9.59,0.49,1.84,0.11,-0.06,0.17
17.99320089817047,2,3,3,3,-9.6,0.53,1.86,0.14,-0.05,0.17
18.00320088863373,2,3,3,3,-9.58,0.54,1.84,0.11,-0.04,0.19
18.01320087909698,2,3,3,3,-9.58,0.5600000000000001,1.85,0.06,0.01,0.23
18.02320086956024,2,3,3,3,-9.56,0.5600000000000001,1.71,0.01,-0.02,0.2
18.0332008600235,2,3,3,3,-9.529999999999999,0.57,1.82,-0.01,-0.02,0.21
18.04320085048676,2,3,3,3,-9.539999999999999,0.57,1.83,-0.07000000000000001,0,0.22
18.05320107936859,2,3,3,3,-9.52,0.57,1.84,-0.16,-0.01,0.22
18.06320106983185,2,3,3,3,-9.529999999999999,0.62,1.76,-0.26,-0.02,0.22
18.0732010602951,2,3,3,3,-9.529999999999999,0.63,1.7,-0.35,-0.01,0.23
18.08320105075836,2,3,3,3,-9.57,0.61,1.74,-0.4,-0.03,0.22
18.09320104122162,2,3,3,3,-9.550000000000001,0.6,1.76,-0.47,-0.03,0.22
18.10320103168488,2,3,3,3,-9.59,0.6,1.82,-0.54,-0.02,0.2
18.11320102214813,2,3,3,3,-9.6,0.5600000000000001,1.82,-0.62,-0.02,0.17
18.12320101261139,2,3,3,3,-9.59,0.52,1.72,-0.6,0,0.17
18.13320100307465,2,3,3,3,-9.58,0.52,1.73,-0.66,0,0.13
18.1432009935379,2,3,3,3,-9.57,0.48,1.82,-0.6899999999999999,-0.01,0.15
18.15320098400116,2,3,3,3,-9.550000000000001,0.46,1.83,-0.68,0.01,0.14
18.16320097446442,2,3,3,3,-9.56,0.49,1.85,-0.65,0.01,0.19
18.17320096492767,2,3,3,3,-9.550000000000001,0.48,1.73,-0.59,0.02,0.18
18.18320095539093,2,3,3,3,-9.550000000000001,0.46,1.82,-0.59,0.04,0.21
18.19320094585419,2,3,3,3,-9.56,0.48,1.87,-0.53,0.09,0.21
18.20320093631744,2,3,3,3,-9.529999999999999,0.48,1.87,-0.53,0.08,0.2
18.2132009267807,2,3,3,3,-9.550000000000001,0.48,1.81,-0.47,0.09,0.2
18.22320091724396,2,3,3,3,-9.57,0.46,1.77,-0.39,0.13,0.21
18.23320090770721,2,3,3,3,-9.539999999999999,0.47,1.84,-0.36,0.03,0.15
18.24320089817047,2,3,3,3,-9.550000000000001,0.49,1.86,-0.3,-0.01,0.13
18.25320088863373,2,3,3,2,-9.58,0.46,1.9,-0.24,-0.02,0.16
18.26320087909698,2,3,3,2,-9.59,0.48,1.88,-0.14,-0.01,0.16
18.27320086956024,2,3,3,2,-9.6,0.47,1.79,-0.1,0.01,0.18
18.2832008600235,2,3,3,2,-9.6,0.47,1.83,-0.09,0,0.15
18.29320085048676,2,3,3,2,-9.58,0.49,1.88,-0.05,0.03,0.12
18.30320107936859,2,3,3,2,-9.56,0.53,1.91,-0.01,-0.01,0.16
18.31320106983185,2,3,3,2,-9.529999999999999,0.53,1.95,0.02,0.04,0.16
18.3232010602951,2,3,3,2,-9.529999999999999,0.52,1.82,0.02,0.07000000000000001,0.19
18.33320105075836,2,3,3,2,-9.52,0.51,1.84,-0.01,0.05,0.16
18.34320104122162,2,3,3,2,-9.56,0.52,1.86,-0.02,0.08,0.16
18.35320103168488,2,3,3,2,-9.539999999999999,0.54,1.84,0,0.07000000000000001,0.15
18.36320102214813,2,3,3,2,-9.529999999999999,0.55,1.82,0.01,0.06,0.17
18.37320101261139,2,3,3,2,-9.550000000000001,0.57,1.73,0.04,0.08,0.18
18.38320100307465,2,3,3,2,-9.56,0.5600000000000001,1.8,0.02,0.08,0.14
18.3932009935379,2,3,3,2,-9.51,0.57,1.84,-0.01,0.07000000000000001,0.11
18.40320098400116,2,3,3,2,-9.550000000000001,0.5600000000000001,1.9,-0.05,0.11,0.13
18.41320097446442,2,3,3,2,-9.56,0.53,1.83,-0.12,0.11,0.09
18.42320096492767,2,3,3,2,-9.57,0.52,1.77,-0.16,0.08,0.06
18.43320095539093,2,3,3,2,-9.57,0.49,1.83,-0.24,0.02,0.05
18.44320094585419,2,3,3,2,-9.550000000000001,0.46,1.84,-0.19,0.09,0.07000000000000001
18.45320093631744,2,3,3,2,-9.539999999999999,0.47,1.89,-0.16,0.08,0.04
18.4632009267807,2,3,3,2,-9.550000000000001,0.48,1.86,-0.12,0.06,0.05
18.47320091724396,2,3,3,2,-9.57,0.48,1.75,-0.08,0.06,0.03
18.48320090770721,2,3,3,2,-9.59,0.46,1.89,-0.05,0,0.01
18.49320089817047,2,3,3,2,-9.59,0.49,1.87,-0.02,0.01,-0.04
18.50320088863373,2,3,3,2,-9.6,0.48,1.88,-0.04,-0.02,-0.07000000000000001
18.51320087909698,2,3,3,2,-9.57,0.44,1.94,-0.04,-0.04,-0.06
18.52320086956024,2,3,3,2,-9.52,0.46,1.96,-0.13,0.01,-0.07000000000000001
18.5332008600235,2,3,3,2,-9.5,0.46,1.94,-0.29,0.01,-0.05
18.54320085048676,2,3,3,2,-9.5,0.44,1.94,-0.26,0.05,-0.04
18.55320107936859,2,3,3,2,-9.51,0.47,1.98,-0.24,0.04,0
18.56320106983185,2,3,3,2,-9.5,0.47,1.89,-0.19,0.05,0.06
18.5732010602951,2,3,3,2,-9.51,0.49,1.81,-0.14,0.09,0.09
18.58320105075836,2,3,3,2,-9.51,0.52,1.84,-0.08,0.1,0.13
18.59320104122162,2,3,3,2,-9.529999999999999,0.51,1.94,-0.1,0.08,0.18
18.60320103168488,2,3,3,2,-9.57,0.5,1.93,-0.09,0.07000000000000001,0.19
18.61320102214813,2,3,3,2,-9.56,0.5,1.93,-0.01,0.01,0.14
18.62320101261139,2,3,3,2,-9.58,0.49,1.83,0.04,-0.01,0.11
18.63320100307465,2,3,3,2,-9.59,0.51,1.92,0.15,-0.01,0.08
18.6432009935379,2,3,3,2,-9.58,0.5,1.93,0.16,-0.08,0.06
18.65320098400116,2,3,3,2,-9.59,0.49,1.95,0.21,-0.1,0.05
18.66320097446442,2,3,3,2,-9.58,0.46,2,0.26,-0.05,0.02
18.67320096492767,2,3,3,2,-9.57,0.49,1.87,0.32,-0.09,0.02
18.68320095539093,2,3,3,2,-9.56,0.5,1.97,0.36,-0.09,0.02
18.69320094585419,2,3,3,2,-9.539999999999999,0.47,2,0.36,-0.15,0.02
18.70320093631744,2,3,3,2,-9.51,0.49,1.95,0.37,-0.22,-0.04
18.7132009267807,2,3,3,2,-9.5,0.54,1.84,0.29,-0.23,-0.05
18.72320091724396,2,3,3,2,-9.51,0.5600000000000001,1.82,0.23,-0.22,-0.03
18.73320090770721,2,3,3,2,-9.5,0.53,1.84,0.23,-0.23,-0.03
18.74320089817047,2,3,3,2,-9.5,0.52,1.89,0.12,-0.21,-0.08
18.75320088863373,2,3,3,2,-9.5,0.5,1.87,0.02,-0.22,-0.08
18.76320087909698,2,3,3,2,-9.539999999999999,0.51,1.82,-0.02,-0.19,-0.04
18.77320086956024,2,3,3,2,-9.57,0.51,1.76,-0.06,-0.1,0.01
18.7832008600235,2,3,3,2,-9.630000000000001,0.5,2.08,0.03,-0.1,0.07000000000000001
18.79320085048676,2,3,3,2,-9.73,0.44,2.31,0.04,-0.21,0.12
18.80320107936859,2,3,3,2,-9.699999999999999,0.39,2.52,0.08,-0.62,0.15
