timestamp,magCalib,accCalib,gyrCalib,sysCalib,accX,accY,accZ,gyrX,gyrY,gyrZ
0.006200909614562988,2,3,3,3,-9.57,1.4,-1.44,-0.34,0.05,-0.15
0.01620090007781982,2,3,3,3,-9.58,1.4,-1.42,-0.34,0.05,-0.15
0.02620089054107666,2,3,3,3,-9.6,1.41,-1.39,-0.38,0.05,-0.18
0.0362008810043335,2,3,3,3,-9.609999999999999,1.39,-1.43,-0.49,0.09,-0.19
0.04620087146759033,2,3,3,3,-9.619999999999999,1.36,-1.5,-0.53,0.05,-0.26
0.05620086193084717,2,3,3,3,-9.6,1.37,-1.51,-0.55,0.06,-0.22
0.066200852394104,2,3,3,3,-9.58,1.31,-1.39,-0.55,0.06,-0.22
0.07620084285736084,2,3,3,3,-9.59,1.29,-1.4,-0.6,0.01,-0.23
0.08620107173919678,2,3,3,3,-9.6,1.29,-1.38,-0.51,0.04,-0.21
0.09620106220245361,2,3,3,3,-9.630000000000001,1.29,-1.47,-0.52,0.06,-0.25
0.1062010526657104,2,3,3,3,-9.6,1.29,-1.41,-0.55,0.03,-0.25
0.1172009706497192,2,3,3,3,-9.59,1.3,-1.35,-0.55,0.03,-0.25
0.1272009611129761,2,3,3,3,-9.619999999999999,1.28,-1.38,-0.5600000000000001,-0.02,-0.3
0.1372009515762329,2,3,3,3,-9.609999999999999,1.3,-1.36,-0.59,0,-0.33
0.1472009420394897,2,3,3,3,-9.56,1.36,-1.49,-0.61,0.04,-0.33
0.1572009325027466,2,3,3,3,-9.59,1.35,-1.47,-0.66,0.06,-0.32
0.1672009229660034,2,3,3,3,-9.59,1.31,-1.45,-0.66,0.06,-0.32
0.1772009134292603,2,3,3,3,-9.6,1.29,-1.46,-0.65,0.04,-0.31
0.1872009038925171,2,3,3,3,-9.609999999999999,1.27,-1.51,-0.63,-0.04,-0.33
0.1972008943557739,2,3,3,3,-9.59,1.3,-1.53,-0.55,-0.09,-0.3
0.2172008752822876,2,3,3,3,-9.59,1.29,-1.46,-0.44,0.02,-0.28
0.2272008657455444,2,3,3,3,-9.6,1.34,-1.42,-0.42,0,-0.31
0.2372008562088013,2,3,3,3,-9.6,1.32,-1.41,-0.45,-0.01,-0.3
0.2472008466720581,2,3,3,3,-9.6,1.32,-1.51,-0.49,0.03,-0.3
0.257201075553894,2,3,3,3,-9.59,1.32,-1.51,-0.46,0.01,-0.31
0.2672010660171509,2,3,3,3,-9.609999999999999,1.31,-1.44,-0.46,0.01,-0.31
0.2772010564804077,2,3,3,3,-9.59,1.29,-1.41,-0.51,0.01,-0.32
0.2872010469436646,2,3,3,3,-9.6,1.28,-1.41,-0.5600000000000001,-0.01,-0.29
0.2972010374069214,2,3,3,3,-9.6,1.24,-1.49,-0.59,-0.03,-0.28
0.3072010278701782,2,3,3,3,-9.630000000000001,1.23,-1.44,-0.55,-0.05,-0.28
0.3172010183334351,2,3,3,3,-9.619999999999999,1.26,-1.39,-0.55,-0.05,-0.28
0.3272010087966919,2,3,3,3,-9.630000000000001,1.23,-1.38,-0.55,-0.05,-0.25
0.3372009992599487,2,3,3,3,-9.640000000000001,1.23,-1.47,-0.54,-0.05,-0.27
0.3472009897232056,2,3,3,3,-9.640000000000001,1.23,-1.43,-0.54,-0.06,-0.3
0.3572009801864624,2,3,3,3,-9.640000000000001,1.23,-1.39,-0.58,-0.13,-0.3
0.3672009706497192,2,3,3,3,-9.640000000000001,1.23,-1.39,-0.58,-0.13,-0.3
0.3772009611129761,2,3,3,3,-9.630000000000001,1.23,-1.36,-0.5600000000000001,-0.13,-0.28
0.3872009515762329,2,3,3,3,-9.619999999999999,1.2,-1.52,-0.55,-0.07000000000000001,-0.29
0.3972009420394897,2,3,3,3,-9.630000000000001,1.21,-1.49,-0.62,-0.11,-0.31
0.4072009325027466,2,3,3,3,-9.630000000000001,1.19,-1.39,-0.68,-0.19,-0.29
0.4172009229660034,2,3,3,3,-9.630000000000001,1.19,-1.39,-0.68,-0.19,-0.29
0.4272009134292603,2,3,3,3,-9.65,1.18,-1.32,-0.67,-0.24,-0.24
0.4372009038925171,2,3,3,3,-9.619999999999999,1.26,-1.41,-0.46,-0.17,-0.26
0.4472008943557739,2,3,3,3,-9.6,1.34,-1.42,-0.37,-0.18,-0.19
0.4572008848190308,2,3,3,3,-9.58,1.35,-1.4,-0.39,-0.19,-0.18
0.4672008752822876,2,3,3,3,-9.58,1.35,-1.4,-0.47,-0.25,-0.13
0.4772008657455444,2,3,3,3,-9.59,1.34,-1.36,-0.48,-0.24,-0.09
0.4872008562088013,2,3,3,3,-9.619999999999999,1.29,-1.46,-0.42,-0.17,-0.08
0.4972008466720581,2,3,3,3,-9.619999999999999,1.33,-1.43,-0.46,-0.14,-0.1
0.507201075553894,2,3,3,3,-9.58,1.3,-1.37,-0.47,-0.23,-0.07000000000000001
0.5172010660171509,2,3,3,3,-9.58,1.3,-1.37,-0.47,-0.21,-0.06
0.5272010564804077,2,3,3,3,-9.58,1.32,-1.33,-0.44,-0.13,-0.05
0.5372010469436646,2,3,3,3,-9.630000000000001,1.26,-1.41,-0.31,-0.07000000000000001,-0.03
0.5472010374069214,2,3,3,3,-9.619999999999999,1.27,-1.36,-0.25,-0.01,-0.05
0.5572010278701782,2,3,3,3,-9.609999999999999,1.24,-1.34,-0.28,-0.08,-0.04
0.5672010183334351,2,3,3,3,-9.609999999999999,1.24,-1.34,-0.28,-0.07000000000000001,0.02
0.5772010087966919,2,3,3,3,-9.59,1.22,-1.33,-0.29,-0.11,0.07000000000000001
0.5872009992599487,2,3,3,3,-9.67,1.2,-1.4,-0.22,-0.1,0.02
0.5972009897232056,2,3,3,3,-9.65,1.24,-1.38,-0.19,-0.03,0.06
0.6072009801864624,2,3,3,3,-9.65,1.25,-1.3,-0.21,0.02,0.03
0.6172009706497192,2,3,3,3,-9.65,1.25,-1.3,-0.26,0.02,0.03
0.6272009611129761,2,3,3,3,-9.66,1.2,-1.3,-0.29,0.01,0.03
0.6372009515762329,2,3,3,3,-9.69,1.1,-1.38,-0.28,0.03,-0.01
0.6472009420394897,2,3,3,3,-9.67,1.13,-1.36,-0.21,0.01,0.01
0.6572009325027466,2,3,3,3,-9.65,1.18,-1.32,-0.16,0.07000000000000001,0.02
0.6672009229660034,2,3,3,3,-9.65,1.16,-1.3,-0.17,0,0.02
0.6772009134292603,2,3,3,3,-9.640000000000001,1.18,-1.26,-0.12,-0.03,0.07000000000000001
0.6872009038925171,2,3,3,3,-9.66,1.18,-1.41,-0.09,-0.05,0.02
0.6972008943557739,2,3,3,3,-9.65,1.14,-1.35,-0.02,0.08,0.01
0.7072008848190308,2,3,3,3,-9.66,1.17,-1.31,0,0.09,0.05
0.7172008752822876,2,3,3,3,-9.619999999999999,1.16,-1.31,0,0.15,0.03
0.7272008657455444,2,3,3,3,-9.630000000000001,1.19,-1.34,0.02,0.06,0.05
0.7372008562088013,2,3,3,3,-9.619999999999999,1.21,-1.44,0.1,0.06,0.14
0.7472008466720581,2,3,3,3,-9.640000000000001,1.2,-1.43,0.09,0.04,0.16
0.757201075553894,2,3,3,3,-9.619999999999999,1.24,-1.41,0.11,0.06,0.11
0.7872010469436646,2,3,3,3,-9.619999999999999,1.26,-1.43,0.22,0.04,0.12
0.7972010374069214,2,3,3,3,-9.640000000000001,1.24,-1.39,0.22,-0.04,0.12
0.8072010278701782,2,3,3,3,-9.630000000000001,1.27,-1.37,0.24,-0.07000000000000001,0.07000000000000001
0.8172010183334351,2,3,3,3,-9.630000000000001,1.27,-1.37,0.21,-0.1,0.09
0.8272010087966919,2,3,3,3,-9.609999999999999,1.27,-1.35,0.22,-0.08,0.09
0.8372009992599487,2,3,3,3,-9.59,1.34,-1.45,0.2,-0.1,0.11
0.8472009897232056,2,3,3,3,-9.59,1.35,-1.42,0.19,-0.05,0.1
0.8572009801864624,2,3,3,3,-9.59,1.35,-1.4,0.19,0.01,0.12
0.8672009706497192,2,3,3,3,-9.6,1.33,-1.43,0.14,0,0.09
0.8772009611129761,2,3,3,3,-9.6,1.27,-1.43,0.1,-0.02,0.09
0.8872009515762329,2,3,3,3,-9.619999999999999,1.27,-1.5,0.15,0.03,0.09
0.8972009420394897,2,3,3,3,-9.609999999999999,1.32,-1.43,0.14,0,0.09
0.9072009325027466,2,3,3,3,-9.609999999999999,1.32,-1.41,0.17,-0.06,0.05
0.9172009229660034,2,3,3,3,-9.6,1.38,-1.39,0.11,-0.09,0.1
0.9272009134292603,2,3,3,3,-9.59,1.36,-1.4,0.08,-0.07000000000000001,0.05
0.9372009038925171,2,3,3,3,-9.57,1.38,-1.49,0.13,-0.03,0.05
0.9472008943557739,2,3,3,3,-9.59,1.35,-1.49,0.07000000000000001,-0.04,0.04
0.9572008848190308,2,3,3,3,-9.6,1.33,-1.41,0.06,-0.04,0.04
0.9672008752822876,2,3,3,3,-9.6,1.34,-1.41,0.13,-0.06,0.06
0.9772008657455444,2,3,3,3,-9.6,1.38,-1.4,0.12,-0.11,0.02
0.9872008562088013,2,3,3,3,-9.619999999999999,1.38,-1.47,0.16,-0.12,0.08
0.9972008466720581,2,3,3,3,-9.59,1.36,-1.44,0.18,-0.14,0.04
1.027201056480408,2,3,3,3,-9.57,1.39,-1.35,0.23,-0.13,0.01
1.037201046943665,2,3,3,3,-9.609999999999999,1.4,-1.45,0.26,-0.12,0.02
1.047201037406921,2,3,3,3,-9.6,1.4,-1.4,0.26,-0.05,0
1.057201027870178,2,3,3,3,-9.6,1.42,-1.35,0.25,-0.06,-0.03
1.067201018333435,2,3,3,3,-9.6,1.42,-1.35,0.21,-0.04,-0.01
1.077201008796692,2,3,3,3,-9.57,1.39,-1.37,0.21,-0.02,-0.04
1.087200999259949,2,3,3,3,-9.58,1.39,-1.41,0.17,-0.02,-0.04
1.098200917243958,2,3,3,3,-9.58,1.38,-1.39,0.12,-0.06,-0.03
1.107200980186462,2,3,3,3,-9.59,1.37,-1.33,0.1,-0.04,-0.04
1.117200970649719,2,3,3,3,-9.58,1.39,-1.33,0.09,0.06,-0.07000000000000001
1.127200961112976,2,3,3,3,-9.58,1.38,-1.36,0.02,0.11,-0.11
1.138200879096985,2,3,3,3,-9.59,1.36,-1.43,-0.05,0.07000000000000001,-0.14
1.148200869560242,2,3,3,3,-9.609999999999999,1.36,-1.37,-0.15,-0.02,-0.12
1.158200860023499,2,3,3,3,-9.619999999999999,1.37,-1.36,-0.17,0.03,-0.14
1.168200850486755,2,3,3,3,-9.619999999999999,1.38,-1.32,-0.2,0.09,-0.16
1.178201079368591,2,3,3,3,-9.609999999999999,1.39,-1.3,-0.18,0.1,-0.13
1.188201069831848,2,3,3,3,-9.6,1.35,-1.4,-0.18,0.1,-0.12
1.198201060295105,2,3,3,3,-9.6,1.34,-1.37,-0.2,0.13,-0.06
1.208201050758362,2,3,3,3,-9.619999999999999,1.39,-1.34,-0.16,0.13,-0.07000000000000001
1.218201041221619,2,3,3,3,-9.609999999999999,1.37,-1.3,-0.12,0.18,-0.08
1.228201031684875,2,3,3,3,-9.630000000000001,1.38,-1.34,-0.15,0.17,-0.07000000000000001
1.238201022148132,2,3,3,3,-9.6,1.36,-1.42,-0.12,0.17,-0.06
1.248201012611389,2,3,3,3,-9.57,1.35,-1.4,-0.16,0.22,-0.05
1.258201003074646,2,3,3,3,-9.58,1.36,-1.38,-0.14,0.26,-0.04
1.268200993537903,2,3,3,3,-9.59,1.36,-1.34,-0.13,0.29,-0.01
1.27820098400116,2,3,3,3,-9.59,1.37,-1.35,-0.11,0.31,0
1.288200974464417,2,3,3,3,-9.59,1.37,-1.44,-0.09,0.3,0.09
1.298200964927673,2,3,3,3,-9.6,1.38,-1.45,-0.07000000000000001,0.32,0.06
1.30820095539093,2,3,3,3,-9.58,1.4,-1.41,-0.07000000000000001,0.37,0.08
1.318200945854187,2,3,3,3,-9.57,1.39,-1.36,-0.08,0.32,0.11
1.328200936317444,2,3,3,3,-9.57,1.38,-1.38,-0.12,0.29,0.15
1.338200926780701,2,3,3,3,-9.550000000000001,1.4,-1.48,-0.07000000000000001,0.32,0.18
1.348200917243958,2,3,3,3,-9.57,1.44,-1.49,-0.04,0.38,0.22
1.358200907707214,2,3,3,3,-9.58,1.44,-1.43,0,0.41,0.22
1.368200898170471,2,3,3,3,-9.56,1.45,-1.41,0.07000000000000001,0.44,0.22
1.378200888633728,2,3,3,3,-9.56,1.47,-1.36,-0.03,0.48,0.22
1.388200879096985,2,3,3,3,-9.52,1.42,-1.56,-0.04,0.47,0.32
1.398200869560242,2,3,3,3,-9.550000000000001,1.39,-1.52,-0.01,0.47,0.35
1.408200860023499,2,3,3,3,-9.57,1.43,-1.49,0.06,0.5,0.32
1.418200850486755,2,3,3,3,-9.529999999999999,1.4,-1.45,0.08,0.4,0.39
1.428201079368591,2,3,3,3,-9.56,1.38,-1.48,0.14,0.39,0.43
1.438201069831848,2,3,3,3,-9.59,1.4,-1.58,0.23,0.42,0.47
1.448201060295105,2,3,3,3,-9.609999999999999,1.39,-1.5,0.31,0.41,0.45
1.458201050758362,2,3,3,3,-9.56,1.37,-1.43,0.37,0.42,0.49
1.468201041221619,2,3,3,3,-9.59,1.37,-1.4,0.37,0.41,0.48
1.478201031684875,2,3,3,3,-9.57,1.34,-1.4,0.42,0.47,0.45
1.488201022148132,2,3,3,3,-9.57,1.32,-1.48,0.43,0.39,0.47
1.498201012611389,2,3,3,3,-9.609999999999999,1.23,-1.4,0.41,0.3,0.46
1.508201003074646,2,3,3,3,-9.65,1.22,-1.4,0.42,0.3,0.47
1.518200993537903,2,3,3,3,-9.67,1.26,-1.35,0.47,0.27,0.48
1.52820098400116,2,3,3,3,-9.66,1.28,-1.34,0.5,0.33,0.42
1.538200974464417,2,3,3,3,-9.630000000000001,1.29,-1.45,0.49,0.26,0.39
1.548200964927673,2,3,3,3,-9.619999999999999,1.28,-1.39,0.43,0.26,0.37
1.55820095539093,2,3,3,3,-9.619999999999999,1.29,-1.4,0.41,0.32,0.33
1.568200945854187,2,3,3,3,-9.630000000000001,1.31,-1.37,0.38,0.33,0.3
1.598200917243958,2,3,3,3,-9.630000000000001,1.3,-1.45,0.35,0.26,0.21
1.608200907707214,2,3,3,3,-9.630000000000001,1.31,-1.4,0.35,0.26,0.18
1.618200898170471,2,3,3,3,-9.609999999999999,1.35,-1.38,0.31,0.24,0.15
1.628200888633728,2,3,3,3,-9.640000000000001,1.37,-1.37,0.32,0.23,0.11
1.638200879096985,2,3,3,3,-9.65,1.34,-1.47,0.34,0.29,0.11
1.648200869560242,2,3,3,3,-9.69,1.36,-1.48,0.33,0.29,-0.01
1.658200860023499,2,3,3,3,-9.59,1.39,-1.4,0.31,0.3,-0.1
1.668200850486755,2,3,3,3,-9.56,1.42,-1.41,0.28,0.29,-0.08
1.678201079368591,2,3,3,3,-9.52,1.43,-1.45,0.28,0.29,-0.1
1.688201069831848,2,3,3,3,-9.539999999999999,1.44,-1.52,0.26,0.3,-0.1
1.698201060295105,2,3,3,3,-9.52,1.47,-1.51,0.23,0.32,-0.09
1.708201050758362,2,3,3,3,-9.52,1.48,-1.47,0.11,0.38,-0.05
1.718201041221619,2,3,3,3,-9.550000000000001,1.48,-1.47,0.08,0.37,-0.06
1.728201031684875,2,3,3,3,-9.56,1.49,-1.54,0.04,0.43,-0.09
1.738201022148132,2,3,3,3,-9.58,1.47,-1.56,0,0.43,-0.08
1.748201012611389,2,3,3,3,-9.57,1.46,-1.52,-0.02,0.52,-0.1
1.758201003074646,2,3,3,3,-9.550000000000001,1.47,-1.49,0,0.47,-0.11
1.768200993537903,2,3,3,3,-9.529999999999999,1.45,-1.48,0.01,0.5,-0.1
1.77820098400116,2,3,3,3,-9.539999999999999,1.46,-1.54,0.03,0.52,-0.13
1.788200974464417,2,3,3,3,-9.550000000000001,1.45,-1.64,0.12,0.5,-0.07000000000000001
1.798200964927673,2,3,3,3,-9.57,1.44,-1.58,0.16,0.5,-0.08
1.80820095539093,2,3,3,3,-9.59,1.46,-1.49,0.16,0.55,-0.11
1.818200945854187,2,3,3,3,-9.59,1.47,-1.47,0.17,0.57,-0.16
1.828200936317444,2,3,3,3,-9.59,1.49,-1.47,0.17,0.5600000000000001,-0.19
1.838200926780701,2,3,3,3,-9.57,1.46,-1.56,0.05,0.5600000000000001,-0.2
1.848200917243958,2,3,3,3,-9.539999999999999,1.42,-1.52,0.01,0.57,-0.21
1.858200907707214,2,3,3,3,-9.57,1.41,-1.52,-0.03,0.6,-0.22
1.868200898170471,2,3,3,3,-9.529999999999999,1.4,-1.5,-0.04,0.63,-0.24
1.878200888633728,2,3,3,3,-9.56,1.41,-1.49,-0.09,0.63,-0.27
1.888200879096985,2,3,3,3,-9.57,1.43,-1.58,-0.11,0.68,-0.29
1.898200869560242,2,3,3,3,-9.59,1.41,-1.55,-0.15,0.72,-0.28
1.908200860023499,2,3,3,3,-9.57,1.41,-1.53,-0.14,0.75,-0.33
1.918200850486755,2,3,3,3,-9.550000000000001,1.41,-1.52,-0.13,0.8,-0.38
1.928201079368591,2,3,3,3,-9.529999999999999,1.35,-1.58,-0.15,0.73,-0.42
1.938201069831848,2,3,3,3,-9.550000000000001,1.31,-1.62,-0.12,0.72,-0.43
1.948201060295105,2,3,3,3,-9.57,1.3,-1.59,-0.03,0.75,-0.4
1.958201050758362,2,3,3,3,-9.6,1.29,-1.59,0.11,0.72,-0.41
1.968201041221619,2,3,3,3,-9.57,1.36,-1.5,0.23,0.72,-0.41
1.978201031684875,2,3,3,3,-9.58,1.37,-1.55,0.3,0.78,-0.4
1.988201022148132,2,3,3,3,-9.57,1.34,-1.62,0.33,0.78,-0.34
1.998201012611389,2,3,3,3,-9.58,1.32,-1.59,0.39,0.8100000000000001,-0.39
2.008201003074646,2,3,3,3,-9.57,1.28,-1.53,0.44,0.84,-0.42
2.018200993537903,2,3,3,3,-9.57,1.27,-1.51,0.54,0.9399999999999999,-0.45
2.02820098400116,2,3,3,3,-9.56,1.27,-1.52,0.62,0.9,-0.46
2.038200974464417,2,3,3,3,-9.56,1.28,-1.63,0.72,0.87,-0.45
2.048200964927673,2,3,3,3,-9.57,1.26,-1.55,0.77,0.89,-0.48
2.05820095539093,2,3,3,3,-9.6,1.29,-1.52,0.82,0.96,-0.51
2.068200945854187,2,3,3,3,-9.609999999999999,1.31,-1.5,0.86,0.99,-0.5600000000000001
2.078200936317444,2,3,3,3,-9.630000000000001,1.33,-1.53,0.83,1.01,-0.58
2.088200926780701,2,3,3,3,-9.609999999999999,1.31,-1.56,0.77,1.02,-0.65
2.098200917243958,2,3,3,3,-9.59,1.27,-1.52,0.66,1.06,-0.6899999999999999
2.108200907707214,2,3,3,3,-9.640000000000001,1.22,-1.47,0.64,1.04,-0.75
2.118200898170471,2,3,3,3,-9.710000000000001,1.15,-1.37,0.73,1.02,-0.84
2.128200888633728,2,3,3,3,-9.74,1.14,-1.37,0.85,1,-0.96
2.138200879096985,2,3,3,3,-9.73,1.13,-1.41,1.06,0.9,-1.09
2.148200869560242,2,3,3,3,-9.75,1.18,-1.41,1.23,0.82,-1.25
2.15920102596283,2,3,3,3,-9.58,1.13,-1.28,1.35,0.73,-1.36
2.169201016426086,2,3,3,3,-9.57,1.05,-1.31,1.55,0.59,-1.43
2.179201006889343,2,3,3,3,-9.6,1.03,-1.38,1.55,0.59,-1.43
2.1892009973526,2,3,3,3,-9.609999999999999,0.97,-1.46,1.66,0.57,-1.48
2.199200987815857,2,3,3,3,-9.56,0.99,-1.4,1.66,0.44,-1.64
2.209200978279114,2,3,3,3,-9.5,0.97,-1.41,1.51,0.32,-1.69
2.219200968742371,2,3,3,3,-9.44,0.98,-1.51,1.35,0.3,-1.83
2.229200959205627,2,3,3,3,-9.460000000000001,1.05,-1.52,1.35,0.3,-1.83
2.239200949668884,2,3,3,3,-9.359999999999999,1.22,-1.72,1.22,0.27,-1.86
2.249200940132141,2,3,3,3,-9.35,1.19,-1.88,0.6,0.18,-1.98
2.259200930595398,2,3,3,3,-9.449999999999999,1.02,-2.02,0.13,0.38,-2.02
2.269200921058655,2,3,3,3,-9.58,0.88,-2.09,0.02,0.38,-2.01
2.279200911521912,2,3,3,3,-9.52,0.8,-2.13,0.02,0.38,-2.01
2.289200901985168,2,3,3,3,-9.34,0.78,-2.32,0.05,0.27,-1.97
2.299200892448425,2,3,3,3,-9.32,0.67,-2.38,0.04,0.31,-2.09
2.309200882911682,2,3,3,3,-9.35,0.68,-2.32,0.26,0.25,-1.98
2.319200873374939,2,3,3,3,-9.470000000000001,0.76,-2.23,0.51,0.16,-1.87
2.329200863838196,2,3,3,3,-9.44,0.84,-2.32,0.51,0.16,-1.87
2.339200854301453,2,3,3,3,-9.44,0.9,-2.54,0.6,0.08,-1.85
2.349200844764709,2,3,3,3,-9.460000000000001,0.93,-2.44,0.86,0.06,-1.79
2.359201073646545,2,3,3,3,-9.44,0.95,-2.41,1.04,0.01,-1.66
2.369201064109802,2,3,3,3,-9.460000000000001,1.12,-2.44,1.12,0.23,-1.32
2.379201054573059,2,3,3,3,-9.460000000000001,1.25,-2.54,1.12,0.23,-1.32
2.389201045036316,2,3,3,3,-9.49,1.29,-2.72,0.9,0.46,-1.14
2.399201035499573,2,3,3,3,-9.56,1.34,-2.74,0.55,0.7,-1
2.40920102596283,2,3,3,3,-9.49,1.15,-2.7,0.12,0.74,-0.97
2.419201016426086,2,3,3,3,-9.449999999999999,0.91,-2.74,-0.71,0.95,-0.93
2.429201006889343,2,3,3,3,-9.44,0.6899999999999999,-2.71,-0.71,0.95,-0.93
2.4392009973526,2,3,3,3,-9.48,0.6899999999999999,-2.75,-0.84,0.91,-0.85
2.449200987815857,2,3,3,3,-9.470000000000001,0.8100000000000001,-2.63,-0.9399999999999999,0.88,-0.79
2.459200978279114,2,3,3,3,-9.41,0.89,-2.58,-1.06,0.8100000000000001,-0.75
2.469200968742371,2,3,3,3,-9.51,0.76,-2.55,-1.67,0.68,-0.58
2.479200959205627,2,3,3,3,-9.460000000000001,0.76,-2.67,-1.67,0.68,-0.58
2.489200949668884,2,3,3,3,-9.4,0.78,-2.79,-2.02,0.6899999999999999,-0.67
2.499200940132141,2,3,3,3,-9.44,0.73,-2.75,-2.46,0.73,-0.64
2.509200930595398,2,3,3,3,-9.49,0.71,-2.64,-2.84,0.7,-0.51
2.519200921058655,2,3,3,3,-9.52,0.7,-2.61,-3.02,0.74,-0.36
2.529200911521912,2,3,3,3,-9.539999999999999,0.66,-2.54,-3.06,0.75,-0.27
2.539200901985168,2,3,3,3,-9.550000000000001,0.61,-2.63,-3.16,0.74,-0.22
2.549200892448425,2,3,3,3,-9.52,0.52,-2.58,-3.21,0.79,-0.21
2.559200882911682,2,3,3,3,-9.48,0.5,-2.64,-3.15,0.78,-0.21
2.569200873374939,2,3,3,3,-9.449999999999999,0.46,-2.74,-3.18,0.58,-0.17
2.579200863838196,2,3,3,3,-9.48,0.5,-2.75,-3.23,0.57,-0.14
2.589200854301453,2,3,3,3,-9.56,0.57,-2.77,-3.21,0.61,-0.03
2.599200844764709,2,3,3,3,-9.550000000000001,0.57,-2.61,-3.23,0.57,0.12
2.609201073646545,2,3,3,3,-9.449999999999999,0.5600000000000001,-2.51,-3.22,0.52,0.17
2.619201064109802,2,3,3,3,-9.42,0.55,-2.44,-3.25,0.45,0.22
2.629201054573059,2,3,3,3,-9.42,0.52,-2.31,-3.28,0.38,0.23
2.639201045036316,2,3,3,3,-9.460000000000001,0.44,-2.35,-3.31,0.29,0.31
2.649201035499573,2,3,3,3,-9.550000000000001,0.44,-2.27,-3.31,0.23,0.38
2.65920102596283,2,3,3,3,-9.640000000000001,0.45,-2.11,-3.17,0.24,0.39
2.669201016426086,2,3,3,3,-9.619999999999999,0.49,-2.09,-3,0.16,0.38
2.679201006889343,2,3,3,3,-9.52,0.47,-2.1,-2.81,-0.01,0.28
2.6892009973526,2,3,3,3,-9.58,0.48,-2.05,-2.83,-0.12,0.2
2.699200987815857,2,3,3,3,-9.640000000000001,0.53,-2.05,-2.87,-0.15,0.14
2.709200978279114,2,3,3,3,-9.720000000000001,0.54,-1.94,-2.81,-0.22,0.14
2.719200968742371,2,3,3,3,-9.75,0.6,-1.8,-2.76,-0.17,0.05
2.729200959205627,2,3,3,3,-9.68,0.64,-1.88,-2.84,-0.23,-0.11
2.739200949668884,2,3,3,3,-9.619999999999999,0.7,-1.97,-2.9,-0.36,-0.24
2.749200940132141,2,3,3,3,-9.65,0.65,-1.83,-3.02,-0.38,-0.3
2.759200930595398,2,3,3,3,-9.69,0.6,-1.78,-3.16,-0.42,-0.31
2.769200921058655,2,3,3,3,-9.720000000000001,0.59,-1.74,-3.21,-0.59,-0.35
2.779200911521912,2,3,3,3,-9.74,0.61,-1.7,-3.2,-0.64,-0.4
2.789200901985168,2,3,3,3,-9.73,0.63,-1.82,-3.24,-0.73,-0.51
2.799200892448425,2,3,3,3,-9.73,0.67,-1.8,-3.27,-0.71,-0.62
2.809200882911682,2,3,3,3,-9.74,0.71,-1.75,-3.26,-0.62,-0.8
2.819200873374939,2,3,3,3,-9.68,0.68,-1.72,-3.33,-0.63,-1
2.829200863838196,2,3,3,3,-9.67,0.65,-1.7,-3.52,-0.7,-1.05
2.839200854301453,2,3,3,3,-9.66,0.6899999999999999,-1.75,-3.58,-0.72,-1.13
2.849200844764709,2,3,3,3,-9.609999999999999,0.68,-1.7,-3.62,-0.6899999999999999,-1.26
2.859201073646545,2,3,3,3,-9.68,0.85,-1.81,-3.68,-0.68,-1.41
2.869201064109802,2,3,3,3,-9.76,0.98,-1.83,-3.67,-0.47,-1.59
2.879201054573059,2,3,3,3,-9.77,1,-1.97,-4,-0.25,-1.91
2.889201045036316,2,3,3,3,-9.84,1.06,-2.16,-4.63,-0.23,-2.43
2.899201035499573,2,3,3,3,-9.94,1.07,-2.49,-4.99,-0.42,-3.03
2.90920102596283,2,3,3,3,-9.94,1.07,-2.55,-5.04,-0.76,-3.7
2.919201016426086,2,3,3,3,-10.2,1.27,-2.51,-4.73,-0.97,-4.39
2.929201006889343,2,3,3,3,-10.6,1.41,-2.65,-4.37,-1.03,-5.09
2.9392009973526,2,3,3,3,-10.47,2.01,-1.92,-3.53,-1.96,-6.19
2.949200987815857,2,3,3,3,-10.01,1.86,-1.62,-1.46,-2.57,-7.42
2.959200978279114,2,3,3,3,-9.470000000000001,1.14,-2.05,-1.53,-2.02,-7.88
2.969200968742371,2,3,3,3,-9.06,0.63,-2.32,-3.07,-1.47,-7.24
2.979200959205627,2,3,3,3,-9.039999999999999,-0.29,-2.34,-3.96,-0.65,-5.68
2.989200949668884,2,3,3,3,-9.220000000000001,-0.88,-2.38,-5.49,0.03,-3.48
2.999200940132141,2,3,3,3,-9.369999999999999,-1.12,-1.36,-5.44,0.54,-1.48
3.009200930595398,2,3,3,3,-9.880000000000001,-1.93,-1.64,-6.39,1.31,-0.13
3.019200921058655,2,3,3,3,-10.38,-2.51,-0.36,-6.11,0.51,0.42
3.029200911521912,2,3,3,3,-10.29,-2.61,0.39,-5.88,0.22,-0.05
3.039200901985168,2,3,3,3,-10.09,-2.83,0.73,-5.43,-0.91,-0.44
3.049200892448425,2,3,3,3,-9.84,-3.21,1.01,-5.23,-1.66,-0.4
3.059200882911682,2,3,3,3,-9.539999999999999,-3.42,1.98,-5.09,-2.57,-0.22
3.069200873374939,2,3,3,3,-9.68,-3.18,1.8,-4.67,-3.38,-0.04
3.079200863838196,2,3,3,3,-9.91,-2.74,1.68,-4.02,-3.87,-0.17
3.089200854301453,2,3,3,3,-9.98,-1.98,1.46,-3.44,-4.33,-0.43
3.099200844764709,2,3,3,3,-9.75,-0.85,0.97,-2.55,-4.71,-0.62
3.109201073646545,2,3,3,3,-9.58,-0.46,0.85,-1.72,-4.83,-0.78
3.119201064109802,2,3,3,3,-9.640000000000001,-0.17,0.5600000000000001,-1.37,-4.57,-1.04
3.129201054573059,2,3,3,3,-10.31,1.28,-0.06,-2.13,-4.23,-1.39
3.139201045036316,2,3,3,3,-10.72,2.5,0.06,-3.68,-4.33,-2.1
3.149201035499573,2,3,3,3,-11.59,3.94,0.62,-7.19,-5.23,-2.05
3.15920102596283,2,3,3,3,-12.07,4.19,0.65,-10.98,-5.72,-2.66
3.169201016426086,2,3,3,3,-11.73,4.23,0.35,-14.1,-5.8,-3.69
3.179201006889343,2,3,3,3,-11.36,4.58,0.04,-16.48,-5.28,-4.46
3.190200924873352,2,3,3,3,-10.62,4.91,-0.25,-19.43,-4.81,-5.13
3.200200915336609,2,3,3,3,-10.08,5.05,-0.5,-21.99,-4.79,-4.8
3.210200905799866,2,3,3,3,-11.17,3.38,-0.82,-23.04,-3.25,-4.93
3.220200896263123,2,3,3,3,-11.64,1.52,-1.17,-23.9,-2.11,-6.69
3.230200886726379,2,3,3,3,-10.01,0.83,-0.29,-22.54,-3.47,-8.449999999999999
3.240200877189636,2,3,3,3,-8.18,1.32,0.11,-22.01,-6.36,-6.94
3.250200867652893,2,3,3,3,-9.26,1.39,-0.28,-22.22,-6.09,-3.94
3.26020085811615,2,3,3,3,-9.609999999999999,1.62,-0.03,-20.84,-4.72,-3.31
3.270200848579407,2,3,3,3,-9.789999999999999,1.86,-0.15,-19.33,-4.7,-4.01
3.280201077461243,2,3,3,3,-9.66,1.95,-0.14,-18.3,-4.31,-5.17
3.2902010679245,2,3,3,3,-9.26,1.56,-0.72,-17.46,-4.12,-6.15
3.300201058387756,2,3,3,3,-9.289999999999999,1.29,-0.82,-16.83,-4.06,-6.65
3.310201048851013,2,3,3,3,-9.369999999999999,0.6899999999999999,-1.03,-16.23,-4.28,-6.84
3.32020103931427,2,3,3,3,-9.449999999999999,0.2,-1.02,-15.9,-4.74,-6.93
3.330201029777527,2,3,3,3,-9.44,-0.6899999999999999,-0.95,-15.27,-5.29,-7.01
3.340201020240784,2,3,3,3,-9.4,-0.79,-0.76,-14.53,-5.61,-7.02
3.350201010704041,2,3,3,3,-9.33,-0.8,-0.58,-13.45,-5.95,-7.02
3.360201001167297,2,3,3,3,-9.34,-0.7,-0.28,-12.55,-6.05,-7.08
3.370200991630554,2,3,3,3,-9.49,-0.27,-0.11,-12.17,-5.91,-7.22
3.380200982093811,2,3,3,3,-9.5,-0.17,-0.12,-12.32,-5.87,-7.39
3.390200972557068,2,3,3,3,-9.34,-0.17,-0.11,-12.83,-6.21,-7.49
3.400200963020325,2,3,3,3,-9.23,-0.09,-0.08,-13.84,-6.53,-7.52
3.410200953483582,2,3,3,3,-9.06,-0.15,-0.38,-15.03,-6.39,-7.65
3.420200943946838,2,3,3,3,-9.039999999999999,-0.65,-0.73,-16.03,-6,-8.029999999999999
3.430200934410095,2,3,3,3,-9.050000000000001,-1.09,-0.8,-16.41,-5.55,-8.26
3.440200924873352,2,3,3,3,-9.119999999999999,-1.6,-0.76,-16.8,-5.35,-8.220000000000001
3.450200915336609,2,3,3,3,-9.23,-1.72,-0.71,-17.65,-5.16,-7.94
3.460200905799866,2,3,3,3,-9.210000000000001,-1.98,-0.58,-18.72,-5.01,-7.6
3.470200896263123,2,3,3,3,-8.99,-2.37,-0.28,-19.81,-5.32,-7.19
3.480200886726379,2,3,3,3,-8.51,-3.12,0.09,-20.86,-5.65,-6.86
3.490200877189636,2,3,3,3,-8.359999999999999,-2.04,0.45,-21.29,-5.83,-6.47
3.500200867652893,2,3,3,3,-8.609999999999999,-1.25,0.53,-21.27,-6.07,-5.87
3.51020085811615,2,3,3,3,-8.640000000000001,-1.43,0.19,-21.95,-5.1,-6.04
3.520200848579407,2,3,3,3,-8.02,-1.13,0.16,-22.48,-4.75,-6.16
3.530201077461243,2,3,3,3,-7.99,-1.63,-0.12,-23.38,-4.32,-5.77
3.5402010679245,2,3,3,3,-8.15,-2.25,-0.29,-23.58,-2.87,-5.57
3.550201058387756,2,3,3,3,-8.640000000000001,-2.47,-0.32,-23.42,-2.34,-5.05
3.560201048851013,2,3,3,3,-8.960000000000001,-2.71,-0.38,-23.45,-2.35,-4.62
3.57020103931427,2,3,3,3,-8.880000000000001,-3.33,-0.1,-23.32,-2.85,-4.13
3.580201029777527,2,3,3,3,-8.85,-3.9,0.45,-23.22,-2.72,-3.8
3.590201020240784,2,3,3,3,-8.74,-3.95,0.73,-21.48,-1.85,-3.6
3.600201010704041,2,3,3,3,-8.49,-3.25,0.58,-19.57,-1.09,-3.19
3.610201001167297,2,3,3,3,-8.59,-2.8,0.59,-18.38,-0.73,-2.35
3.620200991630554,2,3,3,3,-8.9,-2.7,0.64,-17.77,-0.62,-1.17
3.630200982093811,2,3,3,3,-9.15,-2.78,0.51,-16.42,0.16,-0.49
3.640200972557068,2,3,3,3,-9.06,-3.6,0.1,-14.68,0.84,-0.11
3.650200963020325,2,3,3,3,-9.24,-3.92,0.3,-12.38,1.06,0.6
3.660200953483582,2,3,3,3,-9.35,-4.64,0.5600000000000001,-9.34,1.39,1.27
3.670200943946838,2,3,3,3,-9.23,-5.24,0.73,-6.02,0.99,2.11
3.680200934410095,2,3,3,3,-9.359999999999999,-3.78,0,-2.96,0.04,3.32
3.690200924873352,2,3,3,3,-9.77,-1.46,-0.6899999999999999,-0.04,-0.34,4.25
3.700200915336609,2,3,3,3,-10.31,0.34,-1.1,2.44,-0.13,5.01
3.710200905799866,2,3,3,3,-10.77,0.29,-0.75,3.17,0.1,5.49
3.720200896263123,2,3,3,3,-10.35,-4.57,0.55,4.14,0.75,5.07
3.730200886726379,2,3,3,3,-9.59,-6.14,0.39,7.33,1.88,4.22
3.740200877189636,2,3,3,3,-9.52,-5.79,-0.13,11.29,2.77,4.36
3.750200867652893,2,3,3,3,-10.37,-4.29,0.05,14.76,3.53,4.97
3.76020085811615,2,3,3,3,-12.02,-2.21,2.01,15.59,3.96,5.45
3.770200848579407,2,3,3,3,-11.97,-1.53,2.37,14.14,3.25,5.72
3.780201077461243,2,3,3,3,-11.49,-0.17,1.72,12.07,2.04,5.58
3.7902010679245,2,3,3,3,-10.73,1.16,-0.53,9.99,2.07,5.06
3.800201058387756,2,3,3,3,-10.71,0.5,-0.91,8.640000000000001,3.52,4.63
3.810201048851013,2,3,3,3,-10.58,0.23,-0.71,8.029999999999999,5.5,4.79
3.82020103931427,2,3,3,3,-10.14,0.43,-0.6899999999999999,6.25,6.36,5.14
3.830201029777527,2,3,3,3,-9.19,1.43,-1.05,3.24,5.9,5.29
3.840201020240784,2,3,3,3,-8.949999999999999,0.66,-1.65,0.34,5.09,5.01
3.850201010704041,2,3,3,3,-8.890000000000001,0,-1.98,-2.5,5.05,5.07
3.860201001167297,2,3,3,3,-9.07,-0.31,-1.67,-2.81,5.35,5.1
3.870200991630554,2,3,3,3,-9.59,-0.61,-1.2,-2.91,5.66,4.7
3.880200982093811,2,3,3,3,-9.84,-0.35,-1.27,-3.19,5.46,4.05
3.890200972557068,2,3,3,3,-9.91,0,-1.33,-3.65,5.08,3.77
3.900200963020325,2,3,3,3,-9.74,0.12,-1.2,-4,4.77,3.54
3.910200953483582,2,3,3,3,-9.35,-0.15,-1.22,-4.63,4.49,3.72
3.920200943946838,2,3,3,3,-9.4,-0.23,-1.2,-4.98,4.35,3.91
3.930200934410095,2,3,3,3,-9.44,-0.6899999999999999,-1.42,-4.93,4.61,3.4
3.940200924873352,2,3,3,3,-9.49,-0.86,-1.42,-4.74,4.51,2.95
3.950200915336609,2,3,3,3,-9.82,-0.68,-1.68,-4.75,4.03,3.06
3.960200905799866,2,3,3,3,-9.84,-0.38,-1.72,-4.9,3.8,3.2
3.970200896263123,2,3,3,3,-9.77,-0.29,-1.82,-4.7,3.59,3.26
3.980200886726379,2,3,3,3,-9.85,0.01,-1.94,-4.97,3.58,3.17
3.990200877189636,2,3,3,3,-9.66,0.57,-2,-5.12,3.65,2.99
4.000200867652893,2,3,3,3,-9.710000000000001,0.43,-1.95,-5.61,3.53,2.96
4.01020085811615,2,3,3,3,-9.85,0.28,-2.06,-6.28,3.63,3.05
4.020200848579407,2,3,3,3,-9.869999999999999,0.41,-2.18,-6.69,3.62,2.97
4.030201077461243,2,3,3,3,-9.720000000000001,0.45,-2.35,-6.46,3.55,2.99
4.0402010679245,2,3,3,3,-9.69,0.35,-2.45,-6.41,3.67,3.02
4.050201058387756,2,3,3,3,-9.56,0.34,-2.39,-6.27,3.63,3.22
4.060201048851013,2,3,3,3,-9.48,0.4,-2.38,-6.07,3.55,3.49
4.07020103931427,2,3,3,3,-9.630000000000001,0.36,-2.4,-5.87,3.54,3.75
4.080201029777527,2,3,3,3,-9.77,0.11,-2.27,-5.74,3.65,3.84
4.090201020240784,2,3,3,3,-9.77,-0.08,-2.31,-5.45,3.68,3.85
4.100201010704041,2,3,3,3,-9.74,-0.16,-2.11,-5.18,3.67,3.93
4.110201001167297,2,3,3,3,-9.65,-0.3,-1.5,-4.81,3.61,4.04
4.120200991630554,2,3,3,3,-9.59,-0.54,-1.33,-4.64,3.47,4.1
4.130200982093811,2,3,3,3,-9.6,-0.79,-1.19,-4.6,3.34,4.11
4.140200972557068,2,3,3,3,-9.58,-1.02,-1.14,-4.27,3.29,3.99
4.150200963020325,2,3,3,3,-9.619999999999999,-0.98,-1.16,-4.16,3.29,3.9
4.160200953483582,2,3,3,3,-9.67,-0.85,-1.16,-3.96,3.29,3.89
4.180200934410095,2,3,3,3,-9.65,-0.61,-1.36,-3.72,3.42,3.99
4.190200924873352,2,3,3,3,-9.65,-0.51,-1.43,-3.57,3.71,3.94
4.200200915336609,2,3,3,3,-9.6,-0.39,-1.36,-3.49,3.8,3.85
4.211201071739197,2,3,3,3,-9.529999999999999,-0.3,-1.39,-3.67,3.76,3.81
4.221201062202454,2,3,3,3,-9.41,-0.26,-1.53,-4.2,3.75,3.91
4.23120105266571,2,3,3,3,-9.529999999999999,-0.29,-1.5,-4.75,3.73,4.03
4.241201043128967,2,3,3,3,-9.69,-0.27,-1.68,-5.22,3.66,4.19
4.251201033592224,2,3,3,3,-9.74,-0.21,-1.65,-5.64,3.44,4.33
4.261201024055481,2,3,3,3,-9.619999999999999,0,-1.77,-5.63,3.28,4.31
4.271201014518738,2,3,3,3,-9.52,0.16,-1.8,-5.54,3.25,4.27
4.281201004981995,2,3,3,3,-9.42,0.27,-1.92,-5.19,3.4,4.22
4.291200995445251,2,3,3,3,-9.390000000000001,0.3,-2.15,-4.98,3.75,4.24
4.301200985908508,2,3,3,3,-9.630000000000001,0.34,-2.11,-4.84,4.16,4.28
4.311200976371765,2,3,3,3,-9.720000000000001,0.33,-2.2,-4.8,4.53,4.28
4.321200966835022,2,3,3,3,-9.65,0.32,-2.25,-4.85,4.72,4.3
4.331200957298279,2,3,3,3,-9.550000000000001,0.23,-2.25,-4.76,4.8,4.41
4.341200947761536,2,3,3,3,-9.220000000000001,0.33,-2.34,-4.62,4.7,4.52
4.351200938224792,2,3,3,3,-9.27,0.34,-2.22,-4.46,4.45,4.72
4.361200928688049,2,3,3,3,-9.4,0.34,-2.13,-4.45,4.33,4.95
4.371200919151306,2,3,3,3,-9.52,0.28,-2.11,-4.48,4.1,5.22
4.381200909614563,2,3,3,3,-9.59,0.05,-2.43,-4.97,3.89,5.41
4.39120090007782,2,3,3,3,-9.35,0.17,-2.44,-5.54,3.54,5.36
4.401200890541077,2,3,3,3,-9.32,0.17,-2.29,-5.74,3.34,5.37
4.411200881004333,2,3,3,3,-9.470000000000001,0.1,-2.27,-6.2,3.47,5.34
4.42120087146759,2,3,3,3,-9.609999999999999,0.04,-2.01,-6.67,3.38,5.28
4.431200861930847,2,3,3,3,-9.789999999999999,-0.04,-1.84,-7.1,3.11,5.14
4.441200852394104,2,3,3,3,-9.960000000000001,0,-1.68,-7.14,2.99,5.11
4.451200842857361,2,3,3,3,-9.81,-0.03,-1.64,-6.97,2.53,5.14
4.461201071739197,2,3,3,3,-9.550000000000001,-0.4,-1.88,-7.11,2.12,5.15
4.471201062202454,2,3,3,3,-9.66,-0.59,-1.98,-7.28,1.98,5.14
4.48120105266571,2,3,3,3,-9.84,-0.8100000000000001,-2.05,-7.57,1.8,5.13
4.491201043128967,2,3,3,3,-9.98,-0.67,-2.29,-7.12,1.26,5.16
4.501201033592224,2,3,3,3,-9.76,-0.7,-2.51,-6.4,0.8,5.14
4.511201024055481,2,3,3,3,-9.69,-0.85,-1.93,-5.72,0.8100000000000001,4.93
4.521201014518738,2,3,3,3,-9.67,-1.12,-2.22,-5.41,1.07,4.75
4.531201004981995,2,3,3,3,-9.869999999999999,-1.68,-2.17,-5.11,1.38,4.96
4.541200995445251,2,3,3,3,-10.17,-2.13,-2.34,-5.14,1.45,5.4
4.551200985908508,2,3,3,3,-10.52,-2.25,-1.81,-4.63,1.2,6.02
4.561200976371765,2,3,3,3,-10.88,-2.33,-1.27,-3.01,0.7,6.45
4.571200966835022,2,3,3,2,-10.86,-2.42,-0.59,-1.54,0.01,6.53
4.581200957298279,2,3,3,2,-10.87,-2.64,-0.73,-0.06,-0.68,6.25
4.591200947761536,2,3,3,2,-10.93,-1.8,-0.13,0.5,-1.41,5.61
4.601200938224792,2,3,3,2,-10.83,-1.41,0.66,0.22,-2.71,5.05
4.611200928688049,2,3,3,2,-10.98,-1.42,1.46,-0.74,-3.95,5.22
4.621200919151306,2,3,3,2,-11.09,-1.48,1.56,-1.74,-4.9,5.13
4.631200909614563,2,3,3,2,-11.25,-1.29,1.33,-3.54,-6.79,4.22
4.64120090007782,2,3,3,2,-11.41,-0.29,1.68,-3.54,-6.79,4.22
4.651200890541077,2,3,3,2,-11.98,-0.11,0.79,-4.86,-7.65,2.81
4.661200881004333,2,3,3,2,-11.95,0.71,0.64,-4.86,-7.65,2.81
4.67120087146759,2,3,3,2,-11.42,0.58,-0.31,-4.86,-7.58,1.58
4.681200861930847,2,3,3,2,-11.01,0.54,-1.14,-3.04,-7.15,0.36
4.691200852394104,2,3,3,2,-11.27,0.48,-2.75,-0.58,-6.72,-0.93
4.701200842857361,2,3,3,2,-11.18,0.05,-2.74,0.5,-7.19,-1.25
4.711201071739197,2,3,3,2,-11.29,0.12,-2.88,0.5,-7.19,-1.25
4.721201062202454,2,3,3,2,-11.53,0.65,-2.59,1.22,-7.61,-1.52
4.73120105266571,2,3,3,2,-11.93,3.21,-1.71,1.01,-8.34,-2.2
4.741201043128967,2,3,3,2,-11.9,4.59,-1.7,0.11,-7.54,-2.75
4.751201033592224,2,3,3,2,-11.89,5.74,-1.8,-1.22,-6.03,-3.6
4.761201024055481,2,3,3,2,-11.62,5.96,-1.88,-1.22,-6.03,-3.6
4.771201014518738,2,3,3,2,-10.64,5.47,-2.47,-2.11,-5.24,-4.66
4.781201004981995,2,3,3,2,-10.36,5.05,-2.77,-2.19,-6.32,-7
4.791200995445251,2,3,3,2,-10.31,4.41,-3.17,-1.93,-6.76,-8.119999999999999
4.801200985908508,2,3,3,2,-10.44,3.71,-3.25,-1.25,-7.34,-9.19
4.811200976371765,2,3,3,2,-10.49,2.45,-3.55,-1.25,-7.34,-9.19
4.821200966835022,2,3,3,2,-10.38,2.03,-3.78,-0.16,-7.53,-10.34
4.831200957298279,2,3,3,2,-10.11,1.79,-3.95,3.01,-8.19,-12.14
4.841200947761536,2,3,3,2,-9.789999999999999,1.84,-4.17,5.01,-8.27,-12.84
4.851200938224792,2,3,3,2,-9.76,1.77,-4.19,7.13,-8.449999999999999,-13.42
4.861200928688049,2,3,3,2,-9.789999999999999,1.73,-3.98,7.13,-8.449999999999999,-13.42
4.871200919151306,2,3,3,2,-9.75,1.75,-3.71,9.25,-9,-13.97
4.881200909614563,2,3,3,2,-9.539999999999999,1.72,-3.56,13.41,-9.43,-15.26
4.89120090007782,2,3,3,2,-9.390000000000001,1.79,-3.43,15.56,-9.42,-15.46
4.901200890541077,2,3,3,2,-9.32,1.83,-3.17,17.65,-9.220000000000001,-15.53
4.911200881004333,2,3,3,2,-9.210000000000001,1.87,-2.91,17.65,-9.220000000000001,-15.53
4.92120087146759,2,3,3,2,-9.08,1.71,-2.45,19.5,-8.85,-15.61
4.931200861930847,2,3,3,2,-9.01,1.71,-2.24,22.59,-8.41,-15.22
4.941200852394104,2,3,3,2,-8.94,1.72,-1.98,23.76,-8.640000000000001,-14.68
4.951200842857361,2,3,3,2,-8.890000000000001,1.73,-1.57,24.33,-9.07,-13.86
4.961201071739197,2,3,3,2,-8.92,1.54,-0.87,24.33,-9.07,-13.86
4.971201062202454,2,3,3,2,-9.140000000000001,1.45,-0.68,24.58,-9.4,-12.97
4.98120105266571,2,3,3,2,-9.51,1.34,-0.58,25.34,-11.24,-12.71
4.991201043128967,2,3,3,2,-9.91,1.21,-0.46,25.6,-13.05,-13.21
5.001201033592224,2,3,3,2,-9.869999999999999,0.74,-0.12,25.35,-14.39,-13.73
5.011201024055481,2,3,3,2,-9.41,0.47,-0.16,25.35,-14.39,-13.73
5.021201014518738,2,3,3,2,-9.039999999999999,0.38,-0.4,25.31,-14.52,-13.94
5.031201004981995,2,3,3,2,-8.76,0.64,-0.6899999999999999,27.13,-12.44,-12.47
5.041200995445251,2,3,3,2,-8.52,1.43,-1.19,27.67,-12.8,-10.97
5.051200985908508,2,3,3,2,-8.19,1.61,-0.99,27.99,-13.51,-9.4
5.061200976371765,2,3,3,2,-7.92,1.79,-0.52,27.99,-13.51,-9.4
5.071200966835022,2,3,3,2,-7.76,1.81,-0.15,28.1,-13.46,-7.97
5.081200957298279,2,3,3,2,-7.79,1.86,0.84,27.65,-12.39,-5.79
5.091200947761536,2,3,3,2,-7.68,2.12,1.15,27.18,-11.18,-5.37
5.101200938224792,2,3,3,2,-7.5,2.02,1.35,27.17,-9.51,-5.05
5.111200928688049,2,3,3,2,-7.48,1.82,1.44,27.17,-9.51,-5.05
5.121200919151306,2,3,3,2,-7.74,1.77,1.62,27.95,-7.42,-4.81
5.131200909614563,2,3,3,2,-7.72,1.28,1.57,26.51,-3.92,-4.19
5.14120090007782,2,3,3,2,-7.85,0.42,1.27,25.28,-3.22,-3.63
5.151200890541077,2,3,3,2,-8.109999999999999,-0.24,1.19,23.66,-2.72,-3.03
5.161200881004333,2,3,3,2,-9.289999999999999,-1.5,1.23,23.66,-2.72,-3.03
5.17120087146759,2,3,3,2,-10.02,-1.54,1.25,21.51,-1.97,-2.66
5.181200861930847,2,3,3,2,-10.53,-1.48,1.07,17.84,-1.26,-4.3
5.191200852394104,2,3,3,2,-10.44,-2.15,0.26,17.71,-1.97,-5.13
5.201200842857361,2,3,3,2,-10.12,-2.33,0.28,17.15,-3.27,-5.49
5.211201071739197,2,3,3,2,-9.390000000000001,-2.3,0.1,17.15,-3.27,-5.49
5.221201062202454,2,3,3,2,-8.67,-2.23,-0.13,15.93,-5.11,-4.5
5.23120105266571,2,3,3,2,-8.57,-1.81,-0.71,16,-5.97,-1.62
5.242200970649719,3,3,3,2,-8.619999999999999,-0.92,-0.96,16.86,-6.52,-0.39
5.252200961112976,3,3,3,2,-8.6,-0.4,-1.04,18.62,-6.43,0.5
5.262200951576233,3,3,3,2,-8.289999999999999,0.41,-0.82,18.62,-6.43,0.5
5.27220094203949,3,3,3,2,-7.82,1.63,-1.84,21.15,-3.22,1.03
5.282200932502747,3,3,3,2,-8.19,2.69,-2.65,23.71,9.630000000000001,-0.22
5.292200922966003,3,3,3,2,-9.029999999999999,3.78,-2.26,22.76,12.11,-1.24
5.30220091342926,3,3,3,2,-10.16,3.53,-1.55,22.37,10.4,-2.41
5.312200903892517,3,3,3,1,-12.2,1.13,2.17,22.37,10.4,-2.41
5.322200894355774,3,3,3,1,-12.69,-0.22,3.87,20.2,7.78,-3.88
5.332200884819031,3,3,3,1,-13.32,-1.1,5.51,17.88,5.15,-5.37
5.342200875282288,3,3,3,1,-14.23,-1.23,7.2,15.48,5.06,-5.03
5.352200865745544,3,3,3,1,-13.9,1.02,9.109999999999999,10.65,6.51,-3.37
5.362200856208801,3,3,3,1,-12.94,4.43,7.76,10.65,6.51,-3.37
5.372200846672058,3,3,3,1,-12.11,6.81,5.32,5.5,9.529999999999999,-1.41
5.382201075553894,3,3,3,1,-10.72,7.29,2.62,0.02,11.81,-3.01
5.392201066017151,3,3,3,1,-9.09,4.69,-1.51,-1.24,12.7,-4.05
5.402201056480408,3,3,3,1,-9.01,1.87,-3.27,-1.52,11.7,-4.61
5.412201046943665,3,3,3,0,-9.359999999999999,-0.26,-3.81,-1.52,11.7,-4.61
5.422201037406921,3,3,3,0,-9.85,-1.03,-3.53,-1.77,9.33,-5.13
5.432201027870178,3,3,3,0,-9.960000000000001,-0.54,-2.92,-3.91,5.23,-2.54
5.442201018333435,3,3,3,0,-9.710000000000001,-1.22,-2.62,-3.33,4.65,-0.68
5.452201008796692,3,3,3,0,-9.52,-1.35,-1.72,0.22,6.83,-0.24
5.462200999259949,3,3,3,0,-9.359999999999999,-1.56,-1.44,0.22,6.83,-0.24
5.472200989723206,3,3,3,0,-9,-1.26,-1.13,5.58,9.25,-0.28
5.482200980186462,3,3,3,0,-8.99,-1.68,-0.63,9.68,8.960000000000001,-0.15
5.492200970649719,3,3,3,0,-9.18,-2.21,-0.39,10.79,9.609999999999999,-0.38
5.502200961112976,3,3,3,0,-9.83,-2.37,-0.22,11.91,10.68,-0.6
5.512200951576233,3,3,3,0,-9.94,-2.09,-0.44,11.91,10.68,-0.6
5.52220094203949,3,3,3,0,-9.81,-1.91,-0.63,13.5,10.88,-0.45
5.532200932502747,3,3,3,0,-9.789999999999999,-1.88,-0.43,15.01,10.34,-0.06
5.542200922966003,3,3,3,0,-9.56,-2.19,-0.73,15.55,9.73,0.11
5.55220091342926,3,3,3,0,-9.23,-2.2,-0.86,16.76,9.800000000000001,0.6
5.562200903892517,3,3,3,0,-9.16,-1.97,-0.85,16.76,9.800000000000001,0.6
5.572200894355774,3,3,3,0,-9.390000000000001,-1.57,-0.74,17.73,10.24,0.91
5.582200884819031,3,3,3,0,-9.83,-1.26,-0.76,17.73,9.84,0.59
5.592200875282288,3,3,3,0,-9.75,-1.3,-0.5600000000000001,16.51,8.66,1
5.602200865745544,3,3,3,0,-9.73,-1.08,-0.28,15.39,8.16,1.32
5.612200856208801,3,3,3,0,-9.9,-0.83,-0.22,15.39,8.16,1.32
5.622200846672058,3,3,3,0,-9.890000000000001,-0.16,-0.28,14.57,7.73,1.6
5.632201075553894,3,3,3,0,-9.949999999999999,-0.09,-0.45,13.32,6.23,2
5.642201066017151,3,3,3,0,-10.01,-0.14,-0.68,12.37,4.8,1.76
5.652201056480408,3,3,3,0,-9.91,-0.62,-0.58,11.5,3.31,1.62
5.662201046943665,3,3,3,0,-9.529999999999999,-1.03,-0.74,11.5,3.31,1.62
5.672201037406921,3,3,3,0,-9.81,-1.22,-1.12,11.4,3.43,1.26
5.682201027870178,3,3,3,0,-9.449999999999999,-0.47,-0.85,12.25,3.28,1.97
5.692201018333435,3,3,3,0,-10.06,0.62,-2.08,11.43,4.19,1.8
5.702201008796692,3,3,3,0,-9.619999999999999,0.62,-1.86,11.72,4.7,1.38
5.712200999259949,3,3,3,0,-9.619999999999999,0.62,-1.86,11.72,4.7,1.38
5.722200989723206,3,3,3,0,-9.25,0.19,-2.11,11.41,2.64,1.74
5.732200980186462,3,3,3,0,-9.84,0.92,-2.03,11.62,3.73,1.96
5.742200970649719,3,3,3,0,-10.09,0.52,-2.41,10.88,3.62,2.66
5.752200961112976,3,3,3,0,-10.18,0.39,-1.95,10.73,3.29,3.2
5.762200951576233,3,3,3,0,-10.18,0.39,-1.95,10.73,3.29,3.2
5.77220094203949,3,3,3,0,-10.24,0.32,-1.56,10.96,2.93,3.07
5.782200932502747,3,3,3,0,-9.52,0.75,-1.21,12.62,3.09,1.04
5.792200922966003,3,3,3,0,-9.630000000000001,1.06,-1.21,12.61,3.66,1.21
5.80220091342926,3,3,3,0,-9.960000000000001,1.39,-0.61,12.54,3.7,1.47
5.812200903892517,3,3,3,0,-9.960000000000001,1.39,-0.61,12.54,3.7,1.47
5.822200894355774,3,3,3,0,-10.15,1.14,-0.9399999999999999,11.78,3.77,1.56
5.832200884819031,3,3,3,0,-9.640000000000001,0.95,-0.99,10.47,3.63,0.9
5.842200875282288,3,3,3,0,-9.73,0.61,-0.98,9.66,3.8,1.01
5.852200865745544,3,3,3,0,-10.06,0.37,-0.55,9.470000000000001,4.12,0.85
5.862200856208801,3,3,3,0,-10.06,0.37,-0.55,8.75,3.67,0.45
5.872200846672058,3,3,3,0,-9.960000000000001,-0.01,-0.67,8.44,2.72,0.05
5.882201075553894,3,3,3,0,-9.74,-1.15,-1.3,9.539999999999999,2.7,0.02
5.892201066017151,3,3,3,0,-9.85,-1.22,-1.11,11.54,2.81,-0.14
5.902201056480408,3,3,3,0,-9.84,-0.95,-0.75,12.17,2.55,-0.51
5.912201046943665,3,3,3,0,-9.84,-0.95,-0.75,11.81,2.07,-0.64
5.922201037406921,3,3,3,0,-9.98,-0.41,-0.92,11.32,2.03,-0.82
5.932201027870178,3,3,3,0,-9.720000000000001,-0.04,-1.32,10.57,2.09,-1.26
5.942201018333435,3,3,3,0,-9.609999999999999,0.02,-1.47,9.44,2.22,-1.72
5.952201008796692,3,3,3,0,-9.84,0.08,-1.18,8.460000000000001,2.4,-1.72
5.962200999259949,3,3,3,0,-9.84,0.08,-1.18,7.5,2.47,-1.85
5.972200989723206,3,3,3,0,-9.890000000000001,0.36,-1.31,7.11,2.71,-2.04
5.982200980186462,3,3,3,0,-9.91,0.16,-1.81,6.93,3,-2.25
5.992200970649719,3,3,3,0,-9.800000000000001,-0.17,-2.06,7.04,2.8,-2.31
6.002200961112976,3,3,3,0,-9.890000000000001,-0.15,-1.97,7.54,2.63,-2.31
6.012200951576233,3,3,3,0,-9.890000000000001,-0.15,-1.97,7.9,2.45,-2.77
6.02220094203949,3,3,3,0,-9.91,-0.43,-1.75,8.130000000000001,1.84,-3.11
6.032200932502747,3,3,3,0,-9.390000000000001,-0.55,-1.07,8.390000000000001,1.3,-3.14
6.042200922966003,3,3,3,0,-9.970000000000001,-1.4,-0.85,7.91,1.55,-3.34
6.05220091342926,3,3,3,0,-10.19,-2.28,-0.58,7.54,1.5,-3.44
6.062200903892517,3,3,3,0,-10.19,-2.28,-0.58,7.27,1.45,-3.48
6.072200894355774,3,3,3,0,-10.38,-3.33,-0.22,7.37,1.08,-3.72
6.082200884819031,3,3,3,0,-10.2,-3.36,0.83,7.82,0.32,-3.98
6.092200875282288,3,3,3,0,-10.41,-3.3,1.09,7.93,0,-4.56
6.102200865745544,3,3,3,0,-10.33,-3.11,0.99,7.05,-0.29,-5.43
6.112200856208801,3,3,3,0,-10.13,-3.03,1.09,5.95,-0.47,-6.04
6.122200846672058,3,3,3,0,-10.64,-2.7,0.77,4.71,-0.06,-6.26
6.132201075553894,3,3,3,0,-10.87,-1.86,0.39,3.5,0.18,-6.54
6.142201066017151,3,3,3,0,-11.31,-1.07,-0.23,1.87,0.46,-6.7
6.152201056480408,3,3,3,0,-11.4,-0.32,-1.78,1.64,1.18,-6.5
6.162201046943665,3,3,3,0,-10.86,-0.49,-2.76,3.56,1.89,-6.06
6.172201037406921,3,3,3,0,-10.04,-0.57,-3.34,7.05,2.72,-5.8
6.182201027870178,3,3,3,0,-9.4,-1.91,-3.57,10.79,3.75,-4.86
6.192201018333435,3,3,3,0,-9.859999999999999,-0.8100000000000001,-2.92,15.63,3.99,-3.37
6.202201008796692,3,3,3,0,-10.1,-0.52,-2.48,21.7,4.05,-1.32
6.212200999259949,3,3,3,0,-9.76,-0.39,-2.26,28.06,2.72,0.92
6.222200989723206,3,3,3,0,-9.470000000000001,-0.51,-2.1,33.82,0.74,3.19
6.232200980186462,3,3,3,0,-8.6,-0.88,-2.34,39.37,0.41,4.67
6.242200970649719,3,3,3,0,-8.02,-1.59,-3.16,43.34,1.48,5.56
6.252200961112976,3,3,3,0,-7.49,-2.91,-4.25,44.35,2.92,6.38
6.263200879096985,3,3,3,0,-7.57,-4.56,-4.51,44.29,4.68,6.65
6.273200869560242,3,3,3,0,-8.119999999999999,-4.98,-3.12,45.12,4.56,7.05
6.283200860023499,3,3,3,0,-8.16,-5.17,-2.79,45.16,1.87,8.369999999999999
6.293200850486755,3,3,3,0,-8.609999999999999,-4.58,-2.73,42.8,0.01,9.5
6.303201079368591,3,3,3,0,-9.35,-3.61,-2.09,41.72,-1.23,10.8
6.313201069831848,3,3,3,0,-10.65,-1.39,-0.6,40.54,-3.53,11.67
6.323201060295105,3,3,3,0,-10.97,0.22,0.29,37.2,-5.13,10.06
6.333201050758362,3,3,3,0,-10.07,0.5600000000000001,-0.5600000000000001,31.06,-4.93,6.39
6.343201041221619,3,3,3,0,-9.380000000000001,0.83,-0.5600000000000001,28.66,-6.35,6.49
6.353201031684875,3,3,3,0,-9.41,0.24,-0.86,25.3,-5.49,5.96
6.363201022148132,3,3,3,0,-9.44,0.08,-1.1,22.41,-4.52,5.64
6.373201012611389,3,3,3,0,-9.56,-0.02,-1.46,20.19,-3.93,5.53
6.383201003074646,3,3,3,0,-9.380000000000001,-0.02,-1.72,19.22,-3.63,5.44
6.393200993537903,3,3,3,0,-8.710000000000001,0.27,-1.83,18.28,-3.56,5.7
6.40320098400116,3,3,3,0,-8.56,0.82,-1.93,16.99,-2.93,5.97
6.413200974464417,3,3,3,0,-8.49,1.29,-2.05,16.34,-1.89,6.65
6.423200964927673,3,3,3,0,-8.470000000000001,1.48,-1.96,16.29,-1.03,8.039999999999999
6.43320095539093,3,3,3,0,-8.460000000000001,1.41,-1.19,17.04,-0.8100000000000001,9.970000000000001
6.443200945854187,3,3,3,0,-8.449999999999999,1.32,-0.73,18.49,-0.34,11.35
6.453200936317444,3,3,3,0,-8.640000000000001,1.04,-0.77,19.65,1.27,11.45
6.463200926780701,3,3,3,1,-8.640000000000001,1.04,-0.77,20.69,2.69,10.71
6.473200917243958,3,3,3,1,-9.06,1.03,-0.99,21.34,2.33,9.699999999999999
6.483200907707214,3,3,3,1,-9.199999999999999,2.7,-1.13,21.72,1.46,9.01
6.493200898170471,3,3,3,1,-9.06,2.92,-1.14,22.12,1.4,8.630000000000001
6.503200888633728,3,3,3,1,-9.34,2.36,-1.04,22.36,2.74,8.130000000000001
6.513200879096985,3,3,3,1,-9.34,2.36,-1.04,21.83,4.12,7.41
6.523200869560242,3,3,3,1,-9.52,1.86,-1.22,20.79,4.36,6.97
6.533200860023499,3,3,3,1,-9.44,2.04,-1.37,19.82,3.87,6.52
6.543200850486755,3,3,3,1,-9.25,2.65,-1.04,19.13,3.37,6.24
6.553201079368591,3,3,3,1,-9.31,2.64,-0.85,18.4,3.32,5.99
6.563201069831848,3,3,3,2,-9.380000000000001,2.57,-0.78,17.7,3.99,5.37
6.583201050758362,3,3,3,2,-9.09,2.35,-1.02,15.35,4.29,3.85
6.593201041221619,3,3,3,2,-8.869999999999999,2.53,-0.5,14.32,3.84,3.19
6.603201031684875,3,3,3,2,-8.68,1.92,0.22,12.5,3.45,2.8
6.613201022148132,3,3,3,2,-8.720000000000001,1.21,-0.22,9.289999999999999,3.36,2.37
6.623201012611389,3,3,3,2,-9.9,5.27,-0.1,7.93,4.24,1.86
6.633201003074646,3,3,3,2,-9.949999999999999,5.44,0.16,6.68,4.38,1.63
6.643200993537903,3,3,3,2,-9.83,3.55,0.62,2.84,3.76,1
6.65320098400116,3,3,3,2,-9.94,0.43,0.73,-1.93,4.69,-0.15
6.663200974464417,3,3,3,2,-10.5,-5.34,-0.28,-5.82,4.78,-1.31
6.673200964927673,3,3,3,2,-12.44,-6.52,-1.2,-6.5,4.21,-2.41
6.68320095539093,3,3,3,2,-15.74,-4.79,1.16,-2.31,3.23,-3.01
6.693200945854187,3,3,3,2,-18.78,-3.72,3.57,3.67,-0.14,-1.28
6.703200936317444,3,3,3,2,-16.42,-1.94,4.26,7.7,-3.97,1.85
6.713200926780701,3,3,3,2,-11.37,-0.37,3.26,7.86,-5.7,3.18
6.723200917243958,3,3,3,2,-7.16,0.39,2.32,7.26,-4.31,1.56
6.733200907707214,3,3,3,2,-4.76,0.32,1.67,6.92,-0.64,-1.01
6.743200898170471,3,3,3,2,-5.4,-2.95,-1.46,4.92,2,-2.49
6.753200888633728,3,3,3,2,-7.73,-3.23,-2.03,5.71,3.1,-2.59
6.763200879096985,3,3,3,2,-9.85,-3.07,-2.92,6.25,2.43,-2.19
6.773200869560242,3,3,3,2,-10.87,-2.32,-2.34,7.42,-0.38,-1.46
6.783200860023499,3,3,3,2,-10.99,-1.51,-1.07,8.33,-2.07,-1.21
6.793200850486755,3,3,3,2,-10.24,-0.74,-0.67,8.15,-2.79,-1.35
6.803201079368591,3,3,3,2,-9.52,-0.08,-0.28,6.95,-3.06,-1.44
6.813201069831848,3,3,3,2,-9.16,0.45,-0.27,5.51,-1.9,-1.55
6.823201060295105,3,3,3,2,-9.34,0.25,-0.14,5.12,-0.65,-1.71
6.833201050758362,3,3,3,2,-9.800000000000001,-0.4,-0.3,4.71,0.07000000000000001,-1.92
6.843201041221619,3,3,3,2,-10.3,-1.21,-0.45,4.46,0.47,-2
6.853201031684875,3,3,3,2,-10.57,-1.54,-0.21,4.66,0.42,-1.77
6.863201022148132,3,3,3,2,-10.44,-1.38,-0.3,4.35,0.28,-1.48
6.873201012611389,3,3,3,2,-10.14,-1.12,-0.51,3.43,0.14,-1.09
6.883201003074646,3,3,3,2,-9.84,-0.97,-0.64,2.63,0.01,-0.75
6.893200993537903,3,3,3,2,-9.24,-1.06,-0.36,1.62,-0.37,-0.42
6.90320098400116,3,3,3,2,-9.460000000000001,-0.65,-0.4,0.39,-0.68,-0.12
6.913200974464417,3,3,3,2,-9.82,-0.15,-0.72,-0.67,-0.51,-0.29
6.923200964927673,3,3,3,2,-10,0.16,-0.91,-1.29,-0.34,-0.74
6.93320095539093,3,3,3,2,-9.869999999999999,0.5,-1.02,-2.04,-0.8,-0.84
6.943200945854187,3,3,3,2,-9.75,0.29,-1,-2.95,-0.82,-1.1
6.953200936317444,3,3,3,2,-9.51,0.33,-0.86,-3.39,-0.92,-1.21
6.963200926780701,3,3,3,2,-9.380000000000001,0.18,-0.96,-3.92,-1.34,-0.78
6.973200917243958,3,3,3,2,-9.869999999999999,-0.32,-0.9,-4.05,-1.05,-0.52
6.983200907707214,3,3,3,2,-10.13,-0.33,-0.99,-3.81,-0.19,-0.5600000000000001
6.993200898170471,3,3,3,2,-9.970000000000001,0.03,-0.83,-3.55,-0.3,-0.41
7.003200888633728,3,3,3,2,-9.800000000000001,0.26,-0.78,-2.89,-0.27,-0.18
7.013200879096985,3,3,3,2,-9.65,0.22,-0.83,-2.29,0.43,-0.2
7.023200869560242,3,3,3,2,-9.57,0.38,-0.83,-1.86,0.38,-0.15
7.033200860023499,3,3,3,2,-9.66,0.38,-0.9399999999999999,-1.78,0.64,-0.14
7.043200850486755,3,3,3,2,-9.74,0.11,-1.03,-1.76,1.02,-0.17
7.053201079368591,3,3,3,2,-9.630000000000001,0.01,-0.92,-1.56,0.88,-0.03
7.063201069831848,3,3,3,1,-9.699999999999999,0,-1.01,-1.38,0.87,0.15
7.073201060295105,3,3,3,1,-9.75,0,-1.13,-1.34,1.01,0.19
7.083201050758362,3,3,3,1,-9.77,-0.06,-1.21,-1.57,1.03,0.24
7.093201041221619,3,3,3,1,-9.630000000000001,-0.21,-1.13,-1.84,0.92,0.27
7.103201031684875,3,3,3,1,-9.59,-0.44,-0.96,-1.88,0.83,0.27
7.113201022148132,3,3,3,1,-9.640000000000001,-0.74,-0.79,-1.85,0.75,0.32
7.123201012611389,3,3,3,1,-9.73,-0.86,-0.65,-1.73,0.74,0.38
7.133201003074646,3,3,3,1,-9.84,-1.08,-0.63,-1.54,0.75,0.42
7.143200993537903,3,3,3,1,-9.880000000000001,-1.21,-0.53,-1.21,0.79,0.35
7.15320098400116,3,3,3,1,-9.9,-1.1,-0.4,-0.99,0.76,0.23
7.163200974464417,3,3,3,1,-9.76,-0.86,-0.57,-1.18,0.62,0.17
7.173200964927673,3,3,3,1,-9.83,-0.87,-0.73,-1.1,0.45,0.25
7.18320095539093,3,3,3,1,-9.94,-0.73,-0.8,-1.07,0.47,0.19
7.193200945854187,3,3,3,1,-10.01,-0.58,-0.73,-1.31,0.18,0.01
7.203200936317444,3,3,3,1,-9.9,-0.55,-0.85,-1.52,-0.17,-0.22
7.213200926780701,3,3,3,1,-9.869999999999999,-0.43,-0.91,-1.52,-0.37,-0.37
7.223200917243958,3,3,3,1,-9.779999999999999,-0.5600000000000001,-1.1,-1.43,-0.7,-0.29
7.233200907707214,3,3,3,1,-9.74,-0.73,-1.45,-1.59,-1.04,-0.26
7.243200898170471,3,3,3,1,-9.890000000000001,-0.76,-1.71,-1.92,-1.02,-0.29
7.253200888633728,3,3,3,1,-9.960000000000001,-0.72,-1.71,-1.62,-0.95,-0.25
7.263200879096985,3,3,3,1,-10.04,-0.42,-1.44,-0.93,-1.16,-0.3
7.273200869560242,3,3,3,1,-9.92,-0.03,-1.38,-0.24,-1.48,-0.32
7.28420102596283,3,3,3,1,-9.81,0.08,-1.46,-0.31,-1.51,-0.26
7.294201016426086,3,3,3,1,-10.01,0.43,-1.24,-1.01,-1.32,-0.28
7.304201006889343,3,3,3,1,-9.880000000000001,0.97,-1.04,-1.78,-1.49,-0.38
7.3142009973526,3,3,3,1,-9.81,0.6899999999999999,-1.01,-2.55,-1.66,-0.42
7.324200987815857,3,3,3,1,-9.83,0.76,-0.79,-2.87,-1.44,-0.48
7.334200978279114,3,3,3,1,-9.82,0.55,-0.88,-3.39,-1.34,-0.65
7.344200968742371,3,3,3,1,-9.82,0.5600000000000001,-0.83,-3.73,-1.51,-0.72
7.354200959205627,3,3,3,1,-9.890000000000001,0.5,-0.85,-3.74,-1.76,-0.82
7.364200949668884,3,3,3,1,-9.65,0.5,-0.66,-3.6,-2.06,-0.95
7.374200940132141,3,3,3,1,-9.630000000000001,0.66,-0.5,-3.16,-2.05,-0.91
7.384200930595398,3,3,3,1,-9.69,0.67,-0.58,-2.91,-1.76,-0.88
7.394200921058655,3,3,3,1,-9.800000000000001,0.71,-0.55,-2.77,-1.51,-0.82
7.404200911521912,3,3,3,1,-9.83,0.38,-0.4,-2.85,-1.35,-0.76
7.414200901985168,3,3,3,1,-9.82,0.16,-0.49,-3.05,-1.31,-0.5600000000000001
7.424200892448425,3,3,3,1,-9.859999999999999,-0.01,-0.54,-3.25,-1.17,-0.5600000000000001
7.434200882911682,3,3,3,1,-10.01,-0.37,-0.59,-3.15,-0.99,-0.57
7.444200873374939,3,3,3,1,-10.5,-0.8,-0.32,-2.75,-0.89,-0.41
7.454200863838196,3,3,3,1,-10.63,-0.98,-0.17,-2.22,-0.82,-0.28
7.464200854301453,3,3,3,1,-10.64,-0.92,-0.04,-1.86,-1.03,-0.05
7.474200844764709,3,3,3,1,-10.42,-0.78,0.19,-1.53,-1.23,-0.05
7.484201073646545,3,3,3,1,-9.9,-0.39,0.23,-1.07,-0.98,-0.32
7.494201064109802,3,3,3,1,-9.699999999999999,-0.18,0.3,-0.7,-0.87,-0.58
7.504201054573059,3,3,3,1,-9.69,-0.26,0.39,-0.38,-0.49,-0.68
7.514201045036316,3,3,3,1,-10.04,-0.88,0.41,0.1,-0.23,-0.65
7.524201035499573,3,3,3,1,-10.24,-0.62,0.12,0.16,-0.09,-0.67
7.53420102596283,3,3,3,1,-9.93,0.17,-0.16,-0.82,-0.44,-0.87
7.544201016426086,3,3,3,1,-9.369999999999999,1.01,-0.62,-2.04,-0.18,-1
7.554201006889343,3,3,3,1,-9.289999999999999,2.16,-2.12,-1.96,1.59,-1.11
7.5642009973526,3,3,3,1,-9.119999999999999,2.05,-2.5,-1.98,2.11,-1.15
7.574200987815857,3,3,3,1,-8.880000000000001,1.64,-2.52,-2.22,1.54,-0.99
7.584200978279114,3,3,3,1,-8.67,1.18,-2.48,-2.28,1.31,-0.64
7.594200968742371,3,3,3,1,-8.369999999999999,0.47,-2.14,-2.01,1.42,-0.13
7.604200959205627,3,3,3,1,-8.26,0.27,-2.18,-1,1.69,0.28
7.614200949668884,3,3,3,1,-8.34,0.12,-2.21,0.48,2.19,0.55
7.624200940132141,3,3,3,1,-8.43,0.21,-2.03,1.99,2.34,0.6
7.634200930595398,3,3,3,1,-8.42,0.39,-2.01,3.01,2.12,0.61
7.644200921058655,3,3,3,1,-8.4,0.75,-1.57,3.69,1.86,0.57
7.654200911521912,3,3,3,1,-8.49,1.17,-1.04,3.66,1.75,0.62
7.664200901985168,3,3,3,1,-8.66,1.47,-0.63,2.49,1.67,0.98
7.674200892448425,3,3,3,1,-9.23,1.49,0.33,0.43,1.61,1.44
7.684200882911682,3,3,3,1,-9.73,1.08,0.62,-2.35,1.48,1.68
7.694200873374939,3,3,3,1,-10.22,0.38,0.61,-4.96,1.48,1.51
7.704200863838196,3,3,3,1,-10.87,-0.68,0.4,-5.92,1.76,1.16
7.714200854301453,3,3,3,2,-11.89,-2.43,0.03,-6.07,2,0.68
7.724200844764709,3,3,3,2,-12.06,-2.43,0.09,-5.42,2.2,0.38
7.734201073646545,3,3,3,2,-11.83,-2.09,0,-4.17,2.24,0.57
7.744201064109802,3,3,3,2,-11.29,-1.7,0.08,-3.02,1.91,0.9399999999999999
7.754201054573059,3,3,3,2,-10.23,-0.83,0.16,-2.04,1.55,1.17
7.764201045036316,3,3,3,2,-9.890000000000001,-0.3,-0.01,-0.72,1.43,1.34
7.774201035499573,3,3,3,2,-9.73,0.03,-0.11,0.65,1.65,1.6
7.78420102596283,3,3,3,2,-9.65,0.09,-0.23,0.92,2,1.77
7.794201016426086,3,3,3,2,-9.6,0.37,-0.5,0.67,2.14,1.74
7.804201006889343,3,3,3,2,-9.81,0.44,-0.75,-0.03,2.39,1.33
7.8142009973526,3,3,3,2,-9.630000000000001,1.02,-0.85,-0.74,2.05,0.83
7.824200987815857,3,3,3,2,-9.49,1.03,-1.11,-1.5,1.93,0.92
7.834200978279114,3,3,3,2,-9.68,0.38,-1.75,-1.58,2.31,0.86
7.844200968742371,3,3,3,2,-9.51,0.53,-1.5,-1.47,1.92,0.65
7.854200959205627,3,3,3,2,-9.4,0.5,-1.49,-1.72,1.63,0.34
7.864200949668884,3,3,3,2,-9.460000000000001,0.79,-1.42,-1.7,1.47,0.38
7.874200940132141,3,3,3,2,-9.710000000000001,0.75,-1.45,-1.45,1.55,0.55
7.884200930595398,3,3,3,2,-9.83,0.3,-1.64,-0.92,1.94,0.43
7.894200921058655,3,3,3,2,-9.859999999999999,0.34,-1.62,-0.13,2.11,0.55
7.904200911521912,3,3,3,2,-9.970000000000001,0.25,-1.91,0.3,2.24,0.51
7.914200901985168,3,3,3,2,-9.94,0.53,-1.57,1.04,2.21,0.66
7.924200892448425,3,3,3,2,-9.92,0.75,-1.31,1.53,2.27,0.82
7.934200882911682,3,3,3,2,-9.75,0.87,-1.43,0.9,2.08,0.99
7.944200873374939,3,3,3,2,-9.74,0.88,-1.76,0.11,2.19,1.03
7.954200863838196,3,3,3,2,-9.779999999999999,0.79,-1.75,-0.25,2.43,0.83
7.964200854301453,3,3,3,2,-9.710000000000001,0.62,-1.66,-0.6,2.42,0.77
7.974200844764709,3,3,3,2,-9.67,0.35,-1.58,-0.83,2.44,0.95
7.984201073646545,3,3,3,2,-9.81,-0.17,-1.23,-1.15,2.57,1.1
7.994201064109802,3,3,3,2,-9.9,-0.5,-1.28,-1.73,2.38,1.08
8.004201054573059,3,3,3,2,-10.08,-0.6899999999999999,-1.28,-2.41,2.2,0.8100000000000001
8.014201045036316,3,3,3,2,-10.14,-0.76,-1.19,-2.82,1.9,0.5600000000000001
8.024201035499573,3,3,3,2,-9.81,-0.78,-1.19,-3.02,1.27,0.44
8.03420102596283,3,3,3,2,-9.539999999999999,-0.66,-1.01,-2.63,0.78,0.51
8.044201016426086,3,3,3,2,-9.48,-0.68,-1.06,-2.24,0.88,0.52
8.054201006889343,3,3,3,2,-9.59,-0.66,-1.24,-2.03,0.85,0.35
8.0642009973526,3,3,3,2,-9.859999999999999,-0.54,-1.47,-1.61,0.67,0.22
8.074200987815857,3,3,3,2,-9.960000000000001,-0.26,-1.75,-1.56,0.41,0.05
8.084200978279114,3,3,3,2,-9.9,0.06,-1.75,-1.16,0.05,0.06
8.094200968742371,3,3,3,2,-9.73,0.37,-1.56,-0.27,0.09,0.08
8.104200959205627,3,3,3,2,-9.43,0.91,-1.7,0.21,0.43,0.17
8.114200949668884,3,3,3,2,-9.41,1.1,-1.61,0.66,0.73,0.37
8.124200940132141,3,3,3,2,-9.449999999999999,1.22,-1.55,0.85,0.97,0.49
8.134200930595398,3,3,3,2,-9.51,1.14,-1.84,0.24,0.96,0.5
8.144200921058655,3,3,3,2,-9.52,1.23,-1.8,0.13,0.9,0.53
8.154200911521912,3,3,3,2,-9.51,1.24,-1.8,0.09,1.07,0.5600000000000001
8.164200901985168,3,3,3,2,-9.539999999999999,1.25,-1.65,0.12,1.42,0.55
8.174200892448425,3,3,3,2,-9.51,1.26,-1.57,0.14,1.55,0.48
8.184200882911682,3,3,3,2,-9.59,1,-1.87,-0.13,1.62,0.41
8.194200873374939,3,3,3,2,-9.52,0.86,-1.89,-0.48,1.42,0.4
8.204200863838196,3,3,3,2,-9.51,0.6899999999999999,-1.98,-0.76,1.41,0.48
8.214200854301453,3,3,3,2,-9.68,0.5,-1.67,-0.86,1.53,0.52
8.224200844764709,3,3,3,2,-9.800000000000001,0.27,-1.73,-1,1.47,0.44
8.234201073646545,3,3,3,2,-9.98,0.14,-1.84,-1.54,1.33,0.26
8.244201064109802,3,3,3,2,-10.02,0.07000000000000001,-1.7,-1.73,0.83,0.08
8.254201054573059,3,3,3,2,-9.720000000000001,0.03,-1.53,-1.79,0.5,-0.03
8.264201045036316,3,3,3,2,-9.49,0.04,-1.46,-1.39,0.38,0.04
8.274201035499573,3,3,3,2,-9.390000000000001,-0.06,-1.48,-1.06,0.31,0.19
8.28420102596283,3,3,3,2,-9.41,-0.23,-1.45,-0.63,0.31,0.28
8.294201016426086,3,3,3,2,-9.5,-0.49,-1.3,-0.26,0.16,0.38
8.304201006889343,3,3,3,2,-9.52,-0.45,-1.31,0.15,-0.04,0.37
8.315200924873352,3,3,3,2,-9.56,-0.32,-1.33,0.46,-0.21,0.29
8.325200915336609,3,3,3,2,-9.630000000000001,-0.2,-1.56,0.68,-0.35,0.2
8.335200905799866,3,3,3,2,-9.619999999999999,-0.06,-1.74,1.19,-0.61,0.16
8.345200896263123,3,3,3,2,-9.51,-0.18,-1.81,1.57,-0.67,0.3
8.355200886726379,3,3,3,2,-9.42,-0.21,-1.98,2.48,-0.59,0.59
8.365200877189636,3,3,3,2,-9.390000000000001,-0.06,-1.91,3.97,-0.5600000000000001,0.9
8.375200867652893,3,3,3,2,-9.59,0.3,-1.96,4.85,-0.58,0.86
8.38520085811615,3,3,3,2,-9.67,0.58,-2.03,4.99,-0.65,0.74
8.395200848579407,3,3,3,2,-9.67,0.88,-2.02,5.04,-0.8,0.65
8.405201077461243,3,3,3,2,-9.67,1.01,-2.14,4.81,-0.5600000000000001,0.53
8.4152010679245,3,3,3,2,-9.710000000000001,1.2,-2.17,4.35,-0.35,0.47
8.425201058387756,3,3,3,2,-9.6,1.26,-2.21,3.61,-0.49,0.52
8.435201048851013,3,3,3,2,-9.539999999999999,1.27,-2.28,2.87,-0.57,0.59
8.44520103931427,3,3,3,2,-9.58,1.26,-2.11,2.48,-0.58,0.61
8.455201029777527,3,3,3,2,-9.6,1.02,-1.98,2.05,-0.61,0.51
8.465201020240784,3,3,3,2,-9.640000000000001,1.15,-1.86,1.8,-0.5600000000000001,0.42
8.475201010704041,3,3,3,2,-9.66,1.38,-1.72,1.48,-0.48,0.3
8.485201001167297,3,3,3,2,-9.66,1.4,-1.82,0.77,-0.25,0.23
8.495200991630554,3,3,3,2,-9.66,1.43,-1.81,0.28,0.13,0.17
8.505200982093811,3,3,3,2,-9.640000000000001,1.37,-1.95,-0.44,0.43,0.07000000000000001
8.515200972557068,3,3,3,2,-9.67,1.29,-1.92,-1.38,0.73,-0.06
8.525200963020325,3,3,3,2,-9.69,1.24,-1.88,-2.03,0.91,0.01
8.535200953483582,3,3,3,2,-9.699999999999999,0.74,-2.03,-2.15,1.08,0.14
8.545200943946838,3,3,3,2,-9.68,0.62,-1.83,-1.84,1.23,0.26
8.555200934410095,3,3,3,2,-9.630000000000001,0.5,-1.77,-1.74,1.15,0.32
8.565200924873352,3,3,3,2,-9.57,0.29,-1.76,-1.7,1.02,0.43
8.575200915336609,3,3,3,2,-9.58,0.27,-1.77,-1.59,1.12,0.6
8.585200905799866,3,3,3,2,-9.630000000000001,0.2,-1.86,-1.6,1.23,0.64
8.595200896263123,3,3,3,2,-9.699999999999999,0.1,-1.89,-1.67,1.27,0.6
8.605200886726379,3,3,3,2,-9.65,0.13,-1.68,-1.49,1.14,0.59
8.615200877189636,3,3,3,2,-9.6,0.09,-1.72,-1.17,1.03,0.67
8.625200867652893,3,3,3,2,-9.56,0.1,-1.72,-0.86,1.08,0.71
8.63520085811615,3,3,3,2,-9.56,0.15,-1.78,-0.65,1.12,0.8
8.645200848579407,3,3,3,2,-9.57,0.21,-1.73,-0.62,1.12,0.95
8.655201077461243,3,3,3,2,-9.550000000000001,0.16,-1.71,-0.67,1.09,1.15
8.6652010679245,3,3,3,2,-9.59,0.2,-1.68,-0.6,1.13,1.32
8.675201058387756,3,3,3,2,-9.619999999999999,0.23,-1.67,-0.51,1.07,1.49
8.685201048851013,3,3,3,2,-9.710000000000001,0.34,-1.75,-0.42,0.96,1.62
8.69520103931427,3,3,3,2,-9.69,0.44,-1.71,-0.26,0.89,1.68
8.705201029777527,3,3,3,2,-9.640000000000001,0.51,-1.7,-0.1,0.78,1.73
8.715201020240784,3,3,3,2,-9.65,0.5,-1.78,-0.07000000000000001,0.8,1.7
8.725201010704041,3,3,3,2,-9.640000000000001,0.67,-1.78,0,0.72,1.7
8.735201001167297,3,3,3,2,-9.58,0.71,-1.92,-0.16,0.58,1.69
8.745200991630554,3,3,3,2,-9.56,0.73,-1.89,-0.27,0.57,1.63
8.755200982093811,3,3,3,2,-9.539999999999999,0.75,-1.89,-0.23,0.62,1.63
8.765200972557068,3,3,3,2,-9.42,0.71,-1.87,-0.22,0.62,1.72
8.775200963020325,3,3,3,2,-9.4,0.7,-1.86,-0.17,0.58,1.99
8.785200953483582,3,3,3,2,-9.369999999999999,0.68,-1.99,-0.04,0.65,2.37
8.795200943946838,3,3,3,2,-9.380000000000001,0.63,-1.98,0.24,0.64,2.83
8.805200934410095,3,3,3,2,-9.48,0.61,-1.97,0.61,0.49,3.28
8.815200924873352,3,3,3,2,-9.52,0.66,-1.96,1.05,0.29,3.63
8.825200915336609,3,3,3,2,-9.59,0.72,-1.99,1.34,0.07000000000000001,3.72
8.835200905799866,3,3,3,2,-9.630000000000001,0.8,-2.02,1.49,-0.1,3.71
8.845200896263123,3,3,3,2,-9.56,1.03,-1.84,1.31,-0.12,3.59
8.855200886726379,3,3,3,2,-9.65,1.14,-1.86,0.9399999999999999,0.36,3.24
8.865200877189636,3,3,3,2,-9.800000000000001,1.22,-1.89,0.71,0.87,2.59
8.875200867652893,3,3,3,2,-9.83,1.19,-2.01,0.55,1.04,1.78
8.88520085811615,3,3,3,2,-9.77,1.17,-2.08,0.36,0.85,1.1
8.895200848579407,3,3,3,2,-9.710000000000001,1.1,-2.08,0.21,0.64,0.71
8.905201077461243,3,3,3,2,-9.640000000000001,1.03,-2.05,0.08,0.35,0.53
8.9152010679245,3,3,3,2,-9.57,0.99,-1.9,0.04,0.09,0.54
8.925201058387756,3,3,3,2,-9.550000000000001,0.96,-1.94,0.19,-0.05,0.58
8.94520103931427,3,3,3,2,-9.529999999999999,1.04,-1.99,0.21,0.05,0.5600000000000001
8.955201029777527,3,3,3,2,-9.550000000000001,1.12,-1.98,0.17,0.06,0.5
8.965201020240784,3,3,3,2,-9.57,1.17,-1.94,0.13,0.06,0.4
8.975201010704041,3,3,3,2,-9.56,1.23,-1.95,0.15,0.14,0.34
8.985201001167297,3,3,3,2,-9.56,1.27,-2.03,0.06,0.1,0.22
8.995200991630554,3,3,3,2,-9.56,1.28,-2,0.05,0.07000000000000001,0.15
9.005200982093811,3,3,3,2,-9.52,1.29,-1.96,0,0.03,0.11
9.015200972557068,3,3,3,2,-9.52,1.23,-1.92,-0.11,0,0.11
9.025200963020325,3,3,3,2,-9.52,1.2,-1.92,-0.14,0.02,0.12
9.035200953483582,3,3,3,2,-9.5,1.17,-1.97,-0.14,-0.02,0.09
9.045200943946838,3,3,3,2,-9.5,1.22,-1.92,-0.05,-0.01,0.06
9.055200934410095,3,3,3,2,-9.52,1.27,-1.95,-0.02,0.02,0
9.065200924873352,3,3,3,2,-9.52,1.28,-1.98,-0.06,0.04,-0.04
9.075200915336609,3,3,3,2,-9.51,1.35,-2.04,-0.04,0.08,-0.04
9.085200905799866,3,3,3,2,-9.52,1.29,-2.12,-0.03,0.07000000000000001,-0.07000000000000001
9.095200896263123,3,3,3,2,-9.49,1.29,-2.1,-0.05,0.06,-0.08
9.105200886726379,3,3,3,2,-9.48,1.29,-2.05,-0.02,0.1,-0.06
9.115200877189636,3,3,3,2,-9.5,1.24,-1.98,-0.05,0,-0.02
9.125200867652893,3,3,3,2,-9.48,1.26,-1.98,-0.09,-0.09,0
9.13520085811615,3,3,3,2,-9.48,1.26,-2.12,-0.03,-0.04,0.06
9.145200848579407,3,3,3,2,-9.49,1.22,-2.09,0,-0.02,0.1
9.155201077461243,3,3,3,2,-9.51,1.22,-2,0.13,0.03,0.18
9.1652010679245,3,3,3,3,-9.470000000000001,1.25,-2.04,0.19,0,0.11
9.175201058387756,3,3,3,3,-9.470000000000001,1.29,-2.02,0.16,0.05,0.11
9.185201048851013,3,3,3,3,-9.460000000000001,1.28,-2.08,0.08,0.05,0.14
9.19520103931427,3,3,3,3,-9.5,1.25,-2.11,0.05,0.01,0.19
9.205201029777527,3,3,3,3,-9.52,1.27,-2.03,0.21,0.05,0.19
9.215201020240784,3,3,3,3,-9.49,1.28,-2.01,0.33,0.07000000000000001,0.15
9.225201010704041,3,3,3,3,-9.470000000000001,1.27,-2,0.34,0.08,0.22
9.235201001167297,3,3,3,3,-9.48,1.29,-2.14,0.4,0.11,0.27
9.245200991630554,3,3,3,3,-9.51,1.27,-2.11,0.42,0.15,0.27
9.255200982093811,3,3,3,3,-9.5,1.28,-2.08,0.49,0.16,0.34
9.265200972557068,3,3,3,3,-9.5,1.31,-2.04,0.53,0.21,0.3
9.275200963020325,3,3,3,3,-9.49,1.35,-2.07,0.53,0.22,0.33
9.285200953483582,3,3,3,3,-9.51,1.29,-2.12,0.45,0.17,0.38
9.295200943946838,3,3,3,3,-9.52,1.28,-2.08,0.37,0.24,0.39
9.305200934410095,3,3,3,3,-9.51,1.28,-2.01,0.32,0.19,0.37
9.315200924873352,3,3,3,3,-9.529999999999999,1.24,-1.99,0.33,0.18,0.34
9.325200915336609,3,3,3,3,-9.51,1.25,-1.96,0.29,0.11,0.36
9.336201071739197,3,3,3,3,-9.51,1.26,-2.06,0.24,0.11,0.37
9.346201062202454,3,3,3,3,-9.49,1.29,-2.02,0.22,0.13,0.36
9.35620105266571,3,3,3,3,-9.460000000000001,1.29,-1.99,0.14,0.12,0.3
9.366201043128967,3,3,3,3,-9.470000000000001,1.3,-2.03,0.02,0.13,0.3
9.376201033592224,3,3,3,3,-9.470000000000001,1.32,-2.01,-0.05,0.22,0.28
9.386201024055481,3,3,3,3,-9.48,1.29,-2.09,-0.18,0.21,0.25
9.396201014518738,3,3,3,3,-9.49,1.28,-2.04,-0.27,0.16,0.22
9.406201004981995,3,3,3,3,-9.52,1.26,-2,-0.33,0.19,0.23
9.416200995445251,3,3,3,3,-9.539999999999999,1.26,-2.02,-0.43,0.14,0.18
9.426200985908508,3,3,3,3,-9.52,1.16,-2.05,-0.41,0.13,0.15
9.436200976371765,3,3,3,3,-9.49,1.14,-2.15,-0.38,0.19,0.1
9.446200966835022,3,3,3,3,-9.51,1.15,-2.13,-0.32,0.16,0.08
9.456200957298279,3,3,3,3,-9.52,1.15,-2.06,-0.23,0.16,0.08
9.466200947761536,3,3,3,3,-9.52,1.18,-2.02,-0.16,0.03,0.09
9.476200938224792,3,3,3,3,-9.51,1.21,-2.06,-0.06,0.05,0.06
9.486200928688049,3,3,3,3,-9.51,1.22,-2.17,0.01,0.01,0.06
9.496200919151306,3,3,3,3,-9.48,1.2,-2.17,0.03,-0.04,0.12
9.506200909614563,3,3,3,3,-9.49,1.19,-2.11,0.06,-0.06,0.1
9.51620090007782,3,3,3,3,-9.48,1.15,-2.04,0.09,-0.05,0.14
9.526200890541077,3,3,3,3,-9.470000000000001,1.15,-2.02,0.19,-0.09,0.12
9.536200881004333,3,3,3,3,-9.49,1.19,-2.15,0.2,-0.05,0.11
9.54620087146759,3,3,3,3,-9.539999999999999,1.23,-2.11,0.26,-0.08,0.07000000000000001
9.556200861930847,3,3,3,3,-9.51,1.25,-2.02,0.3,-0.05,0.12
9.566200852394104,3,3,3,3,-9.51,1.23,-2.02,0.3,-0.11,0.06
9.576200842857361,3,3,3,3,-9.51,1.23,-2.06,0.27,-0.06,0.02
9.586201071739197,3,3,3,3,-9.5,1.2,-2.18,0.26,-0.08,0.04
9.596201062202454,3,3,3,3,-9.49,1.2,-2.09,0.28,-0.06,0.04
9.60620105266571,3,3,3,3,-9.49,1.2,-2.06,0.28,-0.08,0.04
9.616201043128967,3,3,3,3,-9.5,1.24,-2.02,0.32,-0.03,-0.04
9.626201033592224,3,3,3,3,-9.5,1.27,-2.1,0.35,-0.03,-0.01
9.636201024055481,3,3,3,3,-9.49,1.25,-2.17,0.34,-0.02,0
9.646201014518738,3,3,3,3,-9.49,1.25,-2.16,0.29,-0.03,0
9.656201004981995,3,3,3,3,-9.48,1.25,-2.12,0.28,-0.06,-0.03
9.666200995445251,3,3,3,3,-9.460000000000001,1.28,-2.09,0.29,-0.07000000000000001,0
9.676200985908508,3,3,3,3,-9.48,1.29,-2.08,0.29,-0.08,0.01
9.686200976371765,3,3,3,3,-9.470000000000001,1.31,-2.18,0.29,-0.08,0.02
9.696200966835022,3,3,3,3,-9.449999999999999,1.4,-2.12,0.31,-0.07000000000000001,0
9.706200957298279,3,3,3,3,-9.470000000000001,1.38,-2.09,0.29,-0.07000000000000001,-0.03
9.726200938224792,3,3,3,3,-9.470000000000001,1.34,-2.09,0.22,-0.04,-0.05
9.736200928688049,3,3,3,3,-9.460000000000001,1.35,-2.19,0.23,0,-0.04
9.746200919151306,3,3,3,3,-9.460000000000001,1.35,-2.14,0.2,0.01,-0.02
9.756200909614563,3,3,3,3,-9.449999999999999,1.32,-2.13,0.24,0,0
9.76620090007782,3,3,3,3,-9.470000000000001,1.34,-2.1,0.2,-0.07000000000000001,0.03
9.776200890541077,3,3,3,3,-9.48,1.33,-2.11,0.22,-0.05,0
9.786200881004333,3,3,3,3,-9.49,1.34,-2.21,0.23,-0.02,0.01
9.79620087146759,3,3,3,3,-9.470000000000001,1.34,-2.15,0.25,0.04,0.02
9.806200861930847,3,3,3,3,-9.48,1.37,-2.1,0.2,-0.03,0
9.816200852394104,3,3,3,3,-9.460000000000001,1.36,-2.05,0.18,0.02,0.02
9.846201062202454,3,3,3,3,-9.51,1.36,-2.14,-0.01,-0.02,-0.03
9.85620105266571,3,3,3,3,-9.49,1.38,-2.08,-0.12,-0.05,-0.08
9.866201043128967,3,3,3,3,-9.48,1.36,-2.07,-0.22,0.01,-0.13
9.876201033592224,3,3,3,3,-9.460000000000001,1.35,-2.1,-0.32,0.05,-0.12
9.886201024055481,3,3,3,3,-9.43,1.33,-2.2,-0.39,0.03,-0.07000000000000001
9.896201014518738,3,3,3,3,-9.460000000000001,1.29,-2.13,-0.42,0.02,0
9.906201004981995,3,3,3,3,-9.5,1.29,-2.06,-0.37,0.07000000000000001,0.01
9.916200995445251,3,3,3,3,-9.51,1.29,-2.06,-0.31,0.07000000000000001,0.05
9.926200985908508,3,3,3,3,-9.5,1.29,-2.04,-0.26,0.03,0.05
9.936200976371765,3,3,3,3,-9.470000000000001,1.24,-2.1,-0.26,0.04,0.01
9.946200966835022,3,3,3,3,-9.470000000000001,1.23,-2.07,-0.27,0.07000000000000001,0
9.956200957298279,3,3,3,3,-9.470000000000001,1.23,-2.1,-0.29,0.03,0
9.966200947761536,3,3,3,3,-9.5,1.23,-2.04,-0.28,0.06,0
9.976200938224792,3,3,3,3,-9.52,1.2,-2.06,-0.18,0.05,0.05
9.986200928688049,3,3,3,3,-9.5,1.19,-2.15,-0.18,0,0.09
9.996200919151306,3,3,3,3,-9.52,1.16,-2.09,-0.14,0.05,0.12
10.00620090961456,3,3,3,3,-9.51,1.14,-2.01,-0.1,-0.01,0.09
10.01620090007782,3,3,3,3,-9.5,1.16,-2,-0.01,0,0.09
10.02620089054108,3,3,3,3,-9.5,1.22,-1.93,-0.1,-0.01,0.1
10.03620088100433,3,3,3,3,-9.48,1.25,-2,-0.72,0.07000000000000001,0.19
10.04620087146759,3,3,3,3,-9.539999999999999,1.11,-2.06,-0.48,-0.01,0.22
10.05620086193085,3,3,3,3,-9.58,1.18,-2.06,-0.48,-0.01,0.22
10.0662008523941,3,3,3,3,-9.539999999999999,1.24,-1.93,-0.07000000000000001,0,-0.02
10.07620084285736,3,3,3,3,-9.51,1.13,-1.92,-0.17,0,0.01
10.0862010717392,3,3,3,3,-9.49,1.14,-2.08,-0.22,-0.03,0.06
10.09620106220245,3,3,3,3,-9.52,1.15,-2.03,-0.11,-0.07000000000000001,0.05
10.10620105266571,3,3,3,3,-9.56,1.17,-1.98,-0.11,-0.07000000000000001,0.05
10.11620104312897,3,3,3,3,-9.56,1.21,-1.92,-0.11,-0.12,-0.05
10.12620103359222,3,3,3,3,-9.470000000000001,1.22,-2.01,-0.08,0,-0.05
10.13620102405548,3,3,3,3,-9.470000000000001,1.24,-2.07,-0.07000000000000001,0.03,-0.03
10.14620101451874,3,3,3,3,-9.51,1.23,-2.01,-0.05,0.04,-0.04
10.15620100498199,3,3,3,3,-9.49,1.24,-1.99,-0.05,0.04,-0.04
10.16620099544525,3,3,3,3,-9.49,1.29,-2,-0.12,0.11,0.02
10.17620098590851,3,3,3,3,-9.51,1.24,-2.05,-0.13,0.08,-0.01
10.18620097637177,3,3,3,3,-9.51,1.26,-2.13,-0.08,0.07000000000000001,-0.03
10.19620096683502,3,3,3,3,-9.48,1.23,-2.12,-0.02,0.07000000000000001,-0.03
10.20620095729828,3,3,3,3,-9.48,1.26,-2.04,-0.02,0.07000000000000001,-0.03
10.21620094776154,3,3,3,3,-9.5,1.3,-2.03,0.03,0.14,0.02
10.22620093822479,3,3,3,3,-9.49,1.33,-2.04,0.07000000000000001,0.09,0.02
10.23620092868805,3,3,3,3,-9.49,1.35,-2.12,0.09,0.17,0.07000000000000001
10.24620091915131,3,3,3,3,-9.460000000000001,1.35,-2.1,0.07000000000000001,0.18,0.08
10.26620090007782,3,3,3,3,-9.470000000000001,1.29,-2.07,0.06,0.23,0.08
10.27620089054108,3,3,3,3,-9.470000000000001,1.27,-2.04,0.07000000000000001,0.22,0.1
10.28620088100433,3,3,3,3,-9.44,1.27,-2.2,0.17,0.21,0.13
10.29620087146759,3,3,3,3,-9.43,1.27,-2.11,0.2,0.19,0.17
10.30620086193085,3,3,3,3,-9.470000000000001,1.3,-2.09,0.2,0.19,0.17
10.3162008523941,3,3,3,3,-9.529999999999999,1.29,-2.09,0.21,0.22,0.18
10.32620084285736,3,3,3,3,-9.539999999999999,1.32,-2.12,0.26,0.22,0.17
10.3362010717392,3,3,3,3,-9.56,1.3,-2.17,0.08,0.21,0.05
10.34620106220245,3,3,3,3,-9.58,1.28,-2.13,-0.07000000000000001,0.16,-0.04
10.35620105266571,3,3,3,3,-9.58,1.24,-2.06,-0.07000000000000001,0.16,-0.04
10.36720097064972,3,3,3,3,-9.550000000000001,1.24,-2.01,-0.29,0.1,-0.35
10.37720096111298,3,3,3,3,-9.48,1.22,-1.95,-0.5,-0.01,-0.38
10.38720095157623,3,3,3,3,-9.4,1.1,-2.02,-0.52,-0.06,-0.38
10.39720094203949,3,3,3,3,-9.48,1.09,-1.98,-0.52,-0.18,-0.37
10.40720093250275,3,3,3,3,-9.51,1.16,-1.97,-0.52,-0.18,-0.37
10.417200922966,3,3,3,3,-9.52,1.22,-1.98,-0.55,-0.19,-0.38
10.42720091342926,3,3,3,3,-9.5,1.28,-1.98,-0.73,-0.16,-0.55
10.43720090389252,3,3,3,3,-9.43,1.28,-2.18,-0.76,-0.09,-0.5600000000000001
10.44720089435577,3,3,3,3,-9.460000000000001,1.29,-2.15,-0.77,-0.1,-0.6
10.45720088481903,3,3,3,3,-9.43,1.29,-2.12,-0.77,-0.1,-0.6
10.46720087528229,3,3,3,3,-9.449999999999999,1.31,-2.12,-0.74,-0.08,-0.53
10.47720086574554,3,3,3,3,-9.449999999999999,1.35,-2.1,-0.73,-0.09,-0.48
10.4872008562088,3,3,3,3,-9.460000000000001,1.37,-2.13,-0.79,-0.09,-0.42
10.49720084667206,3,3,3,3,-9.449999999999999,1.37,-2.08,-0.84,-0.05,-0.38
10.50720107555389,3,3,3,3,-9.460000000000001,1.36,-2.02,-0.84,-0.05,-0.38
10.51720106601715,3,3,3,3,-9.52,1.23,-1.96,-0.93,0.08,-0.38
10.52720105648041,3,3,3,3,-9.51,1.17,-1.98,-0.95,0.08,-0.39
10.53720104694366,3,3,3,3,-9.539999999999999,1.12,-2.07,-0.83,0.12,-0.35
10.54720103740692,3,3,3,3,-9.539999999999999,1.1,-2.04,-0.83,0.04,-0.32
10.55720102787018,3,3,3,3,-9.56,1.08,-1.99,-0.83,0.04,-0.32
10.56720101833344,3,3,3,3,-9.51,1.12,-1.93,-0.8,-0.04,-0.27
10.57720100879669,3,3,3,3,-9.470000000000001,1.11,-1.94,-0.82,-0.08,-0.31
10.58720099925995,3,3,3,3,-9.44,1.08,-1.98,-1.04,-0.17,-0.36
10.59720098972321,3,3,3,3,-9.49,1.01,-1.76,-1.34,-0.2,-0.38
10.60720098018646,3,3,3,3,-9.5,0.83,-1.7,-1.34,-0.2,-0.38
10.61720097064972,3,3,3,3,-9.57,0.62,-1.69,-1.37,-0.32,-0.45
10.62720096111298,3,3,3,3,-9.68,0.39,-1.59,-1.18,-0.57,-0.98
10.63720095157623,3,3,3,3,-9.74,0.12,-1.64,-1.08,-0.68,-1.26
10.64720094203949,3,3,3,3,-9.68,0.12,-1.7,-0.87,-0.77,-1.35
10.65720093250275,3,3,3,3,-9.710000000000001,0.12,-1.64,-0.87,-0.77,-1.35
10.667200922966,3,3,3,3,-9.800000000000001,0.04,-1.51,-0.75,-0.96,-1.47
10.67720091342926,3,3,3,3,-9.800000000000001,0.11,-1.49,-0.71,-1.4,-2.12
10.68720090389252,3,3,3,3,-9.91,0.2,-1.51,-1.45,-1.75,-2.94
10.69720089435577,3,3,3,3,-10.1,0.2,-1.47,-1.99,-2.21,-4.44
10.70720088481903,3,3,3,3,-10.58,-0.02,-1.44,-1.99,-2.21,-4.44
10.71720087528229,3,3,3,3,-10.46,0.35,-1.07,-1.35,-2.71,-6.38
10.72720086574554,3,3,3,3,-10.19,0.36,-1.01,0.02,-2.83,-8.99
10.7372008562088,3,3,3,3,-10.01,-0.26,-1.28,1.12,-3.45,-9.56
10.74720084667206,3,3,3,3,-9.859999999999999,-2.47,-1.98,1.95,-5.57,-9.34
10.75720107555389,3,3,3,3,-9.34,-2.36,-1.31,1.95,-5.57,-9.34
10.76720106601715,3,3,3,3,-8.630000000000001,-2.31,-0.24,0.67,-8.98,-6.48
10.77720105648041,3,3,3,3,-8.359999999999999,-2.57,-0.33,0.55,-11.74,-0.29
10.78720104694366,3,3,3,3,-8.140000000000001,-1.06,0.43,0.86,-9.869999999999999,0.55
10.79720103740692,3,3,3,3,-8.529999999999999,-1.31,-0.08,1.35,-7.41,-0.26
10.80720102787018,3,3,3,3,-9,-1.23,0.43,1.35,-7.41,-0.26
10.81720101833344,3,3,3,3,-9.1,-1.62,0.39,1.05,-6.8,-0.86
10.82720100879669,3,3,3,3,-8.82,-2.51,0.99,1.04,-5.4,-2.08
10.83720099925995,3,3,3,3,-9.16,-3.62,0.62,-2.35,-6.07,-3.66
10.84720098972321,3,3,3,3,-9.15,-2.49,2.7,-3.62,-8.58,-3.52
10.85720098018646,3,3,3,3,-8.949999999999999,-3.97,2.25,-3.62,-8.58,-3.52
10.86720097064972,3,3,3,3,-8.69,-4.28,2.84,-2.97,-9.32,-4.5
10.87720096111298,3,3,3,3,-8.4,-3.45,2.85,-3.45,-9.359999999999999,-7.04
10.88720095157623,3,3,3,3,-8.140000000000001,-2.44,1.86,-2.85,-8.07,-9.23
10.89720094203949,3,3,3,3,-8.390000000000001,-1.24,1.93,-4.09,-7.1,-10.31
10.90720093250275,3,3,3,3,-7.89,-0.29,1.13,-4.09,-7.1,-10.31
10.917200922966,3,3,3,3,-7.49,1.98,0.48,-4.34,-5.85,-10.36
10.92720091342926,3,3,3,3,-6.65,4.32,-0.31,-7.38,-4.21,-7.47
10.93720090389252,3,3,3,3,-6.32,5.48,-0.58,-7.92,-3.57,-5.42
10.94720089435577,3,3,3,3,-7.36,1.54,0.21,-8.81,-3.05,-3.44
10.95720088481903,3,3,3,3,-8.460000000000001,-0.33,0.63,-8.81,-3.05,-3.44
10.96720087528229,3,3,3,3,-9.58,-0.8100000000000001,0.3,-9.140000000000001,-2.76,-2.31
10.97720086574554,3,3,3,3,-10.31,-1.69,-0.05,-7.7,-2.79,-3.03
10.9872008562088,3,3,3,3,-11.1,-1.94,-1.67,-5.52,-3.04,-4.26
10.99720084667206,3,3,3,3,-10.88,-1.3,-2.5,-3.08,-3.23,-5.33
11.00720107555389,3,3,3,3,-10.19,-1.01,-2.78,-3.08,-3.23,-5.33
11.01720106601715,3,3,3,3,-9.43,0.18,-3.95,-1.35,-3.38,-5.98
11.02720105648041,3,3,3,3,-9.710000000000001,0.27,-4.06,0.79,-4.01,-5.83
11.03720104694366,3,3,3,3,-10.24,0.9399999999999999,-3.93,1.26,-3.78,-5.15
11.04720103740692,3,3,3,3,-10.6,1.18,-4.32,2.03,-3.88,-4.91
11.05720102787018,3,3,3,3,-11.53,0.24,-3.65,2.03,-3.88,-4.91
11.06720101833344,3,3,3,3,-11.51,0.22,-3.16,2.44,-3.42,-4.5
11.07720100879669,3,3,3,3,-12.07,0.61,-2.14,3.32,-0.05,-4.43
11.08720099925995,3,3,3,3,-11.62,2.91,-1.22,2.69,-1.02,-4.33
11.09720098972321,3,3,3,3,-11.66,3.52,-1.29,2.22,-1.13,-4.08
11.10720098018646,3,3,3,3,-11.66,3.52,-1.29,2.22,-1.13,-4.08
11.11720097064972,3,3,3,3,-11.89,3.88,-1.73,1.46,-1.28,-3.67
11.12720096111298,3,3,3,3,-13.95,7.02,-3.12,0.41,-0.43,-3.28
11.13720095157623,3,3,3,3,-13.94,8.34,-3.16,0.49,-0.15,-2.65
11.14720094203949,3,3,3,3,-13.81,8.800000000000001,-2.73,0.28,0.26,-1.1
11.15720093250275,3,3,3,3,-13.81,8.800000000000001,-2.73,0.28,0.26,-1.1
11.167200922966,3,3,3,3,-14.39,8.380000000000001,-2.22,-0.13,1.89,1.62
11.17720091342926,3,3,3,3,-20.49,3.26,-1.69,-0.96,5.75,7.05
11.18720090389252,3,3,3,3,-22.71,1.65,-1.26,-0.41,6.27,7.02
11.19720089435577,3,3,3,3,-24.6,1.74,-0.9,0.95,5.75,6.02
11.20720088481903,3,3,3,3,-24.6,1.74,-0.9,0.95,5.75,6.02
11.21720087528229,3,3,3,3,-24.83,6.17,-0.7,2.83,3.39,6.39
11.22720086574554,3,3,3,3,-20.43,7.78,-0.64,5.07,-0.86,8.69
11.2372008562088,3,3,3,3,-20.02,6.85,0.44,5.05,2.54,10.33
11.24720084667206,3,3,3,3,-22.93,2.24,1.94,3.38,3.22,10.92
11.25720107555389,3,3,3,3,-22.93,2.24,1.94,1.94,2.61,10.97
11.26720106601715,3,3,3,3,-24.93,-0.74,2.59,0.6899999999999999,-0.2,10.63
11.27720105648041,3,3,3,3,-25.81,-5.28,2.31,0.5600000000000001,-4.83,9.949999999999999
11.28720104694366,3,3,3,3,-18.28,-6.59,-0.61,2.64,-5.96,8.529999999999999
11.29720103740692,3,3,3,3,-13.34,-5.89,-1.6,6.01,-2.82,5.95
11.30720102787018,3,3,3,3,-13.34,-5.89,-1.6,8.17,6.06,2.58
11.31720101833344,3,3,3,3,-8.529999999999999,-4.25,-1.39,8.130000000000001,19.08,-1.3
11.32720100879669,3,3,3,3,-2.52,-5.21,2.58,7.79,23.28,-3.26
11.33720099925995,3,3,3,3,-0.34,-11.97,4.08,4.76,20.34,-3.68
11.34720098972321,3,3,3,3,0.62,-20.62,1.15,-0.58,14.82,-5.89
11.35720098018646,3,3,3,3,0.62,-20.62,1.15,7.13,3.06,-3.12
11.36720097064972,3,3,3,3,-1.03,-19.62,7.29,4.68,-8.93,0.67
11.37720096111298,3,3,3,3,-0.41,-1.33,3.51,8.16,-14.85,4.43
11.38820087909698,3,3,3,3,-0.31,3.14,5.99,0.2,-14.32,3.3
11.39820086956024,3,3,3,3,-1.46,4,2.86,-6.44,-9.51,2.48
11.4082008600235,3,3,3,3,-1.46,4,2.86,-8.029999999999999,-3.85,0.63
11.41820085048676,3,3,3,3,-2.11,3.48,2.32,-6.84,-0.85,-2.95
11.42820107936859,3,3,3,3,-0.21,3.7,-0.01,-6.93,1.54,-6.46
11.43820106983185,3,3,3,3,1.17,3.03,-2.05,-9.24,3.76,-8.49
11.4482010602951,3,3,3,3,1.21,2.26,-2.8,-9.949999999999999,4.32,-7.38
11.45820105075836,3,3,3,3,1.21,2.26,-2.8,-9.949999999999999,4.32,-7.38
11.46820104122162,3,3,3,3,1.13,1.36,-3.17,-6.08,3.22,-1.66
11.47820103168488,3,3,3,3,0.16,-0.36,-3.52,-3.66,2.58,-0.9399999999999999
11.48820102214813,3,3,3,3,0.09,0.42,-3.13,-0.42,1.87,-1.25
11.49820101261139,3,3,3,3,0.22,0.96,-2.3,1.2,1.83,-1.83
11.50820100307465,3,3,3,3,0.22,0.96,-2.3,1.08,1.86,-1.8
11.5182009935379,3,3,3,3,0.24,1.07,-1.56,0.64,2,-1.39
11.52820098400116,3,3,3,3,-0.47,0.04,0.15,-0.57,2.03,-1.2
11.53820097446442,3,3,3,3,-0.65,-0.93,0.63,-0.66,2.13,-1.13
11.54820096492767,3,3,3,3,-0.68,-1.89,0.99,-0.22,2.39,-0.96
11.55820095539093,3,3,3,3,-0.68,-1.89,0.99,1.34,2.73,-0.42
11.56820094585419,3,3,3,3,-0.55,-3.27,1.62,2.36,2.76,0.24
11.57820093631744,3,3,3,3,-0.41,-4.99,1.93,3.66,2.34,1.12
11.5882009267807,3,3,3,3,-0.66,-5.6,2.49,4.1,1.61,1.65
11.59820091724396,3,3,3,3,-1.57,-7.33,2.23,4.12,0.5600000000000001,1.84
11.60820090770721,3,3,3,3,-1.57,-7.33,2.23,5.58,-1.47,1.64
11.61820089817047,3,3,3,3,-2.2,-7.66,2.24,6.55,-4.83,1.16
11.62820088863373,3,3,3,3,-2.13,-5.24,2.76,5.4,-7.66,1.04
11.63820087909698,3,3,3,3,-2.26,-7.74,8.59,-0.9399999999999999,-10.9,1.72
11.64820086956024,3,3,3,3,-5.21,-14.47,15.76,-13.46,-15.51,2.18
11.6582008600235,3,3,3,3,-5.21,-14.47,15.76,-19.28,-15.6,0.43
11.66820085048676,3,3,3,3,-5.11,-20.31,3.82,-6.97,-9.140000000000001,-1.32
11.67820107936859,3,3,3,3,-26.6,15.34,8.039999999999999,-8.99,-3.32,2.07
11.68820106983185,3,3,3,3,-39.08,-5.76,-4.63,-29.96,15.17,0.07000000000000001
11.6982010602951,3,3,3,3,-39.25,-6.48,-4.93,-11.21,35.12,-12.37
11.70820105075836,3,3,3,3,-39.25,-6.48,-4.93,-3.38,-28.34,-9.57
11.71820104122162,3,3,3,3,-16.1,6.97,-3.81,-10.59,-52.63,1.05
11.72820103168488,3,3,3,3,-0.17,3.89,-7.94,-10.6,5.04,-3.59
11.73820102214813,3,3,3,3,-14.54,4.75,-3.51,-1.3,21.18,-5.79
11.74820101261139,3,3,3,3,-30.21,10.05,-8.960000000000001,-0.83,11.4,1.1
11.75820100307465,3,3,3,3,-30.21,10.05,-8.960000000000001,3.75,20.09,1.9
11.7682009935379,3,3,3,3,-32.07,18.08,-10.19,3.91,5.06,7.68
11.77820098400116,3,3,3,3,-20.79,17,-7.46,0.44,-34.63,11.77
11.78820097446442,3,3,3,3,-4.42,7.17,-3.88,3.48,-19.7,8.92
11.79820096492767,3,3,3,3,-11.45,4.07,-0.85,5.54,18.4,0.15
11.80820095539093,3,3,3,3,-16.64,0.74,-0.43,3.41,8.6,2.16
11.81820094585419,3,3,3,3,-16.96,-0.98,-0.68,1.9,1.47,6.27
11.82820093631744,3,3,3,3,-21.39,1.2,0.22,4.43,7.64,4.2
11.8382009267807,3,3,3,3,-16.1,0.53,0.87,5.41,-2.09,3.93
11.84820091724396,3,3,3,3,-9.82,0.49,1.5,5.71,-3.49,5.7
11.85820090770721,3,3,3,3,-7.58,0.62,1.65,6.2,3.18,5.86
11.86820089817047,3,3,3,3,-6.45,1.64,1.36,6.16,4.16,4.87
11.87820088863373,3,3,3,3,-5.95,1.73,1.03,5.56,4.17,4.06
11.88820087909698,3,3,3,3,-5.84,1.54,0.13,5.03,4.54,3.79
11.89820086956024,3,3,3,3,-5.56,0.77,0.53,3.12,4.6,4.05
11.9082008600235,3,3,3,3,-6.36,0.26,-1.05,2.4,4.26,4.28
11.91820085048676,3,3,3,3,-5.99,0.42,-0.6899999999999999,2.26,5.01,5.11
11.92820107936859,3,3,3,3,-6.9,0.23,-0.96,1.39,5.85,5.11
11.93820106983185,3,3,3,3,-6.45,0.78,-1.59,1.19,8.49,4.49
11.9482010602951,3,3,3,3,-6.6,0.01,-1.01,0.72,7.67,4.1
11.95820105075836,3,3,3,3,-6.15,-0.9399999999999999,-1.49,-0.5,5.79,3.69
11.96820104122162,3,3,3,3,-6.92,-1.93,-1.13,-1.55,5.66,2.16
11.97820103168488,3,3,3,3,-6.96,-2.73,-2.36,0.12,4.55,1.63
11.98820102214813,3,3,3,3,-7.2,-1.72,-0.26,1.58,4.99,2.53
11.99820101261139,3,3,3,3,-8.050000000000001,-1.87,-1.29,0.57,5.41,3.12
12.00820100307465,3,3,3,3,-9.01,-1.79,-1.05,2.16,5.03,3.08
12.0182009935379,3,3,3,3,-10.43,-1.06,-0.12,2.51,4.36,2.83
12.02820098400116,3,3,3,3,-10.95,-0.85,0.37,3.11,3.39,2.8
12.03820097446442,3,3,3,3,-11.84,-1.49,0.92,2.72,2.64,2.67
12.04820096492767,3,3,3,3,-13.35,-1.66,2.08,5.04,1.17,2.56
12.05820095539093,3,3,3,3,-14.38,-0.41,2.74,5.47,-0.82,2.09
12.06820094585419,3,3,3,3,-12.94,-0.07000000000000001,1.79,5.13,-1.57,1.93
12.07820093631744,3,3,3,3,-11.25,0.28,1.22,3.94,-0.43,1.97
12.0882009267807,3,3,3,3,-9.77,0.44,0.46,2.69,1.7,1.62
12.09820091724396,3,3,3,3,-8.67,0.8,-0.66,1.39,3.83,0.36
12.10820090770721,3,3,3,3,-8.74,0.91,-1.49,-0.8100000000000001,4.81,-0.53
12.11820089817047,3,3,3,3,-8.98,1.15,-1.69,-2.69,4.76,-0.24
12.12820088863373,3,3,3,3,-9.17,1.36,-1.6,-3.94,4.32,0.28
12.13820087909698,3,3,3,3,-9.85,0.9,-1.3,-3.82,3.9,-0.01
12.14820086956024,3,3,3,3,-9.18,1.09,-0.62,-3.09,3.03,-0.59
12.1582008600235,3,3,3,3,-8.77,0.8,-0.26,-4.01,1.98,0.37
12.16820085048676,3,3,3,3,-9.710000000000001,0.5,-0.9399999999999999,-3.7,2.13,-0.44
12.17820107936859,3,3,3,3,-9.619999999999999,-0.11,-1.06,-4.21,1.49,-1.45
12.18820106983185,3,3,3,3,-9.16,-0.6,-1.71,-3.94,0.75,-1.8
12.1982010602951,3,3,3,3,-8.93,-0.47,-1.33,-2.59,0.77,-1.62
12.20820105075836,3,3,3,3,-9.119999999999999,-0.79,-1.84,-1.57,0.77,-1.47
12.21820104122162,3,3,3,3,-9.59,-0.46,-1.92,0.33,0.31,-1.15
12.22820103168488,3,3,3,3,-9.640000000000001,-0.27,-1.98,1.45,-0.32,-0.71
12.23820102214813,3,3,3,3,-9.73,0.14,-1.61,2.94,-0.51,-0.49
12.24820101261139,3,3,3,3,-9.67,0.46,-1.17,3.17,-0.47,-0.44
12.25820100307465,3,3,3,3,-9.65,0.93,-0.99,3.1,-0.14,-0.34
12.2682009935379,3,3,3,3,-9.800000000000001,0.96,-0.93,2.62,0.17,-0.28
12.27820098400116,3,3,3,3,-9.880000000000001,0.84,-1.16,1.62,0.21,-0.26
12.28820097446442,3,3,3,3,-10.06,0.85,-1.14,1.22,0.26,-0.32
12.29820096492767,3,3,3,3,-10.12,0.93,-1.19,0.82,0.19,-0.48
12.30820095539093,3,3,3,3,-9.93,0.97,-1.21,0.53,0.27,-0.6
12.31820094585419,3,3,3,3,-9.710000000000001,0.88,-1.36,0.1,0.59,-0.63
12.32820093631744,3,3,3,3,-9.48,0.76,-1.71,0.1,0.59,-0.63
12.3382009267807,3,3,3,3,-9.300000000000001,0.61,-1.93,-0.37,1.22,-0.26
12.34820091724396,3,3,3,3,-9.25,0.53,-1.87,-0.3,1.48,0.08
12.35820090770721,3,3,3,3,-9.300000000000001,0.42,-1.97,-0.23,1.63,0.26
12.36820089817047,3,3,3,3,-9.42,0.61,-1.93,-0.23,1.63,0.26
12.37820088863373,3,3,3,3,-9.449999999999999,0.55,-2.06,0.08,1.44,0.29
12.38820087909698,3,3,3,3,-9.43,0.43,-1.89,0.45,0.82,0.35
12.39820086956024,3,3,3,3,-9.5,0.5,-1.45,0.71,0.6899999999999999,0.45
12.40920102596283,3,3,3,3,-9.65,0.3,-1.39,0.49,0.62,0.34
12.41920101642609,3,3,3,3,-9.619999999999999,0.33,-1.31,0.49,0.62,0.34
12.42920100688934,3,3,3,3,-9.52,0.31,-1.4,0.32,0.45,0.22
12.4392009973526,3,3,3,3,-9.52,0.31,-1.35,0.07000000000000001,1.04,0.26
12.44920098781586,3,3,3,3,-9.85,0.18,-1.47,-0.02,1.26,0.23
12.45920097827911,3,3,3,3,-9.970000000000001,0.16,-1.51,-0.04,1.32,0.23
12.46920096874237,3,3,3,3,-9.91,0.09,-1.6,-0.04,1.32,0.23
12.47920095920563,3,3,3,3,-9.77,0,-1.68,-0.11,1.04,0.27
12.48920094966888,3,3,3,3,-9.74,-0.22,-1.79,0.02,0.97,0.42
12.49920094013214,3,3,3,3,-9.68,-0.17,-1.68,-0.01,0.8,0.5
12.5092009305954,3,3,3,3,-9.57,-0.07000000000000001,-1.61,0.36,0.2,0.5600000000000001
12.51920092105865,3,3,3,3,-9.57,-0.02,-1.75,0.36,0.2,0.5600000000000001
12.52920091152191,3,3,3,3,-9.66,0.41,-1.79,0.54,0.03,0.47
12.53920090198517,3,3,3,3,-9.640000000000001,0.5,-1.83,0.99,0.01,0.32
12.54920089244843,3,3,3,3,-9.58,0.58,-1.77,1.15,0.05,0.23
12.55920088291168,3,3,3,3,-9.5,0.62,-1.77,1.34,0.12,0.54
12.56920087337494,3,3,3,3,-9.470000000000001,0.53,-1.98,1.34,0.12,0.54
12.5792008638382,3,3,3,3,-9.630000000000001,0.59,-2.17,1.45,0.18,0.89
12.58920085430145,3,3,3,3,-9.720000000000001,0.84,-2.15,1.46,0.29,1.1
12.59920084476471,3,3,3,3,-9.720000000000001,1.06,-1.87,1.63,0.28,1.04
12.60920107364655,3,3,3,3,-9.66,1.09,-1.8,1.67,0.36,0.83
12.6192010641098,3,3,3,3,-9.58,1.18,-1.64,1.67,0.36,0.83
12.62920105457306,3,3,3,3,-9.460000000000001,1.13,-1.68,1.85,0.34,0.76
12.63920104503632,3,3,3,3,-9.470000000000001,1.06,-1.69,1.74,0.35,0.76
12.64920103549957,3,3,3,3,-9.550000000000001,0.82,-1.64,1.61,0.38,0.86
12.65920102596283,3,3,3,3,-9.68,0.67,-1.74,1.25,0.25,0.93
12.66920101642609,3,3,3,3,-9.75,0.65,-1.7,1.25,0.25,0.93
12.67920100688934,3,3,3,3,-9.76,0.61,-1.73,1.29,0.15,0.79
12.6892009973526,3,3,3,3,-9.73,0.57,-1.87,1.36,0.14,0.71
12.69920098781586,3,3,3,3,-9.720000000000001,0.65,-1.78,1.38,0.13,0.58
12.70920097827911,3,3,3,3,-9.6,0.8100000000000001,-1.56,1.45,-0.02,0.42
12.71920096874237,3,3,3,3,-9.529999999999999,0.86,-1.65,1.49,-0.08,0.36
12.72920095920563,3,3,3,3,-9.57,0.97,-1.73,1.34,0,0.24
12.73920094966888,3,3,3,3,-9.640000000000001,1.04,-1.71,1.12,0.05,0.17
12.74920094013214,3,3,3,3,-9.66,1.03,-1.6,0.74,-0.11,0.17
12.7592009305954,3,3,3,3,-9.640000000000001,0.95,-1.66,0.39,-0.1,0.14
12.76920092105865,3,3,3,3,-9.539999999999999,0.87,-1.62,0.1,-0.02,0.17
12.77920091152191,3,3,3,3,-9.5,0.72,-1.78,-0.05,0.02,0.12
12.78920090198517,3,3,3,3,-9.52,0.64,-1.82,-0.34,0.1,0.09
12.79920089244843,3,3,3,3,-9.449999999999999,0.59,-1.56,-0.57,-0.04,0.1
12.80920088291168,3,3,3,3,-9.51,0.5600000000000001,-1.54,-0.5,-0.14,0.14
12.81920087337494,3,3,3,3,-9.6,0.42,-1.45,-0.54,-0.09,0.05
12.8292008638382,3,3,3,3,-9.6,0.25,-1.46,-0.73,-0.2,-0.05
12.83920085430145,3,3,3,3,-9.720000000000001,-0.26,-1.36,-1.02,-0.28,-0.13
12.84920084476471,3,3,3,3,-9.789999999999999,-0.4,-1.29,-1.14,-0.44,-0.17
12.85920107364655,3,3,3,3,-9.94,-0.44,-1.3,-0.9399999999999999,-0.66,-0.24
12.8692010641098,3,3,3,3,-9.99,-0.23,-1.18,-0.8100000000000001,-1.01,-0.4
12.87920105457306,3,3,3,3,-9.85,0.1,-1.2,-0.49,-1.53,-0.51
12.88920104503632,3,3,3,3,-9.83,0.31,-1.33,-0.34,-1.74,-0.64
12.89920103549957,3,3,3,3,-9.73,0.55,-1.34,-0.26,-1.76,-0.74
12.90920102596283,3,3,3,3,-9.58,0.71,-1.49,-0.29,-1.8,-0.73
12.91920101642609,3,3,3,3,-9.470000000000001,0.8100000000000001,-1.76,-0.36,-1.65,-0.62
12.92920100688934,3,3,3,3,-9.390000000000001,0.8100000000000001,-1.95,-0.23,-1.49,-0.52
12.9392009973526,3,3,3,3,-9.33,0.75,-2,-0.29,-1.37,-0.41
12.94920098781586,3,3,3,3,-9.34,0.61,-1.97,-0.24,-1.28,-0.29
12.95920097827911,3,3,3,3,-9.34,0.23,-1.71,-0.09,-1.21,-0.19
12.96920096874237,3,3,3,3,-9.4,-0.06,-1.65,0.14,-1.27,-0.12
12.97920095920563,3,3,3,3,-9.630000000000001,-0.17,-1.69,0.31,-1.31,-0.07000000000000001
12.98920094966888,3,3,3,3,-9.75,0.11,-1.13,0.47,-1.76,-0.19
12.99920094013214,3,3,3,3,-9.630000000000001,-0.3,-0.6899999999999999,0.59,-2.72,-0.37
13.0092009305954,3,3,3,3,-9.58,-0.44,-0.31,0.26,-3.2,-0.62
13.01920092105865,3,3,3,3,-9.4,-0.7,-0.1,0.59,-3.78,-1.06
13.02920091152191,3,3,3,3,-9.4,-1.15,-0.11,0.67,-4.33,-1.35
13.03920090198517,3,3,3,3,-9.52,-2.29,0.41,0.76,-4.79,-1.52
13.04920089244843,3,3,3,3,-9.630000000000001,-2.82,0.66,0.59,-5.63,-1.64
13.05920088291168,3,3,3,3,-9.720000000000001,-3.08,1.02,0.15,-6.38,-1.85
13.06920087337494,3,3,3,3,-9.890000000000001,-4.01,1.02,-0.36,-7.14,-2.08
13.0792008638382,3,3,3,3,-9.970000000000001,-2.38,1.87,-0.84,-7.91,-2.45
13.08920085430145,3,3,3,3,-9.51,-1.79,3.02,-2.24,-8.52,-3.97
13.09920084476471,3,3,3,3,-9.06,-2.55,2.73,-4.93,-9.119999999999999,-4.64
13.10920107364655,3,3,3,3,-8.98,-2.77,3.22,-5.11,-8.279999999999999,-5.12
13.1192010641098,3,3,3,3,-8.84,-2.78,3.06,-6.36,-7.52,-5.92
13.12920105457306,3,3,3,3,-8.67,-2.43,2.27,-7.09,-7.95,-6.15
13.13920104503632,3,3,3,3,-8.33,-1.62,1.84,-7.27,-7.87,-6.14
13.14920103549957,3,3,3,3,-8.33,-1.76,0.34,-6.59,-7.15,-5.61
13.15920102596283,3,3,3,3,-8.550000000000001,-0.24,0.45,-6.26,-6.03,-5.31
13.16920101642609,3,3,3,3,-8.779999999999999,0.09,0.67,-5.71,-5.47,-5.45
13.17920100688934,3,3,3,3,-8.58,0.54,0.17,-5.23,-5.35,-6.38
13.1892009973526,3,3,3,3,-8.279999999999999,0.23,-0.33,-5.35,-5.12,-7.53
13.19920098781586,3,3,3,3,-8.140000000000001,0.91,-0.92,-5.38,-5.39,-7.82
13.20920097827911,3,3,3,3,-8.289999999999999,1.01,-1.97,-5.76,-4.91,-7.49
13.21920096874237,3,3,3,3,-8.56,0.39,-2.33,-5.45,-2.97,-6.62
13.22920095920563,3,3,3,3,-8.52,-0.7,-2.37,-2.38,-2.68,-6.32
13.23920094966888,3,3,3,3,-8.609999999999999,-0.83,-1.93,-0.96,-2.98,-6
13.24920094013214,3,3,3,3,-8.789999999999999,-0.46,-2,-0.23,-4.42,-5.33
13.2592009305954,3,3,3,3,-9.17,-0.18,-1.97,-0.08,-5.31,-4.53
13.26920092105865,3,3,3,3,-10.79,-1.03,-2.15,-0.07000000000000001,-4.53,-4.19
13.27920091152191,3,3,3,3,-11.15,-0.34,-2.43,0.6899999999999999,-2.3,-5.1
13.28920090198517,3,3,3,3,-11.08,0.21,-2.02,1.41,-2.34,-6.14
13.29920089244843,3,3,3,3,-10.92,0.78,-1.41,1.77,-2.7,-6.48
13.30920088291168,3,3,3,3,-10.39,3.25,-2.25,1.28,-3.47,-5.97
13.31920087337494,3,3,3,3,-10.16,4.51,-2.23,0.2,-4.74,-5.46
13.3292008638382,3,3,3,3,-10.55,5.07,-1.89,-0.4,-3.42,-5.24
13.33920085430145,3,3,3,3,-11.08,5.67,-2.33,-0.6,-0.73,-4.85
13.34920084476471,3,3,3,3,-11.97,6.72,-3.58,-1.06,-0.49,-4.3
13.35920107364655,3,3,3,3,-12.84,7.65,-4.49,-2.17,-0.66,-3.29
13.3692010641098,3,3,3,3,-13.79,7.71,-4.48,-2.09,0.22,-2.36
13.37920105457306,3,3,3,3,-14.72,6.82,-4.23,-1.71,0.65,-1.17
13.38920104503632,3,3,3,3,-18.91,5.55,-3.69,-1.79,2.53,1.8
13.39920103549957,3,3,3,3,-21.36,4.66,-2.55,-1.47,4.59,4.86
13.40920102596283,3,3,3,3,-23.79,4.66,-2.56,-0.48,5.82,6.67
13.41920101642609,3,3,3,3,-26.9,6.49,-2.36,1,6.58,7.48
13.42920100688934,3,3,3,3,-26.96,7.2,-1.97,2.62,5.58,6.76
13.44020092487335,3,3,3,3,-26.15,7.67,-0.71,3.53,3.42,5.46
13.45020091533661,3,3,3,3,-25.31,7.66,1.31,4.31,1.88,4.88
13.46020090579987,3,3,3,3,-25.34,6.66,2.36,3.49,1.37,6.27
13.47020089626312,3,3,3,3,-25.74,5.08,3.1,2.78,0.46,8.76
13.48020088672638,3,3,3,3,-26,2.32,3.74,2.34,-0.32,10.03
13.49020087718964,3,3,3,3,-24.57,-0.66,4.07,1.94,-2.41,9.23
13.50020086765289,3,3,3,3,-17.98,-4.52,2.28,1.27,-5.51,8.32
13.51020085811615,3,3,3,3,-14.07,-5.26,0.9399999999999999,1.4,-5.87,7.87
13.52020084857941,3,3,3,3,-9.59,-4.82,-0.52,1.98,-3.09,7.13
13.53020107746124,3,3,3,3,-6.05,-2.82,-1.17,2.49,5.02,5.66
13.5402010679245,3,3,3,3,-2.42,-4.07,0.54,2.8,17.74,2.42
13.55020105838776,3,3,3,3,-1.35,-9.699999999999999,1.92,3.64,24.37,-0.21
13.56020104885101,3,3,3,3,-0.47,-15.71,1.4,3.04,24.8,-2.29
13.57020103931427,3,3,3,3,0,-21.45,0.41,0.65,20.56,-4.8
13.58020102977753,3,3,3,3,1.08,-19.74,3.88,2.21,9.890000000000001,-5.44
13.59020102024078,3,3,3,3,1.2,-11.98,0.97,6.54,-1.96,-1.23
13.60020101070404,3,3,3,3,1.96,-3.54,1.42,10.31,-8.92,3
13.6102010011673,3,3,3,3,1.6,2.06,3.88,8.85,-12.63,5.92
13.62020099163055,3,3,3,3,-2.43,4.03,2.94,0.05,-10.17,7.44
13.63020098209381,3,3,3,3,-3.06,3.5,2.64,-3.29,-6.04,5.93
13.64020097255707,3,3,3,3,-2.57,3.42,1.6,-2.48,-2.51,1.2
13.65020096302032,3,3,3,3,-1.3,4,0.5,-2.66,-0.55,-3.6
13.66020095348358,3,3,3,3,0.09,3.95,-1.77,-3.23,1.23,-5.94
13.67020094394684,3,3,3,3,-0.02,3.12,-3.2,-5.84,3.25,-5.73
13.6802009344101,3,3,3,3,-0.11,2.1,-4.1,-6.27,4.01,-3.99
13.69020092487335,3,3,3,3,0.52,0.82,-3.14,-3.41,3.2,-2.89
13.70020091533661,3,3,3,3,0.71,-0.4,-3.11,-2.62,2.93,-1.37
13.71020090579987,3,3,3,2,0.31,-0.13,-2.36,-1.5,3.47,-0.85
13.72020089626312,3,3,3,2,-0.05,0.29,-1.39,0.58,3.03,-1.08
13.73020088672638,3,3,3,2,-0.37,0.23,0.05,1.73,2.22,-1.51
13.74020087718964,3,3,3,2,-0.64,-0.09,0.86,1.32,1.5,-1.53
13.75020086765289,3,3,3,2,-0.83,-0.39,1.48,0.52,1.39,-1.53
13.76020085811615,3,3,3,2,-0.85,-1.06,1.56,-0.79,1.47,-1.53
13.77020084857941,3,3,3,2,-0.47,-3.11,1.42,-1.59,1.76,-1.37
13.78020107746124,3,3,3,2,-0.65,-4,1.6,-0.86,2.12,-1.1
13.7902010679245,3,3,3,2,-1.11,-4.26,2.08,0.39,2.45,-1.08
13.80020105838776,3,3,3,2,-1.3,-4.53,2.56,1.2,1.91,-1.56
13.81020104885101,3,3,3,2,-0.84,-4.3,3.01,2.09,0.11,-1.51
13.82020103931427,3,3,3,2,-0.5,-4.69,3,2.03,-1.13,-1.18
13.83020102977753,3,3,3,2,-0.77,-4.53,2.94,1.89,-2.1,-0.18
13.84020102024078,3,3,3,2,-1.26,-4.4,1.91,1.49,-2.86,0.04
13.85020101070404,3,3,3,2,-2.63,-8.94,11.8,1.74,-4.5,-1.08
13.8602010011673,3,3,3,2,-5.65,-27.6,16.92,-0.61,-8.57,-0.88
13.87020099163055,3,3,3,2,-7.3,-33.79,-7.16,-23.17,-16.15,-2.43
13.88020098209381,3,3,3,2,-7.25,7.4,7.58,-6.16,-20.52,-3.92
13.89020097255707,3,3,3,2,-25.02,22.85,7.68,1.96,-16.21,1.41
13.90020096302032,3,3,3,2,-37.82,2.86,-3.42,-6.01,-1.76,12.78
13.91020095348358,3,3,3,2,-39.25,-4.26,-7.71,-28.07,23.56,5.52
13.92020094394684,3,3,3,2,-37.49,1.38,-8.699999999999999,-14.14,25.65,-12.33
13.9302009344101,3,3,3,2,-5.41,-5.84,6.66,-2.19,-34.19,-12.76
13.94020092487335,3,3,3,2,-13.08,-9.67,6.65,-18.28,-31.08,-5.86
13.95020091533661,3,3,3,2,-32.79,-7.56,4.7,-17.27,10.47,-10.12
13.96020090579987,3,3,3,2,-39.25,0.52,-3.74,-9.06,18.61,-6.03
13.97020089626312,3,3,3,2,-21.95,20.87,-5.57,-1.48,7.06,4.28
13.98020088672638,3,3,3,2,-12.16,29.55,-4.78,-2.25,-20.41,1.51
13.99020087718964,3,3,3,2,-9.779999999999999,30.08,-6.35,-4.17,-23.65,3.61
14.00020086765289,3,3,3,2,-8.16,21.73,-9.109999999999999,-2.46,-2.16,-5
14.01020085811615,3,3,3,2,-2.17,9.49,-6.84,-2.93,-3.63,-0.88
14.02020084857941,3,3,3,2,-2.21,4.86,-8.949999999999999,-4.9,-9.93,3.78
14.03020107746124,3,3,3,2,-5.96,2.02,-7.31,-8.4,6.15,5.89
14.0402010679245,3,3,3,2,-9.75,-0.6,-6.91,-10.27,12.17,7.33
14.05020105838776,3,3,3,2,-15.7,-3.57,-7.05,-12.7,7.98,9.83
14.06020104885101,3,3,3,2,-18.37,-5,-6.58,-9.800000000000001,6.91,8.94
14.07020103931427,3,3,3,2,-18.46,-5.06,-5.77,-3.75,8.19,3.67
14.08020102977753,3,3,3,2,-10.13,-3.14,-3.58,1.96,2.82,0.35
14.09020102024078,3,3,3,2,-5.93,-4,-0.23,8.4,-0.97,2.11
14.10020101070404,3,3,3,2,-4.98,-3.53,-0.51,10.76,-0.17,4.54
14.1102010011673,3,3,3,2,-5.91,-1.86,1.34,11.61,5.84,7.13
14.12020099163055,3,3,3,2,-6.29,0,1.61,13.04,5.87,6.75
14.13020098209381,3,3,3,2,-6.17,0.91,1.38,14.21,3.82,5.72
14.14020097255707,3,3,3,2,-6.44,2.03,1.4,13.47,4.98,4.96
14.15020096302032,3,3,3,2,-6.83,2.52,1.13,12.22,6.93,4.49
14.16020095348358,3,3,3,2,-7.19,2.26,0.57,10.21,8.220000000000001,4.17
14.17020094394684,3,3,3,2,-7.62,1.12,0.46,8.65,9.75,4.02
14.1802009344101,3,3,3,2,-7.57,-0.03,0.54,7.67,10.79,4.27
14.19020092487335,3,3,3,2,-7.54,-0.72,0.99,6.04,10.34,4.93
14.20020091533661,3,3,3,2,-8.130000000000001,-3.58,-0.11,3.77,10.7,4.41
14.21020090579987,3,3,3,2,-8.609999999999999,-3.79,1.38,3.28,8.82,3.85
14.22020089626312,3,3,3,2,-10.1,-3.41,2.8,2.96,6.17,3.48
14.23020088672638,3,3,3,2,-11.79,-3,3.32,3.09,4.18,3.99
14.24020087718964,3,3,3,2,-13.59,-1.77,3.09,3.7,2.14,4.21
14.25020086765289,3,3,3,2,-13.76,-1.57,2.77,3.27,0.95,4.62
14.26020085811615,3,3,3,2,-13.26,-1.68,2.31,2.07,1.51,4.31
14.27020084857941,3,3,3,2,-11.57,-1.47,1.98,0.89,2.7,2.62
14.28020107746124,3,3,3,2,-7.93,-2.17,0.3,-1.16,2.7,1.22
14.2902010679245,3,3,3,2,-7.61,-2.66,-0.8100000000000001,-3.16,2.91,1.76
14.30020105838776,3,3,3,2,-9.69,-2.44,-0.82,-3.73,3.48,4.15
14.31020104885101,3,3,3,2,-12.91,-1.14,-2.31,-3.08,4.74,3.34
14.32020103931427,3,3,3,2,-8.800000000000001,-0.79,-1.16,1.74,3.37,-1.11
14.33020102977753,3,3,3,2,-9.109999999999999,-0.06,-1.69,1.82,-0.29,0.22
14.34020102024078,3,3,3,2,-9.609999999999999,-0.2,-1.75,0.91,0.03,0.76
14.35020101070404,3,3,3,2,-9.619999999999999,0.76,-1.39,2.51,-0.8,0.19
14.3602010011673,3,3,3,2,-8.789999999999999,1.72,-1.25,3.67,-1.25,-0.3
14.37020099163055,3,3,3,2,-8.84,2.48,-1.11,2.97,-1.14,0.02
14.38020098209381,3,3,3,2,-9.06,2.25,-1.14,2.5,-0.55,0.66
14.39020097255707,3,3,3,2,-9.26,2.28,-1.68,0.24,-0.2,0.86
14.40020096302032,3,3,3,2,-9.77,2.22,-1.91,-1.58,-0.06,1.02
14.41020095348358,3,3,3,2,-9.800000000000001,1.74,-2.15,-2.95,0.77,0.45
14.42020094394684,3,3,3,2,-9.369999999999999,1.14,-2.17,-3.52,1.43,-0.33
14.4302009344101,3,3,3,2,-9.300000000000001,0.49,-2.3,-3.16,1.71,0.08
14.44020092487335,3,3,3,2,-9.470000000000001,0.05,-2.1,-2.82,2.39,0.5
14.45020091533661,3,3,3,2,-9.74,-0.22,-1.89,-1.62,2.65,0.84
14.4612010717392,3,3,3,3,-9.960000000000001,-0.29,-1.63,-0.05,2.52,1.02
14.47120106220245,3,3,3,3,-9.81,-0.16,-1.33,1.29,1.97,0.88
14.48120105266571,3,3,3,3,-9.710000000000001,0.05,-1.28,1.99,1.16,0.91
14.49120104312897,3,3,3,3,-9.65,-0.01,-1.17,2.56,0.72,1.13
14.50120103359222,3,3,3,3,-9.84,-0.09,-1.21,2.62,0.5600000000000001,1.34
14.51120102405548,3,3,3,3,-10.16,0.02,-1.09,2.73,0.33,1.36
14.52120101451874,3,3,3,3,-9.93,0.32,-1.15,3.11,-0.12,1.18
14.53120100498199,3,3,3,3,-9.77,0.48,-1.23,3.33,-0.36,1.24
14.54120099544525,3,3,3,3,-9.69,0.55,-1.34,2.97,-0.27,1.28
14.55120098590851,3,3,3,3,-9.57,1.05,-1.23,2.64,-0.11,1.34
14.56120097637177,3,3,3,3,-9.66,1.25,-1.32,2.48,0.15,1.41
14.57120096683502,3,3,3,3,-9.66,1.36,-1.44,2.08,0.45,1.35
14.58120095729828,3,3,3,3,-9.66,1.21,-1.79,1.35,0.49,1.21
14.59120094776154,3,3,3,3,-9.41,1.14,-1.71,0.66,0.43,1.26
14.60120093822479,3,3,3,3,-9.32,0.89,-1.8,0.22,0.46,1.35
14.61120092868805,3,3,3,3,-9.31,0.78,-1.74,0.18,0.48,1.37
14.62120091915131,3,3,3,3,-9.35,0.7,-1.7,0.37,0.51,1.28
14.63120090961456,3,3,3,3,-9.470000000000001,0.55,-1.61,0.44,0.37,1.12
14.64120090007782,3,3,3,3,-9.52,0.46,-1.52,0.51,0.06,0.97
14.65120089054108,3,3,3,3,-9.56,0.41,-1.54,0.64,-0.05,0.86
14.66120088100433,3,3,3,3,-9.630000000000001,0.49,-1.37,0.86,-0.1,0.75
14.67120087146759,3,3,3,3,-9.800000000000001,0.95,-1.5,1.17,-0.07000000000000001,0.7
14.68120086193085,3,3,3,3,-9.9,1.07,-1.69,1.42,0.08,0.71
14.6912008523941,3,3,3,3,-9.94,1.17,-1.74,1.56,0.29,0.75
14.70120084285736,3,3,3,3,-9.85,1.23,-1.72,1.66,0.38,0.79
14.7112010717392,3,3,3,3,-9.640000000000001,1.33,-1.72,1.49,0.33,0.91
14.72120106220245,3,3,3,3,-9.59,1.33,-1.72,1.23,0.24,0.99
14.73120105266571,3,3,3,3,-9.550000000000001,1.26,-1.83,0.57,0,1.03
14.74120104312897,3,3,3,3,-9.58,1.27,-1.72,0.09,-0.22,1.09
14.75120103359222,3,3,3,3,-9.75,1.4,-1.44,-0.2,-0.28,1
14.76120102405548,3,3,3,3,-9.699999999999999,1.3,-1.34,-0.14,-0.27,0.78
14.77120101451874,3,3,3,3,-9.57,1.38,-1.26,-0.06,-0.24,0.6
14.78120100498199,3,3,3,3,-9.32,1.07,-1.47,0.2,-0.18,0.63
14.79120099544525,3,3,3,3,-9.33,0.67,-1.48,-0.24,0.07000000000000001,0.54
14.80120098590851,3,3,3,3,-9.539999999999999,1.11,-1.11,-0.65,0.28,0.34
14.81120097637177,3,3,3,3,-9.59,1.5,-0.85,-0.34,0.18,0.37
14.82120096683502,3,3,3,3,-9.65,1.1,-1.28,-0.64,-0.05,0.41
14.83120095729828,3,3,3,3,-9.6,1.11,-1.47,-1.46,-0.15,0.33
14.84120094776154,3,3,3,3,-9.380000000000001,1.23,-1.42,-1.76,-0.35,0.19
14.85120093822479,3,3,3,3,-9.33,1.23,-1.44,-1.8,-0.47,0.02
14.86120092868805,3,3,3,3,-9.6,1.18,-1.77,-1.71,-0.37,-0.13
14.87120091915131,3,3,3,3,-9.550000000000001,1.38,-1.74,-1.29,-0.58,-0.11
14.88120090961456,3,3,3,3,-9.550000000000001,1.48,-1.85,-0.88,-0.82,-0.01
14.89120090007782,3,3,3,3,-9.58,1.54,-1.84,-0.71,-0.6899999999999999,0.1
14.90120089054108,3,3,3,3,-9.67,1.52,-1.83,-0.47,-0.46,0.04
14.91120088100433,3,3,3,3,-9.68,1.6,-1.75,-0.29,-0.26,0.05
14.92120087146759,3,3,3,3,-9.619999999999999,1.67,-1.65,-0.19,-0.14,0.15
14.93120086193085,3,3,3,3,-9.550000000000001,1.64,-1.71,-0.18,-0.11,0.26
14.9412008523941,3,3,3,3,-9.44,1.51,-1.62,-0.24,-0.04,0.39
14.95120084285736,3,3,3,3,-9.449999999999999,1.47,-1.6,-0.52,-0.03,0.36
14.9612010717392,3,3,3,3,-9.43,1.43,-1.6,-0.76,0.03,0.29
14.97120106220245,3,3,3,3,-9.460000000000001,1.36,-1.68,-0.9399999999999999,0.08,0.21
14.98120105266571,3,3,3,3,-9.550000000000001,1.38,-1.71,-0.77,0.14,0.12
14.99120104312897,3,3,3,3,-9.550000000000001,1.34,-1.66,-0.64,0.11,0.09
15.00120103359222,3,3,3,3,-9.57,1.33,-1.68,-0.64,0.06,0.07000000000000001
15.01120102405548,3,3,3,3,-9.65,1.4,-1.6,-0.64,0.01,0.05
15.02120101451874,3,3,3,3,-9.640000000000001,1.4,-1.64,-0.66,-0.03,-0.04
15.03120100498199,3,3,3,3,-9.59,1.41,-1.84,-0.5600000000000001,-0.02,-0.12
15.04120099544525,3,3,3,3,-9.52,1.38,-1.79,-0.48,0.05,-0.09
15.05120098590851,3,3,3,3,-9.470000000000001,1.34,-1.7,-0.31,0.11,-0.01
15.06120097637177,3,3,3,3,-9.49,1.28,-1.54,-0.2,0.22,0.07000000000000001
15.07120096683502,3,3,3,3,-9.470000000000001,1.24,-1.54,-0.2,0.22,0.15
15.08120095729828,3,3,3,3,-9.51,1.14,-1.77,-0.22,0.3,0.24
15.09120094776154,3,3,3,3,-9.51,1.06,-1.79,-0.12,0.27,0.19
15.10120093822479,3,3,3,3,-9.67,1.17,-1.4,0.15,0.22,0.12
15.11120092868805,3,3,3,3,-9.76,1.24,-1.28,0.08,0.16,0.05
15.12120091915131,3,3,3,3,-9.869999999999999,1.26,-1.22,-0.02,0.07000000000000001,0.02
15.13120090961456,3,3,3,3,-9.970000000000001,1.19,-1.35,-0.36,-0.08,-0.09
15.14120090007782,3,3,3,3,-9.960000000000001,1.08,-1.14,-0.83,-0.32,-0.23
15.15120089054108,3,3,3,3,-9.949999999999999,0.95,-1.02,-1.19,-0.54,-0.25
15.16120088100433,3,3,3,3,-9.9,0.98,-0.97,-1.61,-0.8,-0.26
15.17120087146759,3,3,3,3,-9.859999999999999,1.06,-0.95,-1.82,-1.01,-0.14
15.18120086193085,3,3,3,3,-9.880000000000001,0.78,-1.13,-1.87,-1.17,-0.03
15.1912008523941,3,3,3,3,-9.93,0.5600000000000001,-1.21,-1.96,-1.13,-0.12
15.20120084285736,3,3,3,3,-9.960000000000001,0.38,-1.12,-1.79,-1.08,-0.33
15.2112010717392,3,3,3,3,-9.880000000000001,-0.03,-1.06,-1.64,-1.18,-0.5
15.22120106220245,3,3,3,3,-9.81,-0.15,-1,-1.37,-1.39,-0.62
15.23120105266571,3,3,3,3,-9.720000000000001,-0.22,-0.96,-1.17,-1.68,-0.63
15.24120104312897,3,3,3,3,-9.6,-0.26,-0.85,-0.8100000000000001,-1.95,-0.6
15.25120103359222,3,3,3,3,-9.390000000000001,-0.53,-0.6,-0.59,-2.2,-0.59
15.26120102405548,3,3,3,3,-9.31,-0.76,-0.57,-0.44,-2.43,-0.73
15.27120101451874,3,3,3,3,-9.220000000000001,-0.89,-0.36,-0.36,-2.68,-0.9399999999999999
15.28120100498199,3,3,3,3,-9.23,-1.19,-0.52,-0.18,-3,-1.07
15.29120099544525,3,3,3,3,-9.34,-1.23,-0.17,0.44,-3.49,-1.41
15.30120098590851,3,3,3,3,-9.34,-1.26,-0.01,1.09,-4.31,-1.68
15.31120097637177,3,3,3,3,-9.369999999999999,-1.27,0.31,1.18,-5.13,-2.03
15.32120096683502,3,3,3,3,-9.33,-1.76,0.71,1.08,-6.13,-2.47
15.33120095729828,3,3,3,3,-8.73,-1.87,2.2,0.18,-7.16,-3.27
15.34120094776154,3,3,3,3,-8.02,-3.02,1.78,-2.56,-8.210000000000001,-4.35
15.35120093822479,3,3,3,3,-7.74,-3.77,1.25,-3.82,-8.640000000000001,-4.77
15.36120092868805,3,3,3,2,-7.21,-3.64,1.18,-3.76,-9.029999999999999,-5.62
15.37120091915131,3,3,3,2,-7.05,-3.32,1.11,-3.26,-7.87,-5.6
15.38120090961456,3,3,3,2,-8.210000000000001,-3.64,1.66,-3,-7.19,-5.77
15.39120090007782,3,3,3,2,-9.31,-3.87,1.94,-3.6,-7.97,-6.29
15.40120089054108,3,3,3,2,-9.77,-3.16,0.54,-3.6,-7.97,-6.29
15.41120088100433,3,3,3,2,-10.26,0.5,-1.88,-2.53,-7.26,-6.75
15.42120087146759,3,3,3,2,-9.699999999999999,1.05,-1.61,2.91,-5.86,-7.96
15.43120086193085,3,3,3,2,-8.58,1.71,-1.12,2.21,-3.84,-7.77
15.4412008523941,3,3,3,2,-8,1.62,-0.71,1.08,-3.49,-7.25
15.45120084285736,3,3,3,2,-7.59,0.87,-0.26,1.08,-3.49,-7.25
15.4612010717392,3,3,3,2,-7.69,0,-0.29,0.22,-4.09,-6.48
15.47120106220245,3,3,3,2,-7.99,-0.63,-0.87,0.17,-3.91,-4.3
15.48120105266571,3,3,3,2,-9.359999999999999,-0.9399999999999999,-1.65,0.75,-4.02,-4.14
15.49220097064972,3,3,3,2,-10,-1.09,-1.92,1.86,-2.53,-5.15
15.50220096111298,3,3,3,2,-10.87,-0.33,-2.34,1.86,-2.53,-5.15
15.51220095157623,3,3,3,2,-10.9,0.43,-2.1,4.11,-2.84,-6.52
15.52220094203949,3,3,3,2,-9.199999999999999,1.02,-1.19,3.64,-5.62,-7.9
15.53220093250275,3,3,3,2,-9.199999999999999,1.61,-1.17,2.84,-4.87,-7.16
15.542200922966,3,3,3,2,-9.869999999999999,2.29,-0.96,1.58,-5,-6.26
15.55220091342926,3,3,3,2,-10.58,3.14,-0.98,1.58,-5,-6.26
15.56220090389252,3,3,3,2,-10.34,6.01,-1.43,0.3,-5.61,-6.13
15.57220089435577,3,3,3,2,-10.38,7.68,-1.91,-0.61,-1.99,-5.66
15.58220088481903,3,3,3,2,-10.62,8.99,-3,-1.86,-0.51,-4.69
15.59220087528229,3,3,3,2,-11.41,10.04,-3.61,-3.18,0.19,-3.36
15.60220086574554,3,3,3,2,-13.49,10.61,-4.67,-3.18,0.19,-3.36
15.6122008562088,3,3,3,2,-15,10.04,-4.83,-3.53,0.99,-1.81
15.62220084667206,3,3,3,2,-16.76,8.539999999999999,-4.96,-2.86,5.11,3.44
15.63220107555389,3,3,3,2,-19.22,7.1,-4.8,-1.37,7.24,6.13
15.64220106601715,3,3,3,2,-25.61,4.47,-2.91,0.7,9.130000000000001,8.35
15.65220105648041,3,3,3,2,-29,3.51,-1.97,0.7,9.130000000000001,8.35
15.66220104694366,3,3,3,3,-31.18,4.09,-0.5,3.34,8.43,8.18
15.67220103740692,3,3,3,3,-30.61,5.64,0.77,7.34,0.33,4.31
15.68220102787018,3,3,3,3,-24.96,9.85,1.64,6.9,-1.07,6.88
15.69220101833344,3,3,3,3,-23.21,10.75,1.49,6.17,-0.89,8.640000000000001
15.70220100879669,3,3,3,3,-22.28,9.69,2.05,6.17,-0.89,8.640000000000001
15.71220099925995,3,3,3,3,-22.15,7.04,2.5,5.53,1,8.26
15.72220098972321,3,3,3,3,-20.32,-0.88,3.39,1.65,0.66,7.89
15.73220098018646,3,3,3,3,-18.53,-4.52,2.88,-1.12,0.72,8.01
15.74220097064972,3,3,3,3,-15.85,-7.01,1.6,-3.58,4.17,8.17
15.75220096111298,3,3,3,3,-13.2,-8.49,-0.64,-3.58,4.17,8.17
15.76220095157623,3,3,3,3,-8.609999999999999,-5.69,-4.42,-3.79,10.31,7.51
15.77220094203949,3,3,3,3,-6.85,-4.26,-3.51,4.56,19.45,2.24
15.78220093250275,3,3,3,3,-5.28,-6.74,-0.75,5.34,18.24,-1.02
15.792200922966,3,3,3,3,-3.98,-10.86,2.08,1.15,14.43,-3.28
15.80220091342926,3,3,3,3,-1.41,-22.77,2.93,1.15,14.43,-3.28
15.81220090389252,3,3,3,3,-0.74,-23.69,8.210000000000001,6.09,7.51,-4.96
15.82220089435577,3,3,3,3,1.01,-21.38,5.21,25.57,-6.6,1.27
15.83220088481903,3,3,3,3,4.1,-0.18,4.49,27.59,-6.39,5.93
15.84220087528229,3,3,3,3,2.15,2.82,2.32,18.93,-3.77,7.77
15.85220086574554,3,3,3,3,-1.07,6.46,4.01,18.93,-3.77,7.77
15.8622008562088,3,3,3,3,-3.06,7.9,3.7,11.15,-2.52,5.56
15.87220084667206,3,3,3,3,-2.4,8.039999999999999,0.02,-2.12,-1.27,-4.18
15.88220107555389,3,3,3,3,-1.83,7.11,-1.14,-4.84,0.99,-6.98
15.89220106601715,3,3,3,3,-0.27,5.48,-1.86,-7.85,2.27,-7.66
15.90220105648041,3,3,3,3,0.76,4.05,-1.78,-7.85,2.27,-7.66
15.91220104694366,3,3,3,3,1.22,0.97,-3.32,-12.1,2.84,-6.13
15.92220103740692,3,3,3,3,0.37,-0.44,-3.72,-11.15,3.79,-1.8
15.93220102787018,3,3,3,3,-0.24,-1.32,-3.55,-8.4,2.9,-1.81
15.94220101833344,3,3,3,3,-0.32,-1.84,-2.86,-5.21,1.7,-2.42
15.95220100879669,3,3,3,3,0.42,-1.97,-0.68,-5.21,1.7,-2.42
15.96220099925995,3,3,3,3,0.27,-1.88,0.01,-1.69,0.82,-2.83
15.97220098972321,3,3,3,3,-0.03,-2.02,0.08,2.59,0.07000000000000001,-2.9
15.98220098018646,3,3,3,3,-0.45,-1.7,0.6899999999999999,3.74,-0.23,-2.58
15.99220097064972,3,3,3,3,-0.92,-1.27,1.9,3.26,-0.88,-2.31
16.00220096111298,3,3,3,3,-0.77,-1.11,2.31,3.26,-0.88,-2.31
16.01220095157623,3,3,3,3,-0.66,-1.31,2.66,1.86,-1.6,-1.99
16.02220094203949,3,3,3,3,-0.63,-2.15,2.97,0.82,-1.22,-1.87
16.03220093250275,3,3,3,3,-0.63,-4.7,2.49,1.57,-1.06,-1.58
16.042200922966,3,3,3,3,-0.77,-5.86,2.77,2.52,-1.93,-1.36
16.05220091342926,3,3,3,3,-0.79,-6.73,3.24,2.52,-1.93,-1.36
16.06220090389252,3,3,3,3,-0.85,-7.3,3.38,3.15,-3.14,-1.56
16.07220089435577,3,3,3,3,-2.27,-8.119999999999999,4.52,-1.22,-8.140000000000001,-3.38
16.08220088481903,3,3,3,3,-5.48,-16.27,13.56,-18.91,-16.27,-3.92
16.09220087528229,3,3,3,3,-6.69,-28.75,-4.23,2.03,-18.51,-1.4
16.10220086574554,3,3,3,3,-7.59,1.61,3.28,2.03,-18.51,-1.4
16.1122008562088,3,3,3,3,-15.86,25.32,-11.51,3.58,-13.68,3.22
16.12220084667206,3,3,3,3,-34.02,10.84,8.539999999999999,-32.62,19.8,3.92
16.13220107555389,3,3,3,3,-39.25,-3.95,-7.54,-19.62,16.68,-2.99
16.15220105648041,3,3,3,3,-6.32,-7.38,11.7,-1.98,-29.04,-9.59
16.16220104694366,3,3,3,3,-10.15,-20.86,7.11,-22.57,-27.31,-10.46
16.17220103740692,3,3,3,3,-35.2,-23.6,9.98,-4.41,7.99,-3.38
16.18220102787018,3,3,3,3,-37.07,8.42,-0.14,4.42,-9.06,7.68
16.19220101833344,3,3,3,3,-19.69,19.93,-3.53,1.65,-24.01,-3.06
16.20220100879669,3,3,3,3,-8.449999999999999,28.52,-4.16,1.65,-24.01,-3.06
16.21220099925995,3,3,3,3,-4.99,30.59,-5.28,2.37,-17.45,-12.13
16.22220098972321,3,3,3,3,-4.67,27.43,-10.54,-5.66,-3.2,0.33
16.23220098018646,3,3,3,3,-7.38,18.22,-10.69,-6.84,14.03,2.94
16.24220097064972,3,3,3,3,-10.37,12.86,-8.720000000000001,-7.44,10.86,5.06
16.25220096111298,3,3,3,2,-11.31,6.04,-7.79,-7.44,10.86,5.06
16.26220095157623,3,3,3,2,-9.289999999999999,-1.64,-5.81,-8.119999999999999,2.72,6.02
16.27220094203949,3,3,3,2,-11.18,-3.81,-5.52,-12.5,7.36,7.67
16.28220093250275,3,3,3,2,-14.46,-6.87,-5.01,-10.03,7.15,3.52
16.292200922966,3,3,3,2,-16.08,-7.43,-4.15,-5.15,2.06,2.48
16.30220091342926,3,3,3,2,-11.46,-6.11,-2.69,-5.15,2.06,2.48
16.31220090389252,3,3,3,2,-8.74,-4.33,-2.41,-0.66,-0.15,4.1
16.32220089435577,3,3,3,2,-7.55,-2.76,-0.6,7.07,3.85,5.12
16.33220088481903,3,3,3,2,-5.75,-2.16,-0.76,6.94,3.01,4.84
16.34220087528229,3,3,3,2,-6.15,-0.9,0.9399999999999999,8.68,1.14,2.26
16.35220086574554,3,3,3,2,-5.6,1.15,2.09,8.68,1.14,2.26
16.3622008562088,3,3,3,2,-5.88,1.92,2.01,7.52,2.92,1.4
16.37220084667206,3,3,3,2,-5.97,1.87,1.94,3.2,6.98,0.85
16.38220107555389,3,3,3,2,-6.71,1.28,1.41,0.88,8.609999999999999,1.45
16.39220106601715,3,3,3,2,-7.48,-0.27,0.49,0.27,9.91,1.64
16.40220105648041,3,3,3,2,-9.09,0.08,0.73,0.27,9.91,1.64
16.41220104694366,3,3,3,2,-8.81,-0.31,-0.33,1.12,6.78,1.62
16.42220103740692,3,3,3,2,-6.79,-1.15,0.24,0.13,6.05,1.52
16.43220102787018,3,3,3,2,-9.17,-2.77,0,-0.16,5.73,0.04
16.44220101833344,3,3,3,2,-9.42,-2.21,3.08,1.72,2.05,-0.4
16.45220100879669,3,3,3,2,-9.42,-2.21,3.08,1.72,2.05,-0.4
16.46220099925995,3,3,3,2,-13.48,-3.45,3.56,0.22,2.21,-0.65
16.47220098972321,3,3,3,2,-13.73,-3.32,2.24,0.12,-1.33,0.19
16.48220098018646,3,3,3,2,-11.94,-1.02,1.81,1.32,0.48,1.54
16.49220097064972,3,3,3,2,-10.59,-0.43,1.04,2.36,1.95,0.93
16.50220096111298,3,3,3,2,-10.59,-0.43,1.04,2.36,1.95,0.93
16.51320087909698,3,3,3,2,-9.4,-0.9399999999999999,0.16,1.94,2.14,-1.31
16.52320086956024,3,3,3,2,-9.380000000000001,-0.55,-2.66,0.47,1.99,-1.85
16.5332008600235,3,3,3,2,-9.43,-0.24,-2.74,1.01,2.1,-1.08
16.54320085048676,3,3,3,2,-9.34,0.38,-3.01,1.48,1.66,-0.17
16.55320107936859,3,3,3,2,-9.34,0.38,-3.01,1.48,1.66,-0.17
16.56320106983185,3,3,3,2,-9.19,1.08,-2.82,1.88,0.84,0.12
16.5732010602951,3,3,3,2,-9.31,1.57,-1.79,1.8,0.6899999999999999,-0.25
16.58320105075836,3,3,3,2,-9.359999999999999,1.3,-1.31,1.77,0.91,-0.15
16.59320104122162,3,3,3,2,-9.4,0.74,-1.05,1.39,1.44,0.08
16.60320103168488,3,3,3,2,-9.4,0.74,-1.05,1.39,1.44,0.08
16.61320102214813,3,3,3,2,-9.710000000000001,-0.13,0.08,1.29,1.67,-0.03
16.62320101261139,3,3,3,2,-9.58,-0.9,0.33,0.62,1.01,-0.78
16.63320100307465,3,3,3,2,-9.550000000000001,-1.02,0.49,0.61,0.65,-0.7
16.6432009935379,3,3,3,2,-9.58,-1.13,0.36,0.53,0.45,-0.53
16.65320098400116,3,3,3,2,-9.58,-1.13,0.36,0.35,0.16,-0.32
16.66320097446442,3,3,3,2,-9.640000000000001,-0.93,0.46,0.35,0.16,-0.32
16.67320096492767,3,3,3,2,-9.869999999999999,-1.03,0.13,-0.5,0.67,-1.07
16.68320095539093,3,3,3,2,-9.630000000000001,-1.47,-0.07000000000000001,-0.79,0.3,-1.05
16.69320094585419,3,3,3,2,-9.699999999999999,-1.51,0.01,-0.64,0.21,-0.86
16.70320093631744,3,3,3,2,-9.699999999999999,-1.51,0.01,-0.34,-0.04,-0.7
16.7132009267807,3,3,3,2,-9.779999999999999,-1.58,0.18,-0.52,-0.21,-0.65
16.72320091724396,3,3,3,2,-10.05,-1.27,-0.83,-0.28,-0.41,-0.71
16.73320090770721,3,3,3,2,-9.960000000000001,-1.09,-1.05,0.14,-0.2,-1.25
16.74320089817047,3,3,3,2,-9.699999999999999,-0.74,-0.98,1.17,-0.52,-1.31
16.75320088863373,3,3,3,2,-9.699999999999999,-0.74,-0.98,1.48,-0.52,-1.31
16.76320087909698,3,3,3,2,-9.550000000000001,-0.45,-1.33,1.97,-0.6,-1.25
16.77320086956024,3,3,3,2,-9.57,-0.16,-1.57,2.53,-0.85,-1.07
16.7832008600235,3,3,3,2,-9.630000000000001,-0.18,-1.57,2.77,-1.01,-0.86
16.79320085048676,3,3,3,2,-9.65,-0.21,-1.31,3.43,-1.13,-0.58
16.80320107936859,3,3,3,2,-9.65,-0.21,-1.31,3.82,-0.98,-0.32
16.81320106983185,3,3,3,2,-10.11,0,-0.34,3.67,-0.79,-0.4
16.8232010602951,3,3,3,2,-10.1,0.72,-0.13,2.95,-1.12,-0.35
16.83320105075836,3,3,3,2,-10.26,0.72,-0.28,1.93,-0.5,-0.88
16.84320104122162,3,3,3,2,-9.640000000000001,0.21,-0.11,1.74,-0.43,-1.17
16.85320103168488,3,3,3,2,-9.49,-0.13,-0.37,0.85,-0.51,-0.85
16.86320102214813,3,3,3,2,-9.550000000000001,-0.47,-0.29,0.31,-0.3,-0.76
16.87320101261139,3,3,3,2,-9.609999999999999,-1.23,-0.39,-0.05,-0.15,-0.8100000000000001
16.88320100307465,3,3,3,2,-9.800000000000001,-1.2,-0.67,-0.17,-0.38,-0.45
16.8932009935379,3,3,3,2,-9.890000000000001,-0.84,-0.39,0.32,-0.24,-0.39
16.90320098400116,3,3,3,2,-9.92,-0.78,-0.89,0.22,-0.1,-0.43
16.91320097446442,3,3,3,2,-9.539999999999999,-0.47,-1.39,0.57,-0.19,-0.44
16.92320096492767,3,3,3,2,-9.75,-0.02,-1.11,0.54,-0.07000000000000001,-0.33
16.93320095539093,3,3,3,2,-9.99,0.11,-1.25,0.5,-0.01,-0.71
16.94320094585419,3,3,3,2,-9.77,0.16,-1.41,0.76,-0.08,-1.16
16.95320093631744,3,3,3,2,-9.619999999999999,0.26,-1.11,0.74,0.03,-0.77
16.9632009267807,3,3,3,2,-9.76,0.07000000000000001,-1.13,0.31,0.23,-0.3
16.97320091724396,3,3,3,2,-9.85,-0.13,-1.22,0.29,0.47,-0.06
16.98320090770721,3,3,3,2,-9.859999999999999,-0.18,-1.19,0.39,0.28,0.12
16.99320089817047,3,3,3,2,-9.960000000000001,-0.26,-0.88,0.64,0.45,-0.02
17.00320088863373,3,3,3,2,-9.84,-0.2,-0.92,0.63,0.29,-0.04
17.01320087909698,3,3,3,2,-9.74,-0.19,-0.88,0.54,0.1,0.07000000000000001
17.02320086956024,3,3,3,2,-9.67,-0.24,-0.9,0.34,0.16,0.22
17.0332008600235,3,3,3,2,-9.66,-0.47,-0.85,0.09,0.19,0.35
17.04320085048676,3,3,3,2,-9.74,-0.5600000000000001,-0.76,0.07000000000000001,0.21,0.44
17.05320107936859,3,3,3,2,-9.800000000000001,-0.66,-0.6899999999999999,0.01,0.33,0.39
17.06320106983185,3,3,3,2,-9.859999999999999,-0.63,-0.79,-0.01,0.36,0.34
17.0732010602951,3,3,3,2,-9.81,-0.61,-0.9399999999999999,0.12,0.35,0.3
17.08320105075836,3,3,3,2,-9.74,-0.43,-0.89,0.2,0.3,0.26
17.09320104122162,3,3,3,2,-9.74,-0.23,-0.98,0.14,0.4,0.21
17.10320103168488,3,3,3,2,-9.699999999999999,-0.13,-0.95,0.23,0.47,0.19
17.11320102214813,3,3,3,2,-9.73,-0.1,-0.84,0.12,0.52,0.18
17.12320101261139,3,3,3,2,-9.73,-0.14,-0.97,-0.09,0.46,0.28
17.13320100307465,3,3,3,2,-9.720000000000001,-0.08,-0.96,-0.14,0.53,0.26
17.1432009935379,3,3,3,2,-9.779999999999999,0.04,-1,-0.07000000000000001,0.7,0.3
17.15320098400116,3,3,3,2,-9.800000000000001,0.07000000000000001,-1,-0.2,0.62,0.33
17.16320097446442,3,3,3,2,-9.789999999999999,-0.01,-0.98,-0.44,0.57,0.4
17.17320096492767,3,3,3,2,-9.800000000000001,-0.05,-1.05,-0.58,0.5600000000000001,0.44
17.18320095539093,3,3,3,2,-9.74,-0.3,-0.9,-0.64,0.55,0.44
17.19320094585419,3,3,3,2,-9.800000000000001,-0.33,-0.78,-0.93,0.44,0.49
17.20320093631744,3,3,3,2,-9.800000000000001,-0.33,-0.78,-1.17,0.35,0.42
17.2132009267807,3,3,3,2,-9.83,-0.34,-0.6899999999999999,-1.43,0.28,0.37
17.22320091724396,3,3,3,2,-9.74,-0.26,-0.95,-1.51,0.13,0.27
17.23320090770721,3,3,3,2,-9.74,-0.24,-0.87,-1.44,0.2,0.19
17.24320089817047,3,3,3,2,-9.74,-0.12,-0.84,-1.48,0.28,0.07000000000000001
17.25320088863373,3,3,3,2,-9.74,-0.12,-0.84,-1.69,0.28,-0.08
17.26320087909698,3,3,3,2,-9.710000000000001,0.16,-1,-1.94,0.27,-0.18
17.27320086956024,3,3,3,2,-9.75,0.11,-1.14,-2.09,0.33,-0.15
17.2832008600235,3,3,3,2,-9.800000000000001,0.08,-1.1,-2.18,0.39,-0.04
17.29320085048676,3,3,3,2,-9.77,0.08,-1.11,-2.13,0.39,0.04
17.30320107936859,3,3,3,2,-9.73,-0.25,-1.08,-2.03,0.35,0.19
17.31320106983185,3,3,3,2,-9.74,-0.44,-1.13,-1.84,0.43,0.31
17.3232010602951,3,3,3,2,-9.76,-0.5,-1.22,-1.48,0.35,0.41
17.33320105075836,3,3,3,2,-9.74,-0.5,-1.11,-0.99,0.3,0.45
17.34320104122162,3,3,3,2,-9.73,-0.44,-0.83,-0.51,0.34,0.42
17.35320103168488,3,3,3,2,-9.75,-0.31,-0.82,-0.27,0.36,0.37
17.36320102214813,3,3,3,2,-9.779999999999999,-0.34,-0.91,-0.27,0.34,0.35
17.37320101261139,3,3,3,2,-9.779999999999999,-0.37,-0.98,-0.14,0.36,0.35
17.38320100307465,3,3,3,2,-9.74,-0.3,-0.98,0.05,0.31,0.35
17.3932009935379,3,3,3,2,-9.74,-0.31,-0.95,0.11,0.24,0.32
17.40320098400116,3,3,3,2,-9.69,-0.23,-0.93,0.16,0.2,0.34
17.41320097446442,3,3,3,2,-9.73,-0.21,-1.03,0.14,0.2,0.36
17.42320096492767,3,3,3,2,-9.800000000000001,-0.13,-1.05,0.21,0.14,0.36
17.43320095539093,3,3,3,2,-9.789999999999999,-0.08,-1,0.33,0.09,0.27
17.44320094585419,3,3,3,2,-9.710000000000001,-0.09,-1,0.35,-0.04,0.32
17.45320093631744,3,3,3,3,-9.74,-0.06,-0.92,0.42,-0.02,0.33
17.4632009267807,3,3,3,3,-9.789999999999999,-0.04,-1.02,0.36,-0.05,0.36
17.47320091724396,3,3,3,3,-9.77,0,-1.13,0.22,-0.18,0.32
17.48320090770721,3,3,3,3,-9.74,-0.02,-1.08,0.22,-0.17,0.31
17.49320089817047,3,3,3,3,-9.74,-0.08,-1.02,0.23,-0.07000000000000001,0.26
17.50320088863373,3,3,3,3,-9.85,0,-1.02,0.31,-0.14,0.22
17.51320087909698,3,3,3,3,-9.800000000000001,0.1,-0.98,0.41,-0.18,0.17
17.52320086956024,3,3,3,3,-9.779999999999999,0.07000000000000001,-1.03,0.26,-0.3,0.13
17.53420102596283,3,3,3,3,-9.789999999999999,0.28,-0.96,0.02,-0.36,0.2
17.54420101642609,3,3,3,3,-9.779999999999999,0.27,-1.01,-0.19,-0.37,0.19
17.55420100688934,3,3,3,3,-9.789999999999999,0.19,-1.1,-0.29,-0.34,0.14
17.5642009973526,3,3,3,3,-9.81,0.29,-1.05,-0.35,-0.33,0.09
17.57420098781586,3,3,3,3,-9.74,0.12,-1.11,-0.27,-0.3,0.11
17.58420097827911,3,3,3,3,-9.75,0.11,-1.05,-0.3,-0.22,0.14
17.59420096874237,3,3,3,3,-9.76,0.09,-1.04,-0.32,-0.2,0.23
17.60420095920563,3,3,3,3,-9.779999999999999,0.06,-0.99,-0.35,-0.18,0.24
17.61420094966888,3,3,3,3,-9.75,-0.05,-1.03,-0.3,-0.12,0.24
17.62420094013214,3,3,3,3,-9.73,-0.09,-1.01,-0.18,-0.03,0.27
17.6342009305954,3,3,3,3,-9.74,-0.14,-0.93,-0.04,0.03,0.28
17.64420092105865,3,3,3,3,-9.76,-0.18,-0.87,0.1,-0.02,0.29
17.65420091152191,3,3,3,3,-9.76,-0.19,-0.74,0.11,-0.01,0.27
17.66420090198517,3,3,3,3,-9.74,-0.2,-0.76,0.16,0,0.21
17.67420089244843,3,3,3,3,-9.720000000000001,-0.19,-0.86,0.07000000000000001,0.04,0.18
17.68420088291168,3,3,3,3,-9.720000000000001,-0.17,-0.8100000000000001,0.09,-0.03,0.15
17.69420087337494,3,3,3,3,-9.74,-0.17,-0.82,0.07000000000000001,-0.06,0.17
17.7042008638382,3,3,3,3,-9.779999999999999,-0.21,-0.83,0.09,-0.13,0.18
17.71420085430145,3,3,3,3,-9.779999999999999,-0.11,-0.84,0.12,-0.16,0.2
17.72420084476471,3,3,3,3,-9.75,-0.11,-0.92,0.13,-0.11,0.25
17.73420107364655,3,3,3,3,-9.789999999999999,-0.09,-0.8100000000000001,0.22,-0.08,0.26
17.7442010641098,3,3,3,3,-9.74,-0.09,-0.73,0.17,-0.1,0.28
17.75420105457306,3,3,3,3,-9.710000000000001,0,-0.79,0.1,-0.07000000000000001,0.28
17.76420104503632,3,3,3,3,-9.69,0.03,-0.8,0.08,-0.02,0.25
17.77420103549957,3,3,3,3,-9.75,0.07000000000000001,-0.95,0.12,0.08,0.22
17.78420102596283,3,3,3,3,-9.800000000000001,0.07000000000000001,-1.07,0.08,0.1,0.26
17.79420101642609,3,3,3,3,-9.81,0.01,-0.95,0.12,0.1,0.33
17.80420100688934,3,3,3,3,-9.779999999999999,0.02,-0.91,0.15,0.17,0.36
17.8142009973526,3,3,3,3,-9.73,-0.18,-0.87,0.12,0.12,0.35
17.82420098781586,3,3,3,3,-9.68,-0.13,-0.97,0.22,0.08,0.34
17.83420097827911,3,3,3,3,-9.699999999999999,-0.09,-0.87,0.37,0.09,0.38
17.84420096874237,3,3,3,3,-9.779999999999999,-0.05,-0.8100000000000001,0.39,0.09,0.38
17.85420095920563,3,3,3,3,-9.76,-0.04,-0.83,0.21,0.03,0.36
17.86420094966888,3,3,3,3,-9.76,-0.05,-0.77,0.06,-0.04,0.35
17.87420094013214,3,3,3,3,-9.720000000000001,-0.03,-0.86,-0.01,-0.09,0.28
17.8842009305954,3,3,3,3,-9.82,0.01,-0.97,0.06,-0.09,0.24
17.89420092105865,3,3,3,3,-9.82,0.08,-0.96,0.21,-0.05,0.13
17.90420091152191,3,3,3,3,-9.77,0.14,-0.88,0.27,-0.22,0.08
17.91420090198517,3,3,3,3,-9.75,0.16,-0.96,0.27,-0.19,0.03
17.92420089244843,3,3,3,3,-9.76,0.37,-1.1,0.26,-0.04,0.02
17.93420088291168,3,3,3,3,-9.800000000000001,0.39,-1.09,0.24,0.05,0.01
17.94420087337494,3,3,3,3,-9.77,0.41,-1.07,0.05,0.04,0.12
17.9542008638382,3,3,3,3,-9.74,0.37,-1.02,-0.01,0.05,0.2
17.96420085430145,3,3,3,3,-9.710000000000001,0.25,-1.13,-0.03,0.16,0.24
17.97420084476471,3,3,3,3,-9.800000000000001,0.19,-1.23,0,0.17,0.28
17.98420107364655,3,3,3,3,-9.82,0.16,-1.11,0.02,0.19,0.26
17.9942010641098,3,3,3,3,-9.789999999999999,0.09,-1.04,0.02,0.15,0.26
18.00420105457306,3,3,3,3,-9.77,0.09,-0.96,0.02,0.24,0.26
18.01420104503632,3,3,3,3,-9.76,0.14,-0.96,0.09,0.24,0.26
18.02420103549957,3,3,3,3,-9.77,0.15,-1.02,0.13,0.27,0.24
18.03420102596283,3,3,3,3,-9.76,0.14,-1.04,0.02,0.19,0.27
18.04420101642609,3,3,3,3,-9.789999999999999,0.15,-0.97,0.01,0.21,0.27
18.05420100688934,3,3,3,3,-9.779999999999999,0.16,-0.99,0.01,0.25,0.24
18.0642009973526,3,3,3,3,-9.76,0.16,-0.95,0.05,0.2,0.24
18.07420098781586,3,3,3,3,-9.76,0.14,-1.02,0,0.24,0.21
18.08420097827911,3,3,3,3,-9.74,0.24,-0.93,-0.04,0.19,0.15
18.09420096874237,3,3,3,3,-9.74,0.21,-0.99,-0.12,0.16,0.09
18.10420095920563,3,3,3,3,-9.74,0.23,-0.98,-0.15,0.17,0.12
18.11420094966888,3,3,3,3,-9.77,0.13,-0.95,-0.28,0.15,0.16
18.12420094013214,3,3,3,3,-9.75,0.24,-1.02,-0.19,0.1,0.15
18.1342009305954,3,3,3,3,-9.720000000000001,0.04,-1.13,-0.14,0.14,0.16
18.14420092105865,3,3,3,3,-9.81,0.03,-1.09,-0.1,0.13,0.13
18.15420091152191,3,3,3,3,-9.779999999999999,0.22,-0.89,-0.1,0.05,0.11
18.16420090198517,3,3,3,3,-9.779999999999999,0.02,-1.03,-0.2,0.07000000000000001,0.16
18.17420089244843,3,3,3,3,-9.76,0.16,-1.01,-0.16,0.11,0.06
18.18420088291168,3,3,3,3,-9.75,0.09,-1.02,-0.23,0.08,0.08
18.19420087337494,3,3,3,3,-9.77,0.08,-1.02,-0.16,0.12,0.05
18.2042008638382,3,3,3,3,-9.77,0.06,-1.02,-0.19,0.09,0.05
18.21420085430145,3,3,3,3,-9.81,0.16,-1,-0.28,0.01,0.01
18.22420084476471,3,3,3,3,-9.710000000000001,0.16,-0.96,-0.37,-0.02,0.05
18.23420107364655,3,3,3,3,-9.76,0.14,-1.1,-0.28,0.02,-0.01
18.2442010641098,3,3,3,3,-9.699999999999999,0.27,-0.99,-0.14,-0.02,-0.04
18.25420105457306,3,3,3,3,-9.710000000000001,0.09,-1.06,-0.18,-0.1,0.04
18.26420104503632,3,3,3,3,-9.81,0.03,-1.04,-0.08,-0.06,0.09
18.27420103549957,3,3,3,3,-9.74,0.03,-1.02,-0.07000000000000001,-0.09,0.12
18.28420102596283,3,3,3,3,-9.800000000000001,0.11,-0.88,-0.02,-0.04,0.13
18.29420101642609,3,3,3,3,-9.779999999999999,0.12,-0.92,-0.14,-0.08,0.05
18.30420100688934,3,3,3,3,-9.77,0.17,-0.89,-0.16,-0.03,0
18.3142009973526,3,3,3,3,-9.77,0.28,-0.93,-0.25,0.04,-0.01
18.32420098781586,3,3,3,3,-9.75,0.09,-1.14,-0.24,0.01,0.03
18.33420097827911,3,3,3,3,-9.77,0.1,-1.07,-0.16,0.1,-0.01
18.34420096874237,3,3,3,3,-9.69,0.13,-0.97,-0.1,-0.01,0.03
18.35420095920563,3,3,3,3,-9.77,0.05,-0.92,0.02,0.01,0.07000000000000001
18.36420094966888,3,3,3,3,-9.779999999999999,0.04,-0.96,0.07000000000000001,-0.03,0.06
18.37420094013214,3,3,3,3,-9.75,0.09,-1.01,0.1,-0.1,0.05
18.3842009305954,3,3,3,3,-9.74,0.05,-0.95,0.09,-0.1,0.09
18.39420092105865,3,3,3,3,-9.720000000000001,0.06,-0.85,0.02,-0.09,0.11
18.40420091152191,3,3,3,3,-9.73,0,-0.85,-0.1,-0.09,0.08
18.41420090198517,3,3,3,3,-9.76,-0.06,-0.88,-0.17,-0.07000000000000001,0.07000000000000001
18.42420089244843,3,3,3,3,-9.779999999999999,-0.01,-0.92,-0.18,-0.06,0.02
18.43420088291168,3,3,3,3,-9.789999999999999,0.09,-0.91,-0.19,-0.14,-0.01
18.44420087337494,3,3,3,3,-9.76,0.13,-0.88,-0.27,-0.11,-0.05
18.4542008638382,3,3,3,3,-9.76,0.09,-0.91,-0.39,-0.11,-0.09
18.46420085430145,3,3,3,3,-9.73,0.1,-0.93,-0.37,-0.17,-0.08
18.47420084476471,3,3,3,3,-9.75,0.05,-1.03,-0.33,-0.16,-0.07000000000000001
18.48420107364655,3,3,3,3,-9.710000000000001,0.01,-0.95,-0.33,-0.23,-0.08
18.4942010641098,3,3,3,3,-9.73,-0.02,-0.91,-0.39,-0.21,-0.06
18.50420105457306,3,3,3,3,-9.75,0.01,-0.9,-0.42,-0.1,-0.09
18.51420104503632,3,3,3,3,-9.81,0.15,-1.04,-0.33,-0.09,-0.1
18.52520096302032,3,3,3,3,-9.859999999999999,0.16,-1.11,-0.21,-0.14,-0.09
18.53420102596283,3,3,3,3,-9.82,0.15,-1.06,-0.24,-0.13,-0.11
18.54420101642609,3,3,3,3,-9.76,0.23,-1.07,-0.14,-0.05,-0.07000000000000001
18.5552009344101,3,3,3,3,-9.699999999999999,0.32,-1.01,-0.08,-0.02,-0.03
18.56520092487335,3,3,3,3,-9.699999999999999,0.28,-0.96,-0.09,0.03,-0.04
18.57520091533661,3,3,3,3,-9.710000000000001,0.25,-1.09,-0.15,0.06,0.06
18.58520090579987,3,3,3,3,-9.73,0.22,-1.03,-0.21,0.16,0.07000000000000001
18.59520089626312,3,3,3,3,-9.75,0.15,-0.98,-0.19,0.24,0.09
18.60520088672638,3,3,3,3,-9.75,0.09,-0.92,-0.14,0.17,0.1
18.61520087718964,3,3,3,3,-9.74,0.05,-0.91,-0.17,0.11,0.1
18.62520086765289,3,3,3,3,-9.76,0.04,-1.01,0,0.1,0.07000000000000001
18.63520085811615,3,3,3,3,-9.73,0.01,-0.93,0.1,0.06,0.09
18.64520084857941,3,3,3,3,-9.74,0.01,-0.87,0.26,0.11,0.09
18.65520107746124,3,3,3,3,-9.75,0.06,-0.87,0.36,0.18,0.12
18.6652010679245,3,3,3,3,-9.76,0.06,-0.85,0.42,0.2,0.13
18.67520105838776,3,3,3,3,-9.76,0.06,-0.95,0.32,0.21,0.1
18.68520104885101,3,3,3,3,-9.77,0.09,-0.95,0.36,0.2,0.13
