timestamp,magCalib,accCalib,gyrCalib,sysCalib,accX,accY,accZ,gyrX,gyrY,gyrZ
0.04148697853088379,3,3,3,2,-10.05,-1.49,0.67,0.72,-1.59,-0.35
0.05148696899414062,3,3,3,2,-9.800000000000001,-0.93,0.63,0.38,-1.79,-0.49
0.06148695945739746,3,3,3,2,-9.789999999999999,-0.79,0.9399999999999999,-0.84,-1.4,-0.62
0.0714869499206543,3,3,3,2,-9.99,-0.54,1.12,-2.12,-0.72,-0.64
0.08148694038391113,3,3,3,2,-9.960000000000001,-0.2,1.1,-3.17,0,-0.76
0.09148693084716797,3,3,3,2,-9.93,-0.05,1,-4.4,0.73,-0.98
0.1014869213104248,3,3,3,2,-9.98,0.09,0.99,-5.28,1.21,-1.19
0.1114869117736816,3,3,3,2,-10.03,0.91,0.8,-5.81,1.52,-1.35
0.1214869022369385,3,3,3,2,-9.970000000000001,0.83,0.82,-6.91,1.31,-1.38
0.1314868927001953,3,3,3,2,-10.01,0.31,0.45,-7.88,1.01,-1.4
0.1414868831634521,3,3,3,2,-9.960000000000001,0.09,-0.08,-6.92,0.77,-1.32
0.151486873626709,3,3,3,2,-9.73,0.91,-0.57,-4.9,0.39,-1.16
0.1614868640899658,3,3,3,2,-9.4,1.42,-0.38,-3.23,-0.01,-0.51
0.1714870929718018,3,3,3,2,-9.050000000000001,1.57,-0.46,-1.94,0.24,0.27
0.1814870834350586,3,3,3,2,-8.94,1.51,-0.57,-0.66,0.66,0.54
0.1914870738983154,3,3,3,2,-8.85,2.45,-0.39,0.59,0.76,0.63
0.2014870643615723,3,3,3,2,-8.880000000000001,2.4,-0.41,0.6,0.95,0.97
0.2114870548248291,3,3,3,2,-9.050000000000001,2.1,-0.27,0.29,1.08,1.01
0.2214870452880859,3,3,3,2,-9.470000000000001,1.25,-0.6899999999999999,1.65,1.23,0.79
0.2314870357513428,3,3,3,2,-10.34,2.77,1.27,5.44,0.64,0.27
0.2414870262145996,3,3,3,2,-10.01,4.08,2.97,6.21,-0.24,0.75
0.2514870166778564,3,3,3,2,-9.539999999999999,4.06,3.07,1.82,0.16,1.57
0.2614870071411133,3,3,3,2,-9.460000000000001,3.36,1.91,-2.74,1.48,1.17
0.2714869976043701,3,3,3,2,-9.51,2.12,-0.45,-4.9,2.31,0.35
0.281486988067627,3,3,3,2,-9.699999999999999,1.48,-0.45,-5.31,2.33,0.2
0.2914869785308838,3,3,3,2,-9.59,0.65,-0.53,-5.06,2.42,0.5
0.3014869689941406,3,3,3,2,-9.44,-0.36,-1.02,-4.88,3.04,1.01
0.3114869594573975,3,3,3,2,-10,-0.73,-0.86,-4.48,3.39,1.3
0.3214869499206543,3,3,3,2,-10.76,-1.31,-0.31,-4.9,3.11,1.41
0.3314869403839111,3,3,3,2,-11.98,-2.15,1,-6.77,2.2,1.47
0.341486930847168,3,3,3,2,-11.72,-2.16,2.14,-6.45,0.39,0.97
0.3514869213104248,3,3,3,2,-10.34,-2.31,1.35,-6.1,-0.46,0.4
0.3614869117736816,3,3,3,2,-9.4,-3.07,0.71,-5.94,-0.27,-0.01
0.3714869022369385,3,3,3,2,-9.02,-3.7,-0.01,-3.86,0.02,-0.17
0.3814868927001953,3,3,3,2,-9.09,-2.18,-0.82,-0.62,0.42,-0.12
0.3914868831634521,3,3,3,2,-9.01,-1.54,-1.24,0.88,0.88,0.04
0.401486873626709,3,3,3,2,-9.01,-1.07,-1.5,0.8100000000000001,1,0.03
0.4114868640899658,3,3,3,2,-9.26,-0.71,-1.33,0.42,0.87,0.16
0.4214870929718018,3,3,3,2,-9.949999999999999,-0.32,-0.53,0.31,0.48,0.26
0.4314870834350586,3,3,3,2,-9.85,-0.53,-0.34,-0.01,0.12,0.52
0.4414870738983154,3,3,3,2,-9.859999999999999,-0.61,-0.09,0.13,-0.03,0.88
0.4514870643615723,3,3,3,2,-10.06,-0.44,0,1.17,-0.18,0.92
0.4614870548248291,3,3,3,2,-9.9,0.52,0.22,2.13,0.12,0.57
0.4714870452880859,3,3,3,2,-9.67,0.68,0.17,1.94,0.72,0.54
0.4814870357513428,3,3,3,2,-9.720000000000001,0.43,0,1.33,1.14,0.65
0.4914870262145996,3,3,3,2,-9.779999999999999,0.39,-0.21,0.53,1.42,0.53
0.5014870166778564,3,3,3,2,-10.03,0.29,-0.3,-0.64,1.66,0.6
0.5114870071411133,3,3,3,2,-10.16,0.54,-0.31,-1.6,1.35,0.78
0.5214869976043701,3,3,3,2,-9.99,0.46,-0.4,-2.12,0.9399999999999999,0.8
0.531486988067627,3,3,3,2,-9.76,0.25,-0.23,-2.3,0.87,0.71
0.5414869785308838,3,3,3,2,-9.720000000000001,0.03,-0.09,-1.87,0.96,0.96
0.5514869689941406,3,3,3,2,-9.859999999999999,0.14,-0.13,-1.29,1.24,1.13
0.5614869594573975,3,3,3,2,-9.91,0.18,-0.15,-0.79,1.28,1.22
0.5714869499206543,3,3,3,2,-9.99,0.03,-0.02,-0.5600000000000001,1.13,1.14
0.5814869403839111,3,3,3,2,-9.67,-0.2,0.04,-0.46,1.05,1.06
0.591486930847168,3,3,3,2,-9.640000000000001,-0.48,0,-0.05,1.36,1.07
0.6014869213104248,3,3,3,2,-9.720000000000001,-0.43,-0.18,0.78,1.62,1.01
0.6114869117736816,3,3,3,2,-9.58,-0.54,-0.29,1.56,1.71,0.71
0.6214869022369385,3,3,3,2,-9.5,-0.5600000000000001,-0.08,2.16,1.65,0.6
0.6314868927001953,3,3,3,2,-9.640000000000001,-0.47,-0.02,2.98,1.52,0.55
0.6414868831634521,3,3,3,2,-9.52,-0.42,-0.02,3.23,1.58,0.58
0.651486873626709,3,3,3,2,-9.51,-0.66,0.05,2.98,1.68,0.65
0.6614868640899658,3,3,3,2,-9.42,-0.47,0.17,3.25,1.94,0.3
0.6714870929718018,3,3,3,2,-9.75,-0.55,0.05,3.42,1.98,0.34
0.6814870834350586,3,3,3,3,-10,-0.67,-0.02,3.85,1.9,0.23
0.6914870738983154,3,3,3,3,-9.81,0.34,-0.13,5.13,1.51,-0.21
0.7014870643615723,3,3,3,3,-9.6,0.31,-0.26,4.78,1.5,-0.2
0.7114870548248291,3,3,3,3,-9.67,0.09,-0.45,3.86,1.88,-0.08
0.7214870452880859,3,3,3,3,-9.869999999999999,0.2,-0.66,3.61,1.84,-0.19
0.7314870357513428,3,3,3,3,-9.51,0.24,-0.68,3.55,1.56,-0.07000000000000001
0.7414870262145996,3,3,3,3,-9.49,0.31,-0.52,3.58,1.39,0.36
0.7514870166778564,3,3,3,3,-9.609999999999999,0.59,-0.66,3.59,1.56,0.57
0.7614870071411133,3,3,3,3,-9.630000000000001,0.8100000000000001,-0.55,3.6,1.37,0.61
0.7714869976043701,3,3,3,3,-9.84,0.46,-0.19,3.3,1.2,0.55
0.7824869155883789,3,3,3,3,-9.93,0.41,-0.12,3.1,1.15,0.46
0.7924869060516357,3,3,3,3,-9.91,0.51,-0.13,3.27,1.3,0.24
0.8024868965148926,3,3,3,3,-9.859999999999999,0.33,-0.52,3.68,1.49,0.27
0.8124868869781494,3,3,3,3,-10,0.6899999999999999,-0.49,4.04,1.55,0.42
0.8224868774414062,3,3,3,3,-10.04,1.03,-0.57,3.91,1.62,0.39
0.8324868679046631,3,3,3,3,-9.949999999999999,1.02,-0.53,3.49,1.51,0.29
0.842487096786499,3,3,3,3,-9.83,0.83,-0.45,3.15,1.36,0.42
0.8524870872497559,3,3,3,3,-9.890000000000001,0.92,-0.5600000000000001,2.8,1.24,0.58
0.8624870777130127,3,3,3,3,-9.800000000000001,0.74,-0.46,2.17,1.02,0.58
0.8724870681762695,3,3,3,3,-9.68,0.23,-0.51,1.8,1,0.26
0.8824870586395264,3,3,3,3,-9.76,0.02,-0.53,2.02,1.08,0.01
0.8924870491027832,3,3,3,3,-9.800000000000001,-0.07000000000000001,-0.99,2.55,1.1,-0.2
0.90248703956604,3,3,3,3,-9.9,0.06,-1.19,3.01,0.97,-0.46
0.9124870300292969,3,3,3,3,-9.82,0.29,-1.05,3.05,0.71,-0.49
0.9224870204925537,3,3,3,3,-9.710000000000001,0.46,-1.18,2.46,0.61,-0.3
0.9324870109558105,3,3,3,3,-9.82,-0.04,-1.23,1.69,0.49,-0.15
0.9424870014190674,3,3,3,3,-9.869999999999999,-0.51,-1.34,0.88,0.42,-0.14
0.9524869918823242,3,3,3,3,-9.960000000000001,-0.66,-1.54,0.77,0.38,-0.2
0.9624869823455811,3,3,3,3,-10.04,-0.67,-1.64,0.6,0.44,-0.3
0.9724869728088379,3,3,3,3,-9.92,-0.42,-1.66,0.52,0.52,-0.54
0.9824869632720947,3,3,3,3,-9.800000000000001,-0.48,-1.62,0.1,0.57,-0.68
0.9924869537353516,3,3,3,3,-9.91,-0.31,-1.48,-0.49,0.7,-0.88
1.002486944198608,3,3,3,3,-9.81,-0.78,-1.41,-1.52,0.75,-0.96
1.012486934661865,3,3,3,3,-9.970000000000001,-1.12,-1.25,-2.42,0.78,-1.01
1.022486925125122,3,3,3,3,-9.859999999999999,-1.37,-1.35,-2.7,0.74,-1.36
1.032486915588379,3,3,3,3,-9.609999999999999,-1.68,-1.46,-2.03,0.66,-1.44
1.042486906051636,3,3,3,3,-9.56,-0.87,-1.46,-1.19,0.55,-1.17
1.052486896514893,3,3,3,3,-9.640000000000001,-0.63,-1.57,-0.6,0.44,-0.75
1.062486886978149,3,3,3,3,-9.710000000000001,-0.59,-1.47,-0.47,0.35,-0.45
1.072486877441406,3,3,3,3,-9.789999999999999,-0.23,-1.22,-0.42,0.31,-0.2
1.082486867904663,3,3,3,3,-9.77,-0.13,-1.19,-0.52,0.16,0.04
1.092487096786499,3,3,3,3,-9.69,-0.33,-1.13,-0.66,0.06,0.3
1.102487087249756,3,3,3,3,-9.69,-0.52,-1.33,-0.28,-0.15,0.54
1.112487077713013,3,3,3,3,-9.82,-0.33,-1.37,0.17,-0.49,0.76
1.12248706817627,3,3,3,3,-9.630000000000001,-0.04,-0.97,0.37,-0.71,1
1.132487058639526,3,3,3,3,-9.68,0.17,-0.9,0.31,-0.79,1.26
1.142487049102783,3,3,3,3,-9.949999999999999,0.05,-0.84,0.22,-0.78,1.34
1.15248703956604,3,3,3,3,-10.1,0.12,-0.27,-0.31,-0.71,0.88
1.162487030029297,3,3,3,3,-9.59,-0.45,-0.61,-0.75,-0.47,0.2
1.172487020492554,3,3,3,3,-9.74,-0.92,-0.88,-0.37,-0.32,0.2
1.182487010955811,3,3,3,3,-9.94,-0.74,-1.17,0.22,-0.02,0.2
1.192487001419067,3,3,3,3,-9.85,-0.27,-1.32,0.39,0.11,0.1
1.202486991882324,3,3,3,3,-9.67,-0.06,-1.64,-0.25,0.04,0.13
1.212486982345581,3,3,3,3,-9.67,-0.08,-1.52,-0.73,0,0.31
1.222486972808838,3,3,3,3,-9.779999999999999,0.02,-1.49,-1,-0.1,0.59
1.232486963272095,3,3,3,3,-9.789999999999999,0.14,-1.47,-1.4,-0.29,0.77
1.242486953735352,3,3,3,3,-9.859999999999999,0.43,-1.45,-1.7,-0.41,0.9399999999999999
1.252486944198608,3,3,3,3,-9.82,0.57,-1.62,-1.91,-0.38,1.22
1.262486934661865,3,3,3,3,-9.83,0.67,-1.59,-2.12,-0.42,1.45
1.272486925125122,3,3,3,3,-9.859999999999999,0.96,-1.07,-2.16,-0.51,1.76
1.282486915588379,3,3,3,3,-9.92,0.99,-0.84,-2.03,-0.53,1.93
1.292486906051636,3,3,3,3,-9.9,1.06,-0.62,-1.82,-0.5,1.91
1.302486896514893,3,3,3,3,-9.720000000000001,0.68,-0.7,-1.68,-0.39,1.89
1.312486886978149,3,3,3,3,-9.68,0.36,-0.52,-1.05,-0.24,1.91
1.322486877441406,3,3,3,3,-9.720000000000001,0.46,-0.5600000000000001,-0.47,-0.09,2
1.332486867904663,3,3,3,3,-9.710000000000001,0.35,-0.61,0.04,-0.01,1.97
1.342487096786499,3,3,3,3,-9.66,0.37,-0.72,0.36,0.06,1.9
1.352487087249756,3,3,3,3,-9.74,0.29,-0.86,0.43,-0.01,1.98
1.362487077713013,3,3,3,3,-9.75,0.22,-0.8100000000000001,0.06,-0.03,2.09
1.37248706817627,3,3,3,3,-9.800000000000001,0.37,-0.73,-0.4,-0.06,1.99
1.382487058639526,3,3,3,3,-9.800000000000001,0.29,-0.71,-1.02,-0.12,1.85
1.392487049102783,3,3,3,3,-9.789999999999999,0.21,-0.6899999999999999,-1.32,-0.26,1.8
1.40248703956604,3,3,3,3,-9.75,0.29,-0.74,-1.41,-0.48,1.54
1.412487030029297,3,3,3,3,-9.699999999999999,0.45,-0.6,-1.58,-0.66,1.3
1.422487020492554,3,3,3,3,-9.710000000000001,0.39,-0.49,-2.1,-0.77,1.13
1.432487010955811,3,3,3,3,-9.630000000000001,-0.31,-0.5,-2.61,-0.78,1.06
1.442487001419067,3,3,3,3,-9.640000000000001,-0.44,-0.52,-2.56,-0.86,0.95
1.452486991882324,3,3,3,3,-9.640000000000001,-0.44,-0.55,-2.17,-0.83,0.8
1.462486982345581,3,3,3,3,-9.68,-0.46,-0.45,-1.97,-0.65,0.64
1.472486972808838,3,3,3,3,-9.82,-0.43,-0.49,-1.68,-0.47,0.5
1.482486963272095,3,3,3,3,-9.859999999999999,-0.19,-0.45,-1.13,-0.45,0.32
1.492486953735352,3,3,3,3,-9.859999999999999,0.14,-0.51,-0.6,-0.46,0.29
1.502486944198608,3,3,3,3,-9.869999999999999,0.28,-0.5600000000000001,-0.39,-0.52,0.39
1.512486934661865,3,3,3,3,-9.81,0.33,-0.67,-0.46,-0.66,0.44
1.522486925125122,3,3,3,3,-9.73,0.52,-0.62,-0.21,-0.75,0.44
1.532486915588379,3,3,3,3,-9.67,0.43,-0.67,-0.05,-0.64,0.45
1.542486906051636,3,3,3,3,-9.779999999999999,0.47,-0.68,0.34,-0.85,0.36
1.552486896514893,3,3,3,3,-9.65,0.58,-0.76,0.46,-0.86,0.26
1.562486886978149,3,3,3,3,-9.800000000000001,0.64,-0.73,0.71,-0.88,0.28
1.572486877441406,3,3,3,3,-9.81,0.87,-0.67,1,-1.05,0.27
1.582486867904663,3,3,3,3,-9.970000000000001,1.3,-0.65,1,-0.97,0.29
1.592487096786499,3,3,3,3,-10.05,1.47,-0.74,1.14,-1.06,0.32
1.602487087249756,3,3,3,3,-10,1.59,-0.74,1.31,-1.34,0.36
1.612487077713013,3,3,3,3,-9.84,1.59,-0.67,1.04,-1.39,0.68
1.62248706817627,3,3,3,3,-9.9,1.61,-0.79,0.8,-1.29,0.93
1.632487058639526,3,3,3,3,-9.859999999999999,1.71,-0.7,1.07,-1.35,1.06
1.642487049102783,3,3,3,3,-9.83,1.77,-0.6,1.21,-1.4,1.15
1.65248703956604,3,3,3,3,-9.779999999999999,1.72,-0.57,1,-1.26,1.29
1.662487030029297,3,3,3,3,-9.81,1.29,-0.47,0.9,-0.92,1.52
1.672487020492554,3,3,3,3,-9.76,1.28,-0.46,1.15,-0.75,1.59
1.682487010955811,3,3,3,3,-9.74,1.21,-0.28,1.32,-0.64,1.69
1.692487001419067,3,3,3,3,-9.85,0.8100000000000001,-0.28,1.03,-0.68,1.85
1.702486991882324,3,3,3,3,-9.69,0.57,-0.43,1.14,-0.78,1.82
1.712486982345581,3,3,3,3,-9.59,0.17,-0.37,0.87,-0.82,1.73
1.722486972808838,3,3,3,3,-9.699999999999999,-0.1,-0.34,0.96,-1.04,1.71
1.732486963272095,3,3,3,3,-9.67,-0.28,-0.29,1.35,-1.24,1.47
1.742486953735352,3,3,3,3,-9.68,-0.39,-0.23,1.37,-1.3,1.29
1.752486944198608,3,3,3,3,-9.550000000000001,-0.42,-0.18,1.19,-1.28,1.15
1.762486934661865,3,3,3,3,-9.640000000000001,-0.6,-0.17,0.85,-1.24,0.88
1.772486925125122,3,3,3,3,-9.73,-0.57,-0.1,1.02,-1.24,0.43
1.782486915588379,3,3,3,3,-9.66,-0.43,-0.02,1.02,-1.13,0.03
1.792486906051636,3,3,3,3,-9.640000000000001,-0.28,-0.03,0.99,-0.99,-0.27
1.803487062454224,3,3,3,3,-9.699999999999999,-0.2,-0.07000000000000001,0.68,-0.9399999999999999,-0.41
1.81348705291748,3,3,3,3,-9.65,0.01,-0.1,0.3,-1.04,-0.37
1.823487043380737,3,3,3,3,-9.81,-0.34,-0.05,-0.19,-0.91,-0.34
1.833487033843994,3,3,3,3,-9.800000000000001,-0.13,-0.08,0.2,-0.83,-0.42
1.843487024307251,3,3,3,3,-9.970000000000001,0.13,-0.08,0.85,-0.68,-0.53
1.853487014770508,3,3,3,3,-9.859999999999999,0.5600000000000001,-0.11,0.9,-0.58,-0.5600000000000001
1.863487005233765,3,3,3,3,-9.720000000000001,0.84,-0.14,0.61,-0.4,-0.4
1.873486995697021,3,3,3,3,-9.800000000000001,0.99,-0.19,0.45,-0.33,-0.16
1.883486986160278,3,3,3,3,-9.73,0.93,-0.19,0.24,-0.35,0.04
1.893486976623535,3,3,3,3,-9.68,0.9,-0.17,0.18,-0.28,0.19
1.903486967086792,3,3,3,3,-9.81,1.03,-0.31,-0.14,-0.2,0.15
1.913486957550049,3,3,3,3,-9.869999999999999,0.96,-0.33,-0.07000000000000001,-0.3,0.11
1.923486948013306,3,3,3,3,-9.789999999999999,0.93,-0.18,-0.07000000000000001,-0.34,0.01
1.933486938476562,3,3,3,3,-9.800000000000001,0.71,-0.21,-0.31,-0.14,0.09
1.943486928939819,3,3,3,3,-9.83,0.8100000000000001,-0.27,-0.12,-0.11,0.06
1.953486919403076,3,3,3,3,-9.880000000000001,0.87,-0.36,0.29,-0.11,0.05
1.963486909866333,3,3,3,3,-9.85,1,-0.24,0.42,-0.11,0.09
1.97348690032959,3,3,3,3,-9.800000000000001,0.87,-0.25,0.17,-0.1,0.23
1.983486890792847,3,3,3,3,-9.789999999999999,0.88,-0.23,0.16,-0.15,0.35
1.993486881256104,3,3,3,3,-9.74,0.71,-0.23,0.23,-0.14,0.3
2.00348687171936,3,3,3,3,-9.73,0.43,-0.37,0.37,-0.03,0.25
2.013486862182617,3,3,3,3,-9.800000000000001,0.54,-0.25,0.49,0.07000000000000001,0.18
2.023487091064453,3,3,3,3,-9.82,0.62,-0.21,0.34,-0.01,0.04
2.03348708152771,3,3,3,3,-9.74,0.4,-0.23,0.16,-0.16,-0.13
2.043487071990967,3,3,3,3,-9.699999999999999,0.43,-0.18,0.26,-0.01,-0.15
2.053487062454224,3,3,3,3,-9.800000000000001,0.44,-0.21,-0.03,-0.03,-0.11
2.06348705291748,3,3,3,3,-9.76,0.5600000000000001,-0.11,0.02,0.04,-0.17
2.073487043380737,3,3,3,3,-9.76,0.5600000000000001,-0.15,-0.25,0.11,-0.12
2.083487033843994,3,3,3,3,-9.76,0.46,-0.16,-0.42,0.12,-0.13
2.093487024307251,3,3,3,3,-9.789999999999999,0.32,-0.24,-0.39,0.06,-0.2
2.103487014770508,3,3,3,3,-9.800000000000001,0.36,-0.3,-0.25,-0.05,-0.33
2.113487005233765,3,3,3,3,-9.75,0.34,-0.2,-0.23,-0.16,-0.47
2.123486995697021,3,3,3,3,-9.83,0.16,-0.21,-0.38,-0.31,-0.51
2.133486986160278,3,3,3,3,-9.779999999999999,0.35,-0.15,-0.27,-0.17,-0.62
2.143486976623535,3,3,3,3,-9.84,0.38,-0.2,-0.5,-0.1,-0.57
2.153486967086792,3,3,3,3,-9.93,0.52,-0.35,-0.41,0.02,-0.59
2.163486957550049,3,3,3,3,-9.949999999999999,0.77,-0.33,-0.22,-0.04,-0.59
2.173486948013306,3,3,3,3,-9.84,1.01,-0.3,-0.15,-0.22,-0.55
2.183486938476562,3,3,3,3,-9.76,1.18,-0.3,-0.05,-0.15,-0.6
2.193486928939819,3,3,3,3,-9.699999999999999,1.21,-0.31,0.02,-0.03,-0.62
2.203486919403076,3,3,3,3,-9.800000000000001,1,-0.5600000000000001,0.07000000000000001,-0.2,-0.52
2.213486909866333,3,3,3,3,-9.74,0.87,-0.38,0.14,-0.3,-0.33
2.22348690032959,3,3,3,3,-9.630000000000001,0.6899999999999999,-0.28,-0.06,-0.32,-0.18
2.233486890792847,3,3,3,3,-9.66,0.61,-0.19,-0.05,-0.14,-0.12
2.243486881256104,3,3,3,3,-9.81,0.6,-0.15,-0.15,0.02,-0.14
2.25348687171936,3,3,3,3,-9.800000000000001,0.33,-0.22,-0.25,0.08,-0.17
2.263486862182617,3,3,3,3,-9.779999999999999,0.47,-0.11,-0.18,0.04,-0.23
2.273487091064453,3,3,3,3,-9.76,0.52,-0.08,-0.39,0.13,-0.2
2.28348708152771,3,3,3,3,-9.869999999999999,0.53,-0.13,-0.34,0.08,-0.25
2.293487071990967,3,3,3,3,-9.800000000000001,0.42,-0.18,-0.44,-0.01,-0.24
2.303487062454224,3,3,3,3,-9.83,0.35,-0.34,-0.45,-0.02,-0.34
2.31348705291748,3,3,3,3,-9.869999999999999,0.54,-0.42,-0.09,-0.18,-0.53
2.323487043380737,3,3,3,3,-9.699999999999999,0.57,-0.17,-0.06,-0.34,-0.47
2.333487033843994,3,3,3,3,-9.640000000000001,0.58,-0.17,-0.58,-0.13,-0.43
2.343487024307251,3,3,3,3,-9.74,0.46,-0.22,-0.86,0.03,-0.31
2.353487014770508,3,3,3,3,-9.779999999999999,0.39,-0.36,-0.86,0.03,-0.31
2.363487005233765,3,3,3,3,-9.83,0.61,-0.21,-0.58,-0.05,-0.41
2.373486995697021,3,3,3,3,-9.84,0.53,-0.19,-0.58,-0.08,-0.44
2.383486986160278,3,3,3,3,-9.81,0.45,-0.21,-0.51,-0.14,-0.35
2.393486976623535,3,3,3,3,-9.76,0.5,-0.16,-0.51,-0.14,-0.35
2.403486967086792,3,3,3,3,-9.76,0.51,-0.26,-0.31,-0.13,-0.31
2.413486957550049,3,3,3,3,-9.81,0.55,-0.17,-0.24,-0.04,-0.19
2.423486948013306,3,3,3,3,-9.779999999999999,0.59,-0.21,-0.28,0.12,-0.29
2.433486938476562,3,3,3,3,-9.82,0.47,-0.23,-0.28,0.11,-0.34
2.443486928939819,3,3,3,3,-9.890000000000001,0.53,-0.26,-0.28,0.11,-0.34
2.453486919403076,3,3,3,3,-9.76,0.47,-0.24,-0.17,-0.09,-0.47
2.463486909866333,3,3,3,3,-9.69,0.47,-0.24,-0.46,-0.08,-0.61
2.47348690032959,3,3,3,3,-9.75,0.24,-0.25,-0.46,-0.08,-0.61
2.483486890792847,3,3,3,3,-9.6,-0.12,-0.04,-0.36,-0.3,-0.45
2.493486881256104,3,3,3,3,-9.630000000000001,-0.28,-0.02,-0.36,-0.3,-0.45
2.50348687171936,3,3,3,3,-9.69,-0.53,-0.13,-0.19,-0.34,-0.5
2.513486862182617,3,3,3,3,-9.869999999999999,-0.46,-0.03,0.25,-0.34,-0.63
2.523487091064453,3,3,3,3,-9.84,-0.23,-0.03,0.66,-0.36,-0.79
2.53348708152771,3,3,3,3,-9.789999999999999,-0.07000000000000001,-0.01,1.34,-0.3,-1.21
2.543487071990967,3,3,3,3,-9.720000000000001,0,-0.05,1.34,-0.3,-1.21
2.553487062454224,3,3,3,3,-9.69,0.08,-0.15,1.42,-0.5,-1.18
2.56348705291748,3,3,3,3,-9.74,0.12,-0.3,1.64,-0.46,-1.06
2.573487043380737,3,3,3,3,-9.81,0.22,-0.31,1.92,-0.19,-1.16
2.583487033843994,3,3,3,3,-9.91,0.35,-0.29,2.11,0,-1.23
2.593487024307251,3,3,3,3,-9.81,0.32,-0.12,2.11,-0.25,-1.27
2.603487014770508,3,3,3,3,-9.83,0.62,-0.22,1.62,-0.44,-1.1
2.613487005233765,3,3,3,3,-9.84,0.27,-0.08,0.95,-0.41,-1.37
2.623486995697021,3,3,3,3,-9.76,-0.03,-0.11,0.32,-0.37,-1.56
2.633486986160278,3,3,3,3,-9.970000000000001,0.61,-0.3,0.19,-0.04,-1.73
2.643486976623535,3,3,3,3,-9.949999999999999,0.84,-0.43,0.19,-0.04,-1.73
2.653486967086792,3,3,3,3,-9.91,0.64,-0.51,0.44,-0.16,-1.87
2.663486957550049,3,3,3,3,-9.9,0.99,-0.38,-0.03,-0.31,-1.9
2.673486948013306,3,3,3,3,-9.789999999999999,1.25,-0.2,-0.25,-0.21,-1.92
2.683486938476562,3,3,3,3,-9.77,0.93,-0.22,-1.17,0.11,-1.85
2.693486928939819,3,3,3,3,-9.609999999999999,0.14,-0.14,-2.56,0.32,-1.97
2.703486919403076,3,3,3,3,-9.58,-0.85,-0.14,-3.92,0.37,-2.08
2.713486909866333,3,3,3,3,-9.869999999999999,-1.24,-0.13,-4.56,0.43,-2.29
2.72348690032959,3,3,3,3,-9.779999999999999,-1.73,-0.07000000000000001,-3.79,-0.2,-2.77
2.733486890792847,3,3,3,3,-9.76,-1.84,-0.07000000000000001,-3.81,-0.8,-3.11
2.743486881256104,3,3,3,3,-9.59,-1.07,0.46,-2.97,-1.27,-3.52
2.75348687171936,3,3,3,3,-9.390000000000001,-1.33,0.4,-2.85,-1.43,-3.55
2.763486862182617,3,3,3,3,-9.26,-1.51,0.71,-3.31,-1.5,-3.62
2.773487091064453,3,3,3,3,-9.26,-1.87,0.6,-4.19,-1.23,-3.95
2.78348708152771,3,3,3,3,-9.4,-2.77,0.8,-5.53,-1.04,-4.17
2.793487071990967,3,3,3,3,-8.69,-4.62,1.37,-6.85,-1.72,-4.74
2.803487062454224,3,3,3,3,-8.880000000000001,-5.56,1.21,-9.1,-2.13,-4.98
2.81348705291748,3,3,3,3,-8.76,-5.26,1.81,-8.84,-2.76,-5.91
2.823487043380737,3,3,3,3,-8.4,-5.31,1.94,-7.19,-3.51,-7.4
2.834486961364746,3,3,3,3,-7.76,-3.38,2.3,-7.01,-3.63,-8.25
2.844486951828003,3,3,3,3,-7.71,-2.51,1.97,-7.44,-3.37,-8.869999999999999
2.85448694229126,3,3,3,3,-7.57,-2.16,2.01,-9.539999999999999,-3.75,-9.140000000000001
2.864486932754517,3,3,3,3,-7.06,-1.82,1.76,-11.58,-4.25,-9.449999999999999
2.874486923217773,3,3,3,3,-7.7,-2.6,0.28,-14.78,-3,-9.970000000000001
2.88448691368103,3,3,3,3,-8.84,-2.48,-1.36,-16.57,-2.08,-10.14
2.894486904144287,3,3,3,3,-10.3,-1.98,-2.47,-13.2,-1.78,-9.880000000000001
2.904486894607544,3,3,3,3,-9.619999999999999,0.64,-1.12,-6.06,-2.89,-10.54
2.914486885070801,3,3,3,3,-6.86,5.2,0.46,-2.64,-2.68,-10.31
2.924486875534058,3,3,3,3,-7.22,4.56,0.1,-8.48,1,-10.36
2.934486865997314,3,3,3,3,-7.97,3.54,0.14,-15.81,4.4,-10.91
2.94448709487915,3,3,3,3,-10.19,-3.23,-0.27,-21.16,5.29,-10.64
2.954487085342407,3,3,3,3,-11.59,-6.41,-0.59,-23.7,5.05,-9.630000000000001
2.964487075805664,3,3,3,3,-11.97,-7.68,-0.82,-21.82,6.01,-8.82
2.974487066268921,3,3,3,3,-10.98,-5.32,-0.32,-15.86,6.95,-8.960000000000001
2.984487056732178,3,3,3,3,-9.73,-0.24,0.63,-9.619999999999999,7.18,-10.33
2.994487047195435,3,3,3,3,-8.56,2.11,1.09,-4.24,8.289999999999999,-10.78
3.004487037658691,3,3,3,3,-8.82,3.96,-0.27,-5.15,9.960000000000001,-11.71
3.014487028121948,3,3,3,3,-9.470000000000001,3.98,-1.45,-8.35,8.630000000000001,-11.46
3.024487018585205,3,3,3,3,-10.35,-1.19,-2.26,-8.35,8.630000000000001,-11.46
3.034487009048462,3,3,3,3,-11.25,-4.9,-1.31,-11.94,7.09,-9.77
3.044486999511719,3,3,3,3,-11.58,-6.2,-1.01,-10.09,5.15,-8.69
3.054486989974976,3,3,3,3,-11.43,-5.7,-1.47,-5.87,4.8,-7.48
3.064486980438232,3,3,3,3,-10.18,-2.88,-0.62,-2.08,4.73,-6.66
3.074486970901489,3,3,3,3,-10.03,-1.48,-1.53,-2.08,4.73,-6.66
3.084486961364746,3,3,3,3,-9.449999999999999,-0.07000000000000001,-0.27,0.91,4.17,-7.75
3.094486951828003,3,3,3,3,-8.15,1.18,-0.74,-1.22,3.37,-7.01
3.10448694229126,3,3,3,3,-8.470000000000001,-0.47,-2.7,-4.04,3.27,-4.98
3.114486932754517,3,3,3,3,-9.99,-2.22,-3.31,-5.82,3.52,-1.72
3.124486923217773,3,3,3,3,-11.46,-4.19,-3.58,-5.82,3.52,-1.72
3.13448691368103,3,3,3,3,-12.84,-5.63,-3.42,-5.67,3.39,0.43
3.144486904144287,3,3,3,3,-13.05,-5.1,-2.52,-0.27,1.37,0.36
3.154486894607544,3,3,3,3,-14.04,-3.65,-2.08,1.22,1.05,0.85
3.164486885070801,3,3,3,3,-13.14,-2.41,-1.29,2.53,-0.11,0.1
3.174486875534058,3,3,3,3,-12.44,-1.35,-0.29,2.53,-0.11,0.1
3.184486865997314,3,3,3,3,-10.65,3.4,0.1,4.57,-1.78,0.83
3.19448709487915,3,3,3,3,-10.55,5.22,-0.27,5.95,-4.39,5.57
3.204487085342407,3,3,3,3,-10.74,6.24,-0.26,5.95,-5.19,8.15
3.214487075805664,3,3,3,3,-9.67,8.27,-0.5,3.77,-5.44,9.470000000000001
3.224487066268921,3,3,3,3,-12.59,2.15,-4.26,3.77,-5.44,9.470000000000001
3.234487056732178,3,3,3,3,-20.27,-5.14,-5.78,-2.67,-4.7,9.75
3.244487047195435,3,3,3,3,-29.2,-10.57,-4.73,1.65,-8.84,18.9
3.254487037658691,3,3,3,3,-34.02,-9.75,-1.87,15.31,-11.99,18.95
3.264487028121948,3,3,3,3,-28.11,6.79,2.42,23.35,-13.99,18.29
3.274487018585205,3,3,3,3,-28.48,14.41,3.69,23.35,-13.99,18.29
3.284487009048462,3,3,3,3,-32.26,17.3,4.18,24.1,-15.48,20.2
3.294486999511719,3,3,3,3,-34.73,15.44,1.82,20.66,-16.05,17.75
3.304486989974976,3,3,3,3,-35.15,14.06,-0.26,18.83,-13.84,17.96
3.314486980438232,3,3,3,3,-35.07,9.57,-2.14,14.11,-8.84,16.01
3.324486970901489,3,3,3,3,-32.86,2.59,-4.04,14.11,-8.84,16.01
3.334486961364746,3,3,3,2,-16.16,-1,-3.17,8.890000000000001,-0.78,13.19
3.344486951828003,3,3,3,2,-5.1,-5.87,-5.54,-26.34,4.19,18.61
3.35448694229126,3,3,3,2,-1.87,-31.24,-10.65,-53.08,-1.98,17.86
3.364486932754517,3,3,3,2,-7.91,-39,-0.8,-36.24,-0.98,9.449999999999999
3.374486923217773,3,3,3,2,2.29,-13.23,-1.12,-36.24,-0.98,9.449999999999999
3.38448691368103,3,3,3,2,-7.93,4.25,6.58,1.18,9.73,14.77
3.394486904144287,3,3,3,2,-9.17,-8.26,6.25,-16.57,-3.14,9.960000000000001
3.404486894607544,3,3,3,2,-1.01,-9.359999999999999,3.29,-5.49,0.5600000000000001,-0.52
3.414486885070801,3,3,3,2,-0.92,-4.23,-0.74,0.49,1.74,-5.92
3.424486875534058,3,3,3,2,0.36,-6.71,-1.87,0.49,1.74,-5.92
3.434486865997314,3,3,3,2,0.08,-4.12,-1.96,6.76,0.47,-3.16
3.44448709487915,3,3,3,2,0.25,1.59,-2.23,16.55,2.34,1.34
3.454487085342407,3,3,3,2,3.03,4.79,-1.55,15.19,3.69,0.35
3.464487075805664,3,3,3,2,2.64,6.46,-0.58,10.24,2.66,-0.63
3.474487066268921,3,3,3,2,1.4,6.8,-0.24,10.24,2.66,-0.63
3.484487056732178,3,3,3,2,0.65,6.34,0.53,4.7,0.4,0.58
3.494487047195435,3,3,3,2,0.39,2.67,0.66,-3.52,-0.8,0.84
3.504487037658691,3,3,3,2,0.39,0.72,0.32,-3.87,0.59,-0.61
3.514487028121948,3,3,3,2,0.23,0.28,0.41,-3.21,1.77,-1.64
3.524487018585205,3,3,3,2,0.65,0.93,0.27,-3.21,1.77,-1.64
3.534487009048462,3,3,3,2,1.08,-0.45,-0.01,-3.37,2,-1.8
3.544486999511719,3,3,3,2,0.31,-0.78,0.41,-1.56,-0.04,-1.93
3.554486989974976,3,3,3,2,-0.61,-0.71,0.64,-0.05,-0.9,-1.86
3.564486980438232,3,3,3,2,-1.18,-0.57,0.99,-0.25,-1.35,-2.1
3.574486970901489,3,3,3,2,-0.9,-2.09,1.2,-0.25,-1.35,-2.1
3.584486961364746,3,3,3,2,-0.34,-2.31,0.42,0.58,-1.4,-1.93
3.594486951828003,3,3,3,2,0.32,-2.46,-0.41,4.19,-0.83,-2.01
3.60448694229126,3,3,3,2,0.76,-1.88,-0.52,6.65,-0.79,-1.93
3.614486932754517,3,3,3,2,1.04,-1.09,0.16,8.960000000000001,-0.29,-1.59
3.624486923217773,3,3,3,2,0.78,-0.91,0.67,8.960000000000001,-0.29,-1.59
3.63448691368103,3,3,3,2,0.52,-0.63,0.61,10.59,0.5,-1.32
3.644486904144287,3,3,3,2,0.32,0.36,-0.03,13.72,1.37,-1.54
3.654486894607544,3,3,3,2,0.21,0.51,-0.08,13.51,0.34,-1.29
3.664486885070801,3,3,3,2,0.35,0.8100000000000001,0.08,12.3,-0.62,-1.06
3.674486875534058,3,3,3,2,0.59,1.28,0.21,12.3,-0.62,-1.06
3.684486865997314,3,3,3,2,0.36,1.29,0.58,10.85,-0.92,-1.22
3.69448709487915,3,3,3,2,0.38,1.45,0.38,7.54,-0.99,-1.37
3.704487085342407,3,3,3,2,0.16,1.16,0.55,4.43,-1.59,-1.1
3.714487075805664,3,3,3,2,0.01,0.43,0.9,1.44,-2.61,-0.7
3.724487066268921,3,3,3,2,0.47,-2.02,0.55,1.44,-2.61,-0.7
3.734487056732178,3,3,3,2,0.15,-3.49,0.48,-0.31,-2.47,-0.74
3.744487047195435,3,3,3,2,-0.67,-5,1.22,-4.14,-0.71,-0.58
3.754487037658691,3,3,3,2,-1.73,-7.03,1.79,-5.16,-0.57,-0.51
3.764487028121948,3,3,3,2,-3.53,-14.45,1.79,-5.54,-0.97,-1.13
3.774487018585205,3,3,3,2,-4.83,-17.15,-1.52,-5.54,-0.97,-1.13
3.784487009048462,3,3,3,2,-5.87,-13.6,-4.15,0.75,0.7,-2.94
3.794486999511719,3,3,3,2,-4.6,-3.4,-3.48,26.68,-2.83,-1.44
3.804486989974976,3,3,3,2,-13.04,-0.2,14.78,-19.3,-5.79,3.17
3.814486980438232,3,3,3,2,-22.43,-39,-13.76,-18.78,-8.300000000000001,-1.67
3.824486970901489,3,3,3,2,-32.36,0.76,-9.51,-18.78,-8.300000000000001,-1.67
3.834486961364746,3,3,3,2,-39.25,39.44,0.74,58.15,2.17,-5.44
3.844486951828003,3,3,3,2,-23.83,-34.26,-4.37,-31.73,10.85,-17.85
3.855486869812012,3,3,3,2,-8.140000000000001,0.01,-4.72,-12.08,9.08,-20.86
3.865487098693848,3,3,3,2,-24.23,3.36,-0.75,-31.04,-0.23,-4.15
3.875487089157104,3,3,3,2,-39.25,-21.83,3.1,-31.04,-0.23,-4.15
3.885487079620361,3,3,3,2,-29.4,5.13,6.92,-14.45,6.98,-4.96
3.895487070083618,3,3,3,2,-6.21,38.95,5.31,37.33,15.76,-6.19
3.905487060546875,3,3,3,2,1.57,39.44,4.51,0.21,8.800000000000001,-5.92
3.915487051010132,3,3,3,2,-1.13,30.56,4.23,-33.66,2.68,-11.14
3.925487041473389,3,3,3,2,-16.55,4.42,-2.88,-33.66,2.68,-11.14
3.935487031936646,3,3,3,2,-21.45,-1.15,-3.26,-36.66,-1.69,-3.85
3.945487022399902,3,3,3,2,-21.09,-4.55,-3.33,-6.72,-2.25,2.99
3.955487012863159,3,3,3,2,-16.01,1.48,-4.8,4.69,-2.29,2.33
3.965487003326416,3,3,3,2,-16.07,-1.34,-3.91,6.73,-3.08,2.85
3.975486993789673,3,3,3,2,-16.07,-1.34,-3.91,6.73,-3.08,2.85
3.98548698425293,3,3,3,2,-16.07,-1.5,-3.37,9.4,-3.56,2.76
3.995486974716187,3,3,3,2,-12.73,5.02,-2.07,17.73,-2.67,5.11
4.005486965179443,3,3,3,2,-12.38,5.02,-1.28,12.99,-2.51,5.55
4.0154869556427,3,3,3,2,-11.73,3.73,-0.68,4.76,-2.72,5.94
4.025486946105957,3,3,3,2,-11.73,3.73,-0.68,4.76,-2.72,5.94
4.035486936569214,3,3,3,2,-11.58,0.49,0.13,-1,-2.98,7.97
4.045486927032471,3,3,3,2,-10.14,-1.5,0.63,-0.9399999999999999,-3.39,7.81
4.055486917495728,3,3,3,2,-9.31,-1.16,1.18,4.06,-3.47,7.91
4.065486907958984,3,3,3,2,-9.109999999999999,0.01,1.77,8.25,-3.59,7.5
4.075486898422241,3,3,3,2,-9.109999999999999,0.01,1.77,8.25,-3.59,7.5
4.085486888885498,3,3,3,2,-9.390000000000001,0.35,2.14,9.73,-3.64,6.5
4.095486879348755,3,3,3,2,-8.800000000000001,0.46,2.03,8.56,-2.54,5.21
4.105486869812012,3,3,3,2,-7.8,0.97,1.64,7.49,-1.74,5.13
4.125487089157104,3,3,3,2,-7.05,1.48,1.11,3.34,-0.91,4.67
4.135487079620361,3,3,3,2,-6.8,1.7,0.52,1.05,-0.97,4.56
4.145487070083618,3,3,3,2,-6.5,-1.04,-0.28,-0.92,-0.53,4.48
4.155487060546875,3,3,3,2,-6.53,-1.5,-0.43,-1.51,0.39,4.72
4.165487051010132,3,3,3,2,-6.51,-2.01,-0.79,-0.63,1.3,4.61
4.175487041473389,3,3,3,2,-6.51,-2.01,-0.79,0.26,1.54,4.48
4.185487031936646,3,3,3,2,-6.51,-2.84,-1.11,0.85,1.14,4.59
4.195487022399902,3,3,3,2,-7.46,-4.45,-0.78,2.77,0.68,3.78
4.205487012863159,3,3,3,2,-8.210000000000001,-4.51,-0.24,4.79,0.78,3.45
4.215487003326416,3,3,3,2,-8.890000000000001,-4.16,0,7.12,1.22,2.61
4.225486993789673,3,3,3,2,-8.890000000000001,-4.16,0,8.26,0.83,2.49
4.23548698425293,3,3,3,2,-10.3,-3.19,1.46,9.699999999999999,0.08,2.77
4.245486974716187,3,3,3,2,-10.48,-1.15,1.35,9.5,0.52,2.97
4.255486965179443,3,3,3,2,-10.44,-0.96,1.33,7.46,0.74,2.76
4.2654869556427,3,3,3,2,-10.5,-0.65,1.47,4.92,0.06,2.21
4.275486946105957,3,3,3,2,-10.5,-0.65,1.47,2.9,-0.61,1.32
4.285486936569214,3,3,3,2,-10.34,-0.44,1.37,0.19,-0.54,0.59
4.295486927032471,3,3,3,2,-10.32,-1.12,0.17,-2.67,-0.73,0.35
4.305486917495728,3,3,3,2,-10.52,-0.93,0.15,-4.42,-1.2,0.03
4.315486907958984,3,3,3,2,-9.9,-0.5600000000000001,0.17,-4.05,-1.35,-0.47
4.325486898422241,3,3,3,2,-9.9,-0.5600000000000001,0.17,-3.36,-0.88,-0.49
4.335486888885498,3,3,3,2,-9.800000000000001,-0.31,-0.01,-2.18,-0.67,-0.04
4.345486879348755,3,3,3,2,-10.1,0.83,-0.21,-1.9,-0.97,0.09
4.355486869812012,3,3,3,2,-9.93,1.17,-0.23,-3.12,-1.03,0.72
4.365487098693848,3,3,3,2,-9.699999999999999,1.31,-0.19,-3.46,-0.93,0.66
4.375487089157104,3,3,3,3,-9.699999999999999,1.31,-0.19,-3.45,-1.08,1.13
4.385487079620361,3,3,3,3,-9.24,0.32,0.08,-4.15,-0.97,1.55
4.395487070083618,3,3,3,3,-9.1,-0.09,0.04,-4.75,-0.6,1.68
4.405487060546875,3,3,3,3,-9.09,-0.32,0.23,-4.38,-0.21,1.48
4.415487051010132,3,3,3,3,-9.24,-0.59,0.62,-2.97,0.02,1.1
4.425487041473389,3,3,3,3,-9.279999999999999,-0.14,0.75,-1.3,0.24,0.8100000000000001
4.435487031936646,3,3,3,3,-9.27,-0.17,0.71,0.01,0.33,0.51
4.445487022399902,3,3,3,3,-9.49,0.31,0.85,0.8100000000000001,0.51,0.31
4.455487012863159,3,3,3,3,-9.93,0.71,0.63,1.02,1.08,0.41
4.465487003326416,3,3,3,3,-9.880000000000001,0.99,0.41,1.04,1.48,0.4
4.475486993789673,3,3,3,3,-9.85,1.06,0.01,1.01,1.39,0.3
4.48548698425293,3,3,3,3,-9.73,1.02,-0.08,1.2,0.97,0.54
4.495486974716187,3,3,3,3,-9.75,1.01,-0.57,0.7,0.45,0.96
4.505486965179443,3,3,3,3,-9.880000000000001,0.83,-0.51,-0.82,0.19,1.18
4.5154869556427,3,3,3,3,-9.77,0.53,-0.29,-1.68,0.05,1.01
4.525486946105957,3,3,3,3,-9.65,0.16,-0.39,-2.49,0.04,0.82
4.535486936569214,3,3,3,3,-10.03,0.55,-0.09,-2.25,-0.12,0.83
4.545486927032471,3,3,3,3,-10.03,0.88,0,-1.04,-0.5,0.61
4.555486917495728,3,3,3,3,-9.779999999999999,1.04,0.44,-0.71,-0.58,0.66
4.565486907958984,3,3,3,3,-9.65,0.63,0.6,-1.25,-0.68,0.9
4.575486898422241,3,3,3,3,-9.9,0.13,0.75,-1.29,-0.51,1.21
4.585486888885498,3,3,3,3,-9.93,-0.05,0.53,-0.46,-0.24,1.35
4.595486879348755,3,3,3,3,-9.880000000000001,0.06,0.3,1.01,0.1,1.12
4.605486869812012,3,3,3,3,-9.449999999999999,0,0.16,2.21,0.18,1
4.615487098693848,3,3,3,3,-9.460000000000001,0,0.17,2.54,0.44,1.34
4.625487089157104,3,3,3,3,-9.550000000000001,0.11,0.06,3.06,0.79,1.44
4.635487079620361,3,3,3,3,-9.640000000000001,-0.08,-0.1,3.14,1.02,1.33
4.645487070083618,3,3,3,3,-9.720000000000001,0.18,0,3.4,0.7,1.33
4.655487060546875,3,3,3,3,-9.800000000000001,0.39,0.09,3.6,0.34,1.28
4.665487051010132,3,3,3,3,-9.74,0.53,0.33,3.68,0.05,1.08
4.675487041473389,3,3,3,3,-9.640000000000001,0.32,0.38,3,-0.19,0.9
4.685487031936646,3,3,3,3,-9.82,-0.28,0.57,1.9,-0.1,0.99
4.695487022399902,3,3,3,3,-9.970000000000001,-0.47,0.5,0.76,-0.02,1.08
4.705487012863159,3,3,3,3,-10.05,-0.5600000000000001,0.51,0.16,0.07000000000000001,0.97
4.715487003326416,3,3,3,3,-10.09,-0.61,0.31,0.66,0.33,0.53
4.725486993789673,3,3,3,3,-9.83,0.19,0.33,1.55,0.53,-0.04
4.73548698425293,3,3,3,3,-9.640000000000001,0.38,0.33,2.19,0.61,-0.3
4.745486974716187,3,3,3,3,-9.6,0.28,0.16,1.66,0.68,-0.08
4.755486965179443,3,3,3,3,-9.630000000000001,0.24,0.03,0.77,0.91,0.29
4.7654869556427,3,3,3,3,-9.880000000000001,-0.48,-0.13,0.21,0.9,0.21
4.775486946105957,3,3,3,3,-9.949999999999999,-0.51,-0.09,0.29,0.47,-0.18
4.785486936569214,3,3,3,3,-9.81,0.24,0.17,1,-0.07000000000000001,-0.58
4.795486927032471,3,3,3,3,-9.699999999999999,0.37,0.23,1.24,-0.35,-0.67
4.805486917495728,3,3,3,3,-9.76,1.14,0.1,0.88,-0.16,-0.89
4.815486907958984,3,3,3,3,-9.73,1.3,0.04,0.53,0.18,-1.08
4.825486898422241,3,3,3,3,-9.869999999999999,1.52,0.05,0.63,0.2,-0.88
4.835486888885498,3,3,3,3,-9.9,1.64,-0.02,0.99,0.25,-0.97
4.845486879348755,3,3,3,3,-9.77,1.05,-0.39,1,0.38,-1.08
4.855486869812012,3,3,3,3,-9.91,1.07,-0.13,1.07,0.13,-0.88
4.865487098693848,3,3,3,3,-9.81,1.23,0.07000000000000001,1.59,-0.32,-0.89
4.876487016677856,3,3,3,3,-9.73,0.98,0.24,1.63,-0.21,-1.05
4.886487007141113,3,3,3,3,-9.77,0.74,0.08,1.24,0.3,-1.07
4.89648699760437,3,3,3,3,-9.779999999999999,0.63,-0.08,1.21,0.58,-1.16
4.906486988067627,3,3,3,3,-9.859999999999999,0.77,-0.02,1.49,0.54,-1.08
4.916486978530884,3,3,3,3,-9.789999999999999,0.62,0,1.77,0.21,-1.19
4.926486968994141,3,3,3,3,-9.57,-0.02,0.5,1.46,0.22,-1.04
4.936486959457397,3,3,3,3,-9.41,-0.5,0.52,1,0.24,-0.9399999999999999
4.946486949920654,3,3,3,3,-9.42,-1.21,0.34,0.38,0.36,-0.8100000000000001
4.956486940383911,3,3,3,3,-9.539999999999999,-2.32,0.24,-0.03,0.6,-1.18
4.966486930847168,3,3,3,3,-9.52,-2.8,0.27,0.29,0.76,-1.93
4.976486921310425,3,3,3,3,-9.74,-2.51,0.19,0.21,0.85,-2.34
4.986486911773682,3,3,3,3,-9.630000000000001,-2.01,0.51,0.9,0.47,-3.03
4.996486902236938,3,3,3,3,-9.220000000000001,-2.77,0.45,-0.17,-0.04,-3.08
5.006486892700195,3,3,3,3,-9.119999999999999,-3.23,0.5600000000000001,-1.5,-0.44,-2.98
5.016486883163452,3,3,3,3,-9.1,-3.85,0.63,-2.27,-0.85,-3.39
5.026486873626709,3,3,3,3,-9.24,-4.45,0.9,-2.63,-1.21,-3.94
5.036486864089966,3,3,3,3,-9.119999999999999,-4.48,1.86,-2.92,-1.64,-4.86
5.046487092971802,3,3,3,3,-8.84,-4.32,2.61,-4.92,-2.41,-5.62
5.056487083435059,3,3,3,3,-8.76,-5.15,2.75,-9.449999999999999,-3,-6.52
5.066487073898315,3,3,3,3,-8.91,-7.11,2.33,-13.66,-3.12,-8.07
5.076487064361572,3,3,3,3,-8.1,-7.03,1.56,-12.74,-3.42,-9.6
5.086487054824829,3,3,3,3,-7.47,-3.97,1.36,-7.57,-3.51,-10.54
5.096487045288086,3,3,3,3,-7.19,-1.74,0.62,-3.71,-2.86,-10.97
5.106487035751343,3,3,3,3,-7.54,0.28,0.33,-2.03,-2.99,-10.06
5.1164870262146,3,3,3,3,-7.95,4.18,0.71,-1.84,-3.54,-9.630000000000001
5.126487016677856,3,3,3,3,-8.33,3.31,0.18,-9.25,-2.86,-9.449999999999999
5.136487007141113,3,3,3,3,-9.19,2.67,-0.47,-15.05,-2.29,-9.970000000000001
5.14648699760437,3,3,3,3,-9.33,2.98,-0.51,-16.35,-1.29,-11.47
5.156486988067627,3,3,3,3,-8.359999999999999,1.78,-1.41,-19.04,1.55,-12.73
5.166486978530884,3,3,3,3,-8.15,1.4,-1.86,-20.79,5.02,-14.06
5.176486968994141,3,3,3,3,-7.9,0.96,-0.75,-20.15,6.21,-14.26
5.186486959457397,3,3,3,3,-7.11,0.91,0.89,-19.29,5.89,-12.14
5.196486949920654,3,3,3,3,-8.57,-1.68,-0.6,-21.55,7.7,-10.91
5.206486940383911,3,3,3,3,-10.2,-4.51,-0.43,-23.13,7.96,-10.86
5.216486930847168,3,3,3,3,-11.31,-5.79,1.35,-17.48,5.94,-11.62
5.226486921310425,3,3,3,3,-12.5,-4.91,-0.24,-12.07,8.1,-12.2
5.236486911773682,3,3,3,3,-12.92,-0.79,-0.35,-6.99,8.25,-12.19
5.246486902236938,3,3,3,3,-11.69,1.36,-0.49,-1.4,7.51,-12.46
5.256486892700195,3,3,3,3,-10.33,2.52,-0.97,-0.46,9.300000000000001,-13.52
5.266486883163452,3,3,3,3,-9.66,1.14,-0.93,-1.59,9.220000000000001,-12.8
5.276486873626709,3,3,3,3,-8.789999999999999,-0.32,-0.41,-3.17,7.43,-11.75
5.286486864089966,3,3,3,3,-8.960000000000001,-1.67,1.59,-5.85,7.02,-11.43
5.296487092971802,3,3,3,3,-8.82,-3.59,-0.7,-9.17,7.06,-11.71
5.306487083435059,3,3,3,3,-11.29,-4.17,-1.27,-9.56,5.75,-11.3
5.316487073898315,3,3,3,3,-12.44,-4.29,-1.37,-8.52,4.63,-10.16
5.326487064361572,3,3,3,3,-12.26,-3.62,-1.58,-5.41,3.65,-8.15
5.336487054824829,3,3,3,3,-11.55,-3.56,-2.11,-1.81,2.96,-5.43
5.346487045288086,3,3,3,3,-10.59,-3.2,-2.5,1.05,1.85,-3.16
5.356487035751343,3,3,3,3,-10.36,-2.36,-2.52,2.09,0.66,-2.82
5.3664870262146,3,3,3,3,-11.04,-2.26,-2.72,2.48,0.44,-2.67
5.376487016677856,3,3,3,3,-11.52,-1.7,-2.48,3.06,-0.47,-1.38
5.386487007141113,3,3,3,3,-12.3,-0.57,-2.04,2.54,-0.52,0.08
5.39648699760437,3,3,3,3,-13.45,-0.24,-1.55,0.5,-0.11,2
5.406486988067627,3,3,3,3,-14.18,-0.49,-1.02,-2.03,0.03,3.97
5.416486978530884,3,3,3,3,-14.47,0.08,-0.63,-3.31,-0.3,5.56
5.426486968994141,3,3,3,3,-13.86,0.9399999999999999,-0.04,-3.02,-1.76,6.37
5.436486959457397,3,3,3,3,-12.57,1.45,-0.55,-1.44,-3.65,7.18
5.446486949920654,3,3,3,3,-11.72,1.29,-0.74,1.01,-5.23,6.83
5.456486940383911,3,3,3,3,-12.76,-0.27,-3.04,1.6,-5.91,6.72
5.466486930847168,3,3,3,3,-20.17,-4.59,-5.63,1.25,-6.91,8.81
5.476486921310425,3,3,3,3,-25.17,-5.01,-4.99,3,-8.92,13.18
5.486486911773682,3,3,3,3,-27.5,-1.77,-4.31,11.06,-11.76,18.56
5.496486902236938,3,3,3,3,-28.07,4.58,-3.61,19.71,-14.15,21.33
5.506486892700195,3,3,3,3,-30.64,11.46,-0.54,22.8,-15.67,22.47
5.516486883163452,3,3,3,3,-34,11.92,1.24,25.29,-17.36,22.85
5.526486873626709,3,3,3,3,-38.38,11.98,3.06,28.99,-18.03,21.92
5.536486864089966,3,3,3,3,-35.11,11.7,4.38,30.18,-16.4,16.83
5.546487092971802,3,3,3,3,-27.82,4,2.38,27.73,-12.16,16.34
5.556487083435059,3,3,3,3,-25.32,-0.74,-1.7,23.82,-6.61,15.56
5.566487073898315,3,3,3,3,-17.16,0.79,-3.68,23.83,2.62,12.05
5.576487064361572,3,3,3,3,-4.15,-0.11,0.27,2.11,9.449999999999999,9.98
5.586487054824829,3,3,3,3,-6.54,-39,3.27,-54.1,7.61,8.039999999999999
5.596487045288086,3,3,3,3,-2.05,-38.79,3.13,-38.59,-1.05,5.87
5.606487035751343,3,3,3,3,3.09,-15.25,-2.78,22.43,2.92,8.66
5.6164870262146,3,3,3,3,-7.03,2.3,3.51,27.96,4.89,15.38
5.626487016677856,3,3,3,3,-2.44,-2.81,1.3,2.98,1.01,7.85
5.636487007141113,3,3,3,3,0.37,0.16,-1.05,3.42,1.03,2.88
5.64648699760437,3,3,3,3,-1.16,2.26,-3.43,5.67,1.96,0.91
5.656486988067627,3,3,3,3,-1.04,4.29,-2.63,8.630000000000001,0.27,0.86
5.666486978530884,3,3,3,3,0.53,4.01,-1.27,9.630000000000001,-1.25,1.66
5.676486968994141,3,3,3,3,2.49,2.32,0.42,5.31,-1.47,2.2
5.686486959457397,3,3,3,3,3.13,1.39,1.27,3,0.29,0.06
5.696486949920654,3,3,3,3,2.12,1.25,0.11,2.5,1.43,-1.65
5.706486940383911,3,3,3,3,1.66,-0.62,-0.22,-1.62,1.17,-1.43
5.716486930847168,3,3,3,3,1.24,-1.43,-0.21,-4.88,0.59,-0.85
5.726486921310425,3,3,3,2,0.5600000000000001,-1.38,-0.5,-4.96,0.74,-2.14
5.736486911773682,3,3,3,2,-0.32,-0.82,-0.95,-5.42,0.63,-2.57
5.746486902236938,3,3,3,2,-0.1,-0.89,-0.82,-4.49,-0.34,-2.43
5.756486892700195,3,3,3,2,-0.22,-0.47,-0.65,-1.9,-0.87,-2
5.766486883163452,3,3,3,2,-0.51,0.85,-0.52,1.24,-0.8100000000000001,-1.78
5.776486873626709,3,3,3,2,-1.12,1.11,-0.15,2.58,-0.41,-1.75
5.786486864089966,3,3,3,2,-0.96,0.59,-0.07000000000000001,2.63,0.02,-1.33
5.796487092971802,3,3,3,2,-0.74,-0.42,0.2,1.3,0.16,-0.6
5.806487083435059,3,3,3,2,-0.09,-1.25,0.79,0.33,0.25,-0.05
5.816487073898315,3,3,3,2,1.14,-2.87,1.11,-0.85,0.98,0.05
5.826487064361572,3,3,3,2,1.56,-2.73,0.66,-0.73,1.86,0.04
5.836487054824829,3,3,3,2,1.32,-1.94,0.48,-0.93,2.59,0.08
5.846487045288086,3,3,3,2,0.6899999999999999,-0.86,0.19,-1.8,3.03,0.01
5.856487035751343,3,3,3,2,0.41,1.85,0.21,-1.6,2.73,0.75
5.8664870262146,3,3,3,2,0.65,2.84,0.16,0.35,1.55,1.85
5.876487016677856,3,3,3,2,0.53,2.26,-0.27,2.11,0.85,2.26
5.886487007141113,3,3,3,2,0.21,1.43,-0.43,3.55,0.71,1.48
5.89648699760437,3,3,3,2,0.09,-0.51,-0.48,5.04,0.27,0.9
5.907486915588379,3,3,3,2,-0.64,-0.92,-0.02,7.01,0.62,1.14
5.917486906051636,3,3,3,2,-1.24,-1.68,0.31,7.53,0.04,1.33
5.927486896514893,3,3,3,2,-1.66,-3.59,2.42,7.6,-0.8,1.26
5.937486886978149,3,3,3,2,-1.07,-4.52,2.48,6.9,-1.64,1.09
5.947486877441406,3,3,3,2,-0.49,-4.75,1.87,6.59,-1.53,0.59
5.957486867904663,3,3,3,2,-0.68,-4.73,1.19,4.9,-0.53,0.42
5.967487096786499,3,3,3,2,-2.75,-6.74,-1.6,3.48,-0.08,0.29
5.977487087249756,3,3,3,2,-2.84,-6.68,0.47,8.81,-0.77,-1.08
5.987487077713013,3,3,3,2,-1.72,-6.37,1.93,15.94,-2.54,-1.92
5.99748706817627,3,3,3,2,-1.06,-6.29,1.53,21.38,-2.39,-1.76
6.007487058639526,3,3,3,2,-7.07,0.24,17,23.81,-2.22,-1.66
6.017487049102783,3,3,3,2,-20.37,-34.11,6.95,-7.61,-6.62,-0.82
6.02748703956604,3,3,3,2,-20.23,-29.53,-25.17,-34.82,-16.97,-0.39
6.037487030029297,3,3,3,2,-33.99,39.44,9.91,77.20999999999999,2.5,0.61
6.047487020492554,3,3,3,2,-38.45,-39,-7.22,-26.62,-17.6,1.7
6.057487010955811,3,3,3,2,-16.86,-36.35,-2.07,-65.77,-4.72,-27.76
6.067487001419067,3,3,3,2,-11.78,-8.42,4.79,-25.23,14.89,-29.2
6.077486991882324,3,3,3,2,-35.13,4.78,3.96,-5.28,8.85,-3.77
6.087486982345581,3,3,3,2,-33.34,24.5,0.02,3.93,8.5,0.6
6.097486972808838,3,3,3,2,-19.31,36.58,1.18,5.25,11.41,-8.4
6.107486963272095,3,3,3,2,-8.52,39.44,-0.44,-0.19,9.119999999999999,-12.56
6.117486953735352,3,3,3,2,-7.83,27.35,-2.23,-17.74,3.73,-8.119999999999999
6.127486944198608,3,3,3,2,-20.63,2.25,-3.14,-28.2,-1.41,-2.14
6.137486934661865,3,3,3,2,-24.55,-3.48,-2.28,-23.46,-3.38,3.53
6.147486925125122,3,3,3,2,-23.51,-2.99,-2.6,-10.83,-2.41,4.74
6.157486915588379,3,3,3,2,-20.22,0,-1.13,0.79,-1.93,3.23
6.167486906051636,3,3,3,2,-14.64,3.4,-0.3,7.09,-2.6,2.89
6.177486896514893,3,3,3,2,-12.88,3.28,-0.37,9.77,-3.22,3.62
6.187486886978149,3,3,3,2,-12.73,3.29,-0.04,12.74,-3.88,5.8
6.197486877441406,3,3,3,2,-13.26,3.19,0.4,13.28,-3.84,4.6
6.207486867904663,3,3,3,2,-9.76,1.37,1.03,10.6,-3.36,4.55
6.217487096786499,3,3,3,2,-8.960000000000001,0.73,1.35,7.21,-3.46,8.619999999999999
6.227487087249756,3,3,3,2,-9.09,-0.01,1.41,5.34,-3.27,11.46
6.237487077713013,3,3,3,2,-9.23,-0.88,1.6,4.5,-3.05,11.85
6.24748706817627,3,3,3,2,-8.81,-2.31,2,3.88,-2.91,10.42
6.257487058639526,3,3,3,2,-8.19,-2.58,2.03,4.41,-2.53,8.19
6.267487049102783,3,3,3,2,-8.029999999999999,-2.5,2.76,6.42,-1.67,6.52
6.27748703956604,3,3,3,2,-6.89,-0.9399999999999999,3.61,8.73,-0.88,4.42
6.287487030029297,3,3,3,2,-6.66,-0.91,3.29,9.539999999999999,0.32,2.39
6.297487020492554,3,3,3,2,-7,-0.89,2.9,6.91,1.51,1.74
6.307487010955811,3,3,3,2,-7.08,-1.19,2.61,3.15,1.84,2.15
6.317487001419067,3,3,3,2,-7.18,-1.89,1.25,0.02,1.91,2.74
6.327486991882324,3,3,3,3,-7.44,-2.35,0.31,-3.65,1.88,3.36
6.337486982345581,3,3,3,3,-7.28,-3.16,-0.02,-5.96,1.43,2.93
6.347486972808838,3,3,3,3,-7.29,-4.52,-0.43,-5.97,1.39,2.25
6.357486963272095,3,3,3,3,-8.15,-3.65,0.53,-4.05,1.23,1.53
6.367486953735352,3,3,3,3,-8.48,-2.74,1.09,-2.07,0.51,0.92
6.377486944198608,3,3,3,3,-8.68,-1.45,1.46,-1.22,-0.52,0.85
6.387486934661865,3,3,3,3,-8.59,-0.36,1.01,-2.31,-0.78,0.8100000000000001
6.397486925125122,3,3,3,3,-8.75,-0.31,-0.12,-3.94,-0.58,0.24
6.407486915588379,3,3,3,3,-8.5,0.22,-0.48,-3.78,-0.5,-0.35
6.417486906051636,3,3,3,3,-8.300000000000001,0.84,-0.72,-2.59,-0.3,-0.38
6.427486896514893,3,3,3,3,-8.289999999999999,1.53,-1.12,-2.16,0.35,-0.48
6.437486886978149,3,3,3,3,-7.75,0.84,-1.8,-2.7,0.6899999999999999,-0.44
6.447486877441406,3,3,3,3,-8.68,1.24,-1.73,-3,0.5600000000000001,1.19
6.457486867904663,3,3,3,3,-10,0.39,-1.68,-3.66,0.45,1.69
6.467487096786499,3,3,3,3,-11.42,-2.09,-0.75,-5.72,-0.18,0.57
6.477487087249756,3,3,3,3,-11.37,-4.58,0.35,-4.97,-1.47,-0.17
6.487487077713013,3,3,3,3,-11.83,-4.81,0.91,-1.55,-1.71,1.04
6.49748706817627,3,3,3,3,-11.9,-3.74,1.4,1.68,-0.72,1.5
6.507487058639526,3,3,3,3,-11.16,-2.58,1.67,3.83,0.77,0.5600000000000001
6.517487049102783,3,3,3,3,-10.09,-1.15,1.48,5.1,1.55,0.09
6.52748703956604,3,3,3,3,-9.949999999999999,0.17,1.06,6.41,2.1,0.27
6.537487030029297,3,3,3,3,-9.630000000000001,1.8,0.79,7.54,2.65,0.2
6.547487020492554,3,3,3,3,-9.32,3.26,0.21,6.6,2.62,0.33
6.557487010955811,3,3,3,3,-9.73,3.08,-0.21,3.85,2.09,0.37
6.567487001419067,3,3,3,3,-9.699999999999999,2.12,-0.15,0.74,1.17,0.41
6.577486991882324,3,3,3,3,-9.76,0.88,-0.17,-1.83,0.44,0.7
6.587486982345581,3,3,3,3,-9.869999999999999,0.29,-0.11,-2.22,0.15,0.85
6.597486972808838,3,3,3,3,-9.66,-0.72,0.06,-1.59,-0.02,0.72
6.607486963272095,3,3,3,3,-9.58,-1.63,0.17,-1,0.29,0.7
6.617486953735352,3,3,3,3,-9.58,-2.07,0.12,0.22,0.55,0.84
6.627486944198608,3,3,3,3,-9.279999999999999,-1.14,0.25,1.99,0.68,0.66
6.637486934661865,3,3,3,3,-9.31,-1.4,0.34,2.98,0.77,0.36
6.647486925125122,3,3,3,3,-9.5,-0.66,0.33,3.24,0.86,0.01
6.657486915588379,3,3,3,3,-9.74,-0.6899999999999999,0.46,2.72,0.57,-0.2
6.667486906051636,3,3,3,3,-9.74,-1.49,0.9399999999999999,1.32,0.11,-0.19
6.677486896514893,3,3,3,3,-9.69,-1.32,0.93,0.53,-0.1,0.34
6.687486886978149,3,3,3,3,-9.93,-0.8100000000000001,0.91,0.31,0.01,0.34
6.697486877441406,3,3,3,3,-9.859999999999999,-0.87,0.68,0.31,-0.11,-0.21
6.707486867904663,3,3,3,3,-9.5,-0.59,0.77,1.07,-0.25,-0.42
6.717487096786499,3,3,3,3,-9.609999999999999,-0.11,0.78,1.68,-0.07000000000000001,-0.37
6.727487087249756,3,3,3,3,-9.869999999999999,-0.3,0.57,1.2,0.21,-0.47
6.737487077713013,3,3,3,3,-10.02,-0.18,0.63,0.71,0.32,-0.84
6.74748706817627,3,3,3,3,-9.779999999999999,0.18,0.18,0.15,0.45,-0.7
6.757487058639526,3,3,3,3,-9.890000000000001,0.41,0.13,-0.3,0.61,-0.51
6.767487049102783,3,3,3,3,-9.619999999999999,0.22,-0.02,-0.48,0.88,-0.87
6.77748703956604,3,3,3,3,-9.880000000000001,-0.09,-0.32,0.29,0.79,-0.71
6.787487030029297,3,3,3,3,-10.06,0.99,-0.01,1.02,0.25,-0.41
6.797487020492554,3,3,3,3,-9.98,0.5600000000000001,0,-0.26,0.15,-0.05
6.807487010955811,3,3,3,3,-9.91,0.24,0.37,-1.21,-0.03,-0.08
6.817487001419067,3,3,3,3,-9.84,-0.42,0.57,-1.82,-0.12,0.18
6.827486991882324,3,3,3,3,-9.75,-1.24,0.62,-1.39,-0.01,0.24
6.837486982345581,3,3,3,3,-9.59,-1.09,0.7,0.26,0.43,0.04
6.847486972808838,3,3,3,3,-9.6,-0.5600000000000001,0.42,1.92,0.92,-0.17
6.857486963272095,3,3,3,3,-9.68,-0.08,0.29,3.3,1.18,-0.27
6.867486953735352,3,3,3,3,-9.74,0.96,0.09,3.81,1.45,-0.39
6.877486944198608,3,3,3,3,-10.01,0.95,-0.02,3.59,1.62,-0.36
6.887486934661865,3,3,3,3,-10.15,0.73,-0.04,2.98,1.4,-0.36
6.897486925125122,3,3,3,3,-10.05,0.67,-0.21,2.38,1.08,-0.18
6.907486915588379,3,3,3,3,-9.82,0.24,-0.33,1.98,1.1,-0.07000000000000001
6.917486906051636,3,3,3,3,-9.74,-0.05,-0.18,1.82,1.02,0.26
6.928487062454224,3,3,3,3,-9.789999999999999,-0.07000000000000001,-0.07000000000000001,1.71,0.93,0.58
6.93848705291748,3,3,3,3,-9.82,-0.14,0.04,1.39,0.85,0.5600000000000001
6.948487043380737,3,3,3,3,-9.57,-0.23,0.11,0.91,0.74,0.33
6.958487033843994,3,3,3,3,-9.59,-0.32,0.28,0.64,0.99,0.17
6.968487024307251,3,3,3,3,-9.74,-0.11,0.27,0.74,1.17,0.18
6.978487014770508,3,3,3,3,-9.91,0.92,0.32,1.2,0.99,0.09
6.988487005233765,3,3,3,3,-9.93,0.76,0.21,0.6,0.63,-0.1
6.998486995697021,3,3,3,3,-10,0.48,-0.05,-0.36,0.65,-0.04
7.008486986160278,3,3,3,3,-10.11,0.31,-0.15,-0.27,0.37,0.2
7.018486976623535,3,3,3,3,-10.05,0.16,-0.17,-0.14,0.22,0.34
7.028486967086792,3,3,3,3,-9.84,0.42,-0.11,0.38,0.13,0.36
7.038486957550049,3,3,3,3,-9.77,0.37,-0.07000000000000001,0.51,0.2,0.28
7.048486948013306,3,3,3,3,-9.84,0.21,-0.09,0.01,0.44,0.3
7.058486938476562,3,3,3,3,-9.92,0.28,0.09,-0.14,0.48,0.35
7.068486928939819,3,3,3,3,-9.779999999999999,0.2,0.04,-0.06,0.25,0.64
7.078486919403076,3,3,3,3,-9.789999999999999,0.08,0.08,-0.8100000000000001,0.26,0.76
7.088486909866333,3,3,3,3,-9.869999999999999,-0.02,0.09,-1.15,0.28,0.7
7.09848690032959,3,3,3,3,-9.630000000000001,-0.5600000000000001,-0.05,-1.05,0.2,0.49
7.108486890792847,3,3,3,3,-9.699999999999999,-0.93,-0.01,-1.55,0.18,0.45
7.148487091064453,3,3,3,3,-9.9,-0.48,0.06,-0.58,0.65,-0.1
7.15848708152771,3,3,3,3,-9.82,-0.33,0,-0.37,0.72,-0.14
7.168487071990967,3,3,3,3,-9.73,-0.13,-0.03,-0.53,0.64,-0.07000000000000001
7.178487062454224,3,3,3,3,-9.83,-0.21,-0.02,-0.6899999999999999,0.44,-0.03
7.18848705291748,3,3,3,3,-9.81,-0.41,0.04,-0.61,0.03,-0.16
7.198487043380737,3,3,3,3,-9.58,-0.4,0.08,-0.45,-0.04,-0.2
7.208487033843994,3,3,3,3,-9.59,-0.45,0,-0.79,0.07000000000000001,-0.03
7.218487024307251,3,3,3,3,-9.91,-0.75,0,-0.79,0.12,-0.21
7.228487014770508,3,3,3,3,-9.76,-1.18,-0.03,-0.9,0.04,-0.5
7.238487005233765,3,3,3,3,-9.699999999999999,-1.13,0,-0.79,-0.02,-0.46
7.248486995697021,3,3,3,3,-9.619999999999999,-0.9399999999999999,0.02,-0.75,-0.2,-0.53
7.258486986160278,3,3,3,3,-9.59,-1.16,0.11,-0.9399999999999999,-0.1,-0.61
7.268486976623535,3,3,3,3,-9.619999999999999,-1.36,0.21,-1.09,-0.19,-0.74
7.278486967086792,3,3,3,3,-9.67,-1.77,0.37,-1.75,-0.33,-0.79
7.288486957550049,3,3,3,3,-9.609999999999999,-2.15,0.38,-1.91,-0.5,-1.02
7.298486948013306,3,3,3,3,-9.32,-3.02,0.15,-1.85,-0.77,-1.41
7.308486938476562,3,3,3,3,-9.15,-3.71,0.18,-1.67,-1,-2.01
7.318486928939819,3,3,3,3,-9.02,-4.01,0.46,-0.71,-1.14,-2.73
7.328486919403076,3,3,3,3,-8.779999999999999,-3.72,1.46,0.2,-1.26,-3.07
7.338486909866333,3,3,3,3,-8.619999999999999,-3.73,1.82,-0.59,-1.25,-3.37
7.34848690032959,3,3,3,3,-8.550000000000001,-3.92,2.05,-2.65,-1.2,-3.92
7.358486890792847,3,3,3,3,-8.43,-4.47,2.29,-5.51,-1.4,-4.73
7.368486881256104,3,3,3,3,-8.289999999999999,-6.22,2.73,-8.359999999999999,-1.86,-5.91
7.37848687171936,3,3,3,3,-8.17,-6.18,2.87,-10.15,-2.75,-7.11
7.388486862182617,3,3,3,3,-7.99,-5.42,2.63,-10.96,-3.5,-8.109999999999999
7.398487091064453,3,3,3,3,-7.75,-4.36,1.36,-11.08,-3.79,-9.380000000000001
7.40848708152771,3,3,3,3,-6.8,-3.99,0.16,-9.34,-3.5,-9.859999999999999
7.418487071990967,3,3,3,3,-7.3,-2.54,-0.16,-6.23,-2.67,-8.65
7.428487062454224,3,3,3,3,-8.1,-0.37,-0.45,-2.66,-1.6,-7.85
7.43848705291748,3,3,3,3,-8.67,1.75,0.05,-2.61,-2.2,-8.119999999999999
7.448487043380737,3,3,3,3,-8.529999999999999,2.43,0.08,-8.91,-1.78,-9.06
7.458487033843994,3,3,3,3,-8.17,2.47,0.5600000000000001,-15.02,-0.24,-10.03
7.468487024307251,3,3,3,3,-7.25,2.12,-0.15,-18.69,2.52,-10.95
7.478487014770508,3,3,3,3,-6.85,1.29,-1.05,-19.93,5.97,-11.11
7.488487005233765,3,3,3,3,-7.07,-0.66,0.06,-19.47,7.64,-10.9
7.498486995697021,3,3,3,3,-7.8,-1.47,-0.39,-20.95,9.83,-9.869999999999999
7.508486986160278,3,3,3,3,-9.470000000000001,-2.11,-1.51,-19.8,11.5,-9.609999999999999
7.518486976623535,3,3,3,3,-10.27,-1.36,-1.18,-15.57,9.81,-10.18
7.528486967086792,3,3,3,3,-10.32,0.91,-0.01,-13.1,9.57,-10.81
7.538486957550049,3,3,3,3,-10.43,1.32,-0.99,-12.65,10.92,-11.66
7.548486948013306,3,3,3,3,-10.23,-0.76,-1.31,-12.52,10.18,-12.74
7.558486938476562,3,3,3,3,-10.66,-3.47,-1,-9.279999999999999,9.16,-12.68
7.568486928939819,3,3,3,3,-12.5,-1.12,-0.55,-4.19,8.73,-12.45
7.578486919403076,3,3,3,3,-12.26,0.41,0.14,-0.36,6.93,-12.09
7.588486909866333,3,3,3,3,-12.13,0.17,-2.46,-0.43,6,-10.55
7.59848690032959,3,3,3,3,-11.75,-0.92,-1.42,-1.47,5.24,-10.43
7.608486890792847,3,3,3,3,-11.3,-2.17,-0.59,-3,6.16,-10.25
7.618486881256104,3,3,3,3,-11.48,-2.18,-0.36,-3.15,5.66,-9.779999999999999
7.62848687171936,3,3,3,3,-11.25,-2.29,-0.35,-3.61,4.59,-9.029999999999999
7.638486862182617,3,3,3,3,-10.22,-1.23,-1.58,-3.04,2.65,-7.98
7.648487091064453,3,3,3,3,-10.47,-1.11,-2.28,-2.45,1.45,-7.07
7.65848708152771,3,3,3,3,-11.47,-1.6,-2.7,-1.9,0.54,-5.28
7.668487071990967,3,3,3,3,-11.95,-1.9,-2.93,-0.05,0.05,-2.97
7.678487062454224,3,3,3,3,-12.8,-0.9399999999999999,-2.41,1.69,-0.26,-1.17
7.68848705291748,3,3,3,3,-12.62,0.2,-1.93,3.59,-1.37,0.04
7.698487043380737,3,3,3,3,-12.52,0.35,-1.23,3.37,-1.65,0.8100000000000001
7.708487033843994,3,3,3,3,-12.91,0.57,-1.13,1.69,-1.96,1.62
7.718487024307251,3,3,3,3,-14.59,0.35,-0.5600000000000001,0.26,-2.53,3.21
7.728487014770508,3,3,3,3,-14.4,1.15,-0.19,-1.08,-3.04,4.84
7.738487005233765,3,3,3,3,-14.54,0.37,0.04,-1.9,-4.02,7.87
7.748486995697021,3,3,3,3,-15.59,-0.58,-1.01,-1.29,-5.15,10.16
7.758486986160278,3,3,3,3,-18.72,-4.17,-2.56,-0.38,-5.96,11.11
7.768486976623535,3,3,3,3,-21.83,-4.58,-2.65,2.06,-7.13,11.17
7.778486967086792,3,3,3,3,-25.13,-4.62,-1.73,6.9,-9.43,14.12
7.788486957550049,3,3,3,3,-26.34,-1.06,-0.57,13.34,-12.16,16.89
7.798486948013306,3,3,3,3,-26.41,8.460000000000001,1.29,17.35,-14.1,19.15
7.808486938476562,3,3,3,3,-27.87,11.27,2.12,19.25,-15.84,20.82
7.818486928939819,3,3,3,3,-30.04,12.63,1.72,19.58,-17.35,21.89
7.828486919403076,3,3,3,3,-33.14,12.27,0.79,19.66,-18.1,21.28
7.838486909866333,3,3,3,3,-31.82,7.87,-2.02,18.74,-17.61,16.27
7.84848690032959,3,3,3,3,-27.86,3.23,-3.92,16.3,-15.78,12.27
7.858486890792847,3,3,3,3,-24.91,-3.44,-5.09,13.88,-11.77,12.3
7.868486881256104,3,3,3,3,-22.14,-8.01,-4.45,15.26,-5.54,11.92
7.87848687171936,3,3,3,3,-4.05,-3.59,-3.73,10.41,4.17,9.26
7.888486862182617,3,3,3,3,-1.03,-17.02,-5.95,-21.89,7.86,10.67
7.898487091064453,3,3,3,3,-5.3,-38.6,1.39,-42.87,4.36,11.3
7.90848708152771,3,3,3,3,-0.99,-39,4.66,-15.12,3.04,8.02
7.918487071990967,3,3,3,3,0.13,3.6,-0.07000000000000001,24.22,11.04,13.25
7.928487062454224,3,3,3,3,-6.37,5.27,1.48,21.42,3.39,20.18
7.939486980438232,3,3,3,3,-6.48,-7.35,2.47,1.95,-5.77,12.38
7.948487043380737,3,3,3,3,-1.54,-9.949999999999999,1.84,1.38,-4.24,3.78
7.959486961364746,3,3,3,3,1.81,-3.98,4.09,6.05,-1.92,2.62
7.969486951828003,3,3,3,3,0.24,-3.37,2.8,9.08,0.63,4.34
7.97948694229126,3,3,3,3,-0.44,-2.59,0.92,12.44,1.2,4.46
7.989486932754517,3,3,3,3,-0.86,2.56,-1.47,15.32,-0.13,4.02
7.999486923217773,3,3,3,3,0.9,3.12,-2.13,16.69,-0.02,2.33
8.00948691368103,3,3,3,3,1.85,4.02,-2.72,15.42,-0.03,1.24
8.019486904144287,3,3,3,3,1.82,5.61,-2.35,14.92,0.16,-0.08
8.029486894607544,3,3,3,3,1.2,5.44,-0.33,11.83,0.36,0.18
8.039486885070801,3,3,3,3,0.91,4.52,-0.22,8.859999999999999,0.47,1.06
8.049486875534058,3,3,3,3,0.43,3.97,-0.09,6.24,0.57,2.14
8.059486865997314,3,3,3,3,0.12,3.72,0.17,3.69,0.36,2.32
8.06948709487915,3,3,3,3,0.14,0.97,0.8100000000000001,1.06,-0.33,1.87
8.079487085342407,3,3,3,3,0.24,0.79,0.74,0.28,-0.76,0.6899999999999999
8.089487075805664,3,3,3,3,-0.31,-0.36,0.91,-0.51,-1.13,-0.86
8.099487066268921,3,3,3,3,-0.95,-1.25,0.96,-2.77,-2.29,-2.45
8.109487056732178,3,3,3,3,-1.45,-1.51,1.33,-4.9,-2.63,-3.15
8.119487047195435,3,3,3,3,-1.18,-1.8,1.31,-4.9,-2.63,-3.15
8.129487037658691,3,3,3,3,-0.6899999999999999,-1.78,0.84,-5.93,-2.53,-3.31
8.139487028121948,3,3,3,3,-0.11,-1.5,0.43,-4.57,-1.91,-2.74
8.149487018585205,3,3,3,3,0,-1.42,-0.09,-3.37,-1.95,-2.16
8.159487009048462,3,3,3,3,-0.02,-1.51,-0.38,-2.02,-1.96,-1.97
8.169486999511719,3,3,3,3,-0.18,-1.57,-0.53,-2.02,-1.96,-1.97
8.179486989974976,3,3,3,3,-0.16,-1.65,-0.42,0.15,-1.86,-2.35
8.189486980438232,3,3,3,3,-0.1,-2.07,-0.55,5.07,-1.38,-2.5
8.199486970901489,3,3,3,3,-0.13,-0.9,-0.3,5.9,-1.4,-2.15
8.209486961364746,3,3,3,3,-0.18,0.03,0.08,5.11,-1.8,-1.83
8.219486951828003,3,3,3,3,-0.16,-0.04,0.5,5.11,-1.8,-1.83
8.22948694229126,3,3,3,2,0.57,-0.96,0.38,5.07,-1.66,-2.25
8.239486932754517,3,3,3,2,0.78,-1.88,0.55,4.58,1.25,-3.4
8.249486923217773,3,3,3,2,0.96,-2.04,0.17,3.39,2.8,-3.82
8.25948691368103,3,3,3,2,0.8100000000000001,-2.22,-0.45,0.57,3.56,-3.77
8.269486904144287,3,3,3,2,-0.44,-3.29,1.75,0.57,3.56,-3.77
8.279486894607544,3,3,3,2,-0.79,-4.03,1.92,-2.83,3.36,-3.54
8.289486885070801,3,3,3,2,-0.65,-4.84,0.89,-10.16,4.17,-5.86
8.299486875534058,3,3,3,2,-2.18,-9.66,-4.58,-1.35,1.04,-6.47
8.309486865997314,3,3,3,2,-2.9,-8.460000000000001,-4.66,-0.34,-7.38,-4.39
8.31948709487915,3,3,3,2,-9.210000000000001,-8.289999999999999,12.52,-0.34,-7.38,-4.39
8.329487085342407,3,3,3,2,-16.68,-38.51,12.8,-43.39,-20.87,1.56
8.339487075805664,3,3,3,2,-38.02,39.44,14.52,23.48,-2.87,8.52
8.349487066268921,3,3,3,2,-39.25,13.64,-7.22,-49.05,-3.84,-20.52
8.359487056732178,3,3,3,2,-34.66,-39,-9.130000000000001,-22.86,12.93,-23.38
8.369487047195435,3,3,3,2,-11.25,-17.34,-2.13,-22.86,12.93,-23.38
8.379487037658691,3,3,3,2,-36.83,-29.66,0.66,-33.84,6.83,-10.89
8.389487028121948,3,3,3,2,-39.25,-27.73,1.38,17.02,19.41,-14.82
8.399487018585205,3,3,3,2,-35.48,5.39,3.17,37.29,22.08,-12.12
8.419486999511719,3,3,3,2,-4.99,38.14,1.05,23.59,12.92,-5.07
8.429486989974976,3,3,3,2,-10.08,24.89,-1.68,-9.91,5.04,-5.92
8.439486980438232,3,3,3,2,-18.17,10.89,-2.36,-36.16,-1.19,9.6
8.449486970901489,3,3,3,2,-25.54,-1.29,-2.18,-21.81,-0.19,4.58
8.459486961364746,3,3,3,2,-26.45,-8.69,0.61,2.58,0.29,-0.18
8.469486951828003,3,3,3,2,-17.15,2.18,0.68,2.58,0.29,-0.18
8.47948694229126,3,3,3,2,-12.75,10.03,-0.51,16.33,-0.44,4.62
8.489486932754517,3,3,3,2,-11.78,10.92,-1.75,8.76,-3.47,2.17
8.499486923217773,3,3,3,2,-13.94,4.51,-0.87,8.449999999999999,-3.97,2.97
8.50948691368103,3,3,3,2,-14.51,2.67,0.88,9.56,-3.62,3.89
8.519486904144287,3,3,3,2,-14.33,1.16,0.78,9.56,-3.62,3.89
8.529486894607544,3,3,3,2,-12.35,1.7,0.93,7.42,-3.42,5.55
8.539486885070801,3,3,3,2,-11.01,1.38,0.71,-1.55,-3.12,7.69
8.549486875534058,3,3,3,2,-10.72,-0.47,0.21,-1.48,-2.28,8.640000000000001
8.559486865997314,3,3,3,2,-8.859999999999999,-1.91,0.15,1.34,-1.39,9.300000000000001
8.56948709487915,3,3,3,2,-6.77,-1.9,-0.06,1.34,-1.39,9.300000000000001
8.579487085342407,3,3,3,2,-4.7,-0.72,-0.37,5.19,-1.05,8.48
8.589487075805664,3,3,3,2,-5.04,-0.12,-0.23,11.54,-0.27,5.94
8.599487066268921,3,3,3,2,-5.9,0.49,-0.19,11.81,0.41,4.87
8.609487056732178,3,3,3,2,-6.62,0.99,0.19,8.33,1.22,4.18
8.619487047195435,3,3,3,2,-6.34,0.4,0.68,8.33,1.22,4.18
8.629487037658691,3,3,3,2,-6.57,-0.72,0.35,2.67,1.92,4.2
8.639487028121948,3,3,3,2,-6.95,-2.5,0.44,-4.98,0.42,4.58
8.649487018585205,3,3,3,2,-8.140000000000001,-6.44,1.11,-3.9,-0.8,4.16
8.659487009048462,3,3,3,2,-8.23,-7.36,1.47,-0.29,-0.55,3.25
8.669486999511719,3,3,3,2,-8.050000000000001,-7.52,1.63,-0.29,-0.55,3.25
8.679486989974976,3,3,3,2,-8.15,-7.48,1.62,3.37,0.57,2.62
8.689486980438232,3,3,3,2,-8.68,-6.5,0.76,10.58,2,1.13
8.699486970901489,3,3,3,2,-8.949999999999999,-4.73,0.78,11.27,2.12,0.2
8.709486961364746,3,3,3,2,-8.84,-3.87,0.5600000000000001,10.4,1.92,-0.45
8.719486951828003,3,3,3,2,-8.699999999999999,-3.34,0.15,10.4,1.92,-0.45
8.72948694229126,3,3,3,2,-8.609999999999999,-1.62,0.44,9.220000000000001,1.26,-0.83
8.739486932754517,3,3,3,2,-8.9,-1.75,0.17,4.86,0.6899999999999999,-1.42
8.749486923217773,3,3,3,2,-9.210000000000001,-1.83,0.17,3.6,0.51,-1.46
8.75948691368103,3,3,3,2,-9.52,-1.51,0.14,2.66,-0.06,-0.89
8.769486904144287,3,3,3,2,-10.42,-0.22,0.6,2.66,-0.06,-0.89
8.779486894607544,3,3,3,2,-10.79,0.75,0.08,1.33,-0.32,-0.76
8.789486885070801,3,3,3,2,-11.27,2.04,-0.06,-0.78,-1.65,-1.8
8.799486875534058,3,3,3,2,-11.31,2.51,-0.34,-2.28,-1.86,-1.3
8.809486865997314,3,3,3,2,-10.74,2.76,-0.44,-3.16,-1.4,-0.58
8.81948709487915,3,3,3,2,-10.75,2.49,-0.42,-3.16,-1.4,-0.58
8.829487085342407,3,3,3,2,-10.52,1.44,-0.63,-4.05,-0.79,-0.02
8.839487075805664,3,3,3,2,-10.7,1.03,-0.34,-4.53,-0.23,0.99
8.849487066268921,3,3,3,2,-9.94,-0.92,-0.15,-2.99,0.31,1.24
8.859487056732178,3,3,3,2,-9.67,-1.14,0.1,-1.63,0.73,0.92
8.869487047195435,3,3,3,2,-9.56,-1.09,0.33,-1.63,0.73,0.92
8.879487037658691,3,3,3,2,-8.94,-1.41,0.38,-0.17,1.21,1.03
8.889487028121948,3,3,3,2,-9.18,-1.17,0.44,2.68,1.69,0.66
8.899487018585205,3,3,3,2,-9.77,-0.68,0.3,2.52,1.24,0.62
8.909487009048462,3,3,3,2,-9.49,-0.65,0.34,2.06,1.18,0.36
8.919486999511719,3,3,3,2,-9.460000000000001,-0.7,0.29,2.06,1.18,0.36
8.929486989974976,3,3,3,2,-9.630000000000001,-0.42,0.01,2.49,1.23,0.34
8.939486980438232,3,3,3,2,-9.57,-0.51,-0.2,3.01,1.19,0.36
8.949486970901489,3,3,3,2,-9.66,-0.96,-0.34,2.73,1.22,0.59
8.959486961364746,3,3,3,2,-9.35,-0.71,0.01,2.16,1.34,0.63
8.969486951828003,3,3,3,2,-9.35,-0.71,0.01,2.16,1.34,0.63
8.980486869812012,3,3,3,2,-9.58,-0.9399999999999999,0.22,2,1.2,0.43
8.990487098693848,3,3,3,2,-9.890000000000001,0.31,0.46,2.36,0.44,0.3
9.000487089157104,3,3,3,2,-9.890000000000001,0.31,0.46,1.22,0.04,0.05
9.010487079620361,3,3,3,2,-9.869999999999999,0.06,0.3,0.06,-0.34,0.06
9.020487070083618,3,3,3,2,-9.99,0.12,0.29,0.06,-0.34,0.06
9.030487060546875,3,3,3,2,-10.02,0,0.29,-1.17,-0.63,0.19
9.040487051010132,3,3,3,2,-9.84,-0.74,-0.03,-2.08,-0.55,0.3
9.050487041473389,3,3,3,2,-9.720000000000001,-0.87,-0.17,-0.85,0.07000000000000001,0.05
9.060487031936646,3,3,3,2,-9.720000000000001,-0.87,-0.17,1.08,0.51,0.04
9.070487022399902,3,3,3,2,-9.59,-0.44,-0.34,1.08,0.51,0.04
9.080487012863159,3,3,3,2,-9.800000000000001,0.21,-0.14,1.88,0.84,0.28
9.090487003326416,3,3,3,2,-9.91,0.35,-0.01,0.95,0.76,0.51
9.100486993789673,3,3,3,2,-9.859999999999999,-0.67,0,0.49,0.8100000000000001,0.61
9.11048698425293,3,3,3,2,-9.630000000000001,-0.77,0.08,0.62,0.9399999999999999,0.57
9.120486974716187,3,3,3,3,-9.630000000000001,-0.77,0.08,0.62,0.9399999999999999,0.57
9.130486965179443,3,3,3,3,-9.68,-0.74,0.04,1,0.88,0.37
9.1404869556427,3,3,3,3,-9.859999999999999,-0.32,0,1.69,0.35,0.08
9.150486946105957,3,3,3,3,-9.73,-0.08,0.05,1.07,0.49,0.06
9.160486936569214,3,3,3,3,-9.74,0.2,-0.02,0.93,0.57,0.17
9.170486927032471,3,3,3,3,-9.74,0.2,-0.02,0.95,0.48,0.2
9.180486917495728,3,3,3,3,-9.869999999999999,0.19,0.1,0.95,0.48,0.2
9.190486907958984,3,3,3,3,-9.890000000000001,0.14,-0.09,0.67,0.66,0.17
9.200486898422241,3,3,3,3,-9.800000000000001,0.27,-0.12,0.92,0.66,-0.05
9.210486888885498,3,3,3,3,-9.710000000000001,0.35,-0.1,1.02,0.74,-0.26
9.220486879348755,3,3,3,3,-9.710000000000001,0.35,-0.1,1.02,0.74,-0.26
9.230486869812012,3,3,3,3,-9.92,0.34,-0.12,0.36,0.23,0.02
9.240487098693848,3,3,3,3,-9.970000000000001,0.12,-0.22,-0.3,0.18,0.16
9.250487089157104,3,3,3,3,-9.93,0.42,-0.18,-0.26,0.15,0.24
9.260487079620361,3,3,3,3,-9.83,0.3,-0.31,-0.66,0.11,0.1
9.270487070083618,3,3,3,3,-9.83,0.3,-0.31,-0.66,0.11,0.1
9.280487060546875,3,3,3,3,-9.98,-0.32,-0.29,-1.12,-0.05,0.27
9.290487051010132,3,3,3,3,-9.57,-0.82,-0.6,-1.63,0.03,0.43
9.300487041473389,3,3,3,3,-9.6,-0.28,-0.12,-0.88,0.18,0.08
9.310487031936646,3,3,3,3,-9.82,0.01,-0.16,-0.39,0.23,-0.14
9.320487022399902,3,3,3,3,-9.970000000000001,0.34,-0.11,-0.01,-0.15,-0.16
9.330487012863159,3,3,3,3,-9.98,0.73,-0.06,0.08,-0.35,-0.19
9.340487003326416,3,3,3,3,-9.949999999999999,0.61,-0.39,-0.26,-0.29,-0.1
9.350486993789673,3,3,3,3,-9.960000000000001,0.48,-0.3,-0.68,-0.32,-0.04
9.36048698425293,3,3,3,3,-9.970000000000001,0.25,-0.25,-1.15,-0.3,0.13
9.370486974716187,3,3,3,3,-9.970000000000001,0.25,-0.25,-1.4,-0.31,0.29
9.380486965179443,3,3,3,3,-9.73,-0.2,-0.09,-1.6,-0.22,0.33
9.3904869556427,3,3,3,3,-9.66,-0.48,-0.03,-1.85,-0.09,0.3
9.400486946105957,3,3,3,3,-9.6,-0.73,-0.01,-2.01,-0.02,0.23
9.410486936569214,3,3,3,3,-9.529999999999999,-0.99,-0.07000000000000001,-1.52,-0.02,0.28
9.420486927032471,3,3,3,3,-9.529999999999999,-0.99,-0.07000000000000001,-1.19,-0.18,0.08
9.430486917495728,3,3,3,3,-9.81,-0.48,-0.06,-0.97,-0.24,-0.14
9.440486907958984,3,3,3,3,-9.67,0.14,-0.02,-0.43,-0.12,-0.25
9.450486898422241,3,3,3,3,-9.74,0.57,-0.03,-0.29,0.01,-0.12
9.460486888885498,3,3,3,3,-10,0.7,-0.02,-0.61,-0.16,0
9.470486879348755,3,3,3,3,-9.98,0.46,-0.03,-1.21,-0.32,0.05
9.480486869812012,3,3,3,3,-9.91,0.23,-0.04,-1.64,-0.44,0.13
9.490487098693848,3,3,3,3,-9.85,-0.16,-0.09,-1.66,-0.35,0.35
9.500487089157104,3,3,3,3,-9.710000000000001,-0.48,-0.01,-1.74,-0.25,0.36
9.510487079620361,3,3,3,3,-9.68,-0.82,0.01,-1.77,-0.18,0.37
9.520487070083618,3,3,3,3,-9.65,-0.79,0.05,-1.45,-0.06,0.33
9.530487060546875,3,3,3,3,-9.630000000000001,-0.84,0,-1.13,-0.06,0.13
9.540487051010132,3,3,3,3,-9.73,-0.83,-0.09,-0.45,-0.31,0.03
9.550487041473389,3,3,3,3,-9.69,-0.53,0,0.12,-0.43,0.01
9.560487031936646,3,3,3,3,-9.77,-0.04,0.02,0.51,-0.34,0.12
9.570487022399902,3,3,3,3,-9.869999999999999,0.2,0,0.74,-0.3,-0.01
9.580487012863159,3,3,3,3,-9.789999999999999,0.78,-0.01,0.54,-0.2,0.1
9.590487003326416,3,3,3,3,-9.880000000000001,0.45,-0.08,-0.15,-0.2,0.27
9.600486993789673,3,3,3,3,-9.98,0.22,-0.02,-0.54,-0.26,0.29
9.61048698425293,3,3,3,3,-9.789999999999999,0.04,0,-0.63,-0.27,0.36
9.620486974716187,3,3,3,3,-9.789999999999999,-0.08,0.01,-0.59,-0.19,0.3
9.630486965179443,3,3,3,3,-9.84,-0.17,0,-0.42,0,0.16
9.6404869556427,3,3,3,3,-9.74,-0.15,-0.04,-0.13,0.15,0.1
9.650486946105957,3,3,3,3,-9.85,-0.12,-0.01,0.02,0.21,0.21
9.660486936569214,3,3,3,3,-9.85,-0.07000000000000001,-0.03,0.06,0.08,0.29
9.670486927032471,3,3,3,3,-9.84,-0.1,-0.01,0.09,-0.2,0.29
9.680486917495728,3,3,3,3,-9.859999999999999,-0.1,-0.03,0.21,-0.24,0.16
9.690486907958984,3,3,3,3,-9.710000000000001,0.17,-0.1,0.48,-0.23,0.15
9.700486898422241,3,3,3,3,-9.75,0.15,-0.05,0.39,-0.24,0.29
9.710486888885498,3,3,3,3,-9.82,0.06,0,0.27,-0.29,0.37
9.720486879348755,3,3,3,3,-9.84,0,0.01,0.28,-0.25,0.36
9.730486869812012,3,3,3,3,-9.77,-0.14,0.05,0.32,-0.09,0.2
9.740487098693848,3,3,3,3,-9.789999999999999,-0.01,0.05,0.54,0.14,0.34
9.750487089157104,3,3,3,3,-9.84,0.05,0.02,0.5600000000000001,0.18,0.17
9.760487079620361,3,3,3,3,-9.85,0.23,0.05,0.74,0.12,0.05
9.770487070083618,3,3,3,3,-9.869999999999999,0.11,0.02,0.32,0.18,0.15
9.780487060546875,3,3,3,3,-9.869999999999999,0.05,-0.01,-0.08,0.11,0.25
9.790487051010132,3,3,3,3,-9.789999999999999,0.04,-0.05,-0.18,-0.04,0.28
9.800487041473389,3,3,3,3,-9.75,0.03,-0.05,-0.18,-0.09,0.24
9.810487031936646,3,3,3,3,-9.779999999999999,0.18,0.03,-0.18,-0.07000000000000001,0.21
9.820487022399902,3,3,3,3,-9.81,0.2,0.06,-0.27,0.12,0.21
9.831486940383911,3,3,3,3,-9.82,0.26,0.02,-0.03,0.29,0.14
9.840487003326416,3,3,3,3,-9.84,0.24,-0.06,0.33,0.32,0.26
9.850486993789673,3,3,3,3,-9.9,0.25,-0.02,0.33,0.31,0.4
9.861486911773682,3,3,3,3,-9.890000000000001,0.12,-0.02,0.23,0.22,0.43
9.870486974716187,3,3,3,3,-9.789999999999999,0.03,0.09,0.07000000000000001,0.06,0.38
9.880486965179443,3,3,3,3,-9.699999999999999,-0.31,0.04,-0.15,0.07000000000000001,0.43
9.8904869556427,3,3,3,3,-9.720000000000001,-0.4,-0.04,0.14,0.04,0.31
9.900486946105957,3,3,3,3,-9.75,-0.25,-0.04,0.63,0.03,0.16
9.910486936569214,3,3,3,3,-9.77,0.14,-0.04,1.05,0.15,0.06
9.920486927032471,3,3,3,3,-9.82,0.46,0,1.33,0.22,0.09
9.930486917495728,3,3,3,3,-9.890000000000001,0.88,-0.06,1.3,0.26,0.2
9.940486907958984,3,3,3,3,-9.92,0.71,-0.22,0.84,0.19,0.21
9.951487064361572,3,3,3,3,-10.02,0.48,-0.16,0.3,0.09,0.39
9.960486888885498,3,3,3,3,-9.960000000000001,0.01,-0.11,-0.01,-0.02,0.48
9.970486879348755,3,3,3,3,-9.859999999999999,-0.12,-0.05,0.08,-0.05,0.48
9.981487035751343,3,3,3,3,-9.779999999999999,-0.27,-0.06,0.1,0.1,0.36
9.990487098693848,3,3,3,3,-9.67,-0.32,-0.1,0.13,0.13,0.41
10.00148701667786,3,3,3,3,-9.74,-0.09,-0.06,0.28,0.14,0.27
10.01148700714111,3,3,3,3,-9.73,0.08,-0.1,0.37,-0.01,0.25
10.02148699760437,3,3,3,3,-9.81,0.38,-0.02,0.5600000000000001,-0.18,0.11
10.03148698806763,3,3,3,3,-9.800000000000001,0.54,-0.11,0.47,-0.21,0.14
10.04148697853088,3,3,3,3,-9.91,0.91,-0.22,0.63,-0.29,0.22
10.05148696899414,3,3,3,3,-9.869999999999999,1.14,-0.23,1,-0.34,0.2
10.0614869594574,3,3,3,3,-9.949999999999999,1.2,-0.34,0.71,-0.26,0.37
10.07148694992065,3,3,3,3,-10.03,1.13,-0.11,0.66,-0.26,0.6
10.08148694038391,3,3,3,3,-10.04,0.86,-0.3,0.79,-0.13,0.87
10.09148693084717,3,3,3,3,-10.11,1.09,-0.33,1.73,-0.16,0.93
10.10148692131042,3,3,3,3,-9.970000000000001,1.38,-0.27,2.55,-0.09,0.88
10.11148691177368,3,3,3,3,-9.83,1.32,-0.42,3.19,0.03,0.96
10.12148690223694,3,3,3,3,-9.869999999999999,1.27,-0.29,3.79,-0.04,1.3
10.1314868927002,3,3,3,3,-9.98,1.5,-0.28,4.35,-0.2,1.7
10.14148688316345,3,3,3,3,-10.04,1.51,-0.34,4.61,-0.49,1.89
10.15148687362671,3,3,3,3,-9.98,1.47,-0.34,4.93,-0.73,1.91
10.16148686408997,3,3,3,3,-10.13,1.22,-0.53,4.97,-0.99,2.31
10.1714870929718,3,3,3,3,-10.07,0.9399999999999999,-0.15,5.14,-1.38,2.68
10.18148708343506,3,3,3,3,-9.789999999999999,0.63,-0.06,4.87,-1.39,2.93
10.19148707389832,3,3,3,3,-9.74,0.21,-0.37,4.81,-1.19,3.09
10.20148706436157,3,3,3,3,-9.970000000000001,0.41,-0.45,4.85,-1.02,2.98
10.21148705482483,3,3,3,3,-9.93,0.14,-0.59,3.88,-0.9399999999999999,2.89
10.22148704528809,3,3,3,3,-9.73,-0.07000000000000001,-0.35,2.52,-1.18,2.77
10.23148703575134,3,3,3,3,-9.76,-0.48,-0.4,1.03,-1.3,3.01
10.2414870262146,3,3,3,3,-9.380000000000001,-1.16,-0.5,0.14,-1.43,3.08
10.25148701667786,3,3,3,3,-9.82,-1.06,-0.36,-0.09,-1.36,2.95
10.26148700714111,3,3,3,3,-9.890000000000001,-1.18,-0.33,-0.99,-1.54,3.14
10.27148699760437,3,3,3,3,-9.800000000000001,-1.43,-0.3,-2.04,-1.67,3.14
10.28148698806763,3,3,3,3,-9.550000000000001,-2.29,-0.57,-2.25,-1.49,3.16
10.29148697853088,3,3,3,3,-9.66,-2.37,-0.63,-1.71,-1.46,2.86
10.30148696899414,3,3,3,3,-9.76,-2.37,-0.68,-0.96,-1.59,2.44
10.3114869594574,3,3,3,3,-9.74,-1.71,-0.18,-0.57,-1.85,2.06
10.32148694992065,3,3,3,3,-9.81,-1.57,0.03,-0.57,-2.12,1.94
10.33148694038391,3,3,3,3,-9.93,-1.28,0.1,-0.82,-2.57,1.8
10.34148693084717,3,3,3,3,-9.890000000000001,-1.16,0.22,-0.75,-2.85,1.76
10.35148692131042,3,3,3,3,-9.68,-1.28,0.7,-1.03,-3.07,1.84
10.36148691177368,3,3,3,3,-9.630000000000001,-1.26,0.86,-1.02,-2.98,2.14
10.37148690223694,3,3,3,3,-9.710000000000001,-1.06,0.89,-1.09,-2.73,2.1
10.3814868927002,3,3,3,3,-9.58,-1.44,0.78,-0.9399999999999999,-2.58,1.79
10.39148688316345,3,3,3,3,-9.460000000000001,-1.02,0.92,-1.05,-2.42,1.58
10.40148687362671,3,3,3,3,-9.48,-1.45,1.13,-2.24,-2.13,1.36
10.41148686408997,3,3,3,3,-9.57,-1.86,1.41,-3.69,-1.69,1.03
10.4214870929718,3,3,3,3,-9.66,-1.98,1.72,-5.51,-1.19,0.5600000000000001
10.43148708343506,3,3,3,3,-9.720000000000001,-3.04,2.04,-8.17,-0.88,-0.13
10.44148707389832,3,3,3,3,-9.789999999999999,-4.08,2.08,-10.57,-0.92,-0.83
10.45148706436157,3,3,3,3,-9.92,-4.77,2.17,-12.07,-1.25,-1.51
10.46148705482483,3,3,3,3,-10.24,-5.19,1.91,-12.27,-1.58,-2.8
10.47148704528809,3,3,3,3,-11.42,-5.95,0.98,-10.09,-1.97,-4.16
10.48148703575134,3,3,3,3,-10.87,-4.2,1.62,-7.35,-2.93,-4.17
10.4914870262146,3,3,3,3,-10.73,-2.93,2.14,-8.27,-2.9,-5.26
10.50148701667786,3,3,3,3,-10.95,-2.25,1.99,-8.85,-3.31,-4.92
10.51148700714111,3,3,3,3,-11.23,-1.04,1.56,-8.93,-3.25,-4.62
10.52148699760437,3,3,3,3,-11.16,-0.35,1.32,-9.49,-2.42,-4.24
10.53148698806763,3,3,3,3,-11.02,0.23,1.09,-10.26,-1.23,-4.18
10.54148697853088,3,3,3,3,-10.99,0.17,0.57,-11.04,0.08,-4.68
10.55148696899414,3,3,3,3,-11.27,0.03,0.16,-10.43,1.28,-5.32
10.5614869594574,3,3,3,3,-11.72,0.47,-0.02,-10.34,1.89,-5.38
10.57148694992065,3,3,3,3,-11,0.43,0.04,-9.199999999999999,2.59,-5.32
10.58148694038391,3,3,3,3,-10.72,0.88,0.09,-8.41,3.04,-6.44
10.59148693084717,3,3,3,3,-10.62,0.12,-0.01,-7.35,3.29,-7.21
10.60148692131042,3,3,3,3,-10.42,0.54,0,-5.5,3.43,-7.57
10.61148691177368,3,3,3,3,-10.17,0.96,0.13,-4,3.67,-7.79
10.62148690223694,3,3,3,3,-9.81,0.91,0.67,-3.01,4.01,-8.02
10.6314868927002,3,3,3,3,-9.52,1.16,0.71,-1.75,4.24,-8.289999999999999
10.64148688316345,3,3,3,3,-9.26,1.25,0.54,-0.62,4.54,-8.67
10.65148687362671,3,3,3,3,-9.1,1.19,0.39,0.23,4.67,-9.15
10.66148686408997,3,3,3,3,-9.210000000000001,1.13,-0.02,0.84,4.51,-9.41
10.6714870929718,3,3,3,3,-9.18,1.08,-0.11,1.27,4.26,-9.58
10.68148708343506,3,3,3,3,-9.16,0.87,-0.21,1.81,4.07,-9.779999999999999
10.69148707389832,3,3,3,3,-9.08,0.65,-0.39,2.46,3.96,-10.14
10.70148706436157,3,3,3,3,-9.09,0.23,-0.41,2.96,3.96,-10.37
10.71148705482483,3,3,3,3,-9.130000000000001,0.15,-0.28,3.49,3.85,-10.55
10.72148704528809,3,3,3,3,-9.08,0.15,-0.23,3.81,3.85,-10.69
10.73148703575134,3,3,3,3,-9.23,-0.13,-0.12,4.11,4.03,-10.91
10.7414870262146,3,3,3,3,-9.15,0.1,0.05,4.69,3.94,-10.93
10.75148701667786,3,3,3,3,-9.16,0.2,0.3,4.84,3.91,-10.95
10.76148700714111,3,3,3,3,-9.050000000000001,0.35,0.42,4.34,3.85,-11.17
10.77148699760437,3,3,3,3,-8.9,-0.03,0.39,2.98,3.85,-11.24
10.78148698806763,3,3,3,3,-9.050000000000001,-1.11,0.01,2.03,3.79,-11.34
10.79148697853088,3,3,3,3,-9.029999999999999,-1.11,0.02,1.88,3.31,-11.34
10.80148696899414,3,3,3,3,-8.99,-1.17,0.03,1.98,3.08,-11.18
10.8114869594574,3,3,3,3,-9.01,-1.48,-0.06,2.86,3,-11.12
10.82148694992065,3,3,3,3,-8.539999999999999,-0.89,0.05,4.52,2.88,-10.95
10.83148694038391,3,3,3,3,-8.380000000000001,-0.89,0.07000000000000001,4.34,3.14,-10.75
10.84148693084717,3,3,3,3,-8.41,-1.48,-0.03,3.39,3.62,-10.45
10.85148692131042,3,3,3,3,-8.539999999999999,-2.2,-0.06,3.22,3.87,-9.949999999999999
10.86148691177368,3,3,3,3,-8.69,-3.16,-0.04,5.26,3.74,-9.43
10.87148690223694,3,3,3,3,-8.65,-2.85,0.79,7.37,3.27,-9.220000000000001
10.8814868927002,3,3,3,3,-8.57,-2.88,1.12,6.67,3.38,-8.73
10.89148688316345,3,3,3,3,-8.44,-3.24,1.08,5.69,3.62,-7.77
10.90148687362671,3,3,3,3,-8.08,-3.79,1.3,5.36,3.68,-6.13
10.91148686408997,3,3,3,3,-8.17,-3.78,1.23,5.76,3.59,-4.64
10.9214870929718,3,3,3,2,-8.289999999999999,-3.7,1.09,5.86,3.44,-3.8
10.93148708343506,3,3,3,2,-8.42,-3.77,0.97,5.43,2.92,-3.13
10.94148707389832,3,3,3,2,-8.619999999999999,-4.62,1.08,6.11,1.96,-2.6
10.95148706436157,3,3,3,2,-8.51,-4.45,1.33,7.38,1.13,-1.91
10.96148705482483,3,3,3,2,-8.369999999999999,-4.49,1.08,7.31,1.27,-0.99
10.97148704528809,3,3,3,2,-8.390000000000001,-5.45,0.96,6.89,1.7,0.26
10.98148703575134,3,3,3,2,-8.380000000000001,-5.19,0.87,7.7,2.01,1.64
10.9914870262146,3,3,3,2,-8.539999999999999,-4.56,0.66,7.87,2.17,2.99
11.00148701667786,3,3,3,2,-8.92,-4.06,1,6.54,2.18,4.2
11.01148700714111,3,3,3,2,-9.25,-5.5,0.09,3.3,3.5,4.62
11.02148699760437,3,3,3,2,-9.73,-5.87,0.44,-0.36,4.74,4.5
11.03248691558838,3,3,3,2,-10.62,-5.66,-0.85,-3.82,4.97,4.22
11.04248690605164,3,3,3,2,-12.8,-4.1,-2.02,-6.11,2.93,3.61
11.05248689651489,3,3,3,2,-13.84,-2.98,4.08,-8.039999999999999,-3.62,3.08
11.06248688697815,3,3,3,2,-12.5,-7.92,4.13,-10.7,-5.87,1.89
11.07248687744141,3,3,3,2,-12.08,-10.82,3.19,-8.220000000000001,-4.46,0.11
11.08248686790466,3,3,3,2,-10.57,-8.84,2.82,-2.85,-3.02,0.19
11.0924870967865,3,3,3,2,-9,-6.5,-0.13,-0.28,-0.34,2.27
11.10248708724976,3,3,3,2,-9.449999999999999,-4.94,-0.95,5.37,0.92,3.96
11.11248707771301,3,3,3,2,-8.81,-0.85,-1.35,14.68,0.43,4.72
11.12248706817627,3,3,3,2,-8.19,3.03,-1.1,18.14,0.63,5.24
11.13248705863953,3,3,3,2,-7.69,5.66,-1.74,15.63,2.4,6.03
11.14248704910278,3,3,3,2,-7.96,5.36,-2.44,11.17,4.1,6.91
11.15248703956604,3,3,3,2,-8.57,4.29,-2.67,6.37,4.5,7.15
11.1624870300293,3,3,3,2,-9.039999999999999,2.28,-2.79,3.39,4.2,7.52
11.17248702049255,3,3,3,2,-10.25,0.08,-1.92,3.59,4.33,8
11.18248701095581,3,3,3,2,-11.13,0.32,-1.51,5.28,4.81,8.98
11.19248700141907,3,3,3,2,-11.37,-0.14,-0.7,7.12,5.36,10.13
11.20248699188232,3,3,3,2,-11.13,0.15,-0.08,8.99,5.66,10.63
11.21248698234558,3,3,3,2,-10.7,2.38,0.62,8.43,5.69,10.39
11.22248697280884,3,3,3,2,-10.75,1.84,0.57,5.74,5.36,9.949999999999999
11.23248696327209,3,3,3,2,-10.31,1.86,0.4,3.17,4.98,9.51
11.24248695373535,3,3,3,2,-9.74,1.94,0.02,0.86,4.8,9.279999999999999
11.25248694419861,3,3,3,2,-9.75,0.5,-0.9,-0.01,4.73,8.800000000000001
11.26248693466187,3,3,3,2,-9.91,0.55,-1.53,-0.27,4.6,8.83
11.27248692512512,3,3,3,2,-10.08,0.37,-1.75,-1.31,4.16,9.18
11.28248691558838,3,3,3,2,-10.18,0.03,-1.9,-2.26,3.89,8.859999999999999
11.29248690605164,3,3,3,2,-10.11,-0.13,-2.08,-2.68,3.64,8.23
11.30248689651489,3,3,3,2,-9.91,0.14,-2.09,-3.65,3.36,7.98
11.31248688697815,3,3,3,2,-9.9,-0.47,-1.83,-5.15,3.01,8.01
11.32248687744141,3,3,3,2,-10.03,-1.29,-1.57,-5.65,2.91,7.9
11.33248686790466,3,3,3,2,-9.890000000000001,-0.71,-1.6,-5.8,2.83,7.6
11.3424870967865,3,3,3,2,-9.800000000000001,-0.7,-1.61,-7.1,2.57,7.59
11.35248708724976,3,3,3,2,-9.77,-1.29,-1.78,-8.51,2.32,7.36
11.36248707771301,3,3,3,2,-9.73,-2.13,-1.85,-8.68,2.14,7.15
11.37248706817627,3,3,3,2,-9.529999999999999,-2.18,-1.68,-8.210000000000001,2.06,7.03
11.38248705863953,3,3,3,2,-9.289999999999999,-2.17,-1.63,-7.85,2.16,7.09
11.39248704910278,3,3,3,2,-9.15,-2.09,-1.79,-6.76,2.09,7.52
11.40248703956604,3,3,3,2,-9.58,-0.61,-1.51,-5.79,1.99,7.67
11.4124870300293,3,3,3,2,-9.66,-0.38,-1.45,-6.57,1.63,7.97
11.42248702049255,3,3,3,2,-9.66,-0.28,-1.33,-6.21,1.78,7.31
11.43248701095581,3,3,3,2,-9.41,-0.18,-1.35,-6.1,1.82,7.11
11.44248700141907,3,3,3,2,-9.52,0,-1.49,-5.7,1.82,7.33
11.45248699188232,3,3,3,2,-9.58,0,-1.44,-5.36,1.77,7.61
11.46248698234558,3,3,3,2,-9.52,-0.27,-1.45,-4.86,1.76,7.82
11.47248697280884,3,3,3,2,-9.630000000000001,-0.01,-1.46,-4.01,1.78,7.87
11.48248696327209,3,3,3,2,-9.789999999999999,0.55,-1.61,-3.85,1.64,7.88
11.49248695373535,3,3,3,2,-9.52,0.31,-1.7,-4.23,1.31,7.98
11.50248694419861,3,3,3,2,-9.48,0.23,-1.67,-4.14,1.23,8.42
11.51248693466187,3,3,3,2,-9.42,0.38,-1.59,-4.13,1.06,8.9
11.52248692512512,3,3,3,2,-9.56,0.65,-1.4,-3.95,0.79,9.44
11.53248691558838,3,3,3,2,-9.75,0.82,-1.23,-3.74,0.67,9.81
11.54248690605164,3,3,3,2,-9.94,0.6,-1.41,-4.9,0.01,10.26
11.55248689651489,3,3,3,2,-9.720000000000001,0.08,-1.28,-5.5,-0.27,10.62
11.56248688697815,3,3,3,2,-9.49,-0.5,-0.97,-4.76,-0.11,11.01
11.57248687744141,3,3,3,2,-9.52,-0.21,-1.07,-4.12,0.29,11.15
11.58248686790466,3,3,3,2,-9.300000000000001,-0.05,-1.08,-4.16,0.54,11.2
11.5924870967865,3,3,3,2,-9.119999999999999,-0.14,-1.43,-4.25,0.91,10.75
11.60248708724976,3,3,3,2,-9.58,-0.48,-1.87,-4.46,0.96,10.17
11.61248707771301,3,3,3,2,-9.73,-0.66,-1.9,-4.5,1.05,9.67
11.62248706817627,3,3,3,2,-9.82,-0.9,-1.98,-4.48,1.13,9.32
11.63248705863953,3,3,3,2,-9.92,-1.17,-1.94,-4.48,1.13,9.32
11.64248704910278,3,3,3,2,-9.609999999999999,-1.61,-2.21,-4.4,0.95,9.039999999999999
11.65248703956604,3,3,3,2,-9.41,-1.61,-2.09,-4.16,0.79,8.779999999999999
11.6624870300293,3,3,3,2,-9.460000000000001,-1.39,-1.89,-4.78,0.79,8.58
11.67248702049255,3,3,3,2,-9.4,-1.45,-1.89,-5.49,0.61,8.1
11.68248701095581,3,3,3,2,-9.390000000000001,-1.55,-1.91,-5.49,0.61,8.1
11.69248700141907,3,3,3,2,-9.59,-1.47,-1.9,-5.65,0.47,7.69
11.70248699188232,3,3,3,2,-9.98,-1,-1.92,-4.54,0.4,7.38
11.71248698234558,3,3,3,2,-10.7,-0.72,-1.93,-3.99,0.32,7.34
11.72248697280884,3,3,3,2,-10.88,-0.65,-1.86,-3.45,0.18,7.54
11.73248696327209,3,3,3,2,-10.92,-0.64,-1.88,-3.45,0.18,7.54
11.74248695373535,3,3,3,2,-11.13,-0.6,-1.87,-2.99,-0.09,7.65
11.75248694419861,3,3,3,2,-11.27,-1.15,-1.77,-2.65,-0.39,7.71
11.76248693466187,3,3,3,2,-11.62,-1.5,-1.3,-2.29,-0.61,7.55
11.77248692512512,3,3,3,2,-12.1,-1.86,-0.73,-2.78,-1.05,6.82
11.78248691558838,3,3,3,2,-12.38,-2.2,-0.18,-2.78,-1.05,6.82
11.79248690605164,3,3,3,2,-12.01,-3.73,0.05,-3.4,-1.34,5.81
11.80248689651489,3,3,3,2,-11.6,-5.09,0.02,-4.64,-2.06,4.36
11.81248688697815,3,3,3,2,-11.43,-5.95,0.78,-6.11,-2.45,2.85
11.82248687744141,3,3,3,2,-11.66,-5.62,2.11,-9.300000000000001,-2.76,1.35
11.83248686790466,3,3,3,2,-12.37,-3.84,2.98,-9.300000000000001,-2.76,1.35
11.8424870967865,3,3,3,2,-12.5,-3.49,3.95,-9.74,-4.67,0.34
11.85248708724976,3,3,3,2,-12.17,-2.3,4.08,-12.02,-6.96,-1.66
11.86248707771301,3,3,3,2,-12.03,-3.26,2.6,-15.91,-8.789999999999999,-3.63
11.87248706817627,3,3,3,2,-11.95,-2.95,1.5,-19.51,-7.48,-6.19
11.88248705863953,3,3,3,2,-11.69,-1.24,0.49,-19.51,-7.48,-6.19
11.89248704910278,3,3,3,2,-11.6,0.07000000000000001,-0.23,-17.18,-4.94,-6.99
11.90248703956604,3,3,3,2,-11.35,1.47,-0.95,-14.22,-2.24,-9.23
11.9124870300293,3,3,3,2,-11.81,3.98,-1.35,-11.62,-0.01,-11.86
11.92248702049255,3,3,3,2,-12.33,4.39,-1.51,-10.96,1.31,-13.61
11.93248701095581,3,3,3,2,-12.62,4.08,-1.38,-12.8,2.03,-14.76
11.94248700141907,3,3,3,2,-13.95,4.83,-0.9,-15.37,3.16,-14.96
11.95248699188232,3,3,3,2,-13.97,5.93,-0.22,-17.58,4.12,-13.61
11.96248698234558,3,3,3,2,-12.04,5.59,-0.74,-19.88,5.5,-12.37
11.97248697280884,3,3,3,3,-11.07,6.09,-1.04,-18.98,7.36,-13.1
11.98248696327209,3,3,3,3,-9.720000000000001,5.18,-1.29,-16.81,7.95,-13.73
11.99248695373535,3,3,3,3,-9.51,4.08,-1.43,-14.53,8.26,-14.48
12.00248694419861,3,3,3,3,-9.390000000000001,3.55,-1.57,-10.28,8.01,-15.76
12.01248693466187,3,3,3,3,-9.4,3.37,-1.61,-4.18,7.53,-17.53
12.02248692512512,3,3,3,3,-9.609999999999999,3.14,-1.38,1.51,7.5,-19.03
12.03248691558838,3,3,3,3,-9.609999999999999,3.4,-1.59,7.04,7.26,-19.54
12.04248690605164,3,3,3,3,-9.369999999999999,3.86,-1.71,10.97,6.45,-19.53
12.05348706245422,3,3,3,3,-9.130000000000001,4.45,-1.64,11.96,5.2,-19.69
12.06348705291748,3,3,3,3,-8.58,5.18,-0.92,10.95,3.89,-20.22
12.07348704338074,3,3,3,3,-8.34,4.56,-0.84,10.43,2.78,-20.91
12.08348703384399,3,3,3,3,-7.97,4.76,-0.88,10.54,2.02,-21.05
12.09348702430725,3,3,3,3,-7.62,5.3,-0.82,11.15,1.19,-21.39
12.10348701477051,3,3,3,3,-7.19,4.26,-0.36,11.57,0.22,-21.55
12.11348700523376,3,3,3,3,-7.14,4.5,-0.5600000000000001,12.78,-0.17,-21.39
12.12348699569702,3,3,3,3,-6.84,5.19,-0.38,14,-1.02,-20.9
12.13348698616028,3,3,3,3,-6.54,5.66,-0.4,15.16,-2.18,-20.66
12.14348697662354,3,3,3,3,-6.37,5.88,-0.38,15.03,-2.34,-20.09
12.15348696708679,3,3,3,3,-6.01,5.25,-0.12,13.35,-1.77,-19.4
12.16348695755005,3,3,3,3,-5.9,4.54,0.21,11.46,-1.23,-19.28
12.17348694801331,3,3,3,3,-6.04,4.03,0.49,10.68,-0.85,-18.9
12.18348693847656,3,3,3,3,-6.44,3.29,0.27,10.54,-0.22,-17.72
12.19348692893982,3,3,3,3,-6.71,2.51,-0.09,9.68,0.67,-15.75
12.20348691940308,3,3,3,3,-6.95,0.8,-0.01,7.69,1.78,-13.2
12.21348690986633,3,3,3,3,-7.27,-0.58,0.01,7.27,2.74,-10.54
12.22348690032959,3,3,3,3,-8.140000000000001,-2.81,-0.09,8.5,3.33,-8.390000000000001
12.23348689079285,3,3,3,3,-9.050000000000001,-4.2,1.01,10.4,2.08,-7.23
12.2434868812561,3,3,3,3,-10.1,-5.37,2.7,13.57,-0.9,-5.97
12.25348687171936,3,3,3,3,-9.99,-6.53,3.74,17.13,-3.99,-4.64
12.26348686218262,3,3,3,3,-8.08,-8.970000000000001,2.19,18.49,-4.32,-4.16
12.27348709106445,3,3,3,3,-9.19,-9.300000000000001,1.42,17.68,-1.13,-3.78
12.28348708152771,3,3,3,3,-11.1,-11.18,0.82,16.23,2.37,-2.98
12.29348707199097,3,3,3,3,-11.23,-12.02,0.24,13.34,1.15,-1.89
12.30348706245422,3,3,3,3,-10.54,-12.2,0,9.869999999999999,-1.08,-2.21
12.31348705291748,3,3,3,3,-10.32,-10.57,-0.41,6.9,-1.33,-3.48
12.32348704338074,3,3,3,3,-10.12,-8.050000000000001,-0.36,4.03,0.43,-4.48
12.33348703384399,3,3,3,3,-11.4,-1.06,-2.79,2.87,1.75,-4.05
12.34348702430725,3,3,3,3,-12.34,3.47,-2.62,3.92,3.67,-3.29
12.35348701477051,3,3,3,3,-12.89,3.4,1.9,6.54,3.8,-3.25
12.36348700523376,3,3,3,3,-12.6,-4.29,5.74,1.42,-0.31,-3.56
12.37348699569702,3,3,3,3,-15.54,-14.67,4.33,-6.02,-1.8,-2.85
12.38348698616028,3,3,3,3,-12.62,-7.91,5.3,4.95,-0.32,-3.24
12.39348697662354,3,3,3,3,-6.45,1.59,5.69,21.25,-4.14,-4.41
12.40348696708679,3,3,3,3,-5.62,6.52,3.45,25.49,-6.35,5.19
12.41348695755005,3,3,3,3,-10.9,1.68,-4.28,18.77,0.19,9.220000000000001
12.42348694801331,3,3,3,3,-11.38,4.18,-5.64,13.32,5.89,8.380000000000001
12.43348693847656,3,3,3,3,-10.61,7.35,-4.11,15.63,6.53,8.869999999999999
12.44348692893982,3,3,3,3,-8.93,8.66,-4.04,14.28,5.15,10.09
12.45348691940308,3,3,3,3,-8.16,5.1,-5.89,8.49,6.32,10.25
12.46348690986633,3,3,3,3,-9.619999999999999,2.02,-4.51,3.32,7,10.79
12.47348690032959,3,3,3,2,-10.34,1.53,-1.18,-0.71,6.79,11.9
12.48348689079285,3,3,3,2,-11.26,3.02,0.86,0.19,6.35,13.29
12.4934868812561,3,3,3,2,-12.72,2.94,1.1,3.15,6.64,13.6
12.50348687171936,3,3,3,2,-11.7,0.67,1.01,2.79,6.81,12.81
12.51348686218262,3,3,3,2,-10.18,0.07000000000000001,0.66,2.5,6.95,11.57
12.52348709106445,3,3,3,2,-9.449999999999999,0.57,0.29,4.52,7.05,11.24
12.53348708152771,3,3,3,2,-10.01,0.37,-0.8100000000000001,5.82,6.54,11.42
12.54348707199097,3,3,3,2,-10.08,1.37,-1.83,5.45,6,11.71
12.55348706245422,3,3,3,2,-9.74,1.86,-2.54,4.77,5.7,11.47
12.56348705291748,3,3,3,2,-9.52,1.64,-3,2.72,5.3,10.97
12.57348704338074,3,3,3,1,-9.779999999999999,0.35,-2.94,-0.9399999999999999,4.89,10.68
12.58348703384399,3,3,3,1,-10,0.17,-2.49,-5.1,4.75,10.74
12.59348702430725,3,3,3,1,-10.13,-0.12,-2.19,-7.58,4.69,10.68
12.60348701477051,3,3,3,1,-10.18,-1.15,-1.66,-9.300000000000001,4.35,10.26
12.61348700523376,3,3,3,1,-9.869999999999999,-1.5,-0.57,-9.880000000000001,4.1,10.12
12.62348699569702,3,3,3,1,-9.77,-0.98,-0.66,-8.02,3.93,10.42
12.63348698616028,3,3,3,1,-9.890000000000001,-0.71,-0.66,-6.4,3.79,10.77
12.64348697662354,3,3,3,1,-9.74,-0.49,-0.8100000000000001,-5.8,3.73,10.8
12.65348696708679,3,3,3,1,-9.58,-0.86,-1.72,-6.34,3.82,10.81
12.66348695755005,3,3,3,1,-9.460000000000001,-1.92,-1.68,-8.210000000000001,3.71,10.72
12.67348694801331,3,3,3,1,-9.6,-1.79,-1.42,-10.68,2.96,11.24
12.68348693847656,3,3,3,1,-9.48,-1.67,-0.85,-10.16,2.97,10.78
12.69348692893982,3,3,3,1,-9.31,-1.49,-0.71,-8.69,3.02,10.5
12.70348691940308,3,3,3,1,-9.539999999999999,-0.78,-0.74,-7.49,3.1,10.38
12.71348690986633,3,3,3,1,-9.74,-0.33,-0.83,-6.84,3.01,10.26
12.72348690032959,3,3,3,1,-9.609999999999999,-0.8100000000000001,-1.34,-6.98,2.61,10.38
12.73348689079285,3,3,3,1,-9.539999999999999,-1.57,-1.39,-6.98,2.3,10.62
12.7434868812561,3,3,3,1,-9.31,-2.04,-1.44,-6.91,1.86,10.86
12.75348687171936,3,3,3,1,-9.119999999999999,-1.74,-1.37,-6.12,1.48,11.15
12.76348686218262,3,3,3,1,-9.34,-1.68,-1.47,-5.03,1.42,11.39
12.77348709106445,3,3,3,0,-9.43,-1.69,-1.49,-4.61,1.33,11.54
12.78348708152771,3,3,3,0,-9.41,-1.58,-1.29,-4.66,1.24,11.66
12.79348707199097,3,3,3,0,-9.640000000000001,-1.14,-1.46,-3.92,1.27,11.72
12.80348706245422,3,3,3,0,-9.75,-0.48,-1.2,-3.51,1.38,11.47
12.81348705291748,3,3,3,0,-10.12,0.12,-0.91,-3.39,1.3,11.05
12.82348704338074,3,3,3,0,-10.22,0.1,-0.93,-3.68,1.25,10.67
12.83348703384399,3,3,3,0,-10.25,-0.11,-0.88,-4.65,1.02,10.43
12.84348702430725,3,3,3,0,-9.74,-0.96,-0.79,-5.52,0.85,10.35
12.85348701477051,3,3,3,0,-9.550000000000001,-1.28,-0.82,-6.41,0.6899999999999999,10.64
12.86348700523376,3,3,3,0,-9.470000000000001,-1.61,-0.79,-7.07,0.76,10.74
12.87348699569702,3,3,3,0,-9.57,-1.88,-0.9,-7.46,0.84,10.48
12.88348698616028,3,3,3,0,-9.220000000000001,-2.15,-1.21,-7.31,0.8100000000000001,10.11
12.89348697662354,3,3,3,0,-9.24,-1.62,-1.66,-6.2,0.57,9.67
12.90348696708679,3,3,3,0,-9.380000000000001,-1.3,-2.03,-4.22,0.22,9.17
12.91348695755005,3,3,3,0,-9.619999999999999,-1.11,-2.28,-2.71,-0.08,8.51
12.92348694801331,3,3,3,0,-9.6,-0.08,-2.43,-1.64,-0.13,8.18
12.93348693847656,3,3,3,0,-9.720000000000001,-0.18,-2.55,-1.99,-0.21,8.140000000000001
12.94348692893982,3,3,3,0,-10.3,-0.46,-2.52,-2.85,0.05,8.26
12.95348691940308,3,3,3,0,-10.98,-0.28,-2.36,-3.81,0.22,8.65
12.96348690986633,3,3,3,0,-11.84,-1.33,-1.72,-4.61,0.07000000000000001,8.85
12.97348690032959,3,3,3,0,-11.81,-2.14,-1.47,-5.46,-0.43,9.109999999999999
12.98348689079285,3,3,3,0,-11.59,-3.38,-1.46,-6.09,-1.1,9.199999999999999
12.9934868812561,3,3,3,0,-11.76,-4.91,-1.53,-6.82,-1.07,8.56
13.00348687171936,3,3,3,0,-13.28,-6.81,0.53,-7.85,-0.36,7.9
13.01348686218262,3,3,3,0,-13.78,-6.24,1.96,-8.029999999999999,-0.13,6.73
13.02348709106445,3,3,3,0,-13.87,-5.64,2.78,-7.53,-2.04,5.13
13.03348708152771,3,3,3,0,-13.1,-4.69,4.28,-8.77,-4.94,2.95
13.04348707199097,3,3,3,0,-12.75,-5.35,3.27,-12.51,-7.24,1.02
13.05348706245422,3,3,3,0,-12.46,-5.92,2.21,-16.39,-8.07,-1.8
13.06348705291748,3,3,3,0,-11.57,-4.8,1.04,-17.8,-7.35,-3.47
13.07348704338074,3,3,3,0,-12.36,-2.84,-1.75,-15.85,-5.12,-5.96
13.08448696136475,3,3,3,0,-12.88,-0.43,-2.16,-11.68,-2.21,-8.32
13.094486951828,3,3,3,0,-13.07,2.27,-1.88,-6.64,0.48,-10.76
13.10448694229126,3,3,3,0,-13.27,4.23,-1.38,-3.93,1.73,-13.31
13.11448693275452,3,3,3,0,-14.32,3.36,-0.89,-5.82,1.54,-14.96
13.12448692321777,3,3,3,0,-14.8,4.09,-0.26,-10.59,1.75,-15.2
13.13448691368103,3,3,3,0,-15.18,6.31,-0.02,-14.77,4.28,-12.94
13.14448690414429,3,3,3,0,-14.45,7,-0.25,-17.03,6.33,-12.57
13.15448689460754,3,3,3,0,-11.59,6.07,-1.06,-15.47,7.26,-14.3
13.1644868850708,3,3,3,0,-10.51,5.84,-1.15,-15.47,7.26,-14.3
13.17448687553406,3,3,3,0,-10.28,5.34,-1.33,-13.37,7.42,-15.93
13.18448686599731,3,3,3,0,-10.21,4.47,-1.35,-7.31,6.84,-19.97
13.19448709487915,3,3,3,0,-9.66,4.12,-1.34,-2.86,6.39,-20.74
13.20448708534241,3,3,3,0,-9.289999999999999,4.74,-1.26,1.01,6.29,-20.79
13.21448707580566,3,3,3,0,-9.109999999999999,5.11,-1.22,1.01,6.29,-20.79
13.22448706626892,3,3,3,1,-8.99,4.91,-1.14,4.01,6.44,-20.83
13.23448705673218,3,3,3,1,-8.58,4.65,-1.24,9.779999999999999,6.68,-22.57
13.24448704719543,3,3,3,1,-8.529999999999999,4.71,-1.16,12.77,6.18,-22.8
13.25448703765869,3,3,3,1,-8.51,4.83,-1.18,14.71,4.3,-22.36
13.26448702812195,3,3,3,1,-8.199999999999999,5.6,-1.09,14.71,4.3,-22.36
13.27448701858521,3,3,3,1,-7.11,6.46,-0.39,14.6,1.74,-22.62
13.28448700904846,3,3,3,1,-6.78,6.54,-0.54,13.63,-1.18,-23.43
13.29448699951172,3,3,3,1,-6.6,6.81,-0.96,12.89,-1.7,-22.96
13.30448698997498,3,3,3,1,-6.38,6.6,-0.8,13.51,-2.14,-22.16
13.31448698043823,3,3,3,1,-5.74,6.44,-0.92,13.51,-2.14,-22.16
13.32448697090149,3,3,3,1,-5.67,6.81,-0.91,14.26,-2.63,-21.59
13.33448696136475,3,3,3,1,-5.44,7.02,-0.79,13.47,-3.16,-20.97
13.344486951828,3,3,3,1,-5.01,6.45,-0.91,11.94,-2.38,-20.54
13.35448694229126,3,3,3,1,-5.1,6.27,-0.63,9.23,-2.03,-19.78
13.36448693275452,3,3,3,1,-5.29,4.43,1.14,9.23,-2.03,-19.78
13.37448692321777,3,3,3,1,-5.9,1.99,1.58,7.47,-1.44,-17.78
13.38448691368103,3,3,3,1,-6.69,0.01,1.98,9.58,2.26,-9.630000000000001
13.39448690414429,3,3,3,1,-7.09,0.17,1.61,15.57,4.44,-7.67
13.40448689460754,3,3,3,1,-8.449999999999999,-0.27,0.77,15.14,4.6,-6
13.4144868850708,3,3,3,2,-9.66,-1.92,1.46,15.14,4.6,-6
13.42448687553406,3,3,3,2,-10.58,-6.62,4.14,13.09,2.86,-4.78
13.43448686599731,3,3,3,2,-10.31,-9.369999999999999,3.36,12,-0.35,-3.3
13.44448709487915,3,3,3,2,-9.92,-11.84,0.8100000000000001,11.36,1.4,-3.36
13.45448708534241,3,3,3,2,-10.76,-13.52,-2,10.06,2.47,-3.97
13.46448707580566,3,3,3,2,-12.12,-14.92,-1.01,10.06,2.47,-3.97
13.47448706626892,3,3,3,2,-10.52,-12.86,-0.6,11.13,-1.35,-3.47
13.48448705673218,3,3,3,2,-9.800000000000001,-9.880000000000001,-0.27,6.29,-1.29,-5.27
13.49448704719543,3,3,3,2,-9.98,-6.09,-0.13,3.39,2.3,-4.61
13.50448703765869,3,3,3,2,-11.44,-3.12,-4.37,2.6,6.72,-4.49
13.51448702812195,3,3,3,2,-14.65,2.67,-3.06,2.6,6.72,-4.49
13.52448701858521,3,3,3,2,-15.13,4.6,3.8,6.38,4.09,-4.45
13.53448700904846,3,3,3,2,-13.46,-5.32,7.02,-5.83,-3.92,-2.6
13.54448699951172,3,3,3,2,-15.39,-16.81,5.44,15.53,-6.03,-3.38
13.55448698997498,3,3,3,2,-8.210000000000001,-1.54,6.86,30.11,-6.68,5.22
13.56448698043823,3,3,3,2,-4.05,8.66,3.72,30.11,-6.68,5.22
13.57448697090149,3,3,3,2,-6.41,2.48,-3.49,18.52,2.09,7.56
13.58448696136475,3,3,3,2,-10.43,5.5,-6,22.46,7.57,9.48
13.594486951828,3,3,3,2,-10.25,12.05,-3.23,22.1,6.83,11.59
13.60448694229126,3,3,3,2,-9.1,15.83,-5.08,11,7.82,11.11
13.61448693275452,3,3,3,2,-9.300000000000001,11.98,-7.48,11,7.82,11.11
13.62448692321777,3,3,3,2,-9.390000000000001,2.88,-3.12,-0.29,7.25,11.64
13.63448691368103,3,3,3,2,-9.880000000000001,2.82,-0.5600000000000001,-2.01,6.42,14.66
13.64448690414429,3,3,3,2,-12.21,4.31,0.34,-1.06,6.38,14.42
13.65448689460754,3,3,3,2,-12.46,2.63,0.82,-3.42,6.31,12.54
13.6644868850708,3,3,3,2,-10.72,0.82,0.31,-3.42,6.31,12.54
13.67448687553406,3,3,3,2,-9.92,1.01,-0.08,-3.17,6.21,11.58
13.68448686599731,3,3,3,2,-9.93,1.69,-0.5600000000000001,-1.7,5.52,10.78
13.69448709487915,3,3,3,2,-9.81,0.16,-2.33,-2.36,5.07,11.22
13.70448708534241,3,3,3,2,-9.720000000000001,1.14,-3.17,-2.49,4.85,11.26
13.71448707580566,3,3,3,2,-9.75,1.75,-3.88,-2.49,4.85,11.26
13.72448706626892,3,3,3,2,-9.81,0.87,-4.24,-4.76,4.73,10.92
13.73448705673218,3,3,3,2,-9.74,-0.3,-3.39,-10.95,4.31,10.97
13.74448704719543,3,3,3,2,-9.970000000000001,-1.09,-2.5,-12.92,3.95,10.71
13.75448703765869,3,3,3,2,-10.04,-1.83,-1.59,-13.45,3.58,10.67
13.76448702812195,3,3,3,2,-10.21,-2.02,-1.19,-13.45,3.58,10.67
13.77448701858521,3,3,3,2,-10.18,-0.78,-0.72,-12.23,3.4,10.65
13.78448700904846,3,3,3,2,-9.99,0.28,-0.88,-10.25,3.25,10.61
13.79448699951172,3,3,3,2,-9.93,0.6,-1.19,-11.38,3.3,10.56
13.80448698997498,3,3,3,2,-9.779999999999999,0.03,-1.35,-12.2,3.33,10.87
13.81448698043823,3,3,3,2,-9.460000000000001,-0.53,-1.46,-12.2,3.33,10.87
13.82448697090149,3,3,3,2,-9.99,0.21,-1.3,-12.89,2.8,11.79
13.83448696136475,3,3,3,2,-9.67,-0.58,-1.44,-12.72,2.21,10.59
13.844486951828,3,3,3,2,-9.289999999999999,-1.6,-1.47,-11.08,1.86,10.34
13.85448694229126,3,3,3,2,-9.31,-1.51,-1.35,-9.369999999999999,1.78,10.34
13.86448693275452,3,3,3,2,-9.34,-1.38,-1.64,-9.369999999999999,1.78,10.34
13.87448692321777,3,3,3,2,-9.220000000000001,-1.63,-1.92,-8.43,1.65,10.45
13.88448691368103,3,3,3,2,-9.06,-1.91,-2.05,-6.03,1.42,10.81
13.89448690414429,3,3,3,2,-8.98,-1.51,-2.08,-4.72,1.47,10.91
13.90448689460754,3,3,3,2,-9.359999999999999,-0.8100000000000001,-1.85,-4.13,1.34,11.32
13.9144868850708,3,3,3,2,-9.52,-0.22,-1.62,-4.13,1.34,11.32
13.92448687553406,3,3,3,2,-9.65,0.13,-1.56,-4.46,1.02,11.73
13.93448686599731,3,3,3,2,-9.52,-0.14,-1.46,-6.56,-0.1,12.34
13.94448709487915,3,3,3,2,-9.35,-0.55,-1.2,-7.19,-0.17,12.12
13.95448708534241,3,3,3,2,-9.289999999999999,-1.09,-1.04,-6.93,0.11,11.85
13.96448707580566,3,3,3,2,-9.43,-1.29,-1.14,-6.93,0.11,11.85
13.97448706626892,3,3,3,2,-10,-0.8,-1.22,-6.75,0.51,11.41
13.98448705673218,3,3,3,2,-10.56,-1.01,-1.26,-6.84,0.37,10.77
13.99448704719543,3,3,3,2,-10.57,-1.51,-1.43,-6.82,-0.03,10.6
14.00448703765869,3,3,3,2,-9.619999999999999,-3.45,-1.35,-6.9,-0.26,10.56
14.01448702812195,3,3,3,2,-9.210000000000001,-3.93,-1.21,-6.9,-0.26,10.56
14.02448701858521,3,3,3,2,-9.31,-3.52,-1.03,-5.98,0.2,10.2
14.03448700904846,3,3,3,2,-9.24,-3.28,-1.24,-4.28,0.18,9.76
14.04448699951172,3,3,3,2,-9.42,-1.92,-1.5,-3.25,-0.05,8.960000000000001
14.05448698997498,3,3,3,2,-9.640000000000001,-1.51,-1.76,-2.64,-0.52,8.19
14.06448698043823,3,3,3,2,-9.869999999999999,-1.18,-1.73,-2.64,-0.52,8.19
14.07448697090149,3,3,3,2,-9.94,-0.88,-2,-1.82,-0.8100000000000001,7.73
14.08448696136475,3,3,3,2,-10.26,-0.49,-2.41,-2.45,-0.66,8.26
14.094486951828,3,3,3,2,-10.87,-0.73,-2.61,-3.76,-0.76,8.66
14.10548686981201,3,3,3,2,-11.33,-1.31,-2.68,-5.13,-1.06,8.6
14.11548709869385,3,3,3,2,-11.88,-2.41,-2.45,-5.13,-1.06,8.6
14.1254870891571,3,3,3,2,-11.91,-5.65,-1.8,-6.6,-1.46,8.550000000000001
14.13548707962036,3,3,3,2,-12.23,-7.63,0.12,-9.890000000000001,-0.92,7.9
14.14548707008362,3,3,3,2,-13.05,-8.029999999999999,1.65,-10.15,-1,7.07
14.15548706054688,3,3,3,2,-14.15,-7.7,3.81,-9.789999999999999,-2.64,4.91
14.16548705101013,3,3,3,3,-14.15,-7.7,3.81,-9.789999999999999,-2.64,4.91
14.17548704147339,3,3,3,3,-13.98,-6.82,4.48,-10.52,-5.54,1.76
14.18548703193665,3,3,3,3,-12.55,-6.02,2.08,-15.1,-9.19,-3.78
14.1954870223999,3,3,3,3,-12.02,-4.04,-1.42,-14.19,-7.32,-5.69
14.20548701286316,3,3,3,3,-12.66,-1.82,-2.57,-9.31,-4.4,-7.03
14.21548700332642,3,3,3,3,-12.66,-1.82,-2.57,-9.31,-4.4,-7.03
14.22548699378967,3,3,3,3,-13.97,0.97,-2.83,-3.06,-1.13,-9.85
14.23548698425293,3,3,3,3,-14.42,4.91,-1.53,-1.21,1.39,-14.16
14.24548697471619,3,3,3,3,-14.95,3.96,-1.65,-6.87,0.92,-15.14
14.25548696517944,3,3,3,3,-15.76,4.95,-0.99,-10.55,2.04,-14.56
14.2654869556427,3,3,3,3,-15.76,4.95,-0.99,-10.55,2.04,-14.56
14.27548694610596,3,3,3,3,-15.88,7.1,-0.37,-11.2,3.45,-13.44
14.28548693656921,3,3,3,3,-11.39,6.49,-1.18,-15.5,6.84,-14.43
14.29548692703247,3,3,3,3,-10.57,6.33,-1.29,-13.9,7.34,-16.12
14.30548691749573,3,3,3,3,-10.42,5.53,-1.25,-11.54,7.68,-18.12
14.31548690795898,3,3,3,2,-10.42,5.53,-1.25,-11.54,7.68,-18.12
14.32548689842224,3,3,3,2,-10.2,5.36,-1.18,-5.13,6.89,-19.8
14.3354868888855,3,3,3,2,-8.83,4.89,-1.25,-1.67,6.82,-20.06
14.34548687934875,3,3,3,2,-8.26,3.56,-1.14,2.78,7.14,-21.29
14.35548686981201,3,3,3,2,-8.51,3.93,-1.21,8.92,7.37,-22.53
14.36548709869385,3,3,3,2,-8.51,3.93,-1.21,8.92,7.37,-22.53
14.3754870891571,3,3,3,2,-8.57,4.56,-1.69,14.95,6.35,-22.35
14.38548707962036,3,3,3,2,-7.48,6.64,-1.2,14.53,2.16,-21.92
14.39548707008362,3,3,3,2,-6.83,6.45,-0.79,13.44,-0.01,-22.27
14.40548706054688,3,3,3,2,-6.56,6.03,-0.78,14.35,-1.63,-22.31
14.41548705101013,3,3,3,1,-6.56,6.03,-0.78,14.15,-1.98,-22.55
14.42548704147339,3,3,3,1,-6.57,6.33,-1.09,13.33,-2.51,-22.23
14.43548703193665,3,3,3,1,-6.13,6.12,-1.44,14.05,-2.92,-21.66
14.4454870223999,3,3,3,1,-5.99,6.32,-1.39,14.81,-3.05,-20.81
14.45548701286316,3,3,3,1,-5.73,6.81,-1.07,15.34,-3.85,-20.01
14.46548700332642,3,3,3,1,-5.73,6.81,-1.07,15.44,-4.69,-19.31
14.47548699378967,3,3,3,1,-5.37,7.88,-0.34,14.28,-5.09,-19.48
14.48548698425293,3,3,3,1,-5.45,7.14,0.61,11.76,-4.98,-18.96
14.49548697471619,3,3,3,1,-5.67,6.57,0.92,9.119999999999999,-4.15,-17.28
14.50548696517944,3,3,3,1,-6.36,3.25,1.63,5.93,-2.64,-14.83
14.5154869556427,3,3,3,0,-6.55,1.47,1.12,4.44,-1.22,-10.95
14.52548694610596,3,3,3,0,-6.74,0.23,0.24,5.89,1.38,-7.86
14.53548693656921,3,3,3,0,-7.89,-1.39,-0.34,7.96,4.1,-7.19
14.56548690795898,3,3,3,0,-10.73,-8.56,3.91,8.77,0.5,-3.76
14.57548689842224,3,3,3,0,-9.4,-11.52,2.85,7.42,0.09,-2.17
14.5854868888855,3,3,3,0,-11.97,-15.66,-2.12,7.19,4.33,-2.37
14.59548687934875,3,3,3,0,-13.23,-16.27,-0.61,7.27,4.57,-2.51
14.60548686981201,3,3,3,0,-11.81,-15.42,0.89,9.800000000000001,-2.48,-3.34
14.61548709869385,3,3,3,0,-9.75,-13.96,0.36,10.36,-5.34,-5.32
14.6254870891571,3,3,3,0,-9.699999999999999,-5.78,0.05,9.119999999999999,-1.6,-6.54
14.63548707962036,3,3,3,0,-10.48,-1.35,-1.13,7.73,1.3,-5.91
14.64548707008362,3,3,3,0,-11.39,1.67,-3.69,7.93,3.32,-3.72
14.65548706054688,3,3,3,0,-12.36,3.04,2.05,7.26,4.88,-2.69
14.66548705101013,3,3,3,0,-12.39,-5.7,6.13,0.16,-1.04,-1.76
14.67548704147339,3,3,3,0,-15.42,-14.85,6.3,-9.42,-3.22,-0.49
14.68548703193665,3,3,3,0,-15.85,-14.81,5.86,2.32,-2.72,-2.12
14.6954870223999,3,3,3,0,-7.33,0.55,3.47,18.51,-3.01,0.05
14.70548701286316,3,3,3,0,-7.17,-1.19,-1.87,19.79,0.06,6.13
14.71548700332642,3,3,3,0,-7.97,-0.49,-4.26,17.27,3.86,6.52
14.72548699378967,3,3,3,0,-9.640000000000001,3.29,-4.46,22.29,6.51,9.43
14.73548698425293,3,3,3,0,-9.69,15.61,-3.85,29.04,7.93,11.35
14.74548697471619,3,3,3,0,-8.4,14.74,-6.6,25.19,8.220000000000001,10.67
14.75548696517944,3,3,3,0,-8.44,9.140000000000001,-7.27,10.45,7.76,10.4
14.7654869556427,3,3,3,0,-9.210000000000001,4.84,-5.33,-1.43,7.09,11.91
14.77548694610596,3,3,3,0,-10.44,4.37,-1.72,-3.9,7.04,13
14.78548693656921,3,3,3,0,-12.72,5.1,-1.23,-2.04,6.95,13.58
14.79548692703247,3,3,3,0,-13.2,3.17,-0.19,-3,6.58,13.67
14.80548691749573,3,3,3,0,-12.05,0.55,0.66,-4.09,6.37,12.81
14.81548690795898,3,3,3,0,-10.5,0.7,0.33,-0.79,6.34,12.11
14.82548689842224,3,3,3,0,-10.03,1.75,-0.48,2.67,6.09,11.54
14.8354868888855,3,3,3,0,-9.630000000000001,2.16,-1.49,3.7,5.72,11.47
14.84548687934875,3,3,3,0,-9.67,2.28,-2.53,1.97,5.28,11.55
14.85548686981201,3,3,3,0,-9.66,2.36,-4.02,0,5.1,11.16
14.86548709869385,3,3,3,0,-9.6,1.66,-4.12,-3.34,5.01,11.07
14.8754870891571,3,3,3,0,-9.67,0.7,-3.8,-7.53,4.97,11.36
14.88548707962036,3,3,3,0,-9.73,0.7,-2.97,-10.69,4.85,11.5
14.89548707008362,3,3,3,0,-10.4,-0.46,-1.54,-12.74,4.56,11.32
14.90548706054688,3,3,3,0,-10.43,-1.19,-1.02,-12.92,4.22,11.18
14.91548705101013,3,3,3,0,-10.19,-0.79,-0.71,-11.49,4.03,11.43
14.92548704147339,3,3,3,0,-9.93,0.19,-0.76,-10.27,3.91,11.98
14.93548703193665,3,3,3,0,-9.609999999999999,-1.02,-1.43,-11.15,3.72,12.41
14.9454870223999,3,3,3,0,-9.83,-0.6899999999999999,-1.31,-12.5,3.14,13.03
14.95548701286316,3,3,3,0,-9.52,-1.22,-1.6,-11.55,3.48,12.34
14.96548700332642,3,3,3,0,-9.31,-1.93,-1.47,-12.26,3.13,12.34
14.97548699378967,3,3,3,0,-9.33,-2.68,-1.51,-12.62,2.82,11.77
14.98548698425293,3,3,3,0,-9.42,-2.86,-1.51,-11.98,2.57,11.49
14.99548697471619,3,3,3,0,-9.18,-2.96,-1.35,-10.85,2,11.66
15.00548696517944,3,3,3,0,-9.289999999999999,-3.65,-1.39,-9.529999999999999,1.63,11.91
15.0154869556427,3,3,3,0,-9.050000000000001,-3.43,-1.59,-7.32,1.62,12.03
15.02548694610596,3,3,3,0,-9.18,-2.77,-1.57,-4.97,1.99,11.7
15.03548693656921,3,3,3,0,-9.470000000000001,-1.68,-1.58,-3.05,2.23,11.33
15.04548692703247,3,3,3,0,-9.859999999999999,0.42,-1.47,-2.09,2.27,11
15.05548691749573,3,3,3,0,-9.94,1.07,-1.46,-2.26,2.21,10.6
15.06548690795898,3,3,3,0,-9.83,1.13,-1.32,-3.29,1.86,10.55
15.07548689842224,3,3,3,0,-9.800000000000001,1.08,-1.21,-4.34,1.32,11.15
15.0854868888855,3,3,3,0,-9.84,0.03,-1.32,-5.66,0.9,11.43
15.09548687934875,3,3,3,0,-9.859999999999999,-0.22,-1.36,-7.3,0.65,11.63
15.10548686981201,3,3,3,0,-9.800000000000001,-0.54,-1.63,-8.34,0.63,11.58
15.11548709869385,3,3,3,0,-10.03,-0.9399999999999999,-1.79,-9.1,0.83,11.38
15.12648701667786,3,3,3,0,-10.16,-1.62,-1.77,-9.67,0.68,11.44
15.13648700714111,3,3,3,0,-10.31,-1.75,-1.69,-9.300000000000001,0.6,11.48
15.14648699760437,3,3,3,0,-9.960000000000001,-2.45,-1.45,-9.19,0.29,11.51
15.15648698806763,3,3,3,0,-9.529999999999999,-3.26,-1.15,-8.59,0.05,11.27
15.16648697853088,3,3,3,0,-9.300000000000001,-3.44,-0.75,-7.44,0.14,10.84
15.17648696899414,3,3,3,0,-9.35,-2.86,-1.05,-6.14,0.49,10.23
15.1864869594574,3,3,3,0,-9.6,-1.96,-1.25,-4.74,0.6899999999999999,9.44
15.19648694992065,3,3,3,0,-9.880000000000001,-1.68,-1.51,-3.95,0.24,8.82
15.20648694038391,3,3,3,0,-10.16,-0.62,-2.19,-3.14,-0.47,8.48
15.21648693084717,3,3,3,0,-10.12,-0.55,-2.56,-2.69,-0.9,8.470000000000001
15.22648692131042,3,3,3,0,-10.4,-0.82,-2.52,-2.89,-1.07,8.57
15.23648691177368,3,3,3,0,-11.05,-1.19,-2.55,-3.29,-0.91,8.699999999999999
15.24648690223694,3,3,3,0,-11.81,-2.29,-2.2,-3.4,-0.98,9.02
15.2564868927002,3,3,3,0,-12.25,-3.16,-1.78,-3.45,-1.21,9.029999999999999
15.26648688316345,3,3,3,0,-12.25,-4.4,-1.7,-4.17,-1.58,8.59
15.27648687362671,3,3,3,0,-12.09,-5.8,-1.27,-6.1,-1.27,7.75
15.28648686408997,3,3,3,0,-12.75,-7.49,1.56,-8.890000000000001,-0.73,6.47
15.2964870929718,3,3,3,0,-13.33,-7.39,2.94,-9.970000000000001,-1.56,5.13
15.30648708343506,3,3,3,0,-13.74,-6.98,4.65,-11.17,-4.04,2.73
15.31648707389832,3,3,3,1,-13.42,-7.07,4.32,-14.51,-7.38,-0.44
15.32648706436157,3,3,3,1,-12.11,-6.31,2.98,-17.68,-9.130000000000001,-3.42
15.33648705482483,3,3,3,1,-11.34,-6.17,1.09,-18.71,-7.9,-6.13
15.34648704528809,3,3,3,1,-11.4,-4.78,-0.44,-15.84,-4.79,-8.369999999999999
15.35648703575134,3,3,3,1,-12.57,-0.06,-2.46,-9.289999999999999,-1.26,-11.79
15.3664870262146,3,3,3,1,-13.78,1.95,-2.36,-2.92,1.28,-14.48
15.37648701667786,3,3,3,1,-15.12,3.71,-1.9,-0.58,2.01,-15.42
15.38648700714111,3,3,3,1,-16.5,3.92,-1.54,-3.6,0.83,-15.22
15.39648699760437,3,3,3,1,-17,5.83,-0.29,-8.789999999999999,0.03,-12.71
15.40648698806763,3,3,3,1,-14.5,8.73,-0.09,-9.390000000000001,1.29,-11
15.41648697853088,3,3,3,1,-12.35,8.210000000000001,-0.79,-12.65,4.14,-11.8
15.42648696899414,3,3,3,1,-12.8,6.44,-0.87,-17.73,6.76,-13.53
15.4364869594574,3,3,3,1,-10.77,6.23,-1.47,-15.88,7.35,-15.15
15.44648694992065,3,3,3,1,-10.59,6.8,-1.66,-12.98,7.34,-16.94
15.45648694038391,3,3,3,1,-10.25,6.34,-1.61,-10.93,7.62,-18.91
15.46648693084717,3,3,3,1,-10.54,5.91,-1.36,-8.359999999999999,7.87,-19.6
15.47648692131042,3,3,3,1,-9.199999999999999,4.97,-1.25,-4.96,7.77,-19.83
15.48648691177368,3,3,3,1,-9.220000000000001,4.74,-1.19,-1.08,8.26,-21.74
15.49648690223694,3,3,3,1,-9.470000000000001,4.91,-0.8100000000000001,4.16,8.76,-22.8
15.5064868927002,3,3,3,1,-9.369999999999999,4.79,-1,9.92,7.84,-22.66
15.51648688316345,3,3,3,1,-8.58,6.46,-1.04,12.36,5.98,-22.35
15.52648687362671,3,3,3,1,-8.109999999999999,7.11,-0.86,11.16,4.14,-22.81
15.53648686408997,3,3,3,1,-7.7,6.94,-0.75,9.81,2.53,-23.24
15.5464870929718,3,3,3,1,-7.18,6.83,-0.72,9.81,0.93,-23.35
15.55648708343506,3,3,3,1,-6.28,6.89,-0.58,10.15,-0.42,-23.59
15.56648707389832,3,3,3,1,-6.15,6.6,-0.46,10.26,-1.29,-23.65
15.57648706436157,3,3,3,1,-6.19,6.11,-0.6,10.43,-1.67,-23.29
15.58648705482483,3,3,3,1,-6.03,5.98,-0.47,12.07,-2.66,-22.51
15.59648704528809,3,3,3,1,-5.14,6.76,0.08,14.72,-4.25,-22.24
15.60648703575134,3,3,3,1,-4.84,7.19,-0.03,16.38,-5.46,-22.42
15.6164870262146,3,3,3,1,-4.99,7.22,0.02,16.22,-5.91,-22.08
15.62648701667786,3,3,3,1,-5.1,6.9,0.59,14.81,-6.05,-21.12
15.63648700714111,3,3,3,1,-5.21,4.79,0.93,12.59,-5.08,-19.57
15.64648699760437,3,3,3,1,-5.67,3.35,1.08,9.460000000000001,-3.23,-16.72
15.65648698806763,3,3,3,1,-6.44,1.88,1.38,8.380000000000001,-1.69,-12.6
15.66648697853088,3,3,3,1,-8.15,-0.41,1.86,10.68,0.25,-8.710000000000001
15.67648696899414,3,3,3,1,-8.65,-1.18,1.17,13.37,2.3,-7.09
15.6864869594574,3,3,3,1,-9.09,-2.42,1.47,15.65,2.55,-7.28
15.69648694992065,3,3,3,1,-9.91,-4.19,2.57,17.28,2.75,-7.18
15.70648694038391,3,3,3,1,-11.03,-9.01,2.7,15.44,1.96,-6.27
15.71648693084717,3,3,3,1,-9.380000000000001,-11.66,1.51,14.08,-0.6,-4.99
15.72648692131042,3,3,3,1,-9.289999999999999,-15.7,-1.13,12.41,1.7,-5.53
15.73648691177368,3,3,3,1,-12.12,-17.55,-1.83,11.08,3.31,-4.83
15.74648690223694,3,3,3,1,-10.87,-16,0.24,12.28,-4.33,-4.34
15.7564868927002,3,3,3,1,-9.23,-11.72,-0.12,12.85,-6.81,-5.25
15.76648688316345,3,3,3,1,-8.59,-6.19,0.19,11.04,-3.63,-7.53
15.77648687362671,3,3,3,1,-8.890000000000001,-2.68,0.55,5.48,0.18,-9.24
15.78648686408997,3,3,3,1,-10.97,3.03,-2.63,2.61,1.79,-8.57
15.7964870929718,3,3,3,1,-12.67,6.76,-4.22,6.43,1.18,-5.36
15.80648708343506,3,3,3,1,-13.09,7.25,0.4,12.7,-1.29,-0.9399999999999999
15.81648707389832,3,3,3,1,-11.81,-0.19,6.32,2.56,-6.15,1.92
15.82648706436157,3,3,3,1,-12.76,-15.07,6,-8.24,-5.42,2.85
15.83648705482483,3,3,3,1,-12.59,-10.75,4.2,1.68,-0.42,5.29
15.84648704528809,3,3,3,1,-9.99,-2.69,2.43,15.13,5.41,5.13
15.85648703575134,3,3,3,1,-8.220000000000001,0.86,2.55,18.45,6.24,6.31
15.8664870262146,3,3,3,1,-12.91,1.98,-5.92,17.06,8.31,9.67
15.87648701667786,3,3,3,1,-14.94,5.1,-7.28,21.67,9.68,10.19
15.88648700714111,3,3,3,1,-12.09,11.01,-5.55,26.04,7.72,9.52
15.89648699760437,3,3,3,1,-7.83,11.71,-5.41,15.12,7.54,10.08
15.90648698806763,3,3,3,1,-7.29,3.77,-5.57,4.05,7.81,11.26
15.91648697853088,3,3,3,1,-8.25,4.2,-3.43,1.68,7.73,11.11
15.92648696899414,3,3,3,1,-10.07,5.46,-2.56,0.88,7.76,12.35
15.9364869594574,3,3,3,1,-12.58,3.66,-1.8,-2.46,7.06,13.13
15.94648694992065,3,3,3,1,-12.01,1.35,-1.36,-7.22,6.08,12.61
15.95648694038391,3,3,3,1,-11.65,-0.13,-1.06,-7.16,5.49,11.5
15.96648693084717,3,3,3,1,-11.05,-0.18,-0.92,-2.54,5.44,10.66
15.97648692131042,3,3,3,1,-9.5,1.2,-1.47,1.46,5.52,10.26
15.98648691177368,3,3,3,1,-9.74,1.62,-1.99,2.97,5.5,10.69
15.99648690223694,3,3,3,1,-10,1.89,-2.44,2.86,5.53,10.71
16.0064868927002,3,3,3,1,-10.11,2.18,-2.57,1.4,5.53,10.55
16.01648688316345,3,3,3,2,-10.09,2.38,-1.9,-1.36,5.45,10.88
16.02648687362671,3,3,3,2,-10.2,1.61,-1.73,-5.99,5.09,11.06
16.03648686408997,3,3,3,2,-10.16,1.25,-1.5,-9.41,4.65,10.86
16.0464870929718,3,3,3,2,-10.2,0.93,-1.13,-11.75,4.06,10.89
16.05648708343506,3,3,3,2,-10.3,-0.53,-0.98,-13.58,3.46,10.85
16.06648707389832,3,3,3,2,-10.08,-0.78,-0.86,-13.39,3.15,10.68
16.07648706436157,3,3,3,2,-9.69,-0.72,-1.04,-12.12,3.28,10.56
16.08648705482483,3,3,3,2,-9.390000000000001,-1.14,-1.14,-11.73,3.01,11.18
16.09648704528809,3,3,3,2,-9.18,-1.11,-1.21,-10.52,3.52,10.72
16.10648703575134,3,3,3,2,-9.279999999999999,-1.06,-1.3,-10.56,3.5,10.69
16.1164870262146,3,3,3,2,-9.51,-1.52,-1.17,-10.21,3.56,10.35
16.12648701667786,3,3,3,2,-9.42,-1.22,-1.02,-9.949999999999999,3.28,10.44
16.13648700714111,3,3,3,2,-9.76,-1.39,-1.11,-9.75,2.88,10.34
16.14648699760437,3,3,3,2,-9.81,-1.32,-1.19,-9.27,2.33,10.48
16.15748691558838,3,3,3,2,-9.619999999999999,-1.25,-1.45,-8.67,1.88,10.7
16.16748690605164,3,3,3,3,-9.5,-1.27,-1.73,-8.050000000000001,1.45,11.12
16.17748689651489,3,3,3,3,-9.41,-1.67,-2.11,-7.6,1.08,11.73
16.18748688697815,3,3,3,3,-9.34,-1.98,-2.25,-7.01,0.88,12.1
16.19748687744141,3,3,3,3,-9.42,-2.01,-2.18,-6.31,0.71,12.35
16.20748686790466,3,3,3,3,-9.41,-2.05,-1.98,-6.2,0.54,12.6
16.2174870967865,3,3,3,3,-9.19,-2.24,-1.44,-5.71,0.5600000000000001,12.63
16.22748708724976,3,3,3,3,-9.24,-2.18,-1.2,-4.94,0.6899999999999999,12.43
16.23748707771301,3,3,3,3,-9.52,-2.29,-1.27,-4.22,0.9,12.19
16.24748706817627,3,3,3,3,-9.69,-2.07,-1.35,-4.03,0.86,11.85
16.25748705863953,3,3,3,3,-9.859999999999999,-1.17,-1.22,-4.16,0.84,11.22
16.26748704910278,3,3,3,3,-9.890000000000001,-1.06,-1.46,-4.54,0.78,10.57
16.27748703956604,3,3,3,3,-10.05,-0.99,-1.49,-4.91,0.76,10.1
16.2874870300293,3,3,3,3,-9.880000000000001,-1.31,-1.61,-5.24,0.71,10.01
16.29748702049255,3,3,3,3,-9.49,-1.7,-1.47,-5.35,0.6899999999999999,10.03
16.30748701095581,3,3,3,3,-9.380000000000001,-1.76,-1.31,-5.37,0.82,9.890000000000001
16.31748700141907,3,3,3,3,-9.380000000000001,-1.81,-1.26,-5.46,0.75,9.66
16.32748699188232,3,3,3,3,-9.289999999999999,-1.46,-1.37,-4.99,0.57,9.390000000000001
16.33748698234558,3,3,3,3,-9.6,-0.83,-1.6,-3.74,0.43,9.279999999999999
16.34748697280884,3,3,3,3,-9.800000000000001,-0.28,-1.76,-2.59,0.18,9.130000000000001
16.35748696327209,3,3,3,3,-9.83,0.35,-1.59,-2.01,-0.04,8.869999999999999
16.36748695373535,3,3,3,3,-10.21,0.73,-1.42,-2.16,-0.14,8.81
16.37748694419861,3,3,3,3,-10.18,0.77,-1.74,-2.91,-0.25,8.74
16.38748693466187,3,3,3,3,-10.22,0.23,-2.01,-3.85,-0.27,8.74
16.39748692512512,3,3,3,3,-10.8,-0.57,-2.13,-4.88,-0.25,9.02
16.40748691558838,3,3,3,3,-11.52,-1.57,-1.99,-5.49,-0.39,9.4
16.41748690605164,3,3,3,3,-11.84,-2.79,-1.78,-5.72,-0.58,9.16
16.42748689651489,3,3,3,3,-12.1,-4.19,-1.83,-6,-0.63,8.779999999999999
16.43748688697815,3,3,3,3,-12.51,-5.58,-1.52,-7.11,-0.64,8.31
16.44748687744141,3,3,3,3,-13.24,-7.29,0.86,-8.24,-0.59,7.38
16.45748686790466,3,3,3,3,-13.16,-7.71,1.92,-8.56,-1.77,5.84
16.4674870967865,3,3,3,3,-13.02,-7.95,3.6,-9.17,-3.91,3.77
16.47748708724976,3,3,3,3,-12.81,-6.87,5.15,-11.63,-6.73,1.07
16.48748707771301,3,3,3,3,-12.57,-5.01,4.4,-15.65,-9,-1.47
16.49748706817627,3,3,3,3,-12.03,-4.91,3.22,-19.65,-9.85,-4.67
16.50748705863953,3,3,3,3,-11.59,-3.81,1.8,-20.45,-8.5,-7.59
16.51748704910278,3,3,3,3,-12.01,-2.04,0.39,-17.68,-5.98,-10.38
16.52748703956604,3,3,3,3,-12.54,0.57,-2.41,-13.95,-2.32,-13.2
16.5374870300293,3,3,3,3,-13.09,1.96,-2.44,-10.15,0.6899999999999999,-14.62
16.54748702049255,3,3,3,3,-13.91,3.37,-2.04,-8.31,2.03,-15.16
16.55748701095581,3,3,3,3,-14.79,3.59,-1.62,-10.68,1.87,-15.21
16.56748700141907,3,3,3,3,-14.99,5.37,-0.8,-14.15,2.59,-15.14
16.57748699188232,3,3,3,3,-15.25,6.32,-0.65,-15.59,4.12,-15.39
16.58748698234558,3,3,3,3,-13.99,6.32,-1.15,-17.6,6.14,-13.93
16.59748697280884,3,3,3,3,-12.77,5.53,-1.75,-17.58,7.73,-13.73
16.60748696327209,3,3,3,3,-10.9,5.89,-1.85,-14.02,8.09,-14.62
16.61748695373535,3,3,3,3,-10.48,5.78,-2.03,-10.37,7.7,-15.87
16.62748694419861,3,3,3,3,-10.29,5.5,-2.11,-7.22,7.04,-17.68
16.63748693466187,3,3,3,3,-9.890000000000001,5.67,-2.37,-3.82,6.23,-19.15
16.64748692512512,3,3,3,3,-9.199999999999999,5.59,-2.05,-0.32,6.02,-19.08
16.65748691558838,3,3,3,3,-8.960000000000001,4.85,-2.2,2.94,7.08,-19.3
16.66748690605164,3,3,3,3,-8.859999999999999,3.62,-2.04,7.13,8.19,-20.3
16.67748689651489,3,3,3,3,-9.359999999999999,3.87,-1.89,13.27,8.199999999999999,-20.5
16.68748688697815,3,3,3,3,-8.98,5.1,-2.06,18.83,5.5,-19.66
16.69748687744141,3,3,3,3,-7.84,6.58,-1.7,19.61,3.15,-19.53
16.70748686790466,3,3,3,3,-6.85,7.2,-1.42,17.7,1.84,-21.09
16.7174870967865,3,3,3,3,-6.74,7.13,-1.25,15.75,0.48,-21.65
16.72748708724976,3,3,3,3,-6.57,6.83,-0.89,14.76,-1,-21.74
16.73748707771301,3,3,3,3,-6.46,6.51,-1.04,14.22,-1.2,-21.99
16.74748706817627,3,3,3,3,-6.59,6.31,-1.11,14.14,-0.91,-21.3
16.75748705863953,3,3,3,3,-6.14,5.92,-0.79,14.83,-1.17,-20.15
16.76748704910278,3,3,3,3,-6.01,6.09,-0.59,15.25,-1.52,-19.55
16.77748703956604,3,3,3,3,-5.85,6.88,0,15.21,-2.49,-19.14
16.7874870300293,3,3,3,3,-5.33,6.6,1.09,15.62,-4.13,-19.55
16.79748702049255,3,3,3,3,-5.8,5.01,1.64,14.82,-4.48,-19.52
16.80748701095581,3,3,3,3,-6.09,5.06,1.57,12.38,-3.57,-18.4
16.81748700141907,3,3,3,3,-6.26,3.88,1.86,10.48,-2.44,-16.71
16.82748699188232,3,3,3,3,-7.03,2.4,1.61,8.16,-0.08,-13.85
16.83748698234558,3,3,3,3,-8.640000000000001,-0.49,1.65,6.88,1.74,-11.45
16.84748697280884,3,3,3,3,-8.84,-1.27,1.68,9.779999999999999,2.5,-10.41
16.85748696327209,3,3,3,3,-8.52,-1.76,2.3,15.02,1.11,-10.48
16.86748695373535,3,3,3,3,-8.130000000000001,-2.33,1.59,20.02,1.84,-9.59
16.87748694419861,3,3,3,3,-9.23,-4.36,0.4,20.43,4.17,-8.199999999999999
16.88748693466187,3,3,3,3,-10.59,-6.81,0.09,16.47,2.11,-6.87
16.89748692512512,3,3,3,3,-10.81,-8.779999999999999,0.57,15.84,-3.55,-5.43
16.90748691558838,3,3,3,3,-10.4,-12.41,0.18,16.01,-4.79,-4.08
16.91748690605164,3,3,3,3,-11.39,-16.72,2.43,16.95,-4.53,-3.24
16.92748689651489,3,3,3,3,-9.859999999999999,-14.92,3.55,18.6,-4.87,-5.19
16.93748688697815,3,3,3,3,-8.880000000000001,-11.24,2.77,19.4,-1.47,-7.59
16.94748687744141,3,3,3,3,-8.76,-7.21,1.67,17.41,2.1,-8.74
16.95748686790466,3,3,3,3,-10.54,-2.04,0.78,13.11,2.9,-7.96
16.9674870967865,3,3,3,3,-11.28,-4.29,-2.88,12.56,3.27,-5.48
16.97748708724976,3,3,3,3,-11.78,-2.14,-4.04,20.84,5.12,-3.82
16.98748707771301,3,3,3,3,-11.62,1.6,3.95,21.24,0.78,1.21
16.99748706817627,3,3,3,3,-13.22,-6.95,5.37,6.67,-1.73,4.76
17.00748705863953,3,3,3,3,-12.54,-6.27,7.56,5.53,-1.66,6.84
17.01748704910278,3,3,3,3,-11.63,-0.34,8.369999999999999,9.68,2.64,8.050000000000001
17.02748703956604,3,3,3,3,-12.35,-2.53,0.88,4.9,6.56,6.74
17.0374870300293,3,3,3,3,-13.16,-4.63,-6.55,2.78,9.119999999999999,5.35
17.04748702049255,3,3,3,3,-13.78,-1.57,-7.25,11.91,9.550000000000001,4.71
17.05748701095581,3,3,3,3,-11.97,5.32,-3.03,18.83,7.48,6.6
17.06748700141907,3,3,3,3,-7.4,6.48,-4.81,11.48,6.44,7.85
17.07748699188232,3,3,3,3,-7.97,5.39,-5.61,6.88,6.3,8.529999999999999
17.08748698234558,3,3,3,3,-9.039999999999999,5.06,-3.71,4.39,6.25,8.59
17.09748697280884,3,3,3,3,-9.779999999999999,4.57,-2.32,-0.9,5.69,9.050000000000001
17.10748696327209,3,3,3,3,-11.14,3.21,-2.08,-3.95,5.09,9.140000000000001
17.11748695373535,3,3,3,3,-11.29,1.62,-1.44,-4.99,4.77,9.220000000000001
17.12748694419861,3,3,3,3,-10.48,0.53,-0.96,-3.96,4.32,8.93
17.13748693466187,3,3,3,3,-10.21,-0.1,-0.92,-0.68,4.06,9.25
17.14748692512512,3,3,3,3,-10.75,1.73,-0.79,3.81,4.06,9.380000000000001
17.15748691558838,3,3,3,3,-10.08,1.56,-1.07,3.87,4.08,8.32
17.16748690605164,3,3,3,3,-9.550000000000001,1.33,-1.55,1.47,4.03,8.06
17.17848706245422,3,3,3,3,-9.5,1.1,-1.86,-1.75,3.92,7.63
17.18848705291748,3,3,3,3,-10.06,-0.91,-1.68,-4.62,3.53,7.05
17.19848704338074,3,3,3,3,-9.99,-1.91,-1.18,-6.12,3.08,6.9
17.20848703384399,3,3,3,3,-9.81,-2.32,-0.89,-5.57,2.84,6.77
17.21848702430725,3,3,3,3,-9.710000000000001,-1.91,-0.74,-3.76,2.62,6.2
17.22848701477051,3,3,3,3,-9.76,-0.85,-0.84,-2.1,2.51,5.57
17.23848700523376,3,3,3,3,-10.09,-0.05,-0.82,-0.72,2.42,5.1
17.24848699569702,3,3,3,3,-10.15,0.17,-0.73,-0.12,1.99,4.79
17.25848698616028,3,3,3,3,-9.98,0.08,-0.7,-0.38,1.43,4.72
17.26848697662354,3,3,3,3,-9.73,-0.21,-0.75,-1.55,1.32,4.41
17.27848696708679,3,3,3,3,-9.65,-0.67,-0.99,-2.93,1.31,4.19
17.28848695755005,3,3,3,3,-9.800000000000001,-1.03,-1.13,-3.39,1.28,3.91
17.29848694801331,3,3,3,3,-9.99,-0.92,-0.95,-3.46,1.43,3.66
17.30848693847656,3,3,3,3,-9.91,-1.1,-0.99,-3.84,1.37,3.72
17.31848692893982,3,3,3,3,-9.880000000000001,-1.5,-0.84,-4.43,1.08,3.76
17.32848691940308,3,3,3,3,-9.74,-2.06,-0.51,-4.77,0.7,3.77
17.33848690986633,3,3,3,3,-9.65,-2.54,-0.76,-4.66,0.54,3.65
17.34848690032959,3,3,3,3,-9.529999999999999,-2.38,-0.6,-4.07,0.5,3.34
17.37848687171936,3,3,3,3,-9.76,-0.91,-0.96,-4.05,0.24,3.27
17.38848686218262,3,3,3,3,-9.789999999999999,-0.58,-1.18,-4.25,-0.05,3.36
17.39848709106445,3,3,3,3,-9.83,-0.36,-0.99,-4.1,-0.26,3.45
17.40848708152771,3,3,3,3,-9.630000000000001,-0.45,-0.9399999999999999,-4.31,-0.42,3.43
17.41848707199097,3,3,3,3,-9.779999999999999,-0.29,-0.9,-4.49,-0.49,3.82
17.42848706245422,3,3,3,3,-9.869999999999999,0.01,-1,-4.39,-0.4,3.8
17.43848705291748,3,3,3,3,-9.550000000000001,-0.51,-1.01,-4.91,-0.36,3.3
17.44848704338074,3,3,3,3,-9.220000000000001,-0.26,-1.21,-5.16,-0.22,3.39
17.45848703384399,3,3,3,3,-9.31,-0.79,-1.37,-5.2,-0.2,3.68
17.46848702430725,3,3,3,3,-9.4,-0.96,-1.81,-4.53,-0.12,3.64
17.47848701477051,3,3,3,3,-9.66,-0.9,-1.9,-3.82,0.23,3.09
17.48848700523376,3,3,3,3,-9.74,-1.31,-2.08,-3.1,0.6,2.91
17.49848699569702,3,3,3,3,-9.92,-0.8100000000000001,-1.39,-1.84,0.8,3.23
17.50848698616028,3,3,3,3,-9.81,-0.27,-1.04,-1.19,0.76,3.74
17.51848697662354,3,3,3,3,-9.630000000000001,-0.49,-0.97,-1.38,0.64,4.08
17.52848696708679,3,3,3,3,-9.25,-0.89,-0.71,-1.03,0.54,3.94
17.53848695755005,3,3,3,3,-8.470000000000001,-1.81,-0.78,-0.44,0.67,3.74
17.54848694801331,3,3,3,3,-8.630000000000001,-2.06,-0.74,0.32,0.85,3.58
17.55848693847656,3,3,3,3,-8.65,-2.28,-0.74,0.37,0.55,3.41
17.56848692893982,3,3,3,3,-9.119999999999999,-2.49,-0.64,0.39,0.41,3.22
17.57848691940308,3,3,3,3,-10.59,-1.32,-0.31,1.28,0.62,2.69
17.58848690986633,3,3,3,3,-11.1,-0.99,-0.23,1.81,0.22,2.37
17.59848690032959,3,3,3,3,-11.14,-0.17,-0.13,2.52,-0.14,2.14
17.60848689079285,3,3,3,3,-10.69,0.76,-0.08,2.42,-0.5600000000000001,1.94
17.6184868812561,3,3,3,3,-9.74,1.63,-0.63,2.01,-0.83,1.88
17.62848687171936,3,3,3,3,-9.289999999999999,2.28,-0.91,1.24,-0.86,1.69
17.63848686218262,3,3,3,3,-9.1,2.78,-1.34,0.35,-0.72,1.75
17.64848709106445,3,3,3,3,-8.529999999999999,3.14,-1.72,-0.6,-0.63,1.82
17.65848708152771,3,3,3,3,-8.470000000000001,3.18,-1.72,-1.47,-0.38,2.13
17.66848707199097,3,3,3,3,-8.84,2.8,-1.55,-2.33,-0.22,2.35
17.67848706245422,3,3,3,3,-9.41,1.69,-1.33,-3.36,-0.21,2.66
17.68848705291748,3,3,3,3,-10.06,-0.06,-0.88,-3.58,-0.23,2.47
17.69848704338074,3,3,3,3,-10.5,-0.85,-0.23,-2.91,-0.16,2.2
17.70848703384399,3,3,3,3,-11,-1.4,0.35,-1.96,-0.22,2.32
17.71848702430725,3,3,3,3,-10.97,-1.14,0.33,-0.3,-0.58,2.3
17.72848701477051,3,3,3,3,-10.11,-0.59,0,0.61,-0.61,2.12
17.73848700523376,3,3,3,3,-9.779999999999999,-0.63,-0.21,0.43,-0.77,2.01
17.74848699569702,3,3,3,3,-9.699999999999999,-0.72,-0.39,0.29,-0.83,1.99
17.75848698616028,3,3,3,3,-9.869999999999999,-0.34,-0.53,0.13,-0.88,1.93
17.76848697662354,3,3,3,3,-9.91,-0.11,-0.22,-0.46,-1.27,1.64
17.77848696708679,3,3,3,3,-9.85,-0.22,-0.34,-1.02,-1.56,1.27
17.78848695755005,3,3,3,3,-9.84,0,-0.45,-1.05,-1.64,0.96
17.79848694801331,3,3,3,3,-9.890000000000001,0,-0.5,-1.22,-1.6,0.95
17.80848693847656,3,3,3,3,-9.99,0.34,-0.5,-0.96,-1.49,1.03
17.81848692893982,3,3,3,3,-9.9,0.71,-0.55,-0.46,-1.31,1.01
17.82848691940308,3,3,3,3,-9.83,0.87,-0.58,-0.42,-1.1,1.07
17.83848690986633,3,3,3,3,-9.85,0.89,-0.54,-0.48,-0.89,1.06
17.84848690032959,3,3,3,3,-9.81,0.63,-0.44,-0.38,-0.83,1.01
17.85848689079285,3,3,3,3,-9.699999999999999,0.65,-0.3,-0.48,-0.72,1.07
17.8684868812561,3,3,3,3,-9.77,0.5,-0.12,-0.53,-0.52,1.18
17.87848687171936,3,3,3,3,-9.77,0.53,-0.19,-0.52,-0.35,1.21
17.88848686218262,3,3,3,3,-9.880000000000001,0.6899999999999999,-0.1,-0.29,-0.26,1.1
17.89848709106445,3,3,3,3,-9.85,0.6899999999999999,-0.11,-0.17,-0.19,1.04
17.90848708152771,3,3,3,3,-9.74,0.51,-0.07000000000000001,-0.08,-0.12,0.98
17.91848707199097,3,3,3,3,-9.640000000000001,0.28,-0.11,0.27,-0.07000000000000001,1.09
17.92848706245422,3,3,3,3,-9.67,0.38,-0.32,0.63,-0.18,1.16
17.93848705291748,3,3,3,3,-9.630000000000001,0.37,-0.53,0.95,-0.27,0.99
17.94848704338074,3,3,3,3,-9.630000000000001,0.61,-0.45,1.23,-0.22,0.84
17.95848703384399,3,3,3,3,-9.630000000000001,0.89,-0.4,0.9,-0.09,0.78
17.96848702430725,3,3,3,3,-9.710000000000001,0.99,-0.36,0.46,-0.04,0.84
17.97848701477051,3,3,3,3,-9.710000000000001,0.93,-0.34,0.14,-0.14,1.02
17.98848700523376,3,3,3,3,-9.779999999999999,1.02,-0.26,0.41,-0.14,1.17
17.99848699569702,3,3,3,3,-9.82,1.2,-0.11,0.74,-0.02,1.16
18.00848698616028,3,3,3,3,-9.67,1.04,-0.07000000000000001,0.64,-0.03,1.09
18.01848697662354,3,3,3,3,-9.640000000000001,0.9,0.1,0.64,0.1,1.08
18.02848696708679,3,3,3,3,-9.67,1.01,-0.02,0.9,0.18,1.17
18.03848695755005,3,3,3,3,-9.890000000000001,0.6899999999999999,-0.23,0.74,-0.05,1.2
18.04848694801331,3,3,3,3,-10,0.6899999999999999,-0.44,1.1,-0.03,1.23
18.05848693847656,3,3,3,3,-10.03,0.67,-0.52,0.65,0.02,0.88
18.06848692893982,3,3,3,3,-10.02,0.38,-0.73,0.63,0.17,0.73
18.07848691940308,3,3,3,3,-10.09,0.77,-0.5,0.57,0.12,0.76
18.08848690986633,3,3,3,3,-9.85,0.57,-0.45,0.08,-0.04,0.82
18.09848690032959,3,3,3,3,-9.75,0.57,-0.25,0.3,-0.08,1.04
18.10848689079285,3,3,3,3,-9.710000000000001,0.53,-0.26,0.3,0,1.15
18.1184868812561,3,3,3,3,-9.9,0.23,-0.23,0.55,0.04,0.91
18.12848687171936,3,3,3,3,-9.82,0.15,-0.34,1.24,-0.02,0.75
18.13848686218262,3,3,3,3,-9.789999999999999,0.06,-0.3,1.46,-0.14,0.61
18.14848709106445,3,3,3,3,-9.73,0.04,-0.3,0.95,-0.11,0.29
18.15848708152771,3,3,3,3,-9.880000000000001,-0.84,-0.44,0.5600000000000001,0.06,-0.02
18.16848707199097,3,3,3,3,-9.890000000000001,-0.89,-0.24,0.71,0.18,-0.5
18.17848706245422,3,3,3,3,-9.970000000000001,-1.06,-0.42,0.41,0.13,-1.03
18.18848705291748,3,3,3,3,-9.869999999999999,-0.93,-0.37,0.47,0,-1.47
18.19848704338074,3,3,3,3,-9.82,-0.24,-0.21,-0.14,-0.35,-1.65
18.20948696136475,3,3,3,3,-9.65,-0.12,-0.08,-0.14,-0.35,-1.65
18.219486951828,3,3,3,3,-9.619999999999999,-0.33,-0.19,-0.84,-0.33,-1.59
18.22948694229126,3,3,3,3,-9.74,-0.35,-0.14,-1.59,-0.2,-1.23
18.23948693275452,3,3,3,3,-9.720000000000001,-0.25,-0.3,-1.71,-0.12,-1.13
18.24948692321777,3,3,3,3,-9.81,-0.14,-0.46,-1.19,-0.35,-1.2
18.25948691368103,3,3,3,3,-9.81,0.08,-0.39,-1.19,-0.35,-1.2
18.26948690414429,3,3,3,3,-9.76,0.26,-0.31,-0.86,-0.43,-1.17
18.27948689460754,3,3,3,3,-9.66,0.43,-0.51,-0.44,-0.13,-0.78
18.2894868850708,3,3,3,3,-9.859999999999999,0.78,-0.58,-0.18,-0.19,-0.64
18.29948687553406,3,3,3,3,-9.789999999999999,0.89,-0.36,-0.25,-0.04,-0.42
18.30948686599731,3,3,3,3,-9.77,0.71,-0.44,-0.25,-0.04,-0.42
18.31948709487915,3,3,3,3,-9.699999999999999,0.5600000000000001,-0.42,-0.18,0.15,-0.25
18.32948708534241,3,3,3,3,-9.83,0.34,-0.43,-0.35,0.32,-0.02
18.33948707580566,3,3,3,3,-9.869999999999999,0.12,-0.5600000000000001,-0.18,0.22,-0.15
18.34948706626892,3,3,3,3,-9.91,-0.03,-0.47,-0.13,0.15,-0.18
18.35948705673218,3,3,3,3,-9.83,-0.04,-0.57,-0.13,0.15,-0.18
18.36948704719543,3,3,3,3,-9.779999999999999,-0.06,-0.5,0.5,0.13,-0.25
18.37948703765869,3,3,3,3,-9.83,-0.05,-0.71,0.78,0.2,-0.3
18.38948702812195,3,3,3,3,-9.76,0,-0.5,0.51,0.33,-0.23
18.39948701858521,3,3,3,3,-9.77,0.09,-0.48,0.57,0.12,-0.25
18.40948700904846,3,3,3,3,-9.789999999999999,0.25,-0.41,0.57,0.12,-0.25
18.41948699951172,3,3,3,3,-9.84,0.23,-0.34,0.67,0.05,-0.46
18.42948698997498,3,3,3,3,-9.779999999999999,0.27,-0.39,0.79,0.02,-0.5600000000000001
18.43948698043823,3,3,3,3,-9.640000000000001,0.45,-0.45,0.59,0.09,-0.53
18.44948697090149,3,3,3,3,-9.83,0.52,-0.43,0.57,0.05,-0.54
18.45948696136475,3,3,3,3,-9.9,0.58,-0.46,0.57,0.05,-0.54
18.469486951828,3,3,3,3,-9.69,0.5,-0.53,0.41,-0.01,-0.55
18.47948694229126,3,3,3,3,-9.77,0.57,-0.58,0.33,-0.03,-0.27
18.48948693275452,3,3,3,3,-9.81,0.55,-0.68,0.53,-0.14,-0.23
18.49948692321777,3,3,3,3,-9.74,0.35,-0.58,0.57,-0.12,-0.18
18.50948691368103,3,3,3,3,-9.76,0.34,-0.45,0.57,-0.12,-0.18
18.51948690414429,3,3,3,3,-9.74,0.14,-0.34,0.63,-0.02,-0.2
18.52948689460754,3,3,3,3,-9.82,0.29,-0.29,0.86,-0.26,-0.34
18.5394868850708,3,3,3,3,-9.81,0.34,-0.41,0.88,-0.28,-0.31
18.54948687553406,3,3,3,3,-9.67,-0.35,-0.42,1.33,-0.32,-0.21
18.55948686599731,3,3,3,3,-9.640000000000001,-0.32,-0.33,1.33,-0.32,-0.21
18.56948709487915,3,3,3,3,-9.710000000000001,-0.14,-0.29,1.85,-0.32,-0.09
18.57948708534241,3,3,3,3,-9.77,-0.23,-0.24,2.59,-0.3,-0.1
18.58948707580566,3,3,3,3,-9.73,-0.2,-0.45,2.91,-0.29,-0.08
18.59948706626892,3,3,3,3,-9.710000000000001,-0.07000000000000001,-0.22,2.66,-0.22,0.03
18.60948705673218,3,3,3,3,-9.83,0.09,-0.07000000000000001,2.66,-0.22,0.03
18.61948704719543,3,3,3,3,-9.880000000000001,0.36,-0.22,2.43,-0.1,0.13
18.62948703765869,3,3,3,3,-9.859999999999999,0.57,-0.53,1.42,-0.08,0.31
18.63948702812195,3,3,3,3,-9.9,0.76,-0.62,0.5600000000000001,-0.09,0.25
