timestamp,magCalib,accCalib,gyrCalib,sysCalib,accX,accY,accZ,gyrX,gyrY,gyrZ
0.02248692512512207,2,3,3,1,-9.57,1.68,1.97,-3.26,-2.01,-0.27
0.03248691558837891,2,3,3,1,-9.73,1.52,2.46,-3.45,-1.83,-0.19
0.04248690605163574,2,3,3,1,-9.789999999999999,1.36,2.63,-3.43,-1.92,-0.26
0.05248689651489258,2,3,3,1,-9.77,1.24,2.51,-3.04,-2.03,-0.3
0.06248688697814941,2,3,3,1,-9.710000000000001,1.07,2.27,-2.63,-1.77,-0.32
0.07248687744140625,2,3,3,1,-9.67,1.01,2.27,-2.12,-1.38,-0.23
0.08248686790466309,2,3,3,1,-9.59,1.01,2.57,-1.54,-0.99,-0.08
0.09248709678649902,2,3,3,1,-9.609999999999999,1.09,2.31,-0.26,-0.68,-0.09
0.1024870872497559,2,3,3,1,-9.83,0.62,1.69,0.8100000000000001,-0.5,-0.23
0.1124870777130127,2,3,3,1,-9.859999999999999,0.53,1.51,0.95,-0.2,-0.54
0.1224870681762695,2,3,3,1,-9.949999999999999,0.62,1.56,0.65,0.01,-0.8100000000000001
0.1324870586395264,2,3,3,1,-9.66,1.21,2.19,0.19,-0.45,-1.02
0.1424870491027832,2,3,3,1,-9.41,1.17,1.75,0.93,-1.27,-1.03
0.2024869918823242,2,3,3,0,-8.83,0.66,1.24,1.62,0.86,-0.01
0.2124869823455811,2,3,3,0,-9.4,0.6,1.15,1.41,1.5,-0.01
0.2324869632720947,2,3,3,0,-9.890000000000001,1.11,1.42,0.88,2.16,-0.4
0.2424869537353516,2,3,3,0,-9.81,1.62,1.09,0.73,2.49,-0.65
0.2524869441986084,2,3,3,0,-9.48,2.63,1.57,0.8,2.9,-0.51
0.2624869346618652,2,3,3,0,-9.210000000000001,2.64,1.22,1.08,2.56,-0.16
0.2724869251251221,2,3,3,0,-9.19,2.63,1.22,0.82,2.96,0.01
0.2824869155883789,2,3,3,0,-9.01,3.01,1.14,0.06,3.02,0.16
0.2924869060516357,2,3,3,0,-9.32,3.1,1.14,-0.48,3.2,0.31
0.3224868774414062,2,3,3,0,-10.76,2.97,0.83,-2.27,2.79,0.52
0.3324868679046631,2,3,3,0,-10.73,2.82,0.9399999999999999,-2.33,2.26,0.41
0.342487096786499,2,3,3,0,-10.47,2.49,0.82,-1.82,1.41,0.35
0.3524870872497559,2,3,3,0,-9.949999999999999,2.1,0.76,-1.42,0.9399999999999999,0.38
0.3624870777130127,2,3,3,0,-9.02,1.56,0.57,-1.33,1.03,0.49
0.3724870681762695,2,3,3,0,-8.9,1.41,0.58,-1.29,1.33,0.5
0.3824870586395264,2,3,3,0,-8.93,1.46,0.57,-1.21,1.29,0.45
0.3924870491027832,2,3,3,0,-8.960000000000001,1.44,0.55,-1.17,1.13,0.2
0.40248703956604,2,3,3,0,-9.32,1.56,0.51,-1.27,0.91,-0.06
0.4124870300292969,2,3,3,0,-9.42,1.58,0.44,-1.23,0.6899999999999999,-0.22
0.4224870204925537,2,3,3,0,-9.67,1.46,0.25,-0.92,0.7,-0.3
0.4324870109558105,2,3,3,0,-10.11,1.2,0.38,-0.74,0.78,-0.52
0.4424870014190674,2,3,3,0,-10.23,1.28,0.41,-0.65,0.8,-0.77
0.4524869918823242,2,3,3,0,-10.14,1.31,0.48,-0.39,0.73,-0.96
0.4624869823455811,2,3,3,0,-10,1.39,0.58,-0.35,0.67,-0.89
0.4724869728088379,2,3,3,0,-9.720000000000001,1.54,0.65,-0.42,0.66,-0.65
0.4824869632720947,2,3,3,0,-9.67,1.49,0.72,-0.28,0.65,-0.26
0.4924869537353516,2,3,3,0,-9.699999999999999,1.52,0.78,-0.19,0.79,0.03
0.5024869441986084,2,3,3,0,-9.69,1.5,0.76,-0.16,0.93,0.2
0.5124869346618652,2,3,3,0,-9.76,1.57,0.62,-0.08,0.95,0.24
0.5224869251251221,2,3,3,0,-9.82,1.56,0.57,-0.03,0.86,0.24
0.5324869155883789,2,3,3,0,-9.869999999999999,1.54,0.6,-0.06,0.73,0.21
0.5424869060516357,2,3,3,0,-9.84,1.55,0.71,-0.11,0.47,0.15
0.5524868965148926,2,3,3,0,-9.68,1.75,0.8,-0.3,0.26,0
0.5624868869781494,2,3,3,0,-9.640000000000001,1.79,0.8,-0.35,0,-0.06
0.5724868774414062,2,3,3,0,-9.550000000000001,1.81,0.76,-0.22,-0.3,-0.07000000000000001
0.5824868679046631,2,3,3,0,-9.41,1.86,0.89,-0.46,-0.52,-0.09
0.592487096786499,2,3,3,0,-9.24,1.96,1.18,-0.86,-0.74,-0.13
0.6024870872497559,2,3,3,0,-9.25,1.93,1.37,-1.02,-0.79,-0.16
0.6124870777130127,2,3,3,0,-9.26,1.84,1.32,-1,-0.73,-0.22
0.6224870681762695,2,3,3,0,-9.369999999999999,1.78,1.25,-0.93,-0.63,-0.21
0.6324870586395264,2,3,3,0,-9.31,1.83,1.27,-1.25,-0.57,-0.22
0.6424870491027832,2,3,3,0,-9.4,1.77,1.05,-1.37,-0.55,-0.23
0.65248703956604,2,3,3,0,-9.449999999999999,1.74,0.98,-1.46,-0.26,-0.37
0.6624870300292969,2,3,3,0,-9.56,1.91,0.99,-1.72,-0.14,-0.53
0.6724870204925537,2,3,3,0,-9.640000000000001,1.93,0.99,-1.7,-0.33,-0.58
0.6824870109558105,2,3,3,0,-9.73,1.89,1.18,-1.31,-0.76,-0.57
0.6924870014190674,2,3,3,0,-9.68,1.83,1.18,-0.91,-1.24,-0.45
0.7024869918823242,2,3,3,0,-9.42,1.52,1.14,-0.71,-1.59,-0.3
0.7124869823455811,2,3,3,0,-9.42,1.48,1.19,-0.87,-1.34,-0.22
0.7224869728088379,2,3,3,0,-9.43,1.48,1.23,-1.18,-1.07,-0.28
0.7324869632720947,2,3,3,0,-9.24,1.57,1.09,-1.34,-1.2,-0.25
0.7424869537353516,2,3,3,0,-9.369999999999999,1.4,1.28,-0.93,-1.31,-0.11
0.7524869441986084,2,3,3,0,-9.460000000000001,1.41,1.23,-0.57,-1.58,-0.23
0.7624869346618652,2,3,3,0,-9.699999999999999,1.56,1.04,-0.3,-1.84,-0.46
0.7724869251251221,2,3,3,0,-9.69,1.53,0.34,-0.23,-2.15,-0.7
0.7824869155883789,2,3,3,0,-9.77,1.69,0.71,0.09,-1.74,-0.77
0.7924869060516357,2,3,3,0,-9.77,1.68,0.9,0.32,-1.49,-0.8
0.8024868965148926,2,3,3,0,-9.789999999999999,1.78,0.87,0.74,-1.62,-0.88
0.8124868869781494,2,3,3,0,-9.73,1.71,0.33,1.14,-1.81,-0.9399999999999999
0.8224868774414062,2,3,3,0,-9.67,1.64,0.3,1.57,-1.68,-0.99
0.8324868679046631,2,3,3,0,-9.68,1.55,0.28,1.77,-1.34,-0.87
0.842487096786499,2,3,3,0,-9.65,1.56,0.53,1.62,-1.14,-0.6899999999999999
0.8524870872497559,2,3,3,1,-9.5,1.84,0.42,1.37,-1.19,-0.51
0.8624870777130127,2,3,3,1,-9.640000000000001,1.79,0.21,1.69,-1.14,-0.39
0.8724870681762695,2,3,3,1,-9.779999999999999,1.77,0.24,1.43,-0.78,-0.32
0.8824870586395264,2,3,3,1,-9.66,1.88,0.23,0.77,-0.62,-0.22
0.8924870491027832,2,3,3,1,-9.630000000000001,1.46,0.02,0.78,-0.39,-0.13
0.90248703956604,2,3,3,1,-9.640000000000001,1.49,-0.12,0.54,-0.07000000000000001,-0.06
0.9124870300292969,2,3,3,1,-9.73,1.52,0,0.37,0.07000000000000001,0.04
0.9224870204925537,2,3,3,1,-10.05,1.58,-0.05,0.39,0.09,0.12
0.9324870109558105,2,3,3,1,-10.11,1.71,0.03,0.32,0.11,0.15
0.9424870014190674,2,3,3,1,-10.08,1.69,-0.05,0.02,0.04,0.15
0.9524869918823242,2,3,3,1,-9.949999999999999,1.64,0,-0.2,0.05,0.18
0.9624869823455811,2,3,3,1,-9.83,1.5,-0.04,-0.5600000000000001,0.32,0.2
0.9724869728088379,2,3,3,1,-9.779999999999999,1.44,-0.01,-0.88,0.58,0.25
0.9824869632720947,2,3,3,1,-9.76,1.42,-0.03,-1.27,0.8,0.12
0.9924869537353516,2,3,3,1,-9.75,1.39,-0.11,-1.56,0.99,-0.04
1.00348687171936,2,3,3,1,-9.699999999999999,1.28,0.21,-1.72,1.24,-0.18
1.013486862182617,2,3,3,1,-9.68,1.26,0.3,-1.9,1.4,-0.24
1.023487091064453,2,3,3,1,-9.73,1.15,-0.15,-2.1,1.03,-0.34
1.03348708152771,2,3,3,1,-9.779999999999999,0.95,-0.09,-2.12,0.85,-0.29
1.043487071990967,2,3,3,1,-9.84,1.07,0.32,-2.2,0.88,-0.28
1.073487043380737,2,3,3,1,-9.9,1.14,0.27,-1.62,0.53,0.08
1.083487033843994,2,3,3,1,-9.73,1.21,0.26,-1.42,0.4,0.15
1.093487024307251,2,3,3,1,-9.77,1.02,0.11,-1.35,0.19,0.16
1.103487014770508,2,3,3,1,-9.82,0.9399999999999999,0.13,-1.11,0,0.14
1.113487005233765,2,3,3,1,-9.74,0.71,-0.05,-0.85,-0.15,-0.03
1.123486995697021,2,3,3,1,-9.66,0.79,-0.11,-0.53,-0.15,-0.09
1.133486986160278,2,3,3,1,-9.67,0.91,-0.08,-0.32,-0.04,-0.14
1.143486976623535,2,3,3,1,-9.77,1.08,-0.02,0.01,-0.06,-0.11
1.153486967086792,2,3,3,1,-9.91,1.43,0.07000000000000001,0.29,-0.11,-0.03
1.163486957550049,2,3,3,1,-9.94,1.53,0.1,0.44,0.14,0.02
1.173486948013306,2,3,3,1,-9.92,1.65,0.16,0.29,0.49,0.06
1.183486938476562,2,3,3,1,-9.960000000000001,1.63,0.38,-0.06,0.45,0.2
1.193486928939819,2,3,3,1,-9.76,1.56,0.48,-0.38,-0.01,0.36
1.203486919403076,2,3,3,1,-9.880000000000001,1.39,0.5600000000000001,-0.28,-0.2,0.47
1.213486909866333,2,3,3,1,-9.869999999999999,1.36,0.51,-0.33,-0.45,0.45
1.22348690032959,2,3,3,1,-9.890000000000001,1.28,0.37,-0.37,-0.72,0.44
1.233486890792847,2,3,3,1,-9.83,1.17,0.35,-0.38,-0.66,0.47
1.243486881256104,2,3,3,1,-9.85,1.13,0.48,-0.28,-0.46,0.47
1.25348687171936,2,3,3,1,-9.81,1.25,0.6,-0.21,-0.31,0.45
1.263486862182617,2,3,3,1,-9.470000000000001,1.25,0.48,-0.26,-0.39,0.45
1.273487091064453,2,3,3,1,-9.35,1.22,0.53,-0.04,-0.32,0.48
1.28348708152771,2,3,3,1,-9.35,1.31,0.68,0.07000000000000001,0.07000000000000001,0.43
1.293487071990967,2,3,3,1,-9.380000000000001,1.31,0.9,0.21,0.3,0.39
1.303487062454224,2,3,3,0,-9.51,1.36,0.72,0.65,0.3,0.33
1.31348705291748,2,3,3,0,-9.550000000000001,1.44,0.71,1.08,0.47,0.42
1.323487043380737,2,3,3,0,-9.630000000000001,1.59,0.63,1.33,0.74,0.55
1.333487033843994,2,3,3,0,-9.699999999999999,1.69,0.64,1.53,0.86,0.75
1.343487024307251,2,3,3,0,-9.68,1.9,0.6899999999999999,1.73,0.98,0.95
1.353487014770508,2,3,3,0,-9.630000000000001,1.95,0.67,1.77,1.14,1.14
1.363487005233765,2,3,3,0,-9.56,1.97,0.67,1.76,1.29,1.26
1.373486995697021,2,3,3,0,-9.43,1.9,0.68,1.68,1.4,1.31
1.383486986160278,2,3,3,0,-9.42,1.87,0.77,1.35,1.55,1.23
1.393486976623535,2,3,3,0,-9.390000000000001,1.85,0.91,0.92,1.5,1.07
1.403486967086792,2,3,3,0,-9.41,1.81,0.99,0.61,1.45,0.9
1.413486957550049,2,3,3,0,-9.390000000000001,1.76,0.82,0.55,1.31,0.72
1.423486948013306,2,3,3,0,-9.44,1.74,0.78,0.58,1.34,0.52
1.433486938476562,2,3,3,0,-9.52,1.74,0.83,0.6,1.35,0.32
1.443486928939819,2,3,3,0,-9.58,1.76,0.85,0.73,1.33,0.1
1.453486919403076,2,3,3,0,-9.789999999999999,1.68,0.8,0.79,1.31,-0.07000000000000001
1.463486909866333,2,3,3,0,-9.82,1.67,0.76,0.83,1.18,-0.21
1.47348690032959,2,3,3,0,-9.83,1.64,0.62,0.85,1.07,-0.26
1.483486890792847,2,3,3,0,-9.73,1.59,0.65,0.8,0.96,-0.27
1.493486881256104,2,3,3,0,-9.609999999999999,1.6,0.73,0.76,0.9399999999999999,-0.23
1.50348687171936,2,3,3,0,-9.57,1.58,0.6899999999999999,0.65,0.86,-0.19
1.513486862182617,2,3,3,0,-9.56,1.54,0.72,0.68,0.67,-0.16
1.523487091064453,2,3,3,0,-9.5,1.55,0.57,0.72,0.47,-0.11
1.53348708152771,2,3,3,0,-9.539999999999999,1.47,0.53,0.74,0.32,-0.07000000000000001
1.543487071990967,2,3,3,0,-9.619999999999999,1.54,0.53,0.87,0.27,-0.04
1.553487062454224,2,3,3,0,-9.720000000000001,1.54,0.5600000000000001,0.93,0.17,-0.02
1.56348705291748,2,3,3,0,-9.800000000000001,1.56,0.54,0.98,0.09,0.02
1.573487043380737,2,3,3,0,-9.83,1.54,0.51,0.9,-0.06,0.03
1.583487033843994,2,3,3,0,-9.800000000000001,1.56,0.53,0.77,-0.1,0.09
1.593487024307251,2,3,3,0,-9.75,1.52,0.53,0.78,-0.24,0.12
1.603487014770508,2,3,3,0,-9.66,1.39,0.63,0.79,-0.34,0.26
1.613487005233765,2,3,3,0,-9.66,1.42,0.63,0.82,-0.39,0.39
1.623486995697021,2,3,3,0,-9.67,1.5,0.64,0.8,-0.51,0.51
1.633486986160278,2,3,3,0,-9.68,1.55,0.6899999999999999,0.84,-0.59,0.7
1.643486976623535,2,3,3,0,-9.68,1.75,0.7,0.65,-0.59,0.9399999999999999
1.653486967086792,2,3,3,0,-9.68,1.9,0.72,0.6899999999999999,-0.55,1.18
1.663486957550049,2,3,3,0,-9.65,2.08,0.73,0.62,-0.64,1.34
1.673486948013306,2,3,3,0,-9.529999999999999,2.2,0.6899999999999999,0.58,-0.6899999999999999,1.39
1.683486938476562,2,3,3,0,-9.42,2.28,0.72,0.55,-0.63,1.34
1.693486928939819,2,3,3,0,-9.359999999999999,2.32,0.76,0.28,-0.48,1.29
1.703486919403076,2,3,3,0,-9.35,2.29,0.75,0,-0.39,1.2
1.713486909866333,2,3,3,0,-9.390000000000001,2.29,0.68,-0.16,-0.27,1.15
1.72348690032959,2,3,3,0,-9.49,2.34,0.68,-0.33,-0.21,1.07
1.733486890792847,2,3,3,0,-9.470000000000001,2.36,0.74,-0.48,-0.15,1.01
1.743486881256104,2,3,3,0,-9.44,2.31,0.76,-0.6,-0.24,0.93
1.75348687171936,2,3,3,0,-9.49,2.16,0.89,-0.63,-0.16,0.84
1.763486862182617,2,3,3,0,-9.49,2.16,0.89,-0.63,-0.16,0.84
1.773487091064453,2,3,3,0,-9.52,2.04,0.78,-0.91,-0.09,0.44
1.78348708152771,2,3,3,0,-9.6,1.97,0.6899999999999999,-1.22,0.07000000000000001,0.21
1.793487071990967,2,3,3,0,-9.66,1.8,0.8,-1.1,0.18,0
1.803487062454224,2,3,3,0,-9.73,1.65,0.86,-0.74,0.13,-0.28
1.81348705291748,2,3,3,0,-9.73,1.65,0.86,-0.74,0.13,-0.28
1.823487043380737,2,3,3,0,-9.789999999999999,1.47,0.67,-0.57,0.11,-0.38
1.833487033843994,2,3,3,0,-9.65,1.36,0.77,-0.4,-0.02,-0.26
1.843487024307251,2,3,3,0,-9.609999999999999,1.37,0.83,-0.23,-0.1,-0.16
1.853487014770508,2,3,3,0,-9.57,1.42,0.83,0.05,-0.19,-0.09
1.863487005233765,2,3,3,0,-9.56,1.52,0.78,0.34,-0.29,-0.01
1.873486995697021,2,3,3,0,-9.609999999999999,1.62,0.64,0.51,-0.24,-0.01
1.883486986160278,2,3,3,0,-9.619999999999999,1.7,0.62,0.67,-0.3,0.03
1.893486976623535,2,3,3,0,-9.6,1.7,0.64,0.8100000000000001,-0.23,0.06
1.903486967086792,2,3,3,1,-9.6,1.7,0.64,0.8100000000000001,-0.23,0.06
1.913486957550049,2,3,3,1,-9.6,1.72,0.65,0.9,-0.17,0.05
1.923486948013306,2,3,3,1,-9.68,1.74,0.55,0.87,-0.19,0.12
1.933486938476562,2,3,3,1,-9.710000000000001,1.72,0.58,0.85,-0.2,0.14
1.943486928939819,2,3,3,1,-9.630000000000001,1.74,0.7,0.82,-0.23,0.19
1.953486919403076,2,3,3,1,-9.630000000000001,1.74,0.7,0.82,-0.23,0.19
1.963486909866333,2,3,3,1,-9.6,1.78,0.7,0.77,-0.3,0.24
1.97348690032959,2,3,3,1,-9.57,1.86,0.5600000000000001,0.93,-0.17,0.31
1.983486890792847,2,3,3,1,-9.6,1.9,0.61,1.05,-0.11,0.36
1.993486881256104,2,3,3,1,-9.609999999999999,1.9,0.61,1.02,-0.07000000000000001,0.38
2.00348687171936,2,3,3,1,-9.609999999999999,1.9,0.61,1.02,-0.07000000000000001,0.38
2.013486862182617,2,3,3,1,-9.58,1.94,0.6,0.97,-0.07000000000000001,0.37
2.023487091064453,2,3,3,1,-9.57,2.02,0.5600000000000001,0.71,-0.14,0.32
2.034487009048462,2,3,3,1,-9.529999999999999,2.05,0.55,0.52,-0.14,0.27
2.044486999511719,2,3,3,1,-9.56,2.04,0.58,0.34,-0.04,0.19
2.054486989974976,2,3,3,0,-9.550000000000001,2.01,0.58,0.2,0.06,0.12
2.064486980438232,2,3,3,0,-9.59,1.97,0.66,-0.02,0.07000000000000001,0.08
2.074486970901489,2,3,3,0,-9.57,1.94,0.64,-0.11,0.08,0.05
2.084486961364746,2,3,3,0,-9.550000000000001,1.89,0.59,-0.06,0.08,-0.01
2.094486951828003,2,3,3,0,-9.539999999999999,1.89,0.61,0.01,0.12,-0.05
2.124486923217773,2,3,3,0,-9.74,1.78,0.5600000000000001,-0.2,0.06,-0.18
2.13448691368103,2,3,3,0,-9.76,1.8,0.51,-0.23,0,-0.17
2.144486904144287,2,3,3,0,-9.69,1.75,0.55,-0.19,-0.05,-0.13
2.154486894607544,2,3,3,0,-9.609999999999999,1.68,0.55,-0.04,-0.06,-0.09
2.164486885070801,2,3,3,0,-9.550000000000001,1.63,0.57,0.12,-0.02,-0.04
2.174486875534058,2,3,3,0,-9.52,1.59,0.57,0.25,-0.07000000000000001,0.01
2.184486865997314,2,3,3,0,-9.51,1.6,0.51,0.34,-0.12,0.03
2.19448709487915,2,3,3,0,-9.56,1.69,0.54,0.39,-0.16,0.1
2.204487085342407,2,3,3,0,-9.58,1.75,0.55,0.39,-0.16,0.1
2.214487075805664,2,3,3,0,-9.640000000000001,1.9,0.58,0.28,-0.18,0.15
2.224487066268921,2,3,3,0,-9.66,1.96,0.5600000000000001,-0.14,-0.13,0.14
2.234487056732178,2,3,3,0,-9.67,2,0.52,-0.4,-0.12,0.14
2.244487047195435,2,3,3,0,-9.68,2.03,0.54,-0.54,-0.11,0.08
2.274487018585205,2,3,3,0,-9.609999999999999,1.79,0.59,-0.47,0.04,-0.08
2.284487009048462,2,3,3,0,-9.58,1.78,0.54,-0.57,0.11,-0.12
2.294486999511719,2,3,3,0,-9.6,1.68,0.55,-0.62,0.12,-0.12
2.304486989974976,2,3,3,0,-9.609999999999999,1.7,0.58,-0.62,0.12,-0.12
2.314486980438232,2,3,3,0,-9.619999999999999,1.72,0.61,-0.65,0.1,-0.1
2.324486970901489,2,3,3,0,-9.6,1.78,0.64,-0.71,0.12,0
2.334486961364746,2,3,3,0,-9.59,1.75,0.53,-0.77,0.15,0.01
2.344486951828003,2,3,3,0,-9.619999999999999,1.73,0.54,-0.77,0.06,0
2.35448694229126,2,3,3,0,-9.640000000000001,1.72,0.55,-0.77,0.06,0
2.364486932754517,2,3,3,0,-9.65,1.69,0.5600000000000001,-0.6899999999999999,0.02,-0.02
2.374486923217773,2,3,3,0,-9.65,1.69,0.54,-0.65,-0.01,0.04
2.38448691368103,2,3,3,0,-9.58,1.7,0.52,-0.5600000000000001,-0.01,-0.02
2.394486904144287,2,3,3,0,-9.56,1.68,0.57,-0.5,-0.05,-0.05
2.404486894607544,2,3,3,0,-9.6,1.66,0.61,-0.5,-0.05,-0.05
2.414486885070801,2,3,3,0,-9.619999999999999,1.68,0.63,-0.43,-0.05,-0.07000000000000001
2.424486875534058,2,3,3,0,-9.630000000000001,1.66,0.66,-0.5600000000000001,0.06,0.04
2.434486865997314,2,3,3,0,-9.66,1.64,0.61,-0.73,0.05,0.03
2.44448709487915,2,3,3,0,-9.630000000000001,1.67,0.75,-0.96,-0.04,0.07000000000000001
2.454487085342407,2,3,3,0,-9.56,1.74,0.83,-0.96,-0.04,0.07000000000000001
2.464487075805664,2,3,3,0,-9.529999999999999,1.82,0.95,-1.13,-0.24,-0.01
2.474487066268921,2,3,3,0,-9.460000000000001,2.02,0.93,-0.9,-0.43,-0.14
2.484487056732178,2,3,3,0,-9.49,2.18,0.57,-0.86,-0.48,-0.28
2.494487047195435,2,3,3,0,-9.539999999999999,2.12,0.63,-1.14,-0.3,-0.5
2.504487037658691,2,3,3,0,-9.51,2.04,0.65,-1.14,-0.3,-0.5
2.514487028121948,2,3,3,0,-9.51,2.13,0.55,-1.44,-0.03,-0.68
2.524487018585205,2,3,3,0,-9.5,2.14,0.55,-1.43,-0.06,-0.74
2.534487009048462,2,3,3,0,-9.52,2,0.63,-1.39,-0.16,-0.68
2.544486999511719,2,3,3,0,-9.630000000000001,1.96,0.77,-1.91,-0.15,-0.77
2.554486989974976,2,3,3,0,-9.619999999999999,2.29,0.32,-1.98,-0.43,-0.78
2.564486980438232,2,3,3,0,-9.58,2.14,0.47,-1.54,-0.55,-0.57
2.574486970901489,2,3,3,0,-9.539999999999999,2.26,0.38,-1.6,-0.24,-0.51
2.584486961364746,2,3,3,0,-9.6,2.35,0.22,-1.43,-0.16,-0.32
2.594486951828003,2,3,3,0,-9.609999999999999,2.33,0.28,-1.31,-0.19,-0.15
2.60448694229126,2,3,3,0,-9.67,2.18,0.16,-1.2,-0.13,0.01
2.614486932754517,2,3,3,0,-9.74,2.15,0.37,-1.06,0.04,0.22
2.624486923217773,2,3,3,0,-9.789999999999999,2.16,0.53,-1.29,-0.03,0.47
2.63448691368103,2,3,3,0,-9.720000000000001,2.12,0.61,-1.35,-0.22,0.77
2.644486904144287,2,3,3,0,-9.699999999999999,2.19,0.67,-1.35,-0.27,1.04
2.654486894607544,2,3,3,0,-9.619999999999999,2.21,0.7,-1.26,-0.38,1.27
2.664486885070801,2,3,3,0,-9.449999999999999,2.57,0.76,-0.88,-0.41,1.43
2.674486875534058,2,3,3,0,-9.31,2.81,0.6,-0.39,-0.45,1.55
2.684486865997314,2,3,3,0,-9.24,2.98,0.51,0.07000000000000001,-0.4,1.68
2.69448709487915,2,3,3,0,-9.19,3.16,0.48,0.33,-0.2,1.7
2.704487085342407,2,3,3,0,-9.029999999999999,3.22,0.51,0.32,0.08,1.52
2.714487075805664,2,3,3,0,-8.890000000000001,3.29,0.53,0.16,0.29,1.13
2.724487066268921,2,3,3,0,-8.83,3.24,0.53,0.01,0.53,0.7
2.734487056732178,2,3,3,0,-8.66,3.17,0.5,-0.27,0.7,0.31
2.744487047195435,2,3,3,0,-8.23,3.17,0.51,-0.72,0.83,0.1
2.754487037658691,2,3,3,0,-8,3.2,0.53,-1.01,0.91,0.2
2.764487028121948,2,3,3,0,-7.85,3.36,0.58,-1.18,0.92,0.5600000000000001
2.774487018585205,2,3,3,0,-7.43,3.41,0.59,-1.17,0.78,1.24
2.784487009048462,2,3,3,0,-6.73,3.25,0.32,-1.11,0.57,2.12
2.794486999511719,2,3,3,0,-6.14,3.18,0.37,-1,0.27,3.11
2.804486989974976,2,3,3,0,-5.65,3.15,0.35,-0.93,0.09,4.19
2.814486980438232,2,3,3,0,-5.48,3.01,0.23,-0.87,-0.05,5.13
2.824486970901489,2,3,3,0,-4.65,2.5,-0.09,-0.86,-0.4,5.85
2.834486961364746,2,3,3,0,-4.23,2,-0.27,-0.9,-0.5600000000000001,6.43
2.844486951828003,2,3,3,0,-3.68,1.34,-0.19,-1.01,-0.74,6.7
2.85448694229126,2,3,3,0,-3.73,-0.1,0.57,-1.52,-0.71,6.8
2.864486932754517,2,3,3,0,-4.58,-0.13,0.82,-2.35,-1.13,6.33
2.874486923217773,2,3,3,0,-5.69,-0.17,1.16,-2.85,-2.16,5.12
2.88448691368103,2,3,3,0,-6.56,0.01,0.87,-2.7,-3.87,3.81
2.894486904144287,2,3,3,0,-8.19,0.14,0.16,-1.53,-4.92,2.82
2.904486894607544,2,3,3,0,-8.220000000000001,0.01,0.03,0.18,-4.87,2.5
2.914486885070801,2,3,3,0,-8.470000000000001,0.4,0.18,1.76,-3.42,3.24
2.924486875534058,2,3,3,0,-9.35,1.1,0.89,3.63,-2.67,4.15
2.934486865997314,2,3,3,0,-9.5,1.52,1.29,5.4,-2.48,4.86
2.94448709487915,2,3,3,0,-9.52,1.4,1.03,6.56,-2.58,6.54
2.954487085342407,2,3,3,0,-9.31,0.8,0.9399999999999999,7.34,-2.32,9.039999999999999
2.964487075805664,2,3,3,0,-9.720000000000001,0.36,1.13,6.7,-1.4,11.36
2.974487066268921,2,3,3,0,-12.09,1.74,1.13,4.75,-1.06,11.69
2.984487056732178,2,3,3,0,-12.55,2.09,1.24,3.61,-2,9.800000000000001
2.994487047195435,2,3,3,0,-12.37,1.94,1.73,3.46,-3.58,7.31
3.004487037658691,2,3,3,0,-12.36,3.26,2.41,2.25,-4.92,5.06
3.014487028121948,2,3,3,0,-10.77,2.85,2.28,1.58,-4.96,2.61
3.024487018585205,2,3,3,0,-10.05,2.01,2.17,1.58,-3.52,1.74
3.034487009048462,2,3,3,0,-11.09,1.4,1.74,1.22,-1.61,2.24
3.044486999511719,2,3,3,0,-14.42,0.79,1.19,1.14,-0.37,2.94
3.055486917495728,2,3,3,0,-14.47,0.92,1.12,0.17,0.22,3.03
3.065486907958984,2,3,3,0,-14.07,1.47,1.72,-0.48,0.72,2.74
3.075486898422241,2,3,3,0,-13.59,2.36,2.08,-0.2,0.59,2.27
3.085486888885498,2,3,3,0,-13.54,3.39,2.67,0.33,0,0.97
3.095486879348755,2,3,3,0,-14,3.62,2.46,0.29,-1.17,-0.72
3.105486869812012,2,3,3,0,-14.36,3.75,2.11,-0.13,-1.91,-1.8
3.115487098693848,2,3,3,0,-14.66,3.58,2.04,-0.1,-1.41,-1.77
3.125487089157104,2,3,3,0,-15.49,3.32,1.9,-0.72,-0.25,-1.49
3.135487079620361,2,3,3,0,-15.69,2.95,2.13,-1.24,0.74,-1.2
3.145487070083618,2,3,3,0,-16.14,2.82,2.71,-1.76,1.7,-1.53
3.155487060546875,2,3,3,0,-16.07,3.29,3.65,-1.69,2.05,-2.11
3.165487051010132,2,3,3,0,-17.11,3.81,4.18,-1.25,3.19,-2.32
3.175487041473389,2,3,3,0,-19.34,3.08,4.53,-2.26,2.96,-3.32
3.185487031936646,2,3,3,0,-20.5,2.43,2.65,-4.54,-0.68,-6.28
3.195487022399902,2,3,3,0,-23.34,3.74,2.79,-6.22,-3.58,-9.31
3.205487012863159,2,3,3,0,-25.87,3.89,3.57,-7.67,-4.14,-11.79
3.215487003326416,2,3,3,0,-29.08,2.49,3.86,-9.17,-3.51,-14.21
3.225486993789673,2,3,3,0,-31.97,-0.03,3.71,-9.67,-1.58,-15.67
3.23548698425293,2,3,3,0,-36.5,-3,3.72,-8.67,3.01,-14.53
3.245486974716187,2,3,3,0,-35.77,-2.64,3.37,-5.9,7.74,-11.05
3.255486965179443,2,3,3,0,-32.88,-1.6,3.18,-1.08,9.960000000000001,-8.869999999999999
3.2654869556427,2,3,3,0,-29.69,1.21,3.55,3.33,9.699999999999999,-8.119999999999999
3.275486946105957,2,3,3,0,-23.32,6.14,3.15,5.54,8.65,-5.65
3.285486936569214,2,3,3,0,-17.6,7.46,2.53,6.41,8.640000000000001,-1.63
3.295486927032471,2,3,3,0,-11.63,7.67,1.86,6.92,10.51,6.26
3.305486917495728,2,3,3,0,-13.55,8.529999999999999,-0.54,6.8,13.57,15.79
3.315486907958984,2,3,3,0,-7.46,7.21,0.26,8.210000000000001,15.68,17
3.325486898422241,2,3,3,0,-1.1,9.1,0.03,8.44,13.65,13.65
3.335486888885498,2,3,3,0,3.34,10.46,-2.01,8.69,9.130000000000001,13.74
3.345486879348755,2,3,3,0,9.77,13.61,-4.28,8.15,3.06,14.48
3.355486869812012,2,3,3,0,10.74,11.18,-5.9,7.42,-0.41,12.97
3.365487098693848,2,3,3,0,9.32,7.01,-3.25,6.33,0.17,9.6
3.375487089157104,2,3,3,0,5.19,3.99,-0.67,5.12,1.07,3.07
3.385487079620361,2,3,3,0,2.87,1.92,0.37,8.779999999999999,-0.54,-5.75
3.395487070083618,2,3,3,0,1.62,2.29,1.34,9.699999999999999,-1.6,-12.15
3.405487060546875,2,3,3,0,0.18,2.53,2.07,7.17,-1.13,-16.01
3.415487051010132,2,3,3,0,-0.93,2.77,1.93,3.19,-1.34,-16.7
3.425487041473389,2,3,3,0,-3.16,0.89,0.88,-0.88,-0.6899999999999999,-14.44
3.435487031936646,2,3,3,0,-2.27,-0.06,0.52,-4.8,-1.12,-10.5
3.445487022399902,2,3,3,0,-1.53,-0.91,0.21,-7.75,-0.97,-5.58
3.455487012863159,2,3,3,0,-0.88,-1.22,0.01,-8.880000000000001,0.3,-1.8
3.465487003326416,2,3,3,0,-0.12,-1.08,-0.24,-8.07,1.12,0.75
3.475486993789673,2,3,3,0,0.4,-0.9399999999999999,-0.21,-5.88,1.8,2.71
3.48548698425293,2,3,3,0,0.67,-0.83,-0.28,-3.09,2.15,4.23
3.495486974716187,2,3,3,0,1.79,-0.18,-0.84,-0.72,2.27,5.1
3.505486965179443,2,3,3,0,2.11,0.01,-0.91,1.14,2.1,5.35
3.5154869556427,2,3,3,0,2.06,0.23,-0.9399999999999999,2.75,1.69,5.51
3.525486946105957,2,3,3,0,1.62,0.54,-0.89,3.79,1.2,5.38
3.535486936569214,2,3,3,0,0.19,0.82,-0.5600000000000001,4.01,0.75,4.61
3.545486927032471,2,3,3,0,-0.42,0.9,-0.29,3.7,0.15,3.13
3.555486917495728,2,3,3,0,-0.33,0.96,0,3.17,-0.78,1.77
3.565486907958984,2,3,3,0,0.09,0.97,0.19,2.16,-1.66,0.43
3.575486898422241,2,3,3,0,1.02,0.58,0.43,1.12,-2.09,-0.95
3.585486888885498,2,3,3,0,0.99,0.34,0.47,-0.09,-2.06,-2.04
3.595486879348755,2,3,3,0,1.11,0.14,0.44,-1.33,-2.04,-2.7
3.605486869812012,2,3,3,0,1.14,0.02,0.07000000000000001,-1.94,-1.66,-2.9
3.615487098693848,2,3,3,0,0.59,-0.44,-0.02,-2.09,-0.66,-2.68
3.625487089157104,2,3,3,0,0.31,-0.6,0.07000000000000001,-1.81,-0.1,-2.06
3.635487079620361,2,3,3,0,-0.1,-0.71,0.07000000000000001,-1.39,0.11,-1.18
3.645487070083618,2,3,3,0,-0.8,-0.75,0.07000000000000001,-1.07,0.01,-0.09
3.655487060546875,2,3,3,0,-0.89,-0.67,0.1,-0.79,-0.07000000000000001,1.07
3.665487051010132,2,3,3,0,-1.06,-0.6899999999999999,0.16,-0.25,-0.31,2.3
3.675487041473389,2,3,3,0,-0.9,-0.74,0.07000000000000001,0.64,-1.26,3.31
3.685487031936646,2,3,3,0,-0.41,-0.8,-0.35,1.71,-2.6,4.09
3.695487022399902,2,3,3,0,-0.1,-0.27,-0.63,1.6,-3.88,4.48
3.705487012863159,2,3,3,0,0.07000000000000001,0.43,-1.08,1.57,-4.62,4.24
3.715487003326416,2,3,3,0,0,1.24,-1.02,2.11,-4.91,3.32
3.725486993789673,2,3,3,0,-0.36,3.67,-1,1.98,-5.91,1.81
3.73548698425293,2,3,3,0,-0.65,5.23,-0.88,1.08,-7.24,-0.14
3.745486974716187,2,3,3,0,-1.3,6.45,-0.9,-0.18,-8.23,-1.91
3.755486965179443,2,3,3,0,-2.02,6.21,-1.35,-1.67,-8.66,-3.74
3.7654869556427,2,3,3,0,-3.27,4.63,-0.62,-2.9,-7.68,-6.17
3.775486946105957,2,3,3,0,-7.44,13.53,-0.8,-5.08,-5.43,-10.14
3.785486936569214,2,3,3,0,-9.52,13.76,-2.55,-6.95,-12.55,-15.07
3.795486927032471,2,3,3,0,-25.4,16.22,-2.82,-8.31,-13.71,-20.18
3.805486917495728,2,3,3,0,-37.12,8.01,1.05,-13.08,-12.23,-24.07
3.815486907958984,2,3,3,0,-39.22,-4.21,5.59,-10.39,0.96,-21.12
3.825486898422241,2,3,3,0,-39.16,-0.63,5.91,-5.48,1.08,-9.16
3.835486888885498,2,3,3,0,-35.22,5.76,1.78,-3.23,-0.16,1.45
3.845486879348755,2,3,3,0,-29.93,3.24,-0.6899999999999999,0.12,0.53,1.04
3.855486869812012,2,3,3,0,-28.24,-0.27,1.6,-2.97,-1.29,-5.6
3.865487098693848,2,3,3,0,-14.41,-12.86,4.01,-2.37,-4.71,-18.29
3.875487089157104,2,3,3,0,-13.17,-6.93,2.46,6.26,-5.07,-20.93
3.885487079620361,2,3,3,0,-15.61,-6.88,2.83,9.48,-3.86,-12.31
3.895487070083618,2,3,3,0,-18.38,-4.14,2.41,9.76,-1.96,-6.04
3.905487060546875,2,3,3,0,-20.79,-2.46,3.16,6.98,-0.65,-2.33
3.915487051010132,2,3,3,0,-23.14,-0.41,3.42,4.52,-1.25,-0.01
3.925487041473389,2,3,3,0,-24.61,-0.92,2.73,1.97,-0.91,2.96
3.935487031936646,2,3,3,0,-23.85,-1.22,2.09,0.97,-0.54,5.58
3.945487022399902,2,3,3,0,-19.07,-0.18,2.26,1.55,-0.59,7.68
3.955487012863159,2,3,3,0,-17.01,0.01,2.59,3.36,0.03,8.31
3.965487003326416,2,3,3,0,-14.03,1.01,2.69,5.32,1.32,7.3
3.975486993789673,2,3,3,0,-11.93,1.45,2.23,6.06,2.21,5.92
3.98548698425293,2,3,3,0,-8.699999999999999,1.87,1.44,6.74,2.54,4.27
3.995486974716187,2,3,3,0,-8.1,2.47,1.15,6.64,2.49,2.85
4.005486965179443,2,3,3,0,-7.98,2.86,1.11,5.97,2.51,1.86
4.0154869556427,2,3,3,0,-8.15,3.23,1.12,4.72,3,0.97
4.025486946105957,2,3,3,0,-8.01,3.4,1.1,3.62,3.14,0.25
4.035486936569214,2,3,3,0,-8.26,3.42,1.04,2.97,3,0.04
4.045486927032471,2,3,3,0,-8.220000000000001,3.19,1.03,2.29,2.95,0.61
4.055486917495728,2,3,3,0,-7.84,3,1.16,2.07,2.58,1.29
4.065486907958984,2,3,3,0,-7.35,2.74,0.76,1.8,2.07,1.95
4.076487064361572,2,3,3,0,-6.93,2.49,0.78,1.4,1.54,2.31
4.086487054824829,2,3,3,0,-6.44,2.23,0.6,0.87,1.21,2.39
4.106487035751343,2,3,3,0,-5.59,1.86,0.46,0.14,0.82,2.37
4.1164870262146,2,3,3,0,-5.37,1.73,0.55,-0.52,0.77,1.84
4.126487016677856,2,3,3,0,-5.35,1.92,0.49,-1.29,0.53,1.3
4.136487007141113,2,3,3,0,-4.57,2.42,-0.18,-2.13,-0.01,0.98
4.14648699760437,2,3,3,0,-4.61,2.55,-0.04,-2.46,0.36,0.93
4.156486988067627,2,3,3,0,-4.43,2.84,0.01,-2.91,1.15,0.88
4.166486978530884,2,3,3,0,-4.88,2.92,0.08,-3.57,1.66,0.98
4.176486968994141,2,3,3,0,-6.69,2.62,0.24,-3.96,2.19,0.93
4.186486959457397,2,3,3,0,-7.67,2.46,0.45,-4.25,2.38,0.48
4.196486949920654,2,3,3,0,-8.609999999999999,2.47,0.47,-4.11,2.27,-0.19
4.206486940383911,2,3,3,0,-9.51,2.37,0.6899999999999999,-3.67,2.11,-0.83
4.216486930847168,2,3,3,0,-10.66,2.44,0.98,-3.22,1.99,-1.18
4.226486921310425,2,3,3,0,-11.05,2.19,1.07,-2.61,2.02,-1.06
4.236486911773682,2,3,3,0,-11.25,1.81,1.01,-1.65,2.33,-0.55
4.246486902236938,2,3,3,0,-11.07,1.51,0.67,-0.7,2.24,0.14
4.256486892700195,2,3,3,0,-10.68,1.62,0.59,0.08,1.79,0.85
4.266486883163452,2,3,3,0,-10.38,1.84,0.62,0.74,1.63,1.36
4.276486873626709,2,3,3,0,-10.17,1.99,0.73,1.14,1.63,1.58
4.286486864089966,2,3,3,0,-9.67,1.83,0.72,1.29,1.39,1.65
4.296487092971802,2,3,3,0,-9.57,1.7,0.77,1.28,0.98,1.55
4.306487083435059,2,3,3,0,-9.609999999999999,1.59,0.8,0.75,0.6,1.18
4.316487073898315,2,3,3,0,-9.69,1.65,0.76,0.02,0.37,0.48
4.326487064361572,2,3,3,0,-9.49,1.81,0.6899999999999999,-0.62,0.26,-0.23
4.336487054824829,2,3,3,0,-9.41,1.88,0.62,-0.99,0.44,-0.67
4.346487045288086,2,3,3,0,-9.41,1.85,0.8,-1.13,0.97,-0.8
4.356487035751343,2,3,3,0,-9.369999999999999,1.79,1.03,-1.23,1.34,-0.75
4.3664870262146,2,3,3,0,-9.369999999999999,1.79,1.03,-1.23,1.34,-0.75
4.376487016677856,2,3,3,0,-8.859999999999999,1.82,0.5,-1.16,1.47,0.03
4.386487007141113,2,3,3,0,-8.81,2,0.4,-1.15,1.58,0.63
4.39648699760437,2,3,3,0,-9.08,2.1,0.38,-1.2,1.67,1.07
4.406486988067627,2,3,3,0,-9.27,1.92,0.48,-0.96,1.72,1.38
4.416486978530884,2,3,3,0,-9.27,1.92,0.48,-0.6,1.73,1.54
4.426486968994141,2,3,3,0,-9.42,1.77,0.58,-0.44,1.51,1.44
4.436486959457397,2,3,3,0,-9.92,1.98,0.62,-0.16,1.14,1.18
4.446486949920654,2,3,3,0,-9.9,1.9,0.48,0.4,0.47,0.95
4.456486940383911,2,3,3,0,-9.720000000000001,1.9,0.43,0.58,0.07000000000000001,0.9399999999999999
4.466486930847168,2,3,3,0,-9.720000000000001,1.9,0.43,0.05,-0.01,1.09
4.476486921310425,2,3,3,0,-9.109999999999999,2.13,0.6,-0.5600000000000001,0.04,1.32
4.486486911773682,2,3,3,0,-9.06,2.05,0.58,-0.86,0.24,1.38
4.496486902236938,2,3,3,0,-9.18,1.9,0.6899999999999999,-1.08,0.49,1.2
4.506486892700195,2,3,3,0,-9.41,1.77,0.6,-1.06,0.82,0.87
4.516486883163452,2,3,3,0,-9.41,1.77,0.6,-1.06,0.82,0.87
4.526486873626709,2,3,3,0,-9.779999999999999,1.68,0.58,-1.11,1.16,0.58
4.536486864089966,2,3,3,0,-9.890000000000001,1.73,0.51,-0.91,1.1,0.35
4.546487092971802,2,3,3,0,-9.85,1.82,0.53,-0.78,0.8100000000000001,0.46
4.556487083435059,2,3,3,0,-9.779999999999999,1.7,0.46,-0.84,0.49,0.72
4.566487073898315,2,3,3,0,-9.779999999999999,1.7,0.46,-0.84,0.49,0.72
4.576487064361572,2,3,3,0,-9.710000000000001,1.69,0.45,-0.77,0.23,1
4.586487054824829,2,3,3,0,-9.24,1.9,0.35,-0.26,-0.12,1.26
4.596487045288086,2,3,3,0,-9.109999999999999,1.96,0.5,0.29,-0.24,1.35
4.606487035751343,2,3,3,0,-9.109999999999999,1.96,0.5,1.07,-0.27,1.39
4.6164870262146,2,3,3,0,-9.1,2,0.65,1.07,-0.27,1.39
4.626487016677856,2,3,3,0,-9.199999999999999,2.04,0.88,2.39,-0.03,1.11
4.636487007141113,2,3,3,0,-9.33,2.04,0.58,2.42,0.17,1.03
4.64648699760437,2,3,3,0,-9.48,2.1,0.41,2.24,0.51,0.92
4.656486988067627,2,3,3,0,-9.609999999999999,2.29,0.43,1.87,0.61,0.85
4.666486978530884,2,3,3,0,-9.76,2.43,0.49,1.87,0.61,0.85
4.676486968994141,2,3,3,0,-9.84,2.67,0.41,1.28,-0.04,1.05
4.686486959457397,2,3,3,0,-9.77,2.73,0.35,1.33,-0.31,1.08
4.696486949920654,2,3,3,0,-9.710000000000001,2.67,0.19,1.49,-0.22,0.89
4.706486940383911,2,3,3,0,-9.6,2.61,0.16,1.8,-0.09,0.58
4.716486930847168,2,3,3,0,-9.32,2.53,0.31,1.8,-0.09,0.58
4.726486921310425,2,3,3,0,-9.35,2.53,0.37,2.16,0.07000000000000001,0.27
4.736486911773682,2,3,3,0,-9.42,2.54,0.38,2.3,0.04,-0.09
4.746486902236938,2,3,3,0,-9.449999999999999,2.72,0.28,2.01,0.05,-0.25
4.756486892700195,2,3,3,0,-9.43,2.73,0.4,1.6,0.17,-0.42
4.766486883163452,2,3,3,0,-9.41,2.76,0.44,1.6,0.17,-0.42
4.776486873626709,2,3,3,0,-9.390000000000001,2.7,0.42,1.06,0.19,-0.6
4.786486864089966,2,3,3,0,-9.300000000000001,2.43,0.48,-0.11,0.31,-1.01
4.796487092971802,2,3,3,0,-9.43,2.27,0.45,-0.54,0.03,-1.08
4.806487083435059,2,3,3,0,-9.550000000000001,2.33,0.44,-0.38,-0.37,-1.01
4.816487073898315,2,3,3,0,-9.49,2.41,0.31,-0.38,-0.37,-1.01
4.826487064361572,2,3,3,0,-9.449999999999999,2.4,0.24,-0.04,-0.33,-0.93
4.836487054824829,2,3,3,0,-9.44,2.33,0.49,0.26,-0.23,-0.78
4.846487045288086,2,3,3,0,-9.49,2.34,0.47,0.36,-0.07000000000000001,-0.7
4.856487035751343,2,3,3,0,-9.5,2.48,0.43,0.11,0.12,-0.5600000000000001
4.8664870262146,2,3,3,0,-9.67,2.64,0.51,0.11,0.12,-0.5600000000000001
4.876487016677856,2,3,3,0,-9.619999999999999,2.68,0.38,-0.33,0.08,-0.39
4.886487007141113,2,3,3,0,-9.609999999999999,2.72,0.27,-0.77,-0.7,-0.11
4.89648699760437,2,3,3,0,-9.710000000000001,2.8,0.44,-1.45,-1.37,-0.03
4.906486988067627,2,3,3,0,-9.5,3.03,0.16,-1.33,-1.58,0.17
4.916486978530884,2,3,3,0,-9.199999999999999,3.17,-0.16,-1.33,-1.58,0.17
4.926486968994141,2,3,3,0,-9.130000000000001,3.09,-0.15,-1.04,-1.22,0.17
4.936486959457397,2,3,3,0,-9.210000000000001,3.24,-0.06,-0.97,-1.14,-0.16
4.946486949920654,2,3,3,0,-9.23,3.32,-0.11,-0.79,-1.23,-0.29
4.956486940383911,2,3,3,0,-9.25,3.35,-0.11,-0.82,-1.47,-0.33
4.966486930847168,2,3,3,0,-9.31,3.38,-0.04,-0.82,-1.47,-0.33
4.976486921310425,2,3,3,0,-9.07,3.75,0.1,-1.2,-2.1,-0.28
4.986486911773682,2,3,3,0,-8.82,3.81,-0.14,-0.96,-3.25,0.5
4.996486902236938,2,3,3,0,-8.59,3.79,-0.34,-1.51,-3.23,1.07
5.006486892700195,2,3,3,0,-8.31,3.88,-0.31,-2.19,-3.16,1.67
5.016486883163452,2,3,3,0,-7.63,4.53,-0.05,-2.19,-3.16,1.67
5.026486873626709,2,3,3,0,-7.22,4.93,0.02,-2.62,-3.01,2.26
5.036486864089966,2,3,3,0,-6.67,5.14,0.04,-2.81,-2.39,3.56
5.046487092971802,2,3,3,0,-5.25,4.68,0.01,-3.04,-1.85,4.13
5.056487083435059,2,3,3,0,-4.41,4.09,-0.06,-3.46,-1.1,4.52
5.066487073898315,2,3,3,0,-3.75,3.49,-0.19,-3.46,-1.1,4.52
5.076487064361572,2,3,3,0,-3.38,2.77,-0.43,-3.88,-0.9,4.24
5.086487054824829,2,3,3,0,-2.6,1.76,-0.27,-5.93,-1.58,3.64
5.096487045288086,2,3,3,0,-2.61,1.34,-0.2,-5.93,-1.58,3.64
5.107486963272095,2,3,3,0,-3.43,1.11,0.06,-6.37,-1.38,3.46
5.117486953735352,2,3,3,0,-3.77,1.11,0.35,-6.16,-0.31,3.05
5.127486944198608,2,3,3,0,-4.95,1.82,0.8,-6.1,0.36,2.73
5.137486934661865,2,3,3,0,-5.81,1.81,1.15,-5.65,0.09,2.03
5.147486925125122,2,3,3,0,-6.22,1.49,1.28,-4.55,-0.5,1.2
5.157486915588379,2,3,3,0,-6.23,0.84,0.9,-1.29,-1.44,2.56
5.167486906051636,2,3,3,0,-6.9,-0.31,0.77,-1.29,-1.44,2.56
5.177486896514893,2,3,3,0,-7.58,-0.35,0.72,0.18,-0.2,3.94
5.187486886978149,2,3,3,0,-8.289999999999999,0.05,0.5,1.39,1.42,5.81
5.197486877441406,2,3,3,0,-9.970000000000001,0.65,0.12,2.98,2.87,7.82
5.207486867904663,2,3,3,0,-10.92,0.47,1.09,5.23,4.41,9.5
5.217487096786499,2,3,3,0,-12.21,0.23,2.45,6.75,4.67,10.59
5.227487087249756,2,3,3,0,-13.53,0.63,2.95,6.93,2.87,10.05
5.237487077713013,2,3,3,0,-13.77,1.24,1.9,6.83,0.09,8.199999999999999
5.24748706817627,2,3,3,0,-12.34,1.39,0.88,6.27,-1.82,6.62
5.257487058639526,2,3,3,0,-13.39,1.53,1.01,4.89,-2.41,5.26
5.267487049102783,2,3,3,0,-12.34,0.76,1.56,2.84,-2.09,4.2
5.27748703956604,2,3,3,0,-12.71,1.33,0.93,1.5,-1.8,3.47
5.287487030029297,2,3,3,0,-13.76,1.29,1.47,1.15,-1.95,3
5.297487020492554,2,3,3,0,-15.43,1.45,1.94,1.7,-1.98,2.25
5.307487010955811,2,3,3,0,-16.43,1.51,0.8,2.33,-2.81,0.78
5.317487001419067,2,3,3,0,-16.86,1.93,1.24,2.76,-2.58,-0.15
5.327486991882324,2,3,3,0,-16.49,2.15,0.76,2.58,-2.42,0.11
5.337486982345581,2,3,3,0,-16.04,2.67,0.97,1.71,-1.77,0.77
5.347486972808838,2,3,3,0,-15.46,3.43,1.14,1.18,-1.48,0.84
5.357486963272095,2,3,3,0,-15.97,3.88,1.71,0.98,-1.82,-0.16
5.367486953735352,2,3,3,0,-16.38,4.3,1.95,0.9399999999999999,-2.19,-1.01
5.377486944198608,2,3,3,0,-17.33,4.36,2.3,0.58,-1.91,-1.41
5.387486934661865,2,3,3,0,-18.96,4.07,2.78,-0.07000000000000001,-1.5,-1.55
5.397486925125122,2,3,3,0,-19.87,3.93,3.27,-0.96,-1.29,-1.49
5.407486915588379,2,3,3,0,-20.93,3.67,3.24,-1.75,-1.48,-1.8
5.417486906051636,2,3,3,0,-22.76,2.86,3.76,-4.09,-3.1,-3.74
5.427486896514893,2,3,3,0,-23.53,1.29,1.98,-5.91,-6.32,-7.3
5.437486886978149,2,3,3,0,-24.33,0.9399999999999999,2.23,-7.47,-7.43,-10.56
5.447486877441406,2,3,3,0,-26.09,1.04,2.93,-9.31,-7.25,-13.16
5.457486867904663,2,3,3,0,-28.26,0.86,3.77,-9.69,-7.06,-15.24
5.467487096786499,2,3,3,0,-32.51,0.19,4.17,-9.08,-5.63,-15.77
5.477487087249756,2,3,3,0,-33.64,0.12,3.72,-7.34,-2.57,-14.25
5.487487077713013,2,3,3,0,-32.61,1.06,3.44,-4.56,1.3,-11.29
5.49748706817627,2,3,3,0,-29.29,3.27,3.45,-1.96,4.2,-7.71
5.507487058639526,2,3,3,0,-21.04,5.3,3.41,-0.4,6.07,-4.33
5.517487049102783,2,3,3,0,-17.24,5.62,3.3,0.12,7.1,0.53
5.52748703956604,2,3,3,0,-13.52,6.65,3.02,0.61,7.27,6.58
5.537487030029297,2,3,3,0,-12.06,6.97,1.19,1.77,8.279999999999999,12.13
5.547487020492554,2,3,3,0,-4.96,5.28,2.08,5.39,11.05,11.8
5.557487010955811,2,3,3,0,1.11,8.9,2.54,7.28,13.84,11.64
5.567487001419067,2,3,3,0,5.36,12.88,0.01,8.35,9.74,14.67
5.577486991882324,2,3,3,0,10.76,14.17,-4.8,8.300000000000001,4.62,17.11
5.587486982345581,2,3,3,0,11.57,11.58,-4.95,8.710000000000001,2.15,16.01
5.597486972808838,2,3,3,0,7.48,6.9,-1.99,5.32,1.6,10.8
5.607486963272095,2,3,3,0,3.39,2.45,-0.92,2.74,-1.95,1.01
5.617486953735352,2,3,3,0,2.01,1.53,0.85,3.59,-5.13,-7.35
5.627486944198608,2,3,3,0,1.99,1.58,0.96,3.49,-5.08,-12.69
5.637486934661865,2,3,3,0,1.19,1.72,0.98,2.09,-3.28,-15.81
5.647486925125122,2,3,3,0,0.49,1.68,0.6,-0.82,-2.02,-15.72
5.657486915588379,2,3,3,0,-2.47,1.24,-0.25,-4.71,-0.34,-12.62
5.667486906051636,2,3,3,0,-2.24,0.99,-0.37,-7.76,0.9,-7.74
5.677486896514893,2,3,3,0,-1.65,0.87,-0.39,-9.16,2.2,-2.31
5.687486886978149,2,3,3,0,0.08,-0.33,-0.35,-8.74,3.12,1.97
5.697486877441406,2,3,3,0,0.68,-0.53,-0.24,-7.13,4.4,4.5
5.707486867904663,2,3,3,0,1.04,-0.8100000000000001,-0.77,-4.24,5.24,5.63
5.717487096786499,2,3,3,0,1,-1.33,-1.25,-0.9,5.1,5.68
5.727487087249756,2,3,3,0,1.01,-1.21,-1.55,0.98,4.12,5.06
5.737487077713013,2,3,3,0,1.02,-0.97,-1.26,2.57,2.68,4.39
5.74748706817627,2,3,3,0,0.78,-0.61,-1.11,4.01,1.85,3.17
5.757487058639526,2,3,3,0,0.46,-0.44,-0.66,4.59,1.46,1.27
5.767487049102783,2,3,3,0,-1.09,-0.1,0.12,4.48,1.09,-0.49
5.77748703956604,2,3,3,0,-1.03,0.19,0.35,3.77,0.34,-1.62
5.787487030029297,2,3,3,0,-0.76,0.37,0.59,2.26,-0.18,-1.86
5.797487020492554,2,3,3,0,-0.31,0.48,0.26,0.12,-0.43,-1.64
5.807487010955811,2,3,3,0,0.22,-0.51,0.02,-1.74,-0.08,-1.74
5.817487001419067,2,3,3,0,0.51,-1.33,-0.06,-2.85,0.24,-2.09
5.827486991882324,2,3,3,0,0.63,-1.53,0.23,-3.15,0.83,-2.48
5.837486982345581,2,3,3,0,0.48,-1.34,0.45,-2.8,0.06,-2.19
5.847486972808838,2,3,3,0,0.55,-1.45,-0.22,-1.25,-1.1,-1.36
5.857486963272095,2,3,3,0,0.49,-1.06,-0.37,-0.08,-1.1,-0.66
5.867486953735352,2,3,3,0,0.43,-0.48,-0.53,0.17,-0.85,0.1
5.877486944198608,2,3,3,0,-0.08,0.9399999999999999,-0.63,0.26,-0.68,0.9399999999999999
5.887486934661865,2,3,3,0,-0.64,1.34,-0.19,0.22,-0.87,1.77
5.897486925125122,2,3,3,0,-1.28,1.87,-0.29,-0.36,-1.91,2.15
5.907486915588379,2,3,3,0,-1.59,2.09,-0.71,-0.51,-3.55,1.99
5.917486906051636,2,3,3,0,-1.94,1.6,-0.22,0.27,-4.25,1.68
5.927486896514893,2,3,3,0,-1.71,1.64,0.16,0.7,-4.17,1.32
5.937486886978149,2,3,3,0,-1.13,2.15,-0.24,0.06,-4.16,0.89
5.947486877441406,2,3,3,0,-0.53,2.82,-0.92,-0.23,-4.44,0.25
5.957486867904663,2,3,3,0,0.28,3.95,-1.31,0.28,-4.87,-0.5
5.967487096786499,2,3,3,0,0.37,4.02,-0.89,1.05,-4.89,-1.64
5.977487087249756,2,3,3,0,0.51,3.53,-0.44,1.53,-4.49,-3.07
5.987487077713013,2,3,3,0,-1.46,7.95,0.72,-0.22,-5.31,-5.38
5.99748706817627,2,3,3,0,-8.4,13.51,4.66,-1.95,-9.19,-9.26
6.007487058639526,2,3,3,0,-16.61,20.82,6.41,-10.17,-10.18,-12.97
6.017487049102783,2,3,3,0,-26.83,23.38,-1.4,-14.47,-12.09,-18.84
6.02748703956604,2,3,3,0,-39.22,-9.48,3.28,-14.11,8,-22.56
6.037487030029297,2,3,3,0,-38.44,-5.69,1.67,-6.84,11.84,-15.38
6.047487020492554,2,3,3,0,-33.6,0.74,0.47,3.33,3.4,-5.07
6.057487010955811,2,3,3,0,-30.56,-1.65,0.22,6.81,2.37,-2.85
6.067487001419067,2,3,3,0,-26.22,2.31,0.36,1.56,-0.05,-6.94
6.077486991882324,2,3,3,0,-20.96,-11.39,7.14,-5.94,-1.05,-15.71
6.087486982345581,2,3,3,0,-21.23,-7.29,5.11,-0.19,0.23,-18.97
6.097486972808838,2,3,3,0,-25.44,-3.46,2.47,4.28,0.74,-10.28
6.107486963272095,2,3,3,0,-25.28,-0.86,3.01,4.69,2.55,-2.22
6.117486953735352,2,3,3,0,-23.41,-0.76,3.16,2.09,2.99,2.73
6.12848687171936,2,3,3,0,-21.88,-0.04,2.31,0.36,3.12,4.6
6.138486862182617,2,3,3,0,-21.89,-0.66,2.28,0.09,2.99,5.47
6.148487091064453,2,3,3,0,-18.87,-1.52,2.61,1.18,2.02,6.68
6.15848708152771,2,3,3,0,-16.23,-0.74,3.45,2.25,1.83,8.119999999999999
6.168487071990967,2,3,3,0,-13.81,-0.12,3.54,4.39,1.41,8.81
6.178487062454224,2,3,3,0,-6.88,0.6,3.18,7.61,0.23,8.449999999999999
6.18848705291748,2,3,3,0,-5.43,0.83,2.58,10.92,-0.74,7.85
6.198487043380737,2,3,3,0,-4.57,1.36,2.05,12.34,-1.5,6.68
6.208487033843994,2,3,3,0,-4.63,2.16,1.76,12.38,-1.21,5.35
6.238487005233765,2,3,3,0,-6.05,4.03,0.6899999999999999,7.6,-1.63,2.1
6.248486995697021,2,3,3,0,-5.68,3.67,0.45,5.3,-1.8,1.98
6.258486986160278,2,3,3,0,-5.2,3.52,0.44,2.68,-1.41,1.95
6.268486976623535,2,3,3,0,-5.09,3.22,0.07000000000000001,0.8100000000000001,-1.03,1.62
6.278486967086792,2,3,3,0,-5.26,3.33,0.19,-0.04,-0.33,0.85
6.288486957550049,2,3,3,0,-5.49,3.62,0.34,-0.43,0.04,0.28
6.298486948013306,2,3,3,0,-5.81,3.77,0.14,-0.2,-0.12,0.14
6.308486938476562,2,3,3,0,-5.95,3.7,0.35,-0.52,-0.11,0.17
6.318486928939819,2,3,3,0,-5.97,3.7,0.54,-1.47,0.11,-0.19
6.328486919403076,2,3,3,0,-5.97,3.61,0.71,-2.49,0.21,-0.72
6.338486909866333,2,3,3,0,-6.01,3.35,0.8,-3.21,0.84,-1.39
6.34848690032959,2,3,3,0,-6.9,3.22,0.88,-4.08,2.06,-2.06
6.358486890792847,2,3,3,0,-7.48,2.88,1.05,-5.08,2.84,-2.88
6.368486881256104,2,3,3,0,-8.41,2.42,1.23,-5.48,3.05,-3.33
6.37848687171936,2,3,3,0,-8.68,2.13,1.11,-5.13,2.67,-3.42
6.388486862182617,2,3,3,0,-8.779999999999999,1.94,1.12,-4.46,2.55,-3.25
6.398487091064453,2,3,3,0,-8.77,1.9,1.2,-4.15,2.61,-3.15
6.40848708152771,2,3,3,0,-8.699999999999999,1.48,0.74,-3.77,2.28,-2.86
6.418487071990967,2,3,3,0,-8.76,1.27,0.75,-3.34,2.09,-2.38
6.428487062454224,2,3,3,0,-9.01,1.27,0.74,-3.4,2.3,-2.15
6.43848705291748,2,3,3,0,-9.470000000000001,1.54,0.35,-3.41,2.43,-2.34
6.448487043380737,2,3,3,0,-11.19,1.89,0,-2.73,2.57,-2.82
6.458487033843994,2,3,3,0,-11.83,2,0.24,-2.42,2.18,-3.19
6.468487024307251,2,3,3,0,-11.86,2.02,0.29,-2.57,1.45,-3.38
6.478487014770508,2,3,3,0,-11.7,1.55,0.54,-2.58,1.44,-3.43
6.488487005233765,2,3,3,0,-11.21,1.09,0.63,-2.52,1.6,-3.34
6.498486995697021,2,3,3,0,-10.56,0.65,0.54,-2.57,1.7,-2.94
6.508486986160278,2,3,3,0,-9.779999999999999,0.37,0.61,-2.79,1.87,-2.41
6.518486976623535,2,3,3,0,-9.130000000000001,0.33,0.55,-2.8,1.99,-1.76
6.528486967086792,2,3,3,0,-9.140000000000001,0.45,0.58,-2.24,1.85,-1.03
6.538486957550049,2,3,3,0,-9.220000000000001,0.71,0.52,-1.66,1.47,-0.21
6.548486948013306,2,3,3,0,-9.26,0.98,0.42,-0.9,0.95,0.72
6.558486938476562,2,3,3,0,-9.4,1.47,0.37,-0.16,0.66,1.55
6.568486928939819,2,3,3,0,-9.52,1.73,0.49,0.31,0.73,1.98
6.578486919403076,2,3,3,0,-9.49,1.96,0.55,0.35,0.55,2
6.588486909866333,2,3,3,0,-9.34,2.01,0.51,0.2,0.26,1.81
6.59848690032959,2,3,3,0,-9.050000000000001,1.77,0.04,0.09,0.1,1.57
6.608486890792847,2,3,3,0,-9.06,1.73,0.16,-0.12,0.33,1.4
6.618486881256104,2,3,3,0,-9.15,1.78,0.34,-0.5600000000000001,0.5600000000000001,1.2
6.62848687171936,2,3,3,0,-9.52,2.04,0.31,-1.02,0.71,1.08
6.638486862182617,2,3,3,0,-9.67,2.19,0.18,-1.2,0.76,1.09
6.648487091064453,2,3,3,0,-9.800000000000001,2.22,0.12,-1.18,0.78,1.09
6.65848708152771,2,3,3,0,-9.82,2.22,0.27,-1.22,0.78,1.06
6.668487071990967,2,3,3,0,-9.630000000000001,1.82,0.38,-1.21,0.79,1.08
6.678487062454224,2,3,3,0,-9.6,1.59,0.51,-1.01,0.8100000000000001,0.98
6.68848705291748,2,3,3,0,-9.58,1.46,0.55,-1,0.85,0.75
6.698487043380737,2,3,3,0,-9.57,1.4,0.51,-1.05,0.74,0.41
6.708487033843994,2,3,3,0,-9.6,1.59,0.53,-0.88,0.38,0.05
6.718487024307251,2,3,3,0,-9.550000000000001,1.63,0.5,-0.59,0.05,-0.38
6.728487014770508,2,3,3,0,-9.470000000000001,1.6,0.49,-0.39,-0.16,-0.63
6.738487005233765,2,3,3,0,-9.44,1.68,0.55,-0.33,-0.12,-0.6899999999999999
6.748486995697021,2,3,3,0,-9.81,0.85,0.5,-0.3,0.13,-0.76
6.758486986160278,2,3,3,0,-9.91,0.57,0.68,0.1,0.32,-0.93
6.768486976623535,2,3,3,0,-10.11,0.48,0.85,0.61,0.18,-0.98
6.778486967086792,2,3,3,0,-10.18,1.14,1.07,1.57,-0.25,-0.86
6.788486957550049,2,3,3,0,-10.07,2.03,1.11,2.62,-0.6899999999999999,-0.48
6.798486948013306,2,3,3,0,-9.98,2.15,0.64,2.92,-0.91,0.29
6.808486938476562,2,3,3,0,-9.890000000000001,1.76,0.31,2.75,-0.75,1.29
6.818486928939819,2,3,3,0,-9.609999999999999,1.54,0.2,2.25,-0.45,2.04
6.828486919403076,2,3,3,0,-9.52,1.58,0.19,1.5,-0.23,2.25
6.838486909866333,2,3,3,0,-9.550000000000001,1.5,0.27,1.25,0,2.17
6.84848690032959,2,3,3,0,-9.58,1.38,0.32,1.47,-0.07000000000000001,2.02
6.858486890792847,2,3,3,0,-9.619999999999999,1.43,0.31,1.99,-0.15,1.79
6.868486881256104,2,3,3,0,-9.52,1.64,0.32,2.69,-0.34,1.52
6.87848687171936,2,3,3,0,-9.460000000000001,1.93,0.34,3.15,-0.54,1.23
6.888486862182617,2,3,3,0,-9.43,2.15,0.4,3.45,-0.5600000000000001,0.98
6.898487091064453,2,3,3,0,-9.43,2.37,0.31,3.26,-0.53,0.83
6.90848708152771,2,3,3,0,-9.449999999999999,2.36,0.31,2.86,-0.43,0.8100000000000001
6.918487071990967,2,3,3,0,-9.42,2.29,0.37,2.32,-0.17,0.9
6.928487062454224,2,3,3,0,-9.550000000000001,2.3,0.41,1.91,0.06,0.99
6.93848705291748,2,3,3,0,-9.58,2.17,0.05,1.79,0.21,1.01
6.948487043380737,2,3,3,0,-9.69,2.05,0.11,1.72,0.26,1.07
6.958487033843994,2,3,3,0,-9.59,2.04,0.21,1.55,0.09,0.95
6.968487024307251,2,3,3,0,-9.82,2.2,0.22,1.3,-0.11,0.84
6.978487014770508,2,3,3,0,-9.82,2.2,0.22,1.14,-0.18,0.65
6.988487005233765,2,3,3,0,-9.75,2.06,0.31,0.99,-0.26,0.54
6.998486995697021,2,3,3,0,-9.699999999999999,2.05,0.27,0.63,-0.14,0.62
7.008486986160278,2,3,3,0,-9.69,1.9,0.42,0.37,0.04,0.8
7.019486904144287,2,3,3,0,-9.630000000000001,1.78,0.42,0.2,0.1,0.98
7.028486967086792,2,3,3,0,-9.630000000000001,1.78,0.42,0.07000000000000001,0.13,1.23
7.038486957550049,2,3,3,0,-9.609999999999999,1.78,0.2,0.09,0.3,1.46
7.048486948013306,2,3,3,0,-9.6,2.07,0.34,0.18,0.36,1.6
7.058486938476562,2,3,3,0,-9.67,2.05,0.38,0.41,0.34,1.66
7.068486928939819,2,3,3,0,-9.58,1.99,0.32,0.71,0.05,1.75
7.078486919403076,2,3,3,0,-9.58,1.99,0.32,0.64,-0.11,1.89
7.088486909866333,2,3,3,0,-9.5,2.09,0.18,0.67,-0.16,1.96
7.09848690032959,2,3,3,0,-9.470000000000001,2.16,-0.08,0.64,-0.14,1.98
7.108486890792847,2,3,3,0,-9.470000000000001,2.29,0,0.33,-0.12,1.94
7.118486881256104,2,3,3,0,-9.470000000000001,2.41,0.2,-0.07000000000000001,-0.06,1.9
7.12848687171936,2,3,3,0,-9.470000000000001,2.41,0.2,-0.07000000000000001,-0.06,1.9
7.139487028121948,2,3,3,0,-9.41,2.34,0.24,-0.31,-0.05,1.78
7.148487091064453,2,3,3,0,-9.35,2.16,0.09,-0.91,-0.22,1.21
7.159487009048462,2,3,3,0,-9.300000000000001,2.12,0.1,-1.08,-0.2,0.85
7.169486999511719,2,3,3,0,-9.35,2.12,0.11,-1.26,-0.09,0.6
7.179486989974976,2,3,3,0,-9.35,2.12,0.11,-1.26,-0.09,0.6
7.189486980438232,2,3,3,0,-9.48,2.2,0.25,-1.11,0.06,0.53
7.199486970901489,2,3,3,0,-9.6,2.41,-0.01,-0.67,0.05,0.6
7.209486961364746,2,3,3,0,-9.6,2.41,-0.01,-0.59,0,0.6899999999999999
7.219486951828003,2,3,3,0,-9.550000000000001,2.45,0.06,-0.85,0.04,0.68
7.22948694229126,2,3,3,0,-9.42,2.53,0.16,-0.85,0.04,0.68
7.239486932754517,2,3,3,0,-9.359999999999999,2.66,0.19,-1.1,0.09,0.64
7.249486923217773,2,3,3,0,-9.24,2.72,0.19,-1.57,0.01,0.68
7.25948691368103,2,3,3,0,-9.16,2.8,0.08,-1.79,-0.07000000000000001,0.75
7.269486904144287,2,3,3,0,-9.050000000000001,2.93,0.05,-1.93,-0.1,0.86
7.279486894607544,2,3,3,0,-8.73,3,0.06,-1.93,-0.1,0.86
7.289486885070801,2,3,3,0,-8.51,3.11,0.17,-2.09,-0.16,0.99
7.299486875534058,2,3,3,0,-8.34,3.23,0.31,-2.46,-0.82,1.25
7.309486865997314,2,3,3,0,-8.109999999999999,3.38,0.2,-2.46,-1.21,1.54
7.31948709487915,2,3,3,0,-7.57,3.6,0.31,-2.29,-1.45,2.04
7.329487085342407,2,3,3,0,-7.17,3.74,0.35,-2.29,-1.45,2.04
7.339487075805664,2,3,3,0,-6.56,3.87,0.39,-2.13,-1.67,2.71
7.349487066268921,2,3,3,0,-6.11,3.99,0.47,-1.62,-1.78,3.79
7.359487056732178,2,3,3,0,-4.94,4.02,0.3,-1.26,-1.81,4.09
7.369487047195435,2,3,3,0,-4.41,3.87,0.41,-1.21,-1.59,4.09
7.379487037658691,2,3,3,0,-3.79,3.6,0.44,-1.21,-1.59,4.09
7.389487028121948,2,3,3,0,-3.51,3.46,0.41,-1.65,-1.37,3.7
7.399487018585205,2,3,3,0,-3.97,2.95,0.27,-2.69,-1.84,1.74
7.409487009048462,2,3,3,0,-4.2,2.61,0.16,-2.78,-2.28,0.29
7.419486999511719,2,3,3,0,-4.1,2.25,0.19,-2.79,-2.77,-0.95
7.429486989974976,2,3,3,0,-4.57,1.86,0.07000000000000001,-2.79,-2.77,-0.95
7.439486980438232,2,3,3,0,-4.6,1.68,0.09,-3.45,-3.15,-3.34
7.449486970901489,2,3,3,0,-5,1.58,0.34,-4.28,-2.66,-4.1
7.459486961364746,2,3,3,0,-5.32,1.63,0.23,-3.86,-0.49,-3.98
7.469486951828003,2,3,3,0,-4.58,0.46,0.67,-2.41,1.69,-2.15
7.47948694229126,2,3,3,0,-4.68,-0.16,1.24,-2.41,1.69,-2.15
7.489486932754517,2,3,3,0,-6,-0.31,1.57,-0.74,3.17,0.05
7.499486923217773,2,3,3,0,-7.79,-0.27,1.37,3.19,1.78,4.81
7.50948691368103,2,3,3,0,-11.65,-0.07000000000000001,1.03,6.09,1.13,6.69
7.519486904144287,2,3,3,0,-13.14,0.78,1,7.44,1.38,7.94
7.529486894607544,2,3,3,0,-12.63,0.8,0.98,7.44,1.38,7.94
7.539486885070801,2,3,3,0,-11.68,1.23,0.92,5.68,3.61,8.31
7.549486875534058,2,3,3,0,-11.35,2.13,1.48,4.28,2.82,7.33
7.559486865997314,2,3,3,0,-12.39,1.95,1.09,3.44,-0.62,4.61
7.56948709487915,2,3,3,0,-14.5,1.64,1,1.71,-3.96,1.01
7.579487085342407,2,3,3,0,-16.38,1.64,1.77,1.71,-3.96,1.01
7.589487075805664,2,3,3,0,-15.5,1.72,1.22,1.22,-5.87,-0.98
7.599487066268921,2,3,3,0,-14.2,1.36,0.73,1.26,-2.43,1.17
7.609487056732178,2,3,3,0,-14.05,0.46,0.39,1.17,0.28,1.62
7.619487047195435,2,3,3,0,-14.7,1.48,0.67,1.87,0.83,1.22
7.629487037658691,2,3,3,0,-16.39,2.11,1.35,1.87,0.83,1.22
7.639487028121948,2,3,3,0,-16.95,2.8,1.31,2.07,-0.95,-0.66
7.649487018585205,2,3,3,0,-17.06,3.36,1.56,0.59,-3.19,-2.11
7.659487009048462,2,3,3,0,-17.97,3.87,1.01,0.59,-3.19,-2.11
7.669486999511719,2,3,3,0,-17.94,3.96,1.46,-1.43,-2.34,-1.45
7.679486989974976,2,3,3,0,-18.15,3.67,1.58,-3.02,-1.01,-0.42
7.689486980438232,2,3,3,0,-18.61,3.51,2.07,-3.85,0.06,-0.27
7.699486970901489,2,3,3,0,-21.7,2.82,2.66,-4.48,-0.08,-1.81
7.709486961364746,2,3,3,0,-23.8,1.98,2.35,-6.32,-4.52,-6.89
7.719486951828003,2,3,3,0,-25.35,1.15,2.39,-6.32,-4.52,-6.89
7.72948694229126,2,3,3,0,-26.23,0.36,2.2,-7.03,-6.17,-8.26
7.739486932754517,2,3,3,0,-28.51,-0.77,2.52,-8.029999999999999,-6.31,-9.039999999999999
7.749486923217773,2,3,3,0,-29.51,-1.12,2.87,-8.25,-6.1,-9.27
7.75948691368103,2,3,3,0,-30.39,-1.33,3.14,-7.47,-4.32,-8.83
7.769486904144287,2,3,3,0,-30.24,-1.22,3.24,-6.11,-2.13,-7.78
7.779486894607544,2,3,3,0,-29.43,-0.8100000000000001,3.58,-3.96,-0.03,-6.43
7.789486885070801,2,3,3,0,-28.8,1,4.17,-0.9,1.17,-4.67
7.799486875534058,2,3,3,0,-26.36,2.45,4.28,1.99,1.26,-1.16
7.809486865997314,2,3,3,0,-21.3,5.66,3.47,4.04,2.12,2.71
7.81948709487915,2,3,3,0,-17.56,6.92,3.35,4.61,3.26,6.8
7.829487085342407,2,3,3,0,-13.83,7.28,2.87,4.37,4.29,10.44
7.839487075805664,2,3,3,0,-11.66,6.76,2.4,4.21,4.23,13.52
7.849487066268921,2,3,3,0,-5.96,2.77,0.58,4.8,4.85,14.41
7.859487056732178,2,3,3,0,-1.86,2.34,-0.72,6.15,5.05,13.33
7.869487047195435,2,3,3,0,1.98,3.48,-1.28,8.210000000000001,4.28,12.97
7.879487037658691,2,3,3,0,5.84,4.74,-1.15,9.73,2.97,13.93
7.889487028121948,2,3,3,0,9.84,7.76,-1.96,11.38,1.37,12.92
7.899487018585205,2,3,3,0,10.47,7.87,-3.2,12.21,-0.67,9.01
7.909487009048462,2,3,3,0,10.98,6.04,-2.95,12.16,-2.21,4.21
7.919486999511719,2,3,3,0,2.47,4.42,-0.43,11.84,-1.44,-0.78
7.929486989974976,2,3,3,0,0.55,4.74,-0.77,13.67,-2.9,-7.2
7.939486980438232,2,3,3,0,0.75,5.05,-0.14,13.67,-3.87,-12.8
7.949486970901489,2,3,3,0,0.34,4.98,0.5,11,-2.72,-15.5
7.959486961364746,2,3,3,0,-1.84,4.35,0.44,6.25,-1.79,-15.38
7.969486951828003,2,3,3,0,-2.44,3.75,0.49,0.65,-1.42,-13.4
7.97948694229126,2,3,3,0,-2.6,2.9,0.4,-4.69,-0.87,-10.09
7.989486932754517,2,3,3,0,-1.76,1.71,0.17,-8.82,-0.4,-5.89
7.999486923217773,2,3,3,0,-0.11,-0.5600000000000001,0.41,-10.93,0.5,-2.13
8.00948691368103,2,3,3,0,1.18,-0.91,0.14,-11.02,1.64,0.44
8.019486904144287,2,3,3,0,1.43,-1.12,-0.19,-9.07,2.99,2.25
8.029486894607544,2,3,3,0,1.45,-1.35,-0.39,-6.12,3.13,3.42
8.039486885070801,2,3,3,0,1.34,-1.22,-0.77,-2.93,2.76,4.07
8.049486875534058,2,3,3,0,1.22,-0.78,-1.15,0.2,2.17,4.27
8.059486865997314,2,3,3,0,1.09,-0.13,-1.52,2.74,1.72,4.39
8.06948709487915,2,3,3,0,-0.11,1.13,-0.88,4.62,1.59,4.44
8.079487085342407,2,3,3,0,-0.54,1.97,-0.61,5.4,1.52,4.04
8.089487075805664,2,3,3,0,-0.54,2.51,-0.32,5.07,1.26,3.56
8.099487066268921,2,3,3,0,-0.37,2.72,-0.21,4.4,1.37,3
8.109487056732178,2,3,3,0,-0.31,2.11,-0.23,3.45,1.53,2.26
8.119487047195435,2,3,3,0,-0.08,1.46,0.07000000000000001,1.49,1.28,1.11
8.130486965179443,2,3,3,0,0.31,0.86,0.24,-0.59,0.8,-0.37
8.139487028121948,2,3,3,0,0.5,0.22,0.33,-1.71,0.52,-1.66
8.149487018585205,2,3,3,0,0.41,-0.48,0.18,-2.1,-0.02,-2.36
8.160486936569214,2,3,3,0,0.19,-0.73,0.02,-1.83,-0.38,-2.47
8.169486999511719,2,3,3,0,-0.22,-0.79,0.3,-1.65,-0.63,-2.42
8.180486917495728,2,3,3,0,-0.63,-0.5,0.39,-1.57,-1.34,-2.16
8.190486907958984,2,3,3,0,-0.86,0.27,0.01,-1.09,-2.32,-1.4
8.200486898422241,2,3,3,0,-0.8,0.61,0.1,-0.6,-2.68,-0.28
8.210486888885498,2,3,3,0,-0.71,1.05,0.06,-0.33,-2.4,0.91
8.220486879348755,2,3,3,0,-0.32,1,0.39,-0.27,-1.5,1.85
8.230486869812012,2,3,3,0,-0.3,0.73,0.5,-0.67,-0.82,2.55
8.240487098693848,2,3,3,0,-0.45,0.62,0.47,-1.43,-0.8100000000000001,2.68
8.250487089157104,2,3,3,0,-0.5600000000000001,0.7,0.35,-2.61,-1.53,2.11
8.260487079620361,2,3,3,0,0.33,1.93,-0.48,-3.58,-2.92,1.27
8.270487070083618,2,3,3,0,1.39,2.3,-0.98,-2.66,-3.8,0.41
8.280487060546875,2,3,3,0,2.44,2.4,-0.22,-0.86,-1.95,-0.98
8.290487051010132,2,3,3,0,2.42,7.25,1.32,-5.04,2.41,-3.99
8.300487041473389,2,3,3,0,-7.68,11.8,-1.84,-5.5,-3.3,-8.82
8.310487031936646,2,3,3,0,-18.09,11.58,3.67,-7.1,-7.91,-16.12
8.320487022399902,2,3,3,0,-29.76,11.88,2.5,-12.52,-11.3,-23.63
8.330487012863159,2,3,3,0,-39.04,5.78,0.03,-6.61,3.13,-26.26
8.340487003326416,2,3,3,0,-39.18,1.81,9.220000000000001,-1.09,5.67,-20.52
8.350486993789673,2,3,3,0,-34.26,10.53,2.71,7.16,3.28,-3.06
8.36048698425293,2,3,3,0,-31.04,0.76,2.83,10.11,2.47,1.18
8.370486974716187,2,3,3,0,-24.11,7.79,-3.02,4.23,1.91,-5.78
8.380486965179443,2,3,3,0,-17.5,-7.63,4.72,-7.39,-1.23,-15.25
8.3904869556427,2,3,3,0,-18.38,-12.49,6.39,-7.48,0.55,-20.42
8.400486946105957,2,3,3,0,-24.88,-7.27,1.88,-0.26,-0.42,-15.8
8.410486936569214,2,3,3,0,-26.47,-1.81,2.16,4.84,0.35,-8.140000000000001
8.420486927032471,2,3,3,0,-25.52,-0.66,1.61,5.15,0.45,-2.05
8.430486917495728,2,3,3,0,-23.61,0.71,1.51,3.69,0.04,1.58
8.440486907958984,2,3,3,0,-22.19,1.47,0.82,2.45,0.33,3.5
8.450486898422241,2,3,3,0,-17.21,0.75,2.02,1.81,0.47,4.18
8.460486888885498,2,3,3,0,-18.3,1.16,2.04,1.44,2.48,5
8.470486879348755,2,3,3,0,-14.88,1.28,1.75,2.03,3.27,5.98
8.480486869812012,2,3,3,0,-16.46,2.36,1.39,3.57,3.55,5.84
8.490487098693848,2,3,3,0,-8.550000000000001,2.78,1.55,5.05,2.47,4.13
8.500487089157104,2,3,3,0,-7.37,1.77,0.87,4.69,1.34,6.46
8.510487079620361,2,3,3,0,-6.9,1.13,0.8100000000000001,4.73,0.9,7.1
8.520487070083618,2,3,3,0,-5.94,0.84,0.58,4.39,0.89,6.16
8.530487060546875,2,3,3,0,-4.02,1.4,0.74,3.23,1.64,5.61
8.540487051010132,2,3,3,0,-4.04,1.97,0.54,1.87,2.35,5.89
8.550487041473389,2,3,3,0,-4.5,2.12,0.45,1.16,2.58,5.75
8.560487031936646,2,3,3,0,-4.03,2.08,-0.11,0.85,2.05,5
8.570487022399902,2,3,3,0,-3.87,2.05,-0.15,0.99,1.93,4.41
8.580487012863159,2,3,3,0,-4.29,2.16,-0.08,1.52,2,3.75
8.590487003326416,2,3,3,0,-4.99,2.28,-0.29,2.1,1.28,2.68
8.600486993789673,2,3,3,0,-4.09,2.81,-0.04,2.49,0.35,2
8.61048698425293,2,3,3,0,-4.79,3.35,-0.18,1.88,0.37,2.33
8.620486974716187,2,3,3,0,-4.96,3.6,-0.2,1.5,0.5600000000000001,2.28
8.630486965179443,2,3,3,0,-5.71,3.81,-0.06,0.73,0.26,2.01
8.6404869556427,2,3,3,0,-6.78,3.98,0.15,0.04,-0.44,1.19
8.650486946105957,2,3,3,0,-7.44,3.87,0,-0.31,-1.06,0.27
8.660486936569214,2,3,3,0,-7.96,3.59,0.03,-0.29,-1.21,-0.9
8.670486927032471,2,3,3,0,-8.300000000000001,3.53,0.06,-0.36,-1.13,-1.99
8.680486917495728,2,3,3,0,-8.5,3.17,0.49,-0.2,-0.75,-2.76
8.690486907958984,2,3,3,0,-8.640000000000001,3,0.53,-0.36,0,-3.21
8.700486898422241,2,3,3,0,-8.92,2.74,0.58,-0.84,0.52,-3.27
8.710486888885498,2,3,3,0,-9,2.3,0.36,-1.07,0.64,-2.91
8.720486879348755,2,3,3,0,-9.210000000000001,2.08,0.29,-1.25,0.97,-2.39
8.730486869812012,2,3,3,0,-9.43,1.92,0.45,-1.66,1.47,-1.87
8.740487098693848,2,3,3,0,-9.68,1.76,0.52,-2.31,1.71,-1.56
8.750487089157104,2,3,3,0,-10.32,1.26,0.36,-2.69,1.7,-1.67
8.760487079620361,2,3,3,0,-10.7,1.12,0.55,-2.92,1.55,-2.15
8.770487070083618,2,3,3,0,-10.97,0.98,0.6899999999999999,-3.07,1.07,-2.84
8.780487060546875,2,3,3,0,-11.19,0.79,0.74,-3.03,0.64,-3.46
8.790487051010132,2,3,3,0,-11.68,0.5,0.75,-2.91,0.5600000000000001,-3.97
8.800487041473389,2,3,3,0,-11.38,0.8,0.58,-2.73,0.26,-3.94
8.810487031936646,2,3,3,0,-10.94,0.97,0.45,-2.38,0.05,-3.34
8.820487022399902,2,3,3,0,-10.33,1.03,0.34,-2.03,0.06,-2.49
8.830487012863159,2,3,3,0,-9.49,0.9399999999999999,0.35,-1.67,0.17,-1.67
8.840487003326416,2,3,3,0,-9.19,0.96,0.13,-1.4,0.3,-0.97
8.850486993789673,2,3,3,0,-8.970000000000001,0.89,0.06,-0.97,0.44,-0.49
8.86048698425293,2,3,3,0,-8.890000000000001,0.9399999999999999,0.18,-0.5600000000000001,0.5,-0.39
8.870486974716187,2,3,3,0,-9.07,1.07,0.4,-0.25,0.47,-0.55
8.880486965179443,2,3,3,0,-9.220000000000001,1.28,0.39,-0.11,0.15,-0.77
8.8904869556427,2,3,3,0,-9.390000000000001,1.29,0.4,0.18,-0.21,-0.9399999999999999
8.900486946105957,2,3,3,0,-9.470000000000001,1.47,0.58,0.08,-0.66,-1.08
8.910486936569214,2,3,3,0,-9.539999999999999,1.39,0.54,-0.04,-1.22,-1.04
8.920486927032471,2,3,3,0,-9.6,1.34,0.58,0.01,-1.23,-0.8
8.930486917495728,2,3,3,0,-9.5,1.34,0.53,-0.11,-1.22,-0.3
8.940486907958984,2,3,3,0,-9.380000000000001,1.47,0.42,-0.13,-0.98,0.21
8.950486898422241,2,3,3,0,-9.390000000000001,1.45,0.34,0.19,-0.61,0.51
8.960486888885498,2,3,3,0,-9.4,1.32,0.19,0.54,-0.25,0.61
8.970486879348755,2,3,3,0,-9.460000000000001,1.26,0.3,0.68,-0.01,0.6
8.980486869812012,2,3,3,0,-9.67,1.37,0.42,0.85,0.09,0.4
8.990487098693848,2,3,3,0,-9.869999999999999,1.5,0.53,0.86,0.11,0.15
9.000487089157104,2,3,3,0,-9.98,1.67,0.5,0.74,-0.09,-0.1
9.010487079620361,2,3,3,0,-9.949999999999999,1.57,0.42,0.66,-0.3,-0.22
9.020487070083618,2,3,3,0,-9.77,1.43,0.48,0.39,-0.41,-0.12
9.030487060546875,2,3,3,0,-9.66,1.17,0.5,0.12,-0.52,0.04
9.040487051010132,2,3,3,0,-9.69,0.97,0.5600000000000001,0.09,-0.34,0.11
9.050487041473389,2,3,3,0,-9.779999999999999,0.88,0.6,0.05,-0.26,0.11
9.060487031936646,2,3,3,0,-9.76,0.98,0.59,0.27,-0.37,0.21
9.070487022399902,2,3,3,0,-9.67,1.04,0.54,0.67,-0.54,0.25
9.080487012863159,2,3,3,0,-9.619999999999999,1.12,0.58,1.27,-0.45,0.19
9.090487003326416,2,3,3,0,-9.57,1.56,0.6899999999999999,1.83,-0.44,0
9.100486993789673,2,3,3,0,-9.449999999999999,1.49,0.53,2.27,-0.6,-0.21
9.11048698425293,2,3,3,0,-9.609999999999999,1.64,0.43,2.53,-0.65,-0.32
9.120486974716187,2,3,3,0,-9.65,1.7,0.42,2.49,-0.62,-0.41
9.130486965179443,2,3,3,0,-9.619999999999999,2,0.57,2.3,-0.72,-0.41
9.1404869556427,2,3,3,0,-9.630000000000001,1.8,0.58,2.09,-0.58,-0.32
9.150486946105957,2,3,3,0,-9.59,1.86,0.7,1.85,-0.47,-0.22
9.160486936569214,2,3,3,0,-9.550000000000001,1.78,0.42,1.34,-0.42,-0.17
9.170486927032471,2,3,3,0,-9.48,1.66,0.29,1.07,-0.49,-0.16
9.180486917495728,2,3,3,0,-9.26,1.57,0.31,1.07,-0.36,-0.24
9.190486907958984,2,3,3,0,-9.31,1.78,0.22,0.9399999999999999,-0.79,-0.14
9.201487064361572,2,3,3,0,-9.33,1.85,0.3,1.2,-1.48,-0.34
9.211487054824829,2,3,3,0,-9.539999999999999,1.81,0.43,1.56,-2.12,-0.74
9.221487045288086,2,3,3,0,-10.09,1.67,0.53,1,-1.87,-0.49
9.231487035751343,2,3,3,0,-10.45,1.48,0.46,0.32,-0.63,-0.24
9.2414870262146,2,3,3,0,-10.49,1.61,0.49,-0.36,0.87,-0.05
9.251487016677856,2,3,3,0,-10.2,1.69,0.37,-0.92,1.77,0.04
9.261487007141113,2,3,3,0,-9.81,1.7,0.27,-1.18,2.1,0.21
9.27148699760437,2,3,3,0,-9.539999999999999,1.68,0.16,-1.37,2.14,0.53
9.281486988067627,2,3,3,0,-9.380000000000001,1.57,0.09,-1.19,2,0.73
9.291486978530884,2,3,3,0,-9.27,1.39,0.14,-0.8100000000000001,1.37,0.77
9.301486968994141,2,3,3,0,-9.33,1.28,0.19,-0.64,0.87,0.63
9.311486959457397,2,3,3,0,-9.66,1.19,0.24,-0.79,0.5600000000000001,0.37
9.321486949920654,2,3,3,0,-9.789999999999999,1.24,0.28,-0.73,0.31,0.05
9.331486940383911,2,3,3,0,-9.800000000000001,1.33,0.35,-0.71,0.25,-0.05
9.341486930847168,2,3,3,0,-9.84,1.32,0.42,-0.71,0.24,-0.07000000000000001
9.351486921310425,2,3,3,0,-9.81,1.53,0.41,-0.63,0.21,0.04
9.361486911773682,2,3,3,0,-9.68,1.63,0.35,-0.5,0.21,0.2
9.371486902236938,2,3,3,0,-9.59,1.7,0.35,-0.58,0.33,0.41
9.381486892700195,2,3,3,0,-9.59,1.7,0.44,-0.78,0.6,0.62
9.391486883163452,2,3,3,0,-9.52,1.75,0.49,-1.08,0.7,0.71
9.401486873626709,2,3,3,0,-9.529999999999999,1.65,0.52,-1.38,0.8,0.67
9.411486864089966,2,3,3,0,-9.5,1.56,0.49,-1.57,0.83,0.55
9.421487092971802,2,3,3,0,-9.49,1.55,0.51,-1.79,0.83,0.42
9.431487083435059,2,3,3,0,-9.619999999999999,1.35,0.45,-1.96,0.78,0.31
9.441487073898315,2,3,3,0,-9.720000000000001,1.21,0.53,-1.92,0.64,0.23
9.451487064361572,2,3,3,0,-9.83,1.21,0.5600000000000001,-1.76,0.54,0.12
9.461487054824829,2,3,3,0,-9.84,1.29,0.51,-1.75,0.41,0.14
9.471487045288086,2,3,3,0,-9.68,1.48,0.47,-1.61,0.27,0.25
9.481487035751343,2,3,3,0,-9.630000000000001,1.55,0.51,-1.36,0.25,0.4
9.4914870262146,2,3,3,0,-9.630000000000001,1.55,0.51,-1.19,0.26,0.52
9.501487016677856,2,3,3,0,-9.609999999999999,1.57,0.52,-1.06,0.31,0.62
9.511487007141113,2,3,3,0,-9.529999999999999,1.57,0.4,-1.02,0.34,0.67
9.52148699760437,2,3,3,0,-9.52,1.56,0.45,-1.06,0.35,0.62
9.531486988067627,2,3,3,0,-9.550000000000001,1.47,0.53,-1,0.47,0.5
9.541486978530884,2,3,3,0,-9.550000000000001,1.47,0.53,-0.99,0.36,0.32
9.551486968994141,2,3,3,0,-9.68,1.33,0.54,-0.99,0.24,0.17
9.561486959457397,2,3,3,0,-9.699999999999999,1.36,0.47,-0.9,0.08,0.1
9.571486949920654,2,3,3,0,-9.74,1.39,0.48,-0.73,-0.09,0.06
9.581486940383911,2,3,3,0,-9.720000000000001,1.5,0.5,-0.55,-0.18,0.03
9.591486930847168,2,3,3,0,-9.720000000000001,1.5,0.5,-0.55,-0.18,0.03
9.601486921310425,2,3,3,0,-9.710000000000001,1.5,0.49,-0.3,-0.24,0.05
9.611486911773682,2,3,3,0,-9.710000000000001,1.52,0.42,0.04,-0.18,0.12
9.621486902236938,2,3,3,0,-9.699999999999999,1.64,0.5,0.03,-0.14,0.18
9.631486892700195,2,3,3,0,-9.67,1.62,0.5,0.05,-0.13,0.18
9.641486883163452,2,3,3,0,-9.66,1.56,0.46,0.12,-0.11,0.17
9.651486873626709,2,3,3,0,-9.609999999999999,1.51,0.49,0.1,-0.09,0.22
9.661486864089966,2,3,3,0,-9.609999999999999,1.54,0.52,0.03,-0.03,0.2
9.671487092971802,2,3,3,0,-9.609999999999999,1.53,0.54,0.01,-0.01,0.2
9.681487083435059,2,3,3,0,-9.619999999999999,1.52,0.5600000000000001,0.08,-0.07000000000000001,0.22
9.691487073898315,2,3,3,0,-9.619999999999999,1.52,0.5600000000000001,0.08,-0.07000000000000001,0.22
9.701487064361572,2,3,3,0,-9.640000000000001,1.61,0.54,0.16,-0.17,0.27
9.711487054824829,2,3,3,0,-9.640000000000001,1.7,0.52,0.4,-0.21,0.37
9.721487045288086,2,3,3,0,-9.630000000000001,1.77,0.43,0.55,-0.17,0.41
9.731487035751343,2,3,3,0,-9.619999999999999,1.78,0.47,0.53,-0.03,0.35
9.7414870262146,2,3,3,0,-9.66,1.7,0.58,0.53,-0.03,0.35
9.751487016677856,2,3,3,0,-9.67,1.63,0.58,0.44,-0.03,0.28
9.761487007141113,2,3,3,0,-9.65,1.64,0.55,0.39,0.08,0.19
9.77148699760437,2,3,3,0,-9.640000000000001,1.59,0.51,0.35,0.12,0.26
9.781486988067627,2,3,3,0,-9.640000000000001,1.55,0.51,0.31,0.17,0.33
9.791486978530884,2,3,3,0,-9.619999999999999,1.53,0.51,0.31,0.17,0.33
9.801486968994141,2,3,3,0,-9.66,1.52,0.49,0.34,0.15,0.38
9.811486959457397,2,3,3,0,-9.73,1.55,0.49,0.31,0.22,0.45
9.821486949920654,2,3,3,0,-9.74,1.59,0.49,0.35,0.13,0.38
9.831486940383911,2,3,3,0,-9.699999999999999,1.64,0.5,0.44,-0.03,0.33
9.841486930847168,2,3,3,0,-9.66,1.65,0.48,0.44,-0.03,0.33
9.851486921310425,2,3,3,0,-9.59,1.73,0.51,0.6,-0.15,0.27
9.861486911773682,2,3,3,0,-9.550000000000001,1.74,0.47,0.92,-0.24,0.21
9.871486902236938,2,3,3,0,-9.539999999999999,1.74,0.36,0.92,-0.25,0.19
9.881486892700195,2,3,3,0,-9.529999999999999,1.74,0.35,0.91,-0.13,0.15
9.891486883163452,2,3,3,0,-9.609999999999999,1.65,0.41,0.91,-0.13,0.15
9.901486873626709,2,3,3,0,-9.699999999999999,1.64,0.43,0.93,-0.09,0.06
9.911486864089966,2,3,3,0,-9.789999999999999,1.69,0.53,0.48,-0.32,-0.11
9.921487092971802,2,3,3,0,-9.710000000000001,1.75,0.39,0.64,-0.49,-0.05
9.931487083435059,2,3,3,0,-9.84,1.7,0.07000000000000001,0.77,-0.37,0.04
9.941487073898315,2,3,3,0,-9.84,1.66,0.23,0.77,-0.37,0.04
9.951487064361572,2,3,3,0,-9.76,1.76,0.35,0.59,-0.45,0.12
9.961487054824829,2,3,3,0,-9.699999999999999,1.77,0.36,0.46,-0.39,0.18
9.971487045288086,2,3,3,0,-9.5,1.75,0.13,0.42,-0.23,0.26
9.981487035751343,2,3,3,0,-9.44,1.69,0.2,0.44,0.06,0.3
9.9914870262146,2,3,3,0,-9.48,1.65,0.42,0.44,0.06,0.3
10.00148701667786,2,3,3,0,-9.609999999999999,1.63,0.5600000000000001,0.32,0.29,0.32
10.01148700714111,2,3,3,0,-9.69,1.54,0.62,0.08,0.17,0.28
10.02148699760437,2,3,3,0,-9.609999999999999,1.42,0.34,-0.1,-0.02,0.31
10.03148698806763,2,3,3,0,-9.59,1.36,0.14,-0.24,0.14,0.31
10.04148697853088,2,3,3,0,-9.84,1.35,0.45,-0.24,0.14,0.31
10.05148696899414,2,3,3,0,-9.93,1.43,0.46,-0.31,-0.03,0.37
10.0614869594574,2,3,3,0,-9.98,1.47,0.37,-0.1,-0.88,0.66
10.07148694992065,2,3,3,0,-9.98,1.56,0.4,-0.03,-1.32,0.91
10.08148694038391,2,3,3,0,-9.789999999999999,1.56,0.46,0,-1.37,1.01
10.09148693084717,2,3,3,0,-9.699999999999999,1.49,0.37,0,-1.37,1.01
10.10148692131042,2,3,3,0,-9.550000000000001,1.43,0.34,-0.15,-1.34,1.03
10.11148691177368,2,3,3,0,-9.720000000000001,1.3,0.52,-0.02,-1.4,1.19
10.12148690223694,2,3,3,0,-9.779999999999999,1.11,-0.21,0.21,-1.37,1.45
10.1314868927002,2,3,3,0,-9.94,1.2,-0.07000000000000001,0.22,-1.59,1.71
10.14148688316345,2,3,3,0,-9.94,1.34,-0.11,0.22,-1.59,1.71
10.15148687362671,2,3,3,0,-9.84,1.51,-0.75,0.51,-1.95,2.08
10.16148686408997,2,3,3,0,-9.68,1.55,-0.95,1.63,-1.85,2.7
10.1714870929718,2,3,3,0,-9.59,1.67,-0.88,1.81,-1.47,2.76
10.18148708343506,2,3,3,0,-9.609999999999999,1.86,-0.93,1.87,-1.35,2.65
10.19148707389832,2,3,3,0,-9.66,2.05,-0.78,1.87,-1.35,2.65
10.20148706436157,2,3,3,0,-9.58,1.9,-0.87,0.8100000000000001,-1.13,2.33
10.21148705482483,2,3,3,0,-9.449999999999999,1.86,-0.85,0.43,-0.92,2.04
10.22148704528809,2,3,3,0,-9.390000000000001,1.9,-0.86,0.43,-0.92,2.04
10.23248696327209,2,3,3,0,-9.48,1.71,-0.86,-0.27,-0.73,1.79
10.24248695373535,2,3,3,0,-9.539999999999999,1.64,-0.76,-1.37,-0.6899999999999999,1.35
10.25248694419861,2,3,3,0,-9.539999999999999,1.61,-0.6899999999999999,-1.66,-0.59,1.27
10.26248693466187,2,3,3,0,-9.5,1.6,-0.57,-1.66,-0.59,1.27
10.27248692512512,2,3,3,0,-9.359999999999999,1.67,-0.04,-1.65,-0.08,1.1
10.28248691558838,2,3,3,0,-9.390000000000001,1.77,0.11,-1.33,0.28,0.87
10.29248690605164,2,3,3,0,-9.470000000000001,1.83,0.09,-0.74,0.53,0.54
10.30248689651489,2,3,3,0,-9.74,1.8,0.5,-0.22,0.87,0.26
10.31248688697815,2,3,3,0,-9.82,1.86,0.28,-0.08,0.9,0.05
10.32248687744141,2,3,3,0,-9.869999999999999,1.81,0.04,0.37,0.92,-0.1
10.33248686790466,2,3,3,0,-9.93,1.81,0.04,0.73,1.02,-0.14
10.3424870967865,2,3,3,0,-9.69,2.11,0.18,0.98,0.95,-0.03
10.35248708724976,2,3,3,0,-9.51,2.18,0.2,1.19,0.91,0.06
10.36248707771301,2,3,3,0,-9.35,2.3,0.33,1.14,0.9,-0.17
10.37248706817627,2,3,3,0,-9.19,2.45,0.23,1,0.89,-0.64
10.38248705863953,2,3,3,0,-9.15,2.57,0.46,0.84,0.9399999999999999,-1.32
10.39248704910278,2,3,3,0,-9.24,2.57,0.52,0.75,0.93,-2.1
10.40248703956604,2,3,3,0,-9.35,2.57,0.72,0.5600000000000001,0.92,-2.87
10.4124870300293,2,3,3,0,-9.390000000000001,2.58,1.03,0.32,0.89,-3.49
10.42248702049255,2,3,3,0,-9.449999999999999,2.67,1.44,-0.16,0.9,-3.91
10.43248701095581,2,3,3,0,-9.48,2.72,1.63,-0.65,0.61,-4.1
10.44248700141907,2,3,3,0,-9.44,2.73,1.62,-0.68,0.41,-4.08
10.45248699188232,2,3,3,0,-9.56,2.26,1.77,-0.61,0.38,-3.96
10.46248698234558,2,3,3,0,-9.74,2,1.56,-0.51,-0.03,-3.89
10.47248697280884,2,3,3,0,-9.94,1.71,1.32,-0.18,-0.2,-3.78
10.48248696327209,2,3,3,0,-10.15,1.48,1.34,0.23,-0.11,-3.56
10.49248695373535,2,3,3,0,-10.47,1.13,1.58,0.48,-0.03,-3.3
10.50248694419861,2,3,3,0,-10.58,0.89,1.69,0.55,-0.3,-2.86
10.51248693466187,2,3,3,0,-10.77,0.78,1.74,0.5,-0.6,-2.36
10.52248692512512,2,3,3,0,-10.75,0.7,1.71,0.31,-0.99,-1.95
10.53248691558838,2,3,3,0,-10.41,0.61,1.81,0.11,-1.28,-1.67
10.54248690605164,2,3,3,0,-10.43,0.44,1.82,-0.18,-1.6,-1.41
10.55248689651489,2,3,3,0,-10.45,0.24,1.83,-0.21,-2.15,-1.42
10.56248688697815,2,3,3,0,-10.47,0,1.79,-0.05,-2.62,-1.66
10.57248687744141,2,3,3,0,-10.14,-0.2,1.42,0.4,-2.94,-1.77
10.58248686790466,2,3,3,0,-10.05,-0.32,1.35,1.47,-3.2,-1.67
10.5924870967865,2,3,3,0,-10.02,-0.27,1.34,2.73,-3.42,-1.44
10.60248708724976,2,3,3,0,-9.710000000000001,-0.07000000000000001,1.18,3.86,-3.67,-1.33
10.61248707771301,2,3,3,0,-9.41,0.08,0.96,4.7,-3.77,-1.15
10.62248706817627,2,3,3,0,-9.19,0.21,0.83,5.27,-3.48,-0.91
10.63248705863953,2,3,3,0,-9.039999999999999,0.33,1.05,5.38,-3.19,-0.86
10.64248704910278,2,3,3,0,-8.960000000000001,0.6899999999999999,1.21,4.89,-2.9,-1.07
10.65248703956604,2,3,3,0,-8.890000000000001,0.91,1.21,4.54,-2.85,-1.23
10.6624870300293,2,3,3,0,-9.039999999999999,1.05,1.22,4.28,-2.81,-1.2
10.67248702049255,2,3,3,0,-9.06,1.03,1.15,3.95,-2.69,-1.1
10.68248701095581,2,3,3,0,-9.19,1.08,1.21,3.48,-2.35,-0.93
10.69248700141907,2,3,3,0,-9.140000000000001,1.12,1.22,3.18,-2.01,-0.82
10.70248699188232,2,3,3,0,-9.130000000000001,1.1,1.22,2.97,-1.6,-0.64
10.71248698234558,2,3,3,0,-9.1,1.1,1.24,2.73,-1.36,-0.5
10.72248697280884,2,3,3,0,-9.119999999999999,0.85,1.19,2.34,-1.09,-0.4
10.73248696327209,2,3,3,0,-9.279999999999999,0.77,1.25,1.89,-0.83,-0.39
10.74248695373535,2,3,3,0,-9.34,0.7,1.39,1.45,-0.64,-0.57
10.75248694419861,2,3,3,0,-9.23,0.54,1.61,1.13,-0.6899999999999999,-0.67
10.76248693466187,2,3,3,0,-9.32,0.34,1.66,1.01,-0.83,-0.57
10.77248692512512,2,3,3,0,-9.33,0.22,1.33,0.97,-1.05,-0.52
10.78248691558838,2,3,3,0,-9.279999999999999,0.12,1.23,1.02,-0.92,-0.48
10.79248690605164,2,3,3,0,-9.300000000000001,0.01,1.26,1.14,-0.64,-0.31
10.80248689651489,2,3,3,0,-9.27,-0.05,1.24,1.45,-0.4,-0.08
10.81248688697815,2,3,3,0,-9.23,-0.06,1.25,1.69,-0.01,0.17
10.82248687744141,2,3,3,0,-9.199999999999999,-0.14,1.18,1.89,0.33,0.35
10.83248686790466,2,3,3,0,-9.17,-0.2,1.55,1.99,0.57,0.47
10.8424870967865,2,3,3,0,-9.23,-0.13,1.59,1.93,0.61,0.52
10.85248708724976,2,3,3,0,-9.1,-0.13,1.25,1.91,0.39,0.58
10.86248707771301,2,3,3,0,-9.17,-0.18,1.27,2.03,0.5600000000000001,0.65
10.87248706817627,2,3,3,0,-9.26,-0.27,1.26,1.92,0.5600000000000001,0.68
10.88248705863953,2,3,3,0,-9.17,-0.4,1.17,1.89,0.49,0.8
10.89248704910278,2,3,3,0,-9.23,-0.62,1.15,2.36,0.77,0.9399999999999999
10.90248703956604,2,3,3,0,-9.359999999999999,-0.89,1.27,2.87,1.19,0.89
10.9124870300293,2,3,3,0,-9.59,-1.05,1.48,3.22,1.3,0.78
10.92248702049255,2,3,3,0,-9.609999999999999,-0.95,1.42,3.86,0.99,0.6899999999999999
10.93248701095581,2,3,3,0,-9.67,-0.79,1.45,4.83,0.58,0.73
10.94248700141907,2,3,3,0,-9.76,-0.37,1.43,5.66,0.3,0.79
10.95248699188232,2,3,3,0,-9.84,-0.26,1.39,6.15,0.29,0.85
10.96248698234558,2,3,3,0,-9.93,-0.23,1.45,6.23,0.52,0.73
10.97248697280884,2,3,3,0,-10.13,-0.08,1.68,6.07,0.52,0.48
10.98248696327209,2,3,3,0,-10.4,0.41,1.95,5.81,0,0.13
10.99248695373535,2,3,3,0,-10.63,0.51,2.25,5.91,-0.43,-0.01
11.00248694419861,2,3,3,0,-10.8,0.6,2.24,6.14,-0.85,0.02
11.01248693466187,2,3,3,0,-11.21,0.86,2.03,6.73,-1.84,-0.02
11.02248692512512,2,3,3,0,-12.57,2.28,1.32,7.2,-3.21,-0.14
11.03248691558838,2,3,3,0,-13.22,2.85,1.25,6.94,-4.11,-0.11
11.04248690605164,2,3,3,0,-13.47,3.22,1.51,5.46,-4.57,0.19
11.05248689651489,2,3,3,0,-13.17,3.35,2.08,3.48,-5.26,0.38
11.06248688697815,2,3,3,0,-11.33,3.4,1.82,2.48,-5.76,0.46
11.07248687744141,2,3,3,0,-10.92,2.27,1.87,2.38,-5.93,0.32
11.08248686790466,2,3,3,0,-10.4,0.99,2.64,-0.09,-5.48,-0.47
11.0924870967865,2,3,3,0,-9.039999999999999,-0.8,3.66,-2.21,-4.94,-1.19
11.10248708724976,2,3,3,0,-8.52,-1.58,3.78,-2.29,-4.62,-1.37
11.11248707771301,2,3,3,0,-7.98,-1.59,3.57,-1.08,-4.13,-1.6
11.12248706817627,2,3,3,0,-7.68,-1.26,3.37,0.41,-3.42,-1.7
11.13248705863953,2,3,3,0,-8.68,0.51,2.14,0.89,-2.72,-1.32
11.14248704910278,2,3,3,0,-9.460000000000001,1.81,1.87,0.87,-2.12,-0.5600000000000001
11.15248703956604,2,3,3,0,-10.32,2.66,1.55,1.71,-1.56,0.3
11.1624870300293,2,3,3,0,-10.99,3.17,1.12,1.96,-0.83,1.14
11.17248702049255,2,3,3,0,-11.35,3.31,0.63,0.59,0.28,1.68
11.18248701095581,2,3,3,0,-10.89,3.25,0.61,-0.08,1.07,2.3
11.19248700141907,2,3,3,0,-9.74,3.07,0.73,-0.5,1.31,3.02
11.20248699188232,2,3,3,0,-8.65,3.07,0.73,-1.27,1.51,3.47
11.21248698234558,2,3,3,0,-7.55,3.05,0.52,-1.66,1.95,3.46
11.22248697280884,2,3,3,0,-7.81,3.21,0.42,-1.66,2.25,3.21
11.23248696327209,2,3,3,0,-8.07,3.45,0.36,-1.33,2.06,2.88
11.24248695373535,2,3,3,0,-8.82,3.71,0.15,-1.17,1.89,2.46
11.25348687171936,2,3,3,0,-9.02,3.73,0.21,-1.17,1.95,1.87
11.26348686218262,2,3,3,0,-9.039999999999999,3.83,0.14,-1.44,1.87,1.28
11.27348709106445,2,3,3,0,-9.02,3.69,0.06,-1.93,2.05,0.89
11.28348708152771,2,3,3,0,-8.880000000000001,3.36,0.14,-2.66,2.64,0.68
11.29348707199097,2,3,3,0,-8.93,3.12,0.25,-3.48,3.31,0.47
11.30348706245422,2,3,3,0,-8.93,2.94,0.33,-4.26,3.82,0.4
11.31348705291748,2,3,3,0,-8.83,2.95,0.35,-4.83,4.32,0.17
11.32348704338074,2,3,3,0,-9.210000000000001,2.68,0.35,-5.41,4.75,-0.04
11.33348703384399,2,3,3,0,-9.25,2.44,0.39,-5.86,5.17,0.03
11.34348702430725,2,3,3,0,-9.27,2.3,0.34,-6.28,5.41,0.36
11.35348701477051,2,3,3,0,-9.16,2.15,0.19,-6.64,5.65,0.64
11.36348700523376,2,3,3,0,-8.960000000000001,1.85,0.18,-6.87,5.74,0.93
11.37348699569702,2,3,3,0,-8.99,2.01,-0.08,-7.24,5.26,1.32
11.38348698616028,2,3,3,0,-8.99,1.87,-0.03,-7.61,4.65,1.45
11.39348697662354,2,3,3,0,-8.880000000000001,1.41,-0.15,-7.9,4.06,1.36
11.40348696708679,2,3,3,0,-9.09,1.33,-0.04,-7.87,3.62,1.22
11.41348695755005,2,3,3,0,-9.199999999999999,1.29,-0.09,-7.54,3.16,0.76
11.42348694801331,2,3,3,0,-9.210000000000001,1.19,-0.17,-7.03,2.61,0.38
11.43348693847656,2,3,3,0,-9.470000000000001,1.03,0.01,-6.46,2.17,0.27
11.44348692893982,2,3,3,0,-9.640000000000001,1,0.1,-5.9,1.67,0.36
11.45348691940308,2,3,3,0,-9.699999999999999,0.98,0.05,-5.21,1.24,0.47
11.46348690986633,2,3,3,0,-9.68,0.93,0.1,-4.78,1.01,0.6899999999999999
11.47348690032959,2,3,3,0,-9.5,0.7,0.15,-4.55,0.78,1
11.48348689079285,2,3,3,0,-9.390000000000001,0.51,0.21,-4.24,0.34,1.31
11.4934868812561,2,3,3,0,-9.4,0.42,0.18,-3.92,0.17,1.69
11.50348687171936,2,3,3,0,-9.52,0.39,0.33,-3.79,-0.1,2.21
11.51348686218262,2,3,3,0,-9.630000000000001,0.49,0.33,-3.59,-0.5600000000000001,2.7
11.52348709106445,2,3,3,0,-9.630000000000001,0.62,0.18,-3.34,-1.02,3.16
11.53348708152771,2,3,3,0,-9.56,0.77,0.25,-3.04,-1.16,3.56
11.54348707199097,2,3,3,0,-9.43,0.9399999999999999,0.31,-2.82,-1,3.95
11.55348706245422,2,3,3,0,-9.02,1.05,0.46,-2.74,-0.5,4.15
11.56348705291748,2,3,3,0,-8.960000000000001,1.06,0.34,-2.82,0.03,4.24
11.57348704338074,2,3,3,0,-8.960000000000001,1.12,0.29,-3.09,0.27,4.17
11.58348703384399,2,3,3,0,-9.199999999999999,1.51,0.25,-3.55,0.26,4.07
11.59348702430725,2,3,3,0,-9.289999999999999,1.63,0.16,-4,0.24,3.78
11.60348701477051,2,3,3,0,-9.27,1.52,0.08,-4.48,0.16,3.37
11.61348700523376,2,3,3,0,-9.289999999999999,1.48,0.03,-4.95,0.2,2.94
11.62348699569702,2,3,3,0,-9.06,1.13,-0.38,-5.64,0.43,2.43
11.63348698616028,2,3,3,0,-9.029999999999999,0.97,-0.61,-6.32,1,1.96
11.64348697662354,2,3,3,0,-9.09,0.71,-0.71,-6.9,1.73,1.65
11.65348696708679,2,3,3,0,-9.24,0.54,-0.66,-7.51,2.52,1.56
11.66348695755005,2,3,3,0,-9.74,0.12,-0.66,-7.97,3.25,1.56
11.67348694801331,2,3,3,0,-10.13,-0.12,-0.6899999999999999,-8.279999999999999,3.86,1.51
11.68348693847656,2,3,3,0,-10.45,-0.34,-0.43,-8.609999999999999,4.35,1.29
11.69348692893982,2,3,3,0,-10.65,-0.35,0,-8.81,5.08,0.93
11.70348691940308,2,3,3,0,-10.94,-0.37,0.47,-8.779999999999999,5.93,0.59
11.71348690986633,2,3,3,0,-10.92,-0.44,0.21,-7.94,6.47,0.2
11.72348690032959,2,3,3,0,-10.89,-0.64,0,-6.21,7.04,-0.33
11.73348689079285,2,3,3,0,-11.53,0.13,0.46,-4,7.59,-0.9
11.7434868812561,2,3,3,0,-12.26,0.82,0.49,-1.5,7.22,-1.27
11.75348687171936,2,3,3,0,-12.78,1.49,0.16,1.25,5.67,-1.27
11.76348686218262,2,3,3,0,-12.75,2.32,-0.22,3.8,3.89,-0.92
11.77348709106445,2,3,3,0,-12.68,4.51,-0.62,4.86,2.79,-0.45
11.78348708152771,2,3,3,0,-12.39,5.36,-0.52,3.7,2.17,-0.07000000000000001
11.79348707199097,2,3,3,0,-11.75,5.87,-0.35,0.9,2.27,-0.04
11.80348706245422,2,3,3,0,-10.86,5.75,0.02,-2.25,2.91,-0.24
11.81348705291748,2,3,3,0,-9.74,4.82,0.84,-4.42,3.98,-0.78
11.82348704338074,2,3,3,0,-9.52,4.42,1.05,-5.06,4.82,-1.84
11.83348703384399,2,3,3,0,-9.17,4.23,1.25,-3.99,4.94,-3.19
11.84348702430725,2,3,3,0,-8.94,4.3,1.39,-2.46,4.81,-4.3
11.85348701477051,2,3,3,0,-8.710000000000001,4.55,1.45,-1.28,4.5,-4.93
11.86348700523376,2,3,3,0,-8.77,4.62,1.41,-0.73,3.95,-4.94
11.87348699569702,2,3,3,0,-8.99,4.49,1.34,-1.31,3.2,-4.81
11.88348698616028,2,3,3,0,-9.69,3.62,0.71,-2.47,2.07,-4.77
11.89348697662354,2,3,3,0,-9.93,2.98,0.39,-3.28,0.67,-4.65
11.90348696708679,2,3,3,0,-10.12,2.32,0.17,-3.55,-0.42,-4.52
11.91348695755005,2,3,3,0,-10.44,1.94,0.13,-3.48,-1.02,-4.45
11.92348694801331,2,3,3,0,-10.98,0.92,0.6899999999999999,-2.98,-1.51,-4.69
11.93348693847656,2,3,3,0,-11.41,0.75,1.13,-2.55,-2.14,-4.93
11.94348692893982,2,3,3,0,-11.52,0.8,1.34,-1.76,-2.92,-5.4
11.95348691940308,2,3,3,0,-11.52,0.8,1.34,-0.3,-4.02,-5.58
11.96348690986633,2,3,3,0,-10.47,0.67,1.21,1.63,-5,-5.11
11.97348690032959,2,3,3,0,-9.949999999999999,0.58,0.89,3.69,-5.74,-4.37
11.98348689079285,2,3,3,0,-9.289999999999999,0.5600000000000001,0.85,5.69,-6.11,-3.47
11.9934868812561,2,3,3,0,-8.73,0.6899999999999999,0.89,7.26,-6.09,-2.84
12.00348687171936,2,3,3,0,-8.73,0.6899999999999999,0.89,8.27,-5.86,-2.5
12.01348686218262,2,3,3,0,-7.78,1.1,0.82,8.73,-6.22,-2.15
12.02348709106445,2,3,3,0,-7.69,1.19,0.74,8.77,-6.21,-2.04
12.03348708152771,2,3,3,0,-7.69,1.26,0.84,8.57,-5.8,-1.96
12.04348707199097,2,3,3,0,-7.45,1.25,0.95,8.109999999999999,-5.06,-1.78
12.05348706245422,2,3,3,0,-7.45,1.25,0.95,7.37,-4.25,-1.27
12.06348705291748,2,3,3,0,-7.97,1.31,0.92,6.56,-3.37,-0.89
12.07348704338074,2,3,3,0,-8.279999999999999,0.85,1.12,5.76,-2.67,-0.67
12.08348703384399,2,3,3,0,-8.4,0.68,1.26,5.2,-2.21,-0.45
12.09348702430725,2,3,3,0,-8.300000000000001,0.66,1.34,4.77,-2.17,-0.25
12.10348701477051,2,3,3,0,-8.300000000000001,0.66,1.34,4.72,-2.37,0.2
12.11348700523376,2,3,3,0,-7.52,0.57,0.52,5.1,-2.46,0.97
12.12348699569702,2,3,3,0,-7.72,0.31,0.88,5.69,-1.61,1.96
12.13348698616028,2,3,3,0,-8.06,0.21,1.31,5.54,-0.09,2.43
12.14348697662354,2,3,3,0,-8.029999999999999,0.35,1.08,4.8,0.37,2.56
12.15348696708679,2,3,3,0,-8.029999999999999,0.35,1.08,4.8,0.37,2.56
12.16348695755005,2,3,3,0,-8.23,0.1,1.12,4.49,0.74,3.14
12.17348694801331,2,3,3,0,-8.44,-0.32,1.24,4.48,0.79,3.25
12.18348693847656,2,3,3,0,-8.119999999999999,-0.61,0.7,4.16,0.5,3.23
12.19348692893982,2,3,3,0,-8.26,-0.98,0.5600000000000001,4.4,0.86,3.07
12.20348691940308,2,3,3,0,-8.26,-0.98,0.5600000000000001,4.4,0.86,3.07
12.21348690986633,2,3,3,0,-8.609999999999999,-1.25,0.66,4.73,2.81,1.4
12.22348690032959,2,3,3,0,-9.609999999999999,-0.41,1.49,5.01,2.14,0.26
12.23348689079285,2,3,3,0,-10.04,0.31,1.79,6.07,1.06,-0.64
12.2434868812561,2,3,3,0,-10.48,0.93,1.62,7.75,0.06,-1.18
12.25348687171936,2,3,3,0,-10.48,0.93,1.62,9.890000000000001,-0.53,-1.29
12.26348686218262,2,3,3,0,-11.05,1.19,1.44,11.43,-0.97,-1.01
12.35448694229126,2,3,3,0,-12.95,1.04,2.74,1.83,-7.09,-1.39
12.36448693275452,2,3,3,0,-12.46,1.66,2.23,0.32,-9.42,-2.11
12.37448692321777,2,3,3,0,-11.93,2.33,0.47,4.28,-12,-1.95
12.38448691368103,2,3,3,0,-11.66,2.05,2.31,4.7,-9.93,-0.41
12.39448690414429,2,3,3,0,-11.47,1.41,3.5,2.21,-8.859999999999999,0.42
12.40448689460754,2,3,3,0,-10.74,1.52,3.27,2.21,-8.859999999999999,0.42
12.4144868850708,2,3,3,0,-9.35,1.31,3.05,0.55,-7.88,-0.17
12.42448687553406,2,3,3,0,-8.07,1.74,2.48,-3.15,-4.43,-0.74
12.43448686599731,2,3,3,0,-8.130000000000001,2.9,1.62,-3.89,-3.88,-0.74
12.44448709487915,2,3,3,0,-8.59,3.89,1.06,-3.98,-3.17,-0.77
12.45448708534241,2,3,3,0,-8.18,4.26,0.62,-3.98,-3.17,-0.77
12.46448707580566,2,3,3,0,-8.94,4.48,-0.24,-5.16,-1.82,-0.15
12.47448706626892,2,3,3,0,-10.13,4.23,-0.55,-5.96,-0.08,1.48
12.48448705673218,2,3,3,0,-10.95,3.58,-0.85,-4.94,-0.09,2
12.49448704719543,2,3,3,0,-10.02,2.76,-0.38,-4.15,0.17,2.52
12.50448703765869,2,3,3,0,-7.5,2.36,0.34,-4.15,0.17,2.52
12.51448702812195,2,3,3,0,-7.16,2.49,0.54,-3.18,0.77,3.24
12.52448701858521,2,3,3,0,-7.31,2.74,0.88,-0.87,1.51,2.8
12.53448700904846,2,3,3,0,-8.02,3.31,0.68,-0.22,1.86,2.02
12.54448699951172,2,3,3,0,-8.220000000000001,3.3,0.68,0.14,2.27,1.31
12.55448698997498,2,3,3,0,-8.48,3.09,0.47,0.14,2.27,1.31
12.56448698043823,2,3,3,0,-8.66,3.1,0.44,0.23,2.92,0.72
12.57448697090149,2,3,3,0,-8.52,3.16,0.39,-0.76,4.35,0.15
12.58448696136475,2,3,3,0,-8.65,3.17,0.12,-2.06,4.99,0.16
12.594486951828,2,3,3,0,-8.890000000000001,3.08,-0.05,-3.44,5.36,0.45
12.60448694229126,2,3,3,0,-8.77,2.97,-0.08,-3.44,5.36,0.45
12.61448693275452,2,3,3,0,-8.57,2.7,0,-4.88,5.69,0.75
12.62448692321777,2,3,3,0,-8.380000000000001,2.45,0.01,-7.21,5.78,1.64
12.63448691368103,2,3,3,0,-8.529999999999999,2.23,-0.11,-7.79,5.35,1.87
12.64448690414429,2,3,3,0,-8.26,1.8,-0.08,-7.86,4.87,1.94
12.65448689460754,2,3,3,0,-8.59,1.15,-0.22,-7.86,4.87,1.94
12.6644868850708,2,3,3,0,-8.82,1.05,-0.18,-7.99,4.37,1.97
12.67448687553406,2,3,3,0,-8.890000000000001,0.95,-0.01,-7.22,3.17,1.63
12.68448686599731,2,3,3,0,-9.050000000000001,0.75,0,-6.89,2.47,1.4
12.69448709487915,2,3,3,0,-9.24,0.59,0.2,-6.26,1.78,1.35
12.70448708534241,2,3,3,0,-9.359999999999999,0.54,0.36,-6.26,1.78,1.35
12.71448707580566,2,3,3,0,-9.32,0.57,0.43,-5.57,1.14,1.52
12.72448706626892,2,3,3,0,-9.27,0.63,0.23,-4.1,0.61,2.55
12.73448705673218,2,3,3,0,-9.369999999999999,0.49,0.12,-3.63,0.39,3.14
12.74448704719543,2,3,3,0,-9.470000000000001,0.5600000000000001,0.32,-3.46,0.17,3.77
12.75448703765869,2,3,3,0,-9.56,0.41,0.37,-3.46,0.17,3.77
12.76448702812195,2,3,3,0,-9.65,0.28,0.51,-3.33,0,4.32
12.77448701858521,2,3,3,0,-9.59,0.29,0.5,-3.09,-0.33,4.75
12.78448700904846,2,3,3,0,-9.5,0.39,0.34,-2.99,-0.47,4.48
12.79448699951172,2,3,3,0,-9.460000000000001,0.57,0.24,-2.83,-0.61,3.96
12.80448698997498,2,3,3,0,-9.4,1.15,0.42,-2.83,-0.61,3.96
12.81448698043823,2,3,3,0,-9.390000000000001,1.32,0.36,-2.92,-0.87,3.26
12.82448697090149,2,3,3,0,-9.27,1.33,0.33,-4.42,-0.64,2.14
12.83448696136475,2,3,3,0,-9.220000000000001,1.32,-0.2,-4.42,-0.64,2.14
12.844486951828,2,3,3,0,-9.26,1.21,-0.4,-5.74,-0.2,1.95
12.85448694229126,2,3,3,0,-9.289999999999999,0.83,-0.43,-7.37,0.44,2.13
12.86448693275452,2,3,3,0,-9.15,0.31,-0.15,-8.720000000000001,1.2,2.54
12.87448692321777,2,3,3,0,-8.84,-1,0.37,-8.98,1.72,2.94
12.88448691368103,2,3,3,0,-9.109999999999999,-1.38,0.31,-7.5,1.88,2.89
12.89448690414429,2,3,3,0,-9.31,-1.39,0.18,-5.35,1.99,2.53
12.90448689460754,2,3,3,0,-9.619999999999999,-0.97,0.22,-3.66,2.81,2.19
12.9144868850708,2,3,3,0,-10.53,0.19,0.45,-2.93,4.21,2.18
12.92448687553406,2,3,3,0,-11.02,0.48,0.55,-3.09,5.66,2.37
12.93448686599731,2,3,3,0,-10.97,0.37,0.49,-3.85,7.12,2.46
12.94448709487915,2,3,3,0,-10.84,0.01,0.33,-3.93,8.210000000000001,2.06
12.95448708534241,2,3,3,0,-11.05,0.16,0.22,-2.87,9.35,1.46
12.96448707580566,2,3,3,0,-11.7,0.51,0.62,-1.35,10.48,0.62
12.98448705673218,2,3,3,0,-13.26,2.41,0.76,4.43,8.800000000000001,-1.13
12.99448704719543,2,3,3,0,-13.96,5.12,-1.18,8.19,6.41,-1.78
13.00448703765869,2,3,3,0,-14.03,6.61,-1.41,10.44,4.81,-2
13.01448702812195,2,3,3,0,-13.64,7.99,-0.97,4.53,4.45,-1.72
13.02448701858521,2,3,3,0,-11.01,8.869999999999999,0.36,4.53,4.45,-1.72
13.03448700904846,2,3,3,0,-9.58,8.25,0.88,-1.55,5.16,-1.61
13.04448699951172,2,3,3,0,-8.44,7.16,1.37,-6.45,5.67,-1.47
13.05448698997498,2,3,3,0,-7.96,5.88,1.59,-8.6,5.73,-1.71
13.06448698043823,2,3,3,0,-8.25,3.86,1.77,-6,4.57,-4.43
13.07448697090149,2,3,3,0,-9.050000000000001,3.3,1.6,-6,4.57,-4.43
13.08448696136475,2,3,3,0,-10.14,3.03,1.24,-3.49,3.45,-6.19
13.094486951828,2,3,3,0,-11.06,2.74,0.67,-0.65,0.52,-7.67
13.10448694229126,2,3,3,0,-12.02,2.26,0.31,-0.11,-0.92,-6.8
13.11448693275452,2,3,3,0,-11.95,1.7,0.13,0.23,-1.73,-5.46
13.12448692321777,2,3,3,0,-12.01,1.17,0.22,0.35,-1.93,-4.38
13.13448691368103,2,3,3,0,-11.87,0.93,0.35,0.62,-2.57,-3.88
13.14448690414429,2,3,3,0,-10.71,0.47,0.6,1.85,-3.41,-3.57
13.15448689460754,2,3,3,0,-9.970000000000001,0.46,0.78,3.93,-4.44,-3.36
13.1644868850708,2,3,3,0,-9.199999999999999,0.67,0.89,6.13,-5.46,-3.42
13.17448687553406,2,3,3,0,-8.27,0.92,0.71,8.02,-6.23,-3.48
13.18448686599731,2,3,3,0,-7.98,1.13,0.49,9.44,-7.01,-3.4
13.19448709487915,2,3,3,0,-7.39,1.31,0.4,10.41,-7.15,-3.77
13.20448708534241,2,3,3,0,-7.16,1.47,0.48,10.67,-6.85,-3.7
13.21448707580566,2,3,3,0,-7.18,1.68,0.65,10.4,-6.54,-3.2
13.22448706626892,2,3,3,0,-7.42,1.79,0.68,9.779999999999999,-6.24,-2.78
13.23448705673218,2,3,3,0,-7.3,1.75,0.6,9.17,-5.84,-2.53
13.24448704719543,2,3,3,0,-7.21,1.61,0.68,8.41,-5.4,-2.1
13.25448703765869,2,3,3,0,-7.4,1.28,0.98,7.79,-4.78,-1.94
13.26448702812195,2,3,3,0,-7.6,1.17,1.2,7.18,-4.16,-1.65
13.27448701858521,2,3,3,0,-7.28,1.14,0.79,7.16,-3.65,-1.15
13.28448700904846,2,3,3,0,-7.22,0.79,0.5,7.04,-1.93,-0.54
13.29448699951172,2,3,3,0,-7.81,0.48,1.28,6.15,-0.62,-0.41
13.30548691749573,2,3,3,0,-7.7,0.68,1.26,5.6,-0.18,-0.08
13.31548690795898,2,3,3,0,-7.56,0.55,1.23,5.63,0.5600000000000001,0.49
13.32548689842224,2,3,3,0,-7.83,0.23,1.14,5.22,1.48,1.03
13.3354868888855,2,3,3,0,-8.130000000000001,0.03,1.31,4.31,1.82,1.42
13.34548687934875,2,3,3,0,-8.19,0.04,1.6,3.01,1.41,1.65
13.35548686981201,2,3,3,0,-8.01,0,1.5,2.46,0.91,1.84
13.36548709869385,2,3,3,0,-7.88,-0.61,0.98,2.91,1.41,1.94
13.3754870891571,2,3,3,0,-8.34,-0.8,1.3,2.95,2.28,1.46
13.38548707962036,2,3,3,0,-9.029999999999999,-0.85,1.54,2.5,1.89,0.31
13.39548707008362,2,3,3,0,-9.390000000000001,-0.78,1.39,2.84,0.62,-1.02
13.40548706054688,2,3,3,0,-10.32,-0.64,0.89,3.96,-0.24,-2.06
13.41548705101013,2,3,3,0,-10.82,0.05,1.3,5.37,-0.97,-2.47
13.42548704147339,2,3,3,0,-11.27,0.59,1.22,7.43,-1.36,-2.11
13.43548703193665,2,3,3,0,-12.26,0.64,1.09,9.18,-0.96,-1.57
13.4454870223999,2,3,3,0,-12.75,0.41,1.53,10.11,-1.48,-0.88
13.45548701286316,2,3,3,0,-12.39,0.29,1.83,11.16,-2.05,-0.12
13.46548700332642,2,3,3,0,-12.2,0.32,1.82,11.66,-2.45,0.32
13.47548699378967,2,3,3,0,-13.27,0.77,2.6,11.18,-2.32,0.59
13.48548698425293,2,3,3,0,-14.52,1.86,1.95,9.18,-3.85,0.06
13.49548697471619,2,3,3,0,-15.19,2.43,1.44,6.91,-6.22,-1.25
13.50548696517944,2,3,3,0,-14.83,2.68,1.82,4.23,-8.33,-1.97
13.5154869556427,2,3,3,0,-12.75,2.89,1.59,2.11,-10.76,-1.97
13.52548694610596,2,3,3,0,-11.14,3.58,-0.14,2.5,-11.83,-1.7
13.53548693656921,2,3,3,0,-10.59,2.72,-0.11,3.92,-9.83,-0.86
13.54548692703247,2,3,3,0,-10.96,1.45,2.55,0.42,-7.51,-0.6
13.55548691749573,2,3,3,0,-10.02,1.64,3.07,-2.39,-7.66,-1.37
13.56548690795898,2,3,3,0,-9.06,0.82,3.07,-2.24,-6.9,-1.39
13.57548689842224,2,3,3,0,-8.16,0.47,2.89,-3.56,-5.09,-0.78
13.5854868888855,2,3,3,0,-8.02,1.37,1.92,-3.2,-3.63,0.06
13.59548687934875,2,3,3,0,-8.84,4.13,0.14,-2.64,-2.83,1.17
13.60548686981201,2,3,3,0,-8.960000000000001,5.24,-0.64,-2.27,-1.71,2.09
13.61548709869385,2,3,3,0,-9.050000000000001,5.55,-1.04,-2.59,-0.59,2.81
13.6254870891571,2,3,3,0,-9.609999999999999,5.76,-1.12,-2.93,0.04,3.49
13.64548707008362,2,3,3,0,-9.16,4.23,-0.05,-3.34,0.32,4.51
13.65548706054688,2,3,3,0,-8.029999999999999,3.86,0.55,-4.07,0.63,4.99
13.66548705101013,2,3,3,0,-7.06,3.32,1,-4.35,1.18,5.13
13.67548704147339,2,3,3,0,-7.35,3.37,0.98,-4.19,2.3,4.78
13.68548703193665,2,3,3,0,-7.5,3.48,0.79,-3.98,3.32,4.05
13.6954870223999,2,3,3,0,-7.85,3.47,0.71,-3.99,4.36,3.09
13.70548701286316,2,3,3,0,-8.140000000000001,3.3,0.38,-4.21,5.3,2.29
13.71548700332642,2,3,3,0,-8.470000000000001,3.51,0.02,-4.85,6.19,1.55
13.72548699378967,2,3,3,0,-8.59,3.52,-0.12,-5.96,6.97,1
13.73548698425293,2,3,3,0,-9.050000000000001,3.49,-0.31,-7.38,7.45,0.67
13.74548697471619,2,3,3,0,-9.289999999999999,3.22,-0.33,-9.07,7.47,0.6899999999999999
13.75548696517944,2,3,3,0,-9.19,2.99,-0.21,-10.8,7.15,0.77
13.7654869556427,2,3,3,0,-8.869999999999999,2.5,-0.27,-11.97,6.47,0.98
13.77548694610596,2,3,3,0,-8.65,2.15,-0.31,-12.61,5.88,1.42
13.78548693656921,2,3,3,0,-8.529999999999999,1.18,-0.48,-12.48,5.3,1.45
13.79548692703247,2,3,3,0,-8.51,0.97,-0.32,-12.03,4.38,1.41
13.80548691749573,2,3,3,0,-8.35,0.68,-0.34,-11.18,3.28,1.48
13.81548690795898,2,3,3,0,-8.5,0.51,-0.03,-10.22,2.62,1.52
13.82548689842224,2,3,3,0,-8.710000000000001,0.55,-0.02,-9.06,2.1,1.55
13.8354868888855,2,3,3,0,-8.82,0.6,-0.1,-7.95,1.64,1.56
13.84548687934875,2,3,3,0,-8.949999999999999,0.86,0.04,-7.41,1.45,1.7
13.85548686981201,2,3,3,0,-9.08,0.91,0.08,-6.84,1.38,2.11
13.86548709869385,2,3,3,0,-9.130000000000001,0.85,0.23,-6.28,1.05,2.7
13.8754870891571,2,3,3,0,-9.24,0.9,0.35,-6.12,0.59,3.51
13.88548707962036,2,3,3,0,-9.369999999999999,0.8,0.07000000000000001,-6.01,0.17,4.34
13.89548707008362,2,3,3,0,-9.449999999999999,0.34,-0.14,-5.89,-0.3,5
13.90548706054688,2,3,3,0,-9.390000000000001,0.07000000000000001,-0.16,-5.67,-0.55,5.49
13.91548705101013,2,3,3,0,-9.300000000000001,0,-0.09,-5.42,-0.7,5.67
13.92548704147339,2,3,3,0,-9.050000000000001,-0.09,-0.16,-4.86,-0.84,5.58
13.93548703193665,2,3,3,0,-9.01,0.04,-0.15,-4.4,-0.66,5.2
13.9454870223999,2,3,3,0,-9.210000000000001,0.29,0.1,-3.97,-0.75,4.59
13.95548701286316,2,3,3,0,-9.49,0.76,0.24,-3.58,-1.27,3.78
13.96548700332642,2,3,3,0,-9.74,1.52,0.44,-3.27,-1.65,3.04
13.97548699378967,2,3,3,0,-9.5,1.65,0.18,-3.46,-1.66,2.47
13.98548698425293,2,3,3,0,-9.33,1.54,-0.07000000000000001,-3.99,-1.47,2.24
13.99548697471619,2,3,3,0,-9.199999999999999,1.31,-0.08,-5.31,-0.75,2.22
14.00548696517944,2,3,3,0,-9.25,0.14,-0.51,-6.57,0.15,2.38
14.0154869556427,2,3,3,0,-9.23,-0.57,-0.48,-7.02,0.96,2.62
14.02548694610596,2,3,3,0,-9.33,-1.17,-0.3,-6.73,1.4,2.68
14.03548693656921,2,3,3,0,-9.44,-1.42,-0.11,-5.78,1.49,2.42
14.04548692703247,2,3,3,0,-9.890000000000001,-1.15,0.36,-5.17,2.05,2.02
14.05548691749573,2,3,3,0,-10.35,-0.76,0.29,-4.81,3.19,1.65
14.06548690795898,2,3,3,0,-10.89,-0.35,0.43,-5.17,4.76,1.48
14.07548689842224,2,3,3,0,-11.2,0,0.86,-5.95,6.4,1.33
14.0854868888855,2,3,3,0,-11.08,0.12,1.05,-5.24,7.49,0.78
14.09548687934875,2,3,3,0,-11.09,0.46,0.89,-2.85,7.98,0.07000000000000001
14.10548686981201,2,3,3,0,-11.6,0.67,0.62,-0.16,8.369999999999999,-0.8
14.11548709869385,2,3,3,0,-13.13,2.46,0.6899999999999999,2.54,8.34,-1.89
14.1254870891571,2,3,3,0,-13.37,3.96,0.39,5.47,7.48,-2.72
14.13548707962036,2,3,3,0,-13.28,5.32,-0.25,7.66,6.08,-2.85
14.14548707008362,2,3,3,0,-12.95,6.59,-0.67,7.51,5.48,-2.91
14.15548706054688,2,3,3,0,-11.35,8.390000000000001,-0.2,4.99,6,-3.15
14.16548705101013,2,3,3,0,-10.26,8.74,0.6,0.67,6.9,-3.45
14.17548704147339,2,3,3,0,-9.32,8.279999999999999,1.16,-3.96,7.2,-3.63
14.18548703193665,2,3,3,0,-8.779999999999999,7.12,1.38,-6.78,6.63,-3.94
14.1954870223999,2,3,3,0,-8.880000000000001,4.72,1.29,-7.02,5.95,-4.75
14.20548701286316,2,3,3,0,-9.630000000000001,3.81,1.2,-5.55,5.29,-5.93
14.21548700332642,2,3,3,0,-10.52,3.05,1.05,-3.51,4.4,-7.12
14.22548699378967,2,3,3,0,-11.31,2.69,0.75,-1.65,3.23,-7.66
14.23548698425293,2,3,3,0,-12.36,2.02,0.31,-0.19,1.93,-7.4
14.24548697471619,2,3,3,0,-12.52,1.65,0.35,0.98,0.77,-6.49
14.25548696517944,2,3,3,0,-12.7,1.38,0.52,1.79,-0.32,-5.36
14.2654869556427,2,3,3,0,-11.89,0.95,0.83,2.2,-1.79,-4.57
14.27548694610596,2,3,3,0,-10.92,0.66,0.6899999999999999,3.18,-3.64,-3.66
14.28548693656921,2,3,3,0,-10.12,0.44,0.39,5.05,-4.95,-2.66
14.29548692703247,2,3,3,0,-9.32,0.21,0.23,7.48,-6.59,-2.19
14.30548691749573,2,3,3,0,-8.08,0.18,0.33,9.880000000000001,-8.02,-2.36
14.31548690795898,2,3,3,0,-7.92,0.5,0.36,11.92,-8.550000000000001,-2.47
14.32648706436157,2,3,3,0,-7.06,0.68,0.26,13.28,-9.32,-2.58
14.33648705482483,2,3,3,0,-6.78,1.02,0.23,13.88,-8.92,-2.73
14.34648704528809,2,3,3,0,-6.64,1.63,0.28,13.84,-8.390000000000001,-2.67
14.35648703575134,2,3,3,0,-6.59,1.78,0.31,13.41,-7.57,-2.51
14.3664870262146,2,3,3,0,-6.51,1.73,0.47,12.45,-6.58,-2.16
14.37648701667786,2,3,3,0,-6.84,1.75,0.62,11.17,-5.45,-1.83
14.38648700714111,2,3,3,0,-7.26,1.58,0.82,10.11,-4.3,-1.85
14.39648699760437,2,3,3,0,-7.34,1.5,1.09,9.449999999999999,-3.25,-2.02
14.40648698806763,2,3,3,0,-7.5,1.41,0.98,8.859999999999999,-2.24,-2.03
14.41648697853088,2,3,3,0,-7.84,0.98,1.26,8.4,-1.17,-1.72
14.42648696899414,2,3,3,0,-7.93,0.9,1.42,7.88,-0.14,-1.21
14.4364869594574,2,3,3,0,-7.96,0.9399999999999999,1.31,7.35,0.55,-0.42
14.44648694992065,2,3,3,0,-8.130000000000001,0.76,1.27,7,0.97,0.43
14.45648694038391,2,3,3,0,-8.640000000000001,0.68,1.57,6.29,1.61,0.99
14.48648691177368,2,3,3,0,-7.96,0.24,0.91,3.48,2.11,2.46
14.49648690223694,2,3,3,0,-8.220000000000001,-0.38,1.07,3.14,3.09,2.6
14.5064868927002,2,3,3,0,-8.4,-0.6899999999999999,1.1,2.7,3.5,2.34
14.51648688316345,2,3,3,0,-8.720000000000001,-0.78,1.08,2.68,3.63,1.63
14.52648687362671,2,3,3,0,-9.449999999999999,-0.82,1.37,2.93,3.13,0.44
14.53648686408997,2,3,3,0,-10.55,-0.32,0.74,3.52,1.13,-0.85
14.5464870929718,2,3,3,0,-10.8,0.13,0.59,5.1,-1.59,-1.53
14.55648708343506,2,3,3,0,-10.97,0.68,0.52,6.94,-2.58,-1.48
14.56648707389832,2,3,3,0,-10.97,0.68,0.52,8.220000000000001,-1.71,-0.86
14.57648706436157,2,3,3,0,-11.96,1.03,0.82,8.880000000000001,-1.05,0
14.58648705482483,2,3,3,0,-11.64,0.68,1.25,9.6,-1.35,0.86
14.59648704528809,2,3,3,0,-11.22,0.26,1.69,10.1,-1.52,1.46
14.60648703575134,2,3,3,0,-11.88,0.44,2.03,10.03,-1.76,1.56
14.6164870262146,2,3,3,0,-11.88,0.44,2.03,9.84,-3.23,1.19
14.62648701667786,2,3,3,0,-13.72,1.7,1.99,9.16,-5.01,0.73
14.63648700714111,2,3,3,0,-14.48,2.31,1.69,7.63,-6.57,-0.26
14.64648699760437,2,3,3,0,-14.33,3.47,1.64,5.25,-8.130000000000001,-1.2
14.65648698806763,2,3,3,0,-13.85,3.61,1.79,3.18,-10.45,-1.43
14.66648697853088,2,3,3,0,-13.85,3.61,1.79,1.93,-13.17,-1.61
14.67648696899414,2,3,3,0,-12.57,3.97,0.44,2.3,-13,-1.59
14.6864869594574,2,3,3,0,-10.86,1.93,2.62,-1.22,-10.65,-1.59
14.69648694992065,2,3,3,0,-10.31,2.18,2.39,-5.51,-9.460000000000001,-1.66
14.70648694038391,2,3,3,0,-9.34,1.29,2.64,-5.71,-8.26,-1.66
14.71648693084717,2,3,3,0,-9.34,1.29,2.64,-5.61,-6.27,-1.52
14.72648692131042,2,3,3,0,-7.1,0.83,1.84,-5.41,-4.39,-1.16
14.73648691177368,2,3,3,0,-7.81,2.06,0.8,-3.78,-3.19,-0.46
14.74648690223694,2,3,3,0,-8.74,3.55,0.34,-2.55,-2.27,0.21
14.7564868927002,2,3,3,0,-9.34,5.05,-0.77,-1.34,-1.9,0.85
14.76648688316345,2,3,3,0,-9.34,5.05,-0.77,-1.34,-1.9,0.85
14.77648687362671,2,3,3,0,-10.12,5.43,-1.2,-1.29,-1.44,1.5
14.78648686408997,2,3,3,0,-10.52,4.79,-0.95,-1.78,-0.35,3.17
14.7964870929718,2,3,3,0,-8.279999999999999,3.96,-0.01,-2.18,-0.17,3.71
14.80648708343506,2,3,3,0,-7.62,3.69,0.58,-2.53,0.31,4.36
14.81648707389832,2,3,3,0,-7.62,3.69,0.58,-2.53,0.31,4.36
14.82648706436157,2,3,3,0,-7.47,3.38,0.89,-2.87,1.94,4.41
14.83648705482483,2,3,3,0,-7.22,3.35,0.79,-2.9,3.07,4.04
14.84648704528809,2,3,3,0,-7.44,3.23,0.79,-3.08,4.09,3.3
14.85648703575134,2,3,3,0,-7.91,3.13,0.49,-3.48,5.03,2.46
14.8664870262146,2,3,3,0,-7.91,3.13,0.49,-3.48,5.03,2.46
14.87648701667786,2,3,3,0,-8.300000000000001,3.22,0.3,-4.2,5.75,1.76
14.88648700714111,2,3,3,0,-9.27,2.94,-0.28,-6.98,6.66,0.68
14.89648699760437,2,3,3,0,-8.869999999999999,2.82,-0.31,-8.83,6.84,0.84
14.90648698806763,2,3,3,0,-8.529999999999999,2.55,-0.25,-10.63,6.61,1.72
14.91648697853088,2,3,3,0,-8.529999999999999,2.55,-0.25,-10.63,6.61,1.72
14.92648696899414,2,3,3,0,-8.4,2.18,-0.31,-11.81,6.35,2.38
14.9364869594574,2,3,3,0,-8.289999999999999,1.72,-0.32,-12.52,5.17,2.98
14.94648694992065,2,3,3,0,-8.109999999999999,1.34,-0.37,-11.82,4.48,2.93
14.95648694038391,2,3,3,0,-8.31,0.93,-0.28,-10.75,3.65,2.63
14.96648693084717,2,3,3,0,-8.4,0.87,-0.21,-10.75,3.65,2.63
14.97648692131042,2,3,3,0,-8.539999999999999,0.74,-0.09,-9.67,2.9,2.3
14.98648691177368,2,3,3,0,-8.9,0.7,-0.09,-7.85,1.57,1.94
14.99648690223694,2,3,3,0,-9.210000000000001,0.83,-0.28,-7.24,1.35,2.07
15.0064868927002,2,3,3,0,-9.390000000000001,0.68,-0.22,-6.84,1.31,2.3
15.01648688316345,2,3,3,0,-9.470000000000001,0.51,0,-6.84,1.31,2.3
15.02648687362671,2,3,3,0,-9.51,0.35,0.21,-6.49,1.3,2.78
15.03648686408997,2,3,3,0,-9.85,0.08,0.22,-5.84,0.65,4.43
15.0464870929718,2,3,3,0,-9.890000000000001,0,0.05,-5.47,0.45,5.17
15.05648708343506,2,3,3,0,-9.76,-0.09,-0.04,-5.01,0.47,5.69
15.06648707389832,2,3,3,0,-9.5,-0.05,-0.03,-5.01,0.47,5.69
15.07648706436157,2,3,3,0,-9.4,0.08,0,-4.56,0.55,5.64
15.08648705482483,2,3,3,0,-9.35,0.22,0.02,-3.8,0.63,4.61
15.09648704528809,2,3,3,0,-9.44,0.53,0.04,-3.87,0.29,3.96
15.10648703575134,2,3,3,0,-9.75,1.2,0.08,-4.17,-0.07000000000000001,3.47
15.1164870262146,2,3,3,0,-9.83,1.48,0.12,-4.17,-0.07000000000000001,3.47
15.12648701667786,2,3,3,0,-9.59,1.59,0.25,-4.88,-0.26,2.97
15.13648700714111,2,3,3,0,-9.27,1.53,0.23,-6.9,0.02,2.75
15.14648699760437,2,3,3,0,-9.09,0.82,-0.02,-8.029999999999999,0.88,2.78
15.15648698806763,2,3,3,0,-9.18,-0.01,-0.04,-8.42,1.66,2.82
15.16648697853088,2,3,3,0,-9.32,-1.11,-0.21,-8.42,1.66,2.82
15.17648696899414,2,3,3,0,-9.41,-1.9,-0.24,-7.42,1.97,2.8
15.1864869594574,2,3,3,0,-9.69,-2.12,-0.09,-3.98,2.71,2.1
15.19648694992065,2,3,3,0,-10.05,-1.73,-0.02,-2.87,3.52,1.64
15.20648694038391,2,3,3,0,-10.46,-1.12,0.2,-2.79,4.75,1.32
15.21648693084717,2,3,3,0,-10.93,-0.44,0.38,-2.79,4.75,1.32
15.22648692131042,2,3,3,0,-11.28,0.33,0.93,-3.27,6.22,1
15.23648691177368,2,3,3,0,-11.28,0.44,0.8,-0.88,7.8,-0.22
15.24648690223694,2,3,3,0,-11.46,0.91,0.35,1.04,8.550000000000001,-0.87
15.2564868927002,2,3,3,0,-12.84,1.97,0.39,2.9,8.52,-1.6
15.26648688316345,2,3,3,0,-13.26,2.89,0.5600000000000001,2.9,8.52,-1.6
15.27648687362671,2,3,3,0,-13.35,4.02,0.47,5.29,7.34,-2.24
15.28648686408997,2,3,3,0,-13.22,5.25,-0.01,8.699999999999999,4.53,-2.77
15.2964870929718,2,3,3,0,-12.48,7.57,-1.17,7.39,4.76,-3.29
15.30648708343506,2,3,3,0,-11.47,8.619999999999999,-0.77,3.47,5.92,-3.77
15.31648707389832,2,3,3,0,-10.2,9.19,0.19,3.47,5.92,-3.77
15.32648706436157,2,3,3,0,-8.949999999999999,8.93,1.16,-2,6.87,-4.09
15.33648705482483,2,3,3,0,-7.64,6.51,1.93,-9.42,6.26,-5.37
15.34648704528809,2,3,3,0,-8,5.04,1.84,-9.1,5.19,-6.79
15.35748696327209,2,3,3,0,-8.93,3.75,1.65,-6.99,4.04,-8.35
15.36748695373535,2,3,3,0,-10.22,2.67,1.38,-6.99,4.04,-8.35
15.37748694419861,2,3,3,0,-12.2,1.75,0.77,-4.27,3.01,-9.369999999999999
15.38748693466187,2,3,3,0,-12.79,1.62,0.65,-0.74,0.58,-8.33
15.39748692512512,2,3,3,0,-13.01,1.6,0.46,0,-0.93,-6.61
15.40748691558838,2,3,3,0,-12.85,1.22,0.53,0.49,-1.92,-4.99
15.41748690605164,2,3,3,0,-12.06,1.05,0.5600000000000001,0.49,-1.92,-4.99
15.42748689651489,2,3,3,0,-11.13,0.99,0.5600000000000001,1.23,-3.13,-3.65
15.43748688697815,2,3,3,0,-10.09,0.88,0.42,2.61,-4.39,-2.48
15.44748687744141,2,3,3,0,-8.710000000000001,0.5,0.58,4.64,-5.47,-1.6
15.45748686790466,2,3,3,0,-8.33,0.58,0.67,6.43,-6.14,-1.66
15.4674870967865,2,3,3,0,-7.74,0.82,0.63,7.97,-7.06,-2.56
15.47748708724976,2,3,3,0,-8.07,1.07,0.59,9.35,-7.53,-3.22
15.48748707771301,2,3,3,0,-7.21,1.12,0.5,10.73,-8.15,-3.65
15.50748705863953,2,3,3,0,-7.38,1.5,0.62,11.32,-7.07,-3.57
15.51748704910278,2,3,3,0,-7.57,1.68,0.6,10.85,-6.52,-3.1
15.52748703956604,2,3,3,0,-7.09,1.43,0.51,10.23,-5.79,-2.67
15.5374870300293,2,3,3,0,-7.02,1.16,0.57,9.59,-4.88,-2.09
15.54748702049255,2,3,3,0,-7.33,1,0.61,8.85,-3.64,-1.43
15.55748701095581,2,3,3,0,-7.49,0.65,1.1,8.19,-2.3,-1.23
15.56748700141907,2,3,3,0,-7.46,0.6,0.98,7.72,-1.47,-1.24
15.57748699188232,2,3,3,0,-7.56,0.57,1.02,7.41,-0.9,-1.06
15.58748698234558,2,3,3,0,-7.64,0.48,1.07,7.12,-0.33,-0.63
15.59748697280884,2,3,3,0,-7.72,0.34,1.03,6.88,-0.08,-0.18
15.60748696327209,2,3,3,0,-7.84,0.26,1.05,6.55,0.06,0.3
15.61748695373535,2,3,3,0,-7.6,0.34,1,5.96,0.16,0.66
15.62748694419861,2,3,3,0,-7.41,0.28,0.91,5.44,0.42,1.05
15.63748693466187,2,3,3,0,-7.8,-0.05,0.91,5.43,1.17,1.49
15.64748692512512,2,3,3,0,-8.18,-0.21,0.83,5.28,1.74,1.49
15.65748691558838,2,3,3,0,-8.470000000000001,-0.34,0.85,4.74,1.75,1.01
15.66748690605164,2,3,3,0,-8.56,-0.44,0.74,4.38,1.27,0.26
15.67748689651489,2,3,3,0,-9.35,-0.4,0.8,4.53,0.85,-0.5600000000000001
15.68748688697815,2,3,3,0,-9.92,-0.28,0.85,4.87,0.3,-1.31
15.69748687744141,2,3,3,0,-10.48,0.1,0.99,5.49,-0.26,-2
15.70748686790466,2,3,3,0,-10.87,0.61,0.91,6.49,-0.89,-2.31
15.7174870967865,2,3,3,0,-12.4,0.9,1.29,7.93,-0.73,-2.15
15.72748708724976,2,3,3,0,-12.2,0.6,1.25,8.890000000000001,-1.43,-1.45
15.73748707771301,2,3,3,0,-11.69,-0.07000000000000001,1.46,10.08,-2.68,-0.24
15.74748706817627,2,3,3,0,-10.42,-1.68,2.11,10.98,-2.03,0.77
15.77748703956604,2,3,3,0,-13.86,-0.04,3.22,8.09,-2.98,1.06
15.7874870300293,2,3,3,0,-14.63,3.22,1.5,7.7,-7.06,-0.07000000000000001
15.79748702049255,2,3,3,0,-14.37,3.72,0.6899999999999999,8.02,-9.4,-0.51
15.80748701095581,2,3,3,0,-13.77,3.22,1.18,6.02,-9.779999999999999,-0.42
15.81748700141907,2,3,3,0,-12.55,3.18,1.03,2.56,-10.27,-0.6
15.82748699188232,2,3,3,0,-11.89,3.16,1.74,-1.14,-10.39,-0.8100000000000001
15.83748698234558,2,3,3,0,-12.17,3.8,2.26,-2.81,-9.859999999999999,-0.66
15.84748697280884,2,3,3,0,-11.74,4.9,1.2,-4.09,-10.82,-0.47
15.85748696327209,2,3,3,0,-11.49,4.01,2.18,-5.4,-10.76,0.11
15.86748695373535,2,3,3,0,-8.039999999999999,1.9,1.39,-5.35,-8.6,0.4
15.87748694419861,2,3,3,0,-7.31,1.8,1.06,-3.42,-5.17,1.86
15.88748693466187,2,3,3,0,-7.17,2.37,0.29,-3.42,-5.17,1.86
15.89748692512512,2,3,3,0,-8.35,3.95,-0.43,-1.62,-4,2.09
15.90748691558838,2,3,3,0,-7.92,4.66,-0.78,0.64,-3.45,1.82
15.91748690605164,2,3,3,0,-8.039999999999999,4.91,-0.89,0.9399999999999999,-2.51,1.51
15.92748689651489,2,3,3,0,-9.09,5.07,-0.87,0.9399999999999999,-0.77,0.8
15.93748688697815,2,3,3,0,-10.3,4.61,-0.62,0.54,0.91,0.95
15.94748687744141,2,3,3,0,-9.880000000000001,4.19,-0.2,-0.12,2.2,1.63
15.95748686790466,2,3,3,0,-8.92,4.01,0.3,-0.92,3.31,2.6
15.9674870967865,2,3,3,0,-8.26,3.85,0.5,-1.58,4.32,3.15
15.97748708724976,2,3,3,0,-7.58,3.51,0.7,-2.1,5.3,3.01
15.98748707771301,2,3,3,0,-7.55,3.41,0.62,-2.64,5.95,2.66
15.99748706817627,2,3,3,0,-7.71,3.29,0.38,-3.18,6.39,2.29
16.00748705863953,2,3,3,0,-8.19,3.35,0.2,-3.98,6.55,1.72
16.01748704910278,2,3,3,0,-9,3.79,-0.12,-5.17,6.42,1.27
16.02748703956604,2,3,3,0,-9.380000000000001,3.64,-0.19,-6.82,6.26,1.04
16.0374870300293,2,3,3,0,-9.09,3.34,-0.11,-8.42,5.75,1.01
16.04748702049255,2,3,3,0,-8.5,2.77,-0.21,-9.9,5.17,1.1
16.05748701095581,2,3,3,0,-8.369999999999999,2.35,-0.2,-11.07,4.77,1.42
16.06748700141907,2,3,3,0,-8.25,1.82,-0.12,-11.81,4.46,1.71
16.07748699188232,2,3,3,0,-8.16,1.22,-0.16,-11.71,4,2
16.08748698234558,2,3,3,0,-8.550000000000001,0.44,0.03,-11.04,3.43,2.03
16.09748697280884,2,3,3,0,-8.57,0.29,0.1,-10.25,2.74,1.91
16.10748696327209,2,3,3,0,-8.76,0.12,0.07000000000000001,-8.93,2.17,1.77
16.11748695373535,2,3,3,0,-8.970000000000001,0.03,0.09,-7.96,1.74,1.61
16.12748694419861,2,3,3,0,-9.18,-0.16,0.32,-7.1,1.23,1.85
16.13748693466187,2,3,3,0,-9.35,-0.2,0.2,-5.97,0.91,2.28
16.14748692512512,2,3,3,0,-9.449999999999999,-0.1,0.3,-5.41,0.58,2.82
16.15748691558838,2,3,3,0,-9.390000000000001,0.06,0.24,-4.69,0.35,3.51
16.16748690605164,2,3,3,0,-9.51,0.22,0.1,-4.08,0.23,4.16
16.17748689651489,2,3,3,0,-9.279999999999999,0.26,0.08,-3.7,0.19,4.81
16.18748688697815,2,3,3,0,-9.210000000000001,0.3,0.19,-3.48,0.22,5.44
16.19748687744141,2,3,3,0,-9.210000000000001,0.5600000000000001,-0.31,-3.34,0.19,5.83
16.20748686790466,2,3,3,0,-9.140000000000001,0.62,-0.28,-3.37,0.07000000000000001,5.97
16.2174870967865,2,3,3,0,-9.25,0.73,0.02,-3.48,0.1,5.81
16.22748708724976,2,3,3,0,-9.31,0.91,0.01,-3.22,-0.06,5.34
16.23748707771301,2,3,3,0,-9.35,1.13,0.09,-3.18,-0.17,4.58
16.24748706817627,2,3,3,0,-9.34,1.36,0.24,-3.41,-0.4,3.53
16.25748705863953,2,3,3,0,-9.27,1.39,0.33,-3.69,-0.72,2.57
16.26748704910278,2,3,3,0,-9.27,1.34,0.37,-4.34,-0.7,1.84
16.27748703956604,2,3,3,0,-9.050000000000001,0.96,0.05,-5.23,-0.34,1.33
16.2874870300293,2,3,3,0,-9.029999999999999,0.58,-0.11,-5.95,0.35,1.1
16.29748702049255,2,3,3,0,-9.18,0.19,-0.3,-6.31,1.1,1.29
16.30748701095581,2,3,3,0,-9.4,-0.2,-0.35,-6.34,1.84,1.65
16.31748700141907,2,3,3,0,-9.59,-0.79,-0.2,-5.75,2.31,2.1
16.32748699188232,2,3,3,0,-9.81,-0.91,0.12,-4.76,2.48,2.31
16.33748698234558,2,3,3,0,-10.03,-0.7,0.35,-4.01,2.52,2.39
16.34748697280884,2,3,3,0,-10.2,-0.26,0.3,-3.99,3.11,2.48
16.35748696327209,2,3,3,0,-10.42,-0.09,0.47,-4.81,4.34,2.57
16.36748695373535,2,3,3,0,-10.57,0.11,0.55,-5.95,5.61,2.5
16.37848687171936,2,3,3,0,-10.52,0.17,1.06,-7.27,6.78,2.14
16.38848686218262,2,3,3,0,-10.62,-0.3,0.5600000000000001,-7.09,7.65,1.32
16.39848709106445,2,3,3,0,-11.04,-0.23,0.26,-4.82,7.99,0.16
16.40848708152771,2,3,3,0,-11.63,0.07000000000000001,0.05,-1.83,8.07,-1.14
16.41848707199097,2,3,3,0,-12.33,0.77,0.15,1.7,7.72,-2.43
16.42848706245422,2,3,3,0,-13.01,3.5,0.39,5.71,6.66,-3.43
16.43848705291748,2,3,3,0,-12.99,4.94,-0.48,8.880000000000001,5.35,-3.67
16.44848704338074,2,3,3,0,-12.88,6.27,-1.27,9.539999999999999,5.06,-3.45
16.45848703384399,2,3,3,0,-12.59,7.44,-1.48,6.92,5.65,-3.28
16.46848702430725,2,3,3,0,-11.1,8.77,-0.75,1.84,6.83,-3.38
16.47848701477051,2,3,3,0,-9.789999999999999,8.529999999999999,-0.02,-3.69,7.7,-3.54
16.48848700523376,2,3,3,0,-8.550000000000001,7.69,0.64,-7.7,7.62,-3.85
16.49848699569702,2,3,3,0,-7.87,6.65,1.03,-9.33,6.7,-4.72
16.50848698616028,2,3,3,0,-7.98,4.49,1.51,-9.06,5.64,-6.13
16.51848697662354,2,3,3,0,-8.82,3.57,1.35,-7.62,4.9,-7.69
16.52848696708679,2,3,3,0,-9.859999999999999,2.79,1.13,-5.5,4.22,-8.85
16.53848695755005,2,3,3,0,-11.78,1.66,0.46,-3.53,3.62,-9.16
16.54848694801331,2,3,3,0,-12.55,1.05,0.26,-1.62,2.81,-8.44
16.55848693847656,2,3,3,0,-12.74,0.58,0.16,-0.04,1.65,-7.14
16.56848692893982,2,3,3,0,-12.71,0.47,0.16,1.2,0.74,-5.83
16.57848691940308,2,3,3,0,-12.23,0.07000000000000001,0.52,2.11,-0.5,-4.76
16.58848690986633,2,3,3,0,-11.62,0,0.74,3.28,-2.2,-3.78
16.59848690032959,2,3,3,0,-10.87,-0.06,0.8,5.13,-3.98,-3.04
16.60848689079285,2,3,3,0,-9.94,-0.01,0.85,7.33,-5.3,-2.84
16.6184868812561,2,3,3,0,-8.76,0.62,0.72,9.43,-6.39,-2.89
16.62848687171936,2,3,3,0,-8.31,0.87,0.58,11.54,-7.08,-3.06
16.63848686218262,2,3,3,0,-7.85,1.03,0.52,13.23,-7.19,-3.56
16.64848709106445,2,3,3,0,-7.68,1.09,0.49,13.95,-7.18,-3.54
16.65848708152771,2,3,3,0,-7.86,1.34,0.64,13.66,-7.2,-2.9
16.66848707199097,2,3,3,0,-7.64,1.45,0.5600000000000001,13.3,-7.28,-2.17
16.67848706245422,2,3,3,0,-7.49,1.44,0.44,13.16,-6.9,-1.36
16.68848705291748,2,3,3,0,-7.35,1.54,0.25,12.71,-6.35,-0.61
16.69848704338074,2,3,3,0,-7.23,1.44,0.41,11.68,-5.13,-0.53
16.70848703384399,2,3,3,0,-7.14,1.32,0.5600000000000001,10.22,-3.92,-0.37
16.71848702430725,2,3,3,0,-7.1,1.26,0.73,8.98,-2.86,-0.04
16.72848701477051,2,3,3,0,-7.09,1.07,0.75,8.09,-1.78,0.39
16.73848700523376,2,3,3,0,-7.48,0.91,0.82,7.74,-0.48,0.72
16.74848699569702,2,3,3,0,-7.67,0.76,1.03,7.66,0.41,0.71
16.75848698616028,2,3,3,0,-7.91,0.7,1.06,7,0.82,0.92
16.76848697662354,2,3,3,0,-8.199999999999999,0.7,1.22,6.15,1.07,1.34
16.77848696708679,2,3,3,0,-8.1,0.7,0.97,5.26,1.17,1.76
16.78848695755005,2,3,3,0,-8.01,0.57,0.8,5.13,1.3,2.36
16.79848694801331,2,3,3,0,-7.76,0.3,0.47,5.16,1.95,2.79
16.80848693847656,2,3,3,0,-8.32,-0.64,0.53,5.41,2.9,2.66
16.81848692893982,2,3,3,0,-8.75,-0.98,0.62,4.98,2.84,1.8
16.82848691940308,2,3,3,0,-8.789999999999999,-1.31,0.54,4.8,1.28,0.6899999999999999
16.83848690986633,2,3,3,0,-9.35,-0.92,1.21,5.52,0.27,-0.36
16.84848690032959,2,3,3,0,-9.82,-0.58,0.93,7.01,-0.07000000000000001,-1.3
16.85848689079285,2,3,3,0,-10.77,-0.49,1.02,9.210000000000001,0.18,-2.09
16.8684868812561,2,3,3,0,-11.37,-0.4,1.09,10.4,-0.42,-2.32
16.87848687171936,2,3,3,0,-11.33,0.49,0.45,11.07,-0.79,-1.67
16.91848707199097,2,3,3,0,-11.34,0.5600000000000001,1.58,9.99,-0.6,1.42
16.92848706245422,2,3,3,0,-11.72,0.54,1.56,8.779999999999999,-1.22,0.8100000000000001
16.93848705291748,2,3,3,0,-11.98,0.48,1.61,8.460000000000001,-2.96,-0.18
16.94848704338074,2,3,3,0,-12.55,1.22,1.23,7.46,-4.78,-0.82
16.95848703384399,2,3,3,0,-13.59,1.81,0.73,5.36,-6.16,-1.87
16.96848702430725,2,3,3,0,-13.29,2.12,0.48,3.17,-7.36,-3.02
16.97848701477051,2,3,3,0,-13.15,2.43,-0.44,2.66,-9.09,-3.52
16.98848700523376,2,3,3,0,-13.39,4.13,-0.29,2.29,-11.68,-3.34
16.99848699569702,2,3,3,0,-13.77,4.82,0.26,2.7,-13.97,-3.03
17.00848698616028,2,3,3,0,-13.65,5.65,0.66,1.8,-14.25,-2.78
17.01848697662354,2,3,3,0,-12.94,5.49,0.95,0.8100000000000001,-12.46,-1.78
17.02848696708679,2,3,3,0,-9.800000000000001,3.61,0.92,-0.66,-8.91,-0.46
17.03848695755005,2,3,3,0,-8.43,2.95,1.09,-1.9,-5.56,0.71
17.04848694801331,2,3,3,0,-7.29,2.65,0.63,-2.36,-3.41,1.2
17.05848693847656,2,3,3,0,-6.41,2.64,0.37,-2.15,-1.89,1.05
17.06848692893982,2,3,3,0,-7.39,2.73,-0.2,-1.72,-1.09,0.7
17.07848691940308,2,3,3,0,-8.050000000000001,3.14,-0.57,-1.03,-0.62,0.44
17.08848690986633,2,3,3,0,-8.69,3.58,-0.95,-0.58,0,0.5600000000000001
17.09848690032959,2,3,3,0,-9.42,3.99,-1.19,-0.52,0.89,0.86
17.10848689079285,2,3,3,0,-10,4.34,-1.04,-0.77,1.42,1
17.1184868812561,2,3,3,0,-9.75,4.43,-0.78,-1.15,1.83,1.16
17.12848687171936,2,3,3,0,-9.289999999999999,4.31,-0.58,-1.53,2.26,1.74
17.13848686218262,2,3,3,0,-8.6,4.16,-0.41,-1.95,2.77,2.58
17.14848709106445,2,3,3,0,-7.98,3.75,-0.33,-2.44,3.5,3.26
17.15848708152771,2,3,3,0,-8.15,3.66,-0.23,-2.81,4.03,3.44
17.16848707199097,2,3,3,0,-8.33,3.71,-0.26,-3.05,4.49,3.14
17.17848706245422,2,3,3,0,-8.859999999999999,3.67,-0.22,-3.27,4.83,2.61
17.18848705291748,2,3,3,0,-9.09,3.51,-0.3,-3.63,4.88,2.05
17.19848704338074,2,3,3,0,-9.26,3.47,-0.37,-3.86,4.88,1.55
17.20848703384399,2,3,3,0,-9.27,3.35,-0.37,-4.3,4.68,1.26
17.21848702430725,2,3,3,0,-9.01,3.1,-0.43,-4.71,4.61,1.02
17.22848701477051,2,3,3,0,-8.94,2.9,-0.4,-5.09,4.6,0.88
17.23848700523376,2,3,3,0,-8.880000000000001,2.81,-0.43,-5.53,4.63,0.9
17.24848699569702,2,3,3,0,-8.94,2.74,-0.5,-5.91,4.5,1
17.25848698616028,2,3,3,0,-9.27,2.86,-0.33,-6.31,4.38,1.06
17.26848697662354,2,3,3,0,-9.49,2.76,-0.33,-6.51,4.08,1.07
17.27848696708679,2,3,3,0,-9.59,2.69,-0.27,-6.63,3.79,1.18
17.28848695755005,2,3,3,0,-9.609999999999999,2.51,-0.24,-6.63,3.57,1.36
17.29848694801331,2,3,3,0,-9.609999999999999,2.3,-0.4,-6.41,3.33,1.57
17.30848693847656,2,3,3,0,-9.609999999999999,2.22,-0.28,-6.02,3.08,1.73
17.31848692893982,2,3,3,0,-9.65,2.19,-0.23,-5.58,2.83,1.8
17.32848691940308,2,3,3,0,-9.65,2.19,-0.23,-5.26,2.69,1.72
17.33848690986633,2,3,3,0,-9.470000000000001,2.1,-0.2,-5.16,2.53,1.55
17.34848690032959,2,3,3,0,-9.460000000000001,1.91,-0.46,-5.26,2.29,1.38
17.35848689079285,2,3,3,0,-9.5,1.85,-0.42,-5.3,2.07,1.22
17.3684868812561,2,3,3,0,-9.67,2.04,-0.48,-5.32,1.74,1.22
17.37848687171936,2,3,3,0,-9.67,2.04,-0.48,-5.39,1.36,1.42
17.38848686218262,2,3,3,0,-9.800000000000001,2.17,-0.4,-5.28,1.03,1.55
17.39848709106445,2,3,3,0,-9.59,2.11,-0.23,-4.95,0.64,1.49
17.40948700904846,2,3,3,0,-9.300000000000001,1.52,-0.25,-4.22,0.09,1.16
17.41948699951172,2,3,3,0,-9.289999999999999,1.42,-0.24,-3.45,-0.5600000000000001,0.77
17.42948698997498,2,3,3,0,-9.289999999999999,1.42,-0.24,-2.77,-1.18,0.57
17.43948698043823,2,3,3,0,-9.32,1.44,-0.26,-2.24,-1.63,0.5600000000000001
17.44948697090149,2,3,3,0,-9.69,1.79,-0.06,-1.95,-2.01,0.58
17.45948696136475,2,3,3,0,-9.82,2.04,0.02,-1.84,-2.35,0.5
17.469486951828,2,3,3,0,-9.91,2.08,-0.18,-1.76,-2.41,0.43
17.47948694229126,2,3,3,0,-9.91,2.08,-0.18,-1.76,-2.41,0.43
17.48948693275452,2,3,3,0,-9.81,1.84,-0.03,-1.35,-2.33,0.39
17.49948692321777,2,3,3,0,-9.43,1.72,0.05,-0.95,-1.55,0.31
17.50948691368103,2,3,3,0,-8.960000000000001,1.56,0,-0.51,-1.01,0.29
17.51948690414429,2,3,3,0,-8.619999999999999,1.56,0.23,-0.07000000000000001,-0.5,0.31
17.52948689460754,2,3,3,0,-8.24,1.95,0.4,-0.07000000000000001,-0.5,0.31
17.5394868850708,2,3,3,0,-8.34,2.21,0.5,0.27,-0.08,0.33
17.54948687553406,2,3,3,0,-8.710000000000001,2.43,0.51,0.33,-0.31,0.24
17.55948686599731,2,3,3,0,-9.380000000000001,2.67,0.4,0,-0.57,0.09
17.56948709487915,2,3,3,0,-10.59,2.75,0.51,-0.48,-0.5600000000000001,-0.04
17.57948708534241,2,3,3,0,-10.71,2.72,0.51,-0.48,-0.5600000000000001,-0.04
17.58948707580566,2,3,3,0,-10.4,2.44,0.51,-0.85,-0.46,-0.09
17.59948706626892,2,3,3,0,-9.880000000000001,1.93,0.64,-1.39,0.26,0.46
17.60948705673218,2,3,3,0,-9.16,1.36,0.5600000000000001,-1.09,0.6,0.84
17.61948704719543,2,3,3,0,-8.82,1.11,0.54,-0.42,0.96,1.32
17.62948703765869,2,3,3,0,-8.619999999999999,1.05,0.55,-0.42,0.96,1.32
17.63948702812195,2,3,3,0,-8.42,1.44,0.61,0.2,1.3,1.84
17.64948701858521,2,3,3,0,-8.470000000000001,1.91,0.51,0.98,1.34,2.39
17.65948700904846,2,3,3,0,-8.789999999999999,2.26,0.46,0.85,1.04,2.21
17.66948699951172,2,3,3,0,-9.140000000000001,2.56,0.36,0.45,0.83,1.72
17.67948698997498,2,3,3,0,-10.03,3.05,0.07000000000000001,0.45,0.83,1.72
17.68948698043823,2,3,3,0,-10.28,3.1,0.12,-0.17,0.55,1.02
17.69948697090149,2,3,3,0,-10.36,3.12,0.38,-1.86,0.59,0.01
17.70948696136475,2,3,3,0,-10.19,3,0.47,-2.39,0.65,-0.24
17.719486951828,2,3,3,0,-9.880000000000001,2.38,0.75,-2.64,0.73,-0.35
17.72948694229126,2,3,3,0,-9.800000000000001,2.17,0.82,-2.64,0.73,-0.35
17.73948693275452,2,3,3,0,-9.779999999999999,2.02,0.8,-2.65,0.85,-0.25
17.74948692321777,2,3,3,0,-9.880000000000001,1.87,0.77,-1.95,0.92,0.28
17.75948691368103,2,3,3,0,-9.77,1.83,0.77,-1.72,0.71,0.62
17.76948690414429,2,3,3,0,-9.68,1.85,0.73,-1.55,0.46,0.87
17.77948689460754,2,3,3,0,-9.59,1.84,0.72,-1.55,0.46,0.87
17.7894868850708,2,3,3,0,-9.65,1.63,0.87,-1.28,0.37,0.91
17.79948687553406,2,3,3,0,-9.699999999999999,1.59,0.78,-0.72,0.3,0.6
17.80948686599731,2,3,3,0,-9.67,1.67,0.67,-0.33,0.32,0.64
17.81948709487915,2,3,3,0,-9.58,1.68,0.61,0.12,0.53,0.6
17.82948708534241,2,3,3,0,-9.73,1.82,0.67,0.12,0.53,0.6
17.83948707580566,2,3,3,0,-9.720000000000001,1.88,0.73,0.27,0.57,0.61
17.84948706626892,2,3,3,0,-9.67,1.95,0.67,0.51,0.02,0.78
17.85948705673218,2,3,3,0,-9.68,2.03,0.6899999999999999,0.34,-0.19,0.86
17.86948704719543,2,3,3,0,-9.529999999999999,2.13,0.76,0.35,-0.44,1.03
17.87948703765869,2,3,3,0,-9.5,2.04,0.77,0.35,-0.44,1.03
17.88948702812195,2,3,3,0,-9.44,2.04,0.85,0.52,-0.52,1.08
17.89948701858521,2,3,3,0,-9.359999999999999,2,0.86,0.83,-0.41,1
17.90948700904846,2,3,3,0,-9.289999999999999,2.02,0.8,0.98,-0.3,0.86
17.91948699951172,2,3,3,0,-9.32,2.09,0.87,1.14,-0.24,0.78
17.92948698997498,2,3,3,0,-9.369999999999999,2.08,0.8100000000000001,1.14,-0.24,0.78
17.93948698043823,2,3,3,0,-9.48,2.08,0.87,1.21,-0.01,0.77
17.94948697090149,2,3,3,0,-9.57,2.2,0.86,1.06,-0.05,0.78
17.95948696136475,2,3,3,0,-9.5,2.32,0.72,0.89,-0.19,0.82
17.969486951828,2,3,3,0,-9.48,2.35,0.67,0.66,-0.29,0.86
17.97948694229126,2,3,3,0,-9.460000000000001,2.41,0.62,0.66,-0.29,0.86
17.98948693275452,2,3,3,0,-9.380000000000001,2.33,0.66,0.44,-0.42,0.9
17.99948692321777,2,3,3,0,-9.279999999999999,2.29,0.66,-0.06,-0.5600000000000001,0.79
18.00948691368103,2,3,3,0,-9.26,2.28,0.58,-0.06,-0.5600000000000001,0.79
18.01948690414429,2,3,3,0,-9.43,2.31,0.6899999999999999,-0.26,-0.53,0.7
18.02948689460754,2,3,3,0,-9.68,2.25,0.76,-0.37,-0.57,0.54
18.0394868850708,2,3,3,0,-9.83,2.14,0.72,-0.36,-0.57,0.44
18.04948687553406,2,3,3,0,-10,2.1,0.9,-0.41,-0.5,0.4
18.05948686599731,2,3,3,0,-10.02,2.16,0.66,-0.53,-0.6,0.5
18.06948709487915,2,3,3,0,-9.859999999999999,2.24,0.6,-0.41,-0.74,0.76
18.07948708534241,2,3,3,0,-9.67,2.27,0.6,-0.24,-0.87,1.2
18.08948707580566,2,3,3,0,-9.5,2.42,0.59,-0.19,-0.85,1.54
18.09948706626892,2,3,3,0,-9.369999999999999,2.53,0.52,-0.16,-0.82,1.64
18.10948705673218,2,3,3,0,-9.380000000000001,2.57,0.44,-0.01,-0.71,1.48
18.11948704719543,2,3,3,0,-9.4,2.65,0.46,0.09,-0.44,1.22
18.12948703765869,2,3,3,0,-9.44,2.78,0.54,0.13,-0.13,0.84
18.13948702812195,2,3,3,0,-9.460000000000001,2.83,0.67,0.1,0.15,0.52
18.14948701858521,2,3,3,0,-9.51,2.92,0.74,-0.11,0.38,0.21
18.15948700904846,2,3,3,0,-9.67,2.83,0.61,-0.43,0.46,-0.1
18.16948699951172,2,3,3,0,-9.640000000000001,2.49,0.66,-0.86,0.42,-0.35
18.17948698997498,2,3,3,0,-9.550000000000001,2.21,0.58,-1.27,0.33,-0.5
18.18948698043823,2,3,3,0,-9.51,1.94,0.48,-1.5,0.18,-0.5600000000000001
18.19948697090149,2,3,3,0,-9.529999999999999,1.8,0.49,-1.63,0.31,-0.6
18.20948696136475,2,3,3,0,-9.58,1.47,0.5,-1.87,0.52,-0.74
18.219486951828,2,3,3,0,-9.59,1.44,0.53,-1.9,0.6,-0.87
18.22948694229126,2,3,3,0,-9.57,1.41,0.55,-1.8,0.64,-0.96
18.23948693275452,2,3,3,0,-9.57,1.32,0.6,-1.64,0.73,-0.97
18.24948692321777,2,3,3,0,-9.65,1.2,0.44,-1.5,0.64,-0.89
18.25948691368103,2,3,3,0,-9.699999999999999,1.15,0.39,-1.23,0.9,-0.66
18.26948690414429,2,3,3,0,-9.73,1.21,0.45,-0.98,0.98,-0.43
18.27948689460754,2,3,3,0,-9.699999999999999,1.33,0.5,-0.6899999999999999,0.88,-0.17
18.2894868850708,2,3,3,0,-9.67,1.39,0.51,-0.33,0.66,0.04
18.29948687553406,2,3,3,0,-9.640000000000001,1.49,0.51,0.13,0.41,0.17
18.30948686599731,2,3,3,0,-9.65,1.57,0.32,0.6,0.19,0.18
18.31948709487915,2,3,3,0,-9.68,1.73,0.29,1.02,0.08,0.18
18.32948708534241,2,3,3,0,-9.68,1.81,0.35,1.28,0.03,0.13
18.33948707580566,2,3,3,0,-9.68,1.92,0.42,1.31,0.08,0.06
18.34948706626892,2,3,3,0,-9.69,1.94,0.48,1.34,0.19,0.05
18.35948705673218,2,3,3,0,-9.67,1.98,0.41,1.29,0.11,0.01
18.36948704719543,2,3,3,0,-9.640000000000001,2.02,0.43,1.19,0.12,-0.02
18.37948703765869,2,3,3,0,-9.57,1.96,0.47,1.16,0.22,-0.04
18.38948702812195,2,3,3,0,-9.539999999999999,2,0.48,1.09,0.26,-0.02
18.39948701858521,2,3,3,0,-9.56,2.07,0.35,1.04,0.26,-0.03
18.40948700904846,2,3,3,0,-9.58,2.1,0.32,0.93,0.18,-0.02
18.41948699951172,2,3,3,0,-9.58,2.11,0.32,0.76,0.03,0
18.43048691749573,2,3,3,0,-9.56,2.04,0.43,0.61,-0.11,-0.01
18.44048690795898,2,3,3,0,-9.529999999999999,2.03,0.45,0.42,-0.15,-0.07000000000000001
18.45048689842224,2,3,3,0,-9.52,1.97,0.44,0.15,-0.14,-0.11
18.4604868888855,2,3,3,0,-9.539999999999999,1.91,0.34,0.12,-0.14,-0.16
18.47048687934875,2,3,3,0,-9.58,1.85,0.42,0.02,-0.11,-0.16
18.48048686981201,2,3,3,0,-9.630000000000001,1.84,0.48,0,-0.09,-0.08
18.49048709869385,2,3,3,0,-9.67,1.86,0.51,0.01,-0.1,-0.03
18.5004870891571,2,3,3,0,-9.68,1.81,0.53,-0.04,-0.2,0.05
18.51048707962036,2,3,3,0,-9.609999999999999,1.83,0.48,-0.04,-0.34,0.15
18.52048707008362,2,3,3,0,-9.48,1.83,0.42,-0.12,-0.68,0.25
18.53048706054688,2,3,3,0,-9.51,1.82,0.41,-0.12,-0.8100000000000001,0.39
18.54048705101013,2,3,3,0,-9.58,1.87,0.45,-0.08,-0.82,0.45
18.55048704147339,2,3,3,0,-9.66,2.01,0.38,-0.04,-0.9,0.41
18.56048703193665,2,3,3,0,-9.58,2.01,0.28,-0.14,-1.34,0.49
18.5704870223999,2,3,3,0,-9.6,2.15,0.46,0.12,-1.43,0.58
18.58048701286316,2,3,3,0,-9.58,2.21,0.55,0.05,-1.38,0.67
18.59048700332642,2,3,3,0,-9.52,1.6,0.52,0.28,-1.5,0.65
18.60048699378967,2,3,3,0,-9.59,1.73,0.43,0.79,-1.05,0.3
18.61048698425293,2,3,3,0,-9.48,1.82,0.29,0.5600000000000001,-0.58,0.09
18.62048697471619,2,3,3,0,-9.65,1.8,0.57,0.46,-0.28,-0.04
18.63048696517944,2,3,3,0,-9.74,1.85,0.66,0.28,-0.16,-0.2
18.6404869556427,2,3,3,0,-9.74,1.87,0.6899999999999999,0.16,-0.25,-0.09
18.65048694610596,2,3,3,0,-9.67,1.93,0.63,0.16,-0.25,-0.09
18.66048693656921,2,3,3,0,-9.550000000000001,2.02,0.45,0.07000000000000001,-0.38,0.15
18.67048692703247,2,3,3,0,-9.56,2.04,0.45,-0.11,-0.36,0.26
18.68048691749573,2,3,3,0,-9.609999999999999,2.03,0.53,-0.25,-0.2,0.28
18.69048690795898,2,3,3,0,-9.6,1.94,0.54,-0.24,0.15,0.21
18.70048689842224,2,3,3,0,-9.58,1.81,0.57,-0.24,0.15,0.21
18.7104868888855,2,3,3,0,-9.56,1.81,0.51,-0.41,0.35,0.04
18.72048687934875,2,3,3,0,-9.550000000000001,1.84,0.53,-0.39,0.31,0.03
18.73048686981201,2,3,3,0,-9.529999999999999,1.86,0.52,-0.36,0.34,0.03
18.74048709869385,2,3,3,0,-9.66,1.93,0.59,-0.36,0.34,0.08
18.7504870891571,2,3,3,0,-9.6,1.96,0.54,-0.34,0.25,0.13
18.76048707962036,2,3,3,0,-9.619999999999999,1.93,0.49,-0.24,0.25,0.16
18.77048707008362,2,3,3,0,-9.58,2.06,0.5,-0.22,0.25,0.12
18.78048706054688,2,3,3,0,-9.539999999999999,2.03,0.53,-0.17,0.34,0.05
18.79048705101013,2,3,3,0,-9.550000000000001,2.08,0.55,-0.07000000000000001,0.43,-0.08
18.80048704147339,2,3,3,0,-9.58,2.11,0.58,0.01,0.4,-0.11
18.81048703193665,2,3,3,0,-9.57,2.01,0.46,0.14,0.36,-0.14
18.8204870223999,2,3,3,0,-9.58,2.01,0.47,0.11,0.42,-0.12
18.83048701286316,2,3,3,0,-9.609999999999999,2.03,0.5,0.01,0.48,-0.14
18.84048700332642,2,3,3,0,-9.68,1.99,0.53,-0.02,0.44,-0.2
18.85048699378967,2,3,3,0,-9.640000000000001,1.91,0.51,-0.07000000000000001,0.35,-0.21
18.86048698425293,2,3,3,0,-9.56,1.92,0.48,-0.08,0.31,-0.17
18.87048697471619,2,3,3,0,-9.52,1.94,0.5,-0.14,0.28,-0.14
18.88048696517944,2,3,3,0,-9.52,1.96,0.52,-0.15,0.27,-0.12
18.8904869556427,2,3,3,0,-9.609999999999999,1.92,0.5600000000000001,-0.09,0.29,-0.12
18.90048694610596,2,3,3,0,-9.65,1.93,0.55,-0.11,0.25,-0.06
18.91048693656921,2,3,3,0,-9.67,1.96,0.52,-0.17,0.13,0.08
18.92048692703247,2,3,3,0,-9.609999999999999,1.95,0.44,-0.29,0.07000000000000001,0.2
18.93048691749573,2,3,3,0,-9.56,2,0.46,-0.35,0.17,0.24
18.94048690795898,2,3,3,0,-9.550000000000001,2.01,0.46,-0.22,0.2,0.22
18.95048689842224,2,3,3,0,-9.56,1.99,0.47,-0.24,0.17,0.2
18.9604868888855,2,3,3,0,-9.58,2.03,0.47,-0.28,0.08,0.12
18.97048687934875,2,3,3,0,-9.59,2.01,0.5,-0.33,-0.07000000000000001,0.06
18.98048686981201,2,3,3,0,-9.58,1.96,0.51,-0.27,-0.11,-0.01
18.99048709869385,2,3,3,0,-9.59,1.94,0.48,-0.16,-0.02,-0.11
19.0004870891571,2,3,3,0,-9.550000000000001,1.92,0.41,-0.06,0.07000000000000001,-0.17
19.01048707962036,2,3,3,0,-9.529999999999999,1.89,0.38,0.03,0.12,-0.22
19.02048707008362,2,3,3,0,-9.550000000000001,1.89,0.4,0.04,0.18,-0.27
19.03048706054688,2,3,3,0,-9.59,1.89,0.44,0.06,0.21,-0.27
19.04048705101013,2,3,3,0,-9.6,1.84,0.58,0.03,0.21,-0.34
19.05048704147339,2,3,3,0,-9.609999999999999,1.82,0.57,-0.2,0.06,-0.34
19.06048703193665,2,3,3,0,-9.609999999999999,1.86,0.55,-0.4,-0.02,-0.38
19.0704870223999,2,3,3,0,-9.609999999999999,2.1,0.27,-0.61,-0.13,-0.38
19.08048701286316,2,3,3,0,-9.619999999999999,2.09,0.19,-0.38,-0.2,-0.27
19.09048700332642,2,3,3,0,-9.66,2.04,0.31,-0.34,-0.01,-0.14
19.10048699378967,2,3,3,0,-9.65,2.03,0.4,-0.35,0.08,-0.06
19.11048698425293,2,3,3,0,-9.57,2.01,0.29,-0.31,0.04,-0.07000000000000001
19.12048697471619,2,3,3,0,-9.539999999999999,1.96,0.32,-0.17,0.04,-0.08
19.13048696517944,2,3,3,0,-9.59,1.95,0.38,-0.08,0.03,-0.11
19.1404869556427,2,3,3,0,-9.58,1.94,0.46,-0.15,-0.05,-0.13
19.15048694610596,2,3,3,0,-9.57,1.9,0.4,-0.16,0.01,-0.15
19.16048693656921,2,3,3,0,-9.6,1.93,0.37,-0.12,0.01,-0.2
19.17048692703247,2,3,3,0,-9.65,1.97,0.34,-0.19,-0.06,-0.14
19.18048691749573,2,3,3,0,-9.65,1.98,0.33,-0.18,0.03,-0.12
19.19048690795898,2,3,3,0,-9.550000000000001,1.95,0.5,-0.19,0.06,-0.07000000000000001
19.20048689842224,2,3,3,0,-9.539999999999999,1.84,0.47,-0.15,0.04,-0.05
19.2104868888855,2,3,3,0,-9.56,1.81,0.45,-0.2,0.04,-0.01
19.22048687934875,2,3,3,0,-9.619999999999999,1.74,0.45,-0.13,0.06,0.03
19.23048686981201,2,3,3,0,-9.640000000000001,1.75,0.43,0.06,0.09,0.01
19.24048709869385,2,3,3,0,-9.68,1.77,0.48,0.27,0.07000000000000001,0.02
19.2504870891571,2,3,3,0,-9.67,1.82,0.43,0.45,-0.03,0.06
19.26048707962036,2,3,3,0,-9.56,1.93,0.48,0.5,-0.1,0.07000000000000001
19.27048707008362,2,3,3,0,-9.57,1.92,0.52,0.49,-0.01,0.02
19.28048706054688,2,3,3,0,-9.550000000000001,1.93,0.59,0.36,-0.09,-0.03
19.29048705101013,2,3,3,0,-9.52,1.9,0.64,0.13,-0.24,-0.22
19.30048704147339,2,3,3,0,-9.49,1.85,0.79,0.06,-0.05,-0.33
19.31048703193665,2,3,3,0,-9.390000000000001,1.89,0.54,-0.07000000000000001,0.1,-0.46
