timestamp,magCalib,accCalib,gyrCalib,sysCalib,accX,accY,accZ,gyrX,gyrY,gyrZ
-0.2135131359100342,3,3,3,1,-9.880000000000001,1.54,0.68,-0.91,-0.09,-1.31
-0.2035129070281982,3,3,3,1,-9.75,1.25,0.05,-2.1,0.68,-1.4
-0.1935129165649414,3,3,3,1,-9.77,1.36,-0.2,-3.29,1.21,-1.25
-0.1835129261016846,3,3,3,1,-9.68,1.7,-0.45,-3.45,1.46,-1.09
-0.1735129356384277,3,3,3,1,-9.85,1.62,-0.55,-3.65,1.68,-1.21
-0.1635129451751709,3,3,3,1,-10.18,1.43,-0.83,-3.44,1.62,-1.14
-0.1535129547119141,3,3,3,1,-10.09,1.52,-1.01,-2.55,1.41,-1.13
-0.1435129642486572,3,3,3,1,-10.05,1.4,-0.83,-1.22,1.07,-1.05
-0.1335129737854004,3,3,3,1,-9.65,1.74,-0.88,-0.08,0.53,-1.01
-0.1235129833221436,3,3,3,1,-9.75,1.58,-0.9399999999999999,0.55,0.6,-1.06
-0.1135129928588867,3,3,3,1,-9.710000000000001,1.52,-1.19,0.6899999999999999,0.82,-1.03
-0.1035130023956299,3,3,3,1,-9.76,1.56,-1.25,0.95,0.9,-0.95
-0.09351301193237305,3,3,3,1,-9.960000000000001,1.28,-0.43,1.44,0.75,-0.93
-0.08351302146911621,3,3,3,1,-9.800000000000001,1.14,0.07000000000000001,2.05,0.36,-0.93
-0.07351303100585938,3,3,3,1,-9.6,1.12,0.47,2.72,-0.07000000000000001,-0.95
-0.06351304054260254,3,3,3,1,-9.470000000000001,1.28,0.62,3.67,-0.38,-1.15
-0.0535130500793457,3,3,3,1,-9.539999999999999,1.59,0.43,4.12,-0.7,-1.28
-0.04351305961608887,3,3,3,1,-9.77,1.33,0.14,3.58,-0.49,-1.18
-0.03351306915283203,3,3,3,1,-9.77,1.1,-0.08,2.19,0.09,-0.92
-0.0235130786895752,3,3,3,1,-9.640000000000001,0.78,-0.32,1.29,0.86,-1
-0.01351308822631836,3,3,3,1,-10.15,0.26,-0.74,0.8100000000000001,1.89,-1.3
-0.003513097763061523,3,3,3,1,-10.25,0.51,-0.85,1.9,1.77,-1.82
0.006486892700195312,3,3,3,1,-10.11,1.13,-0.47,4.52,0.5600000000000001,-1.89
0.01648688316345215,3,3,3,1,-9.970000000000001,1.32,0.05,5.02,-0.01,-1.94
0.02648687362670898,3,3,3,1,-10.15,0.79,-0.12,4.49,0.2,-2.13
0.03648686408996582,3,3,3,1,-10.07,0.84,-0.17,4.21,0.03,-2.2
0.04648709297180176,3,3,3,1,-9.640000000000001,1.05,0.38,3.85,-0.8,-2.06
0.05648708343505859,3,3,3,1,-9.44,1.12,0.73,2.02,-0.74,-2.12
0.06648707389831543,3,3,3,1,-9.99,0.44,0.29,0.26,0.33,-2.28
0.07648706436157227,3,3,3,1,-10.01,-0.02,0.2,-0.4,0.63,-2.4
0.0864870548248291,3,3,3,1,-9.99,-0.08,0.04,0.15,0.21,-2.52
0.09648704528808594,3,3,3,1,-9.619999999999999,0.01,-0.05,2.09,-0.48,-2.35
0.1064870357513428,3,3,3,1,-9.359999999999999,1.18,0.28,3.48,-0.86,-2.17
0.1164870262145996,3,3,3,1,-9.380000000000001,1.37,0.51,3.72,-1.06,-1.87
0.1264870166778564,3,3,3,1,-9.5,1.47,0.7,2.9,-0.84,-1.35
0.1364870071411133,3,3,3,1,-9.619999999999999,1.38,0.84,2.25,-0.68,-1.1
0.1464869976043701,3,3,3,1,-9.5,0.98,0.8,2.01,-0.59,-0.9
0.156486988067627,3,3,3,1,-9.33,1.14,0.6899999999999999,1.73,-0.5600000000000001,-0.86
0.1664869785308838,3,3,3,1,-9.449999999999999,1.63,0.59,1.4,-0.37,-0.92
0.1764869689941406,3,3,3,1,-9.76,1.54,0.51,0.44,-0.3,-0.8
0.1864869594573975,3,3,3,1,-9.800000000000001,0.47,0.19,-0.75,-0.38,-0.48
0.1964869499206543,3,3,3,1,-9.869999999999999,-0.03,0.02,-1.58,-0.43,-0.03
0.2064869403839111,3,3,3,1,-9.92,-0.37,-0.06,-1.41,-0.72,0.34
0.216486930847168,3,3,3,1,-9.880000000000001,-0.44,0.09,-0.57,-0.97,0.42
0.2264869213104248,3,3,3,1,-9.960000000000001,0.12,0.52,0.42,-1.21,0.26
0.2364869117736816,3,3,3,1,-9.94,0.54,0.84,1.33,-1.4,-0.03
0.2464869022369385,3,3,3,1,-9.800000000000001,1.23,0.82,2.17,-1.57,-0.22
0.2564868927001953,3,3,3,1,-9.92,1.12,0.86,2.02,-1.3,-0.41
0.2664868831634521,3,3,3,1,-9.73,0.63,0.5600000000000001,1.42,-1.17,-0.21
0.276486873626709,3,3,3,1,-9.67,0.6899999999999999,0.28,1.26,-0.86,-0.15
0.2864868640899658,3,3,3,1,-9.76,0.6899999999999999,0.01,1.49,-0.54,-0.22
0.2964870929718018,3,3,3,1,-9.81,0.71,-0.14,1.52,-0.48,-0.32
0.3064870834350586,3,3,3,1,-9.800000000000001,0.79,-0.15,1.34,-0.55,-0.31
0.3164870738983154,3,3,3,1,-9.74,0.82,-0.04,1.45,-0.6899999999999999,-0.1
0.3264870643615723,3,3,3,1,-9.65,0.7,0.3,1.49,-1.05,0.02
0.3364870548248291,3,3,3,1,-9.74,0.63,0.47,1.31,-1.29,0.02
0.3464870452880859,3,3,3,1,-9.81,0.25,0.48,1.08,-1.38,0.09
0.3564870357513428,3,3,3,1,-9.69,0.37,0.52,1.2,-1.47,0.03
0.3664870262145996,3,3,3,1,-9.76,0.76,0.37,1.3,-1.52,-0.15
0.3764870166778564,3,3,3,1,-9.83,0.78,0.35,0.49,-1.41,-0.18
0.3864870071411133,3,3,3,1,-9.630000000000001,0.92,0.07000000000000001,-0.32,-1.4,-0.28
0.3964869976043701,3,3,3,1,-9.76,0.87,-0.14,-0.95,-1.15,-0.42
0.406486988067627,3,3,3,1,-9.859999999999999,0.75,-0.14,-1.57,-0.92,-0.46
0.4164869785308838,3,3,3,1,-9.82,0.72,0.07000000000000001,-1.89,-1,-0.31
0.4264869689941406,3,3,3,1,-10.04,0.28,-0.04,-2.12,-0.99,-0.26
0.4364869594573975,3,3,3,1,-10.18,-0.01,-0.06,-2.16,-0.85,-0.27
0.4474868774414062,3,3,3,1,-10.13,-0.27,-0.11,-2.4,-1.26,-0.07000000000000001
0.4574868679046631,3,3,3,1,-9.94,-0.21,0.1,-2.49,-1.49,-0.01
0.467487096786499,3,3,3,1,-9.85,-0.27,0.23,-2.4,-1.43,-0.17
0.4774870872497559,3,3,3,2,-9.82,0.03,0.32,-1.91,-1.25,-0.36
0.4874870777130127,3,3,3,2,-9.83,0.32,0.48,-1.1,-1.27,-0.42
0.4974870681762695,3,3,3,2,-9.81,0.65,0.47,-0.58,-1.29,-0.39
0.5074870586395264,3,3,3,2,-9.779999999999999,0.89,0.76,-0.68,-1.49,-0.17
0.5174870491027832,3,3,3,2,-9.75,0.71,0.72,-1.24,-1.47,0.11
0.52748703956604,3,3,3,2,-9.73,0.52,0.68,-1.52,-1.53,0.33
0.5374870300292969,3,3,3,2,-9.74,0.47,0.68,-1.29,-1.55,0.26
0.5474870204925537,3,3,3,2,-9.609999999999999,1.06,0.6,-0.34,-1.62,0.31
0.5574870109558105,3,3,3,2,-9.65,1.06,0.58,-0.22,-1.67,0.49
0.5674870014190674,3,3,3,2,-9.720000000000001,1,0.66,-0.58,-1.61,0.64
0.5774869918823242,3,3,3,2,-9.76,1.03,0.89,-0.48,-1.69,0.8100000000000001
0.5874869823455811,3,3,3,2,-9.75,1.22,0.95,-0.32,-1.78,0.95
0.5974869728088379,3,3,3,2,-9.789999999999999,1.21,0.83,-0.68,-1.66,1.16
0.6074869632720947,3,3,3,2,-9.67,1.36,0.95,-0.65,-1.6,1.31
0.6174869537353516,3,3,3,2,-9.550000000000001,1.53,1.18,-0.29,-1.85,1.41
0.6274869441986084,3,3,3,2,-9.390000000000001,1.66,1.26,-0.2,-1.87,1.5
0.6374869346618652,3,3,3,2,-9.35,1.82,1.17,0.32,-1.83,1.61
0.6474869251251221,3,3,3,2,-9.470000000000001,1.74,1.02,0.87,-1.61,1.61
0.6574869155883789,3,3,3,2,-9.470000000000001,1.78,1.12,1.13,-1.55,1.5
0.6674869060516357,3,3,3,2,-9.640000000000001,1.56,1.16,0.96,-1.35,1.43
0.6774868965148926,3,3,3,2,-9.800000000000001,1.21,1.35,1.04,-1.22,1.43
0.6874868869781494,3,3,3,2,-9.92,0.8,1.55,1.06,-1.13,1.52
0.7274870872497559,3,3,3,2,-9.81,0.46,1.74,1.43,-0.93,1.16
0.7374870777130127,3,3,3,2,-9.710000000000001,0.64,1.81,1.17,-0.46,0.79
0.7474870681762695,3,3,3,2,-9.85,0.43,1.65,0.98,0.2,0.45
0.7574870586395264,3,3,3,2,-9.91,0.35,1.44,0.66,0.78,0.13
0.7674870491027832,3,3,3,2,-9.74,0.6899999999999999,1.5,0.99,0.72,-0.05
0.77748703956604,3,3,3,2,-9.69,1.23,1.54,-0.71,0.5600000000000001,-0.07000000000000001
0.7874870300292969,3,3,3,2,-9.92,0.38,1.51,-0.71,0.5600000000000001,-0.07000000000000001
0.7974870204925537,3,3,3,2,-9.73,-0.36,1.56,-2.4,0.33,0.16
0.8074870109558105,3,3,3,2,-9.32,-0.45,1.59,-2.64,0.07000000000000001,-0.24
0.8174870014190674,3,3,3,2,-9.23,-0.73,1.58,-2.64,0.07000000000000001,-0.24
0.8274869918823242,3,3,3,2,-9.25,-0.28,1.43,-1.67,0.24,-0.65
0.8374869823455811,3,3,3,2,-9.32,0.04,1.51,-1.67,0.24,-0.65
0.8474869728088379,3,3,3,2,-9.380000000000001,0.41,1.52,-1.38,0.04,-0.39
0.8574869632720947,3,3,3,2,-9.359999999999999,1.1,1.17,-1.52,0.41,-0.46
0.8674869537353516,3,3,3,2,-9.4,0.66,1.06,-1.73,0.74,-0.54
0.8774869441986084,3,3,3,2,-9.529999999999999,0.14,0.97,-1,0.61,-0.73
0.8974869251251221,3,3,3,2,-9.74,0.9399999999999999,0.91,0.71,0.7,-1.09
0.9074869155883789,3,3,3,2,-9.85,0.74,0.6899999999999999,0.49,0.62,-1
0.9174869060516357,3,3,3,2,-9.539999999999999,0.79,0.6,-0.15,0.62,-0.96
0.9274868965148926,3,3,3,2,-9.32,0.96,0.5600000000000001,-1.3,1.04,-0.65
0.9374868869781494,3,3,3,2,-9.57,0.4,0.91,-2.21,1.09,-0.26
0.9474868774414062,3,3,3,2,-9.76,-0.02,1.16,-2.75,1.01,-0.16
0.9574868679046631,3,3,3,2,-9.83,-0.34,1.45,-2.46,0.96,-0.41
0.9874870777130127,3,3,3,2,-9.91,-0.9399999999999999,1.33,-0.46,1.03,-1.15
0.9974870681762695,3,3,3,2,-9.77,-0.72,1.1,0.6,0.92,-1.47
1.007487058639526,3,3,3,2,-9.66,-0.46,1.12,1.6,0.83,-1.72
1.017487049102783,3,3,3,2,-9.83,0.53,1.27,1.85,0.53,-1.91
1.02748703956604,3,3,3,2,-10.23,1.1,1.64,1.36,0.3,-1.64
1.037487030029297,3,3,3,2,-10.46,1.33,1.85,0.3,0.21,-1.27
1.047487020492554,3,3,3,2,-10.4,1.27,1.63,-0.71,0.62,-1.08
1.057487010955811,3,3,3,2,-10.11,1.09,1.38,-1.5,0.99,-1.03
1.067487001419067,3,3,3,2,-10.01,0.87,1.25,-1.81,1.28,-1.05
1.077486991882324,3,3,3,2,-10,0.75,1.11,-1.81,1.72,-0.97
1.087486982345581,3,3,3,2,-9.98,0.45,0.9,-1.24,2.29,-0.9399999999999999
1.097486972808838,3,3,3,2,-9.82,0.28,0.5,-0.08,2.62,-1.04
1.107486963272095,3,3,3,2,-9.640000000000001,0.25,0.3,0.91,2.63,-1.27
1.117486953735352,3,3,3,2,-9.640000000000001,0.19,0.15,1.66,2.31,-1.26
1.127486944198608,3,3,3,2,-9.69,0.05,0.14,2.39,1.67,-1.15
1.137486934661865,3,3,3,2,-9.56,0.77,0.23,2.87,1.21,-1.13
1.147486925125122,3,3,3,2,-9.630000000000001,0.91,0.25,3.01,1.05,-1
1.157486915588379,3,3,3,2,-9.69,0.91,0.38,3.17,0.97,-1.15
1.167486906051636,3,3,3,2,-9.65,1.21,0.45,3.05,1.09,-1.34
1.177486896514893,3,3,3,3,-9.880000000000001,1.11,0.51,2.14,1.32,-1.41
1.187486886978149,3,3,3,3,-9.76,1.23,0.58,1.73,1.48,-1.49
1.197486877441406,3,3,3,3,-9.76,1.17,0.57,1.22,1.9,-1.46
1.207486867904663,3,3,3,3,-9.720000000000001,0.99,0.49,0.87,2.09,-1.48
1.217487096786499,3,3,3,3,-9.81,0.64,0.42,0.58,2.11,-1.43
1.227487087249756,3,3,3,3,-9.789999999999999,0.42,0.38,0.67,2.01,-1.27
1.237487077713013,3,3,3,3,-9.699999999999999,0.39,0.25,1.35,2,-1.3
1.24748706817627,3,3,3,3,-9.69,0.61,0.08,2.14,1.9,-1.41
1.257487058639526,3,3,3,3,-9.640000000000001,0.99,0.02,2.65,1.86,-1.41
1.267487049102783,3,3,3,3,-9.6,1.16,0.01,2.71,1.78,-1.46
1.27748703956604,3,3,3,3,-9.73,1.25,0.03,2.37,1.81,-1.39
1.287487030029297,3,3,3,3,-9.779999999999999,1.21,0.16,2.07,1.61,-1.43
1.297487020492554,3,3,3,3,-9.77,0.95,0.24,1.92,1.5,-1.53
1.307487010955811,3,3,3,3,-9.77,0.73,0.24,1.77,1.56,-1.52
1.317487001419067,3,3,3,3,-9.720000000000001,0.59,0.27,1.87,1.53,-1.53
1.327486991882324,3,3,3,3,-9.68,0.38,0.27,1.93,1.47,-1.53
1.337486982345581,3,3,3,3,-9.74,0.25,0.14,2.13,1.49,-1.44
1.347486972808838,3,3,3,3,-9.710000000000001,0.29,0.04,2.24,1.44,-1.43
1.357486963272095,3,3,3,3,-9.699999999999999,0.33,0.02,2.02,1.42,-1.5
1.367486953735352,3,3,3,3,-9.779999999999999,0.35,0.03,1.77,1.35,-1.45
1.377486944198608,3,3,3,3,-9.93,0.23,0.1,1.46,1.35,-1.41
1.388486862182617,3,3,3,3,-9.92,0.34,0.12,1.34,0.99,-1.27
1.397486925125122,3,3,3,3,-9.890000000000001,0.43,0.16,1.17,0.71,-1.18
1.407486915588379,3,3,3,3,-9.84,0.2,0.18,0.59,0.79,-0.96
1.418487071990967,3,3,3,3,-9.890000000000001,-0.05,0.14,0.09,0.83,-0.73
1.427486896514893,3,3,3,2,-9.890000000000001,-0.45,0.11,-0.42,0.93,-0.53
1.437486886978149,3,3,3,2,-9.98,-0.72,0.02,-0.42,0.96,-0.3
1.448487043380737,3,3,3,2,-9.91,-0.6,0,-0.08,0.85,-0.3
1.457486867904663,3,3,3,2,-9.75,-0.54,0.04,0.13,0.77,-0.38
1.467487096786499,3,3,3,2,-9.67,-0.53,0.03,-0.01,0.72,-0.55
1.478487014770508,3,3,3,2,-9.630000000000001,-0.35,0.02,-0.06,0.47,-0.5600000000000001
1.488487005233765,3,3,3,2,-9.73,-0.08,0.03,-0.27,0.3,-0.49
1.498486995697021,3,3,3,2,-9.880000000000001,-0.06,-0.03,-0.55,0.2,-0.49
1.508486986160278,3,3,3,2,-9.890000000000001,-0.17,-0.07000000000000001,-0.89,0.21,-0.45
1.518486976623535,3,3,3,2,-9.93,-0.27,-0.19,-1.38,0.32,-0.14
1.528486967086792,3,3,3,2,-10.2,-0.76,0.05,-1.78,0.25,0.55
1.538486957550049,3,3,3,2,-10.14,-0.75,0.19,-1.1,0.11,1.16
1.548486948013306,3,3,3,2,-10.14,-0.5600000000000001,0.07000000000000001,-0.27,0.26,1.05
1.558486938476562,3,3,3,2,-9.99,-0.41,0,0.15,0.27,0.67
1.568486928939819,3,3,3,2,-9.6,-0.11,0.04,0.16,0.12,0.19
1.578486919403076,3,3,3,2,-9.5,0.16,-0.01,0.07000000000000001,0.16,-0.13
1.588486909866333,3,3,3,2,-9.6,0.31,-0.09,-0.33,0.22,-0.36
1.59848690032959,3,3,3,2,-9.75,0.28,-0.2,-0.78,0.37,-0.45
1.608486890792847,3,3,3,2,-9.9,0.15,-0.06,-0.99,0.33,-0.38
1.618486881256104,3,3,3,2,-9.880000000000001,0.17,0.02,-0.67,0.31,-0.46
1.62848687171936,3,3,3,2,-9.82,0.22,-0.04,-0.37,0.3,-0.59
1.638486862182617,3,3,3,2,-9.82,0.25,-0.02,-0.6899999999999999,0.05,-0.31
1.648487091064453,3,3,3,2,-9.84,-0.18,-0.03,-1.1,-0.21,0.21
1.65848708152771,3,3,3,2,-9.73,-0.07000000000000001,0.06,-0.8100000000000001,-0.33,0.32
1.668487071990967,3,3,3,2,-9.75,-0.11,0.09,-0.68,-0.24,0.45
1.678487062454224,3,3,3,2,-9.640000000000001,0.13,-0.01,-0.65,-0.22,0.39
1.68848705291748,3,3,3,2,-9.68,0.26,-0.06,-0.78,-0.23,0.5
1.698487043380737,3,3,3,2,-9.73,0.44,-0.2,-0.8100000000000001,-0.28,0.37
1.708487033843994,3,3,3,2,-9.789999999999999,0.6,-0.11,-1.36,-0.39,0.48
1.718487024307251,3,3,3,2,-9.94,0.22,0.06,-2.08,-0.34,0.95
1.728487014770508,3,3,3,2,-9.92,-0.08,0.16,-1.54,-0.33,0.93
1.738487005233765,3,3,3,2,-9.93,-0.04,0.05,-0.65,-0.23,0.61
1.748486995697021,3,3,3,2,-9.869999999999999,0.01,-0.15,-0.14,-0.27,0.58
1.758486986160278,3,3,3,2,-9.720000000000001,0.19,-0.15,-0.04,-0.44,0.67
1.768486976623535,3,3,3,2,-9.84,0.15,0.08,-0.71,-0.73,1.17
1.778486967086792,3,3,3,2,-9.800000000000001,0.12,0.09,-1.25,-0.9,1.59
1.788486957550049,3,3,3,2,-9.69,0.09,0.23,-1,-0.95,1.33
1.798486948013306,3,3,3,2,-9.69,0.15,0.07000000000000001,-0.67,-0.77,1.04
1.808486938476562,3,3,3,2,-9.65,0.5,0.03,-0.17,-0.62,0.57
1.818486928939819,3,3,3,2,-9.84,0.57,0.11,0.01,-0.46,0.22
1.828486919403076,3,3,3,2,-9.880000000000001,0.41,0.27,-0.14,-0.46,0.14
1.838486909866333,3,3,3,2,-9.960000000000001,0.39,0.34,-0.37,-0.5,0.26
1.84848690032959,3,3,3,2,-9.880000000000001,0.43,0.18,-0.66,-0.45,0.41
1.858486890792847,3,3,3,2,-9.69,0.33,0.1,-1.1,-0.22,0.29
1.868486881256104,3,3,3,2,-9.720000000000001,0.39,0.09,-0.9399999999999999,-0.13,0.12
1.87848687171936,3,3,3,2,-9.69,0.43,0.09,-0.63,-0.21,0.05
1.888486862182617,3,3,3,2,-9.67,0.62,0.04,-0.2,-0.25,-0.05
1.898487091064453,3,3,3,2,-9.779999999999999,0.68,-0.05,-0.27,-0.26,-0.01
1.90848708152771,3,3,3,2,-9.74,0.79,-0.09,-0.8100000000000001,-0.21,0.34
1.918487071990967,3,3,3,2,-9.75,0.71,-0.02,-1.04,-0.28,0.67
1.928487062454224,3,3,3,2,-9.9,0.43,0.06,-1.17,-0.24,0.75
1.93848705291748,3,3,3,2,-9.859999999999999,0.32,0.12,-1.08,-0.28,0.8100000000000001
1.948487043380737,3,3,3,2,-9.85,0.2,0.12,-0.8100000000000001,-0.25,0.6899999999999999
1.958487033843994,3,3,3,2,-9.76,0.12,0.17,-0.37,-0.31,0.49
1.968487024307251,3,3,3,2,-9.720000000000001,0.21,0.3,-0.04,-0.32,0.22
1.978487014770508,3,3,3,2,-9.75,0.34,0.37,-0.08,-0.31,0.08
1.988487005233765,3,3,3,2,-9.74,0.49,0.37,-0.28,-0.19,0.13
1.998486995697021,3,3,3,2,-9.77,0.51,0.22,-0.71,-0.08,0.22
2.008486986160278,3,3,3,2,-9.779999999999999,0.46,0.18,-1.07,0.03,0.27
2.018486976623535,3,3,3,2,-9.789999999999999,0.33,0.16,-1.05,0.06,0.19
2.028486967086792,3,3,3,2,-9.85,0.26,0.15,-0.75,0.03,0.1
2.038486957550049,3,3,3,2,-9.91,0.24,0.18,-0.54,0.01,0.05
2.048486948013306,3,3,3,2,-9.92,0.09,0.13,-0.76,0.04,0.14
2.058486938476562,3,3,3,2,-9.83,0,0.15,-0.9,-0.04,0.21
2.068486928939819,3,3,3,2,-9.76,0.02,0.28,-0.57,0,0.01
2.078486919403076,3,3,3,2,-9.83,0,0.23,-0.38,0.03,-0.09
2.088486909866333,3,3,3,2,-9.779999999999999,0.22,0.17,-0.44,-0.17,0
2.09848690032959,3,3,3,2,-9.77,0.27,0.1,-0.46,-0.23,0.08
2.108486890792847,3,3,3,2,-9.68,0.49,0.19,-0.43,-0.26,-0.01
2.118486881256104,3,3,3,2,-9.66,0.57,0.25,-0.49,-0.21,-0.08
2.12848687171936,3,3,3,2,-9.83,0.51,0.23,-0.91,-0.24,0.11
2.138486862182617,3,3,3,2,-9.789999999999999,0.47,0.26,-1.2,-0.33,0.28
2.148487091064453,3,3,3,2,-9.85,0.27,0.21,-1.3,-0.35,0.32
2.15848708152771,3,3,3,2,-9.9,0.14,0.17,-1.23,-0.21,0.38
2.168487071990967,3,3,3,2,-9.83,0.03,0.16,-1.22,-0.14,0.23
2.178487062454224,3,3,3,2,-9.75,0.1,0.27,-1.08,-0.29,0.16
2.18848705291748,3,3,3,2,-9.68,0.21,0.31,-0.88,-0.31,0.09
2.198487043380737,3,3,3,2,-9.789999999999999,0.31,0.02,-0.97,-0.21,0.27
2.208487033843994,3,3,3,2,-9.74,0.45,-0.03,-1.23,-0.2,0.55
2.218487024307251,3,3,3,2,-9.67,0.63,-0.04,-1.33,-0.15,0.73
2.228487014770508,3,3,3,2,-9.68,0.82,-0.02,-1.33,-0.09,0.84
2.238487005233765,3,3,3,2,-9.699999999999999,1.08,-0.06,-1.27,-0.16,1.03
2.248486995697021,3,3,3,2,-9.65,1.23,0.03,-1.23,-0.17,1.2
2.258486986160278,3,3,3,2,-9.69,1.22,0.05,-1.59,0,1.45
2.268486976623535,3,3,3,2,-9.75,1.31,0,-2.08,0.33,1.93
2.278486967086792,3,3,3,2,-9.76,1.28,-0.06,-2.57,0.32,2.3
2.288486957550049,3,3,3,2,-9.58,1.41,-0.05,-2.98,0.13,2.34
2.298486948013306,3,3,3,2,-9.5,1.4,-0.03,-2.96,0.05,2.12
2.308486938476562,3,3,3,2,-9.58,1.4,0.08,-2.89,-0.07000000000000001,1.97
2.318486928939819,3,3,3,2,-9.59,1.43,0.22,-3.18,-0.23,2.11
2.328486919403076,3,3,3,2,-9.6,1.21,0.37,-3.25,-0.43,2.13
2.338486909866333,3,3,3,2,-9.630000000000001,0.87,0.38,-3.1,-0.32,2.22
2.34848690032959,3,3,3,2,-9.65,0.57,0.17,-2.65,-0.12,2.2
2.358486890792847,3,3,3,2,-9.68,0.43,0.32,-1.65,-0.11,2.17
2.368486881256104,3,3,3,2,-9.6,0.46,0.49,-0.76,-0.2,2.13
2.37848687171936,3,3,3,2,-9.58,0.48,0.52,-0.11,-0.11,1.98
2.388486862182617,3,3,3,2,-9.619999999999999,0.29,0.55,0.41,0,1.96
2.398487091064453,3,3,3,2,-9.67,0.5,0.39,1.25,-0.12,1.99
2.40848708152771,3,3,3,2,-9.9,0.5,0.49,1.41,-0.21,2.11
2.418487071990967,3,3,3,2,-9.99,0.04,0.52,1.36,-0.41,2.37
2.428487062454224,3,3,3,2,-9.85,-0.05,0.31,1.41,-0.04,2.33
2.43848705291748,3,3,3,2,-9.880000000000001,-0.11,0.1,1.17,0.28,2.36
2.448487043380737,3,3,3,2,-10.01,-0.34,0.15,1.03,0.4,2.39
2.458487033843994,3,3,3,2,-9.92,-0.58,0.12,1.23,0.1,2.26
2.468487024307251,3,3,3,2,-9.75,-0.2,0.02,1.95,0.02,2.05
2.478487014770508,3,3,3,2,-9.550000000000001,1.31,0.31,3.02,-0.16,1.86
2.488487005233765,3,3,3,2,-9.31,1.78,0.24,3.12,-0.42,2.07
2.499486923217773,3,3,3,2,-9.07,2.61,-0.11,3.28,-0.25,2.35
2.50948691368103,3,3,3,2,-8.67,3.6,-0.18,3.72,-0.18,2.71
2.519486904144287,3,3,3,2,-7.98,5.96,-0.25,3.77,0.08,3.53
2.529486894607544,3,3,3,2,-7.62,7.62,0,3.48,0.54,4.28
2.539486885070801,3,3,3,2,-7.9,7.29,0.06,-0.22,1.03,5.9
2.549486875534058,3,3,3,2,-7.84,5.45,-0.03,-3.37,1.18,7.27
2.559486865997314,3,3,3,2,-7.22,4.58,0.24,-3.18,2.05,7.94
2.56948709487915,3,3,3,2,-7.57,4.15,0.1,-2.88,2.63,8.640000000000001
2.579487085342407,3,3,3,2,-7.44,3.87,0.14,-1.98,2,8.83
2.589487075805664,3,3,3,2,-7.13,2.93,0.08,-0.02,4.15,8.880000000000001
2.599487066268921,3,3,3,2,-6.53,2.13,-0.72,3.2,7.35,8.4
2.609487056732178,3,3,3,2,-6.91,2.47,-0.29,7.67,9.859999999999999,8.51
2.619487047195435,3,3,3,2,-7.9,2.57,-0.04,9.449999999999999,9.619999999999999,9.890000000000001
2.629487037658691,3,3,3,2,-8.52,2.34,0.32,9.220000000000001,7.03,11.41
2.639487028121948,3,3,3,2,-7.3,0.96,1.84,10.08,6.46,11.02
2.649487018585205,3,3,3,2,-8.09,-0.09,0.92,7.91,7.33,10.84
2.659487009048462,3,3,3,2,-9.56,0.05,-1,5.23,7.43,10.66
2.669486999511719,3,3,3,2,-10.76,0.89,-2.86,2.77,6.04,9.25
2.679486989974976,3,3,3,2,-9.83,2.64,-1.1,5.22,6.03,8.26
2.689486980438232,3,3,3,2,-9.34,3.31,-0.25,8.81,8.75,7.76
2.699486970901489,3,3,3,2,-10.07,3.33,-0.5600000000000001,7.09,10.85,8.65
2.709486961364746,3,3,3,2,-10.37,1.33,-1.19,3.86,11.58,9.380000000000001
2.719486951828003,3,3,3,2,-9.92,-1.21,-3.7,4.24,11.54,9.52
2.72948694229126,3,3,3,2,-10.18,-0.15,-2.65,8.49,10.87,10.19
2.739486932754517,3,3,3,2,-10.61,1.28,-2.02,14.02,12.04,10.32
2.75948691368103,3,3,3,2,-10.71,3.69,-1.01,7.29,10.57,10.08
2.769486904144287,3,3,3,2,-10.34,3.37,-0.8100000000000001,7.29,10.57,10.08
2.779486894607544,3,3,3,2,-10.09,2.89,-1.21,5.25,9.449999999999999,8.9
2.789486885070801,3,3,3,2,-9.67,3.17,-1.31,2.72,8.67,5.47
2.799486875534058,3,3,3,2,-9.19,2.27,-3.49,1.81,7.13,5.03
2.809486865997314,3,3,3,2,-9.4,2.17,-3.84,0.62,5.7,4.14
2.81948709487915,3,3,3,2,-9.630000000000001,3.31,-3.68,0.62,5.7,4.14
2.829487085342407,3,3,3,2,-9.49,2.59,-3.53,0.22,4.89,3.17
2.839487075805664,3,3,3,2,-10.66,2.86,-2.62,2.05,3.59,2
2.849487066268921,3,3,3,2,-11.19,3.61,-2.83,2.48,2.64,0.82
2.859487056732178,3,3,3,2,-11.65,4.21,-3.56,2.62,1.81,-0.72
2.869487047195435,3,3,3,2,-11.85,4.82,-3.29,2.62,1.81,-0.72
2.879487037658691,3,3,3,2,-11.65,4.19,-3.04,1.81,1.41,-0.88
2.889487028121948,3,3,3,2,-12.09,3.59,-2.94,0.42,-0.02,-2.04
2.899487018585205,3,3,3,2,-12.27,2.73,-1.78,-1.58,-1.7,-2.89
2.909487009048462,3,3,3,2,-12.27,1.23,-0.67,-2.52,-3.83,-3.8
2.919486999511719,3,3,3,2,-11.86,-1.7,0.97,-2.52,-3.83,-3.8
2.929486989974976,3,3,3,2,-12.73,-2.39,3.3,-2.77,-5.88,-4.75
2.939486980438232,3,3,3,2,-12.37,-3.48,2.98,-5.78,-11.85,-7.25
2.949486970901489,3,3,3,2,-12.68,-5.19,-0.41,-3.11,-15.19,-9.18
2.959486961364746,3,3,3,2,-20.81,5.92,-2.55,-8.16,-20.34,-13.59
2.969486951828003,3,3,3,2,-24.19,6.53,-2.92,-8.16,-20.34,-13.59
2.97948694229126,3,3,3,2,-27.01,3.53,-1.98,-13.92,-22.52,-16.81
2.989486932754517,3,3,3,2,-29.52,-8.9,-2.73,-8.630000000000001,-22.83,-12.48
2.999486923217773,3,3,3,2,-31.26,-9.619999999999999,-0.06,-4.38,-24.66,-11.24
3.00948691368103,3,3,3,2,-31.54,-11.63,0.13,-1.4,-27.14,-10.99
3.019486904144287,3,3,3,2,-33.8,-12.67,0.32,-1.4,-27.14,-10.99
3.029486894607544,3,3,3,2,-39.1,-8.34,0.36,0.13,-27.69,-12.2
3.039486885070801,3,3,3,2,-39.14,-0.21,1.09,-1.65,-20.31,-12.24
3.049486875534058,3,3,3,2,-36.86,7.7,0.9399999999999999,-10.68,-11.36,-11.13
3.059486865997314,3,3,3,2,-31.19,9.35,0.53,-14.7,-2.19,-16.77
3.06948709487915,3,3,3,2,-7.16,0.18,-7.44,-14.7,-2.19,-16.77
3.079487085342407,3,3,3,2,7.25,16.79,-9,9.09,3.67,-20.04
3.089487075805664,3,3,3,2,6.9,38.73,-11.32,25.41,-15.24,-10.68
3.099487066268921,3,3,3,2,7.1,38.73,-5.78,6.44,-5.3,-8.970000000000001
3.109487056732178,3,3,3,2,-5.79,2.73,-6.25,5.35,4.07,-10.67
3.119487047195435,3,3,3,2,-6.17,4.13,-0.9399999999999999,5.35,4.07,-10.67
3.129487037658691,3,3,3,2,-0.62,12.46,-0.72,10.15,0.31,-5.74
3.139487028121948,3,3,3,2,0.95,7.89,-0.39,1.31,3.61,-0.02
3.149487018585205,3,3,3,2,-0.26,-2.1,0.88,-0.11,5.11,-1.08
3.159487009048462,3,3,3,2,-1.54,-4.19,-0.14,-4.64,4.93,-2
3.169486999511719,3,3,3,2,-1.41,-6.35,-1.46,-4.64,4.93,-2
3.179486989974976,3,3,3,2,0.45,-8.19,-1.02,-9.25,3.64,-2.19
3.189486980438232,3,3,3,2,2.03,-8.279999999999999,-0.59,-9.33,1.04,-0.92
3.199486970901489,3,3,3,2,0.57,-7.05,0.37,-6.2,-2.48,-0.23
3.209486961364746,3,3,3,2,1.91,-4.13,1.55,-4.62,-2.15,-2.24
3.219486951828003,3,3,3,2,0.9399999999999999,-1.4,2.62,-4.62,-2.15,-2.24
3.22948694229126,3,3,3,2,-1.34,1.26,2.32,-5.99,-0.01,-1.34
3.239486932754517,3,3,3,2,-0.09,1.12,1.24,-4.95,4.12,-0.99
3.249486923217773,3,3,3,2,0.79,1.59,0.16,-3.83,3.06,-0.34
3.25948691368103,3,3,3,2,0.85,1.75,-0.09,-2.45,1.68,0.49
3.269486904144287,3,3,3,2,1.01,1.99,0.52,-2.45,1.68,0.49
3.279486894607544,3,3,3,2,0.96,1.04,-0.62,-3.41,2.06,1.16
3.289486885070801,3,3,3,2,-0.38,0.51,-0.74,-2.94,0.84,0.72
3.299486875534058,3,3,3,2,-0.17,0.26,-0.98,-0.75,-0.67,0.95
3.309486865997314,3,3,3,2,0.12,1.42,-0.16,0.41,-1.97,1.13
3.31948709487915,3,3,3,2,0.1,2.34,0.43,0.41,-1.97,1.13
3.329487085342407,3,3,3,2,0.32,2.85,0.48,0.68,-2.59,1.59
3.339487075805664,3,3,3,2,-0.32,2.77,-0.05,0.62,-2.09,1.47
3.349487066268921,3,3,3,2,-0.19,1.89,-0.1,0.91,-2.05,1.69
3.359487056732178,3,3,3,2,0.18,1.03,0.29,-0.25,-1.72,1.73
3.369487047195435,3,3,3,2,0.59,0.08,0.52,-0.25,-1.72,1.73
3.379487037658691,3,3,3,2,0.63,-0.79,0.91,-1.5,-1.48,2.04
3.389487028121948,3,3,3,2,0.91,-1.08,0.38,-4.17,-0.12,2.85
3.399487018585205,3,3,3,2,0.53,-1.16,0.19,-4.63,-0.73,3.3
3.409487009048462,3,3,3,2,0.59,-1.05,0.33,-4.3,-1.48,3.8
3.419486999511719,3,3,3,2,0.9,-1.08,0.8100000000000001,-4.3,-1.48,3.8
3.429486989974976,3,3,3,2,1.54,-0.13,0.53,-3.89,-1.71,3.9
3.439486980438232,3,3,3,2,0.44,-0.13,0.02,-2.74,-1.84,3.25
3.449486970901489,3,3,3,2,0.28,0.18,-0.35,-0.93,-1.96,3.02
3.459486961364746,3,3,3,2,-0.29,0.59,-0.74,2.64,-3.43,2.57
3.469486951828003,3,3,3,2,-0.6899999999999999,4.34,0.59,2.64,-3.43,2.57
3.47948694229126,3,3,3,2,-0.15,6.74,0.62,6.51,-5.52,2.82
3.489486932754517,3,3,3,2,1.1,10.08,0.43,12.83,0.11,0.57
3.499486923217773,3,3,3,2,1,12.37,-0.6899999999999999,11.53,5.4,-1.13
3.50948691368103,3,3,3,2,-1.74,13.46,-6.91,-0.23,5.36,-0.22
3.519486904144287,3,3,3,2,-4.41,10.83,-7.46,-0.23,5.36,-0.22
3.530487060546875,3,3,3,2,-5.76,0.64,-6.17,-13.55,0.04,2.18
3.540487051010132,3,3,3,2,-11.79,0.68,-2.13,12.82,-19.4,-0.31
3.550487041473389,3,3,3,2,-29.94,17.07,-0.87,-10.68,1.73,0.3
3.560487031936646,3,3,3,2,-39.19,-38.97,-6.54,8.56,2.37,3.33
3.570487022399902,3,3,3,2,-38.02,-17.9,-9.83,8.56,2.37,3.33
3.580487012863159,3,3,3,2,-28.28,18.91,-10.39,26.53,12.82,2.94
3.590487003326416,3,3,3,2,-30.92,23.07,-4.43,33.93,-7.86,9.390000000000001
3.600486993789673,3,3,3,2,-39.19,38.73,25.98,23.64,8.51,14.67
3.61048698425293,3,3,3,2,-38.57,36.78,24.17,-40.71,65.42,8.81
3.620486974716187,3,3,3,2,-27.24,-16.22,12.18,-40.71,65.42,8.81
3.630486965179443,3,3,3,2,-18.26,-39.51,-0.95,-61.7,37.39,2.12
3.6404869556427,3,3,3,2,-8.84,-39.56,2.79,45.24,6.67,18.1
3.650486946105957,3,3,3,2,-11.23,-24.73,0.49,49.65,-2.29,2.18
3.660486936569214,3,3,3,2,-16.14,0.42,-1.82,34.67,-9.49,-3.92
3.670486927032471,3,3,3,2,-17.31,16.21,2.34,34.67,-9.49,-3.92
3.680486917495728,3,3,3,2,-16.54,4.51,1.61,7.21,-3.94,2.85
3.690486907958984,3,3,3,2,-12.66,-11.26,-5.49,-14.17,-1.48,-1.25
3.700486898422241,3,3,3,2,-17.18,-3.26,-4.24,-10.64,-2.28,-4.43
3.710486888885498,3,3,3,2,-16,1.67,-6.34,-6.95,-1.82,-2.52
3.720486879348755,3,3,3,2,-17.79,5.36,-3.68,-6.95,-1.82,-2.52
3.730486869812012,3,3,3,2,-19.05,7.78,-2.47,-10.82,-0.68,-2.99
3.740487098693848,3,3,3,2,-17.26,5.26,-1.63,-10.87,1.42,-6.36
3.750487089157104,3,3,3,2,-11.38,-4.29,-1.11,-7.59,1,-7.14
3.760487079620361,3,3,3,2,-9.85,-5.85,-1.36,-3.25,-0.32,-7.64
3.770487070083618,3,3,3,2,-8.94,-4.96,-1.68,-3.25,-0.32,-7.64
3.780487060546875,3,3,3,2,-10.01,-1.75,-0.35,5.15,-1.43,-7.48
3.790487051010132,3,3,3,2,-10.27,0.67,0.36,17.38,-4.58,-5.88
3.800487041473389,3,3,3,2,-10.88,3.25,1.13,14.03,-5.15,-5.4
3.810487031936646,3,3,3,2,-10.42,3.39,1.02,9.609999999999999,-6.15,-4.92
3.820487022399902,3,3,3,2,-8.66,3.31,0.83,9.609999999999999,-6.15,-4.92
3.840487003326416,3,3,3,2,-7.44,4.44,0.96,-4.22,-5.45,-4.16
3.850486993789673,3,3,3,2,-5.81,3.78,0.15,-8.039999999999999,-4.3,-4.85
3.86048698425293,3,3,3,2,-5.59,1.26,-0.62,-10,-3.95,-5.16
3.870486974716187,3,3,3,2,-5.48,0.27,-0.9,-10,-3.95,-5.16
3.880486965179443,3,3,3,2,-5.71,0.38,-1.04,-11.47,-3.71,-5.19
3.8904869556427,3,3,3,2,-6.35,0.32,-1.51,-11.71,-2.36,-5.23
3.900486946105957,3,3,3,2,-6.53,1.41,-2.1,-10.91,-1.8,-5.6
3.910486936569214,3,3,3,2,-7.52,4.37,-2.05,-10.86,-1.23,-4.48
3.920486927032471,3,3,3,2,-7.9,4.27,-1.93,-10.86,-1.23,-4.48
3.930486917495728,3,3,3,2,-8.210000000000001,5.1,-1.5,-9.550000000000001,-1.05,-4.49
3.940486907958984,3,3,3,2,-8.67,5.31,-0.62,-10.45,-0.95,-3.96
3.950486898422241,3,3,3,2,-8.09,4.56,-0.34,-10.58,0.17,-3.21
3.960486888885498,3,3,3,2,-8.460000000000001,3.7,-0.43,-9.460000000000001,-0.33,-2.71
3.970486879348755,3,3,3,2,-9.109999999999999,3.08,0.22,-9.460000000000001,-0.33,-2.71
3.980486869812012,3,3,3,2,-9.960000000000001,2.08,1.01,-6.64,-1.55,-2.4
3.990487098693848,3,3,3,2,-10.29,1.53,0.95,-4.4,-1.05,-1.72
4.000487089157104,3,3,3,2,-10.21,0.9399999999999999,0.87,-3.59,-0.31,-1.18
4.010487079620361,3,3,3,2,-10.06,-0.07000000000000001,0.65,-1.76,0.33,-1.24
4.020487070083618,3,3,3,2,-10.33,-0.54,0.23,-1.76,0.33,-1.24
4.030487060546875,3,3,3,1,-10.53,0.55,-0.21,0.89,0.36,-1.35
4.040487051010132,3,3,3,1,-10.61,1.74,-0.21,4.52,-0.2,-0.89
4.050487041473389,3,3,3,1,-10.46,1.88,-0.03,4.01,0.22,-0.74
4.060487031936646,3,3,3,1,-9.890000000000001,1.76,-0.14,2.58,0.8,-0.75
4.070487022399902,3,3,3,1,-9.9,1.36,-0.27,2.58,0.8,-0.75
4.080487012863159,3,3,3,1,-9.84,0.77,-0.58,1.23,1.23,-0.97
4.090487003326416,3,3,3,1,-9.710000000000001,0.42,-0.73,0.55,0.5600000000000001,-1.69
4.100486993789673,3,3,3,1,-9.9,0.84,-0.74,0.89,-0.51,-1.47
4.11048698425293,3,3,3,1,-9.6,1.14,-0.29,0.86,-1.04,-1.64
4.120486974716187,3,3,3,1,-9.210000000000001,1.68,-0.06,0.86,-1.04,-1.64
4.130486965179443,3,3,3,1,-9.09,0.68,-0.02,0.42,-0.99,-1.89
4.1404869556427,3,3,3,1,-9.16,1.64,-0.2,0.91,-0.5,-1.2
4.150486946105957,3,3,3,1,-9.18,2.51,-0.15,-0.37,-0.38,-1.04
4.160486936569214,3,3,3,1,-8.880000000000001,1.87,-0.09,-1.64,0.02,-1.21
4.170486927032471,3,3,3,1,-8.85,1.29,-0.01,-1.64,0.02,-1.21
4.180486917495728,3,3,3,1,-9.369999999999999,-0.15,-0.18,-2.16,0.6899999999999999,-1.1
4.190486907958984,3,3,3,1,-9.539999999999999,-0.5600000000000001,-0.29,-0.64,0.63,-0.88
4.200486898422241,3,3,3,1,-9.539999999999999,-0.68,-0.5600000000000001,0.32,0.17,-0.98
4.210486888885498,3,3,3,1,-9.58,-0.55,-0.74,0.8100000000000001,-0.16,-0.9399999999999999
4.220486879348755,3,3,3,1,-9.58,-0.18,-0.67,0.8100000000000001,-0.16,-0.9399999999999999
4.230486869812012,3,3,3,1,-9.68,-0.12,-0.97,0.98,-0.2,-1.09
4.240487098693848,3,3,3,1,-10,0.5600000000000001,-0.99,1.17,-1.23,-0.79
4.250487089157104,3,3,3,1,-10.3,1.3,-0.73,0.8,-1.75,-0.66
4.260487079620361,3,3,3,1,-10.35,1.34,0.31,-0.59,-1.24,-0.79
4.270487070083618,3,3,3,1,-10.32,0.65,0.49,-0.59,-1.24,-0.79
4.280487060546875,3,3,3,1,-9.94,0.07000000000000001,0.44,-1.61,-0.63,-0.8100000000000001
4.290487051010132,3,3,3,1,-9.710000000000001,-0.23,0.3,-1.91,0.48,-1.12
4.300487041473389,3,3,3,1,-9.73,-0.26,0.12,-2,0.46,-1.25
4.310487031936646,3,3,3,1,-9.51,-0.15,0.12,-1.98,0.5,-1.34
4.320487022399902,3,3,3,1,-9.56,-0.25,0.04,-1.98,0.5,-1.34
4.330487012863159,3,3,3,2,-9.65,-0.45,-0.07000000000000001,-1.95,0.5600000000000001,-1.05
4.340487003326416,3,3,3,2,-9.550000000000001,-0.37,-0.26,-0.83,0.3,-1.06
4.350486993789673,3,3,3,2,-9.640000000000001,-0.44,0.02,-0.67,0.53,-1.15
4.36048698425293,3,3,3,2,-10.36,-0.74,-0.14,-0.19,0.22,-1.17
4.370486974716187,3,3,3,2,-10.95,-0.37,-0.32,-0.19,0.22,-1.17
4.380486965179443,3,3,3,2,-9.94,0.67,0.62,1.74,-1.02,-1.07
4.3904869556427,3,3,3,2,-10.02,0.6,0.22,0,0.37,-0.89
4.400486946105957,3,3,3,2,-10.02,0.29,-0.36,-0.39,0.03,-0.91
4.410486936569214,3,3,3,2,-9.67,0.22,-0.32,0.6,-0.13,-1.1
4.420486927032471,3,3,3,2,-8.98,0.49,-0.36,0.6,-0.13,-1.1
4.430486917495728,3,3,3,2,-9.029999999999999,0.79,-0.61,1.54,0.07000000000000001,-1.25
4.440486907958984,3,3,3,2,-9.199999999999999,1.36,-0.79,3.62,-0.87,-0.61
4.450486898422241,3,3,3,2,-9.25,2.03,-0.89,3.62,-1.24,-0.2
4.460486888885498,3,3,3,2,-9.67,3.14,-0.71,2.41,-1.21,0.37
4.470486879348755,3,3,3,2,-10.07,2.93,-0.54,2.41,-1.21,0.37
4.480486869812012,3,3,3,2,-10.15,1.99,-0.22,0.43,-1.07,0.99
4.490487098693848,3,3,3,2,-10.11,1.05,-0.1,-0.55,-0.24,1.01
4.500487089157104,3,3,3,2,-10,-0.04,0.08,-0.06,-0.2,0.91
4.510487079620361,3,3,3,2,-9.73,-0.23,0.09,0.78,-0.26,0.75
4.520487070083618,3,3,3,2,-9.56,-0.04,-0.05,0.78,-0.26,0.75
4.530487060546875,3,3,3,2,-9.5,0.4,-0.31,1.05,-0.27,0.6899999999999999
4.540487051010132,3,3,3,2,-9.279999999999999,0.93,-0.41,0.67,-0.84,0.97
4.551486968994141,3,3,3,2,-9.31,1.04,-0.4,0.03,-0.65,1.17
4.561486959457397,3,3,3,2,-9.609999999999999,1.16,-0.19,-0.74,-0.8100000000000001,1.27
4.571486949920654,3,3,3,2,-10.22,0.53,0.34,-0.74,-0.8100000000000001,1.27
4.581486940383911,3,3,3,2,-10.14,0.16,0.51,-1.27,-0.88,1.4
4.591486930847168,3,3,3,2,-10.09,0.15,0.47,-0.17,-0.34,0.78
4.601486921310425,3,3,3,2,-9.98,0.11,0.35,-0.52,-0.07000000000000001,0.82
4.611486911773682,3,3,3,2,-9.73,-0.02,0.03,-1.7,0.12,1.08
4.621486902236938,3,3,3,2,-9.66,0.16,-0.26,-1.7,0.12,1.08
4.631486892700195,3,3,3,2,-9.359999999999999,0.43,-0.22,-2.64,0.05,1.38
4.641486883163452,3,3,3,2,-9.26,0.29,-0.18,-3.43,0.36,1.79
4.651486873626709,3,3,3,2,-9.74,0.4,-0.34,-2.98,0.31,2.2
4.661486864089966,3,3,3,2,-9.76,0.85,-0.24,-2.31,-0.32,1.94
4.671487092971802,3,3,3,2,-9.710000000000001,1.08,-0.01,-2.31,-0.32,1.94
4.681487083435059,3,3,3,2,-9.74,1.34,0.14,-1.48,-0.92,1.44
4.691487073898315,3,3,3,2,-9.52,1.74,0.07000000000000001,-0.65,-1.04,1.59
4.701487064361572,3,3,3,2,-9.19,2.1,-0.08,-0.43,-0.83,1.83
4.711487054824829,3,3,3,2,-9.08,2.38,-0.15,-1.22,-0.64,2.4
4.721487045288086,3,3,3,2,-8.960000000000001,2.39,-0.38,-1.22,-0.64,2.4
4.731487035751343,3,3,3,2,-8.359999999999999,3,-0.3,-1.61,-0.64,2.52
4.7414870262146,3,3,3,2,-8.449999999999999,3.65,-0.43,0.24,-0.84,2.66
4.751487016677856,3,3,3,2,-8.289999999999999,4.35,-0.53,1.02,-1.31,3.05
4.761487007141113,3,3,3,2,-8.59,5.02,-0.39,1.66,-1.58,3.5
4.77148699760437,3,3,3,2,-8.050000000000001,6.88,-0.17,1.66,-1.58,3.5
4.781486988067627,3,3,3,2,-7.85,7.51,0,1.97,-1.42,4.14
4.791486978530884,3,3,3,2,-7.88,7.12,0,-1.55,0.93,6.39
4.801486968994141,3,3,3,2,-7.56,6.61,-0.03,-1.16,1.88,7.47
4.811486959457397,3,3,3,2,-7.07,5.71,0.6,-2.44,2.77,8.84
4.821486949920654,3,3,3,2,-7.08,3.64,0.46,-2.44,2.77,8.84
4.831486940383911,3,3,3,2,-7.28,1.36,0.31,-3.9,3.96,9.58
4.841486930847168,3,3,3,2,-7.08,-0.84,-0.01,0.05,6.38,8.130000000000001
4.851486921310425,3,3,3,2,-7.92,-1.69,-1.48,4.28,8.09,8.26
4.861486911773682,3,3,3,2,-8.74,-0.89,-1.05,8.31,6.36,9.1
4.871486902236938,3,3,3,2,-8.550000000000001,0.07000000000000001,-0.72,8.31,6.36,9.1
4.881486892700195,3,3,3,2,-8.31,0.85,-1.11,12.32,7.62,10.1
4.891486883163452,3,3,3,2,-8.24,5.37,-0.99,14.16,12.2,9.09
4.901486873626709,3,3,3,2,-8.800000000000001,5.98,-0.09,7.15,12.65,10.55
4.911486864089966,3,3,3,2,-9.029999999999999,3.34,-0.21,1.02,14.96,11.67
4.921487092971802,3,3,3,2,-9.44,0.33,-1.3,1.02,14.96,11.67
4.931487083435059,3,3,3,2,-9.550000000000001,-3.83,-3.25,-2.32,11.84,9.380000000000001
4.941487073898315,3,3,3,2,-9.48,-2.76,-2.28,3.61,8.710000000000001,9.550000000000001
4.951487064361572,3,3,3,2,-10.16,-1.51,-1.89,7.03,9.26,8.52
4.961487054824829,3,3,3,2,-11.74,0.19,-2.33,8.960000000000001,10.06,8.039999999999999
4.971487045288086,3,3,3,2,-13.34,4.89,0,8.960000000000001,10.06,8.039999999999999
4.981487035751343,3,3,3,2,-12.65,3.22,0.52,7.77,11.89,7.93
4.9914870262146,3,3,3,2,-11.45,0.9399999999999999,-0.27,4.45,14.29,10.81
5.001487016677856,3,3,3,2,-10.05,0.06,-0.4,5.74,13.36,12.7
5.011487007141113,3,3,3,2,-9.02,0.59,-0.41,4.76,11.26,13.27
5.02148699760437,3,3,3,2,-9.24,0.37,-0.99,4.76,11.26,13.27
5.031486988067627,3,3,3,2,-9.41,1.51,-1.18,5.07,9.02,12.02
5.041486978530884,3,3,3,2,-10.19,2.94,-2.03,3.79,5.36,6.77
5.051486968994141,3,3,3,2,-11.13,5.14,-2.27,2.74,4.6,5.66
5.061486959457397,3,3,3,2,-10.81,4.25,-3.03,0.66,4.4,5.62
5.071486949920654,3,3,3,2,-10.17,3.87,-4.23,0.66,4.4,5.62
5.081486940383911,3,3,3,2,-10.14,4.87,-4.2,0.98,4.73,5.62
5.091486930847168,3,3,3,2,-9.19,1.05,-5.48,-1.48,3.51,4.41
5.101486921310425,3,3,3,2,-8.93,1.41,-4.76,-0.36,2.52,2.2
5.111486911773682,3,3,3,2,-9.67,2.09,-4.03,-0.74,1.06,0.41
5.121486902236938,3,3,3,2,-11.02,1.5,-3.57,-0.74,1.06,0.41
5.131486892700195,3,3,3,2,-13.6,3.02,-1.41,-0.14,-0.18,-2.04
5.141486883163452,3,3,3,2,-14.77,2.46,-0.43,-2.69,-3.21,-5.26
5.151486873626709,3,3,3,2,-14.68,1.39,0.06,-5.92,-4.8,-6.33
5.161486864089966,3,3,3,2,-14.55,1.97,1.8,-8.220000000000001,-7.33,-6.35
5.171487092971802,3,3,3,2,-13.7,1,1.52,-8.220000000000001,-7.33,-6.35
5.181487083435059,3,3,3,2,-13.84,4.1,1.67,-7.15,-9.609999999999999,-5.55
5.191487073898315,3,3,3,2,-15.71,3.91,-2.78,-6.74,-14.72,-8.58
5.201487064361572,3,3,3,2,-17.88,1.98,-4.26,-7.67,-17.57,-11.59
5.211487054824829,3,3,3,2,-21.82,-1.07,-6.12,-8.06,-20.05,-14
5.221487045288086,3,3,3,2,-24.16,-1.96,-5.56,-8.06,-20.05,-14
5.231487035751343,3,3,3,2,-26.46,-4.57,-3.72,-5.53,-21.78,-15.52
5.2414870262146,3,3,3,2,-28.94,-6.76,-1.45,-0.7,-24.33,-17.06
5.251487016677856,3,3,3,2,-36.05,-8.789999999999999,1.43,-0.59,-26.73,-14.77
5.261487007141113,3,3,3,2,-39.19,-6.99,2.99,-5.03,-25.91,-10.26
5.27148699760437,3,3,3,2,-38.33,-7.09,3.55,-5.03,-25.91,-10.26
5.281486988067627,3,3,3,2,-37.09,-1,5.21,-4.02,-24.56,-8.35
5.291486978530884,3,3,3,2,-28.31,8,4.27,-14.44,-14.93,-11.8
5.301486968994141,3,3,3,2,-15.56,4.49,-0.36,-13.55,-0.54,-17.93
5.311486959457397,3,3,3,2,0.09,5.72,-10.57,8.16,4.09,-17.22
5.321486949920654,3,3,3,2,9.550000000000001,38.73,-7.42,8.16,4.09,-17.22
5.331486940383911,3,3,3,2,-0.84,35.21,-4.88,19.66,-7.25,-8.85
5.341486930847168,3,3,3,2,-4.97,13.28,-1.28,-1.28,-6.67,-10.74
5.351486921310425,3,3,3,2,-5.29,4.61,0.55,2.97,-4.36,-5.99
5.361486911773682,3,3,3,2,-1.75,6.08,-0.49,1.52,-2.46,-2.33
5.371486902236938,3,3,3,2,-2.21,4.5,-0.71,1.52,-2.46,-2.33
5.381486892700195,3,3,3,2,-2.34,-0.2,-1.47,-2.96,-1.6,1.45
5.391486883163452,3,3,3,2,-1.34,-6.96,-1.94,-16.77,3.09,-3.55
5.401486873626709,3,3,3,2,0.77,-11.69,-1.2,-14.44,2.74,-3.07
5.411486864089966,3,3,3,2,2.37,-10.55,-0.39,-10.73,1.48,-1.34
5.421487092971802,3,3,3,2,3.01,-7.25,0,-10.73,1.48,-1.34
5.431487083435059,3,3,3,2,2.28,-3.33,-0.13,-9.550000000000001,1,-0.36
5.441487073898315,3,3,3,2,1.19,1.27,0.84,-8.17,-0.09,-1.18
5.451487064361572,3,3,3,2,-1.07,5.93,0,-6.28,-0.5600000000000001,1.61
5.461487054824829,3,3,3,2,-0.9399999999999999,7.64,0.72,-5.69,0.72,1.97
5.471487045288086,3,3,3,2,-0.43,7.63,-0.17,-5.69,0.72,1.97
5.481487035751343,3,3,3,2,0.88,3.01,-1.69,-1.59,1.67,1.58
5.4914870262146,3,3,3,2,0.78,-0.82,-0.63,6.91,1.23,2.39
5.501487016677856,3,3,3,2,0.1,-1.85,-0.75,10.65,1.52,2.76
5.511487007141113,3,3,3,2,0.21,-0.9,-1.36,9.98,1.32,3.04
5.52148699760437,3,3,3,2,0.02,-3.73,-1.08,9.98,1.32,3.04
5.531486988067627,3,3,3,2,-0.33,-3.39,-0.31,6.68,1.13,2.7
5.541486978530884,3,3,3,2,-0.75,-1.14,-0.18,1.66,-0.01,1.36
5.551486968994141,3,3,3,2,-0.16,2.01,0.74,-1.65,-1.02,1.27
5.561486959457397,3,3,3,2,1.27,3.61,1.05,-3.55,-0.39,0.87
5.572486877441406,3,3,3,2,0,1.7,0.75,-3.55,-0.39,0.87
5.582486867904663,3,3,3,2,0.89,0.9,0.32,-3.64,-0.09,0.38
5.592487096786499,3,3,3,2,0.88,0.6,-0.12,-1.17,1.81,0.19
5.602487087249756,3,3,3,2,0.8,-0.55,0.19,-2.24,1.71,0.4
5.612487077713013,3,3,3,2,0.5600000000000001,-1.32,0.5,-2.24,0.97,0.14
5.62248706817627,3,3,3,2,0,-2.47,0.63,-2.24,0.97,0.14
5.632487058639526,3,3,3,2,-0.15,-4.09,0.68,-1.3,0.49,0.29
5.642487049102783,3,3,3,2,-0.23,-2.42,0.99,5.93,-0.55,0.11
5.65248703956604,3,3,3,2,-0.68,-0.07000000000000001,1.1,9.390000000000001,-1.13,0.16
5.662487030029297,3,3,3,2,-0.38,1.82,1.05,12.34,-1.7,0.17
5.672487020492554,3,3,3,2,-0.38,3.02,0.8100000000000001,12.34,-1.7,0.17
5.682487010955811,3,3,3,2,-0.44,5.5,-0.74,15.09,-1.11,-0.29
5.692487001419067,3,3,3,2,-0.64,8.5,-0.14,15.72,-0.33,-0.63
5.702486991882324,3,3,3,2,-0.07000000000000001,11.09,0.12,10.52,0.61,-0.13
5.712486982345581,3,3,3,2,0.58,12.5,-0.88,2.16,4.13,0.06
5.722486972808838,3,3,3,2,-1.27,11.6,-3.06,2.16,4.13,0.06
5.732486963272095,3,3,3,2,-2.46,7.48,-2.68,-8.210000000000001,5.46,-0.03
5.742486953735352,3,3,3,2,-1.99,0.15,-0.83,-24.88,3.94,0.83
5.752486944198608,3,3,3,2,-4.74,-7.38,-6.85,-9.19,-4.38,0.04
5.762486934661865,3,3,3,2,-28.12,35.12,1.23,5.18,-9.99,0.92
5.772486925125122,3,3,3,2,-38.38,-13.77,-6.31,5.18,-9.99,0.92
5.782486915588379,3,3,3,2,-39.19,-1.63,-8.789999999999999,-10.5,-7.48,4.16
5.792486906051636,3,3,3,2,-39.02,38.73,-10.73,31.23,13.88,17.02
5.802486896514893,3,3,3,2,-19,-19.39,5.26,6,26.71,26.42
5.812486886978149,3,3,3,2,-29.99,-11.9,12.15,4.66,16.86,5.89
5.822486877441406,3,3,3,2,-38.65,-2.77,8.85,4.66,16.86,5.89
5.832486867904663,3,3,3,2,-35.93,-11.05,12.07,2.61,14.95,1.43
5.842487096786499,3,3,3,2,-13.9,-21.95,8.199999999999999,5.31,16.51,8.44
5.852487087249756,3,3,3,2,-13.28,-16.94,6.9,12.99,8.029999999999999,4.54
5.862487077713013,3,3,3,2,-18.19,-7.61,4.69,8.02,0.44,2.54
5.87248706817627,3,3,3,2,-23.84,-1.58,2.28,8.02,0.44,2.54
5.882487058639526,3,3,3,2,-22.58,-9.16,-0.2,-1.21,-1.78,0.38
5.892487049102783,3,3,3,2,-15.28,-12.45,-3.2,-12.41,1.04,-1.49
5.90248703956604,3,3,3,2,-11.88,-9,-5.62,-10.54,-0.77,-1.22
5.912487030029297,3,3,3,2,-13.36,-2.58,-7.47,-4.97,-1.29,-3.41
5.922487020492554,3,3,3,2,-16.83,7.1,-4.88,-4.97,-1.29,-3.41
5.932487010955811,3,3,3,2,-15.58,9.039999999999999,-1.02,2.26,-1.77,-7.08
5.942487001419067,3,3,3,2,-13.62,4.19,-1.18,6.49,1.42,-5.49
5.952486991882324,3,3,3,2,-10.37,-3.27,-3.05,7.84,0.71,-4.99
5.962486982345581,3,3,3,2,-7.43,-1.25,-2.37,12.18,-0.49,-4.71
5.972486972808838,3,3,3,2,-8.119999999999999,3.62,-0.7,12.18,-0.49,-4.71
5.982486963272095,3,3,3,2,-7.8,6.17,-0.47,9.4,-2.56,-3.95
5.992486953735352,3,3,3,2,-6.57,5.02,-0.6899999999999999,-2.54,-6.61,-3.68
6.002486944198608,3,3,3,2,-5.61,1.95,-1.32,-3.36,-6.09,-4.57
6.012486934661865,3,3,3,2,-6.43,0.66,-1.29,-1.77,-7.03,-5.42
6.022486925125122,3,3,3,2,-6.87,1.38,-0.8,-1.77,-7.03,-5.42
6.032486915588379,3,3,3,2,-6.65,2.97,-0.24,-1.15,-7.02,-4.81
6.042486906051636,3,3,3,2,-5.64,3.15,-0.93,-6.74,-5.45,-4.57
6.052486896514893,3,3,3,2,-6.08,3.63,-1.96,-7.52,-5.25,-4.62
6.062486886978149,3,3,3,2,-7.32,4.91,-1.77,-6.95,-4.6,-3.68
6.072486877441406,3,3,3,2,-7.13,5.33,-2.05,-6.95,-4.6,-3.68
6.082486867904663,3,3,3,2,-7.04,4.27,-1.99,-6.01,-3.06,-3.78
6.092487096786499,3,3,3,2,-8.24,5.88,-1.5,-5.71,-2.42,-2.93
6.102487087249756,3,3,3,2,-8.34,7.42,-0.45,-6.47,-3.13,-3.13
6.112487077713013,3,3,3,2,-8.859999999999999,5.47,0.74,-7.9,-2.1,-2.29
6.12248706817627,3,3,3,2,-8.34,3.7,0.62,-7.9,-2.1,-2.29
6.132487058639526,3,3,3,2,-8.06,2.29,0.5600000000000001,-8.49,0.09,-1.79
6.142487049102783,3,3,3,2,-8.289999999999999,1.8,0.27,-6.46,0.09,-1.18
6.15248703956604,3,3,3,2,-8.869999999999999,1.31,0.2,-4.33,-0.1,-0.5
6.162487030029297,3,3,3,2,-9.1,1.08,0.04,-1.48,-0.05,-0.25
6.172487020492554,3,3,3,2,-9.5,0.85,-0.31,-1.48,-0.05,-0.25
6.182487010955811,3,3,3,2,-10.06,0.93,-0.57,-0.02,-0.8,-0.28
6.192487001419067,3,3,3,2,-11.05,2.09,-0.57,-0.4,-0.89,-0.5600000000000001
6.202486991882324,3,3,3,2,-10.84,2.07,-0.37,-3.25,0.09,-0.6899999999999999
6.212486982345581,3,3,3,2,-10.57,1.92,-0.41,-5.34,1.13,-1.09
6.222486972808838,3,3,3,2,-10.41,0.8100000000000001,-0.85,-5.34,1.13,-1.09
6.232486963272095,3,3,3,2,-10.29,-0.33,-0.48,-5.39,1.18,-1.56
6.242486953735352,3,3,3,2,-10.06,0,-0.07000000000000001,-4.53,-0.02,-1.41
6.252486944198608,3,3,3,2,-10.4,0.26,0.21,-3.44,-0.24,-1.02
6.262486934661865,3,3,3,2,-10.46,-0.65,0.77,-1.75,-0.62,-1.59
6.272486925125122,3,3,3,2,-10.14,-1.16,1.38,-1.75,-0.62,-1.59
6.282486915588379,3,3,3,2,-10.4,-0.54,1.23,-0.01,-0.98,-1.58
6.292486906051636,3,3,3,2,-10.25,0.02,1.22,0.59,-0.72,-1.49
6.302486896514893,3,3,3,2,-9.970000000000001,0.34,1.39,0.19,-0.01,-1.49
6.312486886978149,3,3,3,2,-9.699999999999999,0.02,0.61,0.34,0.64,-1.58
6.322486877441406,3,3,3,2,-9.69,0.19,0.17,0.34,0.64,-1.58
6.332486867904663,3,3,3,2,-9.65,0.65,-0.15,0.47,0.82,-1.6
6.342487096786499,3,3,3,2,-9.449999999999999,1.12,-0.26,0.54,0.24,-1.42
6.352487087249756,3,3,3,2,-9.369999999999999,1.57,-0.71,0.8100000000000001,-0.19,-1.52
6.362487077713013,3,3,3,2,-9.130000000000001,1.96,-0.89,0.65,-0.55,-1.43
6.37248706817627,3,3,3,2,-9.06,2.74,-0.93,0.65,-0.55,-1.43
6.382487058639526,3,3,3,2,-9.4,2.74,-0.67,0.3,-1.32,-1.12
6.392487049102783,3,3,3,2,-9.25,2.57,-0.42,0.91,-1.72,-0.58
6.40248703956604,3,3,3,2,-9.83,2.47,-0.12,0.9399999999999999,-1.67,-0.37
6.412487030029297,3,3,3,2,-9.27,2.13,0.35,0.73,-1.24,-0.66
6.422487020492554,3,3,3,2,-9.27,2.13,0.35,0.73,-1.24,-0.66
6.432487010955811,3,3,3,2,-9.24,1.31,0.17,-0.11,-0.78,-0.5600000000000001
6.442487001419067,3,3,3,2,-9.369999999999999,1.59,0.43,-0.65,-0.16,-0.05
6.452486991882324,3,3,3,2,-9.52,1.31,0.4,-1.14,0.42,-0.12
6.462486982345581,3,3,3,2,-9.539999999999999,1.49,0.1,-0.85,0.8100000000000001,-0.09
6.472486972808838,3,3,3,2,-9.539999999999999,1.49,0.1,-0.85,0.8100000000000001,-0.09
6.482486963272095,3,3,3,2,-9.529999999999999,1.65,-0.31,-1.18,0.96,0.17
6.492486953735352,3,3,3,2,-9.710000000000001,1.12,-0.46,-1.23,0.4,0.45
6.502486944198608,3,3,3,2,-10.28,0.31,-0.41,-0.95,0.36,0.71
6.512486934661865,3,3,3,2,-10.21,-0.12,-0.51,-0.64,-0.09,0.78
6.522486925125122,3,3,3,2,-10.21,-0.12,-0.51,-0.64,-0.09,0.78
6.532486915588379,3,3,3,2,-9.76,-0.55,-0.28,-0.04,-0.5600000000000001,0.39
6.542486906051636,3,3,3,2,-9.779999999999999,-0.5,-0.19,2.32,-2.08,0.28
6.552486896514893,3,3,3,2,-9.82,0.08,0.16,2.67,-2.63,0.33
6.562486886978149,3,3,3,2,-10.19,0.58,0.15,1.96,-2.13,0.57
6.572486877441406,3,3,3,2,-10.19,0.58,0.15,1.96,-2.13,0.57
6.582486867904663,3,3,3,2,-10.01,0.8,0.23,1.79,-2.33,0.63
6.592487096786499,3,3,3,2,-9.65,0.7,0.79,2.25,-1.75,0.48
6.603487014770508,3,3,3,2,-9.76,0.8,0.66,2.12,-1.6,0.75
6.613487005233765,3,3,3,2,-9.85,0.98,0.55,1.76,-1.39,0.82
6.623486995697021,3,3,3,2,-9.85,0.98,0.55,1.76,-1.39,0.82
6.633486986160278,3,3,3,2,-9.75,1.16,0.28,0.87,-1.11,0.74
6.643486976623535,3,3,3,2,-9.66,0.8,-0.34,-0.09,-0.41,0.67
6.653486967086792,3,3,3,2,-9.68,1.05,-0.49,0.35,-0.57,0.45
6.663486957550049,3,3,3,2,-9.710000000000001,1.87,-0.07000000000000001,0.9,-0.89,0.26
6.673486948013306,3,3,3,2,-9.710000000000001,1.87,-0.07000000000000001,0.9,-0.89,0.26
6.683486938476562,3,3,3,2,-9.619999999999999,2.2,0.13,1.15,-1.34,0.2
6.693486928939819,3,3,3,2,-9.48,2.08,0.34,-0.11,-1.45,0.92
6.703486919403076,3,3,3,2,-9.48,0.96,0.58,-0.55,-1.29,1.17
6.713486909866333,3,3,3,2,-9.550000000000001,0.51,0.65,-0.35,-0.84,0.99
6.72348690032959,3,3,3,2,-9.550000000000001,0.51,0.65,-0.35,-0.84,0.99
6.733486890792847,3,3,3,2,-9.9,-0.01,0.51,-0.4,-0.5,0.88
6.743486881256104,3,3,3,2,-9.9,0.42,0.39,1.28,-0.99,0.45
6.75348687171936,3,3,3,2,-9.77,1.04,0.46,1.99,-1.06,0.15
6.763486862182617,3,3,3,2,-9.720000000000001,1.61,0.43,1.61,-1.08,0.08
6.773487091064453,3,3,3,2,-9.720000000000001,1.61,0.43,1.61,-1.08,0.08
6.78348708152771,3,3,3,2,-9.66,2.04,0.4,0.83,-1.03,0.12
6.793487071990967,3,3,3,2,-9.41,2.18,0.12,-0.68,-0.18,-0.01
6.803487062454224,3,3,3,2,-9.619999999999999,2.07,0.18,-0.67,-0.09,0.09
6.81348705291748,3,3,3,2,-9.66,1.5,0.2,-0.62,-0.13,0.11
6.823487043380737,3,3,3,2,-9.66,1.5,0.2,-0.62,-0.13,0.11
6.833487033843994,3,3,3,2,-9.76,1.4,0.34,0.06,-0.35,0.01
6.843487024307251,3,3,3,2,-9.81,1.02,0.39,0.88,-0.65,0.02
6.853487014770508,3,3,3,2,-9.57,1.06,0.67,1.17,-0.91,-0.07000000000000001
6.863487005233765,3,3,3,2,-9.609999999999999,1.14,0.6899999999999999,0.96,-0.89,-0.1
6.873486995697021,3,3,3,2,-9.609999999999999,1.14,0.6899999999999999,0.96,-0.89,-0.1
6.883486986160278,3,3,3,2,-9.6,1.16,0.64,0.55,-0.93,-0.01
6.893486976623535,3,3,3,2,-9.5,1.67,0.46,0.28,-0.45,0.12
6.903486967086792,3,3,3,2,-9.710000000000001,1.68,0.36,-0.18,-0.04,0.17
6.913486957550049,3,3,3,2,-9.779999999999999,1.48,0.23,-0.71,0.1,0.25
6.923486948013306,3,3,3,2,-9.779999999999999,1.48,0.23,-0.71,0.1,0.25
6.933486938476562,3,3,3,2,-9.640000000000001,1.49,0.28,-0.44,-0.03,0.2
6.943486928939819,3,3,3,2,-9.73,1.5,0.12,-0.48,0.4,-0.18
6.953486919403076,3,3,3,2,-9.779999999999999,1.33,0.04,0.22,0,-0.09
6.963486909866333,3,3,3,2,-9.58,1.47,0.1,0.91,-0.33,-0.1
6.97348690032959,3,3,3,2,-9.58,1.47,0.1,0.91,-0.33,-0.1
6.983486890792847,3,3,3,2,-9.26,1.89,0.39,1.23,-0.26,-0.17
6.993486881256104,3,3,3,2,-9.550000000000001,2.13,0.31,0.97,-0.01,0.26
7.00348687171936,3,3,3,2,-9.41,2.42,0.4,1.03,0.15,0.59
7.013486862182617,3,3,3,2,-9.17,2.58,0.52,0.76,0.48,0.67
7.023487091064453,3,3,3,2,-9.17,2.58,0.52,0.76,0.48,0.67
7.03348708152771,3,3,3,2,-9.220000000000001,2.47,0.43,0.23,0.85,0.98
7.043487071990967,3,3,3,2,-8.82,2.77,0.11,1.24,0.7,1.49
7.053487062454224,3,3,3,2,-8.220000000000001,4.48,-0.16,2.21,0.65,1.71
7.06348705291748,3,3,3,2,-7.88,5.8,-0.11,2.27,1.16,2.16
7.073487043380737,3,3,3,2,-7.88,5.8,-0.11,2.27,1.16,2.16
7.083487033843994,3,3,3,2,-7.68,6.7,-0.06,1.03,1.92,3.19
7.093487024307251,3,3,3,2,-6.95,6.85,0.2,-2.07,3.96,5.63
7.103487014770508,3,3,3,2,-7.22,5.54,0.05,-2.71,4.82,6.7
7.113487005233765,3,3,3,2,-7.11,4.77,0.1,-1.49,5.31,7.21
7.123486995697021,3,3,3,2,-7.11,4.77,0.1,-1.49,5.31,7.21
7.133486986160278,3,3,3,2,-7.16,4.92,0.32,-0.77,5.91,7.27
7.143486976623535,3,3,3,2,-6.9,4.5,-0.47,0.57,5.3,8.02
7.153486967086792,3,3,3,2,-6.37,4.25,-0.41,1.1,7.6,7.65
7.163486957550049,3,3,3,2,-6.13,3.25,-0.39,0.85,11.55,7.84
7.173486948013306,3,3,3,2,-6.13,3.25,-0.39,-0.66,14.35,8.67
7.183486938476562,3,3,3,2,-7.32,1.21,-1.63,-0.66,14.35,8.67
7.193486928939819,3,3,3,2,-7.88,-2.23,-2.43,-1.2,7.52,11.76
7.203486919403076,3,3,3,2,-8.220000000000001,-1.83,-1.65,4.05,7.56,10.89
7.213486909866333,3,3,3,2,-10.02,1.1,-2.4,6.53,5.92,9.109999999999999
7.22348690032959,3,3,3,2,-10.02,1.1,-2.4,6.53,5.92,9.109999999999999
7.233486890792847,3,3,3,2,-10.62,1.58,-1.01,9.74,7.65,7.45
7.243486881256104,3,3,3,2,-11.08,1.75,-1.11,8.140000000000001,10.94,7.84
7.25348687171936,3,3,3,2,-10.23,-0.07000000000000001,-1.44,8.359999999999999,13.62,8.449999999999999
7.263486862182617,3,3,3,2,-9.529999999999999,-0.95,-0.82,7.16,14.44,9.039999999999999
7.273487091064453,3,3,3,2,-9.529999999999999,-0.95,-0.82,3.58,12.43,10.72
7.28348708152771,3,3,3,2,-9.859999999999999,-1.49,-0.73,1.38,9.84,11.3
7.293487071990967,3,3,3,2,-12.65,2.36,-0.49,3.83,9.43,11.14
7.303487062454224,3,3,3,2,-13.56,4.23,-0.17,5.99,9.49,10.08
7.31348705291748,3,3,3,2,-13.38,5.49,0.68,5.95,9.73,8.380000000000001
7.323487043380737,3,3,3,2,-13.38,5.49,0.68,5.47,10.46,8.130000000000001
7.333487033843994,3,3,3,2,-11.51,4.34,0,5.69,10.76,10.64
7.343487024307251,3,3,3,2,-7.43,-0.13,-1.71,3.74,9.15,10.88
7.353487014770508,3,3,3,2,-7.61,-1.08,-3.09,3.34,7.33,8.75
7.363487005233765,3,3,3,2,-9.34,-0.36,-4.33,5.11,5.41,6.7
7.373486995697021,3,3,3,2,-9.34,-0.36,-4.33,6.92,3.9,4.29
7.383486986160278,3,3,3,2,-11.99,5.15,-3.93,4.92,3.21,2.75
7.393486976623535,3,3,3,2,-12.24,3.8,-3.67,1.09,2.86,2.17
7.403486967086792,3,3,3,2,-11.77,3.5,-3.25,-1.77,2.35,2.24
7.413486957550049,3,3,3,2,-10.55,2.2,-3.19,-3.84,1.54,1.57
7.423486948013306,3,3,3,2,-10.55,2.2,-3.19,-3.84,1.54,1.57
7.433486938476562,3,3,3,2,-11.1,2.15,-3.34,-4.29,0.42,-0.37
7.443486928939819,3,3,3,2,-13.48,0.65,-0.98,-5.22,-3.23,-6.8
7.453486919403076,3,3,3,2,-15.51,0.17,0.74,-7.23,-5.63,-8.470000000000001
7.463486909866333,3,3,3,2,-16.82,1.47,0.18,-9.380000000000001,-9.1,-8.83
7.47348690032959,3,3,3,2,-16.82,1.47,0.18,-9.380000000000001,-9.1,-8.83
7.483486890792847,3,3,3,2,-18.05,4.22,0.33,-8.18,-11.43,-8.859999999999999
7.493486881256104,3,3,3,2,-20.8,1.34,-2.02,-11.7,-16.16,-10.19
7.50348687171936,3,3,3,2,-22.29,-0.64,-2.81,-13,-18.61,-10.49
7.513486862182617,3,3,3,2,-24.62,-2.07,-3.33,-7.91,-20.65,-12.89
7.523487091064453,3,3,3,2,-24.62,-2.07,-3.33,-7.91,-20.65,-12.89
7.53348708152771,3,3,3,2,-25.73,-4.96,-2.81,-0.5600000000000001,-21.95,-15.42
7.543487071990967,3,3,3,2,-31.34,-6.35,-0.97,4.16,-21.51,-14.79
7.553487062454224,3,3,3,2,-33.33,-5.87,0.16,5.26,-17.43,-11.99
7.56348705291748,3,3,3,2,-33.49,-5.78,-0.11,3.2,-14.48,-12.09
7.573487043380737,3,3,3,2,-33.49,-5.78,-0.11,3.2,-14.48,-12.09
7.583487033843994,3,3,3,2,-31.3,1.55,0.73,-1.05,-16.99,-11.35
7.593487024307251,3,3,3,2,-19.25,8.65,3.28,-18.06,-9.73,-14.2
7.603487014770508,3,3,3,2,-4.93,0.24,-5.84,-17.43,-1.33,-15.35
7.613487005233765,3,3,3,2,1.65,7.11,-10.22,7.67,-0.39,-17.68
7.624486923217773,3,3,3,2,1.65,7.11,-10.22,33.09,-9.52,-14.66
7.63448691368103,3,3,3,2,4.64,25.49,-8.43,36.27,-14.56,-6.49
7.644486904144287,3,3,3,2,-4.77,12.22,-5.46,11.45,-8.050000000000001,-2.16
7.654486894607544,3,3,3,2,-5.55,1.06,0.51,-3.71,-1.23,-4.88
7.664486885070801,3,3,3,2,-1.39,9.130000000000001,0.92,3.97,-2.15,-4.5
7.674486875534058,3,3,3,2,-1.39,9.130000000000001,0.92,5.84,-0.1,-3.01
7.684486865997314,3,3,3,2,0.6899999999999999,11.2,-0.71,2.65,1.32,-2.81
7.69448709487915,3,3,3,2,-0.16,-3.38,-0.2,0.43,1.85,-3.7
7.704487085342407,3,3,3,2,0.22,-3.98,-1.09,-3.72,2.57,-3.71
7.714487075805664,3,3,3,2,1.63,-5.49,-0.98,-7.6,2.33,-3.58
7.724487066268921,3,3,3,2,1.63,-5.49,-0.98,-10.37,2.02,-2.15
7.734487056732178,3,3,3,2,3.34,-5.53,-0.34,-14.44,1.1,-0.86
7.744487047195435,3,3,3,2,2.18,-4.06,1.16,-14.23,-0.33,-0.27
7.754487037658691,3,3,3,2,0.6899999999999999,-2.42,1.46,-12.1,-0.99,-2.25
7.764487028121948,3,3,3,2,-1.39,1.16,0.85,-9.199999999999999,-1.38,-0.08
7.774487018585205,3,3,3,2,-1.39,1.16,0.85,-9.199999999999999,-1.38,-0.08
7.784487009048462,3,3,3,2,-1.61,1.28,0.31,-7.12,-0.7,0.75
7.794486999511719,3,3,3,2,-0.8100000000000001,2.06,-0.36,-2.22,-0.17,1.2
7.804486989974976,3,3,3,2,-0.19,0.75,0.09,-2.31,0.74,0.9399999999999999
7.814486980438232,3,3,3,2,-0.09,-0.82,-0.21,-3.68,1.56,1.7
7.824486970901489,3,3,3,2,-0.09,-0.82,-0.21,-3.68,1.56,1.7
7.834486961364746,3,3,3,2,-0.22,-2,0.04,-4.28,1.62,1.26
7.844486951828003,3,3,3,2,-0.48,-0.26,-0.02,-1.22,0.33,2.81
7.85448694229126,3,3,3,2,-0.52,0.32,0.11,1.73,-1.32,2.89
7.864486932754517,3,3,3,2,-0.21,0.84,-0.2,4.96,-2.45,2.97
7.874486923217773,3,3,3,2,-0.21,0.84,-0.2,4.96,-2.45,2.97
7.88448691368103,3,3,3,2,0.2,0.99,-0.65,7.74,-3.15,2.97
7.894486904144287,3,3,3,2,0.32,0.39,-0.28,8.34,-3.77,2.74
7.904486894607544,3,3,3,2,0.59,0.12,-0.08,6.41,-3.45,2.55
7.914486885070801,3,3,3,2,0.78,0.22,-0.06,3.74,-2.88,2.07
7.954487085342407,3,3,3,2,-0.23,0.19,-0.03,-4.09,-1.5,1.6
7.964487075805664,3,3,3,2,0.22,-0.17,-0.01,-3.58,-1.67,1.41
7.974487066268921,3,3,3,2,0.22,-0.17,-0.01,-1.48,-1.25,1.35
7.984487056732178,3,3,3,2,0.01,2.71,-0.8,2.44,-0.74,1.62
7.994487047195435,3,3,3,2,-0.24,4.85,-1.57,5.73,0.99,1.72
8.004487037658691,3,3,3,2,0.59,9.57,-2.25,7.29,1.77,1.61
8.014487028121948,3,3,3,2,0.43,11.44,-3.17,5.65,2.42,0.62
8.024487018585205,3,3,3,2,0.43,11.44,-3.17,-5.01,2.1,0.84
8.034487009048462,3,3,3,2,-1.55,10.51,-4.32,-20,-2.03,2.25
8.044486999511719,3,3,3,2,-2.88,36.63,3.58,-13.85,-19.6,0.36
8.054486989974976,3,3,3,2,-19.17,22.02,6.06,5.95,-16.22,1.47
8.064486980438232,3,3,3,2,-32.84,-39.71,-10.77,-26.58,5.42,-2.88
8.074486970901489,3,3,3,2,-32.84,-39.71,-10.77,18.79,-3.73,-2.05
8.084486961364746,3,3,3,2,-39.19,-21.98,-10.96,35.84,11.95,13.4
8.094486951828003,3,3,3,2,-28.41,15.67,-5.36,11,14.62,21.75
8.10448694229126,3,3,3,2,-32.73,38.73,34.85,41.36,-11.84,13.59
8.114486932754517,3,3,3,2,-35.24,36.34,26.35,11.22,23.02,10.04
8.124486923217773,3,3,3,3,-35.24,36.34,26.35,11.22,23.02,10.04
8.13448691368103,3,3,3,3,-30,-39.71,-0.9399999999999999,-45.18,26.91,-1.7
8.144486904144287,3,3,3,3,-10.64,-39.38,-3.69,11.76,10.18,10.17
8.154486894607544,3,3,3,3,-8.83,-23.89,-3.95,65.25,4.24,9.15
8.164486885070801,3,3,3,3,-20.85,20.31,3.02,60.76,-6.03,1.77
8.174486875534058,3,3,3,3,-20.85,20.31,3.02,60.76,-6.03,1.77
8.184486865997314,3,3,3,3,-24.39,21.68,6.52,-21.38,-2.61,0.17
8.19448709487915,3,3,3,3,-20.46,-4.07,-1.18,-38.55,1.13,-3.79
8.204487085342407,3,3,3,3,-17.46,-3.9,-0.61,-33.68,0.91,-3.2
8.214487075805664,3,3,3,3,-17.06,-0.89,2.81,-21.03,-0.09,0.12
8.224487066268921,3,3,3,3,-17.06,-0.89,2.81,-22.59,0.84,-4.99
8.234487056732178,3,3,3,3,-15.76,-1.68,1.4,-14.8,0.2,-9.07
8.244487047195435,3,3,3,3,-11.37,-7.07,-2.07,1.97,-2.61,-6.88
8.254487037658691,3,3,3,3,-11.76,-2.67,0.98,20.64,-3.04,-7.28
8.264487028121948,3,3,3,3,-12.04,0.02,1,23.58,-3.15,-7.68
8.274487018585205,3,3,3,2,-10.55,1.35,0.85,19.89,-2.69,-7.61
8.284487009048462,3,3,3,2,-6.05,3.33,-0.29,12.4,-4.84,-7.54
8.294486999511719,3,3,3,2,-5.84,2.91,-0.01,4.19,-6.33,-6.49
8.304486989974976,3,3,3,2,-5.64,2.59,0.42,-2.14,-6.82,-6.32
8.314486980438232,3,3,3,2,-6.58,3.42,-0.16,-7.46,-6.68,-6.55
8.324486970901489,3,3,3,2,-6.76,3.55,-0.58,-9.800000000000001,-6.03,-5.98
8.334486961364746,3,3,3,2,-6.76,3.55,-0.58,-8.08,-4.87,-4.77
8.344486951828003,3,3,3,2,-6.48,4.08,-0.77,-5.52,-4.84,-4.18
8.35448694229126,3,3,3,2,-5.74,5.22,0.3,-2.71,-5.65,-4.31
8.364486932754517,3,3,3,2,-5.55,4.98,-0.13,-2.69,-5.34,-4.08
8.374486923217773,3,3,3,2,-5.55,4.98,-0.13,-2.65,-5.68,-3.36
8.38448691368103,3,3,3,2,-6.13,6.6,1.16,-3.22,-5.09,-2.37
8.394486904144287,3,3,3,2,-7.26,6.68,0.88,-5.44,-3.58,-1.81
8.404486894607544,3,3,3,2,-7.7,6.37,0.92,-7.61,-2.37,-1.42
8.414486885070801,3,3,3,2,-8.289999999999999,6.14,0.64,-7.84,-0.9,-0.66
8.424486875534058,3,3,3,2,-8.289999999999999,6.14,0.64,-7.72,0.04,-0.29
8.434486865997314,3,3,3,2,-8.43,4.94,0.33,-6.52,0.06,-0.01
8.44448709487915,3,3,3,2,-8.68,2.68,-0.03,-4.79,-0.19,0.72
8.454487085342407,3,3,3,2,-8.42,1.65,-0.28,-3.81,0.39,0.97
8.464487075805664,3,3,3,2,-8.82,1.1,-0.74,-2.48,0.48,0.98
8.474487066268921,3,3,3,2,-8.82,1.1,-0.74,-0.15,-0.41,0.82
8.484487056732178,3,3,3,2,-9.74,2.25,-0.33,-0.33,-1.39,1.14
8.494487047195435,3,3,3,2,-10.32,1.19,0.03,0.34,-1.9,0.88
8.504487037658691,3,3,3,2,-10.43,0.76,0.54,0.45,-2.47,0.57
8.514487028121948,3,3,3,2,-10.59,0.97,1.05,0.5600000000000001,-2.24,0.25
8.524487018585205,3,3,3,2,-10.5,1.08,1.36,0.55,-1.72,-0.1
8.534487009048462,3,3,3,2,-10.22,0.87,1.63,0.37,-1.2,-0.46
8.544486999511719,3,3,3,2,-9.84,0.82,1.36,-0.09,-0.17,-0.66
8.554486989974976,3,3,3,2,-9.85,1.14,0.95,-1.2,0.68,-0.86
8.564486980438232,3,3,3,2,-9.99,0.67,0.88,-1.87,0.98,-0.62
8.574486970901489,3,3,3,2,-9.99,0.67,0.88,-1.87,0.98,-0.62
8.584486961364746,3,3,3,2,-10.01,0.95,0.66,-0.62,0.68,-0.33
8.594486951828003,3,3,3,2,-9.619999999999999,0.78,0.79,-0.36,0.25,-0.71
8.60448694229126,3,3,3,2,-9.68,0.72,0.96,-0.58,0.15,-0.9399999999999999
8.614486932754517,3,3,3,2,-9.710000000000001,0.64,0.95,-0.21,0.17,-1.18
8.624486923217773,3,3,3,2,-9.710000000000001,0.64,0.95,0.24,0.19,-1.27
8.63448691368103,3,3,3,2,-9.710000000000001,0.63,0.78,0.89,-0.21,-1.34
8.644486904144287,3,3,3,2,-9.42,1.57,0.8100000000000001,0.84,-0.42,-1.46
8.655487060546875,3,3,3,2,-9.279999999999999,1.86,0.6,0.34,-0.26,-1.46
8.665487051010132,3,3,3,2,-9.27,1.1,0.4,0.26,-0.21,-1.33
8.675487041473389,3,3,3,2,-9.27,1.1,0.4,1.04,-0.5,-0.8100000000000001
8.685487031936646,3,3,3,2,-8.91,2.47,0.42,1.55,-1.05,-0.5600000000000001
8.695487022399902,3,3,3,2,-9.06,2.76,0.27,1.67,-1.17,-0.49
8.705487012863159,3,3,3,2,-9.359999999999999,2.93,0.54,1.56,-1.05,-0.2
8.715487003326416,3,3,3,2,-9.699999999999999,2.42,0.82,1.02,-0.96,0.2
8.725486993789673,3,3,3,2,-9.25,1.75,1.03,0.38,-0.76,0.57
8.73548698425293,3,3,3,2,-9.23,1.18,0.9399999999999999,-0.3,-0.48,0.19
8.745486974716187,3,3,3,2,-9.75,0.51,0.6899999999999999,-0.46,0.07000000000000001,0.27
8.755486965179443,3,3,3,2,-9.94,0.64,0.71,-0.06,-0.19,0.22
8.7654869556427,3,3,3,2,-9.94,0.79,0.92,0.78,-0.53,0.15
8.775486946105957,3,3,3,2,-9.94,0.79,0.92,1.03,-0.43,0.13
8.785486936569214,3,3,3,2,-9.93,1.03,0.86,0.87,-0.37,-0.04
8.795486927032471,3,3,3,2,-9.75,0.92,0.73,0.42,-0.45,0
8.805486917495728,3,3,3,2,-9.619999999999999,0.97,0.77,0.4,-0.59,0
8.815486907958984,3,3,3,2,-9.56,1.33,0.89,0.87,-0.47,0.02
8.825486898422241,3,3,3,2,-9.56,1.33,0.89,1.22,-0.35,-0.06
8.835486888885498,3,3,3,2,-9.6,1.65,0.86,1.34,-0.39,-0.13
8.845486879348755,3,3,3,2,-9.67,1.48,0.6,1.2,-0.35,-0.16
8.855486869812012,3,3,3,2,-9.630000000000001,1.51,0.47,0.86,-0.27,0
8.865487098693848,3,3,3,2,-9.59,1.5,0.49,0.62,-0.44,0.1
8.875487089157104,3,3,3,2,-9.65,0.85,0.68,0.58,-0.52,0.06
8.885487079620361,3,3,3,2,-9.789999999999999,0.99,0.7,0.71,-0.32,0.26
8.895487070083618,3,3,3,2,-9.6,0.98,0.88,0.8100000000000001,-0.48,0.4
8.905487060546875,3,3,3,2,-9.67,0.65,0.89,0.33,-0.26,0.37
8.915487051010132,3,3,3,2,-9.779999999999999,0.63,0.65,0.25,-0.21,0.41
8.925487041473389,3,3,3,2,-9.720000000000001,0.63,0.7,0.83,-0.5,0.28
8.935487031936646,3,3,3,2,-9.720000000000001,0.63,0.7,0.83,-0.5,0.28
8.945487022399902,3,3,3,2,-10.03,1.07,0.59,1.32,-0.83,0.1
8.955487012863159,3,3,3,2,-9.720000000000001,1.66,0.99,2.01,-1.08,-0.02
8.965487003326416,3,3,3,2,-9.69,1.54,1.2,2.15,-1.2,-0.06
8.975486993789673,3,3,3,2,-9.69,1.54,1.2,1.92,-0.8100000000000001,-0.12
8.98548698425293,3,3,3,2,-9.609999999999999,1.43,1.06,1.35,-0.51,-0.02
8.995486974716187,3,3,3,2,-9.449999999999999,2,0.82,0.32,-0.5,0.08
9.005486965179443,3,3,3,2,-9.369999999999999,1.97,1.05,-0.44,-0.36,-0.09
9.0154869556427,3,3,3,2,-9.42,1.85,1.14,-1.01,-0.03,-0.27
9.025486946105957,3,3,3,3,-9.73,1.72,1.15,-1.4,0.14,-0.16
9.035486936569214,3,3,3,3,-9.619999999999999,1.49,1.33,-1.65,-0.06,-0.08
9.045486927032471,3,3,3,3,-9.44,1.16,1.16,-1.8,-0.08,-0.11
9.055486917495728,3,3,3,3,-9.42,1,1,-1.52,0.22,-0.16
9.065486907958984,3,3,3,3,-9.630000000000001,0.91,1.04,-0.98,0.26,-0.19
9.075486898422241,3,3,3,3,-9.800000000000001,0.85,1,-0.91,0.49,0.01
9.085486888885498,3,3,3,3,-9.83,1,0.92,-0.64,0.71,0.1
9.095486879348755,3,3,3,3,-9.83,1.03,0.78,-0.65,0.72,0.05
9.105486869812012,3,3,3,3,-9.81,0.78,0.78,-0.7,0.8100000000000001,-0.19
9.115487098693848,3,3,3,3,-9.970000000000001,0.72,0.67,-0.13,0.75,-0.45
9.125487089157104,3,3,3,3,-9.970000000000001,0.72,0.67,0.59,0.3,-0.54
9.135487079620361,3,3,3,3,-9.9,1.02,0.63,0.71,-0.04,-0.47
9.145487070083618,3,3,3,3,-9.76,1.22,0.89,0.6,0.06,-0.53
9.155487060546875,3,3,3,3,-9.76,1.47,0.96,0.66,0.11,-0.63
9.175487041473389,3,3,3,3,-9.470000000000001,1.66,1.08,-0.21,0.16,-0.45
9.215487003326416,3,3,3,3,-9.77,1.1,0.7,-2.06,0.62,-0.12
9.225486993789673,3,3,3,3,-9.9,0.95,0.84,-1.48,0.5,-0.17
9.23548698425293,3,3,3,3,-9.82,0.92,0.8,-1.26,0.54,-0.12
9.245486974716187,3,3,3,3,-9.710000000000001,0.98,0.59,-1.18,0.55,-0.18
9.255486965179443,3,3,3,3,-9.710000000000001,0.92,0.61,-1.19,0.65,-0.3
9.2654869556427,3,3,3,3,-9.69,1.06,0.72,-0.96,0.59,-0.33
9.275486946105957,3,3,3,3,-9.69,1.06,0.72,-0.7,0.39,-0.4
9.285486936569214,3,3,3,3,-9.66,0.96,0.77,-0.39,0.51,-0.49
9.295486927032471,3,3,3,3,-9.6,1.09,0.6,-0.05,0.48,-0.46
9.305486917495728,3,3,3,3,-9.630000000000001,1.31,0.59,-0.03,0.15,-0.27
9.315486907958984,3,3,3,3,-9.619999999999999,1.33,0.68,0.17,-0.17,-0.25
9.325486898422241,3,3,3,3,-9.619999999999999,1.33,0.68,0.15,-0.22,-0.2
9.335486888885498,3,3,3,3,-9.82,1.49,0.73,0.12,-0.21,-0.14
9.345486879348755,3,3,3,3,-9.74,1.11,0.65,-0.36,-0.07000000000000001,-0.12
9.355486869812012,3,3,3,3,-9.609999999999999,0.92,0.67,-0.91,0.27,-0.13
9.365487098693848,3,3,3,3,-9.68,0.63,0.65,-1.27,0.6899999999999999,-0.26
9.375487089157104,3,3,3,3,-9.69,0.59,0.6899999999999999,-1.24,0.9399999999999999,-0.28
9.385487079620361,3,3,3,3,-9.84,0.54,0.73,-0.93,0.86,-0.32
9.395487070083618,3,3,3,3,-9.74,0.71,0.72,-0.3,0.39,-0.25
9.405487060546875,3,3,3,3,-9.68,0.83,0.8100000000000001,0.25,0.1,-0.27
9.415487051010132,3,3,3,3,-9.710000000000001,0.9399999999999999,0.91,0.87,0.03,-0.31
9.425487041473389,3,3,3,3,-9.93,0.87,0.62,0.79,0.05,-0.26
9.435487031936646,3,3,3,3,-9.93,0.87,0.62,0.59,-0.13,-0.08
9.445487022399902,3,3,3,3,-9.66,0.97,0.61,0.6,-0.17,-0.08
9.455487012863159,3,3,3,3,-9.710000000000001,1.19,0.58,0.5600000000000001,-0.01,-0.1
9.465487003326416,3,3,3,3,-9.68,1.14,0.78,0.17,0.09,-0.04
9.475486993789673,3,3,3,3,-9.6,1.16,0.89,-0.2,0.08,-0.03
9.48548698425293,3,3,3,3,-9.779999999999999,1.12,0.85,-0.63,0.38,-0.12
9.495486974716187,3,3,3,3,-9.9,0.83,0.6899999999999999,-0.84,0.43,-0.02
9.505486965179443,3,3,3,3,-9.82,0.43,0.5600000000000001,-0.88,0.34,-0.05
9.5154869556427,3,3,3,3,-9.81,0.38,0.51,-0.41,0.27,-0.2
9.525486946105957,3,3,3,3,-9.93,0.61,0.42,0.41,0.09,-0.25
9.535486936569214,3,3,3,3,-9.84,0.84,0.52,1.17,-0.13,-0.32
9.545486927032471,3,3,3,3,-9.67,1.14,0.44,1.34,-0.25,-0.36
9.555486917495728,3,3,3,3,-9.630000000000001,1.26,0.48,0.9,-0.15,-0.29
9.565486907958984,3,3,3,3,-9.6,1.33,0.63,0.58,-0.14,-0.23
9.575486898422241,3,3,3,3,-9.65,1.33,0.78,0.45,-0.17,-0.17
9.585486888885498,3,3,3,3,-9.66,1.34,0.79,0.27,-0.19,-0.05
9.595486879348755,3,3,3,3,-9.619999999999999,1.15,0.63,-0.12,-0.17,0.03
9.605486869812012,3,3,3,3,-9.609999999999999,1.05,0.65,0.01,-0.18,0.04
9.615487098693848,3,3,3,3,-9.6,1.19,0.6899999999999999,0.33,-0.18,0.04
9.625487089157104,3,3,3,3,-9.6,1.19,0.6899999999999999,0.42,-0.15,0.1
9.635487079620361,3,3,3,3,-9.720000000000001,1.07,0.8,0.07000000000000001,-0.11,0.2
9.645487070083618,3,3,3,3,-9.800000000000001,0.74,0.7,-0.16,-0.15,0.25
9.655487060546875,3,3,3,3,-9.75,0.6,0.74,0.03,-0.25,0.25
9.665487051010132,3,3,3,3,-9.640000000000001,0.78,0.76,-0.04,-0.21,0.17
9.676486968994141,3,3,3,3,-9.699999999999999,1,0.65,-0.12,0.03,0.02
9.686486959457397,3,3,3,3,-9.73,1.19,0.62,0.06,0.04,-0.01
9.696486949920654,3,3,3,3,-9.73,1.3,0.53,0.31,-0.12,-0.07000000000000001
9.706486940383911,3,3,3,3,-9.81,1.48,0.71,0.4,-0.32,-0.08
9.716486930847168,3,3,3,3,-9.73,1.31,0.86,0.01,-0.32,0.01
9.726486921310425,3,3,3,3,-9.73,0.85,0.98,-0.23,-0.07000000000000001,-0.01
9.736486911773682,3,3,3,3,-9.85,0.59,0.9,-0.44,0.06,-0.05
9.746486902236938,3,3,3,3,-9.76,0.49,0.98,-0.39,0.04,-0.11
9.756486892700195,3,3,3,3,-9.710000000000001,0.58,0.95,-0.01,0.01,-0.14
9.766486883163452,3,3,3,3,-9.69,0.85,1,-0.05,0.16,-0.26
9.776486873626709,3,3,3,3,-9.84,1.26,0.8,-0.05,0.34,-0.3
9.786486864089966,3,3,3,3,-9.84,1.26,0.8,-0.16,0.51,-0.29
9.796487092971802,3,3,3,3,-9.66,1.16,0.65,-0.38,0.57,-0.23
9.806487083435059,3,3,3,3,-9.66,1.02,0.5,-0.27,0.71,-0.22
9.816487073898315,3,3,3,3,-9.720000000000001,1.59,0.48,0.33,0.5,-0.32
9.826487064361572,3,3,3,3,-9.720000000000001,1.59,0.48,0.62,0.21,-0.42
9.836487054824829,3,3,3,3,-9.83,2.33,0.77,1.6,-0.2,-0.18
9.846487045288086,3,3,3,3,-9.779999999999999,2.72,0.77,2.39,-0.47,-0.08
9.856487035751343,3,3,3,3,-9.67,3.41,0.65,2.95,-0.63,0.09
9.8664870262146,3,3,3,3,-9.44,3.35,0.6899999999999999,3.31,0.01,0.3
9.876487016677856,3,3,3,3,-9.199999999999999,3.43,0.55,3.5,0.86,0.29
9.886487007141113,3,3,3,3,-9.24,3.62,0.52,3.9,1.8,0.32
9.89648699760437,3,3,3,3,-9.31,3.45,0,4.04,2.35,0.5
9.906486988067627,3,3,3,3,-9.859999999999999,2.45,-0.06,3.07,2.6,0.92
9.916486978530884,3,3,3,3,-9.789999999999999,0.85,0.45,1.66,2.31,1.31
9.926486968994141,3,3,3,3,-9.34,-0.12,0.89,2.17,2,0.97
9.936486959457397,3,3,3,3,-9.539999999999999,-1.54,0.78,4.36,2.72,0.61
9.946486949920654,3,3,3,3,-9.33,-1.97,0.74,5.62,3.09,0.46
9.956486940383911,3,3,3,3,-8.99,-1.96,0.91,7.12,3.44,0.03
9.966486930847168,3,3,3,3,-9.01,-2.05,0.84,8.640000000000001,3.43,-0.32
9.976486921310425,3,3,3,3,-9.01,-2.05,0.84,9.02,3.19,-0.39
9.986486911773682,3,3,3,3,-8.869999999999999,-2.05,0.67,9.76,3.05,-0.75
9.996486902236938,3,3,3,3,-9.07,-1.11,1.15,9.73,3.16,-1.03
10.0064868927002,3,3,3,3,-9.380000000000001,-0.47,1.56,8.859999999999999,2.8,-1.29
10.01648688316345,3,3,3,3,-10.5,1.02,2.53,6.89,1.83,-1.78
10.02648687362671,3,3,3,3,-10.83,1.44,3.12,3.94,0.67,-2.2
10.03648686408997,3,3,3,3,-11.06,2.48,4.38,1.75,-0.85,-2.54
10.0464870929718,3,3,3,3,-10.75,2.81,4.36,-0.79,-2.38,-2.55
10.05648708343506,3,3,3,3,-9.369999999999999,1.94,1.67,-4.57,-0.21,-2.52
10.06648707389832,3,3,3,3,-9.289999999999999,1.36,0.42,-7.63,3.69,-2.29
10.07648706436157,3,3,3,3,-9.609999999999999,1.11,-0.63,-9.48,6.23,-1.56
10.08648705482483,3,3,3,3,-9.970000000000001,1.13,-1.21,-9.220000000000001,7.79,-1.22
10.09648704528809,3,3,3,3,-10.09,0.43,-1.46,-7.9,8,-1.45
10.10648703575134,3,3,3,3,-10.24,0.52,-1.07,-5.94,6.63,-2
10.1164870262146,3,3,3,3,-10.17,0.52,-0.52,-4.43,5.31,-2.57
10.12648701667786,3,3,3,3,-10.17,0.52,-0.52,-3.47,4.14,-2.82
10.13648700714111,3,3,3,3,-10.14,0.3,0.03,-2.59,3.47,-3
10.14648699760437,3,3,3,3,-9.99,-0.37,-0.36,-1.65,3.47,-3.38
10.15648698806763,3,3,3,3,-9.94,-0.66,-0.43,-1.08,2.99,-3.36
10.16648697853088,3,3,3,3,-9.77,-0.31,-0.3,0.4,1.94,-3.42
10.17648696899414,3,3,3,3,-9.68,0.89,-0.5,0.8,1.58,-3.38
10.1864869594574,3,3,3,3,-9.69,0.93,-0.44,0.31,1.64,-3.28
10.19648694992065,3,3,3,3,-9.960000000000001,0.95,-0.27,-0.19,1.64,-3.19
10.20648694038391,3,3,3,3,-10.14,0.83,-0.11,-0.78,1.81,-2.94
10.21648693084717,3,3,3,3,-10.01,0.64,-0.7,-1.27,2.09,-2.96
10.22648692131042,3,3,3,3,-10.08,0.87,-1.01,-1.45,2.78,-3.37
10.23648691177368,3,3,3,3,-9.94,0.76,-1.3,-2.07,3.12,-3.55
10.24648690223694,3,3,3,3,-9.859999999999999,0.62,-1.76,-2.87,3.16,-3.61
10.2564868927002,3,3,3,3,-10.1,0.74,-2.29,-3.5,2.77,-3.8
10.26648688316345,3,3,3,3,-9.99,0.54,-2.17,-3.21,1.6,-3.87
10.27648687362671,3,3,3,3,-9.890000000000001,0.45,-1.83,-2.3,0.47,-3.75
10.28648686408997,3,3,3,3,-9.800000000000001,0.39,-1.67,-1.81,-0.31,-3.74
10.2964870929718,3,3,3,3,-9.9,0.47,-1.7,-1.02,-0.55,-3.78
10.30648708343506,3,3,3,3,-9.890000000000001,0.16,-1.56,0.15,-0.6,-3.62
10.31648707389832,3,3,3,3,-9.82,0.51,-1.54,2.16,-0.84,-3.56
10.32648706436157,3,3,3,3,-9.68,1.02,-1.19,4.14,-0.99,-3.38
10.33648705482483,3,3,3,3,-9.81,0.71,-1.08,4.44,-0.7,-3.03
10.35648703575134,3,3,3,3,-9.710000000000001,0.09,-1.05,5.58,-0.38,-2.84
10.3664870262146,3,3,3,3,-9.84,-0.07000000000000001,-0.83,6.93,-0.74,-2.83
10.37648701667786,3,3,3,3,-9.539999999999999,0.7,-0.53,7.71,-1.08,-2.88
10.38648700714111,3,3,3,3,-9.380000000000001,1.11,-0.45,7.77,-1.14,-2.86
10.39648699760437,3,3,3,3,-9.43,1.19,-0.48,7,-0.96,-2.93
10.40648698806763,3,3,3,3,-9.390000000000001,1.19,-0.38,6.2,-0.87,-3.11
10.41648697853088,3,3,3,3,-9.56,1.26,-0.76,5.53,-0.72,-3
10.42648696899414,3,3,3,3,-9.66,1.5,-0.79,5.21,-0.62,-3.05
10.4364869594574,3,3,3,3,-9.609999999999999,1.47,-0.96,4.69,-0.44,-2.92
10.44648694992065,3,3,3,3,-9.57,1.12,-1.47,3.79,-0.21,-2.85
10.45648694038391,3,3,3,3,-9.74,0.71,-1.11,3.31,0.04,-2.79
10.46648693084717,3,3,3,3,-9.73,0.43,-0.86,3.18,-0.07000000000000001,-2.81
10.47648692131042,3,3,3,3,-9.859999999999999,-0.01,-0.62,3.14,-0.01,-2.84
10.48648691177368,3,3,3,3,-9.75,0,-0.39,3.37,-0.21,-2.99
10.49648690223694,3,3,3,3,-9.68,0.46,-0.5,3.57,-0.45,-3.23
10.5064868927002,3,3,3,3,-9.699999999999999,0.31,-0.58,3.08,-0.39,-3.36
10.51648688316345,3,3,3,3,-9.710000000000001,0.57,-0.8100000000000001,2.33,-0.41,-3.51
10.52648687362671,3,3,3,3,-9.630000000000001,0.18,-0.78,1.73,-0.28,-3.42
10.53648686408997,3,3,3,3,-9.59,0.34,-0.93,1.51,-0.21,-3.61
10.5464870929718,3,3,3,3,-9.59,0.05,-1.05,1.72,-0.09,-3.65
10.55648708343506,3,3,3,3,-9.699999999999999,0.09,-0.85,1.74,-0.22,-3.73
10.56648707389832,3,3,3,3,-9.81,-0.01,-0.55,1.88,-0.31,-3.75
10.57648706436157,3,3,3,3,-9.76,-0.16,-0.38,1.87,-0.29,-3.85
10.58648705482483,3,3,3,3,-9.720000000000001,-0.23,-0.39,1.9,-0.48,-3.86
10.59748697280884,3,3,3,3,-9.539999999999999,0,-0.5600000000000001,2.05,-0.46,-3.78
10.60648703575134,3,3,3,3,-9.67,-0.51,-0.31,1.41,-0.58,-3.89
10.6164870262146,3,3,3,3,-9.699999999999999,-0.8100000000000001,-0.26,1.03,-0.61,-4.05
10.62648701667786,3,3,3,3,-9.69,-1.06,-0.23,1.22,-0.49,-4.1
10.6864869594574,3,3,3,3,-9.859999999999999,-0.5,-1.19,3.73,-0.97,-4.63
10.69748687744141,3,3,3,3,-9.720000000000001,-0.68,-1.13,3.37,-1.05,-4.61
10.70748686790466,3,3,3,3,-10.24,-0.85,-1.3,3.45,-1.22,-4.81
10.7174870967865,3,3,3,3,-10.16,-0.48,-1.49,4.35,-1.06,-4.86
10.72748708724976,3,3,3,3,-10,0.63,-1.29,5.06,-1.4,-4.85
10.73748707771301,3,3,3,3,-9.91,0.9,-1.57,4.67,-1.5,-5.01
10.74748706817627,3,3,3,3,-9.960000000000001,0.99,-1.65,4.13,-1.18,-5
10.75748705863953,3,3,3,3,-9.93,1.19,-1.6,3.73,-1.07,-4.99
10.76748704910278,3,3,3,3,-9.75,1.11,-1.89,3.36,-0.87,-5.16
10.77748703956604,3,3,3,3,-9.91,1.01,-2.16,2.81,-0.67,-5.13
10.7874870300293,3,3,3,3,-10.61,1.11,-1.98,1.91,-0.2,-5.25
10.79748702049255,3,3,3,3,-11.1,1.08,-1.65,1.46,-0.41,-5.41
10.80748701095581,3,3,3,3,-11.52,0.89,-1.1,0.6899999999999999,-0.6899999999999999,-5.52
10.81748700141907,3,3,3,3,-11.18,0.95,-0.88,0.67,-1.02,-5.56
10.82748699188232,3,3,3,2,-11.19,1.34,-0.8100000000000001,0.66,-1.72,-5.56
10.83748698234558,3,3,3,2,-10.79,1.64,-0.8,0.47,-1.92,-5.62
10.84748697280884,3,3,3,2,-10.49,2.32,-0.87,-0.15,-2.14,-5.5
10.85748696327209,3,3,3,2,-10.66,2.31,-0.48,-1.32,-2.04,-5.53
10.86748695373535,3,3,3,2,-10.64,1.65,-0.36,-2.44,-2.05,-5.51
10.87748694419861,3,3,3,2,-10.8,1.64,0.16,-3.04,-3.02,-5.06
10.88748693466187,3,3,3,2,-10.89,1.68,-0.14,-2.22,-3.75,-4.22
10.89748692512512,3,3,3,2,-10.85,1.79,-0.39,-0.43,-3.86,-3.21
10.90748691558838,3,3,3,2,-10.67,1.97,-0.31,1.32,-4.39,-2.34
10.91748690605164,3,3,3,2,-10.5,2.86,-0.47,3.84,-5.06,-1
10.92748689651489,3,3,3,1,-10.05,4.54,-0.25,6.32,-5.65,0.6899999999999999
10.93748688697815,3,3,3,1,-9.220000000000001,4.77,0.08,8.789999999999999,-6.63,2
10.94748687744141,3,3,3,1,-9.35,5.3,0.14,11.98,-6.18,3.64
10.95748686790466,3,3,3,1,-9.710000000000001,5.64,0.26,13.7,-5.17,5.66
10.9674870967865,3,3,3,1,-10.18,4.16,0.15,14.03,-3.55,6.68
10.97748708724976,3,3,3,1,-9.99,2.34,-0.34,13.11,-0.7,8.33
10.98748707771301,3,3,3,1,-11.13,1.42,-0.63,11.68,2.21,9.199999999999999
10.99748706817627,3,3,3,1,-11.39,-0.15,-1.45,10.21,4.98,10.43
11.00748705863953,3,3,3,1,-12.37,-2.16,-1.97,9.23,7.26,10.74
11.01748704910278,3,3,3,1,-12.54,-2.02,-1.84,9.58,8.42,11.12
11.02748703956604,3,3,3,0,-12.34,-2.01,-1.63,10.17,8.67,11.99
11.0374870300293,3,3,3,0,-12.61,-2.01,-1.17,11.64,7.89,11.28
11.04748702049255,3,3,3,0,-13.57,-2.21,0.22,13.15,7.45,11.08
11.05748701095581,3,3,3,0,-12.84,-3.3,0.18,13.62,8.16,10.13
11.06748700141907,3,3,3,0,-11.44,-3.66,0.31,12.06,9.140000000000001,10.74
11.07748699188232,3,3,3,0,-11.21,-2.3,1.25,3.14,9.76,10.94
11.08748698234558,3,3,3,0,-10.06,-1.73,0.86,3.14,9.76,10.94
11.09748697280884,3,3,3,0,-9.26,-2.15,0.1,-6.97,8.59,10.85
11.10748696327209,3,3,3,0,-9.050000000000001,-2.19,0.15,-12.67,8.359999999999999,11.42
11.11748695373535,3,3,3,0,-9.08,-2.43,0.02,-17.02,9.130000000000001,12.35
11.12748694419861,3,3,3,0,-9.699999999999999,-2.58,-1.5,-20.38,9.75,13.52
11.13748693466187,3,3,3,0,-9.359999999999999,-3.33,-2.21,-20.38,9.75,13.52
11.14748692512512,3,3,3,0,-9.24,-3.95,-2.19,-19.22,8.609999999999999,13.69
11.15748691558838,3,3,3,0,-9.32,-3.5,-1.37,-14.26,6.52,15.48
11.16748690605164,3,3,3,0,-9.08,-2.92,-0.22,-12.89,6.52,16.17
11.17748689651489,3,3,3,0,-9.16,-2.69,-0.36,-12.59,6.89,16.17
11.18748688697815,3,3,3,0,-8.789999999999999,-2.68,-0.45,-12.59,6.89,16.17
11.19748687744141,3,3,3,0,-8.92,-2.58,0,-12.12,6.21,16.35
11.20748686790466,3,3,3,0,-8.24,-2.8,0.16,-13.79,5.09,16.13
11.2174870967865,3,3,3,0,-7.94,-2.96,0.4,-12.68,4.46,16.74
11.22748708724976,3,3,3,0,-7.94,-3.36,0.33,-9.69,3.25,17.44
11.23748707771301,3,3,3,0,-7.83,-4.13,0.49,-6.76,0.99,18.28
11.24748706817627,3,3,3,0,-8.17,-4.49,0.71,-3.7,-0.57,18.65
11.25748705863953,3,3,3,0,-8.01,-3.68,0.87,-0.65,-1.62,18.64
11.26748704910278,3,3,3,0,-7.62,-2.66,1.55,0.37,-1.4,18.55
11.27748703956604,3,3,3,0,-8.26,-0.73,2.15,-0.53,-0.92,17.44
11.2874870300293,3,3,3,0,-7.55,0.1,1.71,-2.13,-0.71,14.11
11.29748702049255,3,3,3,0,-7.74,-0.02,1.7,-2.32,0.14,11.99
11.30748701095581,3,3,3,0,-7.7,0.35,1.39,-1.02,-0.64,10.67
11.31748700141907,3,3,3,0,-7.69,1.21,-1.35,-0.8,-1.39,8.83
11.32748699188232,3,3,3,0,-8.460000000000001,2.21,-1.65,-0.52,-2.99,7.77
11.33748698234558,3,3,3,0,-8.49,3.79,-1.77,-0.41,-5.5,5.87
11.34748697280884,3,3,3,0,-9.359999999999999,4.86,-1.42,0.59,-7.48,5.2
11.35748696327209,3,3,3,0,-8.48,8.710000000000001,0.87,-0.43,-8.98,4.16
11.36748695373535,3,3,3,0,-9.199999999999999,9.56,1.51,-5.23,-7.02,2.77
11.37748694419861,3,3,3,0,-8.859999999999999,9.380000000000001,1.02,-9.48,-5.3,1.68
11.38748693466187,3,3,3,0,-8.26,8.710000000000001,0.36,-12.07,-3.49,1.58
11.39748692512512,3,3,3,0,-9.48,7.68,-0.92,-13.14,-1.27,2.8
11.40748691558838,3,3,3,0,-9.92,7.96,-2.38,-13.31,1.21,3.45
11.41748690605164,3,3,3,0,-10.25,7.78,-3.41,-12.19,3.19,3.69
11.42748689651489,3,3,3,0,-10.1,7.24,-3.28,-10.09,4.09,3.8
11.43748688697815,3,3,3,0,-10.32,6.45,-2.15,-7.97,4.97,4.01
11.44748687744141,3,3,3,0,-11.43,5.95,-1.8,-7.95,7.79,3.91
11.45748686790466,3,3,3,0,-13.66,2.74,0.98,-9.75,7.69,3.3
11.4674870967865,3,3,3,0,-14.07,0.53,3.68,-6.6,1.8,5.02
11.47748708724976,3,3,3,0,-11.45,10.17,1.5,-4.71,0.45,6.2
11.48748707771301,3,3,3,0,-11.24,12.3,-0.82,-13.16,2.72,4.74
11.49748706817627,3,3,3,0,-11.51,7.28,-0.26,-22.98,4.13,1.54
11.50748705863953,3,3,3,0,-9.470000000000001,-1.96,2.04,-24.17,2.62,-5.56
11.51748704910278,3,3,3,0,-5.44,-7.34,1.68,-16.16,2.9,-9.09
11.52748703956604,3,3,3,0,-5.87,-6.67,1.37,-8.550000000000001,7.5,-10.25
11.5374870300293,3,3,3,0,-7.68,-6.34,-1.16,-7,9.01,-10.5
11.54748702049255,3,3,3,0,-10.26,-6.03,-3.71,-8.26,5.44,-10.67
11.55748701095581,3,3,3,0,-14.02,-2.35,-1.23,-4.8,2.28,-11.67
11.56748700141907,3,3,3,0,-13.58,-1.49,-0.23,-1.87,-0.3,-12.52
11.57748699188232,3,3,3,1,-12.17,-1.32,1.36,0.29,0.17,-11.99
11.58848690986633,3,3,3,1,-11.48,-1.84,0.68,0.44,2.25,-11.62
11.59748697280884,3,3,3,1,-10.88,-2.46,-0.03,1.19,2.35,-12.06
11.60748696327209,3,3,3,1,-10.72,-1.5,0,2.7,1.86,-11.7
11.6184868812561,3,3,3,1,-10.54,0.29,0.17,3.1,1.06,-11.22
11.62748694419861,3,3,3,1,-10.25,1.12,0.29,1.55,1.1,-11.33
11.63748693466187,3,3,3,1,-9.630000000000001,0.36,-0.17,0.28,1.68,-11.75
11.64848709106445,3,3,3,1,-9.67,0,-0.99,-0.41,1.91,-11.4
11.65748691558838,3,3,3,1,-9.94,0.18,-1.53,-0.95,1.99,-10.44
11.66748690605164,3,3,3,1,-9.75,0.44,-1.76,-1.76,2.63,-10.13
11.67848706245422,3,3,3,1,-10.03,0.86,-2.66,-1.84,3.3,-10.08
11.68748688697815,3,3,3,1,-10.2,0.86,-2.73,-0.7,2.65,-10.36
11.69748687744141,3,3,3,1,-10.29,0.62,-2.3,1.8,1.21,-10.21
11.70748686790466,3,3,3,1,-10.16,1.03,-1.75,2.62,0.34,-10.38
11.7174870967865,3,3,3,1,-10.3,0.42,-1.08,3.59,-0.09,-10.54
11.72848701477051,3,3,3,1,-10.2,0.2,-0.75,3.86,-0.53,-10.48
11.73848700523376,3,3,3,1,-10.2,-0.17,-0.55,4.23,-0.39,-10.49
11.74848699569702,3,3,3,1,-9.949999999999999,-0.35,-0.75,5,-0.33,-10.49
11.75848698616028,3,3,3,1,-10.13,-0.54,-0.57,5.2,-0.47,-10.76
11.76848697662354,3,3,3,1,-10.22,-0.96,-0.47,5.91,-0.93,-10.66
11.77848696708679,3,3,3,0,-10.21,-1.05,-0.4,6.93,-1.26,-10.67
11.78848695755005,3,3,3,0,-10.09,-0.73,-0.41,7.69,-1.01,-10.79
11.79848694801331,3,3,3,0,-9.630000000000001,-0.12,-0.54,7.69,-0.7,-10.88
11.80848693847656,3,3,3,0,-9.66,0.08,-0.55,7.11,-0.38,-10.8
11.81848692893982,3,3,3,0,-9.56,0.21,-0.44,6.78,-0.53,-10.76
11.82848691940308,3,3,3,0,-9.449999999999999,0.32,-0.16,6.62,-0.91,-10.92
11.83848690986633,3,3,3,0,-9.390000000000001,0.66,-0.48,6.08,-1.04,-10.99
11.84848690032959,3,3,3,0,-9.44,0.89,-1.04,5.64,-1.51,-11.11
11.85848689079285,3,3,3,0,-9.77,0.89,-0.91,5.19,-2.07,-10.93
11.8684868812561,3,3,3,0,-9.890000000000001,1.24,-1.04,4.28,-2.42,-11.09
11.87848687171936,3,3,3,0,-9.619999999999999,1.19,-1.3,3.63,-2.72,-11.52
11.88848686218262,3,3,3,0,-9.380000000000001,0.88,-1.37,2.62,-2.91,-11.75
11.89848709106445,3,3,3,0,-9.470000000000001,0.98,-1.39,2.74,-3.16,-11.71
11.90848708152771,3,3,3,0,-9.380000000000001,1.09,-1.44,2.33,-3.21,-11.3
11.91848707199097,3,3,3,0,-9.16,1.3,-1.67,2.54,-3.26,-11.34
11.92848706245422,3,3,3,0,-9.15,1.59,-1.71,2.17,-3.25,-11.17
11.93848705291748,3,3,3,0,-9.41,1.14,-1.74,2.33,-2.76,-10.8
11.94848704338074,3,3,3,0,-9.93,0.83,-1.85,3.13,-2.61,-10.1
11.95848703384399,3,3,3,0,-10.27,1.15,-1.53,4.54,-2.96,-9.52
11.96848702430725,3,3,3,0,-10.06,1.62,-1.48,5.3,-3.26,-9.050000000000001
11.97848701477051,3,3,3,0,-9.73,2.28,-1.39,5.7,-3.16,-8.619999999999999
11.98848700523376,3,3,3,0,-9.57,2.82,-1.26,5.46,-2.36,-8.119999999999999
11.99848699569702,3,3,3,0,-9.48,3.08,-1.11,4.9,-1.71,-7.77
12.00848698616028,3,3,3,0,-9.279999999999999,3.23,-1.04,4.33,-1.42,-7.65
12.01848697662354,3,3,3,0,-9.43,2.59,-1.1,3.61,-0.98,-7.32
12.02848696708679,3,3,3,0,-10.16,1.93,-1.43,3.23,-0.67,-7
12.03848695755005,3,3,3,0,-10.1,1.29,-1.84,2.16,-0.74,-6.94
12.04848694801331,3,3,3,0,-10.37,0.72,-1.99,1.94,-0.77,-6.91
12.05848693847656,3,3,3,0,-10.3,0.47,-2.52,1.08,-0.99,-7.43
12.06848692893982,3,3,3,0,-11.32,-0.03,-2.44,1.42,-1,-7.69
12.07848691940308,3,3,3,0,-11.8,0.17,-2.38,1.86,-1.41,-7.79
12.08848690986633,3,3,3,0,-11.87,0.63,-2.16,2.17,-1.7,-8.029999999999999
12.09848690032959,3,3,3,0,-11.73,1.23,-1.62,2.54,-2.01,-8.01
12.10848689079285,3,3,3,0,-10.89,2.25,-1.1,3.14,-2.6,-7.77
12.1184868812561,3,3,3,0,-10.81,2.92,-1.34,3.64,-2.49,-7.2
12.12848687171936,3,3,3,0,-11.15,4.21,-1.61,4.29,-1.51,-6.27
12.13848686218262,3,3,3,0,-11.38,5.36,-2.37,4.06,-0.19,-5.19
12.14848709106445,3,3,3,0,-11.22,7.94,-2.85,2.7,0.68,-4.39
12.15848708152771,3,3,3,0,-11.62,7.92,-1.8,1.7,0.47,-3.53
12.16848707199097,3,3,3,0,-12.01,7.7,-0.19,2.98,-1.67,-2
12.17848706245422,3,3,3,0,-11.89,7,0.34,6.25,-4.56,-0.1
12.18848705291748,3,3,3,0,-10.84,7.58,0.11,9.949999999999999,-5.68,3.06
12.19848704338074,3,3,3,0,-10.16,7.6,-0.17,14.28,-5.89,6.36
12.20848703384399,3,3,3,0,-9.630000000000001,6.95,0.9,17.3,-4.64,8.960000000000001
12.21848702430725,3,3,3,0,-9.630000000000001,6.25,0.9399999999999999,18.29,-1.95,11.42
12.22848701477051,3,3,3,0,-10.66,3.08,0.09,16.08,2.81,13.4
12.23848700523376,3,3,3,0,-11.43,0.11,-0.36,11.55,8.08,14.24
12.24848699569702,3,3,3,0,-11.52,-2.46,-0.86,7.43,10.74,14.23
12.25848698616028,3,3,3,0,-13.95,-3.85,-1.08,6.78,10.39,15.81
12.26848697662354,3,3,3,0,-14.9,-3.58,-1.55,11.03,9.15,17.62
12.27848696708679,3,3,3,0,-15.65,-3.48,-0.21,17.7,9.949999999999999,17.46
12.28848695755005,3,3,3,0,-16.55,-3.69,0.61,21.66,11.38,15.93
12.29848694801331,3,3,3,0,-15.78,-4.03,1.05,22.17,13.26,12.92
12.30848693847656,3,3,3,0,-13.59,-4,1.56,19.01,14.02,13.78
12.31848692893982,3,3,3,0,-12.15,-4.64,1.62,13.4,13.3,16.44
12.32848691940308,3,3,3,0,-11.5,-4.26,2.1,7.67,13.12,16.99
12.33848690986633,3,3,3,0,-11.14,-3.43,2.45,-0.25,11.14,17.54
12.34848690032959,3,3,3,0,-9.91,-4.33,0.6899999999999999,-8.57,9.15,17.7
12.35848689079285,3,3,3,0,-9.33,-4.24,0.65,-12.43,9.58,18.11
12.3684868812561,3,3,3,0,-9.06,-3.7,0.92,-15.79,11.09,19.06
12.37848687171936,3,3,3,0,-8.890000000000001,-3.8,0.79,-19.17,11.88,19.05
12.38848686218262,3,3,3,0,-8.199999999999999,-5.16,-0.53,-21,10.66,18.89
12.39848709106445,3,3,3,0,-8.24,-4.42,-0.3,-21.27,7.99,19.09
12.40848708152771,3,3,3,0,-8.039999999999999,-5.56,-1.09,-19.86,8.33,19.78
12.41848707199097,3,3,3,0,-7.21,-5.95,0,-15.54,7.32,20.59
12.42848706245422,3,3,3,0,-7.03,-5.63,0.32,-14.43,5.96,20.26
12.43848705291748,3,3,3,0,-7,-5.69,1.17,-14.67,4.32,19.19
12.44848704338074,3,3,3,0,-7.05,-5.04,0.95,-15.44,3.52,19.05
12.45848703384399,3,3,3,0,-6.78,-4.23,0.37,-11.36,3.03,19.59
12.46848702430725,3,3,3,0,-5.92,-5.13,0.85,-8.85,1.48,19.28
12.47848701477051,3,3,3,0,-5.89,-5.5,0.98,-7.32,-0.7,19.67
12.48848700523376,3,3,3,0,-6.6,-5.51,1.01,-5.81,-1.79,19.59
12.49848699569702,3,3,3,0,-7.19,-5.45,0.86,-4.29,-2.58,17.69
12.50848698616028,3,3,3,0,-8.09,-5.26,1.75,-3.58,-3.75,15.95
12.51848697662354,3,3,3,0,-7.69,-3.46,2.28,-6.48,-7.3,13.08
12.52848696708679,3,3,3,0,-7.08,-2.84,1.73,-8.27,-9.119999999999999,8.869999999999999
12.53848695755005,3,3,3,0,-7.72,-1.29,1.68,-5.93,-9.130000000000001,7.32
12.54848694801331,3,3,3,0,-8.42,2.55,0.33,-4.56,-8.890000000000001,5.97
12.55848693847656,3,3,3,0,-9.68,4.44,0.34,-1.71,-10.58,3.88
12.56848692893982,3,3,3,0,-9.32,7.48,1.59,4.2,-13.83,3.9
12.59848690032959,3,3,3,1,-9.539999999999999,17.94,-5.08,0.71,-0.46,0.82
12.60848689079285,3,3,3,1,-11.16,16.35,-6.38,-4.36,0.55,0.49
12.6184868812561,3,3,3,1,-11.46,14.77,-4.16,-9.56,0.92,6.35
12.62848687171936,3,3,3,1,-8.619999999999999,11.96,-2.37,-11.93,5.05,9.380000000000001
12.63848686218262,3,3,3,1,-8.51,7.61,-2.39,-11.29,8.869999999999999,7.84
12.64848709106445,3,3,3,1,-10.06,3.73,0.92,-8.31,9.050000000000001,6.66
12.65848708152771,3,3,3,1,-10.46,-0.37,0.53,-6.88,10.22,5.11
12.66848707199097,3,3,3,1,-12.67,-4.46,-2.5,-8.220000000000001,12.73,3.96
12.67848706245422,3,3,3,1,-12.34,1.12,-0.38,-7.04,7.1,3.73
12.68848705291748,3,3,3,1,-12.62,10.53,3.98,-6.32,-4.43,2.9
12.69848704338074,3,3,3,1,-14.13,14.87,5.93,-9.31,-9.18,3.34
12.70848703384399,3,3,3,1,-11.93,9.789999999999999,1.65,-11.16,-0.6,-0.85
12.71848702430725,3,3,3,1,-13.29,8.970000000000001,2.04,-16.7,4.93,-6.68
12.72848701477051,3,3,3,1,-10.19,0.85,2.87,-25.57,8.119999999999999,-4.88
12.73848700523376,3,3,3,1,-7.85,-9.289999999999999,1.34,-28.32,15.35,-5.79
12.74948692321777,3,3,3,1,-7.59,-12.05,-2.36,-19,14.15,-10.1
12.75948691368103,3,3,3,1,-8.24,-10.08,-2.58,-14.48,8.49,-11.65
12.80948686599731,3,3,3,1,-12.28,-4.21,0.38,7.28,-0.07000000000000001,-14.05
12.81948709487915,3,3,3,1,-11.86,-0.01,0.3,7.33,-0.24,-13.44
12.82948708534241,3,3,3,1,-11.19,1.62,0.59,6.36,-0.13,-12.03
12.83948707580566,3,3,3,1,-9.81,1.45,0.09,2.31,0.85,-11.97
12.84948706626892,3,3,3,1,-9.26,0.34,-0.55,-0.22,1.14,-12.98
12.85948705673218,3,3,3,1,-10.15,-0.9399999999999999,-0.6,-1.02,1.23,-12.86
12.86948704719543,3,3,3,1,-10.5,-1.25,-0.82,-1.05,1.73,-12.83
12.87948703765869,3,3,3,1,-10.63,-1.92,-1.32,-0.67,1.76,-12.89
12.88948702812195,3,3,3,1,-10.58,-2,-1.65,1.92,1.35,-13.14
12.89948701858521,3,3,3,1,-10.74,-0.59,-1.46,4.88,0.5600000000000001,-12.85
12.90948700904846,3,3,3,1,-10.89,0.18,-1.33,8,-0.78,-12.66
12.91948699951172,3,3,3,1,-10.65,0,-0.76,10.1,-1.79,-13.33
12.92948698997498,3,3,3,1,-10.38,-0.27,-0.46,11.93,-2.61,-13.94
12.93948698043823,3,3,3,1,-9.69,1.98,-0.4,13.48,-2.92,-13.58
12.94948697090149,3,3,3,1,-9.109999999999999,1.56,-0.58,12.61,-2.73,-13.19
12.95948696136475,3,3,3,1,-9.130000000000001,1.71,-0.89,11.71,-1.27,-13.03
12.969486951828,3,3,3,1,-9.09,1.98,-1.25,11.24,-0.37,-12.86
12.97948694229126,3,3,3,1,-9.18,2.51,-1.76,11.12,-0.16,-12.28
12.98948693275452,3,3,3,1,-8.800000000000001,2.42,-1.97,10.87,-0.59,-11.76
12.99948692321777,3,3,3,1,-9.109999999999999,2.82,-1.88,10.54,-0.85,-11.64
13.00948691368103,3,3,3,1,-9.02,2.7,-1.74,9.19,-0.8100000000000001,-11.24
13.01948690414429,3,3,3,1,-9.33,2.36,-1.48,7.95,-0.82,-11.28
13.02948689460754,3,3,3,1,-9.48,2.05,-1.33,6.57,-1.56,-11.26
13.0394868850708,3,3,3,1,-9.359999999999999,1.63,-0.93,5.18,-2.29,-11.2
13.04948687553406,3,3,3,1,-9.48,1.19,-0.78,4.09,-2.27,-11.06
13.05948686599731,3,3,3,1,-9.289999999999999,0.72,-0.68,3.29,-2.22,-11.07
13.06948709487915,3,3,3,1,-9.140000000000001,0.4,-0.84,2.34,-2.17,-11.15
13.07948708534241,3,3,3,1,-8.970000000000001,0.33,-1.1,1.82,-1.59,-11.78
13.08948707580566,3,3,3,1,-9.31,0.26,-1.42,1.18,-1.22,-11.77
13.09948706626892,3,3,3,1,-10.05,-0.38,-1.98,1.27,-1.42,-11.85
13.10948705673218,3,3,3,1,-10.4,0.32,-1.76,2.11,-2.02,-11.77
13.11948704719543,3,3,3,1,-10.38,0.63,-1.58,2.83,-3.18,-11.84
13.12948703765869,3,3,3,1,-10.32,1.53,-1.32,3.09,-4.07,-11.87
13.13948702812195,3,3,3,1,-10.08,2.23,-0.72,3.03,-4.77,-11.72
13.14948701858521,3,3,3,1,-9.630000000000001,2.56,-0.98,2.81,-5.15,-11.56
13.15948700904846,3,3,3,1,-9.26,3.23,-0.93,3.2,-4.61,-11.16
13.16948699951172,3,3,3,1,-8.59,3.54,-1.06,2.72,-3.68,-10.49
13.17948698997498,3,3,3,1,-9.34,3.78,-1.47,2.93,-2.31,-9.76
13.18948698043823,3,3,3,1,-9.51,3.16,-1.64,2.22,-1.52,-9.24
13.19948697090149,3,3,3,1,-9.84,2.31,-1.93,2.41,-0.77,-8.789999999999999
13.20948696136475,3,3,3,1,-10.33,2.51,-2.21,2.76,-0.48,-8.050000000000001
13.219486951828,3,3,3,1,-10.29,1.1,-2.6,1.76,-1.45,-7.97
13.22948694229126,3,3,3,1,-10.93,0.67,-2.51,1.48,-1.54,-8.039999999999999
13.23948693275452,3,3,3,1,-11.09,0.19,-2.5,1.43,-2.11,-7.99
13.24948692321777,3,3,3,1,-11.61,0.5,-2.66,1.98,-2.41,-8.109999999999999
13.25948691368103,3,3,3,1,-11.7,2.29,-2.05,1.86,-2.6,-8.289999999999999
13.26948690414429,3,3,3,1,-11.73,2.7,-2.2,1.39,-2.92,-8.17
13.27948689460754,3,3,3,1,-11.19,4.04,-2.44,2.18,-3.58,-7.6
13.2894868850708,3,3,3,1,-11,5.41,-2.92,3.49,-3.15,-6.57
13.29948687553406,3,3,3,1,-11.19,8.25,-2.06,3.86,-1.87,-5.64
13.30948686599731,3,3,3,1,-11.29,8.609999999999999,-0.39,4.01,-2.07,-4.31
13.31948709487915,3,3,3,1,-11.07,8.31,0.24,5.82,-3.62,-2.6
13.32948708534241,3,3,3,1,-11.54,8.1,0.44,8.65,-5.18,0.21
13.33948707580566,3,3,3,1,-11.07,8.130000000000001,0,12.61,-6.16,3.59
13.34948706626892,3,3,3,1,-10.07,8.09,0.34,15.71,-5.35,6.95
13.35948705673218,3,3,3,1,-10.18,7.37,0.28,17.36,-2.56,9.41
13.36948704719543,3,3,3,1,-10.74,5.47,-0.39,14.66,1.66,11.3
13.37948703765869,3,3,3,1,-11.18,0.7,-1.88,9.01,6.85,12.79
13.38948702812195,3,3,3,1,-11.53,-1.56,-2.06,4.25,11.01,13.27
13.39948701858521,3,3,3,1,-13.63,-2.93,-2.28,3.04,12,13.55
13.40948700904846,3,3,3,1,-15.83,-4.27,-3.49,5.34,10.03,15.65
13.41948699951172,3,3,3,1,-15.14,-3.21,-1.48,12.22,9.08,15.97
13.42948698997498,3,3,3,1,-15.61,-3.74,-0.7,16.22,11.37,14.98
13.43948698043823,3,3,3,1,-14.34,-4.29,0.03,16.77,12.01,12.12
13.44948697090149,3,3,3,1,-14.47,-3.34,0.78,14.84,13.07,12.16
13.45948696136475,3,3,3,1,-12.16,-5.45,0.18,11.08,12.62,15.02
13.469486951828,3,3,3,1,-11.37,-5.17,0.38,7.85,12.49,15.69
13.47948694229126,3,3,3,1,-11.09,-4.25,0.51,4.55,12.42,16.79
13.48948693275452,3,3,3,1,-11.27,-3.53,1.25,0.09,11.46,17.35
13.49948692321777,3,3,3,1,-11.1,-3.1,1.72,-9.57,8.77,16.46
13.50948691368103,3,3,3,1,-9.52,-3.11,0.29,-19.61,7.14,15.6
13.51948690414429,3,3,3,1,-8.029999999999999,-3.48,0.04,-23.81,9.18,16.42
13.52948689460754,3,3,3,1,-7.82,-5.33,-0.74,-27.84,11.91,17.26
13.5394868850708,3,3,3,1,-8.6,-4.63,-0.65,-28.86,10.44,16.95
13.54948687553406,3,3,3,1,-9.109999999999999,-5.37,-2.87,-28.68,8.77,16.73
13.55948686599731,3,3,3,1,-7.82,-7.05,-1.73,-23.65,8.42,17.04
13.56948709487915,3,3,3,1,-6.88,-6.37,0.62,-19.51,7.15,17.84
13.57948708534241,3,3,3,2,-7,-6.22,0.86,-17.64,5.66,18.18
13.58948707580566,3,3,3,2,-7.37,-5.46,1.43,-17.92,3.79,18.21
13.59948706626892,3,3,3,2,-7.14,-5.15,1.66,-18.91,3.53,18.19
13.60948705673218,3,3,3,2,-6.49,-5.39,1.61,-14.97,3.19,18.99
13.61948704719543,3,3,3,2,-6.29,-6.36,1.88,-10.53,1.52,19.2
13.62948703765869,3,3,3,2,-6.15,-6.56,2.16,-6.78,-1.79,19.24
13.63948702812195,3,3,3,2,-6.78,-6.37,2,-4.15,-3.52,19.88
13.64948701858521,3,3,3,2,-7.64,-5.76,1.45,-0.72,-3.87,19.12
13.65948700904846,3,3,3,2,-6.87,-5.29,1.2,2.22,-4.75,17.14
13.66948699951172,3,3,3,2,-7.29,-4.7,1.3,1.21,-5.71,14.67
13.67948698997498,3,3,3,2,-7.91,-3.43,0.76,-2.05,-7.03,11.88
13.68948698043823,3,3,3,2,-7.26,-0.25,-0.66,-1.21,-8.23,7.55
13.69948697090149,3,3,3,2,-7.8,2.2,-1.29,0.14,-7.17,6.38
13.70948696136475,3,3,3,2,-9.56,3.76,-2.05,-0.77,-6.07,5.54
13.719486951828,3,3,3,2,-10.39,6.78,-0.92,1.81,-10.23,4.56
13.72948694229126,3,3,3,2,-9.109999999999999,11.48,3.31,6.36,-14.45,4.08
13.73948693275452,3,3,3,2,-6.73,16.02,2.78,7.3,-14.07,4.63
13.74948692321777,3,3,3,2,-7.56,19.43,-1.75,2.4,-5.46,2.89
13.75948691368103,3,3,3,2,-9.949999999999999,18.87,-4.59,-2.83,1.17,-0.82
13.76948690414429,3,3,3,2,-10.85,14.52,-3.77,-10.82,3.9,2.04
13.78048706054688,3,3,3,2,-9.550000000000001,13.39,-4.36,-14.06,6.22,8.75
13.79048705101013,3,3,3,2,-9.66,10.62,-3.53,-13.65,8.76,10.29
13.80048704147339,3,3,3,2,-9.460000000000001,6.78,-0.72,-11.49,8.09,8.84
13.81048703193665,3,3,3,2,-11.51,1.36,-2.24,-11.82,10.29,6.06
13.8204870223999,3,3,3,2,-13.95,-3.02,-2.69,-13.86,15.11,4.75
13.83048701286316,3,3,3,2,-15.14,-1.85,0.04,-15.09,10.98,4.39
13.84048700332642,3,3,3,2,-15.07,6.09,3.8,-12.58,-1.27,4.22
13.85048699378967,3,3,3,2,-12.42,7.83,4.39,-15.24,-9.640000000000001,1.98
13.86048698425293,3,3,3,2,-8.56,5.95,1.62,-16.31,-4.5,-0.9
13.87048697471619,3,3,3,2,-8.59,6.12,2.32,-15.8,3.34,-7.74
13.88048696517944,3,3,3,2,-10.47,1.28,1.88,-21.29,9.640000000000001,-6.56
13.8904869556427,3,3,3,2,-9.460000000000001,-12.41,-2.61,-23.29,15.11,-7.45
13.90048694610596,3,3,3,2,-10.08,-14.82,-2.87,-19.75,14.09,-11.39
13.91048693656921,3,3,3,2,-10.91,-12.06,-3.21,-14.23,9.26,-11.41
13.92048692703247,3,3,3,2,-12.59,-8.300000000000001,-3.12,-8.69,5.18,-11.82
13.93048691749573,3,3,3,1,-12.82,-4.71,0.26,0.8100000000000001,1.13,-13.62
13.94048690795898,3,3,3,1,-13.17,-4.02,-0.01,4.66,0.72,-13.98
13.95048689842224,3,3,3,1,-12.37,-4.74,-0.6899999999999999,3.37,1.85,-14.01
13.9604868888855,3,3,3,1,-11.87,-4.36,-0.65,5.37,1.77,-13.94
13.97048687934875,3,3,3,1,-11.3,-0.79,0.64,4.86,1.05,-12.94
13.98048686981201,3,3,3,1,-10.91,-0.67,-0.08,1.99,1.93,-12.76
13.99048709869385,3,3,3,1,-10.52,-1.17,-0.92,-0.22,2.54,-13.56
14.0004870891571,3,3,3,1,-10.34,-1.66,-1.17,-0.01,1.88,-13.81
14.01048707962036,3,3,3,1,-10.45,-1.43,-1.1,1.55,1.25,-13.55
14.02048707008362,3,3,3,1,-10.2,-1.11,-0.92,2.65,0.75,-13.33
14.03048706054688,3,3,3,0,-10.09,-1.02,-0.91,3.48,0.77,-13.3
14.04048705101013,3,3,3,0,-10.26,-0.77,-1.14,5.11,1.19,-13.29
14.05048704147339,3,3,3,0,-10.5,0.4,-0.88,8.49,0.26,-13.26
14.06048703193665,3,3,3,0,-10.43,0.33,-1.06,10.45,-0.38,-13.25
14.0704870223999,3,3,3,0,-10.23,0,-0.99,12.25,-1.24,-13.56
14.08048701286316,3,3,3,0,-9.960000000000001,0.18,-1.17,14.77,-2.09,-13.81
14.09048700332642,3,3,3,0,-9.07,1.9,-1.52,17.41,-2.8,-13.25
14.10048699378967,3,3,3,0,-8.949999999999999,2.64,-1.8,18.66,-2.58,-12.94
14.11048698425293,3,3,3,0,-8.98,3.2,-1.9,18.49,-2.13,-12.65
14.12048697471619,3,3,3,0,-8.91,3.47,-2.01,17.21,-1.71,-12.37
14.13048696517944,3,3,3,0,-8.960000000000001,4.22,-2.38,15.4,-1.37,-11.8
14.1404869556427,3,3,3,0,-9.16,4.43,-2.27,13.39,-1.29,-11.32
14.15048694610596,3,3,3,0,-9.109999999999999,4.11,-2.31,10.73,-1.3,-10.83
14.16048693656921,3,3,3,0,-9.140000000000001,3.66,-2.18,8.460000000000001,-1.3,-10.55
14.17048692703247,3,3,3,0,-9.369999999999999,2.68,-1.66,6.83,-1.63,-10.28
14.18048691749573,3,3,3,0,-9.359999999999999,2.27,-1.39,5.35,-1.96,-10.16
14.19048690795898,3,3,3,0,-9.43,1.69,-1.14,4.07,-2.05,-10.25
14.20048689842224,3,3,3,0,-9.51,0.54,-0.89,2.85,-2.13,-10.4
14.2104868888855,3,3,3,0,-9.630000000000001,0.14,-1.16,1.47,-1.94,-10.62
14.22048687934875,3,3,3,0,-9.550000000000001,-0.29,-1,1.37,-2.1,-11.03
14.23048686981201,3,3,3,0,-9.91,-0.09,-1.31,1.24,-1.77,-11.3
14.24048709869385,3,3,3,0,-10.16,0.12,-1.53,1.64,-2.07,-11.16
14.2504870891571,3,3,3,0,-10.23,0.31,-1.35,2.42,-2.58,-11.23
14.26048707962036,3,3,3,0,-10.04,0.06,-1.22,2.8,-3.3,-11.1
14.27048707008362,3,3,3,0,-10.59,0.72,-1.19,3.63,-3.57,-10.83
14.28048706054688,3,3,3,0,-9.859999999999999,0.9399999999999999,-1.32,3.98,-3.97,-10.49
14.29048705101013,3,3,3,0,-9.300000000000001,1.44,-1.45,4.17,-4.32,-10.51
14.30048704147339,3,3,3,0,-9.06,2.61,-1.62,5.38,-4.33,-10.47
14.31048703193665,3,3,3,0,-8.56,3.13,-1.46,5.07,-3.77,-9.83
14.3204870223999,3,3,3,0,-8.99,3.19,-1.47,4.62,-2.92,-9.550000000000001
14.33048701286316,3,3,3,0,-9.27,2.65,-1.54,4,-2.15,-9.140000000000001
14.34048700332642,3,3,3,0,-9.720000000000001,2.16,-1.65,3.7,-1.51,-8.710000000000001
14.35048699378967,3,3,3,0,-9.6,1.66,-1.92,3.21,-1.43,-8.26
14.36048698425293,3,3,3,0,-10.09,0.52,-1.99,3,-1.76,-7.94
14.37048697471619,3,3,3,0,-10.34,0.09,-2.21,2.84,-1.82,-7.93
14.38048696517944,3,3,3,0,-10.72,-0.27,-2.48,2.07,-2.25,-8.18
14.3904869556427,3,3,3,0,-11.73,-0.1,-2.32,1.65,-2.41,-8.98
14.40048694610596,3,3,3,0,-12.05,1.26,-2.04,1.56,-2.86,-9.199999999999999
14.41048693656921,3,3,3,0,-11.89,1.79,-1.65,0.86,-3.45,-9.550000000000001
14.42048692703247,3,3,3,0,-11.33,2.59,-1.66,0.47,-4.42,-9.57
14.43048691749573,3,3,3,0,-11,3.63,-2.09,0.73,-4.78,-9.19
14.44048690795898,3,3,3,0,-10.95,6.21,-3.6,1.14,-3.96,-8.34
14.45048689842224,3,3,3,0,-10.86,8.369999999999999,-2.55,1.46,-2.86,-6.91
14.4604868888855,3,3,3,0,-10.53,8.9,-1.6,2.03,-2.38,-5.63
14.47048687934875,3,3,3,0,-10.67,8.710000000000001,-0.5,3.11,-2.66,-3.98
14.48048686981201,3,3,3,0,-10.65,8.1,0.27,5.29,-4.16,-0.9399999999999999
14.49048709869385,3,3,3,0,-10.2,8.26,-0.16,8.99,-5.79,2.39
14.5004870891571,3,3,3,0,-10.62,7.87,0.04,13.68,-5.95,6.28
14.51048707962036,3,3,3,0,-10.1,7.08,0.61,17.11,-4.12,9.32
14.52048707008362,3,3,3,0,-11.34,3.92,-0.72,17.55,-0.71,11.56
14.53048706054688,3,3,3,0,-11.5,1.28,-1.39,14.08,4.18,13.33
14.54048705101013,3,3,3,0,-11.79,-1.22,-1.89,9.039999999999999,9.5,14.05
14.55048704147339,3,3,3,0,-12.66,-2.55,-1.95,6.09,12.54,14.78
14.56048703193665,3,3,3,0,-16.31,-4.39,-3.02,7.02,13.11,15.08
14.5704870223999,3,3,3,0,-14.88,-3.36,-1.6,10.34,9.630000000000001,16.99
14.58048701286316,3,3,3,0,-16.07,-3.07,-0.82,15.48,10.25,16.72
14.59048700332642,3,3,3,0,-15.02,-4.26,0.23,18.54,12.42,14.94
14.60048699378967,3,3,3,0,-14.12,-3.75,0.83,18.35,13.55,12.52
14.61048698425293,3,3,3,0,-12.74,-4.66,0.67,15.17,13.97,14.05
14.62048697471619,3,3,3,0,-11.77,-4.81,0.72,11.36,13.63,16.02
14.63048696517944,3,3,3,0,-11.27,-4.38,0.85,7.54,13.6,16.93
14.6404869556427,3,3,3,0,-11.27,-3.08,1.68,3.56,13.03,17.93
14.65048694610596,3,3,3,0,-11.54,-2.35,1.97,-2.52,11.41,17.61
14.66048693656921,3,3,3,0,-10.28,-2.5,1.19,-12.57,9.19,16.37
14.67048692703247,3,3,3,0,-8.92,-3.18,0.31,-18.63,9.15,16.49
14.68048691749573,3,3,3,0,-7.5,-4.85,0.34,-21.24,10.93,17.85
14.69048690795898,3,3,3,0,-8.74,-3.11,1.34,-23.25,10.84,18.28
14.70048689842224,3,3,3,0,-8.68,-4.04,-1.01,-26.32,10.48,18.57
14.7104868888855,3,3,3,0,-7.63,-5.74,-1.32,-25.37,9.02,18.81
14.72048687934875,3,3,3,0,-7.2,-6.37,-0.08,-21.52,7.51,19.26
14.73048686981201,3,3,3,0,-6.84,-6.87,0.43,-19.01,5.5,19.39
14.74048709869385,3,3,3,0,-7.05,-6.53,0.79,-18.44,4.21,19.3
14.7504870891571,3,3,3,0,-7.04,-6.01,0.6899999999999999,-19.18,3.78,18.68
14.76048707962036,3,3,3,0,-6.85,-5.62,1.1,-17.72,3.07,17.83
14.77048707008362,3,3,3,0,-6.52,-6.25,1,-15.78,1.79,17.68
14.78048706054688,3,3,3,0,-6.09,-6.99,1.54,-13.31,-0.42,17.76
14.79048705101013,3,3,3,0,-6.36,-7.14,2.25,-9.699999999999999,-2.62,19.03
14.80148696899414,3,3,3,0,-6.95,-6.37,2.6,-5.36,-4.81,19
14.8114869594574,3,3,3,0,-6.34,-5.36,2.14,-5.53,-6.42,17.22
14.82148694992065,3,3,3,0,-7.69,-3.57,1.28,-9.16,-6.77,15.99
14.83148694038391,3,3,3,0,-7.46,-2.68,1.22,-4.36,-8.51,11.81
14.84148693084717,3,3,3,0,-7.41,1.39,0.43,0.49,-10.53,8.359999999999999
14.85148692131042,3,3,3,0,-9.390000000000001,2.97,-1.87,1.06,-7.68,7.53
14.86148691177368,3,3,3,0,-10.16,4.99,-2.32,4.87,-6.99,5.39
14.87148690223694,3,3,3,0,-9.789999999999999,8.82,-0.1,11.74,-12.11,3.29
14.8814868927002,3,3,3,0,-9.34,15.47,2.6,12.43,-15.08,2.39
14.89148688316345,3,3,3,0,-8.84,18.16,-1.78,9.24,-10.17,2.26
14.90148687362671,3,3,3,0,-10.56,20,-4.96,5.34,-3.45,0.38
14.91148686408997,3,3,3,0,-12.22,18.78,-5.54,-6.99,0.27,1.31
14.9214870929718,3,3,3,0,-9.34,13.94,-4.13,-16.26,2.14,7.15
14.93148708343506,3,3,3,0,-8.130000000000001,9.859999999999999,-3.92,-17.28,5.24,9.99
14.94148707389832,3,3,3,0,-9.800000000000001,5.22,-0.9399999999999999,-16.03,8.279999999999999,7.72
14.95148706436157,3,3,3,0,-9.99,1.69,-0.4,-13.83,9.42,6.26
14.96148705482483,3,3,3,0,-13.83,-4.09,-2.66,-11.7,14.48,3.89
14.97148704528809,3,3,3,0,-14.78,-3.41,0.14,-11.67,13.52,2.69
14.98148703575134,3,3,3,0,-13.21,5.04,3.98,-8.140000000000001,2.89,2.62
14.9914870262146,3,3,3,0,-12.87,12.26,4.98,-5.45,-6.4,1.76
15.00148701667786,3,3,3,0,-9.41,8.1,2.02,-12.76,-3.74,4.58
15.01148700714111,3,3,3,0,-9.550000000000001,6.8,2.58,-18.83,3.67,-0.03
15.02148699760437,3,3,3,0,-11.05,4.11,0,-23.71,6.23,-5.8
15.03148698806763,3,3,3,0,-8.27,-9.460000000000001,-2.13,-30.64,9.470000000000001,-6.67
15.04148697853088,3,3,3,0,-7.71,-12.49,-1.93,-30.11,14.07,-8.24
15.05148696899414,3,3,3,0,-8.02,-13.8,-3.67,-20.52,12.07,-11.66
15.0614869594574,3,3,3,0,-10.02,-10.55,-4.27,-12.93,8.57,-11.24
15.07148694992065,3,3,3,0,-11.89,-3.7,-1.94,-4.92,4.88,-11.68
15.08148694038391,3,3,3,0,-13.21,-3.35,-0.54,3.28,1.7,-14.08
15.09148693084717,3,3,3,0,-12.85,-4.14,0.37,6.96,1.26,-14.67
15.10148692131042,3,3,3,0,-12.71,-5.11,1.06,7.62,1.16,-14.7
15.11148691177368,3,3,3,0,-11.75,-0.41,2.18,11.47,-0.65,-13.27
15.12148690223694,3,3,3,0,-11.33,1.46,1.46,10.67,-0.8100000000000001,-12.39
15.1314868927002,3,3,3,1,-10.53,0.79,0.11,4.98,0.84,-12.47
15.14148688316345,3,3,3,1,-9.69,-0.72,-1.39,-0.48,3.03,-12.89
15.15148687362671,3,3,3,1,-10.24,-1.77,-2.02,-2.06,3.16,-13.17
15.16148686408997,3,3,3,1,-10.68,-1.38,-1.75,-0.55,2.6,-13.12
15.1714870929718,3,3,3,1,-10.84,-1.75,-1.75,0.26,2.06,-12.92
15.18148708343506,3,3,3,1,-10.87,-1.85,-1.98,1.75,1.42,-13.16
15.19148707389832,3,3,3,1,-10.71,-0.2,-1.35,3.8,0.64,-13.17
15.20148706436157,3,3,3,1,-10.86,0.4,-1.19,6.29,-0.44,-12.85
15.21148705482483,3,3,3,1,-10.5,0,-0.82,7.35,-1.16,-13.3
15.22148704528809,3,3,3,1,-10.26,-0.04,-0.6899999999999999,7.55,-1.75,-13.67
15.23148703575134,3,3,3,1,-9.69,0.4,-1.02,8.390000000000001,-2,-13.34
15.2414870262146,3,3,3,1,-9.550000000000001,0.17,-1.36,9.130000000000001,-1.89,-13.46
15.25148701667786,3,3,3,1,-9.41,0.17,-1.37,9.390000000000001,-1.54,-13.11
15.26148700714111,3,3,3,1,-9.51,0.59,-1.38,11.06,-1.75,-12.81
15.27148699760437,3,3,3,1,-9.390000000000001,1.81,-1.29,12.39,-2.06,-12.23
15.28148698806763,3,3,3,2,-9.27,2.17,-1.32,12.69,-2.18,-12.18
15.29148697853088,3,3,3,2,-9.51,2.52,-1.32,12.39,-1.79,-11.93
15.30148696899414,3,3,3,2,-9.550000000000001,3.02,-1.39,11.59,-1.71,-11.33
15.3114869594574,3,3,3,2,-9.08,2.76,-1.2,10.06,-1.78,-11.24
15.32148694992065,3,3,3,2,-8.92,2.64,-1.2,8.550000000000001,-2.08,-11.44
15.33148694038391,3,3,3,2,-8.949999999999999,2.47,-1.31,7.01,-2.1,-11.39
15.34148693084717,3,3,3,2,-9.029999999999999,2.2,-1.3,5.24,-1.72,-11.27
15.35148692131042,3,3,3,2,-8.949999999999999,1.77,-1.48,3.89,-1.75,-10.97
15.36148691177368,3,3,3,2,-8.890000000000001,1.3,-1.26,3.36,-2.01,-11.29
15.37148690223694,3,3,3,2,-9.029999999999999,0.75,-1.24,2.47,-2.17,-11.07
15.3814868927002,3,3,3,2,-9.6,0.63,-1.16,2.25,-1.86,-10.76
15.39148688316345,3,3,3,2,-9.92,0.23,-0.88,1.89,-2.31,-10.61
15.40148687362671,3,3,3,2,-10.12,0.18,-1,2.55,-2.76,-10.46
15.41148686408997,3,3,3,2,-10.22,0.14,-1.1,3.29,-3.16,-10.51
15.4214870929718,3,3,3,2,-10.09,0.62,-1.06,4.61,-3.57,-10.61
15.43148708343506,3,3,3,2,-9.83,1.16,-1.16,5.63,-3.72,-10.6
15.44148707389832,3,3,3,2,-9.49,1.62,-1.32,6.36,-3.69,-10.53
15.45148706436157,3,3,3,2,-9.08,2.13,-1.56,7.04,-3.51,-10.28
15.46148705482483,3,3,3,2,-9.06,2.91,-1.58,7.49,-3.17,-9.76
15.47148704528809,3,3,3,2,-9.07,3.24,-1.91,6.85,-2.8,-9.359999999999999
15.48148703575134,3,3,3,2,-9.57,3.01,-2.02,5.54,-2.37,-9.029999999999999
15.4914870262146,3,3,3,2,-9.220000000000001,2.28,-2.07,3.7,-2.15,-8.789999999999999
15.50148701667786,3,3,3,2,-10.14,2.24,-2.28,2.17,-2.33,-8.56
15.51148700714111,3,3,3,2,-10.32,0.33,-2.12,0.62,-2.92,-8.65
15.52148699760437,3,3,3,2,-10.83,0.29,-2.35,0.73,-3.54,-8.74
15.53148698806763,3,3,3,2,-11.01,0.39,-2.52,1.38,-4.08,-8.91
15.54148697853088,3,3,3,2,-12.25,1.01,-2.73,2.02,-3.95,-9.26
15.55148696899414,3,3,3,2,-12.63,2.92,-1.93,2.43,-3.99,-9.630000000000001
15.5614869594574,3,3,3,2,-11.95,4,-2.16,2.63,-5.02,-9.710000000000001
15.57148694992065,3,3,3,2,-11.08,5.24,-2.19,3.04,-5.57,-9.539999999999999
15.58148694038391,3,3,3,3,-10.39,5.58,-1.93,3.33,-5.4,-9.19
15.59148693084717,3,3,3,3,-10.16,7.73,-0.92,4.43,-5.8,-7.61
15.60148692131042,3,3,3,3,-10.3,8.24,-1.19,6.58,-5.66,-5.56
15.61148691177368,3,3,3,3,-10.26,7.78,-0.97,9,-6.32,-2.85
15.62148690223694,3,3,3,3,-10.67,8.06,-0.39,13.26,-6.51,0.91
15.6314868927002,3,3,3,3,-10.16,7.79,0.33,17.13,-6.24,4.6
15.64148688316345,3,3,3,3,-10.65,6.69,0.24,20.16,-3.43,7.91
15.65148687362671,3,3,3,3,-11.44,4.89,-0.22,18.04,0.89,10.23
15.66148686408997,3,3,3,3,-11.37,2.16,-0.99,13.17,5.89,11.67
15.6714870929718,3,3,3,3,-12.85,-2.38,-2.72,7.98,11.17,12.55
15.68148708343506,3,3,3,3,-13.6,-4,-2.51,4.42,13.38,12.34
15.69148707389832,3,3,3,3,-15.02,-4.35,-2.66,5.69,12.34,12.16
15.70148706436157,3,3,3,3,-16.45,-4.03,-2.63,9.039999999999999,7.79,14.95
15.71148705482483,3,3,3,3,-15.16,-3.98,0.84,13.53,5.15,16.57
15.72148704528809,3,3,3,3,-13.45,-3.57,2.19,15.49,9.51,14.96
15.73148703575134,3,3,3,3,-13.15,-3.25,2.44,12.48,12.72,12.12
15.7414870262146,3,3,3,3,-12.99,-3.87,1.97,5.35,14.05,10.16
15.75148701667786,3,3,3,3,-10.8,-5.36,1.47,-2.43,13.38,11.27
15.76148700714111,3,3,3,3,-10.48,-4.62,1.08,-9.279999999999999,12.12,13.35
15.77148699760437,3,3,3,3,-10.25,-4.13,1.2,-12.74,11.32,14.9
15.78148698806763,3,3,3,3,-10.21,-3.93,1.54,-15.08,10.83,16.63
15.79148697853088,3,3,3,3,-10.1,-4.38,0.61,-17.86,11.24,17
15.80148696899414,3,3,3,3,-9.550000000000001,-5.6,-0.28,-18.35,10.4,17.19
15.8114869594574,3,3,3,3,-8.56,-5.43,-0.28,-17.65,8.16,17.27
15.82248687744141,3,3,3,3,-7.83,-5.72,-0.14,-15.81,6.49,17.78
15.83248686790466,3,3,3,3,-7.97,-5.23,0.75,-13.13,6.27,18.65
15.8424870967865,3,3,3,3,-7.81,-4.83,0.32,-10.36,6.67,19.03
15.85248708724976,3,3,3,3,-7.63,-4.89,0.07000000000000001,-8.380000000000001,6.9,19.9
15.86248707771301,3,3,3,3,-7.77,-4.17,0.72,-7.5,6.01,20.05
15.87248706817627,3,3,3,3,-7.31,-4.09,0.35,-7.74,5.84,19.34
15.88248705863953,3,3,3,2,-7.15,-4.04,0.12,-8.16,5.94,18.88
15.89248704910278,3,3,3,2,-6.79,-4.48,0.38,-8.49,5.47,18.8
15.90248703956604,3,3,3,2,-7.28,-3.92,1.2,-7.02,3.95,18.96
15.9124870300293,3,3,3,2,-7.48,-3.98,1.32,-5.26,2.78,19.93
15.92248702049255,3,3,3,2,-7.2,-3.84,1.3,-3.09,0.79,19.57
15.93248701095581,3,3,3,2,-7.25,-3.83,1.41,-0.74,-0.6899999999999999,18.56
15.94248700141907,3,3,3,2,-8.41,-3.92,1.33,1.25,-1.07,17.65
15.95248699188232,3,3,3,2,-8.35,-3.46,1.45,2.48,-1.86,16.14
15.96248698234558,3,3,3,2,-7.79,-2.75,1.29,1.29,-3.73,12.59
15.99248695373535,3,3,3,2,-8.23,4.58,-0.36,0.28,-8.93,6.76
16.00248694419861,3,3,3,2,-8.65,5.81,-0.97,2.05,-8.98,5.09
16.01248693466187,3,3,3,2,-8.83,7.04,-0.8,0.48,-7.13,4.64
16.02248692512512,3,3,3,2,-8.74,9.779999999999999,2.41,-0.66,-7.98,4.63
16.03248691558838,3,3,3,2,-7.94,13.18,1.2,-0.92,-9.470000000000001,4.57
16.04248690605164,3,3,3,2,-8.67,16.8,-0.65,-1.98,-6.56,3.69
16.05248689651489,3,3,3,2,-9.4,18.14,-3.32,-3.58,-1.61,2.46
16.06248688697815,3,3,3,2,-10.1,14.33,-3.96,-7.61,2.29,2.18
16.07248687744141,3,3,3,2,-9.56,10.69,-3.05,-10.62,4.35,4.64
16.08248686790466,3,3,3,2,-9.289999999999999,7.69,-2.12,-13.63,6.15,7.15
16.0924870967865,3,3,3,2,-8.85,5.29,-1.19,-13.58,7.41,8.789999999999999
16.10248708724976,3,3,3,2,-10.27,0.52,2,-11.55,7.36,7.62
16.11248707771301,3,3,3,2,-10.41,-2.84,0.49,-11.04,6.75,6.59
16.12248706817627,3,3,3,2,-10.88,-4.71,-1.97,-11.62,8.279999999999999,4.87
16.13248705863953,3,3,3,2,-13.15,-2.45,-0.91,-11.22,11.68,3.53
16.14248704910278,3,3,3,2,-14.41,12.67,5.28,-6.65,5.09,4.6
16.15248703956604,3,3,3,2,-14.77,10.7,3.33,-5.08,-7.14,4.67
16.1624870300293,3,3,3,2,-11.49,6.43,3.53,-8.130000000000001,-7.14,2.79
16.17248702049255,3,3,3,2,-8.300000000000001,5.34,1.18,-7.96,-0.87,-4.94
16.18248701095581,3,3,3,2,-9.15,-2.32,1.43,-17.85,9.74,-7.08
16.19248700141907,3,3,3,2,-9.720000000000001,-9.77,-0.87,-17.85,9.74,-7.08
16.20248699188232,3,3,3,2,-9.59,-11.93,-4.01,-19.99,14.22,-7.61
16.21248698234558,3,3,3,2,-9.050000000000001,-11.82,-4.43,-16.86,11.59,-10.09
16.22248697280884,3,3,3,2,-13,-7.15,-4.74,-15.38,9.699999999999999,-10.96
16.23248696327209,3,3,3,2,-12.88,-4.27,-1.63,3.59,-1.47,-13.93
16.24248695373535,3,3,3,2,-12.17,-3.06,0.9,3.59,-1.47,-13.93
16.25248694419861,3,3,3,2,-12.6,-3.9,0.35,8.32,-1.36,-14.39
16.26248693466187,3,3,3,2,-11.34,-2.23,0.09,7.38,0.39,-13.5
16.27248692512512,3,3,3,2,-11.11,-1.14,0.42,6.21,1.13,-13.22
16.28248691558838,3,3,3,2,-10.72,-0.68,0.39,3.02,2.45,-13
16.29248690605164,3,3,3,2,-10.17,0.12,-0.21,3.02,2.45,-13
16.30248689651489,3,3,3,2,-9.77,-0.37,-1.49,-0.52,3.55,-12.49
16.31248688697815,3,3,3,2,-10.13,-0.9399999999999999,-1.75,-1,3.57,-11.95
16.32248687744141,3,3,3,2,-10.37,-1.39,-1.9,-0.3,2.98,-12.03
16.33248686790466,3,3,3,2,-10.7,-1.38,-2,0.25,2.72,-12.6
16.3424870967865,3,3,3,2,-10.42,-1.19,-2.01,2.07,2.54,-12.58
16.35248708724976,3,3,3,2,-10.95,-0.75,-2.29,4.68,1.78,-12.46
16.36248707771301,3,3,3,2,-10.95,-0.92,-1.85,8.85,-0.5,-12.83
16.37248706817627,3,3,3,2,-11.02,0,-1.25,10.56,-2.31,-12.97
16.38248705863953,3,3,3,2,-10.04,0.51,-0.91,12.53,-3.41,-12.91
16.39248704910278,3,3,3,2,-9.4,1.04,-1.1,13.07,-4.08,-12.64
16.40248703956604,3,3,3,2,-9.17,0.93,-1.36,14.08,-3.79,-11.67
16.4124870300293,3,3,3,2,-9.01,1.42,-1.46,14.42,-3.45,-11.08
16.42248702049255,3,3,3,2,-8.800000000000001,2.04,-1.39,13.72,-2.37,-10.44
16.43248701095581,3,3,3,2,-8.710000000000001,2.14,-1.6,12.62,-1.13,-9.970000000000001
16.44248700141907,3,3,3,2,-8.85,2.49,-1.77,11.65,-0.77,-9.82
16.45248699188232,3,3,3,2,-9.210000000000001,2.94,-1.8,9.91,-0.9399999999999999,-9.51
16.46248698234558,3,3,3,2,-9.539999999999999,2.47,-1.8,8.49,-1.32,-9.41
16.47248697280884,3,3,3,2,-9.619999999999999,2.27,-1.79,7.65,-1.99,-9.33
16.48248696327209,3,3,3,3,-9.57,2.23,-1.7,6.79,-2.31,-9.31
16.49248695373535,3,3,3,3,-9.43,2.04,-1.61,5.61,-2.52,-9.33
16.50248694419861,3,3,3,3,-9.25,1.37,-1.3,4.73,-2.54,-9.25
16.51248693466187,3,3,3,3,-9.33,1.21,-1.22,4.5,-2.49,-9.35
16.52248692512512,3,3,3,3,-9.369999999999999,1.1,-1.21,4.32,-2.56,-9.199999999999999
16.53248691558838,3,3,3,3,-9.17,1.21,-1.22,4.92,-2.36,-8.93
16.54248690605164,3,3,3,3,-9.19,1.7,-1.38,5.21,-2.08,-8.34
16.55248689651489,3,3,3,3,-8.93,1.81,-1.54,5.5,-2.03,-8.07
16.56248688697815,3,3,3,3,-9.140000000000001,2.09,-1.68,6.12,-1.91,-7.8
16.57248687744141,3,3,3,3,-9.52,2.25,-1.58,5.74,-2.17,-7.58
16.58248686790466,3,3,3,3,-9.67,2.16,-1.34,6.02,-2.22,-7.43
16.5924870967865,3,3,3,3,-9.640000000000001,2.33,-1.38,6.09,-2.42,-7.11
16.60248708724976,3,3,3,3,-9.130000000000001,2.34,-1.49,6.05,-2.45,-6.85
16.61248707771301,3,3,3,3,-9,2.38,-1.37,5.67,-2.12,-6.51
16.62248706817627,3,3,3,3,-8.970000000000001,2.07,-1.39,5.57,-2.08,-6.28
16.63248705863953,3,3,3,3,-9.1,1.91,-1.61,5.58,-1.93,-6.03
16.64248704910278,3,3,3,3,-8.630000000000001,2.04,-1.92,5.2,-1.98,-5.85
16.65248703956604,3,3,3,3,-9.029999999999999,2.77,-1.97,4.88,-1.21,-5.16
16.6624870300293,3,3,3,3,-8.470000000000001,2.21,-1.97,2.81,-1.86,-5.65
16.67248702049255,3,3,3,3,-8.91,1.01,-1.91,2.37,-1.81,-5.52
16.68248701095581,3,3,3,3,-9.6,1.25,-1.76,1.54,-2.8,-5.86
16.69248700141907,3,3,3,3,-9.609999999999999,-0.02,-1.7,1.5,-3.44,-6.12
16.70248699188232,3,3,3,3,-10.06,0.35,-1.81,2.15,-3.57,-5.94
16.71248698234558,3,3,3,3,-10.79,0.91,-1.98,2.66,-3.73,-5.95
16.72248697280884,3,3,3,3,-11.24,1.97,-2.1,2.67,-3.89,-5.78
16.73248696327209,3,3,3,3,-11.45,3.55,-1.23,4.17,-3.78,-4.82
16.74248695373535,3,3,3,3,-11.37,4.64,-1,5.64,-4.19,-4.36
16.75248694419861,3,3,3,3,-11.08,4.13,-0.66,6.89,-4.03,-3.84
16.76248693466187,3,3,3,3,-11.94,4.03,-0.36,9.16,-3.47,-2.8
16.77248692512512,3,3,3,3,-13.07,3.43,-0.79,11.48,-3.78,-0.92
16.78248691558838,3,3,3,3,-14,4,-0.57,13.93,-4.19,1.44
16.79248690605164,3,3,3,3,-14.6,4.43,-0.19,15.34,-4.17,3.77
16.80248689651489,3,3,3,3,-13.41,4.03,-0.1,14.26,-2.68,5.24
16.81248688697815,3,3,3,3,-11.52,3.15,-0.7,10.23,0.48,5.85
16.82248687744141,3,3,3,3,-11.08,1.61,-0.72,5.28,2.83,6.64
16.83248686790466,3,3,3,3,-10.4,-0.84,-0.86,1.48,4.78,6.09
16.8424870967865,3,3,3,3,-11.14,-3.21,-0.87,-0.67,4.86,6.58
16.85348701477051,3,3,3,3,-11.12,-5.63,-0.35,-1.67,4.51,7.45
16.86348700523376,3,3,3,3,-11.7,-5.32,0.3,-1.08,4.99,9.34
16.87348699569702,3,3,3,3,-11.94,-4.6,0.51,-0.64,4.55,9.31
16.88348698616028,3,3,3,3,-11.07,-5.53,0.47,1.98,4.05,7.96
16.89348697662354,3,3,3,3,-11.75,-6.21,1.28,4.43,4.51,7.99
16.90348696708679,3,3,3,3,-11.26,-6.52,1.43,5.26,4.9,8.76
16.91348695755005,3,3,3,3,-10.51,-6.13,1.62,5.08,4.57,9.890000000000001
16.92348694801331,3,3,3,3,-9.81,-4.37,2.52,1.34,3.57,10.52
16.93348693847656,3,3,3,3,-9.609999999999999,-3.63,2.74,-4.56,1.81,10.55
16.94348692893982,3,3,3,3,-9.119999999999999,-4.23,1.99,-9.18,0.93,11.28
16.95348691940308,3,3,3,3,-8.58,-4.87,1.58,-11.21,1.06,11.68
16.96348690986633,3,3,3,3,-8.81,-5.04,1.48,-11.63,1.58,11.89
16.97348690032959,3,3,3,3,-9.01,-5.79,0.65,-12,0.79,12.17
16.98348689079285,3,3,3,3,-8.73,-6.1,0.43,-12.61,-0.14,12.96
16.9934868812561,3,3,3,3,-8.92,-6.5,0.67,-11.69,-0.61,13.13
17.00348687171936,3,3,3,3,-8.82,-6.27,0.89,-10.2,-1.04,13.06
17.01348686218262,3,3,3,3,-8.67,-5.96,1.45,-8.960000000000001,-1.7,12.75
17.02348709106445,3,3,3,3,-8.1,-6.23,0.8,-8.74,-2.93,12.7
17.03348708152771,3,3,3,3,-8.119999999999999,-5.92,0.85,-7.89,-4.2,12.92
17.04348707199097,3,3,3,3,-8.039999999999999,-5.97,1.63,-8.43,-4.06,12.59
17.05348706245422,3,3,3,3,-7.87,-4.53,2.41,-9.75,-3.33,12.14
17.06348705291748,3,3,3,3,-9.140000000000001,-3.04,2.26,-11.28,-3.13,12.4
17.07348704338074,3,3,3,3,-9.289999999999999,-2.79,2.18,-14.73,-3.41,10.49
17.08348703384399,3,3,3,2,-9.359999999999999,-2.64,2.6,-13.97,-1.41,8.800000000000001
17.09348702430725,3,3,3,2,-9.25,-2.27,2.33,-10.94,-1.47,7.53
17.10348701477051,3,3,3,2,-9.289999999999999,-1.43,2.05,-8.449999999999999,-1.53,5.76
17.11348700523376,3,3,3,2,-9.43,-0.74,1.75,-6.79,-1.19,5.02
17.12348699569702,3,3,3,2,-9.24,-0.47,1.09,-4.81,-0.36,4.28
17.13348698616028,3,3,3,2,-10.11,-0.11,-0.06,-3.67,-0.31,4.22
17.14348697662354,3,3,3,2,-10.14,-0.33,0.16,-3.48,-1,4.04
17.15348696708679,3,3,3,2,-9.970000000000001,0.38,0.57,-3.83,-2.2,3.85
17.16348695755005,3,3,3,2,-9.529999999999999,0.53,1.06,-3.75,-2.52,2.52
17.17348694801331,3,3,3,2,-8.77,0.79,1.54,-3.39,-2.41,1.83
17.18348693847656,3,3,3,2,-8.390000000000001,0.65,1.38,-2.92,-2.36,1.07
17.19348692893982,3,3,3,2,-8.359999999999999,1.08,0.47,-0.9,-1.54,0.33
17.20348691940308,3,3,3,2,-9.050000000000001,2.92,-0.52,0.77,-0.85,-0.45
17.21348690986633,3,3,3,2,-9.49,3.43,-0.1,-0.36,-1.36,-0.93
17.22348690032959,3,3,3,2,-10,2.98,-0.18,-2.88,-2.19,-1.13
17.23348689079285,3,3,3,1,-10.76,-1.09,0.2,-5.38,-2.29,-1.88
17.2434868812561,3,3,3,1,-9.43,-5.82,1.63,-4.04,-3.69,-3.61
17.25348687171936,3,3,3,1,-8.23,-1.94,1.52,0.5,-3.9,-4.22
17.26348686218262,3,3,3,1,-8.32,1.56,0.96,3.42,-0.6899999999999999,-2.79
17.27348709106445,3,3,3,1,-10.19,1.23,0.03,2.75,2.15,-1.72
17.28348708152771,3,3,3,1,-11.46,-0.87,-0.12,2.57,1.58,-2.6
17.29348707199097,3,3,3,1,-10.2,0.1,0.27,2.81,0.36,-3.6
17.30348706245422,3,3,3,1,-9.449999999999999,1.32,0.68,2.16,0.55,-4.41
17.31348705291748,3,3,3,1,-9.699999999999999,1.81,1.13,0.38,0.93,-4.66
17.32348704338074,3,3,3,1,-11.99,3.59,2.67,-1.14,0.35,-4.02
17.33348703384399,3,3,3,1,-11.65,2.73,2.7,-2.99,-0.34,-3.09
17.34348702430725,3,3,3,1,-10.8,1.19,2.19,-4.27,0.54,-2.74
17.35348701477051,3,3,3,1,-9.94,0.5,1.5,-2.62,1.98,-3
17.36348700523376,3,3,3,1,-9.69,-0.28,-0.32,0.03,3.1,-3.27
17.37348699569702,3,3,3,1,-9.710000000000001,-0.37,-0.75,3.05,3.56,-3.6
17.38348698616028,3,3,3,1,-9.529999999999999,-0.01,-0.7,5.53,2.83,-4.12
17.39348697662354,3,3,3,1,-9.4,0.71,-0.6,6.88,2.02,-4.54
17.40348696708679,3,3,3,1,-9.279999999999999,1.76,-0.33,6.83,1.35,-4.58
17.41348695755005,3,3,3,1,-9.24,2.07,-0.19,5.41,1.45,-4.59
17.42348694801331,3,3,3,1,-9.41,1.71,-0.08,3.43,1.83,-4.56
17.43348693847656,3,3,3,1,-9.58,1.59,-0.19,2.2,2.42,-4.65
17.44348692893982,3,3,3,1,-10.29,1.56,-0.17,1.34,3.22,-4.54
17.45348691940308,3,3,3,1,-10.4,1.31,-0.3,0.38,3.38,-4.28
17.46348690986633,3,3,3,1,-10.19,0.85,-0.46,-0.48,3.03,-3.96
17.47348690032959,3,3,3,1,-10.04,0.61,-0.45,-0.8,2.36,-3.53
17.48348689079285,3,3,3,1,-9.34,0.96,-0.29,-0.53,1.13,-3.15
17.4934868812561,3,3,3,1,-9.470000000000001,1.37,-0.53,-0.44,0.8100000000000001,-2.5
17.50348687171936,3,3,3,1,-9.4,1.51,-0.9399999999999999,-1.01,0.93,-2.11
17.51348686218262,3,3,3,1,-9.56,1.33,-1.03,-1.7,1.2,-2.04
17.52348709106445,3,3,3,1,-10.11,0.71,-0.66,-2.47,1.33,-1.6
17.53348708152771,3,3,3,1,-10.15,-0.09,-0.25,-3.02,1.42,-1.8
17.54348707199097,3,3,3,1,-10.2,-0.54,0.09,-3.15,1.4,-1.68
17.55348706245422,3,3,3,1,-10.27,-1.21,0.32,-3.27,1.66,-1.5
17.56348705291748,3,3,3,1,-10.28,-2,0.35,-3,2,-1.41
17.57348704338074,3,3,3,1,-10.22,-2.05,0.27,-1.76,2.13,-1.63
17.58348703384399,3,3,3,1,-9.85,-2.24,0.09,-0.92,2.1,-1.82
17.59348702430725,3,3,3,1,-9.710000000000001,-1.73,-0.07000000000000001,0.39,1.92,-2.05
17.60348701477051,3,3,3,1,-9.380000000000001,-0.36,-0.24,1.04,1.26,-2.12
17.61348700523376,3,3,3,1,-9.289999999999999,0.32,-0.32,1.19,0.76,-2.1
17.62348699569702,3,3,3,1,-9.390000000000001,0.84,-0.43,1.07,0.37,-1.99
17.63348698616028,3,3,3,1,-9.550000000000001,1.08,-0.51,0.65,0.2,-1.89
17.64348697662354,3,3,3,1,-9.91,0.59,-0.59,-0.23,0.34,-1.86
17.65348696708679,3,3,3,1,-10.05,-0.07000000000000001,-0.61,-0.8100000000000001,0.55,-1.91
17.66348695755005,3,3,3,1,-10.11,-0.39,-0.55,-1.18,0.86,-1.99
17.67348694801331,3,3,3,1,-10.06,-0.75,-0.44,-1.3,1.09,-1.98
17.68348693847656,3,3,3,1,-9.859999999999999,-1.16,-0.45,-1.65,1.29,-1.99
17.69348692893982,3,3,3,1,-9.890000000000001,-1.28,-0.57,-1.73,1.43,-2.12
17.70348691940308,3,3,3,1,-9.91,-1.1,-0.83,-1.43,1.41,-2.14
17.71348690986633,3,3,3,1,-9.58,-1.13,-0.82,-1.3,1.06,-2.25
17.72348690032959,3,3,3,1,-9.48,-0.95,-0.64,-1.07,0.66,-2.39
17.73348689079285,3,3,3,1,-9.52,-0.85,-0.59,-0.97,0.14,-2.58
17.7434868812561,3,3,3,1,-9.59,-0.72,-0.55,-0.41,-0.42,-2.62
17.75348687171936,3,3,3,1,-9.56,-0.55,-0.42,0.06,-0.78,-2.54
17.76348686218262,3,3,3,1,-10.33,-0.8100000000000001,-0.18,0.04,-0.77,-2.73
17.77348709106445,3,3,3,1,-10.35,-0.55,-0.23,0.25,-0.93,-2.95
17.78348708152771,3,3,3,1,-10.35,-0.6,-0.19,0.28,-1.07,-2.96
17.79348707199097,3,3,3,1,-10.1,-0.38,-0.18,-0.02,-1.11,-3
17.80348706245422,3,3,3,1,-9.66,0.47,-0.64,-0.43,-0.86,-2.95
17.81348705291748,3,3,3,1,-9.619999999999999,0.98,-0.92,-0.8,-0.5,-2.72
17.82348704338074,3,3,3,1,-9.630000000000001,1.42,-1.18,-0.02,-0.7,-2.45
17.83348703384399,3,3,3,1,-9.48,2.04,-1.03,0.15,-0.78,-2.09
17.84348702430725,3,3,3,1,-9.58,2.4,-0.84,0.1,-0.7,-1.43
17.85348701477051,3,3,3,1,-9.609999999999999,2.43,-0.75,0.39,-0.72,-0.8100000000000001
17.86348700523376,3,3,3,1,-9.710000000000001,2.42,-0.57,0.6899999999999999,-0.52,-0.28
17.87448692321777,3,3,3,1,-9.73,2.15,-0.49,1.03,-0.3,0.12
17.88448691368103,3,3,3,2,-10.06,1.17,-0.33,0.91,0.16,0.32
17.89448690414429,3,3,3,2,-10.11,1.02,-0.28,0.65,0.57,0.47
17.90448689460754,3,3,3,2,-10.09,0.43,-0.23,0.33,0.68,0.5600000000000001
17.9144868850708,3,3,3,2,-10.09,-0.37,-0.29,0.03,0.8,0.55
17.92448687553406,3,3,3,2,-9.81,-0.6899999999999999,-0.31,-0.09,0.77,0.68
17.93448686599731,3,3,3,2,-9.81,-0.87,-0.46,-0.01,0.71,0.61
17.94448709487915,3,3,3,2,-9.81,-0.99,-0.43,0.04,0.52,0.5
17.95448708534241,3,3,3,2,-9.76,-1.04,-0.45,0.31,0.11,0.5
17.96448707580566,3,3,3,2,-9.82,-0.97,-0.26,0.5600000000000001,-0.19,0.46
17.97448706626892,3,3,3,2,-9.81,-0.95,-0.04,0.72,-0.45,0.45
17.98448705673218,3,3,3,2,-9.74,-0.89,0.02,0.31,-0.49,0.37
17.99448704719543,3,3,3,2,-9.869999999999999,-0.7,0.08,-0.18,-0.5600000000000001,0.23
18.00448703765869,3,3,3,2,-9.85,-0.68,0.03,-0.77,-0.46,0.16
18.01448702812195,3,3,3,2,-9.84,-0.67,-0.05,-1.18,-0.44,0.15
18.02448701858521,3,3,3,2,-9.81,-0.68,-0.02,-1.2,-0.49,0.12
18.03448700904846,3,3,3,2,-9.699999999999999,-0.37,-0.23,-1.07,-0.53,0.1
18.04448699951172,3,3,3,2,-9.710000000000001,-0.25,-0.32,-0.83,-0.46,0.19
18.05448698997498,3,3,3,2,-9.720000000000001,-0.27,-0.48,-0.48,-0.31,0.19
18.06448698043823,3,3,3,2,-9.75,-0.23,-0.51,0.33,-0.3,0.2
18.07448697090149,3,3,3,2,-9.93,-0.01,-0.63,1.45,-0.21,0.17
18.08448696136475,3,3,3,2,-9.859999999999999,0.11,-0.51,2.28,-0.42,0.17
18.094486951828,3,3,3,2,-9.890000000000001,0.05,-0.35,2.07,-0.26,0.26
18.10448694229126,3,3,3,2,-9.94,-0.12,-0.3,1.84,-0.26,0.39
18.11448693275452,3,3,3,2,-9.880000000000001,0.15,-0.06,1.8,-0.23,0.47
18.12448692321777,3,3,3,2,-9.890000000000001,0.02,0.08,1.59,-0.29,0.48
18.13448691368103,3,3,3,2,-9.73,0.29,0.06,1.49,-0.3,0.47
18.14448690414429,3,3,3,2,-9.73,0.18,-0.03,1.07,-0.17,0.46
18.15448689460754,3,3,3,2,-9.619999999999999,0.1,-0.25,0.79,-0.23,0.39
18.1644868850708,3,3,3,2,-9.65,0.07000000000000001,-0.22,0.65,-0.12,0.43
18.17448687553406,3,3,3,2,-9.800000000000001,0.04,-0.17,0.65,-0.1,0.42
18.18448686599731,3,3,3,2,-9.710000000000001,0.04,-0.2,0.57,-0.11,0.36
18.19448709487915,3,3,3,2,-9.81,0.03,-0.23,0.47,-0.05,0.45
18.20448708534241,3,3,3,2,-9.84,-0.04,-0.25,0.27,-0.04,0.49
18.21448707580566,3,3,3,2,-9.859999999999999,-0.07000000000000001,-0.18,0.17,0.03,0.48
18.22448706626892,3,3,3,2,-9.91,-0.16,-0.15,0.07000000000000001,0.01,0.52
18.23448705673218,3,3,3,2,-9.82,-0.23,-0.12,0.17,0,0.5
18.24448704719543,3,3,3,2,-9.76,-0.34,-0.13,0.23,-0.03,0.48
18.25448703765869,3,3,3,2,-9.76,-0.45,-0.32,0.24,-0.15,0.68
18.26448702812195,3,3,3,2,-9.779999999999999,-0.48,-0.28,0.17,-0.22,1.07
18.27448701858521,3,3,3,2,-10.01,-0.52,-0.01,0.2,-0.13,1.55
18.28448700904846,3,3,3,2,-9.949999999999999,-0.28,0.06,0.76,-0.24,1.87
18.29448699951172,3,3,3,2,-9.74,-0.02,0.03,1.55,-0.4,1.85
18.30448698997498,3,3,3,2,-9.56,0.18,-0.19,1.6,-0.33,1.7
18.31448698043823,3,3,3,2,-9.609999999999999,0.48,-0.23,0.91,-0.33,1.82
18.32448697090149,3,3,3,2,-9.609999999999999,0.61,-0.18,0.14,-0.17,2.12
18.33448696136475,3,3,3,2,-9.859999999999999,0.52,-0.17,-0.55,0.11,2.4
18.344486951828,3,3,3,2,-10.02,0.4,-0.27,-0.98,0.22,2.6
18.35448694229126,3,3,3,2,-10.19,0.1,-0.46,-1.28,0.32,2.74
18.36448693275452,3,3,3,2,-9.9,0,-0.35,-0.93,0.01,2.96
18.37448692321777,3,3,3,2,-9.75,0.05,-0.34,-0.57,-0.07000000000000001,2.73
18.38448691368103,3,3,3,2,-9.67,0.1,-0.41,-0.51,-0.02,2.3
18.39448690414429,3,3,3,2,-9.779999999999999,0.04,-0.37,-0.5600000000000001,-0.06,1.97
18.40448689460754,3,3,3,2,-9.699999999999999,0.13,-0.23,-0.37,-0.25,1.65
18.4144868850708,3,3,3,2,-9.65,0.22,-0.14,0.1,-0.22,1.16
18.42448687553406,3,3,3,2,-9.73,0.26,0.01,0.42,-0.28,0.66
18.43448686599731,3,3,3,2,-9.92,0.1,0.26,0.28,-0.26,0.21
18.44448709487915,3,3,3,2,-9.880000000000001,0.14,0.15,-0.01,-0.02,-0.14
18.45448708534241,3,3,3,2,-9.890000000000001,0.05,-0.03,-0.38,0.17,-0.29
18.46448707580566,3,3,3,2,-9.92,-0.19,-0.19,-0.84,0.3,-0.32
18.47448706626892,3,3,3,2,-9.82,-0.08,-0.37,-0.98,0.2,-0.18
18.48448705673218,3,3,3,2,-9.890000000000001,-0.08,-0.45,-1.39,0.16,0.19
18.49448704719543,3,3,3,2,-9.869999999999999,-0.02,-0.44,-1.31,-0.04,0.45
18.50448703765869,3,3,3,2,-9.699999999999999,0.22,-0.43,-0.66,-0.28,0.36
18.51448702812195,3,3,3,2,-9.720000000000001,0.34,-0.23,-0.37,-0.45,0.26
18.52448701858521,3,3,3,2,-9.68,0.49,-0.1,-0.17,-0.58,0.24
18.53448700904846,3,3,3,2,-9.73,0.52,-0.12,0.04,-0.52,-0.06
18.54448699951172,3,3,3,2,-9.75,0.5600000000000001,-0.12,0.4,-0.52,-0.24
18.55448698997498,3,3,3,2,-9.710000000000001,0.84,-0.3,0.54,-0.4,-0.4
18.56448698043823,3,3,3,2,-9.77,0.85,-0.32,0.28,-0.21,-0.3
18.57448697090149,3,3,3,2,-9.81,0.76,-0.28,-0.22,-0.03,-0.07000000000000001
18.58448696136475,3,3,3,2,-9.82,0.63,-0.28,-0.41,0,0.02
18.594486951828,3,3,3,2,-9.82,0.33,-0.26,-0.29,-0.04,0.04
18.60448694229126,3,3,3,2,-9.789999999999999,0.34,-0.32,-0.08,-0.06,0
18.61448693275452,3,3,3,2,-9.81,0.34,-0.25,-0.04,-0.1,0.13
18.62448692321777,3,3,3,2,-9.779999999999999,0.13,-0.14,-0.15,-0.17,0.29
18.63448691368103,3,3,3,3,-9.82,0,-0.17,-0.3,-0.04,0.21
18.64448690414429,3,3,3,3,-9.83,-0.03,-0.13,-0.22,0.04,-0.02
18.65448689460754,3,3,3,3,-9.82,-0.06,-0.17,-0.06,-0.06,-0.26
18.6644868850708,3,3,3,3,-9.81,-0.02,-0.19,0.13,-0.11,-0.44
18.67448687553406,3,3,3,3,-9.81,0.07000000000000001,-0.14,0.16,-0.2,-0.43
18.68448686599731,3,3,3,3,-9.81,0.16,-0.13,0,-0.36,-0.2
