timestamp,magCalib,accCalib,gyrCalib,sysCalib,accX,accY,accZ,gyrX,gyrY,gyrZ
0.009486913681030273,2,3,3,1,-10.11,-1.28,-0.7,-2.3,-2.1,0.33
0.01948690414428711,2,3,3,1,-9.960000000000001,-1.24,-0.8100000000000001,-2.17,-1.64,-0.23
0.02948689460754395,2,3,3,1,-10.08,-1.6,-0.68,-2.08,-1.01,-0.74
0.03948688507080078,2,3,3,1,-10.09,-1.78,-0.71,-2.08,-0.55,-1.12
0.04948687553405762,2,3,3,1,-10.09,-1.78,-0.71,-2.08,-0.55,-1.12
0.05948686599731445,2,3,3,1,-10.08,-1.95,-0.71,-1.57,0.42,-1.29
0.06948709487915039,2,3,3,1,-9.710000000000001,-2.12,-0.32,-1.18,0.74,-1.2
0.07948708534240723,2,3,3,1,-9.460000000000001,-2.03,-0.18,-0.78,1.01,-0.93
0.08948707580566406,2,3,3,1,-9.460000000000001,-2.03,-0.18,-0.78,1.01,-0.93
0.0994870662689209,2,3,3,1,-9.41,-1.86,-0.18,0.04,1.61,-0.1
0.1094870567321777,2,3,3,1,-9.619999999999999,-1.46,-0.13,0.32,1.56,0.46
0.1194870471954346,2,3,3,1,-9.6,-1.44,-0.08,0.52,1.23,0.85
0.1294870376586914,2,3,3,1,-9.619999999999999,-1.28,-0.13,0.59,0.88,0.99
0.1394870281219482,2,3,3,1,-9.619999999999999,-1.28,-0.13,0.85,0.58,1.02
0.1494870185852051,2,3,3,1,-9.58,-1.24,-0.27,1.14,0.48,1.02
0.1594870090484619,2,3,3,1,-9.630000000000001,-1.35,-0.53,1.5,0.25,0.9399999999999999
0.1694869995117188,2,3,3,1,-9.69,-1.32,-0.27,1.67,0.31,0.9
0.1794869899749756,2,3,3,1,-9.74,-1.36,0.07000000000000001,1.78,0.41,0.89
0.1894869804382324,2,3,3,1,-9.74,-1.36,0.07000000000000001,1.89,0.62,0.86
0.1994869709014893,2,3,3,1,-9.74,-1.22,0.1,1.9,0.84,0.84
0.210486888885498,2,3,3,1,-9.970000000000001,-0.98,0.04,1.84,1.06,0.8100000000000001
0.2204868793487549,2,3,3,1,-10.21,-0.87,0.09,1.61,1.27,0.75
0.2304868698120117,2,3,3,1,-10.3,-0.97,0.17,1.04,1.22,0.6
0.2404870986938477,2,3,3,1,-10.3,-0.97,0.17,0.28,0.73,0.34
0.2504870891571045,2,3,3,1,-10.09,-1,0.26,0.28,0.73,0.34
0.2604870796203613,2,3,3,1,-9.58,-0.87,0.2,-0.74,0.08,-0.2
0.2704870700836182,2,3,3,1,-9.48,-1.04,0.3,-1.27,0.06,-0.39
0.280487060546875,2,3,3,1,-9.42,-1.34,0.66,-1.77,0.25,-0.51
0.2904870510101318,2,3,3,1,-9.42,-1.34,0.66,-1.77,0.25,-0.51
0.3004870414733887,2,3,3,1,-9.390000000000001,-1.59,0.66,-2.45,0.57,-0.55
0.3104870319366455,2,3,3,1,-9.26,-1.79,0.25,-2.97,1.78,-0.35
0.3204870223999023,2,3,3,1,-9.289999999999999,-1.94,0.3,-2.86,2.47,-0.23
0.3304870128631592,2,3,3,1,-9.31,-2.05,0.45,-2.8,2.85,-0.2
0.340487003326416,2,3,3,1,-9.31,-2.05,0.45,-2.8,2.85,-0.2
0.3504869937896729,2,3,3,1,-9.359999999999999,-2.28,0.35,-2.34,2.16,-0.34
0.3604869842529297,2,3,3,1,-9.56,-2.2,0.11,-1.91,1.36,-0.5
0.3704869747161865,2,3,3,1,-9.460000000000001,-2.2,0.23,-1.41,0.9,-0.53
0.3804869651794434,2,3,3,1,-9.24,-2.11,0.52,-0.99,0.5600000000000001,-0.46
0.3904869556427002,2,3,3,1,-9.24,-2.11,0.52,-0.99,0.5600000000000001,-0.46
0.400486946105957,2,3,3,1,-9.220000000000001,-1.99,0.34,-0.49,0.63,-0.05
0.4104869365692139,2,3,3,1,-9.4,-1.35,0.45,-0.36,0.82,0.27
0.4204869270324707,2,3,3,1,-9.539999999999999,-1.17,0.46,-0.23,1.02,0.6
0.4304869174957275,2,3,3,1,-9.800000000000001,-1.14,0.51,-0.2,0.8,0.8
0.4404869079589844,2,3,3,1,-9.800000000000001,-1.14,0.51,-0.32,0.08,0.74
0.4504868984222412,2,3,3,1,-10.05,-1.26,0.48,-0.42,-0.53,0.49
0.460486888885498,2,3,3,1,-9.98,-1.48,-0.17,-0.47,-0.48,0.17
0.4704868793487549,2,3,3,1,-9.890000000000001,-1.53,-0.1,-0.28,-0.29,-0.12
0.4804868698120117,2,3,3,1,-9.85,-1.57,0.04,-0.17,0.04,-0.37
0.4904870986938477,2,3,3,1,-9.85,-1.57,0.04,-0.17,0.04,-0.37
0.5004870891571045,2,3,3,1,-9.65,-1.43,0.14,-0.07000000000000001,0.32,-0.47
0.5104870796203613,2,3,3,1,-9.41,-1.37,-0.01,0.37,0.31,-0.18
0.5204870700836182,2,3,3,1,-9.369999999999999,-1.3,-0.06,0.21,0.5,-0.07000000000000001
0.530487060546875,2,3,3,1,-9.359999999999999,-1.26,0.13,0.25,0.55,0.11
0.5404870510101318,2,3,3,1,-9.359999999999999,-1.26,0.13,0.25,0.55,0.11
0.5504870414733887,2,3,3,1,-9.380000000000001,-1.19,0,0.28,0.38,0.33
0.5604870319366455,2,3,3,1,-9.550000000000001,-1.2,-0.23,-0.11,-0.13,0.66
0.5704870223999023,2,3,3,1,-9.74,-1.18,-0.48,-0.2,-0.39,0.7
0.5804870128631592,2,3,3,1,-9.84,-1.17,-0.41,-0.27,-0.6,0.71
0.590487003326416,2,3,3,1,-9.84,-1.17,-0.41,-0.27,-0.6,0.71
0.6004869937896729,2,3,3,1,-9.800000000000001,-1.34,-0.32,-0.33,-0.78,0.61
0.6104869842529297,2,3,3,1,-9.68,-1.64,-0.38,-0.63,-1.05,0.38
0.6204869747161865,2,3,3,1,-9.58,-1.78,-0.31,-0.66,-1.07,0.31
0.6304869651794434,2,3,3,1,-9.57,-1.77,-0.3,-0.76,-0.92,0.31
0.6404869556427002,2,3,3,1,-9.57,-1.77,-0.3,-0.76,-0.92,0.31
0.650486946105957,2,3,3,1,-9.58,-1.67,-0.17,-0.76,-0.71,0.44
0.6804869174957275,2,3,3,1,-9.789999999999999,-1.62,-0.22,-0.77,0.29,0.54
0.6904869079589844,2,3,3,1,-9.84,-1.76,-0.29,-0.77,0.29,0.54
0.7004868984222412,2,3,3,1,-9.789999999999999,-1.78,-0.28,-0.79,0.55,0.33
0.710486888885498,2,3,3,1,-9.76,-1.89,-0.3,-0.55,0.87,-0.15
0.7204868793487549,2,3,3,1,-9.67,-2.03,-0.31,-0.24,0.93,-0.19
0.7304868698120117,2,3,3,1,-9.539999999999999,-2.02,-0.13,0.27,0.9,-0.14
0.7404870986938477,2,3,3,2,-9.460000000000001,-2.08,-0.03,0.27,0.9,-0.14
0.7504870891571045,2,3,3,2,-9.52,-2.08,0.07000000000000001,0.61,0.97,-0.03
0.7604870796203613,2,3,3,2,-9.5,-2.15,0.28,1.06,0.85,0.23
0.7704870700836182,2,3,3,2,-9.460000000000001,-1.97,0.1,1.15,0.97,0.45
0.780487060546875,2,3,3,2,-9.470000000000001,-1.87,0.18,1.29,1.13,0.68
0.7904870510101318,2,3,3,2,-9.52,-1.84,0.29,1.29,1.13,0.68
0.8004870414733887,2,3,3,2,-9.720000000000001,-1.73,0.64,1.41,1.16,0.87
0.8104870319366455,2,3,3,2,-9.77,-1.69,0.77,1.85,0.49,1.04
0.8204870223999023,2,3,3,2,-9.859999999999999,-1.64,0.9,1.49,-0.33,0.9399999999999999
0.8304870128631592,2,3,3,2,-9.84,-1.57,0.91,0.98,-0.8100000000000001,0.78
0.840487003326416,2,3,3,2,-9.75,-1.66,0.84,0.98,-0.8100000000000001,0.78
0.8504869937896729,2,3,3,2,-9.630000000000001,-1.62,0.74,0.72,-1.03,0.55
0.8604869842529297,2,3,3,2,-9.619999999999999,-1.38,0.87,-0.21,-0.82,0.11
0.8704869747161865,2,3,3,2,-9.539999999999999,-1.22,0.77,-0.13,-0.54,0.08
0.8804869651794434,2,3,3,2,-9.44,-1.17,0.98,0.28,-0.24,0.17
0.8904869556427002,2,3,3,2,-9.449999999999999,-1.23,1.3,0.28,-0.24,0.17
0.900486946105957,2,3,3,2,-9.58,-1.14,1.33,0.13,-0.12,0.26
0.9104869365692139,2,3,3,2,-9.609999999999999,-0.9399999999999999,1.12,-0.18,-0.02,0.42
0.9204869270324707,2,3,3,2,-9.91,-0.65,1.23,-0.27,-0.51,0.46
0.9304869174957275,2,3,3,2,-10.02,-0.58,1.18,-0.71,-1.08,0.45
0.9404869079589844,2,3,3,2,-10.08,-0.59,1.18,-0.71,-1.08,0.45
0.9504868984222412,2,3,3,2,-10.08,-0.67,1.29,-1.12,-1.35,0.46
0.960486888885498,2,3,3,2,-9.949999999999999,-0.55,0.9399999999999999,-1.51,-1.14,0.55
0.9704868793487549,2,3,3,2,-9.84,-0.66,0.91,-1.42,-0.9399999999999999,0.5600000000000001
0.9804868698120117,2,3,3,2,-9.710000000000001,-0.72,0.99,-1.39,-0.62,0.5
0.9904870986938477,2,3,3,2,-9.630000000000001,-0.75,1.05,-1.39,-0.62,0.5
1.010487079620361,2,3,3,2,-9.68,-0.8100000000000001,1.43,-1.7,-0.8100000000000001,0.15
1.020487070083618,2,3,3,2,-9.640000000000001,-0.88,1.2,-1.78,-0.86,-0.14
1.030487060546875,2,3,3,2,-9.51,-1.07,1.2,-1.86,-0.9399999999999999,-0.46
1.040487051010132,2,3,3,2,-9.4,-1.11,1.04,-1.86,-0.9399999999999999,-0.46
1.050487041473389,2,3,3,2,-9.210000000000001,-1.16,1.03,-1.7,-0.76,-0.7
1.090487003326416,2,3,3,2,-9.029999999999999,-1.66,0.76,-0.87,0.59,-0.5600000000000001
1.150486946105957,2,3,3,3,-9.4,-1.12,1.01,0.75,0.77,0.02
1.160486936569214,2,3,3,3,-9.42,-1.02,1.08,-0.07000000000000001,1.49,-0.21
1.170486927032471,2,3,3,3,-9.43,-0.99,0.77,-0.38,1.93,-0.32
1.180486917495728,2,3,3,3,-9.56,-0.98,0.64,-0.48,2.2,-0.45
1.190486907958984,2,3,3,3,-9.76,-1.15,0.64,-0.48,2.2,-0.45
1.200486898422241,2,3,3,3,-9.720000000000001,-1.2,0.59,-0.51,2.42,-0.54
1.210486888885498,2,3,3,3,-9.65,-1.33,0.52,0,2.82,-0.63
1.220486879348755,2,3,3,3,-9.369999999999999,-1.54,0.47,0.21,3.07,-0.57
1.230486869812012,2,3,3,3,-9.35,-1.63,0.39,0.27,3.08,-0.41
1.2414870262146,2,3,3,3,-9.52,-1.64,0.28,0.27,3.08,-0.41
1.251487016677856,2,3,3,3,-9.74,-1.67,0.14,0.43,2.77,-0.1
1.261487007141113,2,3,3,3,-10.25,-1.85,-0.15,1.13,2.01,0.38
1.27148699760437,2,3,3,3,-10.38,-1.82,-0.27,1.37,1.69,0.39
1.281486988067627,2,3,3,3,-10.43,-1.75,-0.24,1.57,1.5,0.28
1.291486978530884,2,3,3,3,-10.38,-1.63,-0.17,1.57,1.5,0.28
1.301486968994141,2,3,3,3,-10.24,-1.58,0.15,1.71,1.36,0.04
1.311486959457397,2,3,3,3,-10.08,-1.51,0.29,1.49,0.86,-0.61
1.321486949920654,2,3,3,3,-9.9,-1.39,0.23,1.26,0.75,-0.92
1.331486940383911,2,3,3,3,-9.73,-1.4,0.1,1.1,0.5,-1.18
1.341486930847168,2,3,3,3,-9.359999999999999,-1.4,-0.02,1.1,0.5,-1.18
1.351486921310425,2,3,3,3,-9.17,-1.44,-0.02,0.97,0.39,-1.32
1.361486911773682,2,3,3,3,-9.19,-1.52,0.03,0.29,0.14,-1.07
1.371486902236938,2,3,3,3,-9.289999999999999,-1.54,-0.11,0.27,-0.17,-0.73
1.381486892700195,2,3,3,3,-9.390000000000001,-1.72,-0.41,0.36,-0.19,-0.44
1.391486883163452,2,3,3,3,-9.51,-1.75,-0.41,0.36,-0.19,-0.44
1.401486873626709,2,3,3,3,-9.630000000000001,-1.75,-0.36,0.5,-0.19,-0.18
1.411486864089966,2,3,3,3,-9.73,-1.67,-0.4,0.52,-0.26,0.16
1.421487092971802,2,3,3,3,-9.710000000000001,-1.57,-0.45,0.42,-0.15,0.21
1.451487064361572,2,3,3,3,-9.699999999999999,-1.43,-0.05,0.55,0.08,0.11
1.461487054824829,2,3,3,3,-9.699999999999999,-1.52,-0.03,0.34,-0.16,0.01
1.471487045288086,2,3,3,3,-9.699999999999999,-1.51,-0.22,0.24,-0.22,-0.03
1.481487035751343,2,3,3,3,-9.630000000000001,-1.52,-0.37,0.44,-0.19,0.02
1.4914870262146,2,3,3,3,-9.630000000000001,-1.54,-0.13,0.44,-0.19,0.02
1.501487016677856,2,3,3,3,-9.619999999999999,-1.52,-0.02,0.57,-0.25,0.15
1.511487007141113,2,3,3,3,-9.609999999999999,-1.52,-0.07000000000000001,1.05,-0.39,0.49
1.52148699760437,2,3,3,3,-9.65,-1.62,-0.07000000000000001,1.03,-0.53,0.58
1.531486988067627,2,3,3,3,-9.58,-1.44,-0.1,1.01,-0.5,0.63
1.541486978530884,2,3,3,3,-9.529999999999999,-1.4,-0.06,1.01,-0.5,0.63
1.551486968994141,2,3,3,3,-9.51,-1.3,0.02,0.86,-0.24,0.59
1.561486959457397,2,3,3,3,-9.49,-1.2,0.03,0.52,-0.09,0.47
1.571486949920654,2,3,3,3,-9.640000000000001,-1.1,-0.12,0.59,-0.15,0.43
1.581486940383911,2,3,3,3,-9.68,-1.11,-0.05,0.66,-0.28,0.43
1.591486930847168,2,3,3,3,-9.75,-1.13,-0.09,0.66,-0.28,0.43
1.601486921310425,2,3,3,3,-9.77,-1.12,-0.06,0.6899999999999999,-0.44,0.36
1.611486911773682,2,3,3,3,-9.74,-1.18,-0.11,0.77,-0.48,0.02
1.621486902236938,2,3,3,3,-9.77,-1.19,-0.18,0.66,-0.37,-0.13
1.631486892700195,2,3,3,3,-9.82,-1.23,-0.15,0.52,-0.46,-0.31
1.641486883163452,2,3,3,3,-9.699999999999999,-1.16,-0.19,0.52,-0.46,-0.31
1.651486873626709,2,3,3,3,-9.67,-1.16,-0.19,0.49,-0.39,-0.48
1.661486864089966,2,3,3,3,-9.65,-1.15,-0.18,0.13,-0.22,-0.62
1.671487092971802,2,3,3,3,-9.619999999999999,-1.18,-0.3,-0.1,-0.1,-0.73
1.681487083435059,2,3,3,3,-9.51,-1.32,-0.1,-0.3,-0.04,-0.83
1.691487073898315,2,3,3,3,-9.449999999999999,-1.43,-0.03,-0.3,-0.04,-0.83
1.701487064361572,2,3,3,3,-9.41,-1.52,-0.02,-0.47,-0.14,-0.89
1.711487054824829,2,3,3,3,-9.4,-1.58,-0.07000000000000001,-0.74,-0.19,-0.83
1.721487045288086,2,3,3,3,-9.58,-1.61,-0.4,-0.74,-0.08,-0.6899999999999999
1.731487035751343,2,3,3,3,-9.609999999999999,-1.6,-0.23,-0.82,-0.02,-0.58
1.7414870262146,2,3,3,3,-9.640000000000001,-1.53,-0.23,-0.82,-0.02,-0.58
1.751487016677856,2,3,3,3,-9.73,-1.62,-0.24,-0.84,0.08,-0.46
1.761487007141113,2,3,3,3,-9.91,-1.8,-0.28,-0.98,0.04,-0.26
1.77148699760437,2,3,3,3,-9.880000000000001,-1.77,-0.36,-0.84,0.08,-0.24
1.781486988067627,2,3,3,3,-9.73,-1.75,-0.21,-0.6899999999999999,0.17,-0.29
1.791486978530884,2,3,3,3,-9.52,-1.71,-0.09,-0.6899999999999999,0.17,-0.29
1.801486968994141,2,3,3,3,-9.35,-1.59,-0.14,-0.5600000000000001,0.34,-0.35
1.811486959457397,2,3,3,3,-9.390000000000001,-1.61,-0.16,-0.18,0.57,-0.32
1.821486949920654,2,3,3,3,-9.52,-1.65,-0.22,-0.06,0.49,-0.22
1.831486940383911,2,3,3,3,-9.73,-1.8,-0.3,0.22,0.39,-0.14
1.841486930847168,2,3,3,3,-9.73,-1.82,-0.24,0.22,0.39,-0.14
1.851486921310425,2,3,3,3,-9.67,-1.71,-0.16,0.47,0.33,-0.11
1.861486911773682,2,3,3,3,-9.56,-1.62,-0.17,0.72,0.25,-0.06
1.871486902236938,2,3,3,3,-9.5,-1.58,-0.31,0.98,0.38,0.06
1.881486892700195,2,3,3,3,-9.51,-1.58,-0.17,0.9399999999999999,0.41,0.03
1.891486883163452,2,3,3,3,-9.5,-1.55,-0.03,0.9399999999999999,0.41,0.03
1.901486873626709,2,3,3,3,-9.48,-1.52,0.01,0.83,0.37,-0.06
1.911486864089966,2,3,3,3,-9.58,-1.54,-0.13,0.8,0.39,-0.16
1.921487092971802,2,3,3,3,-9.58,-1.51,-0.18,0.74,0.46,-0.23
1.931487083435059,2,3,3,3,-9.619999999999999,-1.45,-0.09,0.78,0.52,-0.16
1.941487073898315,2,3,3,3,-9.76,-1.47,-0.06,0.78,0.52,-0.16
1.951487064361572,2,3,3,3,-9.869999999999999,-1.54,-0.15,0.8100000000000001,0.44,-0.12
1.961487054824829,2,3,3,3,-9.76,-1.48,-0.05,0.76,0.38,-0.16
1.971487045288086,2,3,3,3,-9.66,-1.43,-0.11,0.95,0.39,-0.29
1.981487035751343,2,3,3,3,-9.529999999999999,-1.37,-0.1,0.98,0.41,-0.3
1.9914870262146,2,3,3,3,-9.49,-1.34,0.01,0.98,0.41,-0.3
2.001487016677856,2,3,3,3,-9.56,-1.35,-0.04,0.89,0.36,-0.26
2.011487007141113,2,3,3,3,-9.609999999999999,-1.34,-0.09,0.65,0.36,-0.24
2.02148699760437,2,3,3,3,-9.619999999999999,-1.43,-0.13,0.4,0.34,-0.26
2.051486968994141,2,3,3,3,-9.69,-1.45,-0.13,0.07000000000000001,0.21,-0.23
2.061486959457397,2,3,3,3,-9.710000000000001,-1.5,-0.17,0.1,0.18,-0.15
2.071486949920654,2,3,3,3,-9.74,-1.51,-0.11,0.13,0.09,0
2.081486940383911,2,3,3,3,-9.710000000000001,-1.48,-0.02,0.18,0.03,0.02
2.091486930847168,2,3,3,3,-9.58,-1.53,0.13,0.18,0.03,0.02
2.101486921310425,2,3,3,3,-9.539999999999999,-1.51,0.02,0.04,-0.09,0.03
2.111486911773682,2,3,3,3,-9.49,-1.5,-0.12,0.04,-0.09,0.03
2.121486902236938,2,3,3,3,-9.51,-1.43,-0.21,-0.06,0.24,0.08
2.131486892700195,2,3,3,3,-9.58,-1.47,-0.15,-0.06,0.24,0.08
2.141486883163452,2,3,3,3,-9.68,-1.51,-0.08,-0.04,0.31,0.16
2.151486873626709,2,3,3,3,-9.68,-1.5,-0.06,0.09,0.35,0.23
2.161486864089966,2,3,3,3,-9.65,-1.49,-0.03,0.22,0.29,0.27
2.171487092971802,2,3,3,3,-9.619999999999999,-1.39,-0.18,0.36,0.41,0.32
2.181487083435059,2,3,3,3,-9.59,-1.35,0,0.41,0.45,0.26
2.191487073898315,2,3,3,3,-9.59,-1.31,0.09,0.41,0.45,0.26
2.201487064361572,2,3,3,3,-9.6,-1.28,0.1,0.24,0.31,0.22
2.211487054824829,2,3,3,3,-9.68,-1.3,-0.12,0.11,0.25,0.15
2.221487045288086,2,3,3,3,-9.73,-1.31,-0.09,-0.13,0.27,0.15
2.231487035751343,2,3,3,3,-9.75,-1.36,-0.01,-0.34,0.22,0.09
2.242486953735352,2,3,3,3,-9.76,-1.41,-0.04,-0.49,0.16,0.08
2.251487016677856,2,3,3,3,-9.699999999999999,-1.42,-0.06,-0.47,0.08,0.09
2.262486934661865,2,3,3,3,-9.66,-1.39,-0.06,-0.42,0.07000000000000001,0.08
2.272486925125122,2,3,3,3,-9.66,-1.36,-0.04,-0.42,0.07000000000000001,0.07000000000000001
2.282486915588379,2,3,3,3,-9.640000000000001,-1.32,0.05,-0.43,-0.03,0.13
2.292486906051636,2,3,3,3,-9.630000000000001,-1.32,-0.01,-0.53,-0.14,0.11
2.302486896514893,2,3,3,3,-9.6,-1.32,-0.08,-0.55,-0.26,0.01
2.312486886978149,2,3,3,3,-9.59,-1.36,-0.1,-0.63,-0.24,-0.09
2.322486877441406,2,3,3,3,-9.58,-1.41,-0.22,-0.66,-0.2,-0.12
2.332486867904663,2,3,3,3,-9.57,-1.52,-0.03,-0.6,-0.21,-0.13
2.342487096786499,2,3,3,3,-9.56,-1.55,-0.02,-0.5600000000000001,-0.26,-0.12
2.352487087249756,2,3,3,3,-9.56,-1.54,-0.04,-0.61,-0.23,-0.14
2.362487077713013,2,3,3,3,-9.6,-1.52,-0.07000000000000001,-0.6,-0.14,-0.1
2.37248706817627,2,3,3,3,-9.69,-1.48,-0.17,-0.51,-0.01,-0.05
2.382487058639526,2,3,3,3,-9.73,-1.45,-0.05,-0.45,0.01,0
2.392487049102783,2,3,3,3,-9.73,-1.43,-0.03,-0.37,-0.07000000000000001,-0.01
2.40248703956604,2,3,3,3,-9.66,-1.38,-0.15,-0.49,-0.23,-0.1
2.412487030029297,2,3,3,3,-9.5,-1.4,-0.15,-0.5600000000000001,-0.09,-0.29
2.422487020492554,2,3,3,3,-9.49,-1.46,-0.18,-0.41,0.15,-0.37
2.432487010955811,2,3,3,3,-9.5,-1.53,-0.2,-0.39,0.27,-0.36
2.442487001419067,2,3,3,3,-9.51,-1.65,-0.2,-0.26,0.39,-0.31
2.452486991882324,2,3,3,3,-9.52,-1.7,-0.23,0.01,0.54,-0.2
2.462486982345581,2,3,3,3,-9.57,-1.71,-0.25,0.33,0.8100000000000001,-0.04
2.472486972808838,2,3,3,3,-9.539999999999999,-1.67,-0.34,0.67,0.98,0.17
2.482486963272095,2,3,3,3,-9.58,-1.64,-0.31,0.92,1.13,0.34
2.492486953735352,2,3,3,3,-9.67,-1.73,-0.22,1.03,1.1,0.47
2.502486944198608,2,3,3,3,-9.779999999999999,-1.84,-0.09,0.98,0.98,0.44
2.512486934661865,2,3,3,3,-9.84,-1.89,0.04,0.77,0.7,0.39
2.522486925125122,2,3,3,3,-9.75,-1.9,0.07000000000000001,0.5,0.26,0.3
2.532486915588379,2,3,3,3,-9.609999999999999,-2,0.14,0.38,0.01,0.26
2.542486906051636,2,3,3,3,-9.58,-1.98,0.04,0.37,0.02,0.25
2.552486896514893,2,3,3,3,-9.529999999999999,-1.95,0.12,0.37,0.01,0.29
2.562486886978149,2,3,3,3,-9.369999999999999,-1.91,0.26,0.33,-0.13,0.41
2.572486877441406,2,3,3,3,-9.58,-1.88,0.24,0.11,-0.05,0.59
2.582486867904663,2,3,3,3,-9.65,-1.98,0.47,0.25,-0.44,0.74
2.592487096786499,2,3,3,3,-9.35,-2.01,0.21,0.02,-0.62,0.65
2.602487087249756,2,3,3,3,-9.52,-1.85,0.12,-0.58,-0.49,0.3
2.612487077713013,2,3,3,3,-9.25,-1.89,-0.21,-1,-0.76,-0.14
2.62248706817627,2,3,3,3,-9.369999999999999,-1.87,-0.45,-1.62,-0.04,-0.79
2.632487058639526,2,3,3,3,-9.619999999999999,-2.01,-0.04,-1.48,0.23,-1.2
2.642487049102783,2,3,3,3,-9.68,-2.29,-0.25,-0.9,0.23,-1.32
2.65248703956604,2,3,3,3,-9.66,-2.37,-0.15,-0.74,0.15,-1.5
2.662487030029297,2,3,3,3,-9.630000000000001,-2.46,-0.06,-0.6899999999999999,0.21,-1.56
2.672487020492554,2,3,3,3,-9.5,-2.54,-0.31,-0.75,0.13,-1.44
2.682487010955811,2,3,3,3,-9.44,-2.61,-0.27,-0.93,0.01,-1.21
2.692487001419067,2,3,3,3,-9.33,-2.63,-0.3,-1.32,-0.16,-0.9399999999999999
2.702486991882324,2,3,3,3,-9.19,-2.64,-0.3,-1.57,-0.33,-0.71
2.712486982345581,2,3,3,3,-8.949999999999999,-2.87,-0.17,-1.51,-0.42,-0.49
2.722486972808838,2,3,3,3,-8.84,-3.12,-0.21,-1.37,-0.46,-0.42
2.732486963272095,2,3,3,3,-8.65,-3.38,-0.21,-1.22,-0.64,-0.65
2.742486953735352,2,3,3,3,-8.380000000000001,-3.58,-0.24,-0.9,-0.99,-1.12
2.752486944198608,2,3,3,3,-7.56,-3.46,0.13,-0.54,-1.53,-1.81
2.762486934661865,2,3,3,3,-7.28,-3.45,0.42,-0.12,-2.2,-2.67
2.772486925125122,2,3,3,3,-7.08,-3.46,0.26,-0.29,-3.42,-4.06
2.782486915588379,2,3,3,3,-6.42,-3.18,0,-1.48,-4.61,-5.68
2.792486906051636,2,3,3,3,-5.68,-2.17,-0.1,-2.14,-5.32,-6.27
2.802486896514893,2,3,3,3,-5.24,-2.14,-0.33,-1.65,-6,-6.12
2.812486886978149,2,3,3,3,-5.12,-1.95,-0.65,-1.5,-6.3,-5.72
2.822486877441406,2,3,3,3,-4.45,-1.2,0,-1.62,-6.78,-5.63
2.832486867904663,2,3,3,3,-3.75,-0.9,0.26,-2.18,-7.66,-6.2
2.842487096786499,2,3,3,3,-3.44,-0.63,0.33,-2.83,-7.69,-6.85
2.852487087249756,2,3,3,3,-3.59,-0.72,-0.07000000000000001,-2.82,-6.78,-6.95
2.862487077713013,2,3,3,3,-4.65,-1.69,-0.4,-2.36,-5.56,-6.84
2.87248706817627,2,3,3,3,-5.78,-2.12,-0.13,-1.65,-4.36,-6.84
2.882487058639526,2,3,3,3,-6.96,-2,0.36,-0.48,-3.79,-5.86
2.892487049102783,2,3,3,3,-7.89,-1.97,0.21,0.72,-4.08,-4.2
2.90248703956604,2,3,3,3,-8.720000000000001,-1.02,0.83,1.79,-3.18,-3.41
2.912487030029297,2,3,3,3,-8.970000000000001,-0.46,1.22,3.21,-1.83,-4.26
2.922487020492554,2,3,3,3,-9.27,-0.05,1.37,4.32,-1.37,-5.7
2.932487010955811,2,3,3,3,-9.720000000000001,-0.15,1.36,4.13,-1.94,-7
2.942487001419067,2,3,3,3,-10.8,-1.1,0.9,2.76,-2.36,-7.8
2.952486991882324,2,3,3,3,-11.22,-1.73,0.87,2.05,-1.69,-7.79
2.962486982345581,2,3,3,3,-11.13,-1.53,1.19,1.84,0.04,-7.15
2.972486972808838,2,3,3,3,-11.42,-1.52,1.04,1.94,1.51,-6.21
2.982486963272095,2,3,3,3,-12.29,0.18,0.11,1.92,2.16,-4.9
2.992486953735352,2,3,3,3,-12.51,0.86,-0.04,1.52,1.93,-4.11
3.002486944198608,2,3,3,3,-12.65,0.62,0.37,0.87,0.6899999999999999,-3.63
3.012486934661865,2,3,3,3,-13.05,-0.19,1.2,0.19,-0.51,-3.38
3.022486925125122,2,3,3,3,-13.24,-1.42,2.25,-0.19,-1.32,-3.25
3.032486915588379,2,3,3,3,-13.83,-1.94,2.16,-0.38,-1.5,-2.93
3.042486906051636,2,3,3,3,-14.23,-2.09,1.54,-0.6,-1.15,-2.26
3.052486896514893,2,3,3,3,-14.8,-2.17,0.91,-0.12,-0.48,-1.2
3.062486886978149,2,3,3,3,-14.88,-2.18,0.95,0.49,-0.34,0.1
3.072486877441406,2,3,3,3,-15.04,-2.1,1.1,0.57,-0.59,1.04
3.082486867904663,2,3,3,3,-15.22,-1.98,1.36,0.24,-1.06,1.39
3.092487096786499,2,3,3,3,-14.83,-2.05,1.66,-0.02,-1.5,1.3
3.102487087249756,2,3,3,3,-15.35,-2.4,1.89,-0.15,-1.48,1.51
3.112487077713013,2,3,3,3,-15.84,-2.54,2.1,-0.18,-2,1.85
3.12248706817627,2,3,3,3,-16.47,-2.9,1.91,-0.18,-2.51,2.2
3.132487058639526,2,3,3,3,-18.44,-2.75,1.44,0.17,-3.12,2.66
3.142487049102783,2,3,3,3,-19.5,-2.68,1.63,0.59,-3.71,3.34
3.15248703956604,2,3,3,3,-20.45,-2.43,2.07,1.27,-4.23,4.81
3.162487030029297,2,3,3,3,-20.65,-2.43,2.9,2.53,-4.55,7.01
3.173486948013306,2,3,3,3,-21.95,-3.19,2.95,2.99,-4.48,9.26
3.182487010955811,2,3,3,3,-24.56,-2.83,2.86,2.17,-5.08,12.08
3.192487001419067,2,3,3,3,-27.62,-1.88,3.35,0.4,-6.7,15.33
3.203486919403076,2,3,3,3,-30.06,-0.93,4.58,-1.1,-7.51,17.02
3.212486982345581,2,3,3,3,-33.11,-0.43,4.83,-1.76,-4.8,15.68
3.222486972808838,2,3,3,3,-33.83,-1.18,4.33,-1.02,0.98,11.54
3.233486890792847,2,3,3,3,-32.82,-2.56,4.35,0.58,5.97,7.34
3.242486953735352,2,3,3,3,-29.26,-6.07,4.32,2.62,8.17,5.14
3.252486944198608,2,3,3,3,-26.62,-7.31,3.35,4.81,9.380000000000001,4.16
3.262486934661865,2,3,3,3,-23.47,-7.23,1.72,6.07,10.9,2.67
3.272486925125122,2,3,3,3,-19.31,-6.56,0.41,6.18,11.8,-0.26
3.28348708152771,2,3,3,3,-9.74,-2.58,-0.76,5.74,11.92,-6.06
3.293487071990967,2,3,3,3,-3.42,-2.43,1.32,4.72,13.01,-11.95
3.303487062454224,2,3,3,3,1.61,-6,3.09,4.57,15.34,-16.13
3.31348705291748,2,3,3,3,5.43,-10.85,3.38,3.42,13.87,-17.18
3.323487043380737,2,3,3,3,9.35,-17.92,1.15,0.49,9.199999999999999,-16.59
3.333487033843994,2,3,3,3,10.19,-15.23,-1.8,-1.87,4.08,-14.21
3.343487024307251,2,3,3,3,8.039999999999999,-9.01,-0.74,0.87,1.84,-6.83
3.373486995697021,2,3,3,3,2.13,2.03,-0.68,-0.07000000000000001,-4.24,13.28
3.383486986160278,2,3,3,3,1.32,4.15,-0.79,-0.99,-4.04,15.08
3.393486976623535,2,3,3,3,-0.22,5.56,-0.77,-1.2,-1.77,13.6
3.403486967086792,2,3,3,3,-2.71,4.14,-0.15,-1.94,-0.58,10.76
3.413486957550049,2,3,3,3,-2.81,2.86,-0.15,-2.81,-0.07000000000000001,6.79
3.423486948013306,2,3,3,3,-3.1,1.78,-0.25,-3.79,0.78,2.89
3.433486938476562,2,3,3,3,-1.85,-0.61,-0.44,-4.31,1.46,-0.01
3.443486928939819,2,3,3,3,-0.78,-1.3,-0.53,-4.2,1.64,-2.09
3.453486919403076,2,3,3,3,0.28,-1.71,-0.62,-3.12,1.05,-3.78
3.463486909866333,2,3,3,3,1.22,-2.06,-0.79,-1.55,0.12,-5.34
3.47348690032959,2,3,3,3,1.87,-2.65,-0.59,0,-0.51,-5.99
3.483486890792847,2,3,3,3,1.7,-2.33,0.07000000000000001,1.08,-0.85,-5.45
3.493486881256104,2,3,3,3,1.83,-1.65,0.54,2.05,-1.76,-4.31
3.50348687171936,2,3,3,3,2.02,-0.91,0.31,1.95,-1.59,-3.32
3.513486862182617,2,3,3,3,1.69,-0.07000000000000001,-0.31,2.1,-0.42,-2.38
3.523487091064453,2,3,3,3,1.75,-0.02,-0.23,2.81,0.26,-1.35
3.53348708152771,2,3,3,3,1.45,0.23,-0.18,2.86,0.9399999999999999,-0.06
3.543487071990967,2,3,3,3,0.89,0.67,-0.15,2.1,1.02,1.3
3.553487062454224,2,3,3,3,0.07000000000000001,0.67,-0.48,1.06,0.42,2.41
3.56348705291748,2,3,3,3,-0.1,0.38,-0.6899999999999999,0.3,-0.45,3.15
3.573487043380737,2,3,3,3,-0.35,0,-0.85,-0.16,-1.09,3.33
3.583487033843994,2,3,3,3,-0.54,-0.26,-0.5600000000000001,-0.36,-1.52,2.9
3.593487024307251,2,3,3,3,-1.1,-0.66,0.4,-0.33,-2.44,1.73
3.603487014770508,2,3,3,3,-0.48,-0.73,0.23,-0.93,-3.68,0.2
3.613487005233765,2,3,3,3,-0.05,-0.46,-0.82,-1.68,-2.96,-0.89
3.623486995697021,2,3,3,3,0.14,-0.05,-0.85,-0.43,-1.93,-1.48
3.633486986160278,2,3,3,3,1.28,0.66,-0.38,1.05,-0.3,-2.29
3.643486976623535,2,3,3,3,1.37,1.18,0.14,1.64,1.17,-3.11
3.653486967086792,2,3,3,3,1.36,1.43,0.05,1.89,1.75,-3.65
3.663486957550049,2,3,3,3,1.08,0.77,-0.2,2.19,2.12,-3.77
3.673486948013306,2,3,3,3,0.52,0.16,-0.04,2.6,2.42,-3.3
3.683486938476562,2,3,3,3,-0.09,-0.52,0.19,2.79,1.63,-2.45
3.693486928939819,2,3,3,3,-0.13,-1.46,0.22,2.91,-0.16,-1.41
3.703486919403076,2,3,3,3,0,-3.24,0.39,2.37,-1.18,-0.64
3.713486909866333,2,3,3,3,0.07000000000000001,-4.23,0.48,1.77,-0.99,-0.06
3.72348690032959,2,3,3,3,0.11,-4.76,0.77,1.58,-0.08,0.6899999999999999
3.733486890792847,2,3,3,3,0.02,-4.39,1.15,1.16,0.85,1.91
3.743486881256104,2,3,3,3,-1.26,-2.92,3.26,1.51,1.47,4.59
3.75348687171936,2,3,3,3,-4.33,-8.42,6.49,3.85,0.61,8.85
3.763486862182617,2,3,3,3,-12.24,-14.03,3.03,1.93,-7.52,14.03
3.773487091064453,2,3,3,3,-17.89,-14.23,-0.33,-5.38,-18.31,19.51
3.78348708152771,2,3,3,3,-36.56,-5.59,1.89,-2.46,-19.76,24.3
3.793487071990967,2,3,3,3,-39.05,2.63,4.62,-3.17,1.35,22.28
3.803487062454224,2,3,3,3,-38.75,3.29,7.95,-6.04,10.06,13.3
3.81348705291748,2,3,3,3,-33.11,-15.19,-2.07,-2.88,11.65,-0.93
3.823487043380737,2,3,3,3,-23.43,-9.51,-1.84,2.44,10.76,-0.53
3.833487033843994,2,3,3,3,-7.47,-8.289999999999999,3.11,13.68,6.52,15.76
3.843487024307251,2,3,3,3,-34.67,24.4,10.53,2.99,-4.21,35.74
3.853487014770508,2,3,3,3,-29.05,6.62,2.01,3.57,3.23,13.83
3.863487005233765,2,3,3,3,-19.79,6.57,0.74,3.04,1.83,3.63
3.873486995697021,2,3,3,3,-17.31,4.87,1.22,2.03,-0.06,-1.07
3.883486986160278,2,3,3,3,-15.03,4.38,1.17,-0.04,-1.32,-2.89
3.893486976623535,2,3,3,3,-16.33,2.25,2.21,-1.43,-1.81,-3.48
3.903486967086792,2,3,3,3,-19.04,0.64,2.09,-1.42,-0.6899999999999999,-4.6
3.913486957550049,2,3,3,3,-20.63,-0.16,2.14,-0.9399999999999999,1,-5.75
3.923486948013306,2,3,3,3,-21.43,-1.18,1.04,0.13,2.79,-6.76
3.933486938476562,2,3,3,3,-18.72,-2.34,0.01,1.93,3.78,-6.91
3.943486928939819,2,3,3,3,-16.42,-2.07,-0.35,3.94,3.95,-5.85
3.953486919403076,2,3,3,3,-14.08,-1.45,-0.09,5.21,3.57,-4.4
3.963486909866333,2,3,3,3,-12.36,-0.79,0.25,5.63,3.69,-2.94
3.97348690032959,2,3,3,3,-9.75,-0.54,0.65,5.25,3.94,-1.77
3.983486890792847,2,3,3,3,-9.19,-0.52,0.48,4.41,3.85,-0.57
3.993486881256104,2,3,3,3,-8.76,-0.36,0.37,3.44,3.65,0.46
4.00348687171936,2,3,3,3,-8.289999999999999,-0.28,0.18,2.7,3.24,0.83
4.013486862182617,2,3,3,3,-7.95,-0.6,0.03,2.13,2.54,0.3
4.023487091064453,2,3,3,3,-8.119999999999999,-0.6899999999999999,-0.16,1.36,1.56,-0.76
4.03348708152771,2,3,3,3,-8.300000000000001,-0.71,-0.38,0.86,0.97,-1.9
4.043487071990967,2,3,3,3,-7.89,-0.77,-0.22,0.78,0.82,-3
4.06348705291748,2,3,3,3,-6.42,-0.6,-0.34,0.09,0.97,-4.78
4.073487043380737,2,3,3,3,-5.76,-0.53,-0.34,-0.43,1.07,-5.08
4.083487033843994,2,3,3,3,-4.35,-0.68,0.01,-1.01,1.19,-4.87
4.093487024307251,2,3,3,3,-4.16,-0.77,0.19,-1.43,1.57,-4.33
4.103487014770508,2,3,3,3,-4.32,-0.88,0.4,-1.82,1.63,-3.46
4.113487005233765,2,3,3,3,-4.54,-1.11,0.37,-2.3,1.14,-2.59
4.123486995697021,2,3,3,3,-5.65,-1.95,0.04,-2.49,0.26,-1.97
4.133486986160278,2,3,3,3,-6.14,-2.43,-0.09,-2.48,-0.53,-1.42
4.143486976623535,2,3,3,3,-6.9,-2.79,0.01,-2.48,-0.95,-0.96
4.153486967086792,2,3,3,3,-7.42,-2.94,-0.09,-2.76,-1.89,-0.48
4.163486957550049,2,3,3,3,-8.31,-2.75,-0.05,-2.86,-2.6,0.03
4.173486948013306,2,3,3,3,-8.550000000000001,-2.66,-0.04,-3.05,-2.87,0.37
4.183486938476562,2,3,3,3,-8.69,-2.57,-0.04,-3.01,-2.84,0.52
4.193486928939819,2,3,3,3,-9.109999999999999,-2.43,0.15,-2.91,-2.43,0.5600000000000001
4.203486919403076,2,3,3,3,-10.04,-2.22,0.01,-2.68,-1.98,0.44
4.213486909866333,2,3,3,3,-10.48,-2.22,0.11,-2.15,-1.22,0.32
4.22348690032959,2,3,3,3,-10.88,-2.15,0.27,-1.7,-0.31,0.24
4.233486890792847,2,3,3,3,-10.93,-2.11,0.4,-1.3,-0.22,-0.1
4.243486881256104,2,3,3,3,-10.65,-1.89,0.39,-0.71,-0.29,-0.44
4.25348687171936,2,3,3,3,-10.47,-1.65,0.19,-0.27,0,-0.6899999999999999
4.263486862182617,2,3,3,3,-10.31,-1.43,0.3,-0.06,0.18,-0.75
4.273487091064453,2,3,3,3,-9.800000000000001,-1.04,0.09,-0.15,0.21,-0.6
4.28348708152771,2,3,3,3,-9.51,-0.9,0.05,-0.45,0.11,-0.36
4.293487071990967,2,3,3,3,-9.48,-0.79,0.19,-0.5600000000000001,0.01,0.07000000000000001
4.303487062454224,2,3,3,3,-9.359999999999999,-0.88,0.14,-0.79,0.05,0.58
4.314486980438232,2,3,3,3,-9.380000000000001,-1.02,-0.18,-1.16,0.21,0.85
4.324486970901489,2,3,3,3,-9.369999999999999,-1.15,-0.2,-1.25,0.34,0.97
4.334486961364746,2,3,3,3,-9.41,-1.29,-0.23,-1.48,0.54,0.83
4.344486951828003,2,3,3,3,-9.35,-1.37,-0.21,-1.62,0.7,0.49
4.35448694229126,2,3,3,3,-9.24,-1.85,0.02,-1.64,0.82,0.02
4.364486932754517,2,3,3,3,-9.119999999999999,-1.78,-0.07000000000000001,-1.67,0.9399999999999999,-0.5600000000000001
4.374486923217773,2,3,3,3,-9.039999999999999,-1.74,-0.04,-1.34,1.09,-1.1
4.38448691368103,2,3,3,3,-9,-1.78,-0.07000000000000001,-1.13,1.08,-1.47
4.394486904144287,2,3,3,3,-8.85,-1.64,0.08,-1.05,0.88,-1.65
4.404486894607544,2,3,3,3,-8.84,-1.53,0.07000000000000001,-0.82,0.66,-1.58
4.414486885070801,2,3,3,3,-8.93,-1.47,0.11,-0.73,0.52,-1.43
4.424486875534058,2,3,3,3,-9.02,-1.45,0.06,-0.86,0.41,-1.21
4.434486865997314,2,3,3,3,-9.300000000000001,-1.58,0.05,-0.9399999999999999,0.46,-0.97
4.44448709487915,2,3,3,3,-9.33,-1.6,-0.04,-0.9399999999999999,0.47,-0.77
4.454487085342407,2,3,3,3,-9.460000000000001,-1.61,-0.04,-0.82,0.57,-0.64
4.464487075805664,2,3,3,3,-10.08,-1.87,-0.27,-0.73,0.58,-0.49
4.474487066268921,2,3,3,3,-10.23,-1.83,-0.39,-0.78,0.31,-0.31
4.484487056732178,2,3,3,3,-10.31,-1.77,-0.25,-0.8,-0.1,-0.14
4.494487047195435,2,3,3,3,-10.25,-1.72,-0.15,-0.63,-0.37,-0.07000000000000001
4.504487037658691,2,3,3,3,-9.85,-1.52,0.05,-0.5600000000000001,-0.57,-0.25
4.514487028121948,2,3,3,3,-9.69,-1.52,-0.04,-0.45,-0.5600000000000001,-0.55
4.524487018585205,2,3,3,3,-9.56,-1.54,-0.09,-0.33,-0.27,-0.92
4.534487009048462,2,3,3,3,-9.31,-1.53,-0.01,-0.43,0.13,-1.2
4.544486999511719,2,3,3,3,-8.85,-2.03,0.12,-0.48,0.45,-1.06
4.554486989974976,2,3,3,3,-8.859999999999999,-2.15,0.2,-0.49,0.79,-0.96
4.564486980438232,2,3,3,3,-8.92,-2.33,0.26,0.08,0.73,-1.05
4.574486970901489,2,3,3,3,-9.49,-2.75,-0.08,0.5600000000000001,0.23,-0.87
4.584486961364746,2,3,3,3,-10.11,-2.77,-0.61,0.84,-0.37,-0.5
4.594486951828003,2,3,3,3,-10.43,-2.32,-0.77,1.2,-0.57,0.05
4.60448694229126,2,3,3,3,-10.31,-1.88,-0.3,1.72,-0.96,0.47
4.614486932754517,2,3,3,3,-10.07,-1.83,0.19,2.03,-1.19,0.46
4.624486923217773,2,3,3,3,-9.31,-1.88,0.09,2.04,-1.51,-0.01
4.63448691368103,2,3,3,3,-9.01,-2.06,0.1,1.97,-1.32,-0.5600000000000001
4.644486904144287,2,3,3,3,-8.82,-2.13,0.18,1.7,-0.74,-1.05
4.654486894607544,2,3,3,3,-8.880000000000001,-2.2,0.22,1.46,-0.16,-1.4
4.664486885070801,2,3,3,3,-9.02,-2.35,0.16,1.47,0.23,-1.54
4.674486875534058,2,3,3,3,-9.24,-2.38,0.05,1.54,0.54,-1.32
4.684486865997314,2,3,3,3,-9.529999999999999,-2.39,0.02,1.68,0.76,-0.84
4.69448709487915,2,3,3,3,-10.05,-2.32,0.18,1.85,0.76,-0.34
4.704487085342407,2,3,3,3,-10.1,-2.15,0.31,2.01,0.5,0.11
4.714487075805664,2,3,3,3,-9.91,-1.91,0.27,2.06,0.21,0.4
4.724487066268921,2,3,3,3,-9.720000000000001,-1.7,0.08,2.09,0.13,0.62
4.734487056732178,2,3,3,3,-9.300000000000001,-1.33,0.14,2.05,0.16,0.76
4.744487047195435,2,3,3,3,-9.199999999999999,-1.26,0.17,1.79,0.17,0.84
4.754487037658691,2,3,3,3,-9.19,-1.24,0.18,1.4,0.08,0.85
4.764487028121948,2,3,3,3,-9.18,-1.23,0.21,0.99,0.02,0.8100000000000001
4.774487018585205,2,3,3,3,-9.380000000000001,-1.53,-0.02,0.64,-0.03,0.8
4.784487009048462,2,3,3,3,-9.609999999999999,-1.72,0.04,0.46,0.11,0.83
4.794486999511719,2,3,3,3,-9.890000000000001,-1.94,0.01,0.45,0.14,0.92
4.804486989974976,2,3,3,3,-10.06,-1.97,0.07000000000000001,0.65,0.26,1.09
4.814486980438232,2,3,3,3,-9.94,-1.67,0.16,0.88,0.33,1.19
4.824486970901489,2,3,3,3,-9.609999999999999,-1.41,0.03,0.91,0.38,1.01
4.834486961364746,2,3,3,3,-9.390000000000001,-1.29,0.16,0.87,0.78,0.72
4.844486951828003,2,3,3,3,-9.16,-1.16,0.28,0.76,1.17,0.38
4.85448694229126,2,3,3,3,-9.130000000000001,-1.23,0.41,0.52,1.48,0.06
4.864486932754517,2,3,3,3,-9.18,-1.43,0.43,0.29,1.5,-0.18
4.874486923217773,2,3,3,3,-9.34,-1.62,0.18,-0.13,1.39,-0.32
4.88448691368103,2,3,3,3,-9.68,-2.21,0.27,-0.46,1.17,-0.39
4.894486904144287,2,3,3,3,-9.710000000000001,-2.41,0.28,-0.7,0.89,-0.3
4.904486894607544,2,3,3,3,-9.58,-2.52,0.32,-0.64,0.66,-0.18
4.914486885070801,2,3,3,3,-9.44,-2.58,0.34,-0.29,0.72,0
4.924486875534058,2,3,3,3,-9.039999999999999,-2.45,0.22,-0.07000000000000001,0.97,0.13
4.934486865997314,2,3,3,3,-8.859999999999999,-2.4,0.32,0.08,1.34,0.2
4.94448709487915,2,3,3,3,-8.74,-2.33,0.39,-0.01,1.66,0.16
4.954487085342407,2,3,3,3,-8.619999999999999,-2.32,0.52,-0.41,1.82,-0.06
4.964487075805664,2,3,3,3,-8.51,-2.39,0.67,-0.8100000000000001,1.75,-0.35
4.974487066268921,2,3,3,3,-8.51,-2.68,0.76,-1,1.2,-0.67
4.984487056732178,2,3,3,3,-8.460000000000001,-3.05,0.72,-1.54,0.46,-1.07
4.994487047195435,2,3,3,3,-8.42,-3.43,0.71,-2.25,-0.4,-1.7
5.004487037658691,2,3,3,3,-7.73,-3.88,0.12,-3.03,-1.25,-2.42
5.014487028121948,2,3,3,3,-7.31,-3.79,-0.17,-3.62,-1.39,-3.17
5.024487018585205,2,3,3,3,-6.83,-3.48,-0.28,-3.56,-1.51,-3.78
5.034487009048462,2,3,3,3,-6,-2.75,0.31,-3.29,-2.55,-4.22
5.044486999511719,2,3,3,3,-5.17,-2.58,0.52,-3.71,-4.94,-4.89
5.054486989974976,2,3,3,3,-4.06,-2.42,0.09,-5.32,-6.89,-5.66
5.064486980438232,2,3,3,3,-3.73,-2.2,-0.37,-6.41,-6.8,-5.82
5.074486970901489,2,3,3,3,-4.02,-2.44,-0.19,-6.28,-7.6,-5.1
5.084486961364746,2,3,3,3,-4.6,-2.9,-0.65,-6.34,-8.77,-4.24
5.095486879348755,2,3,3,3,-4.87,-3.44,-1.04,-6.47,-9.390000000000001,-3.46
5.10448694229126,2,3,3,3,-4.75,-3.73,-0.8100000000000001,-6.15,-9.460000000000001,-3.09
5.114486932754517,2,3,3,3,-4.26,-2.24,-0.38,-5.57,-8.300000000000001,-3.28
5.124486923217773,2,3,3,3,-4.59,-1.53,0.16,-3.44,-6.54,-3.81
5.13448691368103,2,3,3,3,-5.16,-1.04,0.66,-1.63,-5.75,-4.2
5.144486904144287,2,3,3,3,-6.17,-1.14,0.8100000000000001,-0.88,-5.51,-4.56
5.154486894607544,2,3,3,3,-9.779999999999999,-2.17,0.82,-0.13,-6.11,-4.2
5.164486885070801,2,3,3,3,-11.42,-2.73,0.65,0.98,-6.82,-3.32
5.174486875534058,2,3,3,3,-12.56,-2.25,0.83,1.07,-7.24,-2.88
5.184486865997314,2,3,3,3,-12.31,-1.45,0.18,1.36,-6.87,-3.29
5.19448709487915,2,3,3,3,-10.39,-0.71,0.75,2.66,-4.67,-4.65
5.204487085342407,2,3,3,3,-9.5,-0.27,0.33,3.74,-1.94,-6.3
5.214487075805664,2,3,3,3,-9.34,0.54,0.82,4.1,0.63,-7.35
5.224487066268921,2,3,3,3,-10.69,0.05,1.47,4.14,1.6,-7.24
5.234487056732178,2,3,3,3,-11.97,-0.75,1.83,3.63,0.95,-6.32
5.244487047195435,2,3,3,3,-13.59,-1.53,1.87,2.37,-1,-4.59
5.254487037658691,2,3,3,3,-14.45,-1.81,1.67,1.57,-3.11,-1.99
5.264487028121948,2,3,3,3,-15.08,-0.48,1.9,1.79,-3.86,0.28
5.274487018585205,2,3,3,3,-15.22,0.26,2.18,2.99,-2.58,1.22
5.284487009048462,2,3,3,3,-15.12,0.67,2.4,3.72,-0.5,0.6899999999999999
5.294486999511719,2,3,3,3,-14.86,0.84,2.71,3.58,1.34,-0.31
5.304486989974976,2,3,3,3,-14.74,-0.39,3.13,2.78,1.4,-0.31
5.314486980438232,2,3,3,3,-15.45,-1.19,3.02,1.73,0.72,0.6899999999999999
5.324486970901489,2,3,3,3,-16.57,-1.39,2.89,1.16,-0.05,2.22
5.335486888885498,2,3,3,3,-17.64,-1.09,2.58,1.3,-0.65,3.33
5.345486879348755,2,3,3,3,-18.78,-1.06,2.86,1.37,-0.86,3.22
5.355486869812012,2,3,3,3,-19.03,-0.58,2.89,0.67,-1.21,2.32
5.365487098693848,2,3,3,3,-19.25,-0.35,3.01,-0.07000000000000001,-0.6,1.42
5.375487089157104,2,3,3,3,-19.39,-0.44,3,-0.9,0.31,0.83
5.385487079620361,2,3,3,3,-19.82,-1.04,3.47,-1.19,0.51,1.31
5.395487070083618,2,3,3,3,-19.43,-1.47,3.33,-0.47,0.38,2.81
5.405487060546875,2,3,3,3,-20.6,-1.29,3.6,-0.1,0.34,5.8
5.415487051010132,2,3,3,3,-22.45,-1.43,3.73,-0.09,-0.75,10.1
5.425487041473389,2,3,3,3,-27.06,-1.1,4.02,-0.29,-2.04,14.15
5.435487031936646,2,3,3,3,-29.05,0.08,4.24,-0.2,-1.54,16.17
5.445487022399902,2,3,3,3,-30.27,1.36,4.54,0.24,0.63,15.38
5.455487012863159,2,3,3,3,-32.23,1.16,4.93,0.42,3.67,11.54
5.465487003326416,2,3,3,3,-31.6,-1.59,5.16,0.04,7,6.89
5.475486993789673,2,3,3,3,-29.91,-4.57,4.66,0.2,9.699999999999999,3.55
5.48548698425293,2,3,3,3,-28.08,-6.96,3.47,0.68,11.64,1.53
5.495486974716187,2,3,3,3,-22.25,-8.08,0.59,1.21,12.91,-0.6
5.505486965179443,2,3,3,3,-17.43,-7.42,-1.21,1.5,12.77,-3.73
5.5154869556427,2,3,3,3,-11.79,-4.75,-2.59,1.25,13.71,-9.029999999999999
5.525486946105957,2,3,3,3,-5.08,-3.35,-1.23,2.55,18.01,-15.32
5.535486936569214,2,3,3,3,4.45,-9.119999999999999,1.35,4.59,18.78,-19.09
5.545486927032471,2,3,3,3,7.09,-12.87,0.35,2.45,13.01,-20.6
5.555486917495728,2,3,3,3,10.26,-14.96,0,-1.22,5.78,-20.2
5.565486907958984,2,3,3,3,12.4,-14.59,-0.38,-1.81,3.22,-15.86
5.575486898422241,2,3,3,3,6.58,-4.93,0.34,0.97,0.62,-7.33
5.585486888885498,2,3,3,3,3.1,-2.37,0.38,0.62,-3.63,1
5.595486879348755,2,3,3,3,1.98,-0.44,0.5600000000000001,-1,-6.81,7.94
5.605486869812012,2,3,3,3,0.5600000000000001,0.76,0.48,-2.27,-7.49,13.56
5.615487098693848,2,3,3,3,-2.72,3.09,-0.53,-3.28,-5.06,15.69
5.625487089157104,2,3,3,3,-3.27,3.91,-0.51,-3.38,-2.82,13.68
5.635487079620361,2,3,3,3,-2.88,3.49,-0.24,-2.8,-1.68,9.69
5.645487070083618,2,3,3,3,-2.32,0,0.6899999999999999,-3.1,-0.8,4.72
5.655487060546875,2,3,3,3,-1.88,-1.41,0.41,-4.76,-0.43,0.36
5.665487051010132,2,3,3,3,-1.1,-2.49,0.1,-5.91,-0.67,-2.95
5.675487041473389,2,3,3,3,-0.61,-2.88,-0.35,-5.21,-0.74,-5.15
5.685487031936646,2,3,3,3,0.82,-3.15,-0.8100000000000001,-3.41,-0.99,-6.66
5.695487022399902,2,3,3,3,1.32,-3.38,-0.32,-1.27,-0.78,-7.24
5.705487012863159,2,3,3,3,1.31,-2.74,0.14,0.61,-0.82,-6.16
5.715487003326416,2,3,3,3,1.52,-1.3,0.16,1.74,-1.06,-3.99
5.725486993789673,2,3,3,3,2.84,1.36,0.55,3.18,-1.77,-1.95
5.73548698425293,2,3,3,3,2.82,2.1,0.51,3.43,-0.58,-0.29
5.745486974716187,2,3,3,3,2.28,2.21,0.42,3.1,1.3,1.45
5.755486965179443,2,3,3,3,1.65,2.04,0.23,2.16,1.68,3.37
5.7654869556427,2,3,3,3,0.27,1.6,-0.31,0.72,1.31,4.45
5.775486946105957,2,3,3,3,-0.33,1.03,-0.55,-0.9,0.85,4.44
5.785486936569214,2,3,3,3,-1.03,0.46,-0.43,-1.94,-0.13,3.86
5.795486927032471,2,3,3,3,-1.75,0.11,-0.7,-2.63,-1.79,2.95
5.805486917495728,2,3,3,3,-0.78,0.31,-0.64,-2.13,-2.29,2.16
5.815486907958984,2,3,3,3,-0.1,0.64,-0.36,-0.79,-1.52,1.47
5.825486898422241,2,3,3,3,0.43,1.03,-0.08,-0.02,-0.6,0.43
5.835486888885498,2,3,3,3,0.83,1.09,0.09,0.58,0.37,-0.77
5.845486879348755,2,3,3,3,0.8100000000000001,0.71,0.22,1.05,0.92,-1.73
5.855486869812012,2,3,3,3,0.63,0.1,0.28,1.23,1.26,-2.27
5.865487098693848,2,3,3,3,0.52,-0.43,0.27,1.18,1.76,-2.53
5.875487089157104,2,3,3,3,-0.57,-1.5,0.16,1.19,2,-2.26
5.885487079620361,2,3,3,3,-0.93,-2.31,0.66,0.96,1.03,-2.16
5.895487070083618,2,3,3,3,-1.03,-2.94,0.6899999999999999,-0.39,-1.35,-2.71
5.905487060546875,2,3,3,3,-0.45,-3.42,-0.19,-1.86,-2.1,-2.96
5.915487051010132,2,3,3,3,-0.28,-4.19,0.53,-1.43,-1.77,-2.11
5.925487041473389,2,3,3,3,0.23,-4.66,0.31,-0.25,-1.59,-0.99
5.935487031936646,2,3,3,3,0.66,-4.86,-0.12,0.77,-1.02,0.38
5.945487022399902,2,3,3,3,0.65,-4.76,-0.29,2.24,-0.48,2.03
5.955487012863159,2,3,3,3,1.04,-3.22,3.59,3.27,0.2,3.85
5.965487003326416,2,3,3,3,-3.55,-11.4,5,8.1,-0.4,6.85
5.975486993789673,2,3,3,3,-8.960000000000001,-14.59,0.7,2,-14.25,10.81
5.98548698425293,2,3,3,3,-17.89,-14.95,2.75,-2.08,-20.88,17.01
5.995486974716187,2,3,3,3,-37.22,-15.23,-0.9399999999999999,-3.15,-23.18,21.19
6.005486965179443,2,3,3,3,-39.05,-0.63,5.82,-2.76,-1.7,22.82
6.0154869556427,2,3,3,3,-38.16,9.539999999999999,10.9,-1.49,4.55,15.96
6.025486946105957,2,3,3,3,-26.87,1.24,5.02,4.87,8.630000000000001,2.36
6.035486936569214,2,3,3,3,-26.2,-0.01,0.6,4.41,4.95,5.31
6.045486927032471,2,3,3,3,-20.03,-7.71,-1.6,7.49,-1.1,21.01
6.055486917495728,2,3,3,3,-30.95,16.68,10.61,2.3,-7.24,34.59
6.065486907958984,2,3,3,3,-29.39,4.8,2.16,2.64,1.26,7.68
6.075486898422241,2,3,3,3,-23.66,3.55,1.79,0.74,0.89,-5.75
6.085486888885498,2,3,3,3,-21.02,1.41,1.49,-0.77,-1.6,-9.300000000000001
6.095486879348755,2,3,3,3,-20.01,0.49,1.81,-2.34,-2.29,-8.27
6.105486869812012,2,3,3,3,-17.28,-0.53,2.26,-3.02,-1,-6.92
6.115487098693848,2,3,3,3,-16.01,-1.43,1.71,-2.51,0.8100000000000001,-7.33
6.125487089157104,2,3,3,3,-14.87,-2.45,0.93,-0.68,2.41,-8.390000000000001
6.135487079620361,2,3,3,3,-15.21,-4.14,-0.68,1.3,3.14,-8.109999999999999
6.145487070083618,2,3,3,3,-11.67,-3.2,-1.48,3.23,4.51,-6.49
6.155487060546875,2,3,3,3,-10.03,-2.55,-1.74,5.58,6.44,-5.01
6.165487051010132,2,3,3,3,-9.06,-1.8,-1.77,7.78,6.49,-5.24
6.175487041473389,2,3,3,3,-7.49,-1.85,-1.56,9.210000000000001,6.1,-5.76
6.185487031936646,2,3,3,3,-5.1,-0.27,-1.06,8.85,6.77,-3.79
6.195487022399902,2,3,3,3,-3.89,0.04,-0.47,8.58,6.46,-1.96
6.205487012863159,2,3,3,3,-4.3,0.5600000000000001,-0.42,8,5.92,-1.64
6.215487003326416,2,3,3,3,-4.83,1.05,-0.2,6.46,5.05,-1.51
6.225486993789673,2,3,3,3,-5.53,0.87,-0.03,4.46,4.41,-1.29
6.23548698425293,2,3,3,3,-5.41,0.31,0.03,2.43,3.95,-1.17
6.245486974716187,2,3,3,3,-5.33,-0.2,0.1,0.89,3.75,-1.18
6.255486965179443,2,3,3,3,-5.4,-0.96,0.17,0.2,3.5,-1.18
6.2654869556427,2,3,3,3,-5.76,-1.09,0.18,-0.44,2.99,-0.92
6.275486946105957,2,3,3,3,-6,-1.23,0.06,-1.19,2.42,-0.47
6.285486936569214,2,3,3,3,-6.34,-1.34,0.02,-1.76,2.03,0.29
6.295486927032471,2,3,3,3,-7.15,-1.84,0.13,-2.44,1.66,1.1
6.305486917495728,2,3,3,3,-7.48,-2.02,-0.14,-3.26,0.89,1.82
6.315486907958984,2,3,3,3,-7.98,-2.14,-0.4,-4.21,0.01,2.34
6.325486898422241,2,3,3,3,-8.43,-2.18,-0.6,-5.09,-0.77,2.61
6.335486888885498,2,3,3,3,-9.140000000000001,-2.11,-0.5,-5.65,-1.47,2.6
6.345486879348755,2,3,3,3,-9.289999999999999,-2.08,-0.38,-5.74,-1.77,2.47
6.355486869812012,2,3,3,3,-9.17,-2.11,-0.28,-5.71,-1.71,2.11
6.3664870262146,2,3,3,3,-9.109999999999999,-1.94,-0.22,-5.41,-1.33,1.88
6.376487016677856,2,3,3,3,-9.19,-1.92,-0.22,-5.07,-1.28,1.83
6.386487007141113,2,3,3,3,-9.42,-2.04,-0.07000000000000001,-4.93,-1.6,2.02
6.39648699760437,2,3,3,3,-9.66,-2.06,0.12,-4.52,-2.43,2.5
6.406486988067627,2,3,3,3,-9.960000000000001,-2.17,0.14,-3.69,-3.22,3.02
6.416486978530884,2,3,3,3,-10.56,-2.38,0.67,-2.51,-3.39,3.49
6.426486968994141,2,3,3,3,-10.74,-2,0.9399999999999999,-1.66,-3.48,3.71
6.436486959457397,2,3,3,3,-10.59,-1.5,0.95,-1.36,-3.32,3.73
6.446486949920654,2,3,3,3,-10.39,-0.96,0.85,-1.37,-2.29,3.62
6.456486940383911,2,3,3,3,-10.25,-0.75,0.82,-1.8,-1.15,3.37
6.466486930847168,2,3,3,3,-10.34,-0.66,0.68,-2.35,-0.11,2.83
6.476486921310425,2,3,3,3,-10.39,-0.65,0.33,-2.87,0.71,2.11
6.486486911773682,2,3,3,3,-10.36,-1.08,0.18,-3.11,1.33,1.29
6.496486902236938,2,3,3,3,-10.13,-1.32,0,-3.01,1.4,0.54
6.506486892700195,2,3,3,3,-9.880000000000001,-1.56,0.03,-2.35,1.31,-0.11
6.516486883163452,2,3,3,3,-9.710000000000001,-1.61,0.14,-1.71,1.14,-0.68
6.526486873626709,2,3,3,3,-9.35,-1.59,-0.06,-1.18,1.1,-1.18
6.536486864089966,2,3,3,3,-9.279999999999999,-1.61,0.07000000000000001,-0.62,1.09,-1.56
6.546487092971802,2,3,3,3,-9.19,-1.54,0.15,-0.18,1.14,-1.7
6.556487083435059,2,3,3,3,-9.18,-1.35,0.25,0.01,1.17,-1.62
6.566487073898315,2,3,3,3,-9.09,-1.3,0.54,0,1.1,-1.54
6.576487064361572,2,3,3,3,-9.130000000000001,-1.14,0.4,-0.23,1.02,-1.3
6.586487054824829,2,3,3,3,-9.06,-1.09,0.48,-0.26,0.97,-1.09
6.596487045288086,2,3,3,3,-9.17,-1.1,0.61,-0.67,0.8,-0.89
6.606487035751343,2,3,3,3,-9.380000000000001,-1.21,0.49,-1.17,0.65,-0.7
6.6164870262146,2,3,3,3,-9.460000000000001,-1.26,0.28,-1.51,0.47,-0.5600000000000001
6.626487016677856,2,3,3,3,-9.56,-1.4,0.25,-1.49,0.57,-0.5
6.636487007141113,2,3,3,3,-9.550000000000001,-1.63,0.25,-1.46,0.6,-0.5600000000000001
6.64648699760437,2,3,3,3,-9.529999999999999,-1.69,0.23,-1.48,0.49,-0.66
6.656486988067627,2,3,3,3,-9.43,-1.73,0.13,-1.39,0.21,-0.65
6.666486978530884,2,3,3,3,-9.5,-1.74,0.18,-1.16,-0.12,-0.51
6.676486968994141,2,3,3,3,-9.34,-1.67,-0.14,-1.12,-0.46,-0.27
6.686486959457397,2,3,3,3,-9.31,-1.55,-0.25,-1.02,-0.57,-0.03
6.696486949920654,2,3,3,3,-9.32,-1.57,-0.11,-0.76,-0.85,0.29
6.706486940383911,2,3,3,3,-9.51,-1.85,-0.35,-1.12,-2.33,0.72
6.716486930847168,2,3,3,3,-9.789999999999999,-3.3,-1.64,-3.24,-6.07,2.13
6.726486921310425,2,3,3,3,-9.279999999999999,-2.14,-0.15,-5.9,-7.3,3.48
6.736486911773682,2,3,3,3,-9.300000000000001,-2.23,-0.61,-5.45,-5.99,3.09
6.746486902236938,2,3,3,3,-9.49,-2.1,0.55,-4.26,-4.87,2.5
6.756486892700195,2,3,3,3,-8.91,-0.22,2.9,0.64,-2.27,0.7
6.766486883163452,2,3,3,3,-9.970000000000001,0.26,1.15,4.94,0.21,0.28
6.776486873626709,2,3,3,3,-10.5,-0.35,0.19,6.16,1.96,0.46
6.786486864089966,2,3,3,3,-10.42,-0.98,0.06,5.48,2.47,-0.6899999999999999
6.796487092971802,2,3,3,3,-10.01,-1.58,0.53,4.64,2.61,-1.9
6.806487083435059,2,3,3,3,-9.550000000000001,-1.76,0.32,3.82,2.61,-2.61
6.816487073898315,2,3,3,3,-9.289999999999999,-1.84,0.25,3.22,2.9,-2.88
6.826487064361572,2,3,3,3,-9.199999999999999,-2.16,0,3.02,3.74,-2.6
6.836487054824829,2,3,3,3,-9.44,-2.04,-0.05,2.97,4.41,-2.04
6.846487045288086,2,3,3,3,-9.68,-1.88,0.18,3.28,3.99,-1.34
6.856487035751343,2,3,3,3,-9.789999999999999,-1.52,0.17,3.38,2.87,-0.78
6.8664870262146,2,3,3,3,-9.73,-0.9,0.29,3.56,1.67,-0.73
6.876487016677856,2,3,3,3,-9.81,-0.98,0.29,3.64,1.28,-0.77
6.886487007141113,2,3,3,3,-9.77,-1.03,0.29,3.03,0.93,-0.8
6.89648699760437,2,3,3,3,-9.640000000000001,-1.02,0.28,2.53,0.67,-0.88
6.906486988067627,2,3,3,3,-9.449999999999999,-0.96,0.4,2.28,0.73,-0.92
6.916486978530884,2,3,3,3,-9.380000000000001,-1.02,0.43,2.05,0.73,-0.86
6.926486968994141,2,3,3,3,-9.390000000000001,-0.96,0.4,1.7,0.73,-0.84
6.936486959457397,2,3,3,3,-9.51,-0.89,0.35,1.36,0.75,-0.71
6.946486949920654,2,3,3,3,-9.85,-0.93,0.43,1.22,0.77,-0.57
6.956486940383911,2,3,3,3,-9.99,-0.9,0.43,0.9,0.67,-0.55
6.966486930847168,2,3,3,3,-9.98,-0.93,0.41,0.58,0.49,-0.63
6.976486921310425,2,3,3,3,-9.92,-0.92,0.27,0.29,0.35,-0.78
6.986486911773682,2,3,3,3,-9.720000000000001,-1.05,0.23,0.17,0.31,-0.96
6.996486902236938,2,3,3,3,-9.66,-1.11,0.33,0.06,0.33,-1.22
7.006486892700195,2,3,3,3,-9.58,-1.2,0.43,0.02,0.4,-1.42
7.016486883163452,2,3,3,3,-9.56,-1.32,0.32,0.1,0.52,-1.6
7.026486873626709,2,3,3,3,-9.57,-1.28,0.16,0.2,0.76,-1.79
7.036486864089966,2,3,3,3,-9.609999999999999,-1.31,0.29,0.3,0.92,-1.83
7.046487092971802,2,3,3,3,-9.710000000000001,-1.34,0.44,0.19,0.93,-1.9
7.056487083435059,2,3,3,3,-9.710000000000001,-1.34,0.44,-0.08,0.89,-1.96
7.066487073898315,2,3,3,3,-9.68,-1.32,0.36,-0.03,0.85,-1.96
7.076487064361572,2,3,3,3,-9.6,-1.31,0.23,-0.22,0.67,-2.07
7.086487054824829,2,3,3,3,-9.56,-1.28,0.15,-0.4,0.51,-2.2
7.096487045288086,2,3,3,3,-9.49,-1.38,0.12,-0.51,0.43,-2.12
7.106487035751343,2,3,3,3,-9.5,-1.51,0.16,-0.65,0.35,-1.93
7.1164870262146,2,3,3,3,-9.460000000000001,-1.62,0.25,-0.8,0.31,-1.62
7.126487016677856,2,3,3,3,-9.460000000000001,-1.7,0.12,-0.99,0.15,-1.32
7.136487007141113,2,3,3,3,-9.529999999999999,-1.75,0.3,-0.97,0.07000000000000001,-1.01
7.14648699760437,2,3,3,3,-9.539999999999999,-1.83,0.29,-0.75,-0.01,-0.73
7.156486988067627,2,3,3,3,-9.49,-1.79,0.22,-0.72,-0.02,-0.63
7.166486978530884,2,3,3,3,-9.460000000000001,-1.63,0.2,-0.53,0.23,-0.51
7.176486968994141,2,3,3,3,-9.52,-1.61,0.28,-0.41,0.4,-0.43
7.186486959457397,2,3,3,3,-9.51,-1.66,0.35,-0.59,0.4,-0.38
7.196486949920654,2,3,3,3,-9.44,-1.7,0.29,-0.87,0.4,-0.44
7.206486940383911,2,3,3,3,-9.44,-1.7,0.29,-1.07,0.45,-0.45
7.216486930847168,2,3,3,3,-9.369999999999999,-1.94,0.18,-1.21,0.51,-0.52
7.226486921310425,2,3,3,3,-9.279999999999999,-2.06,0.1,-1.3,0.53,-0.59
7.236486911773682,2,3,3,3,-9.18,-2.11,0.13,-1.29,0.68,-0.63
7.246486902236938,2,3,3,3,-8.960000000000001,-2.18,0.21,-1.13,0.8100000000000001,-0.65
7.256486892700195,2,3,3,3,-8.83,-2.28,0.25,-0.87,0.78,-0.68
7.266486883163452,2,3,3,3,-8.68,-2.52,0.27,-0.46,0.76,-0.75
7.276486873626709,2,3,3,3,-8.539999999999999,-2.75,0.06,-0.01,0.61,-1.01
7.286486864089966,2,3,3,3,-7.95,-3.1,-0.04,0.25,0.33,-1.53
7.296487092971802,2,3,3,3,-7.64,-3.25,-0.11,0.21,0.04,-2.27
7.306487083435059,2,3,3,3,-7.37,-3.33,-0.01,0.02,-0.63,-3.12
7.316487073898315,2,3,3,3,-6.79,-3.27,0.02,-0.49,-1.76,-3.94
7.326487064361572,2,3,3,3,-6.23,-3.22,-0.72,-0.99,-2.64,-4.39
7.336487054824829,2,3,3,3,-5.97,-3.47,-0.75,-1.08,-3.57,-4.46
7.346487045288086,2,3,3,3,-5.74,-3.69,-0.49,-1.79,-4.72,-4.72
7.356487035751343,2,3,3,3,-5.74,-3.69,-0.49,-3.14,-6.4,-4.9
7.3664870262146,2,3,3,3,-5.51,-3.7,-0.19,-3.91,-7.66,-4.53
7.376487016677856,2,3,3,3,-3.58,-2.69,-0.63,-3.24,-7.45,-3.23
7.387486934661865,2,3,3,3,-3.2,-2.44,-0.26,-2.04,-6.76,-1.68
7.397486925125122,2,3,3,3,-2.66,-2.28,0,-1.67,-6.01,-0.74
7.407486915588379,2,3,3,3,-2.8,-2.09,0.5600000000000001,-1.64,-4.89,0.28
7.417486906051636,2,3,3,3,-3.88,-2.33,0.8100000000000001,-2.34,-4.94,1.57
7.427486896514893,2,3,3,3,-5.05,-2.51,0.35,-3.94,-5.43,2.91
7.437486886978149,2,3,3,3,-7.28,-2.11,-0.46,-4.29,-6.79,4.31
7.447486877441406,2,3,3,3,-8.210000000000001,-1.99,-0.53,-2.63,-8.109999999999999,5.12
7.457486867904663,2,3,3,3,-8.869999999999999,-1.83,0.35,-0.4,-8.539999999999999,3.93
7.467487096786499,2,3,3,3,-8.869999999999999,-1.83,0.35,0.33,-8.06,1.5
7.477487087249756,2,3,3,3,-9.74,-0.68,0.39,1.74,-6.4,-1.57
7.487487077713013,2,3,3,3,-10.71,-0.8100000000000001,1.09,3.46,-4.03,-4.64
7.49748706817627,2,3,3,3,-11.87,-0.86,1.15,3.58,-3.72,-6.7
7.507487058639526,2,3,3,3,-11.87,-0.86,1.15,2.93,-4.43,-7.16
7.517487049102783,2,3,3,3,-12.16,-1.04,1.24,1.88,-5.89,-6.45
7.52748703956604,2,3,3,3,-11.11,-1.21,1.14,1.6,-5.97,-5.43
7.537487030029297,2,3,3,3,-9.800000000000001,-0.72,1.51,1.91,-3.85,-4.23
7.547487020492554,2,3,3,3,-8.880000000000001,-0.19,1.68,2.52,-0.92,-3.24
7.557487010955811,2,3,3,3,-10.37,0.14,2.45,3.1,1.28,-2.16
7.567487001419067,2,3,3,3,-12.71,-0.5,2.68,3.27,1.01,-0.83
7.577486991882324,2,3,3,3,-15.4,-0.95,2.73,2.49,-0.97,0.85
7.587486982345581,2,3,3,3,-17.4,-1.16,2.69,1.61,-2.76,2.57
7.597486972808838,2,3,3,3,-17.87,-0.24,2.91,1.51,-3.12,3.63
7.607486963272095,2,3,3,3,-17.87,-0.24,2.91,1.93,-1.52,3.33
7.617486953735352,2,3,3,3,-17.76,0.74,2.91,2.26,0.33,1.64
7.627486944198608,2,3,3,3,-17.04,2.06,3.18,1.85,1.5,-0.24
7.637486934661865,2,3,3,3,-17.26,0.38,3.69,-0.01,1.08,-0.61
7.647486925125122,2,3,3,3,-18.23,-0.61,3.59,-2.28,-0.29,0.34
7.657486915588379,2,3,3,3,-18.23,-0.61,3.59,-3.33,-1.75,1.87
7.667486906051636,2,3,3,3,-22.38,-1.41,3.93,-3.66,-2.4,2.93
7.677486896514893,2,3,3,3,-22.97,-0.83,4.36,-3.66,-2.21,3.5
7.687486886978149,2,3,3,3,-22.54,-0.2,4.43,-2.19,-2.17,4.4
7.697486877441406,2,3,3,3,-22.52,-0.36,4.4,-1.15,-1.3,5.5
7.707486867904663,2,3,3,3,-23.83,-0.29,4.45,-0.97,-0.5,6.96
7.717487096786499,2,3,3,3,-24.84,-0.35,4.46,-0.92,0.64,8.49
7.727487087249756,2,3,3,3,-26.04,-0.25,4.33,-0.93,2,9.68
7.737487077713013,2,3,3,3,-27.05,-0.45,4.32,-0.45,3.84,9.43
7.74748706817627,2,3,3,3,-28.94,-1.4,3.58,0.41,6.23,7.67
7.757487058639526,2,3,3,3,-28.94,-1.4,3.58,0.41,6.23,7.67
7.767487049102783,2,3,3,3,-29.19,-1.72,2.95,1.98,10.65,1.63
7.77748703956604,2,3,3,3,-27.24,-3.22,2.41,2.59,12.66,-1.43
7.787487030029297,2,3,3,3,-22.88,-5.71,0.82,2.92,14.32,-4.1
7.797487020492554,2,3,3,3,-18.99,-6.23,0.06,2.62,15.81,-6.65
7.807487010955811,2,3,3,3,-18.99,-6.23,0.06,1.99,17.93,-9.960000000000001
7.817487001419067,2,3,3,3,-14.7,-6.35,-0.79,0.93,19.37,-14
7.827486991882324,2,3,3,3,-2.94,-3.18,0.06,1.7,19.53,-17.72
7.837486982345581,2,3,3,3,-0.04,-5.31,2.44,4.61,16.48,-18.99
7.847486972808838,2,3,3,3,2.62,-8.619999999999999,2.33,5.53,9.93,-17.75
7.857486963272095,2,3,3,3,2.62,-8.619999999999999,2.33,3.98,3.19,-15.73
7.867486953735352,2,3,3,3,6.97,-14.16,1.38,2.82,-1.29,-12.43
7.877486944198608,2,3,3,3,10.54,-10.07,-2.07,4.07,0.82,-6.66
7.887486934661865,2,3,3,3,6.45,-6.5,-1.83,9.91,4,0.26
7.897486925125122,2,3,3,3,2.37,-1.27,0.05,13.39,1.46,5.9
7.907486915588379,2,3,3,3,2.37,-1.27,0.05,13.39,1.46,5.9
7.917486906051636,2,3,3,3,1.26,1.65,1.11,11.49,-1.22,10.04
7.927486896514893,2,3,3,3,-0.15,4.27,-0.15,5.66,-3.52,14.8
7.937486886978149,2,3,3,3,-1.79,5.61,0.25,2.74,-0.62,14.16
7.947486877441406,2,3,3,3,-1.57,5.02,0.58,-0.86,0.54,10.97
7.957486867904663,2,3,3,3,-1.57,5.02,0.58,-0.86,0.54,10.97
7.967487096786499,2,3,3,3,-1.36,3.39,0.47,-4.43,0.26,6.54
7.977487087249756,2,3,3,3,-1.59,-1.54,-0.83,-6.85,-0.12,-0.93
7.987487077713013,2,3,3,3,-1.35,-2.55,-0.7,-5.81,-1.87,-2.67
7.99748706817627,2,3,3,3,-1.14,-3.12,-0.63,-4.83,-3.32,-3.5
8.007487058639526,2,3,3,3,-1.14,-3.12,-0.63,-4.83,-3.32,-3.5
8.017487049102783,2,3,3,3,-0.82,-3.6,-0.78,-3.51,-3.59,-4.11
8.02748703956604,2,3,3,3,0,-2.89,0.43,1.15,-3.37,-4.53
8.037487030029297,2,3,3,3,0.8100000000000001,-2.25,0.06,2.35,-3.02,-3.95
8.047487020492554,2,3,3,3,1.56,-0.23,-0.2,3.46,-2.28,-2.8
8.057487010955811,2,3,3,3,1.56,-0.23,-0.2,4.27,-1.33,-2.03
8.067487001419067,2,3,3,3,1.71,0.34,-0.19,3.78,-0.25,-1.77
8.077486991882324,2,3,3,3,1.21,0.6899999999999999,0.09,2.42,0.02,-1.51
8.087486982345581,2,3,3,3,0.84,0.53,-0.19,0.97,-0.45,-0.79
8.097486972808838,2,3,3,3,0.72,0.43,-0.33,-0.55,-0.93,0.53
8.107486963272095,2,3,3,3,0.72,0.43,-0.33,-1.88,-1.16,1.59
8.117486953735352,2,3,3,3,0.43,0.37,-0.39,-2.57,-1.53,1.9
8.127486944198608,2,3,3,3,0.17,0.27,-0.64,-2.7,-1.47,1.78
8.137486934661865,2,3,3,3,0.14,0.27,-0.58,-2.25,-0.82,1.38
8.147486925125122,2,3,3,3,0.18,0.29,-0.55,-1.4,0.04,0.6899999999999999
8.157486915588379,2,3,3,3,0.18,0.29,-0.55,-0.68,0.99,-0.06
8.167486906051636,2,3,3,3,0.25,0.44,-0.39,-0.68,0.99,-0.06
8.177486896514893,2,3,3,3,-0.22,0.32,-0.54,-0.42,1.28,-1.21
8.187486886978149,2,3,3,3,-0.53,0.02,-0.55,-0.92,0.84,-1.56
8.197486877441406,2,3,3,3,-0.9399999999999999,-0.45,-0.55,-1.71,0.13,-1.82
8.207486867904663,2,3,3,3,-0.9399999999999999,-0.45,-0.55,-1.71,0.13,-1.82
8.217487096786499,2,3,3,3,-0.97,-1.95,-0.34,-2.27,-1.36,-1.99
8.227487087249756,2,3,3,3,-0.07000000000000001,-2.62,-0.54,-2.63,-3.14,-2.1
8.237487077713013,2,3,3,3,0.41,-2.6,-0.45,-1.42,-2.77,-1.68
8.24748706817627,2,3,3,3,0.43,-2.17,0.8100000000000001,-0.17,-1.84,-0.55
8.257487058639526,2,3,3,3,0.43,-2.17,0.8100000000000001,-0.17,-1.84,-0.55
8.267487049102783,2,3,3,3,-1.97,-7.66,3.34,1.55,-5,2.72
8.27748703956604,2,3,3,3,-21.63,-17.09,6.09,-2.22,-10.3,11.03
8.287487030029297,2,3,3,3,-24.47,-18.05,1.4,1.22,-22.86,21.3
8.297487020492554,2,3,3,3,-34.67,-8.890000000000001,-1.31,0.45,-13.49,26.24
8.307487010955811,2,3,3,3,-34.67,-8.890000000000001,-1.31,0.45,-13.49,26.24
8.317487001419067,2,3,3,3,-38.8,2.01,6.91,6.31,2.9,24.77
8.327486991882324,2,3,3,3,-28.04,3.38,-0.57,7.02,9.220000000000001,0.6
8.337486982345581,2,3,3,3,-23.49,8.619999999999999,1.6,6.53,1.6,8.26
8.347486972808838,2,3,3,3,-18.78,-2.64,-3.09,6.66,-7.54,26.12
8.357486963272095,2,3,3,3,-18.78,-2.64,-3.09,6.66,-7.54,26.12
8.367486953735352,2,3,3,3,-39.05,23.73,3.01,-4.1,-9.06,36.77
8.377486944198608,2,3,3,3,-21.72,1.57,2.84,-2.94,1.81,-2.22
8.387486934661865,2,3,3,3,-19.59,1.01,1.57,-0.6,1.91,-5.19
8.397486925125122,2,3,3,3,-16.59,0.92,3.41,0.57,2.34,-5
8.40848708152771,2,3,3,3,-16.59,0.92,3.41,0.57,2.34,-5
8.418487071990967,2,3,3,3,-17.96,0.01,4.07,0.75,3.81,-3.67
8.428487062454224,2,3,3,3,-20.76,-0.8,1.41,0.79,4.57,-4.26
8.43848705291748,2,3,3,3,-20.76,-0.8,1.41,1.23,4.34,-4.86
8.448487043380737,2,3,3,3,-17.76,-0.8100000000000001,0.72,1.27,4.67,-5.23
8.458487033843994,2,3,3,3,-14.79,-1.01,0.45,1.27,4.67,-5.23
8.468487024307251,2,3,3,3,-12.02,-1.09,-0.1,0.41,4.95,-4.55
8.478487014770508,2,3,3,3,-10.49,-1.19,0.07000000000000001,0.43,3.18,-6.73
8.488487005233765,2,3,3,3,-7.67,-1.57,-0.18,0.95,3.89,-6.74
8.498486995697021,2,3,3,3,-5.87,-1.72,0.47,1.42,4.25,-6.21
8.508486986160278,2,3,3,3,-4.86,-1.74,0.52,1.42,4.25,-6.21
8.538486957550049,2,3,3,3,-4.3,-1.76,-0.2,2.72,4.01,-5.79
8.548486948013306,2,3,3,3,-4.19,-2.01,-0.13,2.98,3.96,-5.25
8.558486938476562,2,3,3,3,-4.04,-2.48,-0.02,2.98,3.96,-5.25
8.568486928939819,2,3,3,3,-4.26,-2.73,0.41,3.06,3.39,-4.58
8.578486919403076,2,3,3,3,-4.42,-2.48,0.18,2.37,2.04,-2.56
8.588486909866333,2,3,3,3,-4.61,-2.21,0.05,2.17,1.41,-1.59
8.59848690032959,2,3,3,3,-4.87,-2.03,-0.03,1.54,0.9399999999999999,-0.61
8.608486890792847,2,3,3,3,-5.32,-1.85,0.18,1.54,0.9399999999999999,-0.61
8.618486881256104,2,3,3,3,-5.68,-2.02,0.24,0.4,0.54,0.47
8.62848687171936,2,3,3,3,-6.4,-2.2,0.13,-0.72,0.03,2.82
8.638486862182617,2,3,3,3,-7.91,-2.99,0.12,-1.25,-0.13,3.63
8.648487091064453,2,3,3,3,-8.789999999999999,-2.86,0.08,-1.27,-0.3,4.08
8.65848708152771,2,3,3,3,-9.51,-2.63,0.16,-1.27,-0.3,4.08
8.668487071990967,2,3,3,3,-10.02,-1.82,0.24,-1.22,-0.39,4.06
8.678487062454224,2,3,3,3,-10.04,-1.3,0.34,-1.24,0,2.94
8.68848705291748,2,3,3,3,-10.04,-0.86,0.46,-1.47,-0.05,1.73
8.698487043380737,2,3,3,3,-10.07,-0.49,0.51,-1.81,-0.62,0.49
8.708487033843994,2,3,3,3,-10.03,-0.53,0.16,-1.81,-0.62,0.49
8.718487024307251,2,3,3,3,-9.859999999999999,-0.62,-0.06,-2.39,-0.99,-0.03
8.728487014770508,2,3,3,3,-9.890000000000001,-0.73,-0.02,-2.46,-1.06,1.04
8.738487005233765,2,3,3,3,-9.99,-0.89,0.14,-2.64,-1.26,1.83
8.748486995697021,2,3,3,3,-10.22,-0.92,0.07000000000000001,-2.87,-1.04,2.49
8.758486986160278,2,3,3,3,-10.4,-0.75,0.06,-2.87,-1.04,2.49
8.768486976623535,2,3,3,3,-10.41,-0.62,0.13,-2.86,-0.51,3
8.778486967086792,2,3,3,3,-10.39,-0.82,0.19,-1.84,1.04,3.15
8.788486957550049,2,3,3,3,-10.05,-0.98,0.25,-1.42,1.7,2.83
8.798486948013306,2,3,3,3,-9.93,-1.02,0.33,-1.1,2.11,2.4
8.808486938476562,2,3,3,3,-9.85,-1.12,0.3,-1.1,2.11,2.4
8.818486928939819,2,3,3,3,-9.640000000000001,-1.12,0.23,-0.87,2.4,2.05
8.828486919403076,2,3,3,3,-9.48,-1.15,0.18,-0.53,2.17,1.46
8.838486909866333,2,3,3,3,-9.43,-1.19,0.06,-0.36,1.88,1.32
8.84848690032959,2,3,3,3,-9.48,-1.27,0.07000000000000001,-0.39,1.33,1.2
8.858486890792847,2,3,3,3,-9.49,-1.3,0.12,-0.39,1.33,1.2
8.868486881256104,2,3,3,3,-9.51,-1.29,0,-0.41,0.89,1.06
8.87848687171936,2,3,3,3,-9.44,-1.26,-0.11,-0.43,0.53,0.8
8.888486862182617,2,3,3,3,-9.390000000000001,-1.21,-0.28,-0.1,0.67,0.5600000000000001
8.898487091064453,2,3,3,3,-9.119999999999999,-1.38,-0.05,0.28,0.79,0.19
8.90848708152771,2,3,3,3,-9.09,-1.46,0.12,0.28,0.79,0.19
8.918487071990967,2,3,3,3,-9.17,-1.57,0.36,0.49,0.78,-0.07000000000000001
8.928487062454224,2,3,3,3,-9.26,-1.55,0.4,0.25,0.57,-0.27
8.93848705291748,2,3,3,3,-9.59,-1.27,-0.18,0.37,0.46,-0.18
8.948487043380737,2,3,3,3,-9.529999999999999,-1.1,-0.16,0.53,0.41,-0.01
8.958487033843994,2,3,3,3,-9.529999999999999,-0.92,-0.09,0.53,0.41,-0.01
8.968487024307251,2,3,3,3,-9.57,-0.82,-0.02,0.68,0.43,0.13
8.978487014770508,2,3,3,3,-9.73,-0.66,0.01,0.44,0.33,0.39
8.988487005233765,2,3,3,3,-9.82,-0.66,0,0.12,0.31,0.42
8.998486995697021,2,3,3,3,-9.970000000000001,-0.67,0.01,-0.23,0.11,0.39
9.008486986160278,2,3,3,3,-10.02,-0.75,-0.02,-0.23,0.11,0.39
9.018486976623535,2,3,3,3,-9.9,-0.91,-0.08,-0.5,-0.15,0.27
9.028486967086792,2,3,3,3,-9.9,-1.13,-0.11,-1.2,-1.65,0.46
9.038486957550049,2,3,3,3,-9.83,-1.37,-0.28,-2.29,-3.58,1.14
9.048486948013306,2,3,3,3,-9.76,-1.78,-0.5,-3.24,-5.01,2.05
9.058486938476562,2,3,3,3,-9.4,-2.12,-0.42,-3.24,-5.01,2.05
9.068486928939819,2,3,3,3,-9.18,-2.02,-0.4,-4.11,-5.88,2.82
9.078486919403076,2,3,3,3,-8.91,-1.68,-0.21,-4.43,-6.27,3.1
9.088486909866333,2,3,3,3,-8.99,-1.3,0.24,-3.73,-4.94,2.19
9.09848690032959,2,3,3,3,-9.18,-0.67,0.64,-1.2,-2.51,0.58
9.108486890792847,2,3,3,3,-9.5,-0.5,0.95,-1.2,-2.51,0.58
9.118486881256104,2,3,3,3,-9.619999999999999,-0.1,0.74,1.35,-0.01,-0.43
9.12848687171936,2,3,3,3,-10.18,0.04,0.67,5.82,3.84,0.33
9.138486862182617,2,3,3,3,-10.51,-0.27,0.4,5.85,4.45,0.24
9.148487091064453,2,3,3,3,-10.54,-0.67,0.27,4.98,4.33,-0.31
9.15848708152771,2,3,3,3,-10.32,-0.76,0.22,4.98,4.33,-0.31
9.168487071990967,2,3,3,3,-9.859999999999999,-0.79,0.22,4.08,4.06,-0.76
9.178487062454224,2,3,3,3,-9.779999999999999,-0.71,0.33,2.32,3.53,-0.74
9.18848705291748,2,3,3,3,-9.76,-0.64,0.28,1.63,3.24,-0.71
9.198487043380737,2,3,3,3,-9.67,-0.5,0.26,1.24,2.81,-0.77
9.208487033843994,2,3,3,3,-9.6,-0.54,0.34,1.24,2.81,-0.77
9.218487024307251,2,3,3,3,-9.65,-0.65,0.39,0.98,2.21,-0.88
9.228487014770508,2,3,3,3,-9.66,-0.67,0.46,0.15,1.05,-0.84
9.238487005233765,2,3,3,3,-9.720000000000001,-0.76,0.35,-0.36,0.64,-0.78
9.248486995697021,2,3,3,3,-9.779999999999999,-0.82,0.24,-0.62,0.39,-0.68
9.258486986160278,2,3,3,3,-9.66,-0.76,0.13,-0.62,0.39,-0.68
9.268486976623535,2,3,3,3,-9.6,-0.79,0.04,-0.52,0.3,-0.7
9.278486967086792,2,3,3,3,-9.449999999999999,-0.91,0.1,-0.54,0.26,-0.48
9.288486957550049,2,3,3,3,-9.449999999999999,-0.96,0.11,-0.7,0.27,-0.33
9.298486948013306,2,3,3,3,-9.52,-1,0.21,-0.89,0.26,-0.19
9.308486938476562,2,3,3,3,-9.630000000000001,-1.01,0.17,-0.89,0.26,-0.19
9.318486928939819,2,3,3,3,-9.75,-0.84,0.09,-1,0.23,-0.14
9.328486919403076,2,3,3,3,-9.82,-0.68,-0.02,-0.75,0.33,-0.31
9.338486909866333,2,3,3,3,-9.869999999999999,-0.61,-0.11,-0.68,0.37,-0.39
9.34848690032959,2,3,3,3,-9.92,-0.5600000000000001,-0.1,-0.79,0.25,-0.49
9.358486890792847,2,3,3,3,-9.93,-0.58,0.21,-0.79,0.25,-0.49
9.368486881256104,2,3,3,3,-9.9,-0.66,0.31,-0.95,0.03,-0.53
9.37848687171936,2,3,3,3,-9.85,-0.7,0.15,-1.83,-0.4,-0.66
9.388486862182617,2,3,3,3,-9.779999999999999,-0.76,-0.19,-1.76,-0.33,-0.65
9.398487091064453,2,3,3,3,-9.57,-0.88,-0.41,-1.77,-0.26,-0.71
9.40848708152771,2,3,3,3,-9.52,-0.95,-0.3,-1.77,-0.26,-0.71
9.418487071990967,2,3,3,3,-9.5,-1.02,-0.2,-1.88,-0.2,-0.71
9.428487062454224,2,3,3,3,-9.449999999999999,-1.12,-0.04,-1.83,-0.18,-0.64
9.439486980438232,2,3,3,3,-9.58,-1.19,-0.17,-1.69,-0.2,-0.52
9.449486970901489,2,3,3,3,-9.66,-1.17,-0.23,-1.35,-0.09,-0.42
9.459486961364746,2,3,3,3,-9.699999999999999,-1.18,-0.24,-1.35,-0.09,-0.42
9.469486951828003,2,3,3,3,-9.77,-1.22,-0.17,-1.12,-0.03,-0.42
9.47948694229126,2,3,3,3,-9.76,-1.22,-0.16,-0.8,-0.19,-0.36
9.489486932754517,2,3,3,3,-9.73,-1.27,-0.2,-0.79,-0.18,-0.36
9.499486923217773,2,3,3,3,-9.67,-1.31,-0.2,-0.95,-0.19,-0.42
9.50948691368103,2,3,3,3,-9.550000000000001,-1.25,-0.15,-0.95,-0.19,-0.42
9.519486904144287,2,3,3,3,-9.49,-1.21,-0.15,-1.04,-0.19,-0.47
9.529486894607544,2,3,3,3,-9.44,-1.23,-0.2,-0.96,-0.18,-0.49
9.539486885070801,2,3,3,3,-9.44,-1.34,-0.28,-0.73,0.03,-0.38
9.549486875534058,2,3,3,3,-9.58,-1.46,-0.25,-0.52,0.07000000000000001,-0.21
9.559486865997314,2,3,3,3,-9.67,-1.43,-0.22,-0.52,0.07000000000000001,-0.21
9.56948709487915,2,3,3,3,-9.69,-1.41,-0.16,-0.24,0.09,-0.05
9.579487085342407,2,3,3,3,-9.720000000000001,-1.38,-0.14,0.05,0.18,0.1
9.589487075805664,2,3,3,3,-9.68,-1.28,-0.15,0.05,0.13,0.09
9.599487066268921,2,3,3,3,-9.67,-1.21,-0.08,0.03,0.08,0.06
9.609487056732178,2,3,3,3,-9.66,-1.14,-0.04,0.03,0.08,0.06
9.619487047195435,2,3,3,3,-9.630000000000001,-1.17,0.02,-0.26,0.05,-0.12
9.629487037658691,2,3,3,3,-9.619999999999999,-1.11,-0.16,-0.22,0.14,-0.18
9.639487028121948,2,3,3,3,-9.68,-1.09,-0.32,-0.11,0.12,-0.24
9.649487018585205,2,3,3,3,-9.73,-1.15,-0.38,-0.01,0.06,-0.3
9.659487009048462,2,3,3,3,-9.76,-1.18,-0.34,-0.01,0.06,-0.3
9.669486999511719,2,3,3,3,-9.73,-1.3,-0.17,0.14,0.03,-0.34
9.679486989974976,2,3,3,3,-9.699999999999999,-1.36,-0.14,0.33,-0.02,-0.34
9.689486980438232,2,3,3,3,-9.73,-1.41,-0.25,0.21,-0.14,-0.31
9.699486970901489,2,3,3,3,-9.720000000000001,-1.35,-0.17,0.1,-0.27,-0.28
9.709486961364746,2,3,3,3,-9.69,-1.24,-0.14,0.1,-0.27,-0.28
9.719486951828003,2,3,3,3,-9.66,-1.13,-0.21,0.09,-0.23,-0.24
9.72948694229126,2,3,3,3,-9.65,-1.02,-0.18,0.15,-0.28,-0.2
9.739486932754517,2,3,3,3,-9.720000000000001,-0.97,-0.29,0.14,-0.3,-0.25
9.749486923217773,2,3,3,3,-9.779999999999999,-1.04,-0.25,0.18,-0.3,-0.3
9.75948691368103,2,3,3,3,-9.76,-1.13,-0.19,0.18,-0.3,-0.3
9.769486904144287,2,3,3,3,-9.710000000000001,-1.21,-0.18,0.26,-0.22,-0.36
9.779486894607544,2,3,3,3,-9.58,-1.34,-0.11,0.41,-0.01,-0.48
9.789486885070801,2,3,3,3,-9.51,-1.39,-0.19,0.42,0.12,-0.5
9.799486875534058,2,3,3,3,-9.51,-1.36,-0.17,0.39,0.26,-0.43
9.809486865997314,2,3,3,3,-9.49,-1.37,-0.11,0.39,0.26,-0.43
9.81948709487915,2,3,3,3,-9.529999999999999,-1.32,-0.09,0.54,0.42,-0.34
9.829487085342407,2,3,3,3,-9.539999999999999,-1.32,-0.14,0.74,0.48,-0.21
9.839487075805664,2,3,3,3,-9.56,-1.33,-0.21,0.93,0.46,0.01
9.849487066268921,2,3,3,3,-9.609999999999999,-1.3,-0.16,0.96,0.33,0.08
9.859487056732178,2,3,3,3,-9.630000000000001,-1.21,-0.09,0.96,0.33,0.08
9.869487047195435,2,3,3,3,-9.66,-1.15,-0.03,0.98,0.33,0.13
9.879487037658691,2,3,3,3,-9.699999999999999,-1.09,0,0.9,0.35,0.13
9.889487028121948,2,3,3,3,-9.75,-1.03,-0.08,0.61,0.38,-0.02
9.899487018585205,2,3,3,3,-9.77,-1.04,0,0.58,0.42,-0.13
9.909487009048462,2,3,3,3,-9.73,-1.14,0.11,0.58,0.42,-0.13
9.919486999511719,2,3,3,3,-9.67,-1.16,0.17,0.58,0.43,-0.24
9.929486989974976,2,3,3,3,-9.69,-1.15,0.1,0.47,0.4,-0.24
9.939486980438232,2,3,3,3,-9.73,-1.16,0.02,0.42,0.19,-0.07000000000000001
9.949486970901489,2,3,3,3,-9.76,-1.09,0.03,0.34,0.11,-0.08
9.959486961364746,2,3,3,3,-9.779999999999999,-0.96,0.01,0.34,0.11,-0.08
9.969486951828003,2,3,3,3,-9.84,-0.95,0.05,0.31,0.02,-0.16
9.97948694229126,2,3,3,3,-9.85,-0.95,0.05,0.34,-0.12,-0.32
9.989486932754517,2,3,3,3,-9.890000000000001,-1,-0.09,0.09,-0.34,-0.59
9.999486923217773,2,3,3,3,-9.9,-1.07,-0.11,0.02,-0.42,-0.74
10.00948691368103,2,3,3,3,-9.789999999999999,-1.3,-0.05,0.02,-0.42,-0.74
10.01948690414429,2,3,3,3,-9.69,-1.25,-0.01,0.09,-0.39,-0.87
10.02948689460754,2,3,3,3,-9.65,-1.18,0.09,0.29,-0.25,-0.87
10.0394868850708,2,3,3,3,-9.59,-1.14,0.11,0.91,-0.19,-0.64
10.04948687553406,2,3,3,3,-9.710000000000001,-1.21,0.07000000000000001,0.97,-0.28,-0.58
10.05948686599731,2,3,3,3,-9.869999999999999,-1.29,0.06,0.97,-0.28,-0.58
10.06948709487915,2,3,3,3,-9.99,-1.37,0.04,1.03,-0.52,-0.54
10.07948708534241,2,3,3,3,-9.99,-1.51,0.2,1.21,-0.72,-0.5
10.08948707580566,2,3,3,3,-9.94,-1.61,0.3,1.43,-0.93,-0.53
10.09948706626892,2,3,3,3,-9.77,-1.71,0.48,1.88,-0.88,-0.8
10.10948705673218,2,3,3,3,-9.609999999999999,-1.68,0.6,1.88,-0.88,-0.8
10.11948704719543,2,3,3,3,-9.210000000000001,-1.22,0.97,2.27,-0.58,-0.97
10.12948703765869,2,3,3,3,-9.23,-1,1.34,3.06,-0.33,-0.89
10.13948702812195,2,3,3,3,-9.34,-0.85,1.36,3.06,-0.33,-0.89
10.14948701858521,2,3,3,3,-9.609999999999999,-0.74,1.63,2.93,-0.72,-0.64
10.15948700904846,2,3,3,3,-9.539999999999999,-0.55,1.09,2.27,-0.79,-0.46
10.16948699951172,2,3,3,3,-9.609999999999999,-0.02,1.76,0.66,-1.38,-1
10.17948698997498,2,3,3,3,-9.51,0.11,2.12,-0.14,-2.81,-1.62
10.18948698043823,2,3,3,3,-9.199999999999999,0.11,1.82,-2.02,-2.36,-2.14
10.19948697090149,2,3,3,3,-8.94,-0.11,1.25,-2.02,-2.36,-2.14
10.20948696136475,2,3,3,3,-8.890000000000001,-0.29,1.63,-2.66,-1.84,-2.36
10.219486951828,2,3,3,3,-8.699999999999999,-0.55,1.61,-3.17,-1.18,-2.29
10.22948694229126,2,3,3,3,-8.710000000000001,-0.86,1.41,-3.19,-0.2,-1.86
10.23948693275452,2,3,3,3,-9.08,-1.47,0.6899999999999999,-2.83,0.39,-1.5
10.24948692321777,2,3,3,3,-9.59,-1.69,0.84,-2.45,0.49,-1.16
10.25948691368103,2,3,3,3,-10.31,-1.73,1.03,-2.64,-0.34,-0.7
10.26948690414429,2,3,3,3,-11.08,-1.81,0.2,-2.99,-1.31,-0.57
10.27948689460754,2,3,3,3,-11.05,-2.01,-0.02,-2.47,-1.75,-0.85
10.2894868850708,2,3,3,3,-10.9,-2.14,0.22,-1.69,-1.77,-1.4
10.29948687553406,2,3,3,3,-10.68,-2.22,0.9399999999999999,-1.41,-1.88,-1.8
10.30948686599731,2,3,3,3,-9.74,-2.14,0.44,-1.32,-2.17,-1.97
10.31948709487915,2,3,3,3,-9.5,-1.93,0.5,-0.45,-1.97,-1.88
10.32948708534241,2,3,3,3,-9.380000000000001,-1.85,0.87,0.24,-2.24,-1.7
10.33948707580566,2,3,3,3,-9.17,-1.8,0.51,0.32,-2.94,-1.34
10.34948706626892,2,3,3,3,-9.130000000000001,-1.55,0.28,0.49,-3.16,-0.64
10.35948705673218,2,3,3,3,-9.17,-1.39,0.16,0.64,-3.14,0.09
10.36948704719543,2,3,3,3,-9.27,-1.2,0.31,0.6,-3.37,0.6899999999999999
10.37948703765869,2,3,3,3,-9.390000000000001,-1.09,0.26,0.59,-3.83,1.27
10.38948702812195,2,3,3,3,-9.19,-0.92,-0.35,0.5,-3.87,1.78
10.39948701858521,2,3,3,3,-9.130000000000001,-1.06,-0.32,0.34,-3.63,2.12
10.40948700904846,2,3,3,3,-9.279999999999999,-1.09,-0.48,0.14,-3.34,2.29
10.41948699951172,2,3,3,3,-9.539999999999999,-1.19,-0.58,0.1,-3.17,2.35
10.42948698997498,2,3,3,3,-10.02,-1.13,-0.5,-0.02,-3.13,2.28
10.43948698043823,2,3,3,3,-10.06,-1.07,-0.53,-0.09,-2.93,2.12
10.44948697090149,2,3,3,3,-10.03,-1,-0.38,-0.17,-2.46,1.86
10.4604868888855,2,3,3,3,-10.01,-0.95,-0.23,-0.23,-1.85,1.52
10.47048687934875,2,3,3,3,-9.91,-0.75,-0.17,-0.34,-1.01,1.08
10.48048686981201,2,3,3,3,-9.859999999999999,-0.79,-0.19,-0.48,-0.12,0.61
10.49048709869385,2,3,3,3,-9.85,-0.82,-0.35,-0.58,0.58,0.13
10.5004870891571,2,3,3,3,-9.720000000000001,-0.85,-0.23,-0.68,1.2,-0.42
10.51048707962036,2,3,3,3,-9.710000000000001,-1.08,-0.18,-0.75,1.75,-0.93
10.58048701286316,2,3,3,3,-9.449999999999999,-1.25,0.03,2.96,4.34,-0.6899999999999999
10.59048700332642,2,3,3,3,-9.44,-1.09,0.06,3.63,4.16,-0.61
10.60048699378967,2,3,3,3,-9.48,-0.97,0.09,4.24,3.73,-0.55
10.61048698425293,2,3,3,3,-9.43,-0.8100000000000001,0.01,4.5,3.29,-0.44
10.62048697471619,2,3,3,3,-9.380000000000001,-0.5600000000000001,-0.04,4.67,3.1,-0.35
10.63048696517944,2,3,3,3,-9.42,-0.47,-0.19,4.5,2.94,-0.29
10.6404869556427,2,3,3,3,-9.58,-0.46,-0.28,4.24,2.76,-0.37
10.65048694610596,2,3,3,3,-9.73,-0.45,-0.28,3.81,2.58,-0.48
10.66048693656921,2,3,3,3,-9.859999999999999,-0.43,-0.23,3.12,2.55,-0.62
10.67048692703247,2,3,3,3,-9.880000000000001,-0.38,-0.1,2.52,2.56,-0.71
10.68048691749573,2,3,3,3,-9.83,-0.38,-0.11,2.1,2.53,-0.85
10.69048690795898,2,3,3,3,-9.74,-0.38,-0.08,1.82,2.39,-1.03
10.70048689842224,2,3,3,3,-9.6,-0.39,-0.17,1.44,2.07,-1.22
10.7104868888855,2,3,3,3,-9.52,-0.31,-0.04,1.05,1.97,-1.33
10.72048687934875,2,3,3,3,-9.51,-0.31,-0.11,0.75,1.7,-1.32
10.73048686981201,2,3,3,3,-9.550000000000001,-0.34,-0.32,0.67,1.43,-1.22
10.74048709869385,2,3,3,3,-9.529999999999999,-0.51,-0.41,0.6,1.27,-1.15
10.7504870891571,2,3,3,3,-9.640000000000001,-0.52,-0.32,0.5600000000000001,1.2,-1.1
10.76048707962036,2,3,3,3,-9.630000000000001,-0.6,-0.24,0.54,1.08,-1.2
10.77048707008362,2,3,3,3,-9.460000000000001,-0.74,-0.18,0.71,1.18,-1.28
10.78048706054688,2,3,3,3,-9.51,-0.82,-0.29,0.89,1.37,-1.37
10.79048705101013,2,3,3,3,-9.609999999999999,-0.83,-0.39,1.11,1.46,-1.46
10.80048704147339,2,3,3,3,-9.69,-0.83,-0.33,1.5,1.31,-1.61
10.81048703193665,2,3,3,3,-9.699999999999999,-0.7,-0.34,1.61,0.95,-1.73
10.84048700332642,2,3,3,3,-9.609999999999999,-0.82,-0.32,1.66,0.19,-2.2
10.85048699378967,2,3,3,3,-9.529999999999999,-0.92,-0.32,1.83,-0.09,-2.39
10.86048698425293,2,3,3,3,-9.449999999999999,-1.12,-0.31,2.08,-0.32,-2.5
10.87048697471619,2,3,3,3,-9.33,-1.2,-0.38,2.48,-0.44,-2.5
10.88048696517944,2,3,3,3,-9.369999999999999,-1.29,-0.35,3.02,-0.54,-2.37
10.8904869556427,2,3,3,3,-9.59,-1.28,-0.57,3.51,-0.51,-2.11
10.90048694610596,2,3,3,3,-9.51,-1.32,-0.46,4.17,-0.42,-1.9
10.91048693656921,2,3,3,3,-9.550000000000001,-1.14,-0.39,4.87,-0.11,-1.76
10.92048692703247,2,3,3,3,-9.609999999999999,-0.91,-0.44,5.48,0.26,-1.77
10.93048691749573,2,3,3,3,-9.699999999999999,-0.8100000000000001,-0.53,5.81,0.73,-1.69
10.94048690795898,2,3,3,3,-9.74,-0.59,-0.6,5.93,0.97,-1.51
10.95048689842224,2,3,3,3,-9.710000000000001,-0.53,-0.55,5.99,1.08,-1.25
10.9604868888855,2,3,3,3,-9.77,-0.4,-0.8,5.96,1.46,-1.01
10.97048687934875,2,3,3,3,-9.84,-0.28,-0.96,5.89,1.82,-0.85
10.98048686981201,2,3,3,3,-9.859999999999999,-0.06,-1.03,5.86,2.35,-0.87
10.99048709869385,2,3,3,3,-9.68,0.1,-0.85,6.17,3.43,-0.99
11.0004870891571,2,3,3,3,-9.77,0.03,-0.32,6.42,4.94,-1.18
11.01048707962036,2,3,3,3,-10.02,0.09,-0.34,6.01,6.17,-1.1
11.02048707008362,2,3,3,3,-10.27,0.24,-0.5,4.85,7,-0.73
11.03048706054688,2,3,3,3,-10.37,0.39,-0.76,3.15,7.56,-0.18
11.04048705101013,2,3,3,3,-10.53,0.09,-1.17,1.45,8.06,0.38
11.05048704147339,2,3,3,3,-10.75,0.01,-1.43,-0.08,7.99,0.83
11.06048703193665,2,3,3,3,-10.97,0.01,-1.97,-1.52,7.16,0.9
11.0704870223999,2,3,3,2,-11.16,-0.21,-2.52,-1.98,5.88,0.59
11.08048701286316,2,3,3,2,-11.25,-0.83,-2.77,-1.98,5.88,0.59
11.09048700332642,2,3,3,2,-11.12,-1.25,-2.86,-1.02,4.94,0.33
11.10048699378967,2,3,3,2,-10.8,-1.57,-2.71,0.42,4.02,0.28
11.11048698425293,2,3,3,2,-10.49,-2.16,-2.06,1.26,3.7,0.27
11.12048697471619,2,3,3,2,-10.39,-2.44,-1.63,2.75,4.6,0.72
11.13048696517944,2,3,3,2,-10.26,-2.7,-1.18,2.75,4.6,0.72
11.1404869556427,2,3,3,2,-10.25,-2.94,-0.76,3.36,4.98,1.05
11.15048694610596,2,3,3,2,-10.14,-3.43,0.03,3.19,4.63,1.45
11.16048693656921,2,3,3,2,-9.970000000000001,-3.69,0.08,0.79,2.81,2.29
11.17048692703247,2,3,3,2,-9.779999999999999,-3.92,-0.1,-0.72,2.51,2.51
11.18048691749573,2,3,3,2,-9.65,-4.11,-0.35,-0.72,2.51,2.51
11.19048690795898,2,3,3,2,-9.35,-4.29,-0.72,-1.74,2.64,2.63
11.20048689842224,2,3,3,2,-9.199999999999999,-4.19,-0.6,-1.64,3.07,3.04
11.2104868888855,2,3,3,2,-9.130000000000001,-4.01,-0.36,-0.68,2.67,3.39
11.22048687934875,2,3,3,2,-9.1,-3.65,-0.13,0.17,1.79,3.83
11.23048686981201,2,3,3,2,-9.470000000000001,-2.56,0.04,0.17,1.79,3.83
11.24048709869385,2,3,3,2,-9.69,-2.14,0,0.28,0.65,4.51
11.2504870891571,2,3,3,2,-9.9,-1.8,0,-0.19,-0.62,5.17
11.26048707962036,2,3,3,2,-10.01,-1.59,-0.07000000000000001,-1.13,-1.74,5.86
11.27048707008362,2,3,3,1,-10.84,-0.83,-0.16,-3.36,-3.4,7.19
11.28048706054688,2,3,3,1,-11.51,-0.68,-0.1,-3.36,-3.4,7.19
11.29048705101013,2,3,3,1,-11.96,-0.71,-0.28,-3.64,-4.72,7.27
11.30048704147339,2,3,3,1,-10.82,-0.82,-0.26,-4.22,-6.52,6.63
11.31048703193665,2,3,3,1,-10.19,-0.72,-0.32,-6.87,-6.3,3.53
11.3204870223999,2,3,3,1,-9.779999999999999,-0.58,-0.06,-7.4,-5.62,1.89
11.33048701286316,2,3,3,1,-9.26,-0.6899999999999999,0.19,-7.4,-5.62,1.89
11.34048700332642,2,3,3,1,-8.609999999999999,-0.96,0.04,-7.7,-5.75,0.78
11.35048699378967,2,3,3,1,-8.359999999999999,-1.06,-0.03,-8.26,-6.27,0.41
11.36048698425293,2,3,3,1,-8.31,-1.16,-0.02,-8.720000000000001,-6.76,0.49
11.37048697471619,2,3,3,1,-8.06,-1.3,0.1,-8.609999999999999,-6.72,1.41
11.38048696517944,2,3,3,1,-8.01,-1.65,0.13,-8.609999999999999,-6.72,1.41
11.3904869556427,2,3,3,1,-8.02,-1.59,0.08,-8.140000000000001,-6.18,1.91
11.40048694610596,2,3,3,1,-8.050000000000001,-1.44,0.28,-7.51,-5.54,2.39
11.41048693656921,2,3,3,1,-8.15,-1.31,0.38,-6.86,-4.92,2.8
11.42048692703247,2,3,3,1,-8.25,-0.88,0.51,-5.67,-3.71,3.22
11.43048691749573,2,3,3,1,-8.33,-0.71,0.55,-5.67,-3.71,3.22
11.44048690795898,2,3,3,1,-8.390000000000001,-0.52,0.48,-5.25,-3.15,3.16
11.45048689842224,2,3,3,1,-8.57,-0.33,0.48,-5.13,-2.62,3.02
11.4604868888855,2,3,3,1,-8.69,-0.18,0.68,-5.08,-2.17,2.63
11.47048687934875,2,3,3,1,-8.470000000000001,-0.09,0.6,-5.12,-2.41,0.98
11.48048686981201,2,3,3,1,-8.390000000000001,0.06,0.29,-5.12,-2.41,0.98
11.4914870262146,2,3,3,1,-8.550000000000001,0.51,0.72,-5.15,-1.4,0.08
11.50148701667786,2,3,3,1,-8.380000000000001,0.65,0.53,-4.74,-0.29,-0.45
11.51148700714111,2,3,3,1,-8.35,0.71,0.66,-4.29,0.17,-1.03
11.52148699760437,2,3,3,1,-8.31,0.6899999999999999,0.61,-3.66,1.36,-2.28
11.53148698806763,2,3,3,1,-8.539999999999999,0.89,0.4,-3.66,1.36,-2.28
11.54148697853088,2,3,3,1,-9.01,0.84,0.57,-3.68,1.86,-2.73
11.55148696899414,2,3,3,1,-9.18,0.7,0.64,-3.5,1.78,-2.79
11.5614869594574,2,3,3,1,-9.23,0.63,0.34,-3.49,0.59,-2.85
11.57148694992065,2,3,3,0,-9.470000000000001,0.78,0.18,-4.79,0.66,-2.54
11.58148694038391,2,3,3,0,-9.66,0.79,0.46,-4.79,0.66,-2.54
11.59148693084717,2,3,3,0,-9.68,0.6899999999999999,0.59,-4.74,0.97,-1.58
11.60148692131042,2,3,3,0,-9.82,0.67,0.63,-5.08,0.2,-0.6
11.61148691177368,2,3,3,0,-10.05,0.22,0.74,-6.14,-0.86,0.14
11.62148690223694,2,3,3,0,-10.24,-0.15,0.78,-7.24,-1.64,0.43
11.6314868927002,2,3,3,0,-10.35,-0.3,0.84,-8,-1.88,0.35
11.64148688316345,2,3,3,0,-10.38,-0.23,1.06,-8.31,-1.88,0.18
11.65148687362671,2,3,3,0,-11.27,-0.03,1.44,-8.34,-1.95,0.04
11.66148686408997,2,3,3,0,-11.77,-0.2,1.34,-8.289999999999999,-2.5,-0.17
11.6714870929718,2,3,3,0,-12.23,-0.62,1.01,-8.68,-4.38,0.06
11.68148708343506,2,3,3,0,-13.31,-1.2,0.46,-8.68,-4.38,0.06
11.69148707389832,2,3,3,0,-14.69,-2.28,0.53,-8.609999999999999,-5.82,0.8100000000000001
11.70148706436157,2,3,3,0,-14.84,-3.35,0.58,-6.94,-7.66,1.89
11.71148705482483,2,3,3,0,-14.16,-3.87,-0.12,-4.92,-10.54,2.7
11.72148704528809,2,3,3,0,-10.97,-1.38,-0.05,-2.49,-9.69,1.67
11.73148703575134,2,3,3,0,-9.77,1.52,2.6,-2.49,-9.69,1.67
11.7414870262146,2,3,3,0,-8.6,1.98,3,1.4,-6.38,1.54
11.75148701667786,2,3,3,0,-7.64,1.93,1.63,3.01,-5.18,1.26
11.76148700714111,2,3,3,0,-7.97,1.32,2.48,1.98,-3.68,0.48
11.77148699760437,2,3,3,0,-8.82,0.57,1.73,0.25,-2.47,0.37
11.78148698806763,2,3,3,0,-10.01,-0.6899999999999999,0.92,-3.3,-3.09,0.03
11.79148697853088,2,3,3,0,-11.15,-2.67,0.22,-4.94,-3.82,-0.43
11.80148696899414,2,3,3,0,-12.46,-4.36,-0.73,-5.35,-3.6,-0.79
11.8114869594574,2,3,3,0,-11.67,-4.25,-0.74,-4.3,-2.83,-0.98
11.82148694992065,2,3,3,0,-10.65,-3.86,-0.73,-1.17,-1.25,-2.35
11.83148694038391,2,3,3,0,-9.66,-3.55,-0.64,-1.17,-1.25,-2.35
11.84148693084717,2,3,3,0,-8.619999999999999,-2.87,-0.5600000000000001,0.05,-0.2,-3.46
11.85148692131042,2,3,3,0,-8.25,-2.56,-0.49,0.54,1.04,-4.46
11.86148691177368,2,3,3,0,-8.15,-2.57,-0.36,0.23,1.58,-4.58
11.87148690223694,2,3,3,0,-7.97,-2.79,-0.17,-0.8100000000000001,1.5,-4.35
11.8814868927002,2,3,3,0,-8.15,-3.11,-0.06,-1.84,0.71,-4
11.89148688316345,2,3,3,0,-8.369999999999999,-3.42,-0.2,-2.34,0.45,-3.34
11.90148687362671,2,3,3,0,-8.369999999999999,-3.52,-0.27,-2.27,0.6,-2.44
11.91148686408997,2,3,3,0,-8.51,-3.36,-0.35,-1.87,1.09,-1.32
11.9214870929718,2,3,3,0,-8.52,-3.18,-0.27,-1.04,1.63,-0.38
11.93148708343506,2,3,3,0,-8.93,-3.18,-0.33,-0.02,2.24,0.44
11.94148707389832,2,3,3,0,-9.119999999999999,-3.14,-0.55,1.19,2.97,1.08
11.95148706436157,2,3,3,0,-9.31,-2.58,-0.51,2.5,3.31,1.4
11.96148705482483,2,3,3,0,-9.109999999999999,-2.34,-0.42,3.78,3.78,1.43
11.97148704528809,2,3,3,0,-9.33,-2.06,-0.47,5.01,4.42,1.21
11.98148703575134,2,3,3,0,-9.4,-1.74,-0.61,5.95,4.97,0.61
11.9914870262146,2,3,3,0,-9.380000000000001,-1.09,-0.65,6.8,4.91,-0.27
12.00148701667786,2,3,3,0,-9.32,-1.04,-0.65,7.4,4.51,-1.24
12.01148700714111,2,3,3,0,-9.09,-0.83,-0.6,7.52,3.87,-2.01
12.02148699760437,2,3,3,0,-8.84,-0.72,-0.37,7.3,3.41,-2.52
12.03148698806763,2,3,3,0,-8.619999999999999,-0.44,-0.36,6.92,3,-3
12.04148697853088,2,3,3,0,-8.52,-0.38,-0.47,6.41,2.6,-3.34
12.05148696899414,2,3,3,0,-8.460000000000001,-0.36,-0.51,5.7,2.38,-3.64
12.0614869594574,2,3,3,0,-8.59,-0.47,-0.34,5.07,2.5,-3.65
12.07148694992065,2,3,3,0,-9,-0.74,-0.41,4.5,2.38,-3.7
12.08148694038391,2,3,3,0,-9.16,-0.74,-0.24,3.96,2.05,-3.79
12.09148693084717,2,3,3,0,-9.32,-0.74,-0.4,3.67,1.47,-3.95
12.10148692131042,2,3,3,0,-9.26,-0.98,-0.31,3.61,0.72,-4.5
12.11148691177368,2,3,3,0,-9.15,-0.97,-0.31,3.79,0.38,-5.1
12.12148690223694,2,3,3,0,-8.99,-1.02,-0.12,3.91,0.28,-5.75
12.1314868927002,2,3,3,0,-8.85,-1.07,-0.27,3.92,0.04,-6.3
12.14148688316345,2,3,3,0,-8.880000000000001,-1.26,-0.19,3.74,0.04,-6.67
12.15148687362671,2,3,3,0,-8.81,-1.4,-0.24,3.7,0.13,-6.63
12.16148686408997,2,3,3,0,-9.1,-1.39,-0.42,3.64,0.09,-6.31
12.1714870929718,2,3,3,0,-9.4,-1.6,-0.27,3.64,0.1,-5.72
12.18148708343506,2,3,3,0,-9.34,-2.25,-0.15,3.92,-0.17,-5.14
12.19148707389832,2,3,3,0,-9.41,-2.4,-0.41,4.11,-0.51,-4.4
12.20148706436157,2,3,3,0,-9.449999999999999,-2.48,-0.6899999999999999,4.87,-0.79,-3.7
12.21148705482483,2,3,3,0,-9.48,-2.32,-1.07,5.9,-1.05,-3.11
12.22148704528809,2,3,3,0,-9.550000000000001,-1.58,-1.15,7.37,-1.07,-2.57
12.23148703575134,2,3,3,0,-9.42,-1.02,-1.06,9.27,-1,-1.99
12.2414870262146,2,3,3,0,-9.199999999999999,-0.28,-0.98,11.01,-0.68,-1.62
12.25148701667786,2,3,3,0,-9.109999999999999,0.6,-0.67,11.82,0.15,-1.23
12.26148700714111,2,3,3,0,-9.4,1.95,-0.33,11.53,1.06,-0.73
12.27148699760437,2,3,3,0,-9.56,2.28,-0.36,10.58,1.71,-0.1
12.28148698806763,2,3,3,0,-9.83,2.27,-0.27,8.859999999999999,2.59,0.41
12.29148697853088,2,3,3,0,-10.16,1.76,-0.25,7.25,3.86,0.54
12.30148696899414,2,3,3,0,-11.16,0.02,-0.16,5.58,5.3,0.3
12.32148694992065,2,3,3,0,-11.42,-0.49,-0.29,3.51,7.92,0.05
12.33148694038391,2,3,3,0,-11.15,-0.46,-0.99,2.37,8.890000000000001,-0.04
12.34148693084717,2,3,3,0,-11.55,-0.92,-1.13,2,10.41,-0.24
12.35148692131042,2,3,3,0,-11.76,-1.1,-1.31,2.44,11.95,-0.44
12.36148691177368,2,3,3,0,-11.62,-1,-1.9,2.57,12.01,-0.35
12.37148690223694,2,3,3,0,-11.51,-1.26,-2.01,1.71,11.34,-0.17
12.38248705863953,2,3,3,0,-11.78,-1.97,-1.97,0.19,10.64,0.2
12.39148688316345,2,3,3,0,-11.76,-2.83,-1.96,-1.45,9.51,0.77
12.40148687362671,2,3,3,0,-11.57,-3.7,-1.8,-2.63,8.17,1.58
12.41148686408997,2,3,3,0,-10.97,-4.89,-0.9,-2.64,7.51,2.68
12.4214870929718,2,3,3,0,-10.65,-5.16,-0.29,-1.54,7.49,4.05
12.43148708343506,2,3,3,0,-10.08,-5.45,0.26,-0.6,7.09,5.13
12.44148707389832,2,3,3,0,-9.57,-5.63,0.46,-0.53,6.34,5.77
12.45148706436157,2,3,3,0,-8.710000000000001,-5.38,0.8100000000000001,-1.17,5.96,6.06
12.46148705482483,2,3,3,0,-8.6,-5.27,0.6899999999999999,-1.78,5.63,6.09
12.47148704528809,2,3,3,0,-9.039999999999999,-4.92,0.38,-1.95,5.27,6.33
12.48148703575134,2,3,3,0,-9.539999999999999,-4.39,-0.05,-1.78,4.02,6.96
12.4914870262146,2,3,3,0,-10.31,-3.29,-1.03,-1.32,2.03,7.6
12.50148701667786,2,3,3,0,-10.65,-2.72,-1.33,-0.5600000000000001,0.27,7.88
12.51248693466187,2,3,3,0,-10.87,-2.02,-0.92,0.06,-0.71,7.93
12.52248692512512,2,3,3,0,-11.96,-1.26,-0.91,0.51,-1.88,7.93
12.53248691558838,2,3,3,0,-12.47,-1.09,-0.71,0.45,-2.73,8.1
12.54248690605164,2,3,3,0,-12.21,-0.88,-0.35,0.35,-3.72,8.16
12.55248689651489,2,3,3,0,-11.61,-0.51,0.02,-0.01,-5.2,7.56
12.56248688697815,2,3,3,0,-10.05,0.28,0.71,-1.17,-6.31,6.16
12.57248687744141,2,3,3,0,-9.609999999999999,0.37,0.59,-3.49,-6.93,4.28
12.58248686790466,2,3,3,0,-9.050000000000001,0.29,0.48,-6.09,-6.97,2.16
12.5924870967865,2,3,3,0,-8.9,0.15,0.15,-8.08,-7.29,0.54
12.60248708724976,2,3,3,0,-7.71,-0.41,-0.1,-9.18,-8.07,-0.2
12.61248707771301,2,3,3,0,-7.54,-0.72,0.04,-9.75,-8.779999999999999,-0.33
12.62248706817627,2,3,3,0,-7.2,-1.12,0.34,-9.83,-8.859999999999999,-0.33
12.63248705863953,2,3,3,0,-7.12,-1.24,0.63,-9.460000000000001,-8.49,-0.21
12.64248704910278,2,3,3,0,-6.54,-0.8100000000000001,0.11,-9.41,-8.43,0.16
12.65248703956604,2,3,3,0,-6.75,-0.58,0.33,-9.1,-7.44,0.36
12.6624870300293,2,3,3,0,-7.02,-0.42,0.52,-8.42,-5.46,0.43
12.67248702049255,2,3,3,0,-7.2,-0.39,0.54,-7.63,-3.9,0.47
12.68248701095581,2,3,3,0,-7.54,-0.25,0.4,-7.01,-2.6,0.46
12.69248700141907,2,3,3,0,-7.61,-0.13,0.41,-6.15,-1.67,0.44
12.70248699188232,2,3,3,0,-7.77,-0.02,0.52,-5.46,-1.04,0.3
12.71248698234558,2,3,3,0,-8.039999999999999,0.38,0.68,-4.84,-0.51,-0.02
12.72248697280884,2,3,3,0,-8.210000000000001,0.55,0.83,-4.32,0.15,-0.37
12.73248696327209,2,3,3,0,-8.27,0.58,1.07,-3.95,0.67,-0.82
12.74248695373535,2,3,3,0,-8.279999999999999,0.65,0.99,-3.79,0.74,-1.52
12.75248694419861,2,3,3,0,-8.52,1.06,0.79,-4.59,0.36,-2.45
12.76248693466187,2,3,3,0,-8.67,1.03,0.61,-5.41,-0.21,-3.38
12.77248692512512,2,3,3,0,-8.710000000000001,0.97,0.11,-5.64,-0.8,-3.92
12.78248691558838,2,3,3,0,-8.539999999999999,0.86,-0.23,-4.97,-1.13,-3.87
12.79248690605164,2,3,3,0,-8.720000000000001,0.78,0.55,-4.07,0.08,-3.22
12.80248689651489,2,3,3,0,-8.84,0.17,1.25,-3.33,1.67,-2.06
12.81248688697815,2,3,3,0,-8.960000000000001,-0.74,1.33,-3.64,1.6,-1.02
12.82248687744141,2,3,3,0,-9.380000000000001,-1.55,0.77,-5.78,0.37,-0.5
12.83248686790466,2,3,3,0,-11.06,-1.84,-0.35,-8.199999999999999,-0.73,-0.53
12.8424870967865,2,3,3,0,-11.15,-1.32,-0.72,-9.65,-1.87,-0.9
12.85248708724976,2,3,3,0,-10.98,-0.49,-0.16,-9.06,-1.57,-0.72
12.86248707771301,2,3,3,0,-10.65,0.1,0.79,-6.16,-0.02,-0.16
12.87248706817627,2,3,3,0,-12.56,0.64,1.6,-3.5,0.75,0.12
12.92248702049255,2,3,3,0,-14.44,-3.94,0.08,-3.57,-10.31,2.01
12.93248701095581,2,3,3,0,-14.39,-4.93,-0.42,-2.28,-12.48,2.22
12.94248700141907,2,3,3,0,-12.9,-2.76,0.49,-1.24,-13.85,2.52
12.95248699188232,2,3,3,0,-11.86,-0.6,1.6,1.38,-11.6,2.44
12.96248698234558,2,3,3,0,-10.22,0.74,1.88,5.19,-8.69,2.43
12.97248697280884,2,3,3,0,-8.67,1.49,2.8,7.98,-6.67,1.57
12.98248696327209,2,3,3,0,-7.39,1.62,2.44,7.98,-4.8,0.62
12.99248695373535,2,3,3,0,-7.97,0.49,1.76,4.33,-3.52,0.04
13.00248694419861,2,3,3,0,-8.890000000000001,-1.53,0.8,0.82,-2.7,-0.25
13.01248693466187,2,3,3,0,-9.949999999999999,-3.38,-0.09,-2.33,-3.26,-0.84
13.02248692512512,2,3,3,0,-11.54,-5.33,-1.41,-4.36,-3.42,-1.22
13.03248691558838,2,3,3,0,-11.55,-5.5,-1.83,-4.88,-2.24,-1.72
13.04248690605164,2,3,3,0,-11.21,-5.2,-1.8,-3.87,-1.09,-2.86
13.05248689651489,2,3,3,0,-9.880000000000001,-4.49,-1.11,-2.37,-0.66,-4.02
13.06248688697815,2,3,3,0,-8.130000000000001,-3.07,-0.14,-0.83,0.25,-4.57
13.07248687744141,2,3,3,0,-7.82,-2.83,0.38,0.27,1.72,-5.08
13.08248686790466,2,3,3,0,-7.75,-3.08,0.59,0.6899999999999999,2.5,-5.1
13.0924870967865,2,3,3,0,-7.82,-3.12,0.37,0.47,3.08,-4.41
13.10248708724976,2,3,3,0,-8.27,-3.22,-0.01,0.29,3.19,-3.39
13.12248706817627,2,3,3,0,-8.58,-3.58,-0.22,1.37,3.43,-1.06
13.13248705863953,2,3,3,0,-8.77,-3.13,-0.52,2.64,3.78,0.08
13.14248704910278,2,3,3,0,-8.68,-2.88,-0.54,4.37,4.22,0.76
13.15248703956604,2,3,3,0,-8.5,-2.63,-0.52,6.24,4.49,0.97
13.1624870300293,2,3,3,0,-8.550000000000001,-2.4,-0.51,7.64,4.83,0.38
13.17248702049255,2,3,3,0,-8.32,-1.95,-0.43,8.710000000000001,5.04,-0.51
13.18248701095581,2,3,3,0,-8.210000000000001,-1.65,-0.47,9.43,5.07,-1.42
13.19248700141907,2,3,3,0,-7.94,-1.43,-0.68,9.66,5.13,-2.17
13.20248699188232,2,3,3,0,-8.01,-1.09,-0.65,9.640000000000001,5.06,-2.79
13.21248698234558,2,3,3,0,-8.119999999999999,-0.91,-0.5,9.31,4.76,-3.11
13.22248697280884,2,3,3,0,-8.23,-0.85,-0.4,8.58,4.11,-3.04
13.23248696327209,2,3,3,0,-8.220000000000001,-0.8,-0.34,7.75,3.18,-2.7
13.24248695373535,2,3,3,0,-8.4,-0.54,-0.49,6.81,2.36,-2.33
13.25248694419861,2,3,3,0,-8.869999999999999,-0.54,-0.39,6.09,1.81,-1.93
13.26248693466187,2,3,3,0,-9.18,-0.42,-0.37,5.78,1.18,-1.67
13.27248692512512,2,3,3,0,-9.34,-0.23,-0.46,5.27,0.73,-1.74
13.28248691558838,2,3,3,0,-9.359999999999999,-0.11,-0.44,4.92,0.29,-2.17
13.29248690605164,2,3,3,0,-9.109999999999999,0.05,-0.57,4.66,0.03,-2.91
13.30248689651489,2,3,3,0,-9.1,0.07000000000000001,-0.52,4.32,0.07000000000000001,-3.89
13.31248688697815,2,3,3,0,-8.91,0,-0.54,3.8,0.2,-4.73
13.32248687744141,2,3,3,0,-9.07,-0.18,-0.43,3.19,0.42,-5.31
13.33248686790466,2,3,3,0,-9.16,-0.4,-0.34,2.7,0.38,-5.44
13.3424870967865,2,3,3,0,-9.43,-0.59,-0.38,2.33,0.01,-5.11
13.35248708724976,2,3,3,0,-9.640000000000001,-0.86,-0.48,2.16,-0.55,-4.39
13.36248707771301,2,3,3,0,-9.359999999999999,-1.71,-0.8100000000000001,2.38,-1.1,-3.9
13.37248706817627,2,3,3,0,-9.27,-2.07,-0.8,2.74,-1.07,-3.54
13.38248705863953,2,3,3,0,-8.99,-2.17,-0.7,3.62,-0.83,-3.14
13.39248704910278,2,3,3,0,-8.92,-2.01,-0.82,5.01,-0.5,-2.79
13.40248703956604,2,3,3,0,-9.25,-1.42,-1.1,6.68,-0.08,-2.51
13.4124870300293,2,3,3,0,-9.380000000000001,-0.76,-1.2,8.26,0.8,-2.19
13.42248702049255,2,3,3,0,-9.19,0.03,-1.03,9.289999999999999,1.91,-1.82
13.43248701095581,2,3,3,0,-8.99,0.6899999999999999,-0.6899999999999999,9.789999999999999,2.9,-1.37
13.44248700141907,2,3,3,0,-9.5,1.51,-0.14,9.859999999999999,4.12,-0.76
13.45248699188232,2,3,3,0,-10.08,1.57,-0.07000000000000001,9.26,5.53,0.2
13.46248698234558,2,3,3,0,-10.87,1.02,-0.09,8.07,6.89,0.84
13.47248697280884,2,3,3,0,-11.56,0.29,-0.08,7.45,8.390000000000001,0.89
13.48248696327209,2,3,3,0,-11.91,0.24,-0.4,6.58,9.140000000000001,0.78
13.49248695373535,2,3,3,0,-11.62,0.15,-0.64,4.84,9.52,0.54
13.50248694419861,2,3,3,0,-11.98,-0.34,-0.61,3.09,10.28,0.04
13.51248693466187,2,3,3,0,-12.27,-1.3,-1.49,1.88,10.79,-0.3
13.52348709106445,2,3,3,0,-11.81,-1.41,-2.04,0.62,10.13,-0.27
13.53348708152771,2,3,3,0,-11.38,-1.94,-2.24,-1.04,8.970000000000001,-0.02
13.54348707199097,2,3,3,0,-11.07,-2.77,-2.6,-2.7,8.109999999999999,0.43
13.55348706245422,2,3,3,0,-10.76,-5.33,-1.82,-3.69,7.13,1.3
13.56348705291748,2,3,3,0,-10.54,-6.24,-1.31,-3.04,6.83,2.76
13.57348704338074,2,3,3,0,-10.26,-6.47,-0.63,-0.92,7.15,4.68
13.58348703384399,2,3,3,0,-9.960000000000001,-6.26,0.14,1.56,7.2,6.36
13.59348702430725,2,3,3,0,-9.390000000000001,-4.88,1.16,2.96,6.58,7.51
13.60348701477051,2,3,3,0,-9.57,-4.11,1.31,2.61,5.55,8.130000000000001
13.61348700523376,2,3,3,0,-10.05,-3.68,0.91,0.96,4.56,8.26
13.62348699569702,2,3,3,0,-10.63,-3.01,0.31,-1.32,3.48,8.1
13.63348698616028,2,3,3,0,-11.04,-2.23,-0.47,-3.27,2.08,7.88
13.64348697662354,2,3,3,0,-11.53,-1.8,-0.97,-4.17,0.75,7.48
13.65348696708679,2,3,3,0,-12,-1.47,-1.29,-4.62,-0.17,6.9
13.66348695755005,2,3,3,0,-12.46,-1.13,-1.51,-4.34,-1.19,5.85
13.67348694801331,2,3,3,0,-12.35,-1.14,-0.97,-4.17,-2.3,4.66
13.68348693847656,2,3,3,0,-11.99,-1.33,-0.64,-3.98,-3.34,3.72
13.69348692893982,2,3,3,0,-11.33,-1.2,-0.42,-4.28,-4.49,3.1
13.70348691940308,2,3,3,0,-9.16,-0.84,0.25,-5.51,-5.84,2.65
13.71348690986633,2,3,3,0,-8.76,-0.67,0.45,-7.62,-6.76,2.37
13.72348690032959,2,3,3,0,-8.720000000000001,-0.5,0.28,-9.9,-7.27,2.03
13.73348689079285,2,3,3,0,-8.039999999999999,-0.42,0.21,-11.89,-7.63,1.65
13.7434868812561,2,3,3,0,-6.75,-0.87,0.04,-13.31,-7.63,1.71
13.75348687171936,2,3,3,0,-6.75,-1.02,0.09,-13.55,-7.77,1.79
13.76348686218262,2,3,3,0,-6.98,-1.31,0,-13.51,-7.32,2.09
13.77348709106445,2,3,3,0,-7.08,-1.59,0.04,-12.95,-7,2.14
13.78348708152771,2,3,3,0,-7.37,-1.43,0.32,-12.05,-6.64,2.2
13.79348707199097,2,3,3,0,-7.47,-1.21,0.34,-10.98,-6.32,2.3
13.80348706245422,2,3,3,0,-7.55,-0.92,0.26,-10.1,-5.99,2.42
13.81348705291748,2,3,3,0,-7.4,-0.76,0.09,-9.369999999999999,-5.3,2.2
13.82348704338074,2,3,3,0,-7.27,-0.11,0.36,-8.82,-3.9,1.5
13.83348703384399,2,3,3,0,-7.36,0.15,0.57,-8.67,-2.48,0.51
13.84348702430725,2,3,3,0,-7.46,0.12,0.33,-8.130000000000001,-1.39,-0.35
13.85348701477051,2,3,3,0,-7.53,0.2,0.41,-7.46,-0.06,-0.92
13.86348700523376,2,3,3,0,-8.029999999999999,0.18,0.65,-7.4,1.16,-1.62
13.87348699569702,2,3,3,0,-8.02,-0.03,0.75,-7.25,2.18,-2.43
13.88348698616028,2,3,3,0,-8.01,-0.1,0.9,-6.8,2.8,-3.03
13.89348697662354,2,3,3,0,-8.1,-0.18,0.88,-6.27,2.8,-3.62
13.90348696708679,2,3,3,0,-8.220000000000001,-0.19,0.59,-5.76,2.11,-4.25
13.91348695755005,2,3,3,0,-8.800000000000001,0.03,0.84,-6.1,1.42,-5.12
13.92348694801331,2,3,3,0,-9.4,-0.13,1.07,-6.34,0.8,-5.42
13.93348693847656,2,3,3,0,-8.970000000000001,0.49,-0.5,-5.96,-1.32,-4.93
13.94348692893982,2,3,3,0,-9.300000000000001,0.74,-0.38,-5.58,-1.73,-3.6
13.95348691940308,2,3,3,0,-9.289999999999999,0.45,0.27,-3.81,0.14,-1.17
13.96348690986633,2,3,3,0,-9.26,-0.34,0.51,-3.24,0.11,0.44
13.97348690032959,2,3,3,0,-10.37,-1.41,0.03,-4.96,-0.44,0.61
13.98348689079285,2,3,3,0,-11.36,-1.29,0.17,-7.11,-0.76,0.31
13.9934868812561,2,3,3,0,-11.78,-0.97,-0.11,-7.99,-1.62,0.08
14.00348687171936,2,3,3,0,-11.4,-0.28,0.22,-7.38,-2.18,0.21
14.01348686218262,2,3,3,0,-11.93,0.83,1.32,-5.53,-1.89,0.65
14.02348709106445,2,3,3,0,-12.57,1.03,1.45,-3.78,-1.69,0.9
14.03348708152771,2,3,3,0,-13.61,0.52,1.82,-3.67,-3.23,1.32
14.04348707199097,2,3,3,0,-14.69,-0.68,1.11,-4.53,-5.75,1.48
14.05348706245422,2,3,3,0,-16.23,-1.22,-0.22,-6.22,-8.970000000000001,2
14.06348705291748,2,3,3,0,-14.97,-0.88,-1.49,-6.88,-10.95,2.77
14.07348704338074,2,3,3,0,-13.28,-2.05,-1.21,-4.36,-11.54,3.26
14.08348703384399,2,3,3,0,-12.44,-3.57,0.37,0.07000000000000001,-9.800000000000001,3.38
14.09348702430725,2,3,3,0,-11.13,-2.8,0.31,1.33,-9.85,2.64
14.10348701477051,2,3,3,0,-10.45,-0.72,1.69,2.95,-9.18,2.15
14.11348700523376,2,3,3,0,-9.289999999999999,0.26,2.32,5.83,-7.38,1.89
14.12348699569702,2,3,3,1,-9.07,-0.65,1.94,6.28,-5.82,1.45
14.13348698616028,2,3,3,1,-9.550000000000001,-1.17,1.25,4.77,-4.54,0.51
14.14348697662354,2,3,3,1,-10.12,-2.23,0.6,1.99,-4.33,-0.53
14.15348696708679,2,3,3,1,-10.64,-3.13,-0.2,-0.36,-4.24,-1.62
14.16348695755005,2,3,3,1,-11.02,-4.84,-1.21,-2.19,-3.56,-2.47
14.17348694801331,2,3,3,1,-10.56,-5.33,-1.17,-2.9,-2.74,-3.29
14.18348693847656,2,3,3,1,-10.22,-5.43,-1.04,-2.6,-2.18,-4.05
14.19348692893982,2,3,3,1,-9.5,-5.15,-0.91,-1.73,-1.71,-4.58
14.20348691940308,2,3,3,1,-8.039999999999999,-3.97,-0.03,-0.37,-0.92,-4.85
14.21348690986633,2,3,3,1,-7.74,-3.55,0.29,0.83,0.31,-4.7
14.22348690032959,2,3,3,2,-7.59,-3.46,0.37,1.55,1.46,-4.32
14.23348689079285,2,3,3,2,-7.55,-3.34,0.29,1.95,2.4,-3.84
14.2434868812561,2,3,3,2,-7.84,-3.3,-0.11,2.28,3.26,-3.31
14.25348687171936,2,3,3,2,-8.039999999999999,-3.55,-0.23,2.9,4.02,-2.86
14.26348686218262,2,3,3,2,-8.25,-3.67,-0.33,4.01,4.73,-2.26
14.27348709106445,2,3,3,2,-8.220000000000001,-3.69,-0.37,5.51,5.31,-1.54
14.28348708152771,2,3,3,2,-8.24,-3.37,-0.35,7.48,5.68,-1.01
14.29348707199097,2,3,3,2,-8.15,-2.82,-0.51,9.550000000000001,5.92,-0.7
14.30348706245422,2,3,3,2,-8.27,-2.44,-0.36,11.18,6.2,-0.86
14.31348705291748,2,3,3,2,-8.1,-1.56,-0.52,12.47,6.02,-1.38
14.32348704338074,2,3,3,2,-8.17,-1.14,-0.54,12.94,5.67,-2.12
14.33348703384399,2,3,3,2,-8.17,-0.88,-0.42,13.05,5.39,-2.62
14.34348702430725,2,3,3,2,-8.26,-0.64,-0.76,12.48,4.78,-2.79
14.35348701477051,2,3,3,2,-8.460000000000001,-0.23,-0.67,11.33,4.03,-2.68
14.36348700523376,2,3,3,2,-8.640000000000001,-0.21,-0.6899999999999999,10.03,3.16,-2.31
14.37348699569702,2,3,3,2,-8.779999999999999,-0.11,-0.72,8.84,2.37,-1.76
14.38348698616028,2,3,3,2,-9,-0.06,-0.57,7.97,1.76,-1.31
14.39348697662354,2,3,3,2,-9.35,-0.02,-0.63,7.25,1.3,-1.23
14.40348696708679,2,3,3,2,-9.720000000000001,0.01,-0.5600000000000001,6.68,0.79,-1.42
14.41348695755005,2,3,3,2,-9.76,0.14,-0.46,6.32,0.09,-1.93
14.42348694801331,2,3,3,2,-9.65,0.19,-0.51,5.89,-0.63,-2.7
14.43348693847656,2,3,3,2,-9.449999999999999,0.37,-0.58,5.44,-0.82,-3.53
14.44348692893982,2,3,3,2,-9.42,0.39,-0.5600000000000001,4.84,-0.66,-4.26
14.45348691940308,2,3,3,2,-9.460000000000001,0.3,-0.42,4.19,-0.42,-4.83
14.46348690986633,2,3,3,2,-9.41,0.15,-0.29,3.45,-0.44,-5.11
14.47348690032959,2,3,3,1,-9.369999999999999,-0.46,-0.25,2.85,-0.58,-5.11
14.48348689079285,2,3,3,1,-9.369999999999999,-0.84,-0.38,2.46,-0.79,-5.02
14.4934868812561,2,3,3,1,-9.4,-1.16,-0.41,2.09,-0.9,-4.52
14.50348687171936,2,3,3,1,-9.25,-1.51,-0.45,2.37,-1.08,-4.03
14.51348686218262,2,3,3,1,-8.789999999999999,-2.04,-0.22,3.04,-1,-3.81
14.52348709106445,2,3,3,1,-8.720000000000001,-2.05,-0.34,4.22,-0.58,-3.66
14.53348708152771,2,3,3,1,-8.869999999999999,-1.89,-0.46,5.6,0.15,-3.5
14.54348707199097,2,3,3,1,-9.01,-1.1,-0.71,6.81,0.77,-3.13
14.55348706245422,2,3,3,1,-8.91,-0.63,-0.83,7.8,1.52,-2.85
14.56448698043823,2,3,3,1,-8.74,0.07000000000000001,-0.95,8.289999999999999,2.34,-2.62
14.57448697090149,2,3,3,0,-8.609999999999999,0.85,-0.7,8.27,3.24,-2.24
14.58448696136475,2,3,3,0,-9.09,1.62,-0.35,7.99,4.15,-1.5
14.594486951828,2,3,3,0,-9.69,1.63,-0.26,7.88,5.39,-0.61
14.60448694229126,2,3,3,0,-10.36,1.27,-0.27,7.7,6.6,0.06
14.61448693275452,2,3,3,0,-11.1,0.96,-0.35,7.57,7.87,0.47
14.62448692321777,2,3,3,0,-11.66,0.87,-0.19,7.06,8.609999999999999,0.65
14.63448691368103,2,3,3,0,-11.31,0.71,-0.32,5.76,9.08,0.76
14.64448690414429,2,3,3,0,-11.59,0.32,-0.58,3.86,9.859999999999999,0.46
14.65448689460754,2,3,3,0,-11.87,-0.39,-0.67,1.7,10.49,0.05
14.6644868850708,2,3,3,0,-11.96,-1.91,-1.26,-0.68,10.23,-0.3
14.67448687553406,2,3,3,0,-11.89,-3.04,-1.6,-3.2,9.609999999999999,-0.53
14.68448686599731,2,3,3,0,-11.92,-4.26,-1.98,-5.28,8.369999999999999,-0.55
14.69448709487915,2,3,3,0,-11.57,-5.31,-2.33,-6.51,6.76,-0.11
14.70448708534241,2,3,3,0,-10.69,-6.9,-2.23,-6.38,5.98,1.01
14.71448707580566,2,3,3,0,-10.38,-7.37,-1.61,-4.45,6.47,2.77
14.72448706626892,2,3,3,0,-9.949999999999999,-7.38,-0.79,-1.21,7.38,4.82
14.73448705673218,2,3,3,0,-8.880000000000001,-5.86,0.66,1.82,7.59,6.75
14.74448704719543,2,3,3,0,-8.66,-4.85,1.26,3.48,7.48,8.050000000000001
14.75448703765869,2,3,3,0,-8.99,-3.92,1.62,3.66,7.15,8.92
14.76448702812195,2,3,3,0,-9.630000000000001,-3.53,1.51,2.52,6.3,9.390000000000001
14.77448701858521,2,3,3,0,-11.17,-2.22,0.31,0.72,4.92,9.5
14.78448700904846,2,3,3,0,-11.13,-1.6,-0.21,-1.1,2.71,9.449999999999999
14.79448699951172,2,3,3,0,-11.55,-0.86,-0.66,-2.4,0.62,9.06
14.80448698997498,2,3,3,0,-12.16,-0.57,-0.98,-3.45,-0.41,8.25
14.81448698043823,2,3,3,0,-13.23,-0.02,-1.7,-3.66,-1.36,6.94
14.82448697090149,2,3,3,0,-12.84,-0.22,-1.33,-3.99,-2.34,5.47
14.83448696136475,2,3,3,0,-12.44,-0.31,-0.83,-4.02,-3.43,4.15
14.844486951828,2,3,3,0,-11.56,-0.28,-0.34,-4.29,-4.56,3.13
14.85448694229126,2,3,3,0,-9.539999999999999,-0.62,0.31,-5.57,-6.2,2.15
14.86448693275452,2,3,3,0,-8.83,-0.43,0.46,-8.029999999999999,-7.89,1.37
14.87448692321777,2,3,3,0,-8.49,-0.4,0.29,-10.85,-9.119999999999999,0.67
14.88448691368103,2,3,3,0,-8.050000000000001,-0.33,0,-12.99,-9.380000000000001,-0.1
14.89448690414429,2,3,3,0,-7.38,-0.53,-0.15,-14.08,-9.470000000000001,-0.58
14.90448689460754,2,3,3,0,-6.97,-0.9,-0.02,-14.2,-9.470000000000001,-0.51
14.9144868850708,2,3,3,0,-6.66,-1.31,0.07000000000000001,-13.73,-9.41,-0.02
14.92448687553406,2,3,3,0,-6.37,-1.45,0.02,-12.87,-8.869999999999999,0.5
14.93448686599731,2,3,3,0,-6.41,-1.27,0.12,-11.9,-7.89,0.92
14.94448709487915,2,3,3,0,-6.5,-1.07,0.1,-10.74,-6.75,1.24
14.95448708534241,2,3,3,0,-6.68,-0.96,0.37,-9.609999999999999,-5.32,1.45
14.96448707580566,2,3,3,0,-7.13,-0.48,0.57,-8.67,-3.96,1.5
14.97448706626892,2,3,3,0,-7.33,-0.34,0.6899999999999999,-8.01,-2.74,1.4
14.98448705673218,2,3,3,0,-7.65,-0.26,0.76,-7.66,-1.68,1.2
14.99448704719543,2,3,3,0,-7.84,-0.05,0.6899999999999999,-7.53,-0.87,0.83
15.00448703765869,2,3,3,0,-8.26,0.3,0.62,-7.62,-0.12,0.01
15.01448702812195,2,3,3,0,-8.619999999999999,0.53,0.91,-7.61,0.95,-1.36
15.04448699951172,2,3,3,0,-8.35,0.74,0.61,-6.05,2.6,-4.49
15.05448698997498,2,3,3,0,-8.5,0.64,0.66,-5.64,2.47,-5.19
15.06448698043823,2,3,3,0,-8.67,0.42,0.93,-5.35,1.98,-5.48
15.13448691368103,2,3,3,1,-11.99,-1.59,0.06,-9.01,-2.61,0.21
15.14448690414429,2,3,3,1,-11.44,-0.93,0.52,-7.71,-2.87,0.27
15.15448689460754,2,3,3,1,-11.9,-0.04,1.59,-5.5,-2.42,0.49
15.1644868850708,2,3,3,1,-12.64,0.16,1.72,-3.22,-2.61,0.92
15.17448687553406,2,3,3,1,-13.67,-0.21,1.76,-2.69,-4.39,1.41
15.18448686599731,2,3,3,1,-14.85,-0.99,0.99,-3.57,-7.12,1.77
15.19448709487915,2,3,3,1,-15.23,-0.88,-0.34,-5.07,-10.69,2.52
15.20448708534241,2,3,3,1,-13.98,-0.75,-0.23,-4.44,-11.59,3.52
15.21448707580566,2,3,3,1,-12.51,-2.08,-0.12,-1.35,-11.6,3.78
15.22448706626892,2,3,3,1,-11.87,-3.52,0.47,1.04,-10.65,3.27
15.23448705673218,2,3,3,1,-11.07,-3.04,0.72,1.49,-10.27,2.72
15.24448704719543,2,3,3,1,-10.02,-0.97,1.64,3.55,-9.35,2.5
15.25448703765869,2,3,3,1,-8.779999999999999,0.68,2.09,6.2,-7.28,2.05
15.26448702812195,2,3,3,1,-7.99,0.98,2.18,7.48,-5.18,1.66
15.27448701858521,2,3,3,2,-7.99,0.98,2.18,6.35,-3.74,1.13
15.28448700904846,2,3,3,2,-9.02,-0.36,0.86,3.07,-3.01,0.79
15.29448699951172,2,3,3,2,-9.77,-1.25,-0.3,-0.18,-2.88,0.3
15.30448698997498,2,3,3,2,-10.64,-2.61,-1.06,-2.71,-2.42,-0.3
15.31448698043823,2,3,3,2,-11.66,-4.8,-1.72,-4.13,-1.44,-0.93
15.32448697090149,2,3,3,2,-11.48,-5.16,-1.62,-4.65,-1.04,-1.8
15.33448696136475,2,3,3,2,-10.44,-4.91,-1.05,-4.42,-1.33,-2.97
15.344486951828,2,3,3,2,-9.130000000000001,-3.67,-0.15,-3.27,-1.21,-3.89
15.35448694229126,2,3,3,2,-8.49,-3.32,0.44,-1.73,-0.1,-4.39
15.36448693275452,2,3,3,2,-8.109999999999999,-3.29,0.71,-0.48,1.28,-4.54
15.37448692321777,2,3,3,2,-8.109999999999999,-3.29,0.71,0.23,2.75,-4.09
15.38448691368103,2,3,3,2,-8.039999999999999,-3.16,0.5600000000000001,0.48,3.66,-3.45
15.39448690414429,2,3,3,2,-8.720000000000001,-3.37,-0.25,0.87,4.17,-2.67
15.40448689460754,2,3,3,2,-8.789999999999999,-3.54,-0.41,1.84,4.48,-1.95
15.4144868850708,2,3,3,2,-8.710000000000001,-3.64,-0.61,3.21,4.36,-1.24
15.42448687553406,2,3,3,2,-8.52,-3.16,-0.7,4.81,4.59,-0.55
15.43448686599731,2,3,3,2,-8.380000000000001,-2.9,-0.7,6.61,4.79,-0.28
15.44448709487915,2,3,3,2,-8.34,-2.54,-0.62,8.289999999999999,5.04,-0.42
15.49448704719543,2,3,3,2,-8.34,-0.98,-0.46,9.48,5.18,-2.84
15.50448703765869,2,3,3,2,-8.49,-1.03,-0.32,8.699999999999999,4.56,-2.81
15.51448702812195,2,3,3,2,-8.57,-0.95,-0.5,8.1,3.69,-2.48
15.52448701858521,2,3,3,1,-8.57,-0.95,-0.5,7.53,3.08,-2.13
15.53448700904846,2,3,3,1,-8.58,-0.77,-0.53,7.09,2.61,-2
15.54448699951172,2,3,3,1,-8.75,-0.44,-0.46,6.77,2.36,-2.16
15.55448698997498,2,3,3,1,-8.81,-0.39,-0.44,6.42,1.97,-2.44
15.56448698043823,2,3,3,1,-8.75,-0.4,-0.47,5.97,1.89,-2.9
15.57448697090149,2,3,3,1,-8.94,-0.23,-0.35,5.65,1.97,-3.46
15.5854868888855,2,3,3,1,-9.08,-0.23,-0.29,5.5,2.07,-3.9
15.59548687934875,2,3,3,1,-8.859999999999999,-0.34,-0.44,5.37,1.57,-4.35
15.60548686981201,2,3,3,1,-8.9,-0.44,-0.48,5.14,1.08,-4.6
15.61548709869385,2,3,3,1,-9,-0.55,-0.41,5.05,0.89,-4.38
15.6254870891571,2,3,3,0,-9.130000000000001,-0.54,-0.42,4.88,0.67,-4.02
15.63548707962036,2,3,3,0,-9.09,-0.58,-0.44,4.65,0.48,-3.46
15.64548707008362,2,3,3,0,-9.17,-0.78,-0.48,4.67,0.2,-2.66
15.65548706054688,2,3,3,0,-9.109999999999999,-1.04,-0.55,4.94,0.2,-1.99
15.66548705101013,2,3,3,0,-9.029999999999999,-1.05,-0.68,5.64,0.22,-1.6
15.67548704147339,2,3,3,0,-9.029999999999999,-1.05,-0.68,5.64,0.22,-1.6
15.68548703193665,2,3,3,0,-9.15,-0.92,-0.5600000000000001,8.02,0.89,-1.7
15.6954870223999,2,3,3,0,-9.210000000000001,0.05,-1.07,9.1,1.44,-1.93
15.70548701286316,2,3,3,0,-9.09,0.71,-1.05,9.69,1.82,-2.08
15.71548700332642,2,3,3,0,-9.06,1.42,-0.98,9.640000000000001,2.05,-2.02
15.72548699378967,2,3,3,0,-9.06,1.42,-0.98,8.91,2.45,-1.6
15.73548698425293,2,3,3,0,-9.51,2.07,-0.57,8.300000000000001,2.88,-0.96
15.74548697471619,2,3,3,0,-10.27,1.49,-0.46,8.43,4.19,-0.45
15.75548696517944,2,3,3,0,-11.03,1.04,-0.48,8.6,5.53,-0.15
15.7654869556427,2,3,3,0,-11.89,0.82,-0.92,8,6.75,0.11
15.77548694610596,2,3,3,0,-11.89,0.82,-0.92,6.57,7.58,0.34
15.78548693656921,2,3,3,0,-11.85,0.6,-0.9399999999999999,4.57,8.32,0.23
15.79548692703247,2,3,3,0,-11.4,-0.62,-0.77,2.03,9.09,-0.28
15.80548691749573,2,3,3,0,-10.92,-2.5,-1.13,-0.23,9.98,-0.65
15.81548690795898,2,3,3,0,-10.87,-3.72,-1.53,-2.38,10.34,-0.89
15.82548689842224,2,3,3,0,-10.87,-3.72,-1.53,-4.01,10.52,-0.67
15.8354868888855,2,3,3,0,-10.97,-5.06,-1.48,-4.01,10.52,-0.67
15.84548687934875,2,3,3,0,-10.84,-8.41,-1.79,-5.27,7.71,2.28
15.85548686981201,2,3,3,0,-10.68,-8.619999999999999,-1.6,-4.18,7.32,4.4
15.86548709869385,2,3,3,0,-10.25,-8.140000000000001,-0.91,-1.51,7.48,6.54
15.8754870891571,2,3,3,0,-10.25,-8.140000000000001,-0.91,-1.51,7.48,6.54
15.88548707962036,2,3,3,0,-9.91,-7.04,-0.27,1.53,7.74,8.369999999999999
15.89548707008362,2,3,3,0,-11.39,-3.39,1.47,4.66,7.11,10.04
15.90548706054688,2,3,3,0,-12.21,-2.83,1.49,4.2,6.23,9.82
15.91548705101013,2,3,3,0,-12.49,-2.31,1.38,2.54,4.55,9.34
15.92548704147339,2,3,3,0,-12.49,-2.31,1.38,2.54,4.55,9.34
15.93548703193665,2,3,3,0,-12.69,-1.55,0.01,-1.53,1.04,7.44
15.9454870223999,2,3,3,0,-12.83,-0.92,-0.8,-2.54,-0.9,5.83
15.95548701286316,2,3,3,0,-11.9,-0.86,-0.9,-3.06,-2.42,3.88
15.96548700332642,2,3,3,0,-11.09,-0.86,-0.83,-3.44,-3.87,2.05
15.97548699378967,2,3,3,0,-11.09,-0.86,-0.83,-4.03,-4.83,0.67
15.98548698425293,2,3,3,0,-9.789999999999999,-0.88,-0.68,-4.74,-5.16,-0.02
15.99548697471619,2,3,3,0,-8.07,-0.25,-0.06,-5.88,-5.48,0.27
16.00548696517944,2,3,3,0,-7.63,-0.12,0.25,-7.58,-6.9,1.49
16.0154869556427,2,3,3,0,-7.33,0.08,0.22,-9.42,-8.09,2.28
16.02548694610596,2,3,3,0,-7.33,0.08,0.22,-11.06,-7.85,2.49
16.03548693656921,2,3,3,0,-7.03,0.03,0.29,-12.18,-7.47,2.64
16.04548692703247,2,3,3,0,-7.42,-0.86,-0.02,-12.44,-7.78,2.78
16.05548691749573,2,3,3,0,-7.44,-1.09,-0.33,-12.48,-7.93,2.61
16.06548690795898,2,3,3,0,-7.53,-1.24,-0.4,-12.16,-7.2,2.15
16.07548689842224,2,3,3,0,-7.53,-1.24,-0.4,-12.16,-7.2,2.15
16.0854868888855,2,3,3,0,-7.61,-0.93,0.08,-9.960000000000001,-5.22,1.48
16.09548687934875,2,3,3,0,-7.62,-0.48,0.16,-8.94,-4.42,1.02
16.10548686981201,2,3,3,0,-7.79,-0.33,0.2,-8.07,-3.22,0.7
16.11548709869385,2,3,3,0,-7.98,-0.07000000000000001,0.35,-7.22,-2.01,0.27
16.1254870891571,2,3,3,1,-7.98,-0.07000000000000001,0.35,-7.22,-2.01,0.27
16.13548707962036,2,3,3,1,-8.16,0.02,0.4,-6.52,-0.79,-0.22
16.14548707008362,2,3,3,1,-8.41,0.13,0.52,-5.61,0.77,-1.46
16.15548706054688,2,3,3,1,-8.359999999999999,0.24,0.65,-5.27,1.19,-2.08
16.16548705101013,2,3,3,1,-8.369999999999999,0.31,0.79,-5.09,1.5,-2.62
16.17548704147339,2,3,3,1,-8.369999999999999,0.31,0.79,-5.09,1.5,-2.62
16.18548703193665,2,3,3,1,-8.43,0.31,1,-4.77,1.68,-3.09
16.1954870223999,2,3,3,1,-8.58,0.1,0.75,-4.53,1.7,-3.84
16.20548701286316,2,3,3,1,-8.779999999999999,0.12,0.75,-4.77,1.27,-3.93
16.21548700332642,2,3,3,1,-9.01,0.17,0.61,-5,0.63,-3.62
16.22548699378967,2,3,3,1,-9.01,0.17,0.61,-5,0.63,-3.62
16.23548698425293,2,3,3,1,-9.23,0.54,-0.04,-4.94,-0.11,-2.72
16.24548697471619,2,3,3,1,-9.449999999999999,0.08,-0.15,-5.13,-1.1,-0.78
16.25548696517944,2,3,3,1,-9.76,-0.29,-0.21,-6.01,-1.39,-0.16
16.2654869556427,2,3,3,1,-10.81,-1.07,0.29,-6.57,-1.34,0.39
16.27548694610596,2,3,3,1,-10.81,-1.07,0.29,-6.57,-1.34,0.39
16.3354868888855,2,3,3,2,-11.76,2.15,1.31,-3.7,-1.75,0.73
16.34548687934875,2,3,3,2,-13.67,0.55,1.11,-6.68,-6.27,0.72
16.35548686981201,2,3,3,2,-14.18,-0.52,-0.44,-8.56,-8.75,1.27
16.36548709869385,2,3,3,2,-14.99,-1.43,-0.91,-8.33,-10.04,1.87
16.3754870891571,2,3,3,2,-15.06,-2.61,-1.21,-8.33,-10.04,1.87
16.38548707962036,2,3,3,2,-13.7,-4.89,0,-6.11,-10.84,1.03
16.39548707008362,2,3,3,2,-12.91,-5.09,0.86,-0.41,-10.8,0.9
16.40648698806763,2,3,3,2,-10.86,-1.34,1.31,3.12,-9.57,1.7
16.41548705101013,2,3,3,2,-10.86,-1.34,1.31,6.54,-7.84,1.91
16.42548704147339,2,3,3,2,-8.550000000000001,0.92,2.84,6.54,-7.84,1.91
16.43548703193665,2,3,3,2,-8.27,0.79,3.03,6.49,-6.29,1.48
16.4454870223999,2,3,3,2,-8.5,0.14,2.44,1.08,-3.63,-0.07000000000000001
16.45548701286316,2,3,3,2,-8.98,-1.23,1.6,-1.74,-3.11,-0.83
16.46548700332642,2,3,3,2,-10.37,-3.31,-0.33,-3.86,-2.24,-1.28
16.47548699378967,2,3,3,2,-10.92,-4.11,-1.21,-3.86,-2.24,-1.28
16.48548698425293,2,3,3,2,-10.6,-4.62,-1.72,-4.76,-1.95,-2.02
16.49548697471619,2,3,3,2,-10.21,-4.85,-1.68,-4.61,-2.49,-4.1
16.50548696517944,2,3,3,2,-8.609999999999999,-4.68,-0.95,-3.51,-2.17,-4.6
16.5154869556427,2,3,3,2,-8.460000000000001,-4.24,-0.54,-2.02,-0.83,-4.98
16.52548694610596,2,3,3,2,-8.199999999999999,-4.17,-0.06,-2.02,-0.83,-4.98
16.53548693656921,2,3,3,2,-7.92,-3.96,0.46,-0.79,0.45,-4.87
16.54548692703247,2,3,3,2,-7.97,-3.84,0.43,0.73,2.08,-3.38
16.55548691749573,2,3,3,2,-8.039999999999999,-3.78,0.25,1.78,2.84,-2.34
16.56548690795898,2,3,3,2,-8.460000000000001,-3.83,-0.02,3.12,3.46,-1.21
16.57548689842224,2,3,3,2,-8.609999999999999,-3.7,-0.49,3.12,3.46,-1.21
16.5854868888855,2,3,3,2,-8.58,-3.57,-0.63,4.83,3.76,-0.14
16.59548687934875,2,3,3,2,-8.529999999999999,-3.24,-0.8100000000000001,8.539999999999999,4.42,1.13
16.60548686981201,2,3,3,2,-8.68,-2.88,-0.98,10.34,4.71,0.76
16.6164870262146,2,3,3,2,-8.76,-2.23,-0.89,11.72,5.09,0.09
16.62648701667786,2,3,3,2,-8.66,-1.88,-0.87,11.72,5.09,0.09
16.63648700714111,2,3,3,2,-8.59,-1.49,-0.76,12.76,5.49,-0.72
16.64648699760437,2,3,3,2,-8.5,-1.15,-0.54,13.13,5.42,-2.59
16.65648698806763,2,3,3,2,-8.449999999999999,-0.8,-0.42,12.53,4.96,-3.02
16.66648697853088,2,3,3,2,-8.42,-0.64,-0.53,11.54,4.44,-3.08
16.67648696899414,2,3,3,2,-8.529999999999999,-0.51,-0.5600000000000001,11.54,4.44,-3.08
16.6864869594574,2,3,3,2,-8.68,-0.37,-0.42,10.59,3.81,-2.9
16.69648694992065,2,3,3,2,-9.34,-0.28,-0.63,8.69,1.97,-2.28
16.70648694038391,2,3,3,2,-9.5,-0.19,-0.79,8.029999999999999,1.1,-2.29
16.71648693084717,2,3,3,2,-9.48,-0.16,-0.73,7.71,0.59,-2.58
16.72648692131042,2,3,3,2,-9.380000000000001,-0.27,-0.45,7.71,0.59,-2.58
16.73648691177368,2,3,3,2,-9.43,-0.1,-0.48,7.41,0.36,-3.1
16.74648690223694,2,3,3,2,-9.390000000000001,-0.07000000000000001,-0.49,6.31,0.44,-4.49
16.7564868927002,2,3,3,2,-9.34,-0.12,-0.55,5.56,0.55,-4.98
16.76648688316345,2,3,3,2,-9.06,-0.47,-0.35,4.96,0.57,-5.32
16.77648687362671,2,3,3,2,-8.84,-0.86,-0.13,4.96,0.57,-5.32
16.78648686408997,2,3,3,2,-8.949999999999999,-1.1,-0.06,4.45,0.52,-5.46
16.7964870929718,2,3,3,2,-9.119999999999999,-1.38,-0.18,3.96,0.25,-4.62
16.80648708343506,2,3,3,2,-9.279999999999999,-1.57,0.15,4.31,-0.72,-3.49
16.81648707389832,2,3,3,2,-9.06,-1.45,0.06,5.09,-2.03,-2.14
16.82648706436157,2,3,3,2,-9.01,-1.39,-0.62,5.09,-2.03,-2.14
16.83648705482483,2,3,3,2,-9.140000000000001,-1.16,-1.01,6.05,-2.37,-1.18
16.84648704528809,2,3,3,2,-9.109999999999999,-0.74,-0.62,9.02,-1.97,-0.68
16.85648703575134,2,3,3,2,-9.01,-0.44,-0.28,10.03,-1.81,-0.6899999999999999
16.8664870262146,2,3,3,2,-8.800000000000001,-0.3,0.19,10.81,-1.8,-0.73
16.87648701667786,2,3,3,2,-8.59,-0.24,0.07000000000000001,10.81,-1.8,-0.73
16.88648700714111,2,3,3,2,-8.75,0.35,-0.17,10.73,-1.32,-0.73
16.89648699760437,2,3,3,2,-8.800000000000001,0.61,-0.4,9.34,-0.91,-0.46
16.90648698806763,2,3,3,2,-8.800000000000001,0.62,-0.71,8.31,0.02,-0.17
16.91648697853088,2,3,3,2,-8.779999999999999,0.49,-0.85,7.71,1.68,0.21
16.92648696899414,2,3,3,2,-9.109999999999999,-0.07000000000000001,-0.41,7.71,1.68,0.21
16.9364869594574,2,3,3,2,-9.630000000000001,-0.62,-0.08,7.21,3.81,0.66
16.94648694992065,2,3,3,2,-10.2,-1.26,0.24,6.72,7.52,1.93
16.95648694038391,2,3,3,2,-10.82,-2.24,0.8,6.49,8.9,2.83
16.96648693084717,2,3,3,2,-10.67,-2.33,0.98,6.45,10.3,3.79
16.97648692131042,2,3,3,2,-10.69,-2.05,1.01,6.45,10.3,3.79
16.98648691177368,2,3,3,2,-10.88,-1.84,0.66,6.49,11.47,4.81
16.99648690223694,2,3,3,2,-12.72,-1.61,-0.22,4.65,13.04,6.42
17.0064868927002,2,3,3,2,-13.91,-2.09,-0.14,2.34,11.72,6.87
17.01648688316345,2,3,3,2,-14.69,-3.13,-0.14,-0.59,9.25,6.64
17.02648687362671,2,3,3,2,-14.84,-4.11,-0.53,-0.59,9.25,6.64
17.03648686408997,2,3,3,2,-13.62,-4.6,-0.09,-2.7,6.83,6
17.0464870929718,2,3,3,2,-12.97,-4.44,0.14,-1.51,4.67,4.15
17.05648708343506,2,3,3,2,-12.12,-4.57,0.17,0.14,3.84,2.86
17.06648707389832,2,3,3,2,-11.28,-4.49,0.57,1.39,2.78,2.06
17.07648706436157,2,3,3,2,-9.789999999999999,-3.94,1.68,1.39,2.78,2.06
17.08648705482483,2,3,3,2,-9.59,-3.65,1.79,1.65,1.41,1.73
17.09648704528809,2,3,3,2,-9.289999999999999,-3.09,1.65,-1.01,-1.53,1.68
17.10648703575134,2,3,3,2,-8.880000000000001,-2.66,1.27,-2.34,-2.4,1.94
17.1164870262146,2,3,3,2,-9.93,-2.31,0.28,-3.45,-3.45,2.22
17.12648701667786,2,3,3,2,-10.39,-2.24,0,-3.45,-3.45,2.22
17.13648700714111,2,3,3,2,-10.81,-2.39,0.4,-3.63,-4.13,2.33
17.14648699760437,2,3,3,2,-10.69,-2.45,0.49,-4.03,-5.34,1.15
17.15648698806763,2,3,3,2,-10.18,-2.19,0.17,-3.8,-5.36,0.38
17.16648697853088,2,3,3,2,-9.630000000000001,-2.21,0.68,-3.61,-5.42,-0.39
17.17648696899414,2,3,3,2,-9.42,-2.29,1.22,-3.61,-5.42,-0.39
17.1864869594574,2,3,3,2,-8.6,-1.88,0.32,-4.69,-6.09,-1.1
17.19648694992065,2,3,3,2,-8.279999999999999,-1.63,0.18,-5.89,-5.72,-0.8
17.20648694038391,2,3,3,2,-8.4,-1.51,0.59,-5.62,-4.88,-0.09
17.21648693084717,2,3,3,2,-8.550000000000001,-1.53,0.85,-5.87,-4.62,0.44
17.22648692131042,2,3,3,2,-8.970000000000001,-1.81,0.79,-5.87,-4.62,0.44
17.23648691177368,2,3,3,2,-9.34,-1.82,1.08,-5.83,-4.32,0.78
17.24648690223694,2,3,3,2,-9.33,-1.61,1.13,-6.55,-4.74,0.65
17.2564868927002,2,3,3,2,-9.130000000000001,-1.49,0.6899999999999999,-6.82,-4.03,0.25
17.26648688316345,2,3,3,2,-8.76,-1.54,0.75,-6.79,-3.26,-0.07000000000000001
17.27648687362671,2,3,3,2,-8.75,-1.49,0.74,-6.79,-3.26,-0.07000000000000001
17.28648686408997,2,3,3,2,-8.69,-1.52,0.83,-6.47,-2.33,-0.29
17.2964870929718,2,3,3,2,-8.66,-1.49,0.92,-6,-1.76,-0.99
17.30648708343506,2,3,3,2,-8.91,-1.65,0.72,-5.98,-1.68,-1.23
17.31648707389832,2,3,3,2,-8.869999999999999,-1.65,0.68,-6.01,-1.64,-1.46
17.32648706436157,2,3,3,2,-8.81,-1.78,0.75,-6.01,-1.64,-1.46
17.33648705482483,2,3,3,3,-8.82,-1.97,0.8,-5.78,-1.47,-1.54
17.34648704528809,2,3,3,3,-8.359999999999999,-2.47,0.97,-5.34,-0.61,-1.53
17.35648703575134,2,3,3,3,-8.17,-2.87,1.23,-5.33,-0.57,-1.56
17.3664870262146,2,3,3,3,-8.09,-3.12,0.97,-5.58,-0.55,-1.55
17.37648701667786,2,3,3,3,-8.220000000000001,-2.76,0.48,-5.58,-0.55,-1.55
17.38648700714111,2,3,3,3,-8.27,-2.78,0.53,-5.11,-0.19,-1.37
17.39648699760437,2,3,3,3,-8.17,-2.8,0.48,-3.84,0.41,-1.36
17.40648698806763,2,3,3,3,-8.119999999999999,-2.72,0.44,-3.13,1.26,-1.28
17.41648697853088,2,3,3,3,-8.15,-2.48,0.54,-2.59,2.04,-1.08
17.42648696899414,2,3,3,3,-8.17,-2.3,0.53,-2.59,2.04,-1.08
17.4364869594574,2,3,3,3,-8.33,-2.17,0.48,-2.04,3.01,-0.76
17.44648694992065,2,3,3,3,-8.5,-2.22,0.65,-1.58,4,-0.29
17.45648694038391,2,3,3,3,-9.16,-2.32,0.4,-1.26,4.35,0.12
17.46648693084717,2,3,3,3,-9.630000000000001,-2.35,0.39,-0.66,4.2,0.8
17.47648692131042,2,3,3,3,-9.98,-2.16,0.4,-0.66,4.2,0.8
17.48648691177368,2,3,3,3,-10.35,-2.08,0.62,-0.37,3.74,1.47
17.49648690223694,2,3,3,3,-10.51,-2.28,0.11,-0.23,1.31,1.26
17.5064868927002,2,3,3,3,-10.44,-2.09,-0.08,-0.04,0.45,0.61
17.51648688316345,2,3,3,3,-10.31,-1.98,-0.22,0.53,0.17,-0.05
17.52648687362671,2,3,3,3,-10.24,-2.06,-0.16,0.53,0.17,-0.05
17.53648686408997,2,3,3,3,-10.13,-2.23,-0.19,0.57,-0.17,-0.73
17.5464870929718,2,3,3,3,-10.48,-2.22,-0.23,-0.07000000000000001,-0.39,-1.52
17.55648708343506,2,3,3,3,-10.87,-2.14,-0.34,-0.74,-0.58,-1.48
17.56648707389832,2,3,3,3,-10.91,-2.09,-0.01,-1.57,-0.6,-1.48
17.57648706436157,2,3,3,3,-10.75,-2.06,-0.06,-1.57,-0.6,-1.48
17.58648705482483,2,3,3,2,-10.35,-2,-0.08,-2,-0.55,-1.61
17.59648704528809,2,3,3,2,-9.970000000000001,-1.93,-0.13,-1.62,-0.55,-2.11
17.60648703575134,2,3,3,2,-9.369999999999999,-1.77,-0.18,-1.06,-0.85,-2.35
17.6164870262146,2,3,3,2,-9.130000000000001,-1.65,-0.15,-0.31,-1.15,-2.43
17.62648701667786,2,3,3,2,-8.880000000000001,-1.57,-0.01,-0.31,-1.15,-2.43
17.63748693466187,2,3,3,2,-8.81,-1.48,0.08,0.17,-1.47,-2.25
17.64748692512512,2,3,3,2,-8.779999999999999,-1.64,0.1,0.39,-2.28,-1.21
17.65748691558838,2,3,3,2,-9.1,-1.68,0.19,-0.11,-2.37,-0.55
17.66748690605164,2,3,3,2,-9.460000000000001,-1.7,0.29,-0.74,-2.44,0.11
17.67748689651489,2,3,3,2,-9.74,-1.74,0.27,-0.74,-2.44,0.11
17.68748688697815,2,3,3,2,-9.93,-1.73,0.23,-1.63,-2.39,0.5600000000000001
17.69748687744141,2,3,3,2,-9.84,-1.82,0.06,-2.6,-1.88,0.44
17.70748686790466,2,3,3,2,-9.65,-1.8,-0.2,-2.48,-1.25,-0.02
17.7174870967865,2,3,3,2,-9.630000000000001,-1.84,-0.2,-2.19,-0.46,-0.54
17.72748708724976,2,3,3,2,-9.68,-1.95,-0.18,-2.19,-0.46,-0.54
17.73748707771301,2,3,3,2,-9.69,-1.97,-0.18,-1.92,0.08,-1
17.74748706817627,2,3,3,2,-9.74,-2.13,-0.16,-1.33,-0.08,-1.46
17.75748705863953,2,3,3,2,-9.73,-2.18,-0.45,-1.12,-0.33,-1.39
17.76748704910278,2,3,3,2,-9.66,-2.2,-0.41,-0.6,-0.22,-1.08
17.77748703956604,2,3,3,2,-9.640000000000001,-2.18,-0.3,-0.6,-0.22,-1.08
17.7874870300293,2,3,3,2,-9.68,-2.09,-0.14,-0.18,-0.23,-0.77
17.79748702049255,2,3,3,2,-9.529999999999999,-1.79,-0.02,0.37,-0.41,-0.29
17.80748701095581,2,3,3,2,-9.42,-1.73,-0.1,0.55,-0.35,-0.28
17.81748700141907,2,3,3,2,-9.369999999999999,-1.65,-0.06,0.71,-0.39,-0.45
17.82748699188232,2,3,3,2,-9.32,-1.62,0.02,0.71,-0.39,-0.45
17.83748698234558,2,3,3,2,-9.18,-1.77,-0.18,0.75,-0.52,-0.6899999999999999
17.84748697280884,2,3,3,2,-9.279999999999999,-1.96,-0.26,0.66,-0.07000000000000001,-1.06
17.85748696327209,2,3,3,2,-9.449999999999999,-2.17,-0.41,0.67,-0.06,-1.07
17.86748695373535,2,3,3,2,-9.57,-2.26,-0.44,0.89,-0.09,-0.91
17.87748694419861,2,3,3,2,-9.800000000000001,-2.19,-0.39,0.89,-0.09,-0.91
17.88748693466187,2,3,3,1,-9.82,-2.04,-0.33,1.15,-0.11,-0.75
17.89748692512512,2,3,3,1,-9.77,-1.92,-0.32,1.32,-0.13,-0.7
17.90748691558838,2,3,3,1,-9.68,-1.78,-0.36,1.42,0.02,-0.74
17.91748690605164,2,3,3,1,-9.529999999999999,-1.49,-0.18,1.29,0.16,-0.87
17.92748689651489,2,3,3,1,-9.300000000000001,-1.5,-0.09,1.09,0.26,-0.99
17.93748688697815,2,3,3,1,-9.24,-1.4,-0.03,0.95,0.36,-1.02
17.94748687744141,2,3,3,1,-9.06,-1.33,0.02,0.83,0.52,-1.13
17.95748686790466,2,3,3,1,-9.050000000000001,-1.35,-0.14,0.59,0.67,-1.23
17.9674870967865,2,3,3,1,-9.07,-1.38,-0.07000000000000001,0.39,0.86,-1.18
17.97748708724976,2,3,3,1,-9.279999999999999,-1.46,-0.1,0.25,0.9399999999999999,-1.07
17.98748707771301,2,3,3,1,-9.779999999999999,-1.57,-0.11,0.08,0.86,-0.82
17.99748706817627,2,3,3,1,-9.94,-1.6,-0.19,-0.09,0.62,-0.5600000000000001
18.00748705863953,2,3,3,1,-9.970000000000001,-1.66,-0.32,-0.17,0.51,-0.43
18.01748704910278,2,3,3,1,-10.02,-1.68,-0.26,-0.26,0.59,-0.47
18.02748703956604,2,3,3,1,-9.699999999999999,-1.93,-0.04,-0.44,0.7,-0.79
18.0374870300293,2,3,3,1,-9.83,-1.98,-0.01,-0.5,0.9399999999999999,-1.24
18.04748702049255,2,3,3,1,-9.84,-2.15,0.06,-0.46,1.33,-1.59
18.05748701095581,2,3,3,1,-9.789999999999999,-2.35,0.06,-0.36,1.5,-1.88
18.06748700141907,2,3,3,1,-9.6,-2.61,-0.26,-0.37,1.39,-2.05
18.07748699188232,2,3,3,1,-9.550000000000001,-2.69,-0.15,-0.31,1.35,-1.94
18.08748698234558,2,3,3,1,-9.58,-2.65,-0.08,-0.14,1.43,-1.56
18.09748697280884,2,3,3,1,-9.52,-2.47,-0.15,-0.01,1.23,-1.02
18.10748696327209,2,3,3,1,-9.640000000000001,-2.1,-0.21,0.11,1.08,-0.42
18.11748695373535,2,3,3,1,-9.73,-1.83,-0.21,0.07000000000000001,0.8100000000000001,0.23
18.12748694419861,2,3,3,1,-9.779999999999999,-1.58,-0.23,0.03,0.5600000000000001,0.77
18.13748693466187,2,3,3,2,-9.779999999999999,-1.43,-0.04,-0.17,0.32,1.21
18.14748692512512,2,3,3,2,-9.640000000000001,-1.2,-0.02,-0.65,0.15,1.37
18.15748691558838,2,3,3,2,-9.6,-1.23,0.05,-1.19,0.14,1.45
18.16748690605164,2,3,3,2,-9.59,-1.27,0.1,-1.66,0.11,1.31
18.17748689651489,2,3,3,2,-9.56,-1.38,0.06,-2.11,-0.03,1.09
18.18748688697815,2,3,3,2,-9.609999999999999,-1.49,0.06,-2.27,-0.13,0.84
18.19748687744141,2,3,3,2,-9.609999999999999,-1.45,-0.04,-2.14,-0.23,0.52
18.20748686790466,2,3,3,2,-9.609999999999999,-1.5,-0.09,-1.99,-0.25,0.26
18.2174870967865,2,3,3,2,-9.630000000000001,-1.71,0,-1.68,-0.16,0.13
18.22748708724976,2,3,3,2,-9.66,-1.83,0,-1.47,-0.16,-0.02
18.23748707771301,2,3,3,2,-9.640000000000001,-1.98,0.03,-1.22,-0.04,-0.13
18.24748706817627,2,3,3,2,-9.51,-2.1,0.02,-0.93,-0.08,-0.27
18.25748705863953,2,3,3,2,-9.34,-2.22,-0.07000000000000001,-0.5,0.09,-0.27
18.26748704910278,2,3,3,2,-9.369999999999999,-2.22,0,-0.02,0.22,-0.22
18.27748703956604,2,3,3,2,-9.41,-2.2,0,0.38,0.31,-0.14
18.2874870300293,2,3,3,2,-9.51,-2.13,0.04,0.85,0.44,0.01
18.29748702049255,2,3,3,2,-9.630000000000001,-1.98,0.21,1.21,0.62,0.14
18.30748701095581,2,3,3,2,-9.68,-1.88,0.08,1.35,0.6899999999999999,0.22
18.31748700141907,2,3,3,2,-9.76,-1.78,0.07000000000000001,1.36,0.66,0.26
18.32748699188232,2,3,3,2,-9.800000000000001,-1.73,0.06,1.4,0.74,0.3
18.33748698234558,2,3,3,2,-9.76,-1.59,0.04,1.4,0.75,0.28
18.34748697280884,2,3,3,2,-9.74,-1.54,0,1.36,0.8,0.25
18.35748696327209,2,3,3,2,-9.699999999999999,-1.47,-0.07000000000000001,1.27,0.78,0.18
18.36748695373535,2,3,3,2,-9.56,-1.43,0,1.14,0.6899999999999999,0.09
18.37748694419861,2,3,3,2,-9.49,-1.47,0.1,1,0.6899999999999999,0.02
18.38748693466187,2,3,3,2,-9.460000000000001,-1.45,0.07000000000000001,0.9,0.65,-0.02
18.39748692512512,2,3,3,2,-9.41,-1.47,0.12,0.87,0.64,0.01
18.40748691558838,2,3,3,2,-9.529999999999999,-1.44,-0.01,0.67,0.63,0.11
18.41748690605164,2,3,3,2,-9.58,-1.45,0,0.57,0.54,0.31
18.42748689651489,2,3,3,2,-9.630000000000001,-1.47,-0.02,0.42,0.39,0.43
18.43748688697815,2,3,3,2,-9.699999999999999,-1.47,-0.05,0.27,0.33,0.48
18.44748687744141,2,3,3,2,-9.74,-1.56,0,0.27,0.28,0.48
18.45748686790466,2,3,3,2,-9.65,-1.54,-0.08,0.25,0.25,0.41
18.4674870967865,2,3,3,2,-9.58,-1.46,-0.04,0.14,0.22,0.28
18.47748708724976,2,3,3,2,-9.5,-1.42,-0.05,0.08,0.24,0.12
18.48748707771301,2,3,3,2,-9.550000000000001,-1.57,0.02,0.17,0.31,0.05
18.49748706817627,2,3,3,2,-9.66,-1.65,-0.1,0.16,0.29,-0.01
18.50748705863953,2,3,3,2,-9.74,-1.76,-0.1,0.09,0.13,-0.01
18.51748704910278,2,3,3,2,-9.67,-1.81,-0.07000000000000001,0.22,-0.07000000000000001,-0.07000000000000001
18.52748703956604,2,3,3,2,-9.4,-1.65,-0.02,0.31,-0.24,-0.09
18.5374870300293,2,3,3,2,-9.33,-1.61,0.01,0.5,-0.22,-0.1
18.54748702049255,2,3,3,2,-9.390000000000001,-1.58,-0.01,0.54,-0.02,-0.06
18.55748701095581,2,3,3,2,-9.57,-1.59,-0.25,0.59,0.1,0.04
18.56748700141907,2,3,3,2,-9.859999999999999,-1.6,-0.05,0.65,0.07000000000000001,0.19
18.57748699188232,2,3,3,2,-9.880000000000001,-1.6,0.02,0.64,-0.04,0.31
18.58748698234558,2,3,3,2,-9.77,-1.53,0,0.5,-0.14,0.41
18.59748697280884,2,3,3,2,-9.609999999999999,-1.31,-0.06,0.3,-0.12,0.37
18.60748696327209,2,3,3,2,-9.58,-1.29,-0.03,0.2,0.05,0.31
18.61748695373535,2,3,3,2,-9.57,-1.31,0.01,0.22,0.17,0.24
18.62748694419861,2,3,3,2,-9.640000000000001,-1.31,0.04,0.16,0.17,0.16
18.63748693466187,2,3,3,2,-9.699999999999999,-1.33,-0.05,0.07000000000000001,0.06,0.01
18.64748692512512,2,3,3,2,-9.699999999999999,-1.33,-0.1,-0.04,-0.14,-0.08
18.65848708152771,2,3,3,2,-9.66,-1.35,-0.2,0.03,-0.28,-0.12
18.66848707199097,2,3,3,2,-9.69,-1.37,-0.18,-0.08,-0.29,-0.11
18.67848706245422,2,3,3,2,-9.630000000000001,-1.36,-0.01,-0.13,-0.26,-0.05
18.68848705291748,2,3,3,2,-9.609999999999999,-1.42,0.03,-0.16,-0.22,-0.06
18.69848704338074,2,3,3,2,-9.58,-1.38,-0.02,-0.21,-0.16,-0.09
18.70848703384399,2,3,3,2,-9.56,-1.45,-0.13,-0.25,-0.15,-0.19
18.71848702430725,2,3,3,2,-9.609999999999999,-1.7,-0.1,-0.26,-0.08,-0.28
18.72848701477051,2,3,3,2,-9.550000000000001,-1.73,-0.03,-0.34,-0.05,-0.33
18.73848700523376,2,3,3,2,-9.51,-1.83,0,-0.25,-0.04,-0.41
18.74848699569702,2,3,3,2,-9.529999999999999,-1.88,-0.02,-0.15,0.01,-0.43
18.75848698616028,2,3,3,2,-9.6,-1.85,-0.17,-0.1,0.07000000000000001,-0.39
18.76848697662354,2,3,3,2,-9.609999999999999,-1.85,-0.22,-0.01,0.07000000000000001,-0.29
18.77848696708679,2,3,3,2,-9.619999999999999,-1.75,-0.15,0.04,0.03,-0.23
18.78848695755005,2,3,3,2,-9.65,-1.73,0.01,0.09,0.07000000000000001,-0.11
18.79848694801331,2,3,3,2,-9.66,-1.75,-0.01,0.09,0.02,0.02
18.80848693847656,2,3,3,2,-9.630000000000001,-1.73,-0.16,-0.07000000000000001,-0.09,0.09
18.81848692893982,2,3,3,2,-9.58,-1.66,-0.06,-0.18,-0.12,0.16
18.82848691940308,2,3,3,2,-9.529999999999999,-1.58,0.04,-0.16,-0.11,0.25
18.83848690986633,2,3,3,2,-9.57,-1.56,0.02,-0.19,-0.1,0.31
18.84848690032959,2,3,3,2,-9.6,-1.59,-0.04,-0.09,-0.18,0.31
18.85848689079285,2,3,3,2,-9.65,-1.56,-0.18,-0.04,-0.18,0.29
18.8684868812561,2,3,3,2,-9.630000000000001,-1.55,-0.04,-0.01,-0.13,0.21
18.87848687171936,2,3,3,2,-9.67,-1.54,-0.03,0.06,-0.08,0.12
18.88848686218262,2,3,3,2,-9.619999999999999,-1.51,-0.01,-0.05,-0.04,-0.01
18.89848709106445,2,3,3,2,-9.59,-1.56,0,-0.16,0,-0.15
18.90848708152771,2,3,3,2,-9.59,-1.62,-0.11,-0.32,0.01,-0.23
18.91848707199097,2,3,3,2,-9.58,-1.69,0,-0.35,0.07000000000000001,-0.25
18.92848706245422,2,3,3,2,-9.58,-1.76,0,-0.33,0.02,-0.28
18.93848705291748,2,3,3,2,-9.52,-1.77,-0.01,-0.36,-0.01,-0.23
18.94848704338074,2,3,3,2,-9.59,-1.85,0.05,-0.24,0.02,-0.18
18.95848703384399,2,3,3,2,-9.609999999999999,-1.85,-0.12,-0.2,-0.17,-0.11
18.96848702430725,2,3,3,2,-9.609999999999999,-1.82,-0.14,-0.06,-0.28,-0.08
18.97848701477051,2,3,3,2,-9.630000000000001,-1.74,0,0.14,-0.2,-0.04
18.98848700523376,2,3,3,3,-9.59,-1.67,0.08,0.21,-0.16,0.04
18.99848699569702,2,3,3,3,-9.59,-1.66,0.04,0.21,-0.11,0.08
19.00848698616028,2,3,3,3,-9.57,-1.68,-0.05,0.16,-0.08,0.15
19.01848697662354,2,3,3,3,-9.59,-1.61,-0.02,0.23,-0.08,0.2
19.02848696708679,2,3,3,3,-9.609999999999999,-1.58,0,0.25,-0.11,0.26
19.03848695755005,2,3,3,3,-9.66,-1.54,0.06,0.22,-0.12,0.28
