timestamp,magCalib,accCalib,gyrCalib,sysCalib,accX,accY,accZ,gyrX,gyrY,gyrZ
0.005792975425720215,2,3,3,3,-9.65,1.01,1.52,-0.09,0.11,-0.21
0.01579296588897705,2,3,3,3,-9.69,1.01,1.6,-0.16,0.07000000000000001,-0.19
0.02579295635223389,2,3,3,3,-9.69,1.02,1.59,-0.12,0.01,-0.17
0.03579294681549072,2,3,3,3,-9.720000000000001,1.01,1.61,-0.12,-0.06,-0.18
0.04579293727874756,2,3,3,3,-9.75,0.99,1.63,-0.18,-0.08,-0.22
0.05579292774200439,2,3,3,3,-9.68,1,1.53,-0.22,-0.13,-0.18
0.06579291820526123,2,3,3,3,-9.65,1.02,1.57,-0.19,-0.13,-0.18
0.1257928609848022,2,3,3,3,-9.640000000000001,1.05,1.6,-0.22,0.07000000000000001,0.07000000000000001
0.1357928514480591,2,3,3,3,-9.720000000000001,1.08,1.61,-0.21,0.11,0.08
0.145793080329895,2,3,3,3,-9.710000000000001,1.08,1.58,-0.25,0.07000000000000001,0.11
0.1557930707931519,2,3,3,3,-9.68,1.07,1.5,-0.39,-0.01,0.12
0.1657930612564087,2,3,3,3,-9.66,1.09,1.55,-0.54,-0.05,0.15
0.1757930517196655,2,3,3,3,-9.640000000000001,1.07,1.64,-0.67,-0.08,0.14
0.1857930421829224,2,3,3,3,-9.619999999999999,1.06,1.71,-0.65,-0.14,0.15
0.1957930326461792,2,3,3,3,-9.640000000000001,1.08,1.68,-0.63,-0.17,0.11
0.205793023109436,2,3,3,3,-9.65,1.05,1.56,-0.55,-0.15,0.03
0.2157930135726929,2,3,3,3,-9.69,1.01,1.64,-0.55,-0.1,-0.06
0.2257930040359497,2,3,3,3,-9.68,1,1.66,-0.7,-0.08,-0.13
0.2357929944992065,2,3,3,3,-9.68,1,1.66,-0.82,-0.16,-0.18
0.2457929849624634,2,3,3,3,-9.65,0.97,1.71,-0.82,-0.19,-0.21
0.2557929754257202,2,3,3,3,-9.65,0.93,1.67,-0.77,-0.24,-0.17
0.2657929658889771,2,3,3,3,-9.65,0.92,1.71,-0.72,-0.26,-0.13
0.2757929563522339,2,3,3,3,-9.66,0.91,1.74,-0.61,-0.29,-0.09
0.2857929468154907,2,3,3,3,-9.67,0.95,1.75,-0.5,-0.26,-0.07000000000000001
0.2957929372787476,2,3,3,3,-9.67,0.95,1.75,-0.45,-0.26,-0.01
0.3057929277420044,2,3,3,3,-9.68,1.03,1.64,-0.38,-0.27,0
0.3157929182052612,2,3,3,3,-9.67,1.08,1.63,-0.33,-0.3,-0.01
0.3257929086685181,2,3,3,3,-9.710000000000001,1.08,1.67,-0.34,-0.29,0.01
0.3657928705215454,2,3,3,3,-9.6,1.05,1.75,-0.63,-0.08,0.16
0.4857929944992065,2,3,3,3,-9.68,0.98,1.72,-0.49,0.12,0.07000000000000001
0.5457929372787476,2,3,3,3,-9.65,0.95,1.76,-0.46,-0.09,-0.06
0.5767930746078491,2,3,3,3,-9.609999999999999,0.93,1.7,-0.58,0.04,0
0.6067930459976196,2,3,3,3,-9.68,0.93,1.71,-0.5600000000000001,0.01,0.06
0.6167930364608765,2,3,3,3,-9.67,0.9399999999999999,1.65,-0.52,-0.01,0.03
0.6267930269241333,2,3,3,3,-9.67,0.93,1.69,-0.54,-0.06,-0.01
0.6367930173873901,2,3,3,3,-9.69,0.93,1.72,-0.54,-0.06,-0.01
0.646793007850647,2,3,3,3,-9.66,0.93,1.79,-0.54,-0.09,0
0.6567929983139038,2,3,3,3,-9.68,0.91,1.77,-0.42,-0.13,-0.02
0.6667929887771606,2,3,3,3,-9.66,0.93,1.67,-0.37,-0.11,0.01
0.6767929792404175,2,3,3,3,-9.699999999999999,0.92,1.76,-0.35,-0.06,-0.02
0.6867929697036743,2,3,3,3,-9.68,0.95,1.77,-0.35,-0.06,-0.02
0.6967929601669312,2,3,3,3,-9.65,0.93,1.77,-0.32,-0.02,0.01
0.706792950630188,2,3,3,3,-9.6,0.96,1.74,-0.28,0,0
0.7167929410934448,2,3,3,3,-9.66,0.96,1.72,-0.29,0,-0.01
0.7267929315567017,2,3,3,3,-9.69,0.96,1.76,-0.26,-0.09,-0.02
0.7367929220199585,2,3,3,3,-9.66,0.98,1.77,-0.26,-0.09,-0.02
0.7467929124832153,2,3,3,3,-9.65,0.97,1.77,-0.2,-0.12,-0.01
0.7567929029464722,2,3,3,3,-9.630000000000001,0.98,1.73,-0.22,-0.05,0.04
0.766792893409729,2,3,3,3,-9.66,1.01,1.69,-0.27,-0.01,0.06
0.7767928838729858,2,3,3,3,-9.66,1.01,1.74,-0.24,-0.07000000000000001,0.08
0.7867928743362427,2,3,3,3,-9.66,1.02,1.77,-0.24,-0.07000000000000001,0.08
0.7967928647994995,2,3,3,3,-9.66,1.04,1.77,-0.16,-0.04,0.01
0.8067928552627563,2,3,3,3,-9.68,1.05,1.79,-0.23,-0.03,0.02
0.8167930841445923,2,3,3,3,-9.65,1,1.68,-0.25,-0.07000000000000001,-0.02
0.8267930746078491,2,3,3,3,-9.65,0.98,1.71,-0.35,-0.06,0.03
0.836793065071106,2,3,3,3,-9.630000000000001,0.98,1.75,-0.35,-0.06,0.03
0.8467930555343628,2,3,3,3,-9.640000000000001,1.01,1.8,-0.42,-0.07000000000000001,-0.02
0.8567930459976196,2,3,3,3,-9.609999999999999,0.99,1.85,-0.31,-0.15,-0.06
0.8667930364608765,2,3,3,3,-9.640000000000001,1.02,1.74,-0.22,-0.1,-0.06
0.8767930269241333,2,3,3,3,-9.630000000000001,1.02,1.73,-0.22,-0.1,-0.06
0.8867930173873901,2,3,3,3,-9.67,1.01,1.81,-0.12,-0.07000000000000001,-0.05
0.896793007850647,2,3,3,3,-9.69,1.04,1.78,-0.16,-0.02,-0.03
0.9067929983139038,2,3,3,3,-9.67,1,1.75,-0.21,-0.02,0.01
0.9167929887771606,2,3,3,3,-9.66,0.99,1.7,-0.2,0,0.02
0.9267929792404175,2,3,3,3,-9.67,0.97,1.72,-0.16,-0.01,0.01
0.9367929697036743,2,3,3,3,-9.67,1,1.79,-0.21,-0.04,0.02
0.9467929601669312,2,3,3,3,-9.65,1,1.82,-0.18,-0.06,0
0.9667929410934448,2,3,3,3,-9.630000000000001,1.01,1.7,-0.14,-0.12,0.02
0.9767929315567017,2,3,3,3,-9.619999999999999,0.97,1.75,-0.11,-0.11,0.04
0.9867929220199585,2,3,3,3,-9.619999999999999,0.99,1.8,-0.07000000000000001,-0.04,0.04
0.9967929124832153,2,3,3,3,-9.619999999999999,0.99,1.79,-0.02,0,0.03
1.006792902946472,2,3,3,3,-9.65,1.03,1.78,0.03,0.04,0.05
1.016792893409729,2,3,3,3,-9.65,1.01,1.68,0.06,0.04,0.03
1.056792855262756,2,3,3,3,-9.6,1.04,1.74,-0.07000000000000001,-0.05,-0.01
1.066793084144592,2,3,3,3,-9.609999999999999,0.99,1.71,-0.09,-0.05,0
1.076793074607849,2,3,3,3,-9.609999999999999,1,1.74,-0.08,-0.01,0.02
1.086793065071106,2,3,3,3,-9.630000000000001,0.99,1.75,-0.04,-0.01,0.01
1.096793055534363,2,3,3,3,-9.65,0.97,1.78,-0.06,0.06,-0.02
1.10679304599762,2,3,3,3,-9.640000000000001,0.95,1.75,-0.04,0.05,-0.06
1.116793036460876,2,3,3,3,-9.65,0.96,1.71,-0.07000000000000001,0.03,-0.05
1.126793026924133,2,3,3,3,-9.67,0.98,1.77,-0.01,-0.01,-0.01
1.13679301738739,2,3,3,3,-9.66,0.99,1.77,0.08,-0.06,0.03
1.146793007850647,2,3,3,3,-9.65,0.98,1.75,0.18,-0.04,0.06
1.156792998313904,2,3,3,3,-9.65,1.02,1.74,0.25,0.01,0.09
1.166792988777161,2,3,3,3,-9.66,1.03,1.63,0.25,0.08,0.11
1.176792979240417,2,3,3,3,-9.67,1.04,1.72,0.23,0.1,0.11
1.186792969703674,2,3,3,3,-9.66,1.08,1.74,0.2,0.07000000000000001,0.07000000000000001
1.196792960166931,2,3,3,3,-9.609999999999999,1.08,1.72,0.14,0.05,0.04
1.206792950630188,2,3,3,3,-9.6,1.06,1.74,0.01,0.06,0.01
1.236792922019958,2,3,3,3,-9.619999999999999,0.98,1.81,-0.18,-0.01,-0.03
1.246792912483215,2,3,3,3,-9.619999999999999,0.97,1.85,-0.04,0.01,-0.04
1.256792902946472,2,3,3,3,-9.640000000000001,0.95,1.82,0.12,0.08,-0.04
1.266792893409729,2,3,3,3,-9.66,0.96,1.69,0.26,0.13,-0.02
1.276792883872986,2,3,3,3,-9.699999999999999,0.96,1.71,0.28,0.13,0.03
1.286792874336243,2,3,3,3,-9.699999999999999,1,1.73,0.25,0.12,0.05
1.2967928647995,2,3,3,3,-9.68,0.99,1.75,0.18,0.06,0.12
1.306792855262756,2,3,3,3,-9.65,0.99,1.79,0.12,0.03,0.14
1.316793084144592,2,3,3,3,-9.68,1,1.71,0.1,0.04,0.17
1.326793074607849,2,3,3,3,-9.640000000000001,1.06,1.75,0.06,0.01,0.18
1.336793065071106,2,3,3,3,-9.619999999999999,1.05,1.78,0.14,0.01,0.12
1.346793055534363,2,3,3,3,-9.619999999999999,1.04,1.81,0.22,0.04,0.08
1.35679304599762,2,3,3,3,-9.640000000000001,1.01,1.8,0.22,0.03,0.05
1.366793036460876,2,3,3,3,-9.619999999999999,1.02,1.69,0.21,0.06,0.03
1.376793026924133,2,3,3,3,-9.640000000000001,1.03,1.73,0.2,0.06,0.06
1.38679301738739,2,3,3,3,-9.640000000000001,1.04,1.77,0.19,0.03,0.14
1.396793007850647,2,3,3,3,-9.66,1.06,1.77,0.18,0.06,0.14
1.406792998313904,2,3,3,3,-9.65,1.11,1.7,0.2,0.07000000000000001,0.12
1.416792988777161,2,3,3,3,-9.640000000000001,1.1,1.63,0.21,0.09,0.11
1.426792979240417,2,3,3,3,-9.65,1.11,1.68,0.17,0.11,0.08
1.436792969703674,2,3,3,3,-9.67,1.1,1.72,0.08,0.1,0.07000000000000001
1.446792960166931,2,3,3,3,-9.640000000000001,1.1,1.76,0.04,0.07000000000000001,0.05
1.456792950630188,2,3,3,3,-9.640000000000001,1.1,1.75,-0.04,0.04,0.08
1.466792941093445,2,3,3,3,-9.640000000000001,1.08,1.69,-0.1,0.02,0.07000000000000001
1.476792931556702,2,3,3,3,-9.609999999999999,1.09,1.71,-0.12,-0.01,0.03
1.486792922019958,2,3,3,3,-9.58,1.08,1.76,-0.11,-0.09,0.01
1.496792912483215,2,3,3,3,-9.58,1.07,1.76,-0.06,-0.02,-0.02
1.506792902946472,2,3,3,3,-9.619999999999999,1.08,1.76,-0.09,0.06,-0.06
1.516792893409729,2,3,3,3,-9.69,1.04,1.7,-0.1,0.1,-0.06
1.526792883872986,2,3,3,3,-9.68,1.05,1.73,-0.11,0.1,-0.01
1.536792874336243,2,3,3,3,-9.67,1.03,1.76,-0.12,0.13,0
1.5467928647995,2,3,3,3,-9.67,1.02,1.76,-0.11,0.1,0.01
1.556792855262756,2,3,3,3,-9.67,1,1.72,-0.06,0.09,0.04
1.566793084144592,2,3,3,3,-9.67,0.99,1.68,-0.06,0.05,0.08
1.576793074607849,2,3,3,3,-9.66,1,1.75,-0.1,-0.02,0.12
1.586793065071106,2,3,3,3,-9.65,1,1.78,-0.12,-0.01,0.12
1.597792983055115,2,3,3,3,-9.640000000000001,0.97,1.79,-0.06,0.03,0.14
1.657792925834656,2,3,3,2,-9.619999999999999,1.02,1.76,0.01,0.03,0.18
1.667792916297913,2,3,3,2,-9.65,1.02,1.69,-0.01,0.04,0.16
1.677792906761169,2,3,3,2,-9.640000000000001,1.02,1.73,0.02,0.05,0.19
1.687792897224426,2,3,3,2,-9.640000000000001,1.04,1.75,0.04,0.08,0.14
1.697792887687683,2,3,3,2,-9.65,1.06,1.74,0.08,0.1,0.14
1.70779287815094,2,3,3,2,-9.640000000000001,1.08,1.68,0.11,0.06,0.13
1.717792868614197,2,3,3,2,-9.65,1.08,1.63,0.19,0.05,0.08
1.727792859077454,2,3,3,2,-9.67,1.06,1.68,0.19,0.02,0.07000000000000001
1.73779284954071,2,3,3,2,-9.69,1.08,1.72,0.11,-0.03,0.07000000000000001
1.747793078422546,2,3,3,2,-9.630000000000001,1.07,1.76,0.01,-0.06,0.07000000000000001
1.757793068885803,2,3,3,2,-9.6,1.05,1.74,-0.08,-0.03,0.07000000000000001
1.76779305934906,2,3,3,2,-9.59,1.09,1.64,-0.05,-0.03,0.1
1.777793049812317,2,3,3,2,-9.59,1.11,1.71,-0.05,-0.01,0.1
1.787793040275574,2,3,3,2,-9.609999999999999,1.14,1.74,0.01,-0.01,0.07000000000000001
1.797793030738831,2,3,3,2,-9.66,1.14,1.72,0.07000000000000001,-0.01,0.04
1.807793021202087,2,3,3,2,-9.68,1.14,1.74,0.03,0.05,0.05
1.817793011665344,2,3,3,2,-9.66,1.16,1.61,-0.02,0.05,0.04
1.827793002128601,2,3,3,2,-9.640000000000001,1.16,1.69,-0.12,0.03,0.1
1.837792992591858,2,3,3,2,-9.630000000000001,1.16,1.74,-0.23,0,0.09
1.847792983055115,2,3,3,2,-9.640000000000001,1.16,1.74,-0.3,0,0.12
1.857792973518372,2,3,3,2,-9.630000000000001,1.13,1.72,-0.36,0.01,0.1
1.867792963981628,2,3,3,2,-9.619999999999999,1.1,1.69,-0.39,0.04,0.08
1.877792954444885,2,3,3,2,-9.609999999999999,1.11,1.72,-0.38,0.02,0.03
1.887792944908142,2,3,3,2,-9.630000000000001,1.08,1.75,-0.32,0.03,0.03
1.897792935371399,2,3,3,2,-9.67,1.06,1.77,-0.24,0.03,-0.01
1.907792925834656,2,3,3,2,-9.66,1.02,1.74,-0.16,0.05,-0.02
1.917792916297913,2,3,3,2,-9.68,1.03,1.66,-0.18,0.07000000000000001,0.03
1.927792906761169,2,3,3,2,-9.65,1.02,1.67,-0.2,0.12,0.06
1.937792897224426,2,3,3,2,-9.67,1.06,1.76,-0.21,0.16,0.1
1.947792887687683,2,3,3,2,-9.66,1.09,1.79,-0.26,0.17,0.13
1.95779287815094,2,3,3,2,-9.67,1.1,1.74,-0.23,0.13,0.14
1.967792868614197,2,3,3,2,-9.65,1.08,1.63,-0.15,0.04,0.13
1.977792859077454,2,3,3,2,-9.67,1.07,1.74,-0.15,0,0.1
1.98779284954071,2,3,3,2,-9.65,1.04,1.77,-0.16,-0.08,0.06
1.997793078422546,2,3,3,2,-9.609999999999999,1.03,1.78,-0.12,-0.08,0.06
2.007793068885803,2,3,3,2,-9.59,1.06,1.8,-0.06,-0.07000000000000001,0.07000000000000001
2.01779305934906,2,3,3,2,-9.59,1.08,1.68,-0.01,-0.01,0.08
2.027793049812317,2,3,3,2,-9.609999999999999,1.08,1.69,0.04,-0.01,0.07000000000000001
2.037793040275574,2,3,3,2,-9.65,1.11,1.7,0.13,0.03,0.05
2.047793030738831,2,3,3,2,-9.68,1.15,1.68,0.2,0.02,0.01
2.057793021202087,2,3,3,2,-9.67,1.13,1.68,0.13,0.03,-0.06
2.067793011665344,2,3,3,2,-9.67,1.13,1.65,0.07000000000000001,0.04,-0.09
2.077793002128601,2,3,3,2,-9.65,1.15,1.7,0.02,-0.05,-0.1
2.087792992591858,2,3,3,2,-9.609999999999999,1.14,1.76,0.02,-0.14,-0.13
2.097792983055115,2,3,3,2,-9.630000000000001,1.13,1.78,0.08,-0.13,-0.17
2.107792973518372,2,3,3,2,-9.65,1.1,1.75,0.09,-0.09,-0.17
2.117792963981628,2,3,3,2,-9.619999999999999,1.1,1.68,0.07000000000000001,-0.05,-0.15
2.127792954444885,2,3,3,2,-9.630000000000001,1.08,1.76,0.03,-0.04,-0.12
2.137792944908142,2,3,3,2,-9.65,1.06,1.79,0.02,0.04,-0.12
2.147792935371399,2,3,3,3,-9.640000000000001,1.06,1.82,0.02,0.03,-0.08
2.157792925834656,2,3,3,3,-9.640000000000001,1.03,1.8,0.13,0.03,-0.05
2.167792916297913,2,3,3,3,-9.67,1.08,1.7,0.25,0.03,0.01
2.177792906761169,2,3,3,3,-9.69,1.09,1.72,0.31,0.09,0.05
2.187792897224426,2,3,3,3,-9.710000000000001,1.12,1.74,0.3,0.07000000000000001,0.08
2.197792887687683,2,3,3,3,-9.69,1.11,1.71,0.21,0.06,0.11
2.20779287815094,2,3,3,3,-9.640000000000001,1.12,1.67,0.13,0.1,0.13
2.217792868614197,2,3,3,3,-9.630000000000001,1.11,1.66,0.05,0.04,0.13
2.227792859077454,2,3,3,3,-9.609999999999999,1.11,1.7,0.04,0.04,0.14
2.23779284954071,2,3,3,3,-9.6,1.12,1.78,0.02,0.02,0.11
2.247793078422546,2,3,3,3,-9.58,1.14,1.81,0.07000000000000001,-0.02,0.08
2.257793068885803,2,3,3,3,-9.609999999999999,1.1,1.76,0.1,0.04,0.04
2.26779305934906,2,3,3,3,-9.630000000000001,1.11,1.67,0.04,0.03,0.01
2.277793049812317,2,3,3,3,-9.630000000000001,1.11,1.7,0.01,0.05,0.01
2.287793040275574,2,3,3,3,-9.609999999999999,1.11,1.71,-0.04,0.05,0.02
2.297793030738831,2,3,3,3,-9.65,1.1,1.74,-0.1,0.08,0.01
2.307793021202087,2,3,3,3,-9.65,1.08,1.76,-0.13,0.05,-0.01
2.317793011665344,2,3,3,3,-9.68,1.04,1.7,-0.15,0.04,0.02
2.327793002128601,2,3,3,3,-9.65,1.04,1.74,-0.18,0.06,-0.01
2.337792992591858,2,3,3,3,-9.65,1.04,1.76,-0.12,0.01,-0.02
2.377792954444885,2,3,3,3,-9.609999999999999,1.08,1.69,0.04,0.01,0.07000000000000001
2.387792944908142,2,3,3,3,-9.640000000000001,1.1,1.72,0.01,0.01,0.08
2.397792935371399,2,3,3,3,-9.619999999999999,1.14,1.76,-0.03,0.03,0.07000000000000001
2.407792925834656,2,3,3,3,-9.619999999999999,1.13,1.72,-0.09,0.01,0.04
2.417792916297913,2,3,3,3,-9.640000000000001,1.11,1.7,-0.05,0.05,-0.01
2.427792906761169,2,3,3,3,-9.65,1.12,1.66,-0.06,0.06,-0.04
2.437792897224426,2,3,3,3,-9.68,1.11,1.76,-0.12,0.03,-0.04
2.447792887687683,2,3,3,3,-9.65,1.1,1.74,-0.13,0.06,-0.04
2.45779287815094,2,3,3,3,-9.640000000000001,1.11,1.78,-0.14,0.06,0
2.467792868614197,2,3,3,3,-9.65,1.08,1.69,-0.2,0.03,0.02
2.477792859077454,2,3,3,3,-9.630000000000001,1.08,1.74,-0.21,0.01,0.06
2.48779284954071,2,3,3,3,-9.619999999999999,1.07,1.76,-0.15,-0.02,0.06
2.497793078422546,2,3,3,3,-9.6,1.04,1.78,-0.09,-0.02,0.08
2.507793068885803,2,3,3,3,-9.630000000000001,1.07,1.74,-0.09,0.01,0.04
2.51779305934906,2,3,3,3,-9.67,1.08,1.69,-0.07000000000000001,0.04,-0.01
2.527793049812317,2,3,3,3,-9.66,1.09,1.71,-0.07000000000000001,0.04,0.03
2.537793040275574,2,3,3,3,-9.619999999999999,1.1,1.74,-0.04,0.02,0.03
2.547793030738831,2,3,3,3,-9.66,1.17,1.74,-0.02,0,0.02
2.557793021202087,2,3,3,3,-9.67,1.16,1.76,0.02,0.06,0.03
2.567793011665344,2,3,3,3,-9.67,1.15,1.66,-0.01,0.03,0.03
2.577793002128601,2,3,3,3,-9.65,1.13,1.69,-0.05,0,0.03
2.587792992591858,2,3,3,3,-9.640000000000001,1.12,1.79,-0.14,-0.02,0.03
2.597792983055115,2,3,3,3,-9.6,1.13,1.78,-0.18,-0.04,0.05
2.607792973518372,2,3,3,3,-9.58,1.13,1.78,-0.15,-0.03,0.05
2.617792963981628,2,3,3,3,-9.609999999999999,1.14,1.71,-0.07000000000000001,0,0.06
2.708793044090271,2,3,3,3,-9.66,1.1,1.81,-0.15,0.03,-0.01
2.718793034553528,2,3,3,3,-9.66,1.12,1.74,-0.16,-0.02,-0.03
2.728793025016785,2,3,3,3,-9.65,1.09,1.66,-0.08,-0.03,-0.01
2.738793015480042,2,3,3,3,-9.630000000000001,1.12,1.65,-0.04,0,0.02
2.748793005943298,2,3,3,3,-9.630000000000001,1.12,1.73,-0.01,0.02,0.05
2.758792996406555,2,3,3,3,-9.65,1.12,1.75,0,0.07000000000000001,0.03
2.768792986869812,2,3,3,3,-9.66,1.13,1.76,0.01,0.03,0.01
2.778792977333069,2,3,3,3,-9.65,1.15,1.68,-0.07000000000000001,0.07000000000000001,0.01
2.788792967796326,2,3,3,3,-9.630000000000001,1.16,1.72,-0.2,0.07000000000000001,0.02
2.798792958259583,2,3,3,3,-9.619999999999999,1.16,1.76,-0.2,0.07000000000000001,0.02
2.808792948722839,2,3,3,3,-9.609999999999999,1.13,1.75,-0.25,0.03,-0.01
2.818792939186096,2,3,3,3,-9.6,1.13,1.77,-0.23,-0.05,-0.06
2.828792929649353,2,3,3,3,-9.640000000000001,1.09,1.69,-0.22,-0.05,-0.07000000000000001
2.83879292011261,2,3,3,3,-9.66,1.08,1.74,-0.21,-0.03,-0.07000000000000001
2.858792901039124,2,3,3,3,-9.640000000000001,1.08,1.75,-0.11,0.02,0
2.86879289150238,2,3,3,3,-9.630000000000001,1.08,1.72,-0.08,0.03,0.06
2.878792881965637,2,3,3,3,-9.65,1.09,1.65,-0.05,0.07000000000000001,0.07000000000000001
2.888792872428894,2,3,3,3,-9.630000000000001,1.1,1.69,-0.05,0.1,0.08
2.898792862892151,2,3,3,3,-9.67,1.13,1.73,-0.05,0.1,0.08
2.908792853355408,2,3,3,3,-9.68,1.12,1.74,-0.16,0.07000000000000001,0.04
2.918793082237244,2,3,3,3,-9.67,1.09,1.75,-0.17,0.01,0.01
2.9287930727005,2,3,3,3,-9.66,1.11,1.66,-0.17,-0.04,0.02
2.938793063163757,2,3,3,3,-9.619999999999999,1.09,1.72,-0.15,-0.09,0.02
2.948793053627014,2,3,3,3,-9.640000000000001,1.08,1.76,-0.15,-0.09,0.02
2.958793044090271,2,3,3,3,-9.6,1.09,1.78,-0.06,-0.06,0.06
2.968793034553528,2,3,3,3,-9.609999999999999,1.1,1.78,-0.03,0.02,0.03
2.978793025016785,2,3,3,3,-9.630000000000001,1.13,1.63,-0.04,0.03,0.01
3.008792996406555,2,3,3,3,-9.65,1.1,1.7,-0.13,0.08,0.02
3.018792986869812,2,3,3,3,-9.67,1.08,1.76,-0.18,0.07000000000000001,0.06
3.028792977333069,2,3,3,3,-9.65,1.07,1.69,-0.13,0.02,0.05
3.038792967796326,2,3,3,3,-9.65,1.08,1.7,-0.01,0.07000000000000001,0.06
3.048792958259583,2,3,3,3,-9.640000000000001,1.08,1.8,-0.01,0.07000000000000001,0.06
3.058792948722839,2,3,3,3,-9.640000000000001,1.11,1.76,0.03,0.1,0.03
3.068792939186096,2,3,3,3,-9.66,1.09,1.77,0.13,0.11,0.04
3.078792929649353,2,3,3,3,-9.66,1.12,1.65,0.11,0.12,0
3.08879292011261,2,3,3,3,-9.630000000000001,1.09,1.73,-0.03,0.06,0
3.098792910575867,2,3,3,3,-9.640000000000001,1.08,1.74,-0.1,-0.01,0
3.108792901039124,2,3,3,3,-9.6,1.05,1.78,-0.15,-0.07000000000000001,0.02
3.11879289150238,2,3,3,3,-9.609999999999999,1.07,1.82,-0.09,-0.05,0
3.128792881965637,2,3,3,3,-9.630000000000001,1.07,1.67,0,-0.03,0.01
3.138792872428894,2,3,3,3,-9.67,1.11,1.7,0.14,0.04,0.01
3.148792862892151,2,3,3,3,-9.67,1.12,1.74,0.23,0.09,0.02
3.158792853355408,2,3,3,3,-9.69,1.15,1.73,0.25,0.12,0
3.168793082237244,2,3,3,3,-9.66,1.18,1.67,0.18,0.08,0.02
3.1787930727005,2,3,3,3,-9.66,1.16,1.63,0.09,0.08,0.05
3.188793063163757,2,3,3,3,-9.65,1.18,1.74,-0.01,0.09,0.04
3.198793053627014,2,3,3,3,-9.609999999999999,1.15,1.75,-0.04,0.01,0.03
3.208793044090271,2,3,3,3,-9.59,1.16,1.77,-0.05,-0.06,0.03
3.218793034553528,2,3,3,3,-9.609999999999999,1.13,1.76,-0.07000000000000001,-0.06,-0.05
3.228793025016785,2,3,3,3,-9.6,1.11,1.65,0,-0.05,-0.08
3.238793015480042,2,3,3,3,-9.619999999999999,1.12,1.69,0.07000000000000001,-0.07000000000000001,-0.08
3.248793005943298,2,3,3,3,-9.65,1.14,1.73,0.14,0,-0.06
3.258792996406555,2,3,3,3,-9.65,1.17,1.72,0.17,0.07000000000000001,-0.06
3.268792986869812,2,3,3,3,-9.66,1.18,1.73,0.07000000000000001,0.1,0
3.278792977333069,2,3,3,3,-9.640000000000001,1.19,1.66,0.03,0.06,0.03
3.288792967796326,2,3,3,3,-9.65,1.16,1.72,-0.02,0.03,0.04
3.298792958259583,2,3,3,3,-9.66,1.16,1.76,-0.02,0.01,0.04
3.308792948722839,2,3,3,3,-9.630000000000001,1.15,1.74,-0.05,-0.03,0.03
3.318792939186096,2,3,3,3,-9.630000000000001,1.15,1.72,-0.05,-0.03,0.03
3.33879292011261,2,3,3,3,-9.640000000000001,1.15,1.69,-0.09,-0.03,0.03
3.348792910575867,2,3,3,3,-9.640000000000001,1.17,1.73,-0.07000000000000001,0,0.02
3.358792901039124,2,3,3,3,-9.65,1.16,1.76,-0.14,0.02,0.02
3.36879289150238,2,3,3,3,-9.630000000000001,1.16,1.74,-0.16,-0.01,-0.02
3.378792881965637,2,3,3,3,-9.65,1.17,1.66,-0.14,-0.03,-0.06
3.388792872428894,2,3,3,3,-9.619999999999999,1.18,1.66,-0.09,-0.03,-0.06
3.398792862892151,2,3,3,3,-9.640000000000001,1.15,1.75,-0.07000000000000001,-0.01,-0.04
3.408792853355408,2,3,3,3,-9.66,1.13,1.78,-0.1,-0.01,-0.04
3.418793082237244,2,3,3,3,-9.66,1.16,1.81,-0.14,0.01,-0.05
3.4287930727005,2,3,3,3,-9.67,1.16,1.7,-0.19,0.02,-0.06
3.438793063163757,2,3,3,3,-9.640000000000001,1.12,1.72,-0.19,0.02,-0.06
3.448793053627014,2,3,3,3,-9.630000000000001,1.19,1.77,-0.22,-0.04,-0.05
3.458793044090271,2,3,3,3,-9.66,1.16,1.82,-0.24,-0.05,-0.06
3.468793034553528,2,3,3,3,-9.720000000000001,1.21,1.79,-0.22,-0.07000000000000001,-0.04
3.478793025016785,2,3,3,3,-9.76,1.27,1.83,-0.3,-0.27,0.04
3.488793015480042,2,3,3,3,-9.77,1.31,1.9,-0.36,-0.71,0.19
3.498793005943298,2,3,3,3,-9.66,1.2,1.78,-0.11,-1.08,0.38
3.508792996406555,2,3,3,3,-9.58,1.17,1.49,0.29,-0.6899999999999999,0.5
3.518792986869812,2,3,3,3,-9.67,1.12,1.59,-0.11,-0.19,0.52
3.528792977333069,2,3,3,3,-9.65,1.1,1.65,-0.47,-0.12,0.63
3.538792967796326,2,3,3,3,-9.6,1.1,1.71,-0.54,-0.19,0.6899999999999999
3.548792958259583,2,3,3,3,-9.56,1.1,1.73,-0.63,-0.2,0.74
3.558792948722839,2,3,3,3,-9.59,1.09,1.71,-0.8100000000000001,-0.13,0.7
3.568792939186096,2,3,3,3,-9.619999999999999,1,1.77,-1.02,-0.15,0.54
3.578792929649353,2,3,3,3,-9.609999999999999,1.01,1.74,-1.15,-0.3,0.37
3.58879292011261,2,3,3,3,-9.529999999999999,0.86,1.86,-1.14,-0.3,0.19
3.598792910575867,2,3,3,3,-9.5,0.76,1.97,-1.09,-0.23,0.05
3.608792901039124,2,3,3,3,-9.539999999999999,0.72,2.1,-1.15,-0.19,-0.09
3.61879289150238,2,3,3,3,-9.539999999999999,0.65,2.19,-0.95,-0.28,-0.08
3.628792881965637,2,3,3,3,-9.449999999999999,0.62,1.96,-0.4,-0.25,-0.03
3.638792872428894,2,3,3,3,-9.51,0.57,2.01,0.1,0.01,0.08
3.649793028831482,2,3,3,3,-9.550000000000001,0.57,1.99,0.52,0.21,0.25
3.659793019294739,2,3,3,3,-9.65,0.62,1.93,0.99,0.39,0.46
3.669793009757996,2,3,3,3,-9.710000000000001,0.63,1.85,1.34,0.5,0.63
3.679793000221252,2,3,3,3,-9.76,0.68,1.7,1.61,0.46,0.77
3.689792990684509,2,3,3,3,-9.789999999999999,0.77,1.71,1.73,0.33,0.89
3.699792981147766,2,3,3,3,-9.619999999999999,0.99,1.66,1.73,0.09,0.97
3.729792952537537,2,3,3,3,-9.369999999999999,1.45,1.51,1.58,0.1,0.97
3.739792943000793,2,3,3,3,-9.220000000000001,1.64,1.65,1.33,0.26,0.86
3.74979293346405,2,3,3,3,-9.18,1.71,1.72,1.07,0.43,0.72
3.759792923927307,2,3,3,3,-9.15,1.73,1.69,0.91,0.57,0.55
3.769792914390564,2,3,3,3,-9.109999999999999,1.66,1.68,0.9,0.6899999999999999,0.36
3.779792904853821,2,3,3,3,-8.99,1.51,1.37,0.93,0.76,0.24
3.789792895317078,2,3,3,3,-8.94,1.4,1.31,0.98,0.91,0.22
3.799792885780334,2,3,3,3,-8.949999999999999,1.41,1.42,0.67,1.16,0.28
3.809792876243591,2,3,3,3,-9.02,1.45,1.54,0.37,0.99,0.47
3.819792866706848,2,3,3,3,-8.880000000000001,1.7,1.5,0.5600000000000001,0.28,0.8100000000000001
3.829792857170105,2,3,3,3,-8.5,1.76,1.17,1.18,-0.42,1.29
3.839792847633362,2,3,3,3,-8.15,1.63,0.85,2.14,-0.14,1.77
3.849793076515198,2,3,3,3,-8.01,1.69,1.01,2.22,0.8,2.09
3.859793066978455,2,3,3,3,-7.77,1.83,1.38,1.9,0.9399999999999999,2.46
3.869793057441711,2,3,3,3,-7.5,1.91,1.25,2.43,0.44,2.84
3.879793047904968,2,3,3,3,-7.36,1.93,0.97,2.76,0.36,3.02
3.889793038368225,2,3,3,3,-7.02,1.91,0.88,2.47,0.44,2.98
3.899793028831482,2,3,3,3,-6.91,2,1.03,1.69,0.51,2.81
3.909793019294739,2,3,3,3,-6.72,2.1,1.03,0.77,0.24,2.53
3.919793009757996,2,3,3,3,-6.48,2.21,1.07,0.19,-0.06,2.4
3.929793000221252,2,3,3,3,-6.16,2.37,1.25,-0.54,-0.01,2.31
3.939792990684509,2,3,3,3,-6.1,2.38,1.38,-1.32,0.15,2.27
3.949792981147766,2,3,3,3,-6.12,2.33,1.56,-1.7,0.47,2.18
3.959792971611023,2,3,3,3,-6.14,2.25,1.63,-1.87,0.79,2.26
3.96979296207428,2,3,3,3,-6.85,1.86,1.52,-1.92,1.51,2.34
3.979792952537537,2,3,3,3,-7.64,1.55,1.72,-2.68,2.49,2.37
3.989792943000793,2,3,3,3,-8.609999999999999,1.34,2.06,-3.28,2.71,1.95
3.99979293346405,2,3,3,3,-9.369999999999999,1.28,2.31,-3.53,1.98,1.16
4.009792923927307,2,3,3,3,-10.65,1.63,2.43,-3.51,0.75,0.53
4.019792914390564,2,3,3,3,-11.35,1.84,2.22,-3.17,0.03,0.14
4.029792904853821,2,3,3,3,-11.94,1.82,1.71,-1.96,-0.01,0.12
4.039792895317078,2,3,3,3,-12.27,1.58,1.02,-0.26,0.53,0.89
4.049792885780334,2,3,3,3,-11.56,1.11,-0.11,0.92,1.54,2.5
4.059792876243591,2,3,3,3,-10.55,1.05,-0.32,1.48,1.94,4.69
4.069792866706848,2,3,3,3,-9.91,1.18,0.16,1.16,1.88,6.43
4.079792857170105,2,3,3,3,-8.640000000000001,1.21,0.83,0.08,1.02,7.11
4.089792847633362,2,3,3,3,-8.119999999999999,1.32,1.4,-0.43,-0.54,6.6
4.099793076515198,2,3,3,3,-7.66,1.32,1.87,-0.78,-1.94,5.45
4.109793066978455,2,3,3,3,-7.36,1.28,2.22,-0.47,-2.63,4.02
4.119793057441711,2,3,3,3,-7.79,0.98,2.18,0.33,-2.7,2.54
4.129793047904968,2,3,3,3,-7.82,0.6,1.96,0.86,-2.51,1.57
4.139793038368225,2,3,3,3,-8.02,0.57,2.18,1.01,-1.82,1
4.149793028831482,2,3,3,3,-8.48,0.54,2.63,1.31,-1.19,0.7
4.159793019294739,2,3,3,3,-9.42,1.44,2.74,2.46,-0.96,0.4
4.169793009757996,2,3,3,3,-9.970000000000001,1.85,2.5,4.13,-0.23,0.16
4.179793000221252,2,3,3,3,-10.62,2.05,2.15,5.81,0.98,-0.08
4.189792990684509,2,3,3,3,-11.38,2.3,1.95,7.15,2.18,0.16
4.199792981147766,2,3,3,3,-13.84,2.81,1.36,6.74,2.56,0.68
4.209792971611023,2,3,3,3,-14.4,2.8,1.36,3.88,1.65,1.33
4.21979296207428,2,3,3,3,-15.26,2.89,1.77,0.62,0.39,2.14
4.229792952537537,2,3,3,3,-15.46,2.95,1.91,-1.97,-1.57,2.39
4.239792943000793,2,3,3,3,-14.64,2.56,3.5,-3.91,-3.29,1.58
4.24979293346405,2,3,3,3,-14.62,2.72,4.68,-4.44,-2.93,0.03
4.259792923927307,2,3,3,3,-15.34,2.97,5.45,-3.27,-1.51,-1.78
4.269792914390564,2,3,3,3,-16.28,3.06,5.78,-2.15,-1.87,-3.29
4.279792904853821,2,3,3,3,-18.96,2.66,5.26,-1.32,-1.4,-4.72
4.289792895317078,2,3,3,3,-19.83,2.4,4.82,-0.16,0.96,-5.12
4.299792885780334,2,3,3,3,-20.94,1.33,3.98,0.3,4.12,-3.53
4.309792876243591,2,3,3,3,-24.11,1.48,2.74,0.68,6.4,-1.25
4.319792866706848,2,3,3,3,-24.75,1.42,2.7,-1.55,5.5,1.31
4.329792857170105,2,3,3,3,-25.65,1.84,4.13,-4.07,3.26,2.48
4.339792847633362,2,3,3,3,-25.26,1.84,5.4,-6.11,0.49,2.35
4.349793076515198,2,3,3,3,-24.13,1.42,7.06,-4.6,0.33,0.75
4.359793066978455,2,3,3,3,-23.71,1.2,7.4,-2.67,2.47,-1.95
4.369793057441711,2,3,3,3,-24.01,0.84,6.64,-0.61,4.54,-4.23
4.379793047904968,2,3,3,3,-24.59,0.37,5.36,1.32,5.65,-5.98
4.389793038368225,2,3,3,3,-24.23,0.2,3.07,2.62,6.02,-6.82
4.399793028831482,2,3,3,3,-22.81,0.75,2.28,3.69,5.57,-6.4
4.409793019294739,2,3,3,3,-20.47,1.76,1.94,4.67,3.88,-4.97
4.419793009757996,2,3,3,3,-17.2,3.28,1.22,6.19,1.47,-2.51
4.429793000221252,2,3,3,3,-10.31,6.2,-1.66,9.94,-0.13,0.46
4.439792990684509,2,3,3,3,-7.75,7.23,-3.37,15.02,0.68,2.73
4.449792981147766,2,3,3,3,-5.72,8.07,-5.04,18.82,2.72,3.6
4.459792971611023,2,3,3,3,-3.57,8.140000000000001,-6.11,19.77,3.85,3.74
4.46979296207428,2,3,3,3,1.27,8.869999999999999,-4.5,16.2,4.06,3.3
4.479792952537537,2,3,3,3,3.37,9.529999999999999,-2.31,8.27,2.45,2.96
4.489792943000793,2,3,3,3,5.82,9.24,-1.29,-0.54,-1.72,3.31
4.49979293346405,2,3,3,3,7.81,8.73,-2.9,-4.63,-6.26,3.9
4.509792923927307,2,3,3,3,7.64,6.88,-3.88,-5.38,-8.359999999999999,3.82
4.519792914390564,2,3,3,3,6.41,5,-4.31,-5.73,-5.77,3.24
4.529792904853821,2,3,3,3,4.07,3.47,-3.48,-8.029999999999999,0.01,1.96
4.539792895317078,2,3,3,3,1.61,1.36,0.17,-11.91,5.29,-0.01
4.549792885780334,2,3,3,3,1.16,0.96,0.46,-14.06,7.41,-0.93
4.559792876243591,2,3,3,3,0.28,0.45,-0.32,-14.69,7.39,-0.77
4.569792866706848,2,3,3,3,-0.79,-0.33,-1.06,-15.38,6.37,-0.64
4.579792857170105,2,3,3,3,-2.04,-1.51,-0.4,-16.38,3.43,-0.71
4.589792847633362,2,3,3,3,-1.77,-1.7,0.61,-16.22,-0.79,-0.85
4.599793076515198,2,3,3,3,-1.21,-1.76,0.92,-14.32,-4.2,-1.1
4.609793066978455,2,3,3,3,-0.8,-1.98,0.6899999999999999,-11.47,-4.33,-1.69
4.619793057441711,2,3,3,3,-1.44,-2.29,1.37,-9.710000000000001,-2.17,-2.27
4.629793047904968,2,3,3,3,-1.95,-2.48,1.44,-8.73,-0.78,-2.53
4.639793038368225,2,3,3,3,-2.28,-2.64,1.33,-6.98,-0.66,-2.66
4.649793028831482,2,3,3,3,-2.33,-2.72,1.32,-5.16,-0.98,-2.72
4.659793019294739,2,3,3,3,-2.33,-2.72,1.32,-3.6,-1.33,-2.5
4.670792937278748,2,3,3,3,-1.76,-2.59,1.48,-1.82,-1.65,-1.85
4.680792927742004,2,3,3,3,-0.44,-2.08,1.18,0.31,-2.16,-0.68
4.690792918205261,2,3,3,3,0.9399999999999999,-1.8,0.18,2.66,-2.51,1.1
4.700792908668518,2,3,3,3,1.36,-1.62,-0.65,5.35,-2.08,2.91
4.710792899131775,2,3,3,3,1.36,-1.62,-0.65,5.35,-2.08,2.91
4.720792889595032,2,3,3,3,0.89,-1.24,-0.4,6.88,0.41,3.9
4.730792880058289,2,3,3,3,-0.22,-1.06,0.16,5.93,2.1,5.01
4.740792870521545,2,3,3,3,-0.16,-0.67,-0.17,8.300000000000001,-0.47,5.35
4.750792860984802,2,3,3,3,-0.24,-0.2,-0.5600000000000001,10.17,-2.53,5.16
4.760792851448059,2,3,3,3,-0.24,-0.2,-0.5600000000000001,10.17,-2.53,5.16
4.810793042182922,2,3,3,3,0.83,2.07,-2.32,9.58,-5.38,1
4.820793032646179,2,3,3,3,-0.1,3.25,-0.5,7.98,-5.06,-0.22
4.830793023109436,2,3,3,3,-0.89,4.31,-0.22,6.65,-4.26,-2.41
4.840793013572693,2,3,3,3,-0.95,5.59,-0.6,6.49,-3.96,-3.1
4.85079300403595,2,3,3,3,-1.72,7.4,0,4.66,-2.65,-3.58
4.860792994499207,2,3,3,3,-6.83,12.84,1.45,4.66,-2.65,-3.58
4.870792984962463,2,3,3,3,-12.75,15.8,3.54,-1.38,-2.47,-4.83
4.88079297542572,2,3,3,3,-21.79,18.63,4.32,-29.59,-8.19,-21.88
4.890792965888977,2,3,3,3,-37.04,12.27,2.7,-47.21,-20.62,-35.56
4.900792956352234,2,3,3,3,-37.55,0.75,-1.19,-43.74,-6.28,-28.18
4.910792946815491,2,3,3,3,-39.29,-16.58,1.47,-43.74,-6.28,-28.18
4.920792937278748,2,3,3,3,-39.27,-22.22,6.64,-26.03,14.19,-8.65
4.930792927742004,2,3,3,3,-19.39,-7.35,8.84,6.84,5.81,1.64
4.940792918205261,2,3,3,3,-11.75,-2.49,9.85,8.24,2.43,1.94
4.950792908668518,2,3,3,3,-10.7,-2.82,7.72,11.03,-2.56,-2.57
4.960792899131775,2,3,3,3,-11.29,-4.15,6.18,11.03,-2.56,-2.57
4.970792889595032,2,3,3,3,-15.98,-4.34,4.08,12.2,-2.57,-5.49
4.980792880058289,2,3,3,3,-18.97,-3.96,4.25,9.82,-3.45,-7.94
4.990792870521545,2,3,3,3,-20.45,-2.96,4.24,12.14,-2.33,-4.84
5.000792860984802,2,3,3,3,-19.75,-1.91,3.56,13.73,1.89,0.24
5.010792851448059,2,3,3,3,-17.54,1.02,2.58,13.73,1.89,0.24
5.020793080329895,2,3,3,3,-17.2,1.99,1.92,12.98,5.45,4.96
5.030793070793152,2,3,3,3,-16.99,2.93,1.21,8.83,1.56,10.47
5.040793061256409,2,3,3,3,-16.18,3.47,0.6,6.6,-2.01,10.09
5.050793051719666,2,3,3,3,-13.57,3.42,0.65,3.76,-4.87,7.4
5.060793042182922,2,3,3,3,-12.51,3.28,1.26,3.76,-4.87,7.4
5.070793032646179,2,3,3,3,-11.81,3.17,2.04,1.31,-6.03,3.68
5.080793023109436,2,3,3,3,-10.91,2.99,2.39,0.54,-2.66,-1.47
5.090793013572693,2,3,3,3,-8.859999999999999,2.57,1.97,0.89,0.09,-3.09
5.10079300403595,2,3,3,3,-8.210000000000001,2.36,1.83,0.96,3.47,-3.81
5.110792994499207,2,3,3,3,-8.130000000000001,2.31,1.5,0.96,3.47,-3.81
5.120792984962463,2,3,3,3,-8.949999999999999,2.02,0.65,0.5,6.05,-3.7
5.13079297542572,2,3,3,3,-9.289999999999999,1.69,0.52,-1.64,5.68,-1.78
5.140792965888977,2,3,3,3,-9.24,1.45,0.51,-2.51,3.94,-0.17
5.150792956352234,2,3,3,3,-8.859999999999999,1.5,0.64,-3.15,2.49,1.39
5.160792946815491,2,3,3,3,-7.38,1.78,0.91,-3.15,2.49,1.39
5.170792937278748,2,3,3,3,-6.59,1.76,1.02,-3.64,1.69,2.61
5.180792927742004,2,3,3,3,-5.82,1.63,1.01,-4.07,1.47,3.58
5.190792918205261,2,3,3,3,-5.34,1.62,0.8100000000000001,-3.94,1.13,3.05
5.200792908668518,2,3,3,3,-5.27,0.8100000000000001,1.04,-3.82,1.47,2.11
5.210792899131775,2,3,3,3,-5.71,0.78,1.14,-3.82,1.47,2.11
5.220792889595032,2,3,3,3,-5.82,0.41,1.28,-3.15,0.38,0.57
5.230792880058289,2,3,3,3,-5.76,0.45,1.35,-2.36,-0.62,-0.73
5.240792870521545,2,3,3,3,-6.28,0.9399999999999999,1.42,-1.21,-1.26,-1.82
5.250792860984802,2,3,3,3,-6.66,1.38,1.56,-0.41,-1.94,-2.37
5.260792851448059,2,3,3,3,-7.18,1.64,1.61,0.52,-1.68,-2.68
5.270793080329895,2,3,3,3,-7.72,1.91,1.52,1.5,-0.74,-2.89
5.280793070793152,2,3,3,3,-8.51,1.91,1.06,2.24,0.15,-3.15
5.290793061256409,2,3,3,3,-8.66,1.83,0.68,2.39,0.93,-3.32
5.300793051719666,2,3,3,3,-8.94,1.76,0.59,1.99,1.54,-3.15
5.310793042182922,2,3,3,3,-9.630000000000001,1.56,0.61,0.97,1.79,-2.63
5.320793032646179,2,3,3,3,-9.859999999999999,1.35,0.7,-0.23,1.48,-1.83
5.330793023109436,2,3,3,3,-10.04,1.26,0.95,-1.13,0.66,-1.08
5.340793013572693,2,3,3,3,-10.08,1.09,1.07,-1.59,-0.4,-0.64
5.35079300403595,2,3,3,3,-9.85,0.9399999999999999,1.66,-1.77,-1.51,-0.54
5.360792994499207,2,3,3,3,-9.710000000000001,0.84,1.89,-1.73,-2.4,-0.66
5.370792984962463,2,3,3,3,-9.48,0.72,2.05,-1.67,-2.73,-0.86
5.38079297542572,2,3,3,3,-9.27,0.68,2.26,-1.21,-2.59,-1.01
5.390792965888977,2,3,3,3,-9.25,0.74,2.38,-0.8100000000000001,-1.97,-1.02
5.400792956352234,2,3,3,3,-9.31,0.77,2.38,-0.49,-1.05,-1
5.410792946815491,2,3,3,3,-9.43,0.78,2.36,-0.11,-0.21,-0.91
5.420792937278748,2,3,3,3,-9.58,0.72,2.32,0.02,0.64,-0.8
5.430792927742004,2,3,3,3,-9.93,0.62,2.12,-0.1,1.34,-0.6
5.440792918205261,2,3,3,3,-10.1,0.5600000000000001,1.83,-0.36,1.7,-0.37
5.450792908668518,2,3,3,3,-10.22,0.48,1.68,-0.46,1.67,-0.08
5.460792899131775,2,3,3,3,-10.29,0.36,1.58,-0.6899999999999999,1.34,0.3
5.470792889595032,2,3,3,3,-10.32,0.22,1.73,-0.9,0.8,0.73
5.480792880058289,2,3,3,3,-10.14,0.26,1.79,-1.01,0.05,1.07
5.490792870521545,2,3,3,3,-9.92,0.3,1.75,-0.82,-0.87,1.42
5.500792860984802,2,3,3,3,-9.48,0.74,1.81,-0.15,-1.68,1.77
5.510792851448059,2,3,3,3,-9.25,0.83,1.85,0.59,-1.88,2.08
5.520793080329895,2,3,3,3,-9.199999999999999,1.03,1.83,1.26,-1.52,2.29
5.530793070793152,2,3,3,3,-9.15,1.19,1.69,1.8,-1.09,2.45
5.540793061256409,2,3,3,3,-9.09,1.43,1.44,2.06,-0.63,2.51
5.550793051719666,2,3,3,3,-9.07,1.56,1.53,1.82,-0.12,2.34
5.560793042182922,2,3,3,3,-9.06,1.69,1.57,1.2,0.2,2.11
5.570793032646179,2,3,3,3,-9.09,1.75,1.55,0.48,0.2,1.74
5.580793023109436,2,3,3,3,-9.23,1.67,1.55,-0.11,-0.04,1.28
5.590793013572693,2,3,3,3,-9.32,1.56,1.56,-0.68,-0.32,0.74
5.60079300403595,2,3,3,3,-9.44,1.45,1.74,-1.15,-0.63,0.21
5.610792994499207,2,3,3,3,-9.5,1.32,1.81,-1.57,-0.93,-0.27
5.620792984962463,2,3,3,3,-9.57,1.09,1.83,-1.33,-1.2,-0.62
5.63079297542572,2,3,3,3,-9.49,1.01,1.75,-1.33,-1.2,-0.62
5.640792965888977,2,3,3,3,-9.449999999999999,0.93,1.57,-0.79,-0.87,-0.4
5.650792956352234,2,3,3,3,-9.4,0.91,1.49,0.64,0.22,0.8100000000000001
5.660792946815491,2,3,3,3,-9.25,1.07,1.46,0.9399999999999999,0.65,1.45
5.670792937278748,2,3,3,3,-9.31,1.18,1.47,0.89,0.96,1.85
5.680792927742004,2,3,3,3,-9.26,1.31,1.46,0.68,1.08,1.96
5.690792918205261,2,3,3,3,-9.210000000000001,1.53,1.49,0.39,1.1,1.79
5.701793074607849,2,3,3,3,-9.140000000000001,1.62,1.58,0.03,0.96,1.43
5.711793065071106,2,3,3,3,-9.02,1.57,1.66,-0.3,0.68,1.03
5.721793055534363,2,3,3,3,-8.970000000000001,1.46,1.75,-0.59,0.4,0.59
5.73179304599762,2,3,3,3,-8.970000000000001,1.3,1.88,-0.82,0.11,0.16
5.741793036460876,2,3,3,3,-8.99,1.26,1.83,-0.8,-0.13,-0.14
5.751793026924133,2,3,3,3,-8.98,1.28,1.85,-0.5,-0.2,-0.31
5.76179301738739,2,3,3,3,-8.94,1.29,1.79,-0.18,0.11,-0.25
5.771793007850647,2,3,3,3,-8.789999999999999,1.33,1.69,0.14,0.45,0
5.781792998313904,2,3,3,3,-8.67,1.4,1.44,0.67,0.74,0.47
5.791792988777161,2,3,3,3,-8.51,1.36,1.12,1.28,1.01,1.13
5.801792979240417,2,3,3,3,-8.43,1.35,1.16,1.44,1.32,1.73
5.811792969703674,2,3,3,3,-8.65,1.59,1.46,1.33,1.21,2.15
5.821792960166931,2,3,3,3,-8.73,1.79,1.44,1.72,0.34,2.39
5.831792950630188,2,3,3,3,-8.800000000000001,2.06,1.33,2.35,-0.63,2.57
5.841792941093445,2,3,3,3,-8.73,2.29,1.13,2.8,-1.24,2.72
5.851792931556702,2,3,3,3,-8.050000000000001,2.51,0.51,3.51,-1.49,3.14
5.861792922019958,2,3,3,3,-7.37,2.49,0.03,4.27,-1.58,4.04
5.871792912483215,2,3,3,3,-6.6,2.37,-0.23,4.01,-1.04,5.33
5.881792902946472,2,3,3,3,-5.92,2.3,-0.04,2.05,-0.3,6.58
5.891792893409729,2,3,3,3,-4.84,2.3,0.95,0.2,-0.18,7.44
5.901792883872986,2,3,3,3,-4.39,2.5,1.38,-0.07000000000000001,-0.91,7.73
5.911792874336243,2,3,3,3,-3.77,2.62,1.39,1.41,-1.63,7.56
5.9217928647995,2,3,3,3,-3.2,2.65,0.64,3.68,-1.36,6.94
5.931792855262756,2,3,3,3,-3.4,2.67,0.5,4.69,-0.06,5.93
5.941793084144592,2,3,3,3,-3.77,2.72,0.39,3.94,1.22,4.85
5.951793074607849,2,3,3,3,-4.21,2.82,0.61,2.3,1.71,4.08
5.961793065071106,2,3,3,3,-5.69,3.39,1.44,0.28,1.33,3.59
5.971793055534363,2,3,3,3,-6.53,3.46,1.46,-1.27,0.55,3.25
5.98179304599762,2,3,3,3,-7.41,3.47,1.43,-2.06,0.04,3.16
5.991793036460876,2,3,3,3,-8.48,3.27,1.4,-2.95,0.23,3.09
6.001793026924133,2,3,3,3,-10.16,1.43,1.72,-4.14,0.74,2.83
6.01179301738739,2,3,3,3,-10.51,0.67,2.27,-4.7,0.86,2.59
6.021793007850647,2,3,3,3,-10.49,-0.08,2.57,-3.77,0.99,2.14
6.031792998313904,2,3,3,3,-10.58,-0.34,2.38,-1.8,1.22,1.34
6.041792988777161,2,3,3,3,-12.63,-0.03,2.6,-1.04,0.96,0.42
6.051792979240417,2,3,3,3,-13.3,0.39,2.43,-1.62,-0.47,-0.37
6.061792969703674,2,3,3,3,-13.69,0.97,2.38,-1.41,-1.53,-0.58
6.071792960166931,2,3,3,3,-14.06,1.35,2.57,-1.68,-1.22,-0.5
6.081792950630188,2,3,3,3,-16.21,0.84,3.75,-2.21,-0.33,-1.31
6.091792941093445,2,3,3,3,-17.17,0.86,4.67,-1.33,-0.88,-2.99
6.101792931556702,2,3,3,3,-18.29,0.98,5.36,-0.11,-2.68,-4.16
6.111792922019958,2,3,3,3,-20.32,1.07,5.59,1.29,-3.38,-4.95
6.121792912483215,2,3,3,3,-21.47,0.79,5.29,1.25,-1.82,-5.29
6.131792902946472,2,3,3,3,-22.4,0.7,4.4,0.65,0.89,-4.53
6.141792893409729,2,3,3,3,-23.13,0.75,3.95,0.11,4,-2.76
6.151792883872986,2,3,3,3,-22.59,1.51,5.42,-0.97,4.31,-0.62
6.161792874336243,2,3,3,3,-22.15,2.14,5.91,-0.9399999999999999,2.62,0.64
6.1717928647995,2,3,3,3,-22.47,2.57,6.24,-0.27,1.54,0.8100000000000001
6.181792855262756,2,3,3,3,-22.55,2.49,6.02,-0.68,1.91,0.07000000000000001
6.191793084144592,2,3,3,3,-24.52,1.98,6.26,-1.83,3.16,-1.35
6.201793074607849,2,3,3,3,-25.41,1.06,6.21,-3.61,3.71,-2.98
6.211793065071106,2,3,3,3,-25.74,-0.2,6.08,-4.52,3.58,-4.82
6.221793055534363,2,3,3,3,-26.19,-0.89,6.45,-4.96,3.67,-6.37
6.23179304599762,2,3,3,3,-25.83,-2.74,5.4,-4.25,4.15,-8.07
6.241793036460876,2,3,3,3,-24.93,-3.11,5.42,-3.05,4.51,-9.69
6.251793026924133,2,3,3,3,-23.84,-2.76,5.71,-1.16,3.91,-10.52
6.26179301738739,2,3,3,3,-22.45,-2.23,5.52,1.76,1.87,-10.51
6.281792998313904,2,3,3,3,-15.31,3.18,2.26,9.91,-3.08,-4.73
6.291792988777161,2,3,3,3,-13.48,6.03,0.24,14.22,-2.04,0.15
6.301792979240417,2,3,3,3,-8.48,8.23,-5.14,17.27,1.97,4.31
6.311792969703674,2,3,3,3,-6.45,9.359999999999999,-6.98,18.79,5.67,7.53
6.321792960166931,2,3,3,3,-4.18,9.48,-6.08,14.93,7.04,9.630000000000001
6.331792950630188,2,3,3,3,-1.15,9.98,-3.85,7.14,5.65,9.85
6.341792941093445,2,3,3,3,5.17,15.61,-1.9,4.05,0.01,9.41
6.351792931556702,2,3,3,3,7.77,16.11,-4.82,6.86,-4.75,7.66
6.361792922019958,2,3,3,3,9.369999999999999,13.94,-9.34,9.44,-6.38,3.68
6.371792912483215,2,3,3,3,9.92,9.83,-9.949999999999999,2.73,-8.43,2.55
6.381792902946472,2,3,3,3,6.53,3.19,-3.35,-9.869999999999999,-5.05,0
6.391792893409729,2,3,3,3,4.94,2.2,-0.5,-18.42,1.65,-3.96
6.401792883872986,2,3,3,3,5.22,1.37,1.59,-22.93,5.3,-6.63
6.411792874336243,2,3,3,3,5.71,0.31,2.06,-24.64,8.77,-8.52
6.4217928647995,2,3,3,3,2.67,-2.28,1.29,-23.42,11.53,-8.970000000000001
6.431792855262756,2,3,3,3,1.18,-3.35,1.7,-20.98,7.44,-7.64
6.441793084144592,2,3,3,3,0.28,-3.66,1.83,-18.59,0.07000000000000001,-5.5
6.451793074607849,2,3,3,3,-0.87,-4.32,1.87,-14.59,-4.93,-3.27
6.461793065071106,2,3,3,3,-2.35,-3.47,0.2,-6.86,-5.51,-1.45
6.471793055534363,2,3,3,3,-3.59,-2.88,0.91,-1.68,-3.28,-1.07
6.48179304599762,2,3,3,3,-4.17,-2.62,0.8100000000000001,-0.13,-2.19,-1.63
6.491793036460876,2,3,3,3,-4.3,-2.33,0.06,1.42,-1.19,-2.31
6.501793026924133,2,3,3,3,-4.35,-3.19,-1.23,0.43,0.76,-2.26
6.51179301738739,2,3,3,3,-4.33,-3.04,-0.78,-1.06,2.72,-0.77
6.521793007850647,2,3,3,3,-3.83,-3.15,0.25,-2.33,1.78,0.97
6.531792998313904,2,3,3,3,-1.56,-2.83,1.22,-2.36,-0.71,2.46
6.541792988777161,2,3,3,3,-0.45,-2.6,1.18,-0.19,-1.95,3.12
6.551792979240417,2,3,3,3,0.44,-2.54,0.82,3.47,-2.63,3.54
6.561792969703674,2,3,3,3,0.98,-2.46,0.25,7.84,-2.6,3.47
6.571792960166931,2,3,3,3,0.75,-1.74,0.11,10.68,-1.5,3.23
6.581792950630188,2,3,3,3,0.39,-1.43,0.27,12.49,-0.77,3.42
6.591792941093445,2,3,3,3,0.4,-0.92,-0.01,14.4,-2.03,3.92
6.601792931556702,2,3,3,3,0.51,-0.25,-0.23,16.02,-3.24,4.21
6.611792922019958,2,3,3,3,0.19,0.76,-0.75,16,-3.44,4.2
6.621792912483215,2,3,3,3,-0.11,1.31,-0.7,14.79,-3.58,3.92
6.631792902946472,2,3,3,3,-0.51,1.8,-0.51,12.42,-4.91,3.44
6.641792893409729,2,3,3,3,-0.47,1.98,-0.8100000000000001,9.82,-7.98,3.3
6.651792883872986,2,3,3,3,1.2,2.15,-1.83,7.86,-10.46,3.19
6.661792874336243,2,3,3,3,2.13,1.84,-2.11,5.14,-9.960000000000001,2.51
6.6717928647995,2,3,3,3,2,1.41,-2.53,2.17,-7.05,0.65
6.681792855262756,2,3,3,3,0.38,2.12,-1.49,0.09,-5.04,-2.1
6.691793084144592,2,3,3,3,1.19,3.17,0.37,-1.4,-4.99,-4
6.701793074607849,2,3,3,3,0.41,4.9,0.9,-0.52,-2.94,-5.9
6.711793065071106,2,3,3,3,-3.69,7.18,3.21,-4.46,-1.41,-7.2
6.722792983055115,2,3,3,3,-8.289999999999999,14.19,1.76,-3.02,-5.12,-6.93
6.732792973518372,2,3,3,3,-19.72,16.2,5.45,-4.37,-4.74,-8.609999999999999
6.742792963981628,2,3,3,3,-34.09,20.45,6.25,-18.52,-11.49,-15.58
6.752792954444885,2,3,3,3,-38.05,20.06,1.63,-34.17,-23.64,-30.07
6.762792944908142,2,3,3,3,-31.87,-21.57,-5.55,-52.11,0.6899999999999999,-25.9
6.772792935371399,2,3,3,3,-32.14,-20.36,5.83,-48.65,28.19,2.35
6.782792925834656,2,3,3,3,-39.29,-12.78,14.17,-25.75,28.02,7.4
6.792792916297913,2,3,3,3,-31.71,-4.77,12.26,-1.41,10.74,0.39
6.802792906761169,2,3,3,3,-21.71,-2.04,7.97,13.55,-1.13,-1.03
6.812792897224426,2,3,3,3,-21.85,-2.51,6.8,12.01,0.79,-2.92
6.822792887687683,2,3,3,3,-25.23,-3.89,4.69,7.62,9.359999999999999,-4.13
6.83279287815094,2,3,3,3,-25.23,-3.89,4.69,2.38,12.19,-2.67
6.842792868614197,2,3,3,3,-23.05,-4.39,1.64,-0.65,4.63,-0.21
6.852792859077454,2,3,3,3,-18.36,-2.93,2.44,-0.23,-7.42,1.4
6.86279284954071,2,3,3,3,-14.52,-1.49,3.39,2.96,-12.8,2.3
6.872793078422546,2,3,3,3,-14.52,-1.49,3.39,2.96,-12.8,2.3
6.882793068885803,2,3,3,3,-12.35,-0.7,4.17,4.27,-2.81,3.77
6.89279305934906,2,3,3,3,-11.76,-0.53,2.79,6.09,1.88,4.57
6.902793049812317,2,3,3,3,-11.91,0,2.72,7.74,4.91,5.48
6.912793040275574,2,3,3,3,-12.27,1.76,2.68,8.199999999999999,6.23,6.66
6.922793030738831,2,3,3,3,-12.27,1.76,2.68,8.199999999999999,6.23,6.66
6.932793021202087,2,3,3,3,-12.01,2.21,1.86,7.88,5.58,7.49
6.942793011665344,2,3,3,3,-11.98,1.99,0.51,8.380000000000001,0.95,4.92
6.952793002128601,2,3,3,3,-10.3,2.13,0.5600000000000001,7.5,-0.64,3.7
6.962792992591858,2,3,3,3,-8.970000000000001,2.12,0.51,6.25,0.7,3.86
6.972792983055115,2,3,3,3,-8.970000000000001,2.12,0.51,6.25,0.7,3.86
6.982792973518372,2,3,3,3,-7.8,2.14,0.62,5.37,2.55,4.44
6.992792963981628,2,3,3,3,-5.97,2.21,0.75,4.61,3.93,4.49
7.002792954444885,2,3,3,3,-5.97,2.21,0.75,4.81,2.5,3.6
7.012792944908142,2,3,3,3,-5.34,2.34,0.85,4.98,1.11,2.49
7.022792935371399,2,3,3,3,-4.61,2.53,0.83,4.98,1.11,2.49
7.032792925834656,2,3,3,3,-3.79,2.52,0.79,4.68,1.11,1.58
7.062792897224426,2,3,3,3,-3.68,2.87,0.42,-0.98,3.08,1.78
7.072792887687683,2,3,3,3,-4.17,2.47,0.23,-0.98,3.08,1.78
7.08279287815094,2,3,3,3,-5.48,2.1,0.45,-2.43,2.87,1.37
7.092792868614197,2,3,3,3,-6.28,2.07,0.8,-4.17,0.72,0.24
7.102792859077454,2,3,3,3,-6.96,1.99,1.04,-4.08,-0.71,-0.55
7.11279284954071,2,3,3,3,-8.18,1.5,1.54,-3.49,-1.15,-1.67
7.122793078422546,2,3,3,3,-8.93,1.26,1.63,-3.49,-1.15,-1.67
7.132793068885803,2,3,3,3,-9.539999999999999,0.96,1.65,-2.61,-0.75,-2.96
7.14279305934906,2,3,3,3,-10.01,0.8,1.77,-0.14,0.41,-4.74
7.152793049812317,2,3,3,3,-10.52,0.55,1.51,1.35,1.21,-4.89
7.162793040275574,2,3,3,3,-10.71,0.52,1.47,2.47,1.89,-4.57
7.172793030738831,2,3,3,3,-10.84,0.5600000000000001,1.4,2.47,1.89,-4.57
7.182793021202087,2,3,3,3,-10.93,0.72,1.16,3.24,2.19,-3.63
7.192793011665344,2,3,3,3,-11.29,1.24,0.97,1.86,1.35,-1.18
7.202793002128601,2,3,3,3,-11.38,1.38,1.05,-0.13,0.18,-0.73
7.212792992591858,2,3,3,3,-11.31,1.5,1.31,-1.68,-1.36,-0.77
7.222792983055115,2,3,3,3,-11.18,1.44,1.58,-1.68,-1.36,-0.77
7.232792973518372,2,3,3,3,-10.6,1.03,1.99,-2.71,-2.68,-1.12
7.242792963981628,2,3,3,3,-10.25,0.61,2.01,-3.34,-2.96,-1.82
7.252792954444885,2,3,3,3,-10.03,0.28,2.09,-3.23,-2.06,-1.82
7.262792944908142,2,3,3,3,-10.09,0.04,2.32,-2.81,-1.63,-1.5
7.272792935371399,2,3,3,3,-9.960000000000001,-0.24,2.23,-2.81,-1.63,-1.5
7.282792925834656,2,3,3,3,-9.68,-0.22,1.92,-1.53,-1.64,-0.95
7.292792916297913,2,3,3,3,-9.539999999999999,-0.11,1.82,1.58,-0.64,0.21
7.302792906761169,2,3,3,3,-9.470000000000001,0.04,1.81,2.3,-0.74,0.6899999999999999
7.312792897224426,2,3,3,3,-9.289999999999999,0.48,1.18,2.94,-1.37,1.23
7.322792887687683,2,3,3,3,-9.08,0.75,0.76,2.94,-1.37,1.23
7.33279287815094,2,3,3,3,-9.08,1.13,1.15,3.45,-1.66,1.99
7.342792868614197,2,3,3,3,-8.699999999999999,1.51,0.92,3.21,-2.39,3.13
7.352792859077454,2,3,3,3,-8.609999999999999,1.85,0.9,3.28,-2.2,3.14
7.36279284954071,2,3,3,3,-8.550000000000001,2.04,1.03,2.87,-1.99,2.95
7.372793078422546,2,3,3,3,-8.52,2.25,1.16,2.87,-1.99,2.95
7.382793068885803,2,3,3,3,-9.02,2.34,1.36,2.31,-1.55,2.35
7.39279305934906,2,3,3,3,-9.210000000000001,2.39,1.39,1.24,-1.46,1.04
7.402793049812317,2,3,3,3,-9.48,2.36,1.32,0.47,-1.28,0.42
7.412793040275574,2,3,3,3,-9.720000000000001,2.28,1.29,-0.57,-0.93,-0.18
7.422793030738831,2,3,3,3,-10.13,1.87,1.53,-0.57,-0.93,-0.18
7.432793021202087,2,3,3,3,-10.03,1.58,1.45,-1.97,-0.91,-0.68
7.442793011665344,2,3,3,3,-9.85,1.23,1.33,-3.09,-1.33,-0.9399999999999999
7.452793002128601,2,3,3,3,-9.66,0.92,1.22,-2.89,-1.72,-0.86
7.462792992591858,2,3,3,3,-9.32,0.59,1.48,-2.89,-1.72,-0.86
7.472792983055115,2,3,3,3,-9.27,0.52,1.54,-2.29,-1.53,-0.59
7.482792973518372,2,3,3,3,-9.24,0.55,1.61,-1.33,-1.33,-0.29
7.492792963981628,2,3,3,3,-9.33,0.62,1.63,-0.36,-0.96,0.11
7.502792954444885,2,3,3,3,-9.65,0.92,1.51,0.27,-0.49,0.46
7.512792944908142,2,3,3,3,-9.73,1.09,1.46,0.61,-0.12,0.78
7.522792935371399,2,3,3,3,-9.76,1.27,1.42,0.62,0.08,1.09
7.532792925834656,2,3,3,3,-9.720000000000001,1.48,1.34,0.29,0.23,1.32
7.542792916297913,2,3,3,3,-9.66,1.44,1.29,-0.21,0.27,1.45
7.552792906761169,2,3,3,3,-9.619999999999999,1.36,1.33,-0.85,0.26,1.48
7.562792897224426,2,3,3,3,-9.56,1.27,1.45,-1.61,0.11,1.36
7.572792887687683,2,3,3,3,-9.369999999999999,1.08,1.75,-2.09,0.01,1.15
7.58279287815094,2,3,3,3,-9.33,1.02,1.81,-2.34,-0.01,0.87
7.592792868614197,2,3,3,3,-9.25,0.99,1.86,-2.42,0.02,0.62
7.602792859077454,2,3,3,3,-9.199999999999999,0.93,1.87,-2.26,0.1,0.37
7.61279284954071,2,3,3,3,-9.24,0.85,1.97,-1.92,0.22,0.14
7.622793078422546,2,3,3,3,-9.300000000000001,0.88,1.93,-1.38,0.31,-0.14
7.632793068885803,2,3,3,3,-9.35,0.91,1.88,-0.82,0.39,-0.33
7.64279305934906,2,3,3,3,-9.41,0.9399999999999999,1.84,-0.44,0.48,-0.46
7.652793049812317,2,3,3,3,-9.48,0.97,1.63,-0.19,0.48,-0.48
7.662793040275574,2,3,3,3,-9.48,1.02,1.64,-0.04,0.42,-0.43
7.672793030738831,2,3,3,3,-9.44,1.1,1.65,0,0.31,-0.36
7.682793021202087,2,3,3,3,-9.35,1.19,1.63,0.04,0.2,-0.27
7.692793011665344,2,3,3,3,-9.140000000000001,1.36,1.49,-0.01,0.28,-0.21
7.702793002128601,2,3,3,3,-9.01,1.37,1.45,-0.25,0.54,-0.12
7.712792992591858,2,3,3,3,-8.91,1.43,1.56,-0.6899999999999999,0.89,-0.09
7.722792983055115,2,3,3,3,-8.630000000000001,1.56,1.54,-0.93,1.18,-0.06
7.732792973518372,2,3,3,3,-8.41,1.67,1.46,-0.59,1.23,0
7.742792963981628,2,3,3,3,-8.210000000000001,1.84,1.37,0.28,1.4,0.1
7.753792881965637,2,3,3,3,-7.97,1.99,1.06,1.26,1.78,0.33
7.763792872428894,2,3,3,3,-7.53,1.96,0.59,2.21,2.16,0.77
7.773792862892151,2,3,3,3,-7.47,2.05,0.7,2.78,2.51,1.33
7.783792853355408,2,3,3,3,-7.33,2.19,0.84,2.1,2.4,1.76
7.793793082237244,2,3,3,3,-7.18,2.51,0.97,1.36,1.49,2.11
7.8037930727005,2,3,3,3,-6.74,3.05,0.61,1.47,0.19,2.29
7.813793063163757,2,3,3,3,-6.47,3.25,0.61,2.03,-0.88,2.31
7.823793053627014,2,3,3,3,-6.17,3.41,0.6899999999999999,2.64,-1.45,2.28
7.833793044090271,2,3,3,3,-5.92,3.37,0.58,2.83,-1.7,2.39
7.843793034553528,2,3,3,3,-5.17,2.7,-0.27,2.79,-2.31,2.65
7.853793025016785,2,3,3,3,-4.99,2.52,-0.07000000000000001,2.31,-2.74,3.13
7.863793015480042,2,3,3,3,-4.96,2.52,0.65,0.41,-2.56,3.63
7.873793005943298,2,3,3,3,-5.06,2.68,1.48,-1.48,-2.54,3.95
7.883792996406555,2,3,3,3,-4.82,2.79,0.49,-1.37,-3.32,3.99
7.893792986869812,2,3,3,3,-4.67,2.28,-0.46,0.5600000000000001,-3.83,3.73
7.903792977333069,2,3,3,3,-5.31,1.5,0,0.7,-1.98,3.55
7.913792967796326,2,3,3,3,-7.37,-0.03,3.05,-3.18,1.5,3.26
7.933792948722839,2,3,3,3,-9.57,0.1,4.28,-6.81,-1.85,0.82
7.943792939186096,2,3,3,3,-10.16,-0.01,3.3,-6.81,-1.85,0.82
7.953792929649353,2,3,3,3,-10.94,-0.5600000000000001,1.93,-2.55,-1.94,-0.24
7.96379292011261,2,3,3,3,-11.11,-0.82,2.16,1.65,3.51,-0.5600000000000001
7.973792910575867,2,3,3,3,-11.3,-0.77,1.94,2.32,4.36,0.33
7.983792901039124,2,3,3,3,-11.69,-0.17,1.67,2.51,3.74,1.25
7.99379289150238,2,3,3,3,-13.48,0.86,2.44,1.59,2.31,1.44
8.003792881965637,2,3,3,3,-14.39,1.17,3.43,1.77,0.33,0.41
8.013792872428894,2,3,3,3,-15.62,1.85,4.08,3.42,-2.07,-0.63
8.023792862892151,2,3,3,3,-16.57,2.21,3.78,3.39,-3.61,-1.4
8.033792853355408,2,3,3,3,-19.48,2.37,4.89,2.44,-2.45,-2.47
8.043793082237244,2,3,3,3,-20.95,2.25,4.93,0.93,-2.37,-2.61
8.0537930727005,2,3,3,3,-22.48,2.41,4.46,-0.74,-1.28,-2.25
8.063793063163757,2,3,3,3,-22.91,1.99,4.35,-2.83,1.86,-1.31
8.073793053627014,2,3,3,3,-23.21,1.55,4.49,-3.9,3.94,0.22
8.083793044090271,2,3,3,3,-22.93,1.56,5.41,-4.12,4.3,1.37
8.093793034553528,2,3,3,3,-23.23,1.21,6.37,-4.15,2.87,1.42
8.103793025016785,2,3,3,3,-23.42,0.8100000000000001,6.64,-2.74,1.52,0.78
8.113793015480042,2,3,3,3,-24.69,0.28,6.8,-1.47,1.57,-0.28
8.123793005943298,2,3,3,3,-25.67,-0.25,6.75,-2.04,2.39,-1.55
8.133792996406555,2,3,3,3,-26.44,-0.86,6.69,-3.56,3.27,-2.72
8.143792986869812,2,3,3,3,-27.08,-2.75,6.23,-3.86,3.75,-3.97
8.153792977333069,2,3,3,3,-27.17,-3.57,5.81,-2.62,3.68,-5.64
8.163792967796326,2,3,3,3,-26.46,-3.91,5.41,-0.55,3.01,-7.18
8.173792958259583,2,3,3,3,-25.36,-3.64,5.48,1.39,2.52,-8.140000000000001
8.183792948722839,2,3,3,3,-21.62,-1.62,4.85,3.07,0.66,-7.72
8.193792939186096,2,3,3,3,-18.73,-0.4,4.01,5.77,-1.97,-4.89
8.203792929649353,2,3,3,3,-15.84,1.03,2.37,9.92,-3.92,-1.12
8.21379292011261,2,3,3,3,-12.68,2.84,0.51,15.42,-2.27,2.17
8.223792910575867,2,3,3,3,-6.23,5.92,-3.42,19.84,1.66,4.46
8.233792901039124,2,3,3,3,-3.47,7.44,-5.12,22.13,4.1,6.65
8.24379289150238,2,3,3,3,-1,8.01,-5.59,20.45,4.95,8.25
8.253792881965637,2,3,3,3,1.6,9.35,-5.38,17.12,2.25,9.98
8.263792872428894,2,3,3,3,5.64,15.5,-6,17.04,-1.54,12.61
8.273792862892151,2,3,3,3,7.3,17.57,-9.550000000000001,18.08,-5.96,12.52
8.283792853355408,2,3,3,3,6.08,15.91,-10.04,11.89,-3.1,10.37
8.293793082237244,2,3,3,3,6.52,11.39,-8.609999999999999,-2.09,-6.07,5.88
8.3037930727005,2,3,3,3,6.18,3.43,-4.25,-11.58,-6.59,0.41
8.313793063163757,2,3,3,3,3.61,3.32,-0.63,-16.96,-2.25,-4.62
8.323793053627014,2,3,3,3,2.96,2.98,1.88,-21,-1.22,-7.68
8.333793044090271,2,3,3,3,4.87,0.25,1.35,-21.75,1.38,-9.85
8.353793025016785,2,3,3,3,3.19,-2.71,0.47,-19.49,7.36,-10.92
8.363793015480042,2,3,3,3,1.47,-3.75,0.72,-17.33,4.02,-9.140000000000001
8.373793005943298,2,3,3,3,-1.41,-4.17,0.97,-13.35,0.44,-6.84
8.383792996406555,2,3,3,3,-3,-3.89,1.32,-8.99,-0.86,-4.86
8.393792986869812,2,3,3,3,-4.37,-3.54,1.47,-4.61,-1.72,-3.27
8.403792977333069,2,3,3,3,-4.98,-3.23,0.73,0.17,-1.28,-1.92
8.413792967796326,2,3,3,3,-5.16,-3.33,-0.48,3.26,1.1,-0.42
8.423792958259583,2,3,3,3,-5.13,-3.37,-0.45,4.13,2.67,1.68
8.433792948722839,2,3,3,3,-4.43,-2.78,-0.27,4.61,1.82,3.95
8.443792939186096,2,3,3,3,-3.09,-1.97,-0.28,4.61,0.35,5.99
8.453792929649353,2,3,3,3,-0.15,-0.26,0.09,4.23,-0.11,7.43
8.46379292011261,2,3,3,3,0.84,0.39,0.4,4.48,-0.37,8.16
8.473792910575867,2,3,3,3,1.35,0.75,0.33,5.97,-1.38,8.17
8.483792901039124,2,3,3,3,1.52,0.97,0.1,7.54,-2.49,7.73
8.49379289150238,2,3,3,3,1.27,0.89,0.05,7.88,-2.53,7.73
8.503792881965637,2,3,3,3,1.32,0.8100000000000001,-0.08,7.51,-2.63,7.3
8.513792872428894,2,3,3,3,1.67,0.63,-0.31,7.08,-3.29,6.43
8.523792862892151,2,3,3,3,1.78,0.42,-0.39,6.74,-2.82,5.18
8.533792853355408,2,3,3,3,1.46,0.61,0.12,5.98,-1.94,3.83
8.543793082237244,2,3,3,3,0.82,0.8,0.38,5.13,-2.61,2.62
8.5537930727005,2,3,3,3,0.3,1.15,0.38,5,-5.61,2.13
8.563793063163757,2,3,3,3,1.77,1.5,-2.34,5.85,-6.43,1.81
8.573793053627014,2,3,3,3,0.54,1.84,-1.42,4.67,-2.05,1.31
8.583793044090271,2,3,3,3,-0.43,1.51,-0.59,-0.6,-0.44,0.7
8.593793034553528,2,3,3,3,-0.43,1.54,-0.45,-2.72,-1.97,0.02
8.603793025016785,2,3,3,3,-0.43,3,0.55,-3.45,-1.38,-1.07
8.613793015480042,2,3,3,3,-1.19,3.93,2.15,-4.67,0.19,-2.56
8.623793005943298,2,3,3,3,-1.39,5.03,2.68,-4.48,-1.81,-3.61
8.633792996406555,2,3,3,3,-1.33,6.06,0.67,-1.01,-3.77,-4.96
8.643792986869812,2,3,3,3,-5.5,10.6,-0.84,1.34,-1.6,-7.71
8.653792977333069,2,3,3,3,-15.45,13.9,3.98,-5.85,3.46,-12.92
8.663792967796326,2,3,3,3,-25.73,11.87,5.58,-16.96,-1.91,-20.33
8.673792958259583,2,3,3,3,-37.55,12.15,8.119999999999999,-28.7,-19.52,-29.68
8.683792948722839,2,3,3,3,-39.25,-10.88,-2.91,-42.93,-11.49,-30.82
8.693792939186096,2,3,3,3,-39.29,-19.56,0.48,-35.82,24.87,-4.71
8.703792929649353,2,3,3,3,-39.29,-11.86,7.94,-14.69,18.76,2.35
8.714792847633362,2,3,3,3,-24.66,-0.06,6.75,5.34,-5.02,1.54
8.723792910575867,2,3,3,3,-16.31,0.15,7.02,14.64,-0.95,4.49
8.733792901039124,2,3,3,3,-16.55,-1.93,7.22,5.24,7.24,2.63
8.744793057441711,2,3,3,3,-19.86,-3.58,6.95,-1.44,6.09,0.23
8.753792881965637,2,3,3,3,-21.45,-4.98,6.67,-3.9,0.24,-1.22
8.763792872428894,2,3,3,3,-19.87,-4.4,6.62,-1.1,-5.44,-0.95
8.774793028831482,2,3,3,3,-18.28,-2.85,6.22,5.8,-6.72,0.09
8.784793019294739,2,3,3,3,-17.58,-2.08,5.9,8.82,-1.64,1.49
8.794793009757996,2,3,3,3,-18.35,-0.92,4.36,9.050000000000001,4.56,3.16
8.804793000221252,2,3,3,3,-18.37,-0.13,3.04,9.119999999999999,6.95,5.36
8.814792990684509,2,3,3,3,-17.8,0.59,2.28,9.279999999999999,6.51,7.71
8.824792981147766,2,3,3,3,-17.01,1.48,2.11,9.949999999999999,4.95,9.529999999999999
8.834792971611023,2,3,3,3,-13.73,2.85,1.62,10.03,2.21,10.11
8.84479296207428,2,3,3,3,-11.78,3.39,1.29,9.81,-1.68,9.85
8.854792952537537,2,3,3,3,-10.16,3.63,0.99,8.800000000000001,-3.84,8.23
8.864792943000793,2,3,3,3,-8.98,3.8,0.92,6.22,-3.22,6.19
8.87479293346405,2,3,3,3,-7.72,3.85,1.17,4.77,0.4,5.53
8.884792923927307,2,3,3,3,-7.08,3.63,1.16,2.74,2.95,4.44
8.894792914390564,2,3,3,3,-6.12,2.97,0.87,0.57,4.67,3.84
8.904792904853821,2,3,3,3,-4.74,1.95,0.9399999999999999,-0.54,6.23,3.03
8.914792895317078,2,3,3,3,-4.25,1.41,1.09,-1.31,5.93,2.38
8.924792885780334,2,3,3,3,-3.76,1.2,1.08,-0.99,4.24,1.72
8.934792876243591,2,3,3,3,-3.39,1.04,1.12,-0.42,2.56,1.25
8.944792866706848,2,3,3,3,-3,0.75,0.99,-0.01,1.21,0.95
8.954792857170105,2,3,3,3,-2.96,0.83,0.83,0.59,0.5,0.93
8.964792847633362,2,3,3,3,-3.12,0.6,0.65,1.09,-0.15,0.99
8.974793076515198,2,3,3,3,-3.15,0.5600000000000001,0.55,1.66,-0.55,1.07
8.984793066978455,2,3,3,3,-3.15,0.5600000000000001,0.55,2.18,-0.45,0.85
8.994793057441711,2,3,3,3,-3.2,0.91,0.28,2.65,0.13,0.52
9.004793047904968,2,3,3,3,-3.62,1.35,0.09,2.9,0.09,0.18
9.014793038368225,2,3,3,3,-4.13,1.91,0.35,2.83,-0.51,-0.06
9.024793028831482,2,3,3,3,-5.15,2.98,0.55,2.74,-0.89,-0.46
9.034793019294739,2,3,3,3,-5.15,2.98,0.55,2.74,-0.89,-0.46
9.044793009757996,2,3,3,3,-5.91,3.39,0.63,2.61,-0.65,-0.9399999999999999
9.054793000221252,2,3,3,3,-7.88,3.95,0.84,1.44,-0.25,-2.43
9.064792990684509,2,3,3,3,-9.960000000000001,4.28,1.32,0.55,-0.52,-3.4
9.074792981147766,2,3,3,3,-10.85,4.25,1.25,-0.11,-0.91,-4.38
9.084792971611023,2,3,3,3,-10.85,4.25,1.25,-0.11,-0.91,-4.38
9.09479296207428,2,3,3,3,-11.45,4.07,0.96,-0.39,-1.15,-5.34
9.104792952537537,2,3,3,3,-12.42,2.28,0.41,-1.92,-0.02,-6.29
9.114792943000793,2,3,3,3,-12.67,1.34,0.5600000000000001,-3.07,0.98,-6.23
9.12479293346405,2,3,3,3,-12.99,0.66,0.87,-3.49,1.57,-5.49
9.134792923927307,2,3,3,3,-12.99,0.66,0.87,-3.49,1.57,-5.49
9.144792914390564,2,3,3,3,-13.41,0.31,1.58,-2.74,1.44,-4.26
9.154792904853821,2,3,3,3,-12.66,0.71,1.22,-0.02,-0.28,-1.1
9.164792895317078,2,3,3,3,-11.71,1.22,0.9399999999999999,0.71,-0.49,0.5
9.174792885780334,2,3,3,3,-11.71,1.22,0.9399999999999999,-0.02,-0.05,1.89
9.184792876243591,2,3,3,3,-10.06,1.74,0.82,-0.02,-0.05,1.89
9.194792866706848,2,3,3,3,-9.369999999999999,1.85,1.02,-1.4,0.41,2.8
9.204792857170105,2,3,3,3,-8.66,1.89,1.17,-3.22,-0.29,3.53
9.214792847633362,2,3,3,3,-8.02,1.7,1.15,-3.65,-0.63,3.41
9.224793076515198,2,3,3,3,-7.2,1.19,1.56,-3.64,-0.57,2.88
9.234793066978455,2,3,3,3,-7.32,1.02,1.92,-3.64,-0.57,2.88
9.244793057441711,2,3,3,3,-7.51,0.8,2.11,-3.07,-0.51,2.2
9.254793047904968,2,3,3,3,-7.56,0.58,2.08,-0.62,-1.1,1.38
9.264793038368225,2,3,3,3,-7.57,0.52,1.98,0.73,-0.91,1.29
9.274793028831482,2,3,3,3,-7.67,0.64,2.03,1.95,-0.57,1.18
9.284793019294739,2,3,3,3,-7.9,0.86,2.03,1.95,-0.57,1.18
9.294793009757996,2,3,3,3,-8.32,1.14,1.95,3.1,-0.24,0.9
9.304793000221252,2,3,3,3,-9.390000000000001,1.59,1.65,4.31,-0.01,-0.19
9.314792990684509,2,3,3,3,-9.800000000000001,1.64,1.31,3.9,-0.2,-0.77
9.324792981147766,2,3,3,3,-10.08,1.65,1.03,3,-0.33,-1.17
9.334792971611023,2,3,3,3,-10.1,1.63,0.66,3,-0.33,-1.17
9.34479296207428,2,3,3,3,-10.19,1.74,0.71,1.79,-0.17,-1.28
9.354792952537537,2,3,3,3,-10.32,1.91,0.71,0.04,-0.28,-0.87
9.364792943000793,2,3,3,3,-10.45,2.09,0.67,-0.16,-0.6,-0.88
9.37479293346405,2,3,3,3,-10.89,2.41,0.98,-0.07000000000000001,-0.96,-0.98
9.384792923927307,2,3,3,3,-11.02,2.57,1.08,-0.07000000000000001,-0.96,-0.98
9.394792914390564,2,3,3,3,-11.01,2.63,1.05,0.21,-1.41,-1.23
9.404792904853821,2,3,3,3,-10.9,2.67,0.95,-0.02,-2.04,-1.22
9.414792895317078,2,3,3,3,-10.41,2.47,0.59,-0.7,-1.77,-0.88
9.424792885780334,2,3,3,3,-9.960000000000001,2.32,0.66,-1.71,-0.99,-0.43
9.434792876243591,2,3,3,3,-9.58,2.06,0.85,-1.71,-0.99,-0.43
9.444792866706848,2,3,3,3,-9.16,1.8,1.15,-2.83,-0.24,0.09
9.454792857170105,2,3,3,3,-8.67,1.32,1.71,-3.8,0.37,0.62
9.464792847633362,2,3,3,3,-8.68,1.15,1.89,-3.45,0.52,0.35
9.474793076515198,2,3,3,3,-8.85,1.02,2.07,-2.69,0.57,-0.15
9.484793066978455,2,3,3,3,-8.94,0.93,2.19,-2.69,0.57,-0.15
9.494793057441711,2,3,3,3,-9.31,0.76,2.22,-1.86,0.5,-0.62
9.504793047904968,2,3,3,3,-9.48,0.73,2.09,-0.12,0,-1.08
9.514793038368225,2,3,3,3,-9.58,0.73,1.87,0.77,-0.25,-1.06
9.524793028831482,2,3,3,3,-9.699999999999999,0.9399999999999999,1.73,1.56,-0.42,-0.93
9.534793019294739,2,3,3,3,-9.720000000000001,1.08,1.67,1.56,-0.42,-0.93
9.544793009757996,2,3,3,3,-9.710000000000001,1.25,1.58,2.16,-0.6,-0.73
9.554793000221252,2,3,3,3,-9.720000000000001,1.39,1.51,2.92,-0.85,-0.47
9.564792990684509,2,3,3,3,-9.720000000000001,1.64,1.2,3.04,-1.06,-0.52
9.574792981147766,2,3,3,3,-9.85,1.76,1.25,2.8,-1.31,-0.65
9.584792971611023,2,3,3,3,-9.880000000000001,1.86,1.35,2.8,-1.31,-0.65
9.59479296207428,2,3,3,3,-9.890000000000001,1.95,1.46,2.37,-1.54,-0.91
9.604792952537537,2,3,3,3,-9.58,1.96,1.52,1.9,-1.73,-1.16
9.614792943000793,2,3,3,3,-9.369999999999999,1.97,1.47,1.47,-1.81,-1.34
9.62479293346405,2,3,3,3,-9.140000000000001,1.97,1.56,0.95,-1.51,-1.36
9.634792923927307,2,3,3,3,-9.08,1.97,1.71,0.37,-0.84,-1.27
9.644792914390564,2,3,3,3,-9.41,1.93,1.76,0.18,-0.3,-1.05
9.654792904853821,2,3,3,3,-9.66,1.86,1.66,0.41,0.06,-0.85
9.664792895317078,2,3,3,3,-9.869999999999999,1.75,1.42,0.61,0.52,-0.66
9.674792885780334,2,3,3,3,-9.890000000000001,1.65,1.32,0.62,0.82,-0.5
9.684792876243591,2,3,3,3,-9.84,1.52,1.47,0.41,0.97,-0.31
9.694792866706848,2,3,3,3,-9.859999999999999,1.49,1.51,0.13,0.89,-0.11
9.704792857170105,2,3,3,3,-9.85,1.54,1.48,-0.02,0.53,0.14
9.714792847633362,2,3,3,3,-9.85,1.61,1.38,-0.13,0.11,0.28
9.724793076515198,2,3,3,3,-9.630000000000001,1.76,1.36,-0.16,-0.22,0.29
9.734793066978455,2,3,3,3,-9.66,1.76,1.5,-0.14,-0.45,0.14
9.744793057441711,2,3,3,3,-9.630000000000001,1.61,1.56,-0.23,-0.65,-0.04
9.754793047904968,2,3,3,3,-9.5,1.61,1.67,-0.11,-0.79,-0.29
9.764793038368225,2,3,3,3,-9.539999999999999,1.62,1.58,-0.02,-0.9399999999999999,-0.47
9.774793028831482,2,3,3,3,-9.43,1.64,1.43,0.29,-0.98,-0.5600000000000001
9.784793019294739,2,3,3,3,-9.369999999999999,1.71,1.41,0.77,-0.51,-0.7
9.795792937278748,2,3,3,3,-9.550000000000001,1.7,1.37,0.74,-0.13,-0.75
9.815792918205261,2,3,3,3,-9.720000000000001,1.83,1.23,0.31,-0.51,-0.93
9.825792908668518,2,3,3,3,-9.630000000000001,1.85,1.25,-0.2,-1.04,-0.98
9.835792899131775,2,3,3,3,-9.529999999999999,1.9,1.3,-0.58,-1.45,-0.95
9.845792889595032,2,3,3,3,-9.529999999999999,1.94,1.32,-0.72,-1.55,-0.91
9.855792880058289,2,3,3,3,-9.619999999999999,1.92,1.37,-0.9,-1.28,-0.96
9.865792870521545,2,3,3,3,-9.75,1.81,1.38,-1.24,-1.04,-0.98
9.875792860984802,2,3,3,3,-9.69,1.64,1.56,-1.54,-0.9399999999999999,-1
9.885792851448059,2,3,3,3,-9.6,1.58,1.58,-1.66,-0.93,-0.92
9.895793080329895,2,3,3,3,-9.470000000000001,1.55,1.59,-1.62,-0.7,-0.72
9.905793070793152,2,3,3,3,-9.42,1.55,1.64,-1.63,-0.19,-0.46
9.915793061256409,2,3,3,3,-9.65,1.55,1.5,-1.68,0.31,-0.25
9.925793051719666,2,3,3,3,-9.75,1.54,1.51,-1.73,0.57,-0.2
9.935793042182922,2,3,3,3,-9.81,1.46,1.51,-1.79,0.53,-0.18
9.945793032646179,2,3,3,3,-9.85,1.38,1.61,-1.96,0.3,-0.2
9.955793023109436,2,3,3,3,-9.800000000000001,1.33,1.68,-2.14,-0.1,-0.19
9.965793013572693,2,3,3,3,-9.73,1.31,1.66,-2.17,-0.5600000000000001,-0.13
9.97579300403595,2,3,3,3,-9.66,1.28,1.7,-1.95,-0.85,-0.08
9.985792994499207,2,3,3,3,-9.57,1.3,1.74,-1.54,-0.99,-0.05
9.995792984962463,2,3,3,3,-9.550000000000001,1.3,1.77,-1.19,-0.85,-0.01
10.00579297542572,2,3,3,3,-9.529999999999999,1.33,1.75,-0.91,-0.67,-0.02
10.01579296588898,2,3,3,3,-9.48,1.35,1.67,-0.77,-0.45,0
10.02579295635223,2,3,3,3,-9.449999999999999,1.43,1.65,-0.78,-0.24,0
10.03579294681549,2,3,3,3,-9.43,1.51,1.66,-0.87,-0.03,0.01
10.04579293727875,2,3,3,3,-9.470000000000001,1.48,1.65,-1.06,0.14,0
10.055792927742,2,3,3,3,-9.529999999999999,1.48,1.66,-1.41,0.2,-0.09
10.06579291820526,2,3,3,3,-9.67,1.42,1.62,-1.7,0.13,-0.13
10.07579290866852,2,3,3,3,-9.720000000000001,1.32,1.68,-1.93,-0.02,-0.19
10.08579289913177,2,3,3,3,-9.77,1.2,1.76,-2.14,-0.19,-0.25
10.09579288959503,2,3,3,3,-9.77,1.14,1.83,-2.25,-0.33,-0.27
10.10579288005829,2,3,3,3,-9.73,1,1.91,-2.15,-0.43,-0.26
10.11579287052155,2,3,3,3,-9.699999999999999,0.97,1.83,-1.89,-0.52,-0.18
10.1257928609848,2,3,3,3,-9.710000000000001,0.97,1.87,-1.52,-0.44,-0.09
10.13579285144806,2,3,3,3,-9.76,1.04,1.85,-1.16,-0.3,0.01
10.1457930803299,2,3,3,3,-9.710000000000001,1.09,1.81,-0.77,-0.1,0.11
10.15579307079315,2,3,3,3,-9.69,1.09,1.76,-0.47,0.04,0.22
10.16579306125641,2,3,3,3,-9.65,1.18,1.69,-0.39,0.09,0.32
10.17579305171967,2,3,3,3,-9.57,1.22,1.8,-0.45,0.07000000000000001,0.39
10.18579304218292,2,3,3,3,-9.539999999999999,1.23,1.82,-0.51,0.01,0.4
10.19579303264618,2,3,3,3,-9.529999999999999,1.22,1.86,-0.51,-0.07000000000000001,0.34
10.20579302310944,2,3,3,3,-9.49,1.23,1.85,-0.45,-0.15,0.28
10.21579301357269,2,3,3,3,-9.5,1.27,1.79,-0.41,-0.27,0.16
10.22579300403595,2,3,3,3,-9.51,1.29,1.84,-0.36,-0.31,0.07000000000000001
10.23579299449921,2,3,3,3,-9.539999999999999,1.29,1.85,-0.28,-0.36,-0.01
10.24579298496246,2,3,3,3,-9.59,1.27,1.81,-0.16,-0.21,-0.14
10.25579297542572,2,3,3,3,-9.630000000000001,1.24,1.76,-0.16,-0.21,-0.14
10.26579296588898,2,3,3,3,-9.65,1.24,1.72,-0.2,-0.03,-0.1
10.27579295635223,2,3,3,3,-9.65,1.25,1.76,-0.38,0.14,-0.01
10.28579294681549,2,3,3,3,-9.66,1.23,1.78,-0.46,0.12,0.04
10.29579293727875,2,3,3,3,-9.66,1.27,1.82,-0.5,0.03,0.07000000000000001
10.305792927742,2,3,3,3,-9.609999999999999,1.26,1.81,-0.45,-0.14,0.11
10.31579291820526,2,3,3,3,-9.57,1.26,1.72,-0.34,-0.23,0.15
10.32579290866852,2,3,3,3,-9.539999999999999,1.25,1.81,-0.29,-0.2,0.17
10.33579289913177,2,3,3,3,-9.550000000000001,1.26,1.81,-0.28,-0.14,0.17
10.34579288959503,2,3,3,3,-9.57,1.23,1.84,-0.25,-0.05,0.11
10.35579288005829,2,3,3,3,-9.59,1.23,1.88,-0.26,-0.02,0.05
10.36579287052155,2,3,3,3,-9.56,1.24,1.73,-0.18,-0.02,-0.02
10.3757928609848,2,3,3,3,-9.56,1.22,1.77,-0.13,0.08,-0.05
10.38579285144806,2,3,3,3,-9.56,1.22,1.77,-0.04,0.1,-0.08
10.3957930803299,2,3,3,3,-9.59,1.22,1.77,0.13,0.1,-0.03
10.40579307079315,2,3,3,3,-9.58,1.26,1.66,0.3,0.08,0.05
10.41579306125641,2,3,3,3,-9.6,1.23,1.57,0.27,0.16,0.15
10.42579305171967,2,3,3,3,-9.640000000000001,1.21,1.59,0.16,0.2,0.19
10.43579304218292,2,3,3,3,-9.65,1.19,1.64,-0.01,0.16,0.16
10.44579303264618,2,3,3,3,-9.65,1.2,1.74,-0.15,0.1,0.15
10.45579302310944,2,3,3,3,-9.640000000000001,1.12,1.76,-0.25,0.06,0.13
10.46579301357269,2,3,3,3,-9.609999999999999,1.14,1.72,-0.27,0.08,0.18
10.47579300403595,2,3,3,3,-9.609999999999999,1.11,1.74,-0.15,0.16,0.24
10.48579299449921,2,3,3,3,-9.619999999999999,1.16,1.8,0.05,0.19,0.32
10.49579298496246,2,3,3,3,-9.619999999999999,1.21,1.78,0.21,0.22,0.39
10.50579297542572,2,3,3,3,-9.640000000000001,1.22,1.78,0.29,0.15,0.4
10.51579296588898,2,3,3,3,-9.630000000000001,1.25,1.69,0.38,0.11,0.35
10.52579295635223,2,3,3,3,-9.609999999999999,1.31,1.7,0.4,0.07000000000000001,0.27
10.53579294681549,2,3,3,3,-9.59,1.34,1.72,0.37,0.01,0.13
10.54579293727875,2,3,3,3,-9.58,1.38,1.76,0.33,-0.11,0
10.555792927742,2,3,3,3,-9.539999999999999,1.38,1.66,0.36,-0.18,-0.11
10.56579291820526,2,3,3,3,-9.56,1.34,1.63,0.32,-0.24,-0.19
10.57579290866852,2,3,3,3,-9.57,1.32,1.69,0.23,-0.18,-0.35
10.58579289913177,2,3,3,3,-9.58,1.32,1.76,0.22,-0.21,-0.42
10.59579288959503,2,3,3,3,-9.619999999999999,1.26,1.8,0.3,-0.19,-0.51
10.60579288005829,2,3,3,3,-9.66,1.25,1.75,0.39,-0.19,-0.54
10.61579287052155,2,3,3,3,-9.69,1.22,1.71,0.42,-0.17,-0.45
10.6257928609848,2,3,3,3,-9.68,1.22,1.7,0.47,-0.18,-0.36
10.63579285144806,2,3,3,3,-9.699999999999999,1.24,1.76,0.48,-0.14,-0.24
10.6457930803299,2,3,3,3,-9.68,1.26,1.81,0.52,-0.18,-0.17
10.65579307079315,2,3,3,3,-9.67,1.29,1.81,0.5600000000000001,-0.21,-0.13
10.66579306125641,2,3,3,3,-9.630000000000001,1.29,1.73,0.59,-0.19,-0.1
10.67579305171967,2,3,3,3,-9.550000000000001,1.35,1.79,0.59,-0.15,-0.09
10.68579304218292,2,3,3,3,-9.539999999999999,1.34,1.81,0.59,-0.11,-0.07000000000000001
10.69579303264618,2,3,3,3,-9.550000000000001,1.37,1.83,0.64,-0.07000000000000001,-0.04
10.70579302310944,2,3,3,3,-9.57,1.36,1.8,0.7,-0.05,0.01
10.71579301357269,2,3,3,3,-9.6,1.39,1.69,0.65,0.01,0.05
10.72579300403595,2,3,3,3,-9.609999999999999,1.39,1.72,0.57,0.09,0.09
10.73579299449921,2,3,3,3,-9.58,1.36,1.77,0.46,0.09,0.11
10.74579298496246,2,3,3,3,-9.619999999999999,1.39,1.82,0.34,0.05,0.13
10.75579297542572,2,3,3,3,-9.6,1.42,1.74,0.33,0.06,0.18
10.76579296588898,2,3,3,3,-9.619999999999999,1.42,1.68,0.31,0.07000000000000001,0.22
10.77579295635223,2,3,3,3,-9.6,1.4,1.7,0.17,0.15,0.23
10.78579294681549,2,3,3,3,-9.58,1.36,1.82,-0.02,0.19,0.27
10.79579293727875,2,3,3,3,-9.59,1.36,1.86,-0.16,0.18,0.29
10.805792927742,2,3,3,3,-9.619999999999999,1.32,1.88,-0.12,0.16,0.29
10.81579291820526,2,3,3,3,-9.58,1.28,1.81,0,0.18,0.26
10.82679307460785,2,3,3,3,-9.57,1.27,1.85,0.1,0.26,0.29
10.83679306507111,2,3,3,3,-9.59,1.27,1.87,0.19,0.35,0.31
10.84679305553436,2,3,3,3,-9.609999999999999,1.28,1.86,0.26,0.35,0.35
10.85679304599762,2,3,3,3,-9.65,1.3,1.84,0.28,0.32,0.36
10.86679303646088,2,3,3,3,-9.619999999999999,1.29,1.7,0.26,0.29,0.38
10.87679302692413,2,3,3,3,-9.609999999999999,1.28,1.75,0.2,0.27,0.38
10.88679301738739,2,3,3,3,-9.58,1.3,1.8,0.08,0.21,0.39
10.89679300785065,2,3,3,3,-9.59,1.31,1.86,0.01,0.13,0.35
10.9067929983139,2,3,3,3,-9.59,1.31,1.83,0.13,0.11,0.32
10.91679298877716,2,3,3,3,-9.609999999999999,1.31,1.76,0.22,0.13,0.28
10.92679297924042,2,3,3,3,-9.640000000000001,1.35,1.78,0.26,0.2,0.25
10.93679296970367,2,3,3,3,-9.65,1.37,1.75,0.24,0.15,0.25
10.94679296016693,2,3,3,3,-9.640000000000001,1.36,1.79,0.16,0.11,0.2
10.95679295063019,2,3,3,3,-9.58,1.33,1.79,0.03,0.08,0.2
10.96679294109344,2,3,3,3,-9.56,1.35,1.71,-0.05,0,0.18
10.9767929315567,2,3,3,3,-9.550000000000001,1.27,1.77,-0.07000000000000001,0.01,0.17
10.98679292201996,2,3,3,3,-9.56,1.26,1.83,-0.04,0.09,0.09
10.99679291248322,2,3,3,3,-9.6,1.28,1.85,0,0.1,0.04
11.00679290294647,2,3,3,3,-9.609999999999999,1.27,1.82,0.17,0.09,0.01
11.01679289340973,2,3,3,3,-9.640000000000001,1.31,1.67,0.29,0.11,0
11.02679288387299,2,3,3,3,-9.609999999999999,1.33,1.72,0.27,0.11,-0.02
11.03679287433624,2,3,3,3,-9.58,1.33,1.74,0.21,0.11,0
11.0467928647995,2,3,3,3,-9.58,1.33,1.77,0.12,0.07000000000000001,0.04
11.05679285526276,2,3,3,3,-9.56,1.33,1.78,0.08,0.01,0.04
11.06679308414459,2,3,3,3,-9.57,1.35,1.72,0.06,-0.07000000000000001,0.05
11.07679307460785,2,3,3,3,-9.6,1.36,1.77,0.17,-0.04,0
11.08679306507111,2,3,3,3,-9.58,1.35,1.78,0.19,0,-0.02
11.09679305553436,2,3,3,3,-9.56,1.33,1.82,0.22,0.05,-0.06
11.10679304599762,2,3,3,3,-9.56,1.37,1.79,0.27,0.09,0.01
11.11679303646088,2,3,3,3,-9.550000000000001,1.38,1.69,0.31,0.06,0.06
11.12679302692413,2,3,3,3,-9.59,1.43,1.71,0.41,0.04,0.13
11.13679301738739,2,3,3,3,-9.609999999999999,1.46,1.71,0.49,0.03,0.14
11.14679300785065,2,3,3,3,-9.65,1.49,1.73,0.49,0.01,0.13
11.1567929983139,2,3,3,3,-9.65,1.54,1.75,0.43,0,0.09
11.16679298877716,2,3,3,3,-9.6,1.6,1.61,0.32,-0.03,0.07000000000000001
11.17679297924042,2,3,3,3,-9.58,1.59,1.7,0.19,0,0.05
11.18679296970367,2,3,3,3,-9.65,1.61,2.04,-0.05,-0.1,0.05
11.19679296016693,2,3,3,3,-9.74,1.62,2.41,-0.55,-0.85,-0.04
11.20679295063019,2,3,3,3,-9.140000000000001,1.43,1.55,-1.07,-2.04,-0.15
11.21679294109344,2,3,3,3,-9.19,1.55,1.28,-0.78,-1.98,-0.1
11.2267929315567,2,3,3,3,-9.31,1.56,1.72,-0.63,-1.53,0.13
11.23679292201996,2,3,3,3,-9.06,1.25,1.82,-1.02,-1.64,0.38
11.24679291248322,2,3,3,3,-9.06,1.25,1.82,-0.35,-0.73,0.44
11.25679290294647,2,3,3,3,-9.130000000000001,1.11,1.57,0.14,0.4,0.21
11.26679289340973,2,3,3,3,-9.74,0.86,2.03,-0.18,0.54,0.01
11.27679288387299,2,3,3,3,-9.99,0.68,1.62,0.03,-0.07000000000000001,-0.04
11.28679287433624,2,3,3,3,-9.56,0.6,1.3,0.85,-1.12,0.45
11.2967928647995,2,3,3,3,-9.56,0.6,1.3,0.85,-1.12,0.45
11.30679285526276,2,3,3,3,-9.470000000000001,0.72,0.88,2.06,-1.39,1.16
11.31679308414459,2,3,3,3,-10.17,1.13,1.17,2.82,-0.21,1.86
11.32679307460785,2,3,3,3,-10.08,1.48,1.14,2.76,-0.78,1.93
11.33679306507111,2,3,3,3,-10.09,1.62,1.07,2.97,-0.96,1.72
11.34679305553436,2,3,3,3,-10.09,1.62,1.07,2.97,-0.96,1.72
11.35679304599762,2,3,3,3,-10.12,1.68,1,2.7,-0.82,1.39
11.36679303646088,2,3,3,3,-9.98,1.67,0.84,2.13,-0.73,0.9399999999999999
11.37679302692413,2,3,3,3,-9.91,1.65,0.99,1.79,-0.68,0.84
11.38679301738739,2,3,3,3,-9.91,1.65,0.99,1.56,-0.6,0.67
11.39679300785065,2,3,3,3,-9.890000000000001,1.61,1.07,1.56,-0.6,0.67
11.4067929983139,2,3,3,3,-9.949999999999999,1.63,1.17,1.29,-0.52,0.44
11.41679298877716,2,3,3,3,-9.85,1.68,1.05,0.73,-0.55,0.13
11.42679297924042,2,3,3,3,-9.779999999999999,1.74,0.95,0.17,-0.46,0.09
11.43679296970367,2,3,3,3,-9.75,1.76,1.08,-0.39,-0.52,0.06
11.44679296016693,2,3,3,3,-9.550000000000001,1.72,1.13,-0.39,-0.52,0.06
11.45679295063019,2,3,3,3,-9.48,1.72,1.12,-0.68,-0.45,0.07000000000000001
11.46679294109344,2,3,3,3,-9.470000000000001,1.71,1.09,-1.46,0.04,0.09
11.4767929315567,2,3,3,3,-9.449999999999999,1.65,1.01,-1.91,0.19,0.06
11.48679292201996,2,3,3,3,-9.6,1.54,1.13,-2.21,0.26,0.02
11.49679291248322,2,3,3,3,-9.73,1.48,1.17,-2.21,0.26,0.02
11.50679290294647,2,3,3,3,-9.859999999999999,1.43,1.25,-2.48,0.22,-0.05
11.52679288387299,2,3,3,3,-10.26,1.3,1.41,-2.7,-0.32,-0.51
11.53679287433624,2,3,3,3,-10.31,1.32,1.49,-2.3,-0.62,-0.55
11.55679285526276,2,3,3,3,-10.36,1.43,1.6,-1.94,-0.95,-0.53
11.56679308414459,2,3,3,3,-10.36,1.55,1.64,-1.66,-1.5,-0.47
11.57679307460785,2,3,3,3,-10.41,1.67,1.68,-1.83,-1.85,-0.44
11.58679306507111,2,3,3,3,-10.46,1.8,1.87,-2.02,-2.27,-0.55
11.59679305553436,2,3,3,3,-10.54,2,2.11,-2.02,-2.27,-0.55
11.60679304599762,2,3,3,3,-10.47,2.07,2.19,-1.98,-2.72,-0.6899999999999999
11.61679303646088,2,3,3,3,-10.38,2.15,2.23,-1.71,-3.62,-0.98
11.62679302692413,2,3,3,3,-10.16,2.16,2.02,-1.35,-3.9,-1.03
11.63679301738739,2,3,3,3,-9.16,2.02,1.83,-1.42,-3.57,-1
11.64679300785065,2,3,3,3,-8.630000000000001,1.9,1.93,-1.42,-3.57,-1
11.6567929983139,2,3,3,3,-8.16,1.74,2.23,-2.39,-2.8,-0.8100000000000001
11.66679298877716,2,3,3,3,-7.95,1.56,2.79,-5.68,-2.04,-0.41
11.67679297924042,2,3,3,3,-8.06,1.4,3.63,-6.22,-3.14,-0.38
11.68679296970367,2,3,3,3,-7.74,1.25,3.56,-5.37,-4.01,-0.6
11.69679296016693,2,3,3,3,-7.4,0.89,3.4,-5.37,-4.01,-0.6
11.70679295063019,2,3,3,3,-7.5,0.46,3.5,-4.41,-3.63,-1.22
11.71679294109344,2,3,3,3,-8.640000000000001,-0.05,4.49,-4.17,-2.75,-2.76
11.7267929315567,2,3,3,3,-9.140000000000001,-0.23,4.34,-3.25,-3.29,-3.17
11.73679292201996,2,3,3,3,-9.609999999999999,-0.37,4.08,-2.32,-3.43,-3.37
11.74679291248322,2,3,3,3,-10.44,-0.4,3.74,-2.32,-3.43,-3.37
11.75679290294647,2,3,3,3,-10.67,-0.43,3.61,-1.85,-3.33,-3.04
11.76679289340973,2,3,3,3,-10.78,-0.43,3.32,-0.83,-2.69,-1.41
11.77679288387299,2,3,3,3,-10.73,-0.34,3.09,-0.75,-1.85,-0.39
11.78679287433624,2,3,3,3,-10.44,-0.16,3.1,-0.9,-1.73,0.73
11.7967928647995,2,3,3,3,-10.18,-0.01,3.25,-0.9,-1.73,0.73
11.80679285526276,2,3,3,3,-9.91,0.09,3.41,-1.08,-2.07,1.58
11.81679308414459,2,3,3,3,-9.630000000000001,0.11,3.48,-1.06,-2.52,1.91
11.82679307460785,2,3,3,3,-8.869999999999999,0.24,3.47,-0.64,-2.86,1.83
11.83679306507111,2,3,3,3,-8.51,0.14,3.48,-0.35,-3.06,1.39
11.84779298305511,2,3,3,3,-8.34,0.23,3.56,-0.1,-2.81,0.6899999999999999
11.85779297351837,2,3,3,3,-8.33,0.11,3.67,-0.11,-2.34,0.01
11.86779296398163,2,3,3,3,-8.31,-0.01,3.61,-0.06,-2.13,-0.57
11.87779295444489,2,3,3,3,-8.18,-0.04,3.36,0.31,-2.13,-0.91
11.88779294490814,2,3,3,3,-8.08,-0.09,3.32,0.7,-1.95,-1.04
11.8977929353714,2,3,3,3,-8.109999999999999,-0.19,3.35,0.71,-1.72,-1.07
11.90779292583466,2,3,3,3,-8.24,-0.27,3.55,0.48,-1.53,-1.03
11.91779291629791,2,3,3,3,-8.32,-0.29,3.66,0.43,-1.47,-0.89
11.92779290676117,2,3,3,3,-8.41,-0.27,3.69,0.5600000000000001,-1.7,-0.73
11.93779289722443,2,3,3,3,-8.449999999999999,-0.33,3.83,0.88,-2.15,-0.5600000000000001
11.94779288768768,2,3,3,3,-8.390000000000001,-0.34,3.78,1.44,-2.4,-0.5
11.95779287815094,2,3,3,3,-8.31,-0.36,3.64,2.14,-2.31,-0.41
11.9677928686142,2,3,3,3,-8.460000000000001,-0.38,3.66,2.64,-1.71,-0.45
11.97779285907745,2,3,3,3,-8.630000000000001,-0.46,3.49,2.83,-1.08,-0.44
11.98779284954071,2,3,3,3,-8.56,-0.39,3.42,2.86,-0.5600000000000001,-0.47
11.99779307842255,2,3,3,3,-8.529999999999999,-0.49,3.43,2.9,0.02,-0.48
12.0077930688858,2,3,3,3,-8.68,-0.53,3.51,2.82,0.41,-0.53
12.01779305934906,2,3,3,3,-8.99,-0.52,3.55,2.79,0.63,-0.57
12.02779304981232,2,3,3,3,-8.949999999999999,-0.49,3.41,2.72,0.5,-0.68
12.03779304027557,2,3,3,3,-8.949999999999999,-0.52,3.44,2.81,0.32,-0.75
12.04779303073883,2,3,3,3,-8.93,-0.54,3.52,2.76,0.17,-0.72
12.05779302120209,2,3,3,3,-8.890000000000001,-0.52,3.77,2.7,0.4,-0.79
12.06779301166534,2,3,3,3,-8.880000000000001,-0.52,3.82,2.74,0.62,-0.9
12.0777930021286,2,3,3,3,-8.880000000000001,-0.57,3.78,2.99,0.57,-1.07
12.08779299259186,2,3,3,3,-8.960000000000001,-0.59,3.84,3.38,0.5,-1.24
12.09779298305511,2,3,3,3,-9.25,-0.57,3.89,3.79,0.51,-1.44
12.10779297351837,2,3,3,3,-9.34,-0.52,3.89,4.32,0.5600000000000001,-1.63
12.11779296398163,2,3,3,3,-9.369999999999999,-0.44,3.88,4.66,0.8100000000000001,-1.76
12.12779295444489,2,3,3,3,-9.380000000000001,-0.42,3.8,4.73,1.11,-1.75
12.13779294490814,2,3,3,3,-9.199999999999999,-0.45,3.93,4.77,1.37,-1.68
12.1477929353714,2,3,3,3,-9.08,-0.59,4.04,4.73,1.35,-1.54
12.15779292583466,2,3,3,3,-8.949999999999999,-0.71,4.24,4.79,1.11,-1.42
12.16779291629791,2,3,3,3,-9.19,-0.92,4.81,4.95,0.89,-1.47
12.17779290676117,2,3,3,3,-9.25,-1.07,4.71,5.38,0.51,-1.74
12.18779289722443,2,3,3,3,-9.279999999999999,-1.12,4.73,6.24,-0.18,-2.22
12.19779288768768,2,3,3,3,-9.539999999999999,-1.26,5.02,6.8,-0.2,-2.78
12.20779287815094,2,3,3,3,-10.47,-1.27,5.31,6.74,-0.03,-3.33
12.2177928686142,2,3,3,3,-10.95,-1,5.29,7.07,-0.24,-3.81
12.22779285907745,2,3,3,3,-11.45,-0.65,5.22,8.02,-1.22,-4.03
12.23779284954071,2,3,3,3,-11.92,0.02,5.31,9.390000000000001,-2.58,-4.18
12.24779307842255,2,3,3,3,-12.6,0.77,4.51,10.08,-3.53,-4.1
12.2577930688858,2,3,3,3,-12.56,2.6,3.98,10.93,-3.83,-3.04
12.26779305934906,2,3,3,3,-12.75,2.87,3.49,11.49,-3.38,-2.54
12.27779304981232,2,3,3,3,-13,3.03,3.21,9.17,-3.32,-1.85
12.28779304027557,2,3,3,3,-12.26,2.95,3.72,6.63,-2.8,-0.45
12.29779303073883,2,3,3,3,-11.29,2.11,3.97,3.63,-2.46,0.84
12.30779302120209,2,3,3,2,-9.76,1.34,4.46,-0.08,-2.94,0.89
12.31779301166534,2,3,3,2,-8.58,0.97,5.23,-3.26,-3.33,-0.64
12.3277930021286,2,3,3,2,-7.19,0.9399999999999999,5.6,-4.38,-3.52,-2.46
12.33779299259186,2,3,3,2,-7.09,0.73,5.47,-3.11,-3.38,-3.64
12.34779298305511,2,3,3,2,-7.09,0.5600000000000001,4.9,-1.29,-2.22,-4.18
12.35779297351837,2,3,3,2,-8.050000000000001,0,3.99,-0.37,-0.33,-3.74
12.36779296398163,2,3,3,2,-8.57,-0.01,3.3,-0.35,1.82,-2.68
12.37779295444489,2,3,3,2,-8.789999999999999,0.04,2.39,-0.37,2.58,-1.27
12.38779294490814,2,3,3,2,-9.27,0.62,2.29,0.28,2.98,0.24
12.3977929353714,2,3,3,2,-10.1,1.66,1.26,0.54,3.39,1.67
12.40779292583466,2,3,3,2,-10.33,2.08,1.09,1.24,3.3,3.02
12.41779291629791,2,3,3,2,-10.62,2.53,1.09,1.89,4.15,3.89
12.42779290676117,2,3,3,2,-10.29,2.67,1.02,1.79,4.79,4.29
12.43779289722443,2,3,3,2,-9.42,3.04,0.91,1.84,4.41,4.38
12.44779288768768,2,3,3,2,-8.960000000000001,2.93,0.83,2.09,3.71,4.33
12.45779287815094,2,3,3,2,-8.609999999999999,3.01,0.88,2.04,3.11,4.09
12.4677928686142,2,3,3,2,-8.279999999999999,2.98,0.93,1.95,2.76,3.6
12.47779285907745,2,3,3,2,-7.81,2.84,1.12,1.97,2.36,2.89
12.48779284954071,2,3,3,2,-7.58,2.84,1.17,2.02,1.76,2.01
12.49779307842255,2,3,3,2,-7.43,2.76,1,1.74,1.6,1.1
12.5077930688858,2,3,3,2,-7.29,2.64,0.92,1.41,1.39,0.4
12.51779305934906,2,3,3,2,-7.48,2.78,1.07,1.21,1.82,-0.11
12.52779304981232,2,3,3,2,-7.69,2.84,1.04,0.8100000000000001,2.24,-0.17
12.53779304027557,2,3,3,2,-8,3.04,1.06,0.23,2.39,0.16
12.54779303073883,2,3,3,2,-8.49,3.36,1.06,-0.35,2.82,0.73
12.55779302120209,2,3,3,2,-8.720000000000001,3.56,1.08,-2.38,3.87,1.89
12.56779301166534,2,3,3,2,-8.83,3.64,0.83,-2.38,3.87,1.89
12.5777930021286,2,3,3,2,-9.07,3.81,0.6899999999999999,-3.34,4.26,2.53
12.58779299259186,2,3,3,2,-9.539999999999999,3.71,0.8,-5.92,5.01,3.37
12.59779298305511,2,3,3,2,-9.6,3.55,0.8100000000000001,-7.05,5.04,3.29
12.60779297351837,2,3,3,2,-9.640000000000001,3.31,0.82,-8.470000000000001,4.93,2.72
12.61779296398163,2,3,3,2,-9.66,2.7,0.86,-10.11,4.79,1.95
12.62779295444489,2,3,3,2,-9.539999999999999,1.76,1.26,-11.35,4.53,1.23
12.63779294490814,2,3,3,2,-9.5,1.27,1.47,-12.22,3.95,0.55
12.66779291629791,2,3,3,2,-9.109999999999999,-0.88,2.03,-11.36,3.38,-1.25
12.69779288768768,2,3,3,2,-9.199999999999999,-1.6,2.28,-6.07,3.4,-1.34
12.70779287815094,2,3,3,2,-9.67,-1.24,2.27,-3.71,3.41,-0.73
12.7177928686142,2,3,3,2,-10.07,-0.85,2.25,-1.39,3.3,-0.09
12.72779285907745,2,3,3,2,-10.35,-0.45,2,0.55,3.1,0.66
12.73779284954071,2,3,3,2,-10.43,0.61,1.92,1.66,2.82,1.67
12.74779307842255,2,3,3,2,-10.32,1.05,1.7,1.87,2.51,2.92
12.7577930688858,2,3,3,2,-10.21,1.33,1.51,1.58,2.25,4.29
12.76779305934906,2,3,3,2,-9.98,1.6,1.45,0.82,2,5.5
12.77779304981232,2,3,3,2,-9.880000000000001,1.67,1.48,-0.1,1.55,6.27
12.78779304027557,2,3,3,2,-9.82,1.67,1.68,-0.89,1.01,6.36
12.79779303073883,2,3,3,2,-9.65,1.66,1.84,-1.55,0.41,6.1
12.80779302120209,2,3,3,2,-9.48,1.61,1.92,-1.99,0.14,5.54
12.81779301166534,2,3,3,2,-9.23,1.43,2.01,-2.67,-0.06,4.83
12.8277930021286,2,3,3,2,-9.18,1.27,2.03,-3.29,-0.41,4.09
12.83779299259186,2,3,3,2,-9.130000000000001,1.08,2.1,-3.78,-0.64,3.37
12.84779298305511,2,3,3,2,-9.18,0.96,2.14,-4.23,-0.74,2.66
12.85779297351837,2,3,3,2,-9.1,0.43,1.98,-4.57,-0.74,1.95
12.86779296398163,2,3,3,2,-9.08,0.17,1.86,-4.91,-0.65,1.35
12.87879288196564,2,3,3,2,-9.15,-0.02,1.71,-5.18,-0.5600000000000001,0.98
12.88879287242889,2,3,3,2,-9.26,-0.19,1.73,-5.51,-0.35,0.9
12.89879286289215,2,3,3,2,-9.48,-0.36,1.8,-5.63,-0.11,1.05
12.90879285335541,2,3,3,2,-9.699999999999999,-0.27,1.88,-5.71,0.15,1.29
12.91879308223724,2,3,3,2,-9.710000000000001,-0.31,1.75,-5.97,0.19,1.65
12.9287930727005,2,3,3,2,-9.77,-0.32,1.43,-6.08,0.36,2.11
12.93879306316376,2,3,3,2,-9.779999999999999,-0.39,1.72,-6.45,0.77,2.67
12.94879305362701,2,3,3,2,-9.85,-0.44,1.91,-6.57,1.11,3.22
12.95879304409027,2,3,3,2,-9.93,-0.51,1.87,-6.02,1.37,3.56
12.96879303455353,2,3,3,2,-10.21,-0.6899999999999999,2.27,-6.15,1.65,3.65
12.97879302501678,2,3,3,2,-10.33,-0.52,2.32,-5.55,1.69,3.56
12.98879301548004,2,3,3,2,-10.5,-0.28,2.34,-4.64,1.6,3.4
12.9987930059433,2,3,3,2,-10.63,-0.05,2.19,-3.85,1.52,3.21
13.00879299640656,2,3,3,2,-10.83,0.17,2.64,-3.71,1.58,2.99
13.01879298686981,2,3,3,2,-10.96,0.33,2.96,-4.03,1.59,2.68
13.02879297733307,2,3,3,2,-11.07,0.44,2.83,-3.87,1.57,2.29
13.03879296779633,2,3,3,2,-11.1,0.45,2.54,-3.16,1.99,1.8
13.04879295825958,2,3,3,2,-10.94,0.35,2.46,-2.56,3.28,1.29
13.05879294872284,2,3,3,1,-11.47,0.21,2.48,-1.62,5.22,0.7
13.0687929391861,2,3,3,1,-11.8,0.3,2.6,-0.25,5.79,0.1
13.07879292964935,2,3,3,1,-11.85,0.48,2.29,0.88,6.3,-0.32
13.08879292011261,2,3,3,1,-12.45,0.97,0.75,1.86,7.47,-0.76
13.09879291057587,2,3,3,1,-12.82,1,0.55,1.96,7.13,-0.86
13.10879290103912,2,3,3,1,-12.86,1.47,0.78,1.83,6.05,-0.01
13.11879289150238,2,3,3,1,-13.11,2.38,0.99,3,5.07,0.21
13.12879288196564,2,3,3,1,-12.09,3.77,0.54,4.04,3.89,-0.08
13.13879287242889,2,3,3,1,-11.48,4.58,1.17,2.9,3.72,-1.04
13.14879286289215,2,3,3,1,-10.53,5.27,1.34,1.13,1.91,-1.64
13.15879285335541,2,3,3,1,-8.81,5.72,0.93,0.97,1.2,-1.64
13.16879308223724,2,3,3,1,-8.35,5.76,0.72,0.55,2.18,-2.19
13.1787930727005,2,3,3,1,-7.89,5.69,0.7,-1.29,2.1,-3.09
13.18879306316376,2,3,3,1,-7.55,5.49,1,-3.1,2.12,-4.04
13.19879305362701,2,3,3,1,-7.39,4.24,1.51,-4.77,2.95,-5.05
13.20879304409027,2,3,3,1,-7.73,3.51,1.66,-5.92,3.93,-6.17
13.21879303455353,2,3,3,1,-8.300000000000001,2.71,2.03,-6.59,4.43,-7.43
13.22879302501678,2,3,3,1,-8.609999999999999,2.02,2.35,-6.46,4.02,-8.69
13.23879301548004,2,3,3,1,-9.69,0.97,3.2,-5.74,1.51,-9.69
13.2487930059433,2,3,3,1,-9.949999999999999,0.91,3.17,-4.16,-2.55,-10.38
13.25879299640656,2,3,3,0,-9.98,0.97,2.76,-2.13,-5.97,-10.53
13.26879298686981,2,3,3,0,-10.13,1.07,2.32,-0.64,-7.51,-10.4
13.27879297733307,2,3,3,0,-10.72,1.29,1.83,-0.04,-8.01,-9.9
13.28879296779633,2,3,3,0,-10.8,1.33,1.7,0.02,-8.26,-8.99
13.29879295825958,2,3,3,0,-10.78,1.23,1.58,0.04,-8.16,-7.95
13.30879294872284,2,3,3,0,-10.78,1.23,1.58,0.12,-8,-6.63
13.3187929391861,2,3,3,0,-10.68,1.25,1.66,0.11,-8.33,-5.22
13.32879292964935,2,3,3,0,-10.06,1.1,2.53,-0.31,-9.380000000000001,-3.71
13.33879292011261,2,3,3,0,-9.69,1.14,2.5,-0.09,-11.45,-2.39
13.34879291057587,2,3,3,0,-7.36,1.08,0.77,2.25,-12.82,-1.22
13.35879290103912,2,3,3,0,-7.36,1.08,0.77,4.41,-10.51,-0.49
13.36879289150238,2,3,3,0,-7.58,1.23,1.28,3.42,-7.96,-0.22
13.37879288196564,2,3,3,0,-7.25,1.11,1.97,2.31,-6.97,-0.08
13.38879287242889,2,3,3,0,-6.87,1.49,2.18,2.22,-6.43,0.04
13.39879286289215,2,3,3,0,-7.15,1.41,2.3,1.69,-4.9,0.04
13.40879285335541,2,3,3,0,-7.15,1.41,2.3,0.84,-3.47,-0.26
13.41879308223724,2,3,3,0,-7.36,1.31,2.5,0.03,-2.82,-0.67
13.4287930727005,2,3,3,0,-7.82,0.84,2.7,-0.61,-2.07,-1.18
13.43879306316376,2,3,3,0,-8.19,0.43,2.78,-1.27,-1.34,-1.62
13.44879305362701,2,3,3,0,-8.48,0.27,2.92,-1.41,-0.91,-1.91
13.45879304409027,2,3,3,0,-8.48,0.27,2.92,-1.41,-0.91,-1.91
13.46879303455353,2,3,3,0,-8.630000000000001,-0.01,3,-1.13,-1.41,-2.06
13.47879302501678,2,3,3,0,-8.529999999999999,-0.67,2.92,0.86,-1.81,-2.01
13.48879301548004,2,3,3,0,-8.44,-0.55,2.96,2.2,-1.14,-1.87
13.4987930059433,2,3,3,0,-8.5,-0.61,2.97,3.13,-0.5,-1.71
13.50879299640656,2,3,3,0,-8.5,-0.61,2.97,3.64,0.04,-1.44
13.51879298686981,2,3,3,0,-8.19,-0.88,2.87,4.14,0.98,-0.92
13.52879297733307,2,3,3,0,-8.130000000000001,-0.9399999999999999,2.95,4.08,1.81,-0.42
13.53879296779633,2,3,3,0,-8.199999999999999,-1,3.1,3.69,2.08,-0.17
13.54879295825958,2,3,3,0,-8.25,-1.08,3.57,3.26,2.11,-0.15
13.55879294872284,2,3,3,0,-8.25,-1.08,3.57,3.26,2.11,-0.15
13.5687929391861,2,3,3,0,-8.31,-1.16,3.81,2.9,1.72,-0.14
13.57879292964935,2,3,3,0,-8.49,-1.45,3.91,3.17,0.74,-0.34
13.58879292011261,2,3,3,0,-8.42,-1.65,3.62,3.8,0.12,-0.76
13.59879291057587,2,3,3,0,-8.359999999999999,-1.86,3.35,5,0.16,-1.08
13.60879290103912,2,3,3,0,-8.359999999999999,-1.86,3.35,5,0.16,-1.08
13.61879289150238,2,3,3,0,-8.52,-1.88,3.48,5.92,0.99,-1.16
13.62879288196564,2,3,3,0,-8.94,-1.67,3.65,7.24,0.99,-0.92
13.63879287242889,2,3,3,0,-9.029999999999999,-1.45,3.44,8.67,0.61,-0.6899999999999999
13.64879286289215,2,3,3,0,-9.15,-1.17,3.49,10.57,0.28,-0.67
13.65879285335541,2,3,3,0,-9.56,-0.78,3.6,10.57,0.28,-0.67
13.66879308223724,2,3,3,0,-10.05,-0.27,2.97,12.9,-0.58,-0.65
13.6787930727005,2,3,3,0,-10.36,0.01,2.69,14.83,-0.08,-0.08
13.68879306316376,2,3,3,0,-10.79,0.25,2.28,13.08,0.63,0.34
13.69879305362701,2,3,3,0,-10.88,0.21,1.9,9.9,1.49,0.46
13.71879303455353,2,3,3,0,-10.51,-0.53,3.4,6.08,2.1,-0.05
13.72879302501678,2,3,3,0,-10.19,-1.07,3.89,1.1,1.09,-3.38
13.73879301548004,2,3,3,0,-10.17,-1.57,4.58,1.24,-1.18,-5.68
13.7487930059433,2,3,3,0,-10.48,-2.23,5.53,4.99,-4.64,-7.64
13.75879299640656,2,3,3,0,-10.75,-1.69,5.69,4.99,-4.64,-7.64
13.76879298686981,2,3,3,0,-11.23,-1.04,4.9,10.92,-6.98,-8.609999999999999
13.77879297733307,2,3,3,0,-14.8,-0.32,4.41,13.77,-4.62,-9.210000000000001
13.78879296779633,2,3,3,0,-16.9,1.25,4.17,13.21,-3.69,-7.12
13.79879295825958,2,3,3,0,-18.17,3.44,2.14,12.53,-2.08,-2.77
13.80879294872284,2,3,3,0,-19.23,5.14,0.42,12.53,-2.08,-2.77
13.8187929391861,2,3,3,0,-16.51,5.05,0.05,7.93,0.15,3.06
13.82879292964935,2,3,3,0,-12.98,4.88,2.45,-5.52,-4.58,9.18
13.83879292011261,2,3,3,0,-9.74,4.83,4.15,-6.82,-8.07,8.18
13.84879291057587,2,3,3,0,-7.62,4.3,4.9,-5.64,-7.32,5.28
13.85879290103912,2,3,3,0,-5.39,2.35,4.87,-5.64,-7.32,5.28
13.86879289150238,2,3,3,0,-5,1.13,3.72,-3.28,-5.3,2.11
13.87879288196564,2,3,3,0,-5.29,0.29,2.86,3.89,2.37,-1.59
13.88879287242889,2,3,3,0,-6.08,-0.23,2.05,6.48,4.21,-1.86
13.89979302883148,2,3,3,0,-7.8,0,0.3,7.57,4.9,-1.2
13.90979301929474,2,3,3,0,-8.67,0.63,-0.29,7.57,4.9,-1.2
13.919793009758,2,3,3,0,-9.6,1.44,-0.47,7.02,4.8,-0.04
13.92979300022125,2,3,3,0,-10.26,2.36,-0.14,5.03,0.38,1.64
13.93979299068451,2,3,3,0,-10.13,3.28,0.36,4.46,-2.33,1.62
13.94979298114777,2,3,3,0,-9.43,3.26,0.67,4.14,-3.05,1.12
13.95979297161102,2,3,3,0,-8.77,3.41,1.06,4.14,-3.05,1.12
13.96979296207428,2,3,3,0,-7.73,3.35,1.57,3.78,-2.52,0.84
13.97979295253754,2,3,3,0,-7.4,3.17,1.46,3.58,-0.83,1.29
13.98979294300079,2,3,3,0,-7.14,3.09,1.44,3.5,-0.17,1.63
13.99979293346405,2,3,3,0,-7.03,3.1,1.65,3.19,0.5,1.98
14.00979292392731,2,3,3,0,-6.77,3.36,1.41,3.19,0.5,1.98
14.01979291439056,2,3,3,0,-6.78,3.68,1.22,2.6,1.15,2.39
14.02979290485382,2,3,3,0,-7.05,4.1,1.2,-0.66,2.2,2
14.03979289531708,2,3,3,0,-7.48,4.11,1.08,-2.51,3.17,2
14.04979288578033,2,3,3,0,-8.57,4.2,1.23,-3.8,3.72,1.48
14.05979287624359,2,3,3,0,-9.01,3.95,1.22,-3.8,3.72,1.48
14.06979286670685,2,3,3,0,-9.17,3.74,1.22,-5.41,4.11,1.06
14.0797928571701,2,3,3,0,-9.119999999999999,3.36,1.23,-7,4.67,0.77
14.08979284763336,2,3,3,0,-8.880000000000001,2.71,1.12,-8.380000000000001,5.21,0.82
14.0997930765152,2,3,3,0,-8.949999999999999,2.28,1.27,-9.33,5.52,1.04
14.10979306697845,2,3,3,0,-9.1,1.91,1.42,-10.25,5.5,1.13
14.11979305744171,2,3,3,0,-9.18,1.45,1.48,-10.49,5.36,0.8
14.12979304790497,2,3,3,0,-9.42,0.85,1.56,-10.4,5,0.32
14.13979303836823,2,3,3,0,-9.539999999999999,0.51,1.6,-9.94,4.41,-0.02
14.14979302883148,2,3,3,0,-9.710000000000001,0.29,1.72,-9.32,3.98,-0.34
14.15979301929474,2,3,3,0,-9.84,-0.02,1.7,-8.550000000000001,3.39,-0.44
14.169793009758,2,3,3,0,-9.92,-0.27,1.74,-7.56,3.03,-0.26
14.17979300022125,2,3,3,0,-9.869999999999999,-0.43,1.84,-6.7,3.05,0.01
14.18979299068451,2,3,3,0,-9.69,-0.58,1.52,-5.76,3.15,0.6
14.19979298114777,2,3,3,0,-9.539999999999999,-0.57,1.79,-4.67,3.4,1.25
14.20979297161102,2,3,3,0,-9.630000000000001,-0.4,1.97,-4.1,3.56,1.92
14.21979296207428,2,3,3,0,-9.42,-0.17,2.02,-3.32,3.22,2.55
14.22979295253754,2,3,3,0,-9.300000000000001,0.12,2.09,-2.65,2.75,3.15
14.23979294300079,2,3,3,0,-8.92,0.7,1.98,-2.12,2.41,3.52
14.24979293346405,2,3,3,0,-8.710000000000001,0.95,2.08,-1.69,2.1,3.83
14.25979292392731,2,3,3,0,-8.77,1.2,2.02,-1.52,1.96,3.89
14.26979291439056,2,3,3,1,-8.789999999999999,1.25,1.93,-1.35,1.92,3.89
14.27979290485382,2,3,3,1,-9.039999999999999,1.19,1.63,-1.44,1.94,3.81
14.28979289531708,2,3,3,1,-9.199999999999999,0.9,1.53,-2.14,1.94,3.58
14.29979288578033,2,3,3,1,-9.43,0.65,1.53,-3.24,1.51,3.26
14.30979287624359,2,3,3,1,-9.720000000000001,0.42,1.58,-4,0.92,2.87
14.31979286670685,2,3,3,1,-9.59,-0.16,1.46,-4.39,0.39,2.39
14.3297928571701,2,3,3,1,-9.539999999999999,-0.37,1.57,-4.59,0.19,2.06
14.33979284763336,2,3,3,1,-9.380000000000001,-0.6,1.63,-5.05,0.1,1.93
14.3497930765152,2,3,3,1,-9.33,-0.7,1.78,-5.33,-0.19,1.98
14.35979306697845,2,3,3,1,-9.210000000000001,-0.7,1.92,-5.15,-0.51,2.12
14.36979305744171,2,3,3,1,-9.23,-0.54,1.96,-4.72,-0.71,2.28
14.37979304790497,2,3,3,1,-9.199999999999999,-0.28,2.04,-4.11,-0.8,2.31
14.38979303836823,2,3,3,1,-9.220000000000001,0.07000000000000001,1.64,-3.56,-0.84,2.24
14.39979302883148,2,3,3,1,-9.31,0.23,1.45,-3.08,-0.8,2.08
14.40979301929474,2,3,3,1,-9.4,0.28,1.36,-2.67,-0.58,2
14.419793009758,2,3,3,2,-9.49,0.26,1.52,-2.32,0.11,1.97
14.42979300022125,2,3,3,2,-9.65,0.06,1.87,-1.98,1.21,2
14.43979299068451,2,3,3,2,-9.710000000000001,-0.1,1.82,-1.92,2,2.08
14.44979298114777,2,3,3,2,-9.85,-0.18,1.82,-2.08,2.41,2.16
14.45979297161102,2,3,3,2,-10.05,-0.22,1.97,-3.04,2.32,2.36
14.46979296207428,2,3,3,2,-10.57,-0.11,2.87,-4.69,1.97,2.61
14.47979295253754,2,3,3,2,-10.81,0.11,3.3,-6.17,1.26,2.92
14.48979294300079,2,3,3,2,-11.01,0.21,3.25,-6.48,0.37,3.25
14.49979293346405,2,3,3,2,-11.05,0.18,2.93,-5.62,0.03,3.42
14.50979292392731,2,3,3,2,-11.29,0.06,3.27,-4.38,1.18,3.23
14.51979291439056,2,3,3,2,-11.73,-0.15,3.12,-4.46,3.23,2.71
14.52979290485382,2,3,3,2,-12.67,-0.61,2.7,-4.59,4.66,2.1
14.53979289531708,2,3,3,2,-12.85,-1.23,1.85,-4.52,5.52,0.99
14.54979288578033,2,3,3,2,-12.82,-2.22,1.34,-4.37,6.4,0.05
14.55979287624359,2,3,3,2,-13.33,-2.26,1.82,-4.59,7.2,-0.38
14.56979286670685,2,3,3,2,-13.06,-2.05,2.37,-4.27,6.01,-0.55
14.5797928571701,2,3,3,2,-13.42,-1.68,2.5,-3.32,5.02,-0.25
14.58979284763336,2,3,3,2,-12.86,-0.15,1.41,-0.49,4.45,-0.14
14.5997930765152,2,3,3,2,-12.41,0.61,0.63,3.37,4.13,-0.3
14.60979306697845,2,3,3,2,-11.98,1.12,0.37,7.18,4.58,-0.9
14.61979305744171,2,3,3,2,-11.48,3.35,0.9,9.51,4.41,-1.65
14.62979304790497,2,3,3,2,-10.87,4.09,0.7,10.72,3.61,-1.99
14.63979303836823,2,3,3,2,-9.960000000000001,5.28,0.49,10.82,3.12,-2.11
14.64979302883148,2,3,3,2,-9.210000000000001,6.62,-0.29,12.06,4.86,-1.04
14.65979301929474,2,3,3,2,-7.36,7.45,-1.47,11.38,5.38,-1.13
14.669793009758,2,3,3,2,-7.02,7.58,-1.16,8.19,4.66,-1.62
14.67979300022125,2,3,3,2,-7.61,7.56,-0.36,2.15,3.53,-2.8
14.68979299068451,2,3,3,2,-8.279999999999999,7.74,0.55,-4.89,3.07,-4.38
14.69979298114777,2,3,3,2,-9.65,6.11,1.96,-11.44,1.67,-6.1
14.70979297161102,2,3,3,2,-9.91,4.71,2.3,-16.01,-0.37,-7.97
14.71979296207428,2,3,3,2,-9.74,3.32,2.51,-17.55,-0.95,-9.800000000000001
14.72979295253754,2,3,3,2,-9.609999999999999,1.72,2.8,-16.8,-0.9399999999999999,-11.26
14.73979294300079,2,3,3,2,-9.449999999999999,-1.39,3.17,-15.11,-0.86,-12.08
14.74979293346405,2,3,3,2,-9.9,-2.32,3.44,-12.28,-0.96,-12.04
14.75979292392731,2,3,3,2,-10.46,-2.81,3.33,-8.58,-2.29,-10.92
14.76979291439056,2,3,3,2,-10.69,-2.87,2.94,-4.21,-4.49,-9.07
14.77979290485382,2,3,3,2,-10.78,-1.7,1.82,0.03,-6.32,-6.43
14.78979289531708,2,3,3,2,-10.71,-0.8100000000000001,1.29,3.87,-7.4,-4.01
14.79979288578033,2,3,3,2,-10.45,-0.51,1.04,6.12,-8.68,-2.81
14.80979287624359,2,3,3,2,-9.66,0.47,1.36,7.27,-9.23,-1.9
14.81979286670685,2,3,3,2,-9.48,0.64,1.56,7.6,-9.07,-1.34
14.8297928571701,2,3,3,2,-9.31,0.72,1.76,6.77,-8.779999999999999,-0.87
14.83979284763336,2,3,3,2,-8.77,0.82,1.96,5.61,-9.02,-0.64
14.8497930765152,2,3,3,2,-7.52,0.77,2.04,4.74,-9.83,-0.65
14.85979306697845,2,3,3,2,-7.19,0.73,2.24,4.68,-10.06,-0.85
14.86979305744171,2,3,3,2,-7.14,0.84,2.57,4.78,-9.49,-1.25
14.87979304790497,2,3,3,2,-7.05,0.89,2.65,4.33,-8.52,-1.77
14.88979303836823,2,3,3,2,-6.81,0.8100000000000001,2.45,3.88,-7.75,-2.28
14.89979302883148,2,3,3,2,-6.92,0.83,2.53,3.89,-6.82,-2.57
14.90979301929474,2,3,3,2,-7.1,0.8,2.57,3.83,-5.61,-2.59
14.92079293727875,2,3,3,2,-7.23,0.74,2.56,3.52,-4.38,-2.43
14.930792927742,2,3,3,2,-7.66,0.71,2.5,3.27,-3.33,-1.85
14.94079291820526,2,3,3,2,-7.71,0.85,2.45,2.73,-2.13,-0.91
14.95079290866852,2,3,3,2,-7.86,0.77,2.4,1.91,-1.13,0.06
14.96079289913177,2,3,3,2,-7.87,0.62,2.46,1.07,-1.07,0.59
14.97079288959503,2,3,3,2,-7.46,0.3,2.63,0.49,-0.52,1.54
14.98079288005829,2,3,3,2,-7.35,0.02,2.78,0.49,-0.52,1.54
14.99079287052155,2,3,3,2,-7.15,-0.14,2.77,0.55,0.29,1.86
15.0007928609848,2,3,3,2,-6.95,-0.64,3.35,-0.06,1.54,1.8
15.01079285144806,2,3,3,2,-7.1,-0.85,3.46,-0.7,1.59,1.75
15.04079306125641,2,3,3,2,-7.62,-2.03,3.11,0.51,2.43,1.34
15.05079305171967,2,3,3,2,-7.84,-2.42,3.16,1.44,2.84,0.9399999999999999
15.06079304218292,2,3,3,2,-8.18,-2.63,3.31,2.57,3.08,0.72
15.07079303264618,2,3,3,2,-8.720000000000001,-2.62,3.52,3.94,2.55,0.48
15.08079302310944,2,3,3,2,-9.59,-2.4,3.7,5.66,1.22,0.26
15.09079301357269,2,3,3,2,-9.949999999999999,-1.99,3.43,7.89,-0.13,0.04
15.10079300403595,2,3,3,2,-10.26,-1.41,3.2,10.53,-0.66,-0.25
15.11079299449921,2,3,3,2,-10.64,-0.49,3.34,12.56,-0.59,-0.11
15.12079298496246,2,3,3,2,-11.13,1.33,2.75,14.05,-0.6,0.34
15.13079297542572,2,3,3,2,-11.37,1.83,2.15,14.27,0.17,0.95
15.14079296588898,2,3,3,2,-11.82,1.6,2.24,11.04,1.21,1.32
15.15079295635223,2,3,3,2,-12.48,0.91,3.34,6.13,0.89,0.86
15.16079294681549,2,3,3,2,-13.22,-0.71,5.29,1.84,-1.36,-0.75
15.17079293727875,2,3,3,2,-12.74,-1.36,5.43,-1.09,-4.19,-3.49
15.180792927742,2,3,3,2,-12.2,-1.94,5.44,-1.02,-6.1,-6.4
15.19079291820526,2,3,3,2,-11.62,-2.09,5.42,2.72,-6.96,-8.41
15.20079290866852,2,3,3,2,-11.61,-1.61,5.3,6.69,-6.66,-9.73
15.21079289913177,2,3,3,2,-12.9,-2.25,5.84,6.58,-6,-10.42
15.22079288959503,2,3,3,2,-14.26,-1.43,6.06,8.220000000000001,-5.89,-9.56
15.23079288005829,2,3,3,2,-16.1,1.14,3.44,10.64,-4.77,-6.29
15.24079287052155,2,3,3,2,-17.24,1.9,2.32,9.789999999999999,-2.17,-2.54
15.2507928609848,2,3,3,2,-16.47,2.25,1.17,5.39,-0.22,1.45
15.26079285144806,2,3,3,2,-13.9,2.47,1.67,0.4,0.17,5.09
15.2707930803299,2,3,3,2,-9.41,3.43,4.85,-3.73,-2.68,7.25
15.28079307079315,2,3,3,2,-7.91,3.66,5.25,-4.33,-5.02,7.65
15.29079306125641,2,3,3,2,-6.72,3.46,4.47,-2.51,-6.07,6.1
15.30079305171967,2,3,3,2,-6,2.6,3.72,-0.48,-4.4,3.51
15.31079304218292,2,3,3,2,-6.74,1.08,2.81,1.78,-0.85,1.53
15.32079303264618,2,3,3,2,-7.24,0.7,1.58,4.5,2.86,0.8100000000000001
15.33079302310944,2,3,3,2,-7.56,0.76,0.49,6.73,5.73,1.01
15.34079301357269,2,3,3,2,-7.89,0.93,-0.26,7.13,7,2.02
15.35079300403595,2,3,3,2,-8.710000000000001,2.1,-0.54,6.43,6.67,3.48
15.36079299449921,2,3,3,2,-8.960000000000001,2.86,-0.32,5.23,4.75,4.6
15.37079298496246,2,3,3,2,-8.99,3.62,0.04,4.32,1.84,4.93
15.38079297542572,2,3,3,2,-8.98,3.87,0.45,3.49,-0.8,4.27
15.39079296588898,2,3,3,2,-8.34,3.91,0.98,3.31,-1.96,3.05
15.40079295635223,2,3,3,2,-8.01,3.85,1.32,3.5,-1.46,1.97
15.41079294681549,2,3,3,2,-7.9,3.55,1.4,3.49,-0.51,1.25
15.42079293727875,2,3,3,2,-7.62,3.2,1.41,3.23,0.33,0.88
15.430792927742,2,3,3,2,-7.44,2.91,1.35,2.64,1.07,0.68
15.44079291820526,2,3,3,2,-7.22,2.86,1.16,2.25,2.02,0.95
15.45079290866852,2,3,3,2,-6.92,3.01,1.03,1.71,2.73,1.51
15.46079289913177,2,3,3,2,-6.78,3.44,1.13,0.45,3.15,2.14
15.47079288959503,2,3,3,1,-7.2,3.81,1.25,-0.96,3.53,2.6
15.48079288005829,2,3,3,1,-7.87,3.96,1.29,-2.54,4.43,2.64
15.49079287052155,2,3,3,1,-8.460000000000001,3.88,1.14,-4.18,5.11,2.55
15.5007928609848,2,3,3,1,-8.960000000000001,3.76,0.82,-5.81,5.56,2.42
15.51079285144806,2,3,3,1,-9.02,3.3,0.59,-7.54,6.09,2.4
15.5207930803299,2,3,3,1,-8.98,3.05,0.61,-8.84,6.6,2.62
15.53079307079315,2,3,3,1,-9.119999999999999,2.54,0.54,-9.720000000000001,6.78,2.89
15.54079306125641,2,3,3,1,-9.48,1.61,0.68,-10.46,5.91,2.91
15.55079305171967,2,3,3,1,-9.800000000000001,1.31,0.96,-11.25,5.24,2.46
15.56079304218292,2,3,3,1,-9.98,1.04,1.4,-11.52,4.18,1.77
15.57079303264618,2,3,3,1,-10.12,0.65,1.53,-10.99,2.78,0.96
15.58079302310944,2,3,3,1,-10.14,0.31,1.45,-9.890000000000001,1.96,0.22
15.59079301357269,2,3,3,1,-10.07,-0.16,1.31,-9.02,1.58,-0.36
15.60079300403595,2,3,3,1,-9.81,-0.42,1.47,-8.16,1.34,-0.47
15.61079299449921,2,3,3,1,-9.65,-0.88,1.91,-7.46,1.44,-0.18
15.62079298496246,2,3,3,1,-9.43,-0.8,2.05,-6.45,1.36,0.47
15.63079297542572,2,3,3,1,-9.33,-0.66,2.21,-5.41,1.44,1.27
15.64079296588898,2,3,3,1,-9.279999999999999,-0.51,2.3,-4.27,1.44,2.07
15.65079295635223,2,3,3,1,-9.06,0.14,2.31,-3.04,1.45,2.95
15.66079294681549,2,3,3,1,-8.94,0.4,2.2,-2.15,1.72,3.76
15.67079293727875,2,3,3,1,-8.92,0.52,2.08,-1.88,2.09,4.4
15.680792927742,2,3,3,1,-8.890000000000001,0.54,1.92,-1.86,2.38,4.9
15.69079291820526,2,3,3,1,-9.19,0.45,1.62,-2.22,2.39,5.18
15.70079290866852,2,3,3,1,-9.31,0.29,1.57,-2.58,2.08,5.24
15.71079289913177,2,3,3,1,-9.35,0.07000000000000001,1.61,-3.19,1.69,5.22
15.72079288959503,2,3,3,2,-9.35,0.07000000000000001,1.61,-3.91,1.33,5.14
15.73079288005829,2,3,3,2,-9.34,-0.13,1.77,-4.29,1.09,5.02
15.74079287052155,2,3,3,2,-9.49,-0.5600000000000001,2.05,-4.33,0.64,4.84
15.7507928609848,2,3,3,2,-9.550000000000001,-0.62,2.11,-4.22,0.16,4.58
15.76079285144806,2,3,3,2,-9.529999999999999,-0.63,2.14,-3.75,-0.33,4.33
15.7707930803299,2,3,3,2,-9.529999999999999,-0.63,2.14,-3.04,-0.66,4.23
15.78079307079315,2,3,3,2,-9.390000000000001,-0.33,2.04,-2.57,-0.91,4.14
15.79079306125641,2,3,3,2,-9.529999999999999,0.29,1.96,-2.27,-1.13,4.03
15.80079305171967,2,3,3,2,-9.66,0.58,1.46,-1.82,-1.35,3.92
15.81079304218292,2,3,3,2,-9.65,0.97,1.57,-1.48,-1.28,3.92
15.82079303264618,2,3,3,2,-9.65,0.97,1.57,-1.48,-1.28,3.92
15.83079302310944,2,3,3,2,-9.609999999999999,0.85,2.09,-1.35,-0.82,4.01
15.84079301357269,2,3,3,2,-9.779999999999999,0.08,1.29,1.21,0.34,3.17
15.85079300403595,2,3,3,2,-10.01,-0.12,1.44,0.35,0.75,2.35
15.86079299449921,2,3,3,2,-10.29,-0.17,2.19,-2.62,0.71,2.03
15.87079298496246,2,3,3,2,-10.29,-0.17,2.19,-2.62,0.71,2.03
15.88079297542572,2,3,3,2,-10.56,0.26,3,-5.95,0.07000000000000001,2.29
15.89079296588898,2,3,3,2,-10.65,1.37,4.79,-8.15,-2.1,2.58
15.90079295635223,2,3,3,2,-10.73,1.54,4.74,-6.64,-1.58,1.84
15.91079294681549,2,3,3,2,-10.73,1.54,4.74,-4.87,0.6,0.27
15.92079293727875,2,3,3,2,-10.91,1.48,4.49,-4.87,0.6,0.27
15.930792927742,2,3,3,2,-10.83,0.33,2.31,-2.79,3.78,-1.5
15.94079291820526,2,3,3,2,-11.3,-0.17,1.86,-1.83,12.22,-2.65
15.95179307460785,2,3,3,2,-12.33,-0.66,1.74,-2.1,13.78,-1.38
15.96179306507111,2,3,3,2,-13.53,-0.6,1.5,-0.32,12.49,-0.06
15.97179305553436,2,3,3,2,-14.92,1.53,-0.64,-0.32,12.49,-0.06
15.98179304599762,2,3,3,2,-14.45,2.21,-1.13,1.56,9.59,0.29
15.99179303646088,2,3,3,2,-13.56,2.37,-0.54,2.13,4.67,1.21
16.00179302692413,2,3,3,2,-12.53,4.59,0.03,2.79,2.7,0.93
16.01179301738739,2,3,3,2,-8.800000000000001,5.85,-0.01,4.44,3.75,0.34
16.02179300785065,2,3,3,2,-7.52,7.37,-0.04,4.44,3.75,0.34
16.0317929983139,2,3,3,2,-6.77,7.42,-0.45,2.76,4.64,-1.99
16.04179298877716,2,3,3,2,-6.6,7.41,0.24,-5.44,5.25,-7.47
16.05179297924042,2,3,3,2,-7.95,7.18,1.03,-11.26,3.8,-10.15
16.09179294109344,2,3,3,2,-11.35,1.37,2.77,-13.52,-1.12,-13.93
16.1017929315567,2,3,3,2,-11.26,-0.33,2.79,-10.89,-1.42,-12.89
16.11179292201996,2,3,3,2,-11.22,-1.94,2.82,-6.66,-1.73,-11.17
16.12179291248322,2,3,3,2,-11.37,-3.17,2.82,-6.66,-1.73,-11.17
16.13179290294647,2,3,3,2,-11.59,-3.27,2.49,-2.49,-2.4,-8.76
16.14179289340973,2,3,3,2,-11.39,-3.01,1.99,4.72,-4.9,-3.96
16.15179288387299,2,3,3,2,-10.93,-1.55,1.48,6.45,-6.74,-3.08
16.16179287433624,2,3,3,2,-10.1,-0.04,1.19,7.95,-8.27,-2.66
16.1717928647995,2,3,3,2,-9.85,0.74,1.35,7.95,-8.27,-2.66
16.18179285526276,2,3,3,3,-9.43,1.26,1.29,9.18,-9.630000000000001,-2.62
16.19179308414459,2,3,3,3,-8.9,1.53,1.25,8.640000000000001,-11.22,-2.65
16.20179307460785,2,3,3,3,-8.050000000000001,1.64,1.34,7.55,-10.98,-2.75
16.21179306507111,2,3,3,3,-7.6,1.52,1.66,6.56,-10.99,-2.97
16.22179305553436,2,3,3,3,-7.23,1.34,1.91,6.56,-10.99,-2.97
16.23179304599762,2,3,3,3,-6.61,1,2.3,5.93,-10.87,-3.21
16.24179303646088,2,3,3,3,-6.16,0.73,2.24,5.4,-9.640000000000001,-3.44
16.25179302692413,2,3,3,3,-5.98,0.55,2.09,5.36,-7.5,-3.43
16.26179301738739,2,3,3,3,-6.03,0.39,2.23,4.99,-5.39,-3.2
16.27179300785065,2,3,3,3,-6.72,0.29,2.54,4.99,-5.39,-3.2
16.2817929983139,2,3,3,3,-7.2,0.22,2.63,4.38,-3.91,-2.97
16.29179298877716,2,3,3,3,-7.58,0.05,2.64,3.54,-2.33,-1.75
16.30179297924042,2,3,3,3,-8,0.18,2.64,2.95,-2.76,-0.75
16.31179296970367,2,3,3,3,-8.26,0.14,2.65,3,-3.05,0.59
16.32179296016693,2,3,3,3,-7.93,0.39,2.41,3,-3.05,0.59
16.33179295063019,2,3,3,3,-7.85,0.4,2.19,3.87,-2.56,1.63
16.34179294109344,2,3,3,3,-7.73,0.18,2.29,4.02,-0.92,2.7
16.3517929315567,2,3,3,3,-7.63,-0.2,2.41,3.88,0.1,2.79
16.36179292201996,2,3,3,3,-7.44,-0.32,2.51,3.34,0.79,2.79
16.37179291248322,2,3,3,3,-7.26,-0.43,2.69,3.34,0.79,2.79
16.38179290294647,2,3,3,3,-7.2,-0.53,2.92,2.36,1.42,2.64
16.39179289340973,2,3,3,3,-7.32,-0.75,3.23,0.5600000000000001,1.46,1.77
16.40179288387299,2,3,3,3,-7.23,-0.9399999999999999,3.16,0.5600000000000001,1.46,1.77
16.41179287433624,2,3,3,3,-7.27,-1.08,3.27,0.43,1.49,1.13
16.4217928647995,2,3,3,3,-7.48,-1.31,3.52,0.37,1.78,0.4
16.43179285526276,2,3,3,3,-7.91,-1.7,3.78,0.6,1.71,-0.36
16.44179308414459,2,3,3,3,-8.17,-1.74,4.01,1.64,1.36,-0.89
16.45179307460785,2,3,3,3,-8.59,-1.7,4.19,3.27,0.86,-1.22
16.46179306507111,2,3,3,3,-9.43,-0.73,3.58,5.66,0.09,-1.43
16.47179305553436,2,3,3,3,-10.08,0.08,3.55,8.779999999999999,-0.05,-1.46
16.48179304599762,2,3,3,3,-10.64,0.78,3.29,11.32,0.21,-1.16
16.49179303646088,2,3,3,3,-11.17,1.53,2.63,13.3,0.15,-0.39
16.50179302692413,2,3,3,3,-12.25,1.21,1.94,13.97,0.61,0.31
16.51179301738739,2,3,3,3,-12.97,0.53,3.06,11.33,1.39,0.5
16.52179300785065,2,3,3,3,-13.48,-0.41,3.96,5.44,1.47,0.01
16.5317929983139,2,3,3,3,-13.17,-1.5,4.4,-0.93,0.78,-1.56
16.54179298877716,2,3,3,3,-11.28,-4.23,6.23,-4.57,0.42,-3.71
16.55179297924042,2,3,3,3,-10.69,-3.36,7.06,-4.46,-0.11,-4.71
16.56179296970367,2,3,3,3,-10.31,-3.66,6.88,-0.82,-2.48,-6.76
16.57179296016693,2,3,3,3,-10.34,-3.48,6.49,3.9,-7.15,-9.470000000000001
16.58179295063019,2,3,3,3,-12.47,-2.25,6,10.6,-9.75,-10.68
16.59179294109344,2,3,3,3,-14.4,-1.51,5.59,15.09,-9.300000000000001,-9.75
16.6017929315567,2,3,3,3,-16.12,0.42,4.4,17.68,-6.68,-7.77
16.61179292201996,2,3,3,3,-17.69,2.48,2.05,17.13,-2.7,-4.93
16.62179291248322,2,3,3,3,-18.94,4.39,0.12,12.2,1.45,-1.07
16.63179290294647,2,3,3,3,-16.25,4.67,1.53,3.4,2.14,3.26
16.64179289340973,2,3,3,3,-12.9,5.49,3.46,-2.5,-3.51,7.16
16.65179288387299,2,3,3,3,-7.27,4.82,4.23,-4.65,-9.609999999999999,8.57
16.66179287433624,2,3,3,3,-5.12,3.43,4.42,-6.19,-10.86,7.12
16.6717928647995,2,3,3,3,-4.33,2.46,4.39,-6.58,-7.5,4.11
16.68179285526276,2,3,3,3,-4.62,1.65,4.01,-5.11,-2.16,1.43
16.69179308414459,2,3,3,3,-6.04,0.3,1.99,-1.56,2.02,-0.24
16.70179307460785,2,3,3,3,-6.75,0.05,0.92,2.62,4.3,-1.05
16.71179306507111,2,3,3,3,-7.63,0.42,0.12,5.13,6.29,-0.6899999999999999
16.72179305553436,2,3,3,3,-8.4,1.11,-0.71,5.72,7.77,0.86
16.73179304599762,2,3,3,3,-9.81,2.9,-0.78,5.27,7.77,3.09
16.74179303646088,2,3,3,3,-10.16,3.7,-0.16,4.33,5.04,4.88
16.75179302692413,2,3,3,3,-9.890000000000001,4.03,0.34,3.04,0.31,5.54
16.76179301738739,2,3,3,3,-9.07,4.18,0.68,2.49,-3.16,4.9
16.77179300785065,2,3,3,3,-7.43,4.19,1.4,2.6,-4.03,3.64
16.7817929983139,2,3,3,3,-6.93,3.8,1.55,2.34,-3.12,2.62
16.79179298877716,2,3,3,3,-6.63,3.35,1.6,1.85,-1.26,1.96
16.80179297924042,2,3,3,3,-6.54,3.02,1.55,1.34,0.75,1.6
16.81179296970367,2,3,3,3,-6.78,2.89,1.45,0.77,2.07,1.49
16.82179296016693,2,3,3,3,-6.89,2.88,1.22,0.05,3.03,1.43
16.83179295063019,2,3,3,3,-7.01,3.01,1.2,-0.83,3.88,1.51
16.84179294109344,2,3,3,3,-7.69,3.22,1.13,-2.17,5,1.77
16.8517929315567,2,3,3,3,-8.25,3.21,1.18,-4.02,5.72,1.89
16.87179291248322,2,3,3,3,-8.94,2.65,1.27,-7.75,6.26,0.97
16.88179290294647,2,3,3,3,-9.470000000000001,2.17,1.33,-8.74,6.48,1.08
16.89179289340973,2,3,3,3,-9.529999999999999,1.91,1.32,-9.279999999999999,6.65,1.35
16.90179288387299,2,3,3,3,-9.449999999999999,1.4,1.16,-9.710000000000001,6.56,1.83
16.91179287433624,2,3,3,3,-9.539999999999999,1.05,1.37,-9.6,6.11,2.3
16.9217928647995,2,3,3,3,-9.5,0.53,1.64,-9.4,5.42,2.54
16.93179285526276,2,3,3,3,-9.369999999999999,0.42,1.77,-9.18,4.88,2.48
16.94179308414459,2,3,3,3,-9.01,0.23,1.76,-8.630000000000001,3.95,2.32
16.95179307460785,2,3,3,3,-9.109999999999999,0.06,1.82,-7.96,3.82,2.13
16.96179306507111,2,3,3,3,-9.73,-0.1,1.92,-6.81,3.22,2.03
16.97279298305511,2,3,3,3,-9.76,-0.1,1.91,-5.4,2.28,1.96
16.98279297351837,2,3,3,3,-9.85,-0.12,1.72,-4.34,2.3,2.08
16.99279296398163,2,3,3,3,-9.84,-0.15,1.66,-3.71,2.47,2.3
17.00279295444489,2,3,3,3,-9.58,-0.19,1.69,-3.73,2.51,2.71
17.01279294490814,2,3,3,3,-9.57,-0.21,1.83,-4.05,2.77,3.25
17.0227929353714,2,3,3,3,-9.58,-0.13,1.98,-4.32,2.91,3.85
17.03279292583466,2,3,3,3,-9.6,-0.16,2.12,-4.26,2.81,4.32
17.04279291629791,2,3,3,3,-9.460000000000001,-0.04,2.11,-3.74,2.46,4.62
17.05279290676117,2,3,3,3,-9.380000000000001,0.01,2.01,-3.07,2.16,4.76
17.06279289722443,2,3,3,3,-9.289999999999999,0.01,1.91,-2.74,2.08,4.86
17.07279288768768,2,3,3,3,-9.33,0.02,2,-2.54,1.93,4.96
17.08279287815094,2,3,3,3,-9.470000000000001,-0.03,1.98,-2.61,1.72,5.09
17.0927928686142,2,3,3,3,-9.699999999999999,-0.04,1.84,-2.48,1.4,4.98
17.10279285907745,2,3,3,3,-9.92,-0.13,1.67,-2.36,0.76,4.66
17.11279284954071,2,3,3,3,-10.03,-0.42,1.54,-2.62,-0.08,4.16
17.12279307842255,2,3,3,3,-9.800000000000001,-0.5600000000000001,1.65,-3.25,-0.93,3.73
17.1327930688858,2,3,3,3,-9.619999999999999,-0.5600000000000001,2.07,-4.29,-1.65,3.57
17.14279305934906,2,3,3,3,-9.460000000000001,-0.46,2.42,-5.36,-2.06,3.52
17.15279304981232,2,3,3,3,-9.390000000000001,-0.15,2.05,-5.77,-2.52,3.4
17.16279304027557,2,3,3,3,-9.279999999999999,-0.06,1.45,-5.3,-2.93,3.16
17.17279303073883,2,3,3,3,-9.1,0,1.27,-4.3,-2.86,3.14
17.18279302120209,2,3,3,3,-8.94,0.06,1.87,-3,-1.76,3.52
17.19279301166534,2,3,3,3,-8.69,-0.35,1.82,-1.16,-0.01,3.89
17.2027930021286,2,3,3,3,-8.81,-0.75,0.97,1.87,1.65,3.79
17.21279299259186,2,3,3,3,-9.25,-0.96,0.7,3.49,3.1,3.23
17.22279298305511,2,3,3,3,-9.93,-0.72,1.61,1.82,4.19,2.6
17.23279297351837,2,3,3,3,-11.46,0.41,2.93,-2.24,4.38,2.26
17.24279296398163,2,3,3,3,-12.12,0.92,3.44,-5.12,2.48,2.11
17.25279295444489,2,3,3,3,-12.28,1.08,3.75,-6.13,-0.23,1.79
17.26279294490814,2,3,3,3,-11.42,0.74,3.91,-5.23,-1.88,1.01
17.2727929353714,2,3,3,3,-11.13,0.58,3.16,-2.81,-1.05,-0.37
17.28279292583466,2,3,3,3,-11.24,0.21,2.92,0.77,2.01,-2.11
17.29279291629791,2,3,3,3,-11.65,-0.92,3.08,2.72,6.9,-4.56
17.30279290676117,2,3,3,3,-13.24,0.73,1.36,3.41,11.29,-5.22
17.31279289722443,2,3,3,3,-13.98,2.1,0.46,6.37,12.65,-3.59
17.32279288768768,2,3,3,3,-14.46,3.3,-0.09,7.28,12.41,-0.95
17.33279287815094,2,3,3,3,-14.44,4.69,-0.06,6.18,10,1.55
17.3427928686142,2,3,3,3,-11.7,6.68,-0.17,5.2,6.04,2.74
17.35279285907745,2,3,3,3,-9.449999999999999,7.15,-0.8100000000000001,3.87,1.38,2.04
17.36279284954071,2,3,3,3,-7.8,7.99,-1.2,4.65,0.88,2.16
17.37279307842255,2,3,3,3,-6.81,7.77,-1.07,3.44,2.87,-0.8
17.3827930688858,2,3,3,3,-8.18,7.65,0.3,-6.74,7.59,-6.44
17.39279305934906,2,3,3,3,-9.369999999999999,7.37,1.32,-6.74,7.59,-6.44
17.40279304981232,2,3,3,3,-10.49,6.28,2.31,-13.16,7.73,-9.52
17.41279304027557,2,3,3,3,-11.26,5.14,2.95,-20.64,1.81,-13.96
17.42279303073883,2,3,3,3,-10.93,2.3,2.74,-19.06,-0.24,-14.73
17.43279302120209,2,3,3,3,-10.77,0.88,3.18,-17.58,-0.76,-14.49
17.44279301166534,2,3,3,3,-10.84,-0.66,3.53,-16.08,-1.85,-13.25
17.4527930021286,2,3,3,3,-10.9,-2.25,3.62,-11.94,-3.55,-10.82
17.46279299259186,2,3,3,3,-11.08,-3.32,2.68,-6.12,-4.75,-8.49
17.47279298305511,2,3,3,3,-11.29,-3.55,2.16,-0.48,-5.19,-5.93
17.50279295444489,2,3,3,3,-9.720000000000001,-1.16,1.76,8.710000000000001,-10.02,-0.89
17.51279294490814,2,3,3,3,-8.76,-0.44,1.64,10.96,-11.66,0.05
17.5227929353714,2,3,3,3,-7.79,0.18,1.4,12.5,-11.47,0.68
17.53279292583466,2,3,3,3,-6.87,1.06,1.56,12.5,-9.9,0.63
17.54279291629791,2,3,3,3,-6.45,1.34,1.75,11.91,-8.699999999999999,0.04
17.55279290676117,2,3,3,3,-6.32,1.68,1.77,10.86,-8.619999999999999,-1.02
17.56279289722443,2,3,3,3,-5.97,1.74,1.95,9.49,-9,-2.12
17.57279288768768,2,3,3,3,-5.94,1.79,2.31,8.48,-8.31,-3.1
17.58279287815094,2,3,3,3,-6.22,1.7,2.47,7.31,-7.24,-4.23
17.5927928686142,2,3,3,3,-6.45,1.47,2.56,6.39,-6.29,-5.14
17.60279285907745,2,3,3,3,-6.8,1.16,2.44,5.85,-4.83,-5.81
17.61279284954071,2,3,3,3,-7.66,0.64,2.63,5.11,-3.33,-5.98
17.62279307842255,2,3,3,3,-8.039999999999999,0.39,2.67,4.23,-2.15,-5.47
17.6327930688858,2,3,3,3,-8.26,0.16,2.72,3.78,-1.2,-4.38
17.64279305934906,2,3,3,3,-8.529999999999999,-0.27,2.86,3.94,0.07000000000000001,-2.4
17.65279304981232,2,3,3,3,-8.609999999999999,0.54,2.89,4.22,0.13,-1.5
17.66279304027557,2,3,3,3,-8.52,0.25,2.99,3.63,-0.8100000000000001,-0.53
17.67279303073883,2,3,3,3,-8.369999999999999,0.31,3,3.91,-0.62,0.54
17.68279302120209,2,3,3,3,-8.06,-0.08,3.01,3.99,-0.34,1.36
17.69279301166534,2,3,3,3,-7.89,-0.27,3.02,3.91,0.29,2.06
17.7027930021286,2,3,3,3,-7.77,-0.42,3.03,3.79,0.88,2.39
17.71279299259186,2,3,3,3,-7.73,-0.53,3.17,3.37,1.04,2.38
17.72279298305511,2,3,3,3,-7.53,-1.01,2.98,2.76,0.78,2.17
17.73279297351837,2,3,3,3,-7.27,-1.26,2.98,3.1,0.72,1.83
17.74279296398163,2,3,3,3,-7.35,-1.51,3.07,3.95,0.9399999999999999,1.22
17.75279295444489,2,3,3,3,-7.58,-1.73,2.95,4.77,0.91,0.41
17.7727929353714,2,3,3,3,-8.23,-2.05,3.15,6.38,1.13,-1.08
17.78279292583466,2,3,3,3,-8.74,-1.61,3.73,7.37,0.89,-1.22
17.79279291629791,2,3,3,3,-9.119999999999999,-0.9399999999999999,3.59,9.68,0.12,-1.08
17.80279290676117,2,3,3,3,-10.28,0.8,2.94,12.68,0.17,-0.88
17.81279289722443,2,3,3,3,-11.17,1.75,2.79,14.47,0.14,-0.46
17.82279288768768,2,3,3,3,-11.66,2.4,2.04,15.29,-0.49,0.25
17.83279287815094,2,3,3,3,-11.71,2.71,1.19,13.51,0.24,0.9
17.8427928686142,2,3,3,3,-11.71,2.71,1.19,8.02,1.62,1.06
17.85279285907745,2,3,3,3,-12.37,0.63,4.37,1.86,1.34,0.46
17.86279284954071,2,3,3,3,-11.88,-0.27,4.6,-2.62,-0.66,-1.26
17.87279307842255,2,3,3,3,-11.03,-1.3,5.74,-4.42,-1.73,-4.14
17.8827930688858,2,3,3,3,-11.03,-1.3,5.74,-4.33,-3.66,-7.04
17.89279305934906,2,3,3,3,-10.99,-1.83,5.71,-0.26,-5.92,-9.1
17.90279304981232,2,3,3,3,-10.82,-2.51,5.3,4.6,-6.09,-10.63
17.91279304027557,2,3,3,3,-13.84,-1.47,6.06,7.26,-5.35,-11.02
17.92279303073883,2,3,3,3,-15.35,-1,5.22,9.279999999999999,-5.17,-9.4
17.93279302120209,2,3,3,3,-16.91,0.41,2.97,12.08,-3.33,-4.96
17.94279301166534,2,3,3,3,-17.85,1.98,1.02,9.779999999999999,0.99,0.89
17.9527930021286,2,3,3,3,-16.32,4.21,1.17,2.99,4.07,6.09
17.96279299259186,2,3,3,3,-14.49,5.15,2.78,-2.51,0.8100000000000001,9.5
17.97279298305511,2,3,3,3,-12.13,5.16,3.3,-4.02,-5.3,11.02
17.98279297351837,2,3,3,3,-9.34,4.3,3.12,-3.12,-7.66,9.99
17.99279296398163,2,3,3,3,-6.07,2.7,2.68,-1.53,-5.9,7.86
18.00379288196564,2,3,3,3,-5.86,2.25,2.18,0.92,-2.3,5.96
18.01379287242889,2,3,3,3,-6.03,1.95,1.4,3.63,1.31,4.43
18.02379286289215,2,3,3,3,-6.14,1.65,0.82,5.44,4.46,3.4
18.03379285335541,2,3,3,3,-6.14,1.65,0.82,5.68,6.04,2.92
18.04379308223724,2,3,3,3,-6.93,1.75,0.09,4.8,6.18,2.94
18.0537930727005,2,3,3,3,-7.91,3.01,-0.16,3.62,4.25,2.96
18.06379306316376,2,3,3,3,-8.09,3.85,0.5600000000000001,2.48,1.14,2.67
18.07379305362701,2,3,3,3,-7.77,3.89,0.83,1.22,-1.58,1.98
18.08379304409027,2,3,3,3,-7.77,3.89,0.83,0.51,-1.75,1.01
18.09379303455353,2,3,3,3,-7.68,3.97,1.21,-0.23,-0.3,0.4
18.10379302501678,2,3,3,3,-7.85,3.45,1.4,-0.45,1.15,0.32
18.11379301548004,2,3,3,3,-7.84,3.13,1.25,-0.5600000000000001,2.43,0.7
18.1237930059433,2,3,3,3,-7.8,2.94,1.01,-0.8100000000000001,3.32,1.4
18.13379299640656,2,3,3,3,-7.8,2.94,1.01,-0.8100000000000001,3.32,1.4
18.14379298686981,2,3,3,3,-7.81,2.99,0.91,-1.33,4.01,2.37
18.15379297733307,2,3,3,3,-7.37,3.31,0.76,-4.54,4.13,4.11
18.22379291057587,2,3,3,3,-9.23,0.62,1.53,-9.289999999999999,5.13,0.24
18.23379290103912,2,3,3,3,-9.94,-0.12,1.57,-9.289999999999999,5.13,0.24
18.24379289150238,2,3,3,3,-9.99,-0.12,1.53,-7.44,4.73,-0.01
18.25379288196564,2,3,3,3,-10.03,0.11,1.52,-5.11,4.49,0.25
18.26379287242889,2,3,3,3,-10.12,0.17,1.33,-4.65,3.64,0.45
18.27379286289215,2,3,3,3,-9.800000000000001,0.4,1.24,-4.57,3.17,0.44
18.28379285335541,2,3,3,3,-9.960000000000001,0.46,1.35,-4.57,3.17,0.44
18.29379308223724,2,3,3,3,-9.800000000000001,0.63,1.6,-4.36,2.05,0.39
18.3037930727005,2,3,3,3,-9.630000000000001,0.42,1.8,-4.27,0.91,0.53
18.31379306316376,2,3,3,3,-9.720000000000001,0.27,1.9,-3.96,0.68,0.72
18.32379305362701,2,3,3,3,-9.720000000000001,0.18,2.01,-3.44,0.58,1.06
18.33379304409027,2,3,3,3,-9.67,0.03,2.05,-3.44,0.58,1.06
18.34379303455353,2,3,3,3,-9.619999999999999,-0.27,2.12,-2.91,0.68,1.45
18.35379302501678,2,3,3,3,-9.65,-0.27,2.21,-1.63,1.22,2.48
18.36379301548004,2,3,3,3,-9.720000000000001,-0.18,2.16,-0.85,1.57,3.12
18.3737930059433,2,3,3,3,-9.73,-0.01,2.11,-0.41,1.98,3.9
18.38379299640656,2,3,3,3,-9.619999999999999,0.3,1.81,-0.41,1.98,3.9
18.39379298686981,2,3,3,3,-9.57,0.42,1.74,-0.38,2.34,4.59
18.40379297733307,2,3,3,3,-9.57,0.44,1.65,-0.77,1.67,5.49
18.41379296779633,2,3,3,3,-9.51,0.36,1.38,-1.17,0.98,5.58
18.42379295825958,2,3,3,3,-9.66,0.17,1.59,-1.93,0.06,5.38
18.43379294872284,2,3,3,3,-9.84,0.11,1.79,-1.93,0.06,5.38
18.4437929391861,2,3,3,3,-10.02,0.1,1.88,-2.48,-1.09,4.83
18.45379292964935,2,3,3,3,-10.07,0.08,1.91,-3.41,-3.46,3.59
18.46379292011261,2,3,3,3,-9.82,0.11,1.62,-3.83,-4.1,3.2
18.47379291057587,2,3,3,3,-9.550000000000001,0.15,1.65,-4.35,-4.19,3.11
18.48379290103912,2,3,3,3,-9.25,0.21,1.77,-4.35,-4.19,3.11
18.49379289150238,2,3,3,3,-8.859999999999999,0.24,1.25,-4.71,-3.72,3.26
18.50379288196564,2,3,3,3,-8.91,0.27,1.2,-3.44,-0.83,3.85
18.51379287242889,2,3,3,3,-8.91,0.21,1.79,-2.21,0.73,3.89
18.52379286289215,2,3,3,3,-9.01,0,2.24,-0.12,1.76,3.49
18.53379285335541,2,3,3,3,-9.41,-0.49,1.57,-0.12,1.76,3.49
18.54379308223724,2,3,3,3,-9.85,-0.59,1.43,0.73,2.32,2.83
18.5537930727005,2,3,3,3,-10.27,-0.38,1.86,-3.54,1.96,2.42
18.56379306316376,2,3,3,3,-10.45,-0.15,2.1,-5.61,1.06,2.6
18.57379305362701,2,3,3,3,-10.81,0.98,3.51,-6.83,-0.14,2.55
18.58379304409027,2,3,3,3,-11.2,1.25,4.07,-6.83,-0.14,2.55
18.59379303455353,2,3,3,3,-11.35,1.42,4.23,-6.08,-1.37,2.01
18.60379302501678,2,3,3,3,-11.15,1.27,3.94,-1.62,1.67,-1.02
18.61379301548004,2,3,3,3,-10.49,0.18,2.22,-0.07000000000000001,5.99,-2.58
18.6237930059433,2,3,3,3,-11.07,-0.5,2.28,-0.07000000000000001,5.99,-2.58
18.63379299640656,2,3,3,3,-11.75,-0.72,2.73,0.16,9.869999999999999,-3.52
18.64379298686981,2,3,3,3,-12.59,-0.47,2.26,1.33,12.07,-2.96
18.65379297733307,2,3,3,3,-13.37,1.19,-0.63,4.86,12.17,-1.54
18.66379296779633,2,3,3,3,-13.24,2.47,-0.73,6.85,10.95,-0.36
18.67379295825958,2,3,3,3,-12.7,3.94,-0.11,6.48,7.99,0.5
18.68379294872284,2,3,3,3,-9.130000000000001,6.52,-0.01,6.58,4.13,1.45
18.6937929391861,2,3,3,3,-7.85,6.14,-0.33,7.61,2.15,0.33
18.70379292964935,2,3,3,3,-7.49,7.29,-0.43,6.53,3.54,-1.05
18.71379292011261,2,3,3,3,-8.029999999999999,7.87,-0.51,4.39,6.23,-3.82
18.72379291057587,2,3,3,3,-10.17,7.88,1.09,-1.09,6.37,-7.28
18.73379290103912,2,3,3,3,-11.02,7.32,2.15,-7.35,3.85,-10.16
18.74379289150238,2,3,3,3,-11.52,6.52,2.77,-12.07,0.44,-12.17
18.75379288196564,2,3,3,3,-11.62,5.4,2.88,-14.09,-1.91,-13.57
18.76379287242889,2,3,3,3,-11.34,2.26,2.85,-14.38,-2.48,-13.86
18.77379286289215,2,3,3,3,-11.26,0.59,2.97,-14.24,-2.08,-13.24
18.78379285335541,2,3,3,3,-11.39,-0.8,3.01,-13.49,-1.97,-11.79
18.79379308223724,2,3,3,3,-11.5,-1.97,2.91,-11.11,-2.12,-9.69
18.8037930727005,2,3,3,3,-11.69,-2.96,2.41,-7.49,-3.25,-7.07
18.81379306316376,2,3,3,3,-11.66,-2.71,1.96,-3.16,-4.69,-4.99
18.82379305362701,2,3,3,3,-11.03,-2.04,1.8,0.85,-6.87,-3.17
18.83379304409027,2,3,3,3,-10.2,-1.42,1.56,4.5,-8.880000000000001,-1.89
18.84379303455353,2,3,3,3,-9.130000000000001,0.27,1.98,7.82,-10.22,-1.26
18.85379302501678,2,3,3,3,-8.65,1.02,2.12,9.09,-11.29,-0.87
18.86379301548004,2,3,3,3,-7.96,1.39,1.69,9.32,-12.43,-0.73
18.8737930059433,2,3,3,3,-7.1,2.14,1.74,9.720000000000001,-12.81,-1.15
18.88379299640656,2,3,3,3,-6.85,2.06,1.85,9.109999999999999,-12.32,-1.52
18.89379298686981,2,3,3,3,-6.61,1.96,2.02,7.78,-11.34,-2.07
18.90379297733307,2,3,3,3,-6.27,1.83,2.17,6.7,-10.94,-2.62
18.91379296779633,2,3,3,3,-6.06,1.61,2.14,5.54,-10.76,-3.04
18.92379295825958,2,3,3,3,-5.84,1.33,2.01,4.32,-9.6,-3.5
18.93379294872284,2,3,3,3,-6.01,1.13,2.2,3.59,-7.74,-3.84
18.9437929391861,2,3,3,3,-6.46,1.02,2.55,2.52,-5.37,-4.06
18.95379292964935,2,3,3,3,-6.93,0.7,2.59,1.33,-3.75,-4.06
18.96379292011261,2,3,3,3,-7.18,0.29,2.54,0.55,-3.08,-3.67
18.97379291057587,2,3,3,3,-7.47,-0.06,2.73,0,-2.52,-3.06
18.98379290103912,2,3,3,3,-7.53,0.06,2.85,0.24,-1.71,-2.12
18.99379289150238,2,3,3,3,-7.85,-0.35,3.07,0.49,-1.74,-1.52
19.00379288196564,2,3,3,3,-7.93,-0.77,3.22,1.06,-1.19,-1.21
19.01379287242889,2,3,3,3,-8.1,-1.05,3.23,1.45,-0.8100000000000001,-0.82
19.02479302883148,2,3,3,3,-8.1,-1.15,3.2,2.1,-0.31,-0.35
19.03479301929474,2,3,3,3,-7.87,-1.11,3.1,2.82,0,0.19
19.044793009758,2,3,3,3,-7.68,-1.16,3.07,2.97,0.76,0.7
19.05479300022125,2,3,3,3,-7.53,-1.27,3.1,2.65,1.34,1
19.06479299068451,2,3,3,3,-7.52,-1.46,3.16,2.27,1.85,0.99
19.07479298114777,2,3,3,3,-7.45,-1.75,3.4,2.16,2.16,0.72
19.08479297161102,2,3,3,3,-7.35,-1.91,3.51,2.52,2.35,0.44
19.09479296207428,2,3,3,3,-7.38,-2.05,3.67,3.24,2.77,0.24
19.10479295253754,2,3,3,3,-8.300000000000001,-1.85,4.28,4.4,3.19,0.03
19.11479294300079,2,3,3,3,-8.82,-1.52,4.72,5.89,2.62,-0.43
19.12479293346405,2,3,3,3,-9.390000000000001,-1.01,4.76,7.63,0.75,-0.88
19.13479292392731,2,3,3,3,-9.720000000000001,-0.45,4.25,10.18,-1.43,-1.26
19.14479291439056,2,3,3,3,-10.76,1.78,3.57,13.74,-2.43,-1.58
19.15479290485382,2,3,3,3,-11.46,2.76,3.19,16.53,-1.79,-1.55
19.16479289531708,2,3,3,3,-11.99,3.32,2.29,17.23,-1.27,-0.6899999999999999
19.17479288578033,2,3,3,3,-12.18,3.18,1.74,16.06,0.03,0.54
19.18479287624359,2,3,3,3,-12.84,1.22,3.91,11.29,2.65,1.44
19.19479286670685,2,3,3,3,-12.45,-0.17,4.87,2.44,4.92,1.16
19.2047928571701,2,3,3,3,-10.92,-1.5,5.07,-5.82,4.2,-0.24
19.21479284763336,2,3,3,3,-9.65,-2.93,5.38,-9.050000000000001,2.27,-2.19
19.2247930765152,2,3,3,3,-8.58,-4.17,7.37,-9.19,1.09,-3.78
19.23479306697845,2,3,3,3,-8.85,-4.04,7.5,-5.8,-1.51,-5.78
19.24479305744171,2,3,3,2,-9.73,-3.73,6.48,0.28,-7.41,-9.039999999999999
19.25479304790497,2,3,3,2,-10.92,-3.56,5.26,8.32,-10.79,-10.37
19.26479303836823,2,3,3,2,-15.54,-2.49,5.87,12.07,-8.77,-10.32
19.27479302883148,2,3,3,2,-16.59,-0.41,4.37,12.12,-5.08,-8.630000000000001
19.28479301929474,2,3,3,2,-17.67,2.63,2.14,13.43,-1.72,-4.77
19.294793009758,2,3,3,2,-18.43,5.64,-0.92,13.12,1,0.09
19.30479300022125,2,3,3,2,-16.34,5.21,1.17,7.78,1.91,4.87
19.31479299068451,2,3,3,2,-13.27,5.29,3.44,0.83,-0.89,8.869999999999999
19.33479297161102,2,3,3,2,-6.23,4.02,4,-5.51,-9.81,9.890000000000001
19.34479296207428,2,3,3,2,-5.06,3.02,3.58,-4.6,-8.83,6.94
19.35479295253754,2,3,3,2,-4.68,2.17,2.97,-2.34,-5.16,3.75
19.36479294300079,2,3,3,2,-4.9,1.64,2.17,0.09,-0.52,1.1
19.37479293346405,2,3,3,2,-6.01,1.32,0.77,2.46,2.97,-0.37
19.38479292392731,2,3,3,2,-6.98,1.47,-0.05,4.27,5.09,-0.68
19.39479291439056,2,3,3,2,-8.02,1.77,-0.6899999999999999,4.57,6.2,-0.06
19.40479290485382,2,3,3,2,-8.880000000000001,2.04,-0.67,3.77,6.72,0.97
19.41479289531708,2,3,3,2,-10.02,3.08,0.77,2.85,5.29,1.69
19.42479288578033,2,3,3,2,-9.859999999999999,3.27,1.22,2.06,1.85,1.98
19.43479287624359,2,3,3,2,-9.34,3.4,1.34,1.71,-0.9,1.65
19.44479286670685,2,3,3,2,-8.68,3.3,1.34,2.07,-1.13,0.96
19.4547928571701,2,3,3,2,-7.95,3.03,1.7,2.35,0.38,0.87
19.46479284763336,2,3,3,2,-7.82,2.89,1.43,2.33,1.93,1.33
19.4747930765152,2,3,3,2,-7.72,2.79,1.39,2.49,2.96,2.07
19.48479306697845,2,3,3,2,-7.55,3.17,1.45,2.14,3.77,2.81
19.49479305744171,2,3,3,2,-7.29,3.24,1.33,1.34,4.16,3.61
19.50479304790497,2,3,3,2,-7.13,3.69,1.27,-0.02,4.15,4.17
19.51479303836823,2,3,3,2,-7.2,3.92,1.19,-1.8,4.49,4.57
19.52479302883148,2,3,3,2,-7.68,3.6,1.41,-4.22,5.28,4.56
19.53479301929474,2,3,3,2,-8.01,3.09,1.65,-6.81,5.52,3.97
19.544793009758,2,3,3,2,-8.58,2.7,1.66,-8.83,6.05,3.49
19.55479300022125,2,3,3,2,-8.56,2.31,1.47,-10.2,5.98,2.96
19.56479299068451,2,3,3,2,-8.81,1.53,1.32,-10.95,6.02,2.8
19.57479298114777,2,3,3,2,-9.140000000000001,0.82,1.5,-11.39,6.55,2.48
19.58479297161102,2,3,3,2,-9.210000000000001,0.57,1.6,-10.84,6.51,2.33
19.59479296207428,2,3,3,2,-9.49,0.4,1.61,-9.68,6.07,2.14
19.60479295253754,2,3,3,2,-9.41,0.33,1.48,-8.73,5.78,1.87
19.61479294300079,2,3,3,2,-9.31,0.6,1.39,-7.89,5.23,1.68
19.62479293346405,2,3,3,2,-9.52,0.49,1.24,-6.86,4.48,1.73
19.63479292392731,2,3,3,2,-9.779999999999999,0.59,1.26,-6.09,3.67,1.81
19.64479291439056,2,3,3,2,-9.869999999999999,0.42,1.4,-5.7,2.62,2.01
19.65479290485382,2,3,3,2,-9.789999999999999,0.31,1.47,-5.56,2,2.24
19.66479289531708,2,3,3,2,-9.83,0.03,1.48,-5.44,1.82,2.5
19.67479288578033,2,3,3,2,-9.890000000000001,-0.21,1.67,-5.48,1.58,2.64
19.68479287624359,2,3,3,2,-9.619999999999999,-0.47,1.98,-5.15,1.11,2.68
19.69479286670685,2,3,3,2,-9.529999999999999,-0.55,2.13,-4.8,0.86,2.82
19.7047928571701,2,3,3,2,-9.56,-0.55,2.31,-4.4,0.74,3.11
19.71479284763336,2,3,3,2,-9.74,-0.38,2.42,-3.71,0.73,3.39
19.7247930765152,2,3,3,2,-9.65,-0.11,2.3,-2.74,0.67,3.54
19.73479306697845,2,3,3,2,-9.41,0.01,2.09,-1.7,0.62,3.66
19.74479305744171,2,3,3,2,-9.18,0.06,1.96,-1.26,1.22,4.08
19.75479304790497,2,3,3,2,-8.960000000000001,0.01,1.57,-1.26,1.22,4.08
19.76479303836823,2,3,3,2,-9.029999999999999,-0.14,1.45,-1.62,1.39,4.36
19.77479302883148,2,3,3,2,-9.25,-0.3,1.54,-2.94,0.92,4.7
19.78479301929474,2,3,3,2,-9.539999999999999,-0.48,1.72,-3.53,0.38,4.54
19.794793009758,2,3,3,3,-10.01,-0.74,2.08,-3.89,-0.45,4.22
19.80479300022125,2,3,3,3,-10.13,-0.72,2.12,-3.96,-1.21,3.83
19.81479299068451,2,3,3,3,-10.19,-0.64,1.97,-4.07,-1.91,3.47
19.82479298114777,2,3,3,3,-10.23,-0.47,1.88,-4.45,-2.33,3.28
19.83479297161102,2,3,3,3,-10.01,-0.14,1.13,-4.57,-2.44,3.47
19.84479296207428,2,3,3,3,-9.74,-0.03,1.37,-4.06,-1.69,3.93
19.85479295253754,2,3,3,3,-9.539999999999999,0.03,2.28,-2.8,-0.39,4.27
19.86479294300079,2,3,3,3,-9.380000000000001,-0.11,2.39,0.37,0.6,4.05
19.87479293346405,2,3,3,3,-9.380000000000001,-0.76,1.22,2.35,1.72,3.36
19.88479292392731,2,3,3,3,-9.93,-0.91,1.57,0.48,2.81,2.71
19.89479291439056,2,3,3,3,-10.54,-0.8100000000000001,2.31,-2.82,2.82,2.53
19.90479290485382,2,3,3,3,-11.14,0.46,3.63,-5.37,1.67,2.66
19.91479289531708,2,3,3,3,-11.57,0.93,4.2,-6.22,-0.25,2.66
19.92479288578033,2,3,3,3,-11.6,1.41,4.92,-4.89,-2.01,2.2
19.93479287624359,2,3,3,3,-11.59,1.9,5.25,-2.05,-2.05,0.97
19.94479286670685,2,3,3,3,-10.95,1.89,3.18,1.38,0.15,-0.51
