timestamp,magCalib,accCalib,gyrCalib,sysCalib,accX,accY,accZ,gyrX,gyrY,gyrZ
-0.01220715045928955,3,3,3,2,-9.630000000000001,-1.67,0.26,0.01,0,0.13
-0.002206921577453613,3,3,3,2,-9.609999999999999,-1.69,0.27,-0.02,-0.04,0.1
0.007793068885803223,3,3,3,2,-9.66,-1.66,0.29,-0.04,-0.01,0.07000000000000001
0.01779305934906006,3,3,3,2,-9.67,-1.65,0.19,-0.05,-0.02,0.08
0.02779304981231689,3,3,3,2,-9.65,-1.69,0.23,-0.21,-0.01,0.1
0.03779304027557373,3,3,3,2,-9.640000000000001,-1.74,0.29,-0.21,-0.01,0.1
0.04779303073883057,3,3,3,2,-9.640000000000001,-1.74,0.28,-0.23,0.04,0.09
0.0577930212020874,3,3,3,2,-9.609999999999999,-1.72,0.24,-0.18,-0.01,0.06
0.06779301166534424,3,3,3,2,-9.65,-1.73,0.15,-0.17,-0.04,0.05
0.07779300212860107,3,3,3,2,-9.630000000000001,-1.66,0.18,-0.17,-0.05,0.05
0.08779299259185791,3,3,3,2,-9.640000000000001,-1.65,0.2,-0.17,-0.05,0.05
0.09779298305511475,3,3,3,2,-9.619999999999999,-1.69,0.28,-0.28,-0.02,0.06
0.1077929735183716,3,3,3,2,-9.609999999999999,-1.65,0.23,-0.25,-0.01,0.07000000000000001
0.1177929639816284,3,3,3,2,-9.619999999999999,-1.68,0.18,-0.19,-0.02,0.07000000000000001
0.1277929544448853,3,3,3,2,-9.640000000000001,-1.66,0.23,-0.16,-0.01,0.06
0.1377929449081421,3,3,3,2,-9.66,-1.63,0.28,-0.16,-0.01,0.06
0.1477929353713989,3,3,3,2,-9.67,-1.67,0.27,-0.23,0,0.05
0.1577929258346558,3,3,3,2,-9.65,-1.69,0.26,-0.29,-0.02,0.07000000000000001
0.1677929162979126,3,3,3,2,-9.65,-1.7,0.17,-0.28,-0.03,0.06
0.1777929067611694,3,3,3,2,-9.640000000000001,-1.77,0.21,-0.31,-0.02,0.07000000000000001
0.1877928972244263,3,3,3,2,-9.630000000000001,-1.78,0.19,-0.31,-0.02,0.07000000000000001
0.1977928876876831,3,3,3,2,-9.609999999999999,-1.76,0.18,-0.25,0.01,0.07000000000000001
0.2077928781509399,3,3,3,2,-9.609999999999999,-1.8,0.22,-0.15,0.09,0.04
0.2177928686141968,3,3,3,2,-9.67,-1.83,0.12,-0.18,0.05,0.05
0.2277928590774536,3,3,3,2,-9.66,-1.83,0.16,-0.17,0.03,0.01
0.2377928495407104,3,3,3,2,-9.640000000000001,-1.81,0.2,-0.17,0.03,0.01
0.2477930784225464,3,3,3,2,-9.630000000000001,-1.81,0.22,-0.16,-0.06,0.05
0.2577930688858032,3,3,3,2,-9.640000000000001,-1.83,0.14,-0.17,-0.06,0.03
0.2677930593490601,3,3,3,2,-9.609999999999999,-1.79,0.07000000000000001,-0.2,-0.05,0.02
0.2777930498123169,3,3,3,2,-9.6,-1.72,0.1,-0.26,-0.03,0.01
0.2877930402755737,3,3,3,2,-9.609999999999999,-1.73,0.16,-0.26,-0.03,0.01
0.2977930307388306,3,3,3,2,-9.640000000000001,-1.74,0.23,-0.21,-0.03,-0.02
0.3077930212020874,3,3,3,2,-9.630000000000001,-1.72,0.2,-0.28,0,-0.01
0.3177930116653442,3,3,3,2,-9.640000000000001,-1.72,0.13,-0.29,-0.07000000000000001,-0.01
0.3277930021286011,3,3,3,2,-9.67,-1.71,0.15,-0.35,-0.08,-0.02
0.3377929925918579,3,3,3,2,-9.67,-1.72,0.18,-0.35,-0.08,-0.02
0.3477929830551147,3,3,3,2,-9.630000000000001,-1.73,0.19,-0.39,-0.1,-0.01
0.3587929010391235,3,3,3,2,-9.619999999999999,-1.78,0.18,-0.47,-0.05,-0.03
0.3677929639816284,3,3,3,2,-9.630000000000001,-1.77,0.11,-0.4,-0.04,-0.05
0.3777929544448853,3,3,3,2,-9.630000000000001,-1.72,0.14,-0.3,-0.04,-0.06
0.388792872428894,3,3,3,2,-9.67,-1.73,0.21,-0.3,-0.04,-0.06
0.3977929353713989,3,3,3,2,-9.66,-1.71,0.25,-0.28,-0.07000000000000001,-0.04
0.4077929258346558,3,3,3,2,-9.640000000000001,-1.62,0.2,-0.17,-0.07000000000000001,-0.05
0.4177929162979126,3,3,3,2,-9.640000000000001,-1.72,0.13,-0.22,-0.03,-0.03
0.4277929067611694,3,3,3,2,-9.66,-1.68,0.14,-0.14,0.01,-0.02
0.4377928972244263,3,3,3,2,-9.66,-1.69,0.18,-0.14,0.01,-0.02
0.4477928876876831,3,3,3,2,-9.619999999999999,-1.76,0.2,-0.15,-0.03,-0.03
0.4677928686141968,3,3,3,2,-9.619999999999999,-1.78,0.11,-0.14,-0.01,-0.07000000000000001
0.4777928590774536,3,3,3,2,-9.640000000000001,-1.81,0.16,-0.1,-0.03,-0.07000000000000001
0.4877928495407104,3,3,3,2,-9.630000000000001,-1.71,0.21,-0.1,-0.03,-0.07000000000000001
0.4977930784225464,3,3,3,2,-9.65,-1.74,0.26,-0.13,-0.01,-0.08
0.5087929964065552,3,3,3,2,-9.66,-1.73,0.24,-0.18,-0.02,-0.08
0.5177930593490601,3,3,3,2,-9.65,-1.72,0.13,-0.23,-0.02,-0.04
0.5277930498123169,3,3,3,2,-9.640000000000001,-1.73,0.17,-0.2,0.04,-0.05
0.5387929677963257,3,3,3,2,-9.630000000000001,-1.73,0.2,-0.2,0.04,-0.05
0.5477930307388306,3,3,3,2,-9.619999999999999,-1.76,0.22,-0.14,0.03,-0.05
0.5577930212020874,3,3,3,2,-9.66,-1.79,0.2,-0.11,-0.02,-0.09
0.5687929391860962,3,3,3,2,-9.630000000000001,-1.78,0.13,-0.1,-0.02,-0.08
0.5777930021286011,3,3,3,2,-9.630000000000001,-1.77,0.16,-0.07000000000000001,0,-0.07000000000000001
0.5877929925918579,3,3,3,2,-9.640000000000001,-1.79,0.15,-0.07000000000000001,0,-0.07000000000000001
0.5987929105758667,3,3,3,2,-9.630000000000001,-1.76,0.2,-0.02,-0.01,-0.08
0.6077929735183716,3,3,3,2,-9.640000000000001,-1.79,0.18,-0.03,-0.03,-0.08
0.6177929639816284,3,3,3,2,-9.65,-1.71,0.08,-0.04,-0.02,-0.09
0.6287928819656372,3,3,3,2,-9.67,-1.71,0.13,-0.1,0.03,-0.07000000000000001
0.6377929449081421,3,3,3,2,-9.630000000000001,-1.75,0.19,-0.1,0.03,-0.07000000000000001
0.6477929353713989,3,3,3,2,-9.619999999999999,-1.81,0.2,-0.11,0.03,-0.07000000000000001
0.6587928533554077,3,3,3,2,-9.609999999999999,-1.83,0.21,-0.09,0.05,-0.05
0.6687930822372437,3,3,3,2,-9.640000000000001,-1.8,0.11,-0.09,0,-0.11
0.6787930727005005,3,3,3,2,-9.630000000000001,-1.82,0.15,-0.03,-0.03,-0.12
0.6887930631637573,3,3,3,2,-9.609999999999999,-1.74,0.16,-0.03,-0.03,-0.12
0.6987930536270142,3,3,3,2,-9.619999999999999,-1.7,0.2,-0.06,-0.05,-0.11
0.708793044090271,3,3,3,2,-9.65,-1.7,0.19,-0.1,-0.03,-0.12
0.7187930345535278,3,3,3,2,-9.640000000000001,-1.67,0.13,-0.17,-0.04,-0.11
0.7287930250167847,3,3,3,2,-9.65,-1.71,0.13,-0.22,-0.04,-0.09
0.7387930154800415,3,3,3,2,-9.640000000000001,-1.78,0.15,-0.22,-0.04,-0.09
0.7487930059432983,3,3,3,2,-9.640000000000001,-1.79,0.17,-0.23,0.01,-0.06
0.7587929964065552,3,3,3,2,-9.609999999999999,-1.86,0.11,-0.16,-0.03,-0.09
0.768792986869812,3,3,3,2,-9.609999999999999,-1.84,0.04,-0.12,-0.01,-0.1
0.7787929773330688,3,3,3,2,-9.619999999999999,-1.84,0.13,-0.05,-0.03,-0.13
0.7887929677963257,3,3,3,2,-9.609999999999999,-1.85,0.15,-0.05,-0.03,-0.13
0.7987929582595825,3,3,3,2,-9.619999999999999,-1.76,0.2,-0.08,-0.07000000000000001,-0.1
0.8087929487228394,3,3,3,2,-9.619999999999999,-1.79,0.17,-0.11,-0.06,-0.1
0.8187929391860962,3,3,3,2,-9.619999999999999,-1.8,0.07000000000000001,-0.15,-0.01,-0.08
0.828792929649353,3,3,3,2,-9.619999999999999,-1.81,0.06,-0.13,0.01,-0.09
0.8387929201126099,3,3,3,2,-9.65,-1.88,0.15,-0.13,0.01,-0.09
0.8487929105758667,3,3,3,2,-9.619999999999999,-1.85,0.16,-0.03,-0.01,-0.1
0.8587929010391235,3,3,3,2,-9.630000000000001,-1.86,0.15,-0.02,-0.04,-0.09
0.8687928915023804,3,3,3,2,-9.630000000000001,-1.85,0.07000000000000001,0.05,-0.05,-0.12
0.8787928819656372,3,3,3,2,-9.59,-1.79,0.12,0.04,-0.03,-0.11
0.888792872428894,3,3,3,2,-9.630000000000001,-1.82,0.16,0.04,-0.03,-0.11
0.8987928628921509,3,3,3,2,-9.630000000000001,-1.79,0.21,-0.01,-0.08,-0.1
0.9087928533554077,3,3,3,2,-9.630000000000001,-1.78,0.19,-0.03,-0.08,-0.06
0.9187930822372437,3,3,3,2,-9.640000000000001,-1.86,0.07000000000000001,-0.05,-0.04,-0.06
0.9287930727005005,3,3,3,2,-9.65,-1.8,0.12,0.02,-0.05,-0.06
0.9387930631637573,3,3,3,2,-9.619999999999999,-1.8,0.12,0.02,-0.05,-0.06
0.9487930536270142,3,3,3,2,-9.619999999999999,-1.88,0.17,0.06,-0.04,-0.04
0.958793044090271,3,3,3,2,-9.630000000000001,-1.85,0.14,0.09,-0.04,-0.04
0.9687930345535278,3,3,3,2,-9.609999999999999,-1.89,0.07000000000000001,0.12,-0.09,-0.05
0.9787930250167847,3,3,3,2,-9.619999999999999,-1.8,0.12,0.17,-0.05,-0.03
0.9887930154800415,3,3,3,2,-9.640000000000001,-1.83,0.16,0.17,-0.05,-0.03
0.9987930059432983,3,3,3,2,-9.619999999999999,-1.87,0.19,0.1,-0.01,-0.02
1.008792996406555,3,3,3,2,-9.640000000000001,-1.89,0.16,0.16,-0.03,-0.02
1.018792986869812,3,3,3,2,-9.6,-1.88,0.06,0.2,0,-0.02
1.028792977333069,3,3,3,2,-9.6,-1.91,0.11,0.21,-0.03,-0.05
1.038792967796326,3,3,3,2,-9.609999999999999,-1.84,0.19,0.21,-0.03,-0.05
1.048792958259583,3,3,3,2,-9.630000000000001,-1.77,0.18,0.28,-0.08,-0.06
1.058792948722839,3,3,3,2,-9.609999999999999,-1.8,0.21,0.15,-0.04,-0.01
1.068792939186096,3,3,3,2,-9.609999999999999,-1.81,0.14,0.15,-0.04,-0.02
1.078792929649353,3,3,3,2,-9.6,-1.82,0.14,0.13,-0.05,-0.04
1.08879292011261,3,3,3,2,-9.630000000000001,-1.83,0.21,0.13,-0.05,-0.04
1.098792910575867,3,3,3,2,-9.619999999999999,-1.86,0.22,0.09,-0.06,-0.01
1.108792901039124,3,3,3,2,-9.619999999999999,-1.83,0.14,0.06,-0.02,-0.01
1.11879289150238,3,3,3,2,-9.640000000000001,-1.86,0.08,0.05,-0.05,-0.03
1.128792881965637,3,3,3,2,-9.59,-1.84,0.12,0.05,-0.02,-0.01
1.138792872428894,3,3,3,2,-9.609999999999999,-1.9,0.14,0.05,-0.02,-0.01
1.148792862892151,3,3,3,2,-9.6,-1.86,0.19,0.15,-0.08,0.01
1.158792853355408,3,3,3,2,-9.619999999999999,-1.84,0.18,0.17,-0.04,-0.01
1.168793082237244,3,3,3,2,-9.609999999999999,-1.89,0.08,0.19,-0.01,0
1.1787930727005,3,3,3,2,-9.619999999999999,-1.88,0.11,0.21,-0.02,-0.01
1.188793063163757,3,3,3,2,-9.630000000000001,-1.79,0.15,0.21,-0.02,-0.01
1.198793053627014,3,3,3,2,-9.640000000000001,-1.79,0.17,0.24,0.01,-0.01
1.208793044090271,3,3,3,2,-9.640000000000001,-1.79,0.2,0.15,-0.06,0.01
1.218793034553528,3,3,3,2,-9.619999999999999,-1.78,0.09,0.09,-0.07000000000000001,0
1.228793025016785,3,3,3,2,-9.619999999999999,-1.86,0.14,0.02,-0.05,0
1.238793015480042,3,3,3,2,-9.609999999999999,-1.82,0.15,0.02,-0.05,0
1.248793005943298,3,3,3,2,-9.619999999999999,-1.82,0.17,-0.01,-0.03,0.02
1.258792996406555,3,3,3,2,-9.619999999999999,-1.84,0.19,0.04,-0.03,0
1.268792986869812,3,3,3,2,-9.65,-1.84,0.11,0.03,-0.01,0
1.278792977333069,3,3,3,2,-9.66,-1.81,0.09,0.05,-0.06,-0.02
1.288792967796326,3,3,3,2,-9.630000000000001,-1.81,0.13,0.05,-0.06,-0.02
1.298792958259583,3,3,3,2,-9.619999999999999,-1.86,0.19,0.1,-0.04,-0.01
1.308792948722839,3,3,3,2,-9.609999999999999,-1.87,0.13,0.16,-0.08,-0.03
1.318792939186096,3,3,3,2,-9.609999999999999,-1.83,0.1,0.17,-0.08,-0.02
1.328792929649353,3,3,3,2,-9.609999999999999,-1.76,0.13,0.19,-0.07000000000000001,-0.01
1.33879292011261,3,3,3,2,-9.640000000000001,-1.8,0.14,0.19,-0.07000000000000001,0.02
1.348792910575867,3,3,3,2,-9.630000000000001,-1.74,0.2,0.2,-0.06,0
1.358792901039124,3,3,3,2,-9.630000000000001,-1.74,0.2,0.14,-0.05,0.03
1.36879289150238,3,3,3,2,-9.65,-1.8,0.1,0.07000000000000001,-0.07000000000000001,-0.01
1.378792881965637,3,3,3,2,-9.630000000000001,-1.79,0.1,0.08,-0.06,-0.03
1.388792872428894,3,3,3,2,-9.619999999999999,-1.84,0.16,0.08,-0.06,-0.03
1.398792862892151,3,3,3,2,-9.640000000000001,-1.8,0.18,0.08,-0.08,-0.06
1.408792853355408,3,3,3,2,-9.609999999999999,-1.81,0.21,0.02,-0.09,-0.03
1.418793082237244,3,3,3,2,-9.609999999999999,-1.8,0.09,0.01,-0.07000000000000001,-0.02
1.4287930727005,3,3,3,2,-9.640000000000001,-1.8,0.13,-0.04,-0.05,-0.01
1.438793063163757,3,3,3,2,-9.619999999999999,-1.82,0.17,-0.02,-0.06,-0.03
1.448793053627014,3,3,3,2,-9.640000000000001,-1.81,0.18,0.01,-0.05,-0.03
1.458793044090271,3,3,3,2,-9.619999999999999,-1.83,0.14,0.04,-0.09,-0.03
1.468793034553528,3,3,3,2,-9.630000000000001,-1.88,0.1,0.04,-0.07000000000000001,-0.02
1.478793025016785,3,3,3,2,-9.640000000000001,-1.82,0.13,0.03,-0.04,-0.03
1.488793015480042,3,3,3,2,-9.640000000000001,-1.82,0.13,0.03,-0.04,-0.03
1.498793005943298,3,3,3,2,-9.619999999999999,-1.86,0.16,0.03,-0.09,-0.04
1.508792996406555,3,3,3,2,-9.609999999999999,-1.85,0.1,0.02,-0.08,-0.02
1.518792986869812,3,3,3,2,-9.609999999999999,-1.83,0.14,0.01,-0.09,-0.03
1.528792977333069,3,3,3,2,-9.630000000000001,-1.79,0.18,0.02,-0.06,-0.06
1.538792967796326,3,3,3,2,-9.630000000000001,-1.79,0.18,-0.04,-0.08,-0.06
1.548792958259583,3,3,3,2,-9.619999999999999,-1.82,0.2,-0.07000000000000001,-0.06,-0.04
1.558792948722839,3,3,3,2,-9.630000000000001,-1.84,0.11,-0.02,-0.07000000000000001,-0.04
1.568792939186096,3,3,3,2,-9.630000000000001,-1.85,0.16,0.01,-0.1,-0.07000000000000001
1.578792929649353,3,3,3,2,-9.619999999999999,-1.87,0.19,0.03,-0.1,-0.04
1.58879292011261,3,3,3,2,-9.619999999999999,-1.87,0.19,0.03,-0.1,-0.04
1.598792910575867,3,3,3,2,-9.619999999999999,-1.86,0.18,0.02,-0.09,-0.03
1.608792901039124,3,3,3,2,-9.609999999999999,-1.8,0.1,0.02,-0.06,-0.05
1.61879289150238,3,3,3,2,-9.609999999999999,-1.84,0.16,0.05,-0.06,-0.09
1.628792881965637,3,3,3,2,-9.609999999999999,-1.83,0.19,0.06,-0.09,-0.07000000000000001
1.638792872428894,3,3,3,2,-9.609999999999999,-1.83,0.19,0.05,-0.09,-0.06
1.648792862892151,3,3,3,2,-9.609999999999999,-1.85,0.17,0.04,-0.11,-0.04
1.658792853355408,3,3,3,2,-9.65,-1.85,0.09,0.06,-0.1,-0.04
1.668793082237244,3,3,3,2,-9.609999999999999,-1.85,0.12,0.04,-0.07000000000000001,-0.05
1.6787930727005,3,3,3,2,-9.59,-1.8,0.21,0.06,-0.06,-0.09
1.689792990684509,3,3,3,3,-9.59,-1.8,0.21,0.06,-0.06,-0.09
1.699792981147766,3,3,3,3,-9.609999999999999,-1.77,0.2,0.08,-0.05,-0.1
1.709792971611023,3,3,3,3,-9.619999999999999,-1.76,0.08,0.05,-0.09,-0.08
1.71979296207428,3,3,3,3,-9.6,-1.78,0.13,0.02,-0.08,-0.11
1.729792952537537,3,3,3,3,-9.640000000000001,-1.81,0.17,-0.04,-0.07000000000000001,-0.07000000000000001
1.739792943000793,3,3,3,3,-9.619999999999999,-1.81,0.17,-0.07000000000000001,-0.05,-0.08
1.74979293346405,3,3,3,3,-9.619999999999999,-1.83,0.19,-0.1,-0.05,-0.08
1.759792923927307,3,3,3,3,-9.619999999999999,-1.86,0.11,-0.14,-0.04,-0.11
1.769792914390564,3,3,3,3,-9.619999999999999,-1.86,0.15,-0.14,-0.09,-0.07000000000000001
1.779792904853821,3,3,3,3,-9.59,-1.85,0.18,-0.07000000000000001,-0.06,-0.11
1.789792895317078,3,3,3,3,-9.59,-1.85,0.18,-0.12,-0.08,-0.12
1.799792885780334,3,3,3,3,-9.619999999999999,-1.93,0.21,-0.17,-0.07000000000000001,-0.11
1.809792876243591,3,3,3,3,-9.630000000000001,-1.94,0.05,-0.14,-0.09,-0.11
1.819792866706848,3,3,3,3,-9.619999999999999,-1.92,0.09,-0.15,-0.07000000000000001,-0.13
1.829792857170105,3,3,3,3,-9.609999999999999,-1.89,0.14,-0.06,-0.1,-0.13
1.839792847633362,3,3,3,3,-9.609999999999999,-1.9,0.22,-0.04,-0.04,-0.12
1.849793076515198,3,3,3,3,-9.609999999999999,-1.88,0.18,-0.06,-0.06,-0.14
1.859793066978455,3,3,3,3,-9.609999999999999,-1.87,0.12,-0.02,-0.1,-0.15
1.869793057441711,3,3,3,3,-9.619999999999999,-1.87,0.15,-0.05,-0.11,-0.13
1.879793047904968,3,3,3,3,-9.6,-1.86,0.19,-0.06,-0.09,-0.15
1.889793038368225,3,3,3,3,-9.619999999999999,-1.94,0.22,-0.1,-0.07000000000000001,-0.15
1.899793028831482,3,3,3,3,-9.609999999999999,-1.88,0.17,-0.06,-0.04,-0.12
1.909793019294739,3,3,3,3,-9.59,-1.91,0.1,-0.02,-0.05,-0.12
1.919793009757996,3,3,3,3,-9.59,-1.96,0.17,0,-0.03,-0.11
1.929793000221252,3,3,3,3,-9.6,-1.97,0.18,0.07000000000000001,-0.03,-0.1
1.939792990684509,3,3,3,3,-9.6,-1.93,0.22,0.11,-0.03,-0.09
1.949792981147766,3,3,3,3,-9.56,-1.9,0.24,0.22,-0.07000000000000001,-0.05
1.959792971611023,3,3,3,3,-9.6,-1.9,0.07000000000000001,0.21,-0.04,-0.04
1.96979296207428,3,3,3,3,-9.6,-1.86,0.15,0.19,-0.04,-0.04
1.979792952537537,3,3,3,3,-9.57,-1.86,0.2,0.16,-0.05,0.03
1.989792943000793,3,3,3,3,-9.609999999999999,-1.88,0.23,0.1,-0.01,0.03
1.99979293346405,3,3,3,3,-9.609999999999999,-1.91,0.12,0.11,0.03,0.07000000000000001
2.009792923927307,3,3,3,3,-9.640000000000001,-1.94,0.08,0.11,0,0.04
2.019792914390564,3,3,3,3,-9.609999999999999,-1.89,0.11,0.16,-0.01,0.04
2.029792904853821,3,3,3,3,-9.630000000000001,-1.89,0.12,0.23,0.02,0.07000000000000001
2.039792895317078,3,3,3,3,-9.630000000000001,-1.89,0.12,0.23,0.02,0.07000000000000001
2.049792885780334,3,3,3,3,-9.57,-1.94,0.19,0.21,-0.02,0.08
2.059792876243591,3,3,3,3,-9.59,-1.98,0.08,0.12,0.02,0.13
2.069792866706848,3,3,3,3,-9.58,-2.02,0.1,0.19,0.01,0.09
2.079792857170105,3,3,3,3,-9.58,-1.97,0.18,0.22,0.02,0.08
2.089792847633362,3,3,3,3,-9.630000000000001,-1.92,0.2,0.29,0,0.03
2.099793076515198,3,3,3,3,-9.630000000000001,-1.92,0.2,0.29,0,0.03
2.109793066978455,3,3,3,3,-9.6,-1.8,0.12,0.21,-0.05,0.02
2.119793057441711,3,3,3,3,-9.609999999999999,-1.81,0.14,0.08,-0.05,0.01
2.129793047904968,3,3,3,3,-9.59,-1.87,0.17,0.01,-0.04,0.04
2.139793038368225,3,3,3,3,-9.630000000000001,-1.86,0.18,-0.02,-0.05,0.03
2.149793028831482,3,3,3,3,-9.640000000000001,-1.85,0.18,0,-0.03,0.03
2.159793019294739,3,3,3,3,-9.609999999999999,-1.89,0.09,-0.04,0,0.02
2.169793009757996,3,3,3,3,-9.619999999999999,-1.91,0.15,-0.02,-0.01,0.03
2.179793000221252,3,3,3,3,-9.59,-1.9,0.18,0.05,-0.01,0
2.189792990684509,3,3,3,3,-9.59,-1.88,0.2,0.06,-0.01,0
2.199792981147766,3,3,3,3,-9.609999999999999,-1.92,0.14,0.02,-0.03,0.02
2.209792971611023,3,3,3,3,-9.609999999999999,-1.86,0.06,0.02,-0.05,0.02
2.21979296207428,3,3,3,3,-9.609999999999999,-1.84,0.13,0.09,-0.07000000000000001,0
2.229792952537537,3,3,3,3,-9.6,-1.83,0.19,0.05,-0.09,0.02
2.239792943000793,3,3,3,3,-9.609999999999999,-1.86,0.22,0.06,-0.06,0.03
2.24979293346405,3,3,3,3,-9.59,-1.89,0.21,0.02,-0.02,0
2.259792923927307,3,3,3,3,-9.619999999999999,-1.95,0.09,0,-0.02,0
2.269792914390564,3,3,3,3,-9.609999999999999,-1.83,0.15,0.11,0.01,-0.02
2.279792904853821,3,3,3,3,-9.59,-1.86,0.2,0.04,-0.02,-0.05
2.289792895317078,3,3,3,3,-9.609999999999999,-1.82,0.18,-0.02,-0.06,-0.02
2.299792885780334,3,3,3,3,-9.630000000000001,-1.8,0.19,-0.02,-0.1,-0.02
2.309792876243591,3,3,3,3,-9.6,-1.91,0.1,-0.08,-0.07000000000000001,-0.03
2.319792866706848,3,3,3,3,-9.640000000000001,-1.9,0.14,-0.12,-0.01,0
2.329792857170105,3,3,3,3,-9.619999999999999,-1.92,0.18,-0.09,-0.01,0
2.339792847633362,3,3,3,3,-9.609999999999999,-1.91,0.18,-0.07000000000000001,-0.03,-0.03
2.349793076515198,3,3,3,3,-9.6,-1.87,0.14,0,-0.06,-0.04
2.359793066978455,3,3,3,3,-9.609999999999999,-1.88,0.07000000000000001,0.02,-0.06,-0.07000000000000001
2.369793057441711,3,3,3,3,-9.619999999999999,-1.88,0.11,0.01,-0.09,-0.05
2.379793047904968,3,3,3,3,-9.630000000000001,-1.91,0.14,-0.01,-0.04,-0.06
2.389793038368225,3,3,3,3,-9.6,-1.9,0.21,0,-0.04,-0.07000000000000001
2.399793028831482,3,3,3,3,-9.619999999999999,-1.92,0.19,-0.01,-0.06,-0.04
2.409793019294739,3,3,3,3,-9.609999999999999,-1.9,0.06,0.03,-0.02,-0.07000000000000001
2.419793009757996,3,3,3,3,-9.609999999999999,-1.88,0.08,0.03,-0.02,-0.04
2.429793000221252,3,3,3,3,-9.57,-1.92,0.19,0,-0.06,0
2.439792990684509,3,3,3,3,-9.609999999999999,-1.86,0.15,0.04,-0.03,-0.06
2.449792981147766,3,3,3,3,-9.59,-1.86,0.18,-0.01,-0.07000000000000001,-0.05
2.459792971611023,3,3,3,3,-9.59,-1.91,0.09,-0.01,-0.04,-0.07000000000000001
2.46979296207428,3,3,3,3,-9.619999999999999,-1.89,0.15,-0.05,-0.04,-0.06
2.479792952537537,3,3,3,3,-9.609999999999999,-1.88,0.18,-0.02,-0.05,-0.05
2.489792943000793,3,3,3,3,-9.609999999999999,-1.86,0.16,-0.04,-0.01,-0.07000000000000001
2.49979293346405,3,3,3,3,-9.609999999999999,-1.94,0.2,-0.1,0.02,-0.06
2.509792923927307,3,3,3,3,-9.59,-1.91,0.06,-0.02,-0.02,-0.05
2.519792914390564,3,3,3,3,-9.609999999999999,-1.91,0.12,0.01,-0.03,-0.03
2.529792904853821,3,3,3,3,-9.630000000000001,-1.9,0.16,0.05,-0.07000000000000001,-0.05
2.539792895317078,3,3,3,3,-9.619999999999999,-1.88,0.15,0.01,-0.06,-0.05
2.549792885780334,3,3,3,3,-9.6,-1.95,0.15,-0.04,-0.04,-0.04
2.559792876243591,3,3,3,3,-9.630000000000001,-1.92,0.08,-0.04,-0.07000000000000001,-0.04
2.569792866706848,3,3,3,3,-9.6,-1.93,0.1,0.05,-0.05,-0.05
2.579792857170105,3,3,3,3,-9.58,-1.96,0.17,0.07000000000000001,-0.03,-0.05
2.589792847633362,3,3,3,3,-9.6,-1.94,0.16,0.07000000000000001,-0.04,-0.04
2.599793076515198,3,3,3,3,-9.59,-1.86,0.17,0.1,-0.04,-0.03
2.609793066978455,3,3,3,3,-9.58,-1.9,0.07000000000000001,0.03,-0.04,-0.04
2.619793057441711,3,3,3,3,-9.609999999999999,-1.93,0.13,-0.01,-0.04,-0.03
2.629793047904968,3,3,3,3,-9.6,-1.91,0.16,-0.01,-0.03,-0.02
2.639793038368225,3,3,3,3,-9.59,-1.91,0.17,-0.04,-0.09,-0.03
2.649793028831482,3,3,3,3,-9.619999999999999,-1.88,0.21,0.02,-0.06,-0.01
2.659793019294739,3,3,3,3,-9.6,-1.87,0.11,0.07000000000000001,-0.07000000000000001,-0.03
2.669793009757996,3,3,3,3,-9.6,-1.9,0.13,-0.01,-0.03,-0.03
2.679793000221252,3,3,3,3,-9.6,-1.9,0.14,-0.03,-0.04,-0.04
2.689792990684509,3,3,3,3,-9.640000000000001,-1.92,0.18,-0.05,-0.02,0
2.699792981147766,3,3,3,3,-9.609999999999999,-1.96,0.16,-0.04,-0.04,0
2.710792899131775,3,3,3,3,-9.59,-1.95,0.04,-0.02,-0.06,-0.01
2.720792889595032,3,3,3,3,-9.59,-1.97,0.13,0,-0.06,-0.04
2.730792880058289,3,3,3,3,-9.59,-1.99,0.15,0.03,-0.06,-0.01
2.740792870521545,3,3,3,3,-9.6,-1.95,0.18,0.05,-0.06,-0.03
2.750792860984802,3,3,3,3,-9.6,-1.93,0.15,-0.01,-0.06,0
2.760792851448059,3,3,3,3,-9.6,-1.92,0.11,0.03,-0.06,-0.01
2.770793080329895,3,3,3,3,-9.609999999999999,-1.91,0.12,0.05,-0.06,-0.03
2.780793070793152,3,3,3,3,-9.609999999999999,-1.89,0.16,0.02,-0.02,-0.02
2.790793061256409,3,3,3,3,-9.59,-1.9,0.18,0.02,-0.08,-0.01
2.800793051719666,3,3,3,3,-9.6,-1.89,0.18,-0.01,-0.08,-0.01
2.810793042182922,3,3,3,3,-9.6,-1.91,0.06,-0.04,-0.07000000000000001,-0.01
2.820793032646179,3,3,3,3,-9.6,-1.94,0.12,-0.11,-0.07000000000000001,-0.01
2.830793023109436,3,3,3,3,-9.6,-2.01,0.17,-0.09,-0.05,0
2.840793013572693,3,3,3,3,-9.609999999999999,-2.01,0.16,-0.05,-0.02,0.01
2.85079300403595,3,3,3,3,-9.59,-1.98,0.16,-0.02,-0.02,-0.02
2.860792994499207,3,3,3,3,-9.58,-1.98,0.09,0.02,-0.03,-0.03
2.870792984962463,3,3,3,3,-9.6,-1.95,0.11,0.02,0,-0.03
2.88079297542572,3,3,3,3,-9.58,-1.93,0.14,0.04,-0.08,-0.01
2.890792965888977,3,3,3,3,-9.59,-1.9,0.18,0.04,-0.06,-0.02
2.900792956352234,3,3,3,3,-9.619999999999999,-1.91,0.17,0.01,-0.09,-0.03
2.910792946815491,3,3,3,3,-9.609999999999999,-1.89,0.09,-0.01,-0.06,0
2.920792937278748,3,3,3,3,-9.6,-1.96,0.14,-0.01,-0.02,-0.01
2.930792927742004,3,3,3,3,-9.59,-1.94,0.15,0.01,-0.02,0.03
2.940792918205261,3,3,3,3,-9.609999999999999,-1.98,0.18,0.01,-0.03,0.05
2.950792908668518,3,3,3,3,-9.59,-1.95,0.15,0.05,-0.03,0
2.960792899131775,3,3,3,3,-9.630000000000001,-1.91,0.02,0.08,-0.05,0
2.970792889595032,3,3,3,3,-9.6,-1.94,0.13,0.05,-0.03,-0.01
2.980792880058289,3,3,3,3,-9.6,-1.92,0.19,0.03,-0.03,-0.01
2.990792870521545,3,3,3,3,-9.6,-1.93,0.21,0.02,-0.04,-0.01
3.000792860984802,3,3,3,3,-9.56,-1.91,0.21,0.04,-0.05,-0.02
3.010792851448059,3,3,3,3,-9.59,-1.96,0.08,0.05,-0.03,-0.01
3.020793080329895,3,3,3,3,-9.6,-1.94,0.15,0.02,-0.06,-0.04
3.030793070793152,3,3,3,3,-9.619999999999999,-1.95,0.11,0.03,-0.01,-0.02
3.040793061256409,3,3,3,3,-9.6,-1.97,0.17,0.02,-0.02,-0.06
3.050793051719666,3,3,3,3,-9.609999999999999,-1.91,0.09,0.02,-0.02,-0.04
3.060793042182922,3,3,3,3,-9.59,-1.92,0.07000000000000001,0.06,-0.03,-0.03
3.070793032646179,3,3,3,3,-9.59,-1.89,0.12,0.09,-0.05,-0.03
3.080793023109436,3,3,3,3,-9.6,-1.89,0.14,0.09,-0.06,-0.04
3.090793013572693,3,3,3,3,-9.59,-1.89,0.18,0.09,-0.09,-0.03
3.10079300403595,3,3,3,3,-9.630000000000001,-1.89,0.14,0.07000000000000001,-0.03,-0.02
3.110792994499207,3,3,3,3,-9.609999999999999,-1.91,0.06,0.07000000000000001,-0.06,-0.01
3.120792984962463,3,3,3,3,-9.59,-1.92,0.11,0.11,-0.02,0
3.13079297542572,3,3,3,3,-9.58,-1.99,0.15,0.06,-0.03,0.01
3.140792965888977,3,3,3,3,-9.6,-1.9,0.14,0.14,-0.01,0.02
3.150792956352234,3,3,3,3,-9.59,-1.94,0.16,0.13,-0.06,0.02
3.160792946815491,3,3,3,3,-9.59,-1.91,0.11,0.14,-0.04,0
3.170792937278748,3,3,3,3,-9.619999999999999,-1.92,0.14,0.11,-0.09,-0.01
3.180792927742004,3,3,3,3,-9.6,-1.92,0.15,0.1,-0.08,0.01
3.190792918205261,3,3,3,3,-9.619999999999999,-1.89,0.16,0.11,-0.04,-0.04
3.200792908668518,3,3,3,3,-9.57,-1.95,0.18,0.04,-0.06,0.01
3.210792899131775,3,3,3,3,-9.59,-1.94,0.07000000000000001,0.11,-0.07000000000000001,0
3.220792889595032,3,3,3,3,-9.6,-1.95,0.14,0.04,-0.04,0.03
3.230792880058289,3,3,3,3,-9.59,-1.93,0.16,0.03,-0.04,0.02
3.240792870521545,3,3,3,3,-9.6,-1.87,0.17,0.01,-0.03,0.01
3.250792860984802,3,3,3,3,-9.6,-1.9,0.12,0.01,-0.05,0.01
3.260792851448059,3,3,3,3,-9.619999999999999,-1.89,0.07000000000000001,-0.01,-0.06,0.02
3.270793080329895,3,3,3,3,-9.6,-1.91,0.12,-0.03,-0.07000000000000001,0.04
3.280793070793152,3,3,3,3,-9.630000000000001,-1.9,0.15,-0.07000000000000001,-0.07000000000000001,0.04
3.290793061256409,3,3,3,3,-9.59,-1.95,0.16,-0.09,-0.05,0.06
3.300793051719666,3,3,3,3,-9.58,-1.96,0.17,0.01,-0.02,0.05
3.310793042182922,3,3,3,3,-9.6,-1.94,0.09,-0.01,-0.03,0.03
3.320793032646179,3,3,3,3,-9.6,-1.91,0.08,0,-0.07000000000000001,0.02
3.330793023109436,3,3,3,3,-9.609999999999999,-1.87,0.18,-0.07000000000000001,-0.09,0.03
3.340793013572693,3,3,3,3,-9.6,-1.9,0.17,-0.15,-0.06,0.07000000000000001
3.35079300403595,3,3,3,3,-9.6,-1.92,0.19,-0.17,0.01,0.07000000000000001
3.360792994499207,3,3,3,3,-9.57,-1.94,0.07000000000000001,-0.15,-0.04,0.08
3.370792984962463,3,3,3,3,-9.619999999999999,-1.93,0.15,-0.05,-0.01,0.08
3.38079297542572,3,3,3,3,-9.59,-1.85,0.14,-0.01,-0.06,0.09
3.390792965888977,3,3,3,3,-9.56,-1.73,0.15,-0.02,-0.09,0.09
3.400792956352234,3,3,3,3,-9.59,-1.64,0.13,-0.17,-0.06,0.14
3.410792946815491,3,3,3,3,-9.59,-1.63,0.11,-0.36,-0.06,0.22
3.420792937278748,3,3,3,3,-9.6,-1.55,0.18,-0.46,-0.03,0.31
3.430792927742004,3,3,3,3,-9.529999999999999,-1.53,0.23,-0.49,0,0.42
3.440792918205261,3,3,3,3,-9.5,-1.27,0.3,-0.46,-0.01,0.5600000000000001
3.450792908668518,3,3,3,3,-9.5,-1.18,0.29,-0.46,0.02,0.71
3.460792899131775,3,3,3,3,-9.52,-0.93,0.19,-0.42,0.06,0.87
3.470792889595032,3,3,3,3,-9.630000000000001,-1.21,0.18,-0.65,0.06,1.04
3.480792880058289,3,3,3,3,-9.800000000000001,-1.92,0.11,-0.82,0.1,1.19
3.490792870521545,3,3,3,3,-9.800000000000001,-2.01,0.08,-0.8,0.1,1.23
3.500792860984802,3,3,3,3,-9.69,-2.07,0,-0.54,0.08,1.29
3.510792851448059,3,3,3,3,-9.619999999999999,-2.25,-0.15,-0.4,0.12,1.2
3.520793080329895,3,3,3,3,-9.56,-2.45,-0.04,-0.03,0.14,1.01
3.530793070793152,3,3,3,3,-9.609999999999999,-2.31,0.04,0.48,0.08,0.78
3.540793061256409,3,3,3,3,-9.57,-1.98,0.1,0.82,-0.07000000000000001,0.59
3.550793051719666,3,3,3,3,-9.6,-1.54,0.15,0.89,-0.14,0.49
3.560793042182922,3,3,3,3,-9.65,-0.82,0.11,0.76,-0.13,0.48
3.570793032646179,3,3,3,3,-9.67,-0.4,0.18,0.65,-0.09,0.59
3.590793013572693,3,3,3,3,-9.609999999999999,-0.09,0.37,0.01,0.16,1.06
3.60079300403595,3,3,3,3,-9.609999999999999,-0.8,0.06,-0.31,0.42,1.41
3.610792994499207,3,3,3,3,-9.59,-0.95,0.12,-0.19,0.42,1.57
3.620792984962463,3,3,3,3,-9.6,-1.14,0.11,0.29,0.5,1.55
3.63079297542572,3,3,3,3,-9.66,-1.34,0.08,0.6899999999999999,0.49,1.49
3.640792965888977,3,3,3,3,-9.630000000000001,-0.6899999999999999,0.24,1.47,0.34,1.38
3.650792956352234,3,3,3,3,-9.609999999999999,-0.22,0.27,1.88,0.23,1.31
3.660792946815491,3,3,3,3,-9.58,0.14,0.27,1.96,0.23,1.38
3.670792937278748,3,3,3,3,-9.529999999999999,0.63,0.4,1.9,0.26,1.65
3.680792927742004,3,3,3,3,-9.48,0.61,0.71,1.46,0.62,2.22
3.690792918205261,3,3,3,3,-9.550000000000001,0.57,0.6,1.09,0.78,2.89
3.700792908668518,3,3,3,3,-9.44,0.34,0.65,0.84,0.68,3.52
3.710792899131775,3,3,3,3,-9.300000000000001,0.07000000000000001,0.63,0.92,0.71,3.96
3.720792889595032,3,3,3,3,-9.25,0.11,0.7,1.6,0.8100000000000001,4.19
3.73179304599762,3,3,3,3,-9.220000000000001,0.58,0.78,2.81,0.65,4.36
3.741793036460876,3,3,3,3,-9.18,1.13,0.87,4.03,0.23,4.65
3.751793026924133,3,3,3,3,-8.99,2.12,1,4.66,-0.14,5.22
3.76179301738739,3,3,3,3,-8.699999999999999,1.75,0.98,3.88,-0.32,6.19
3.771793007850647,3,3,3,3,-8.56,2.32,0.72,3.08,-0.4,7.14
3.781792998313904,3,3,3,3,-8.550000000000001,2.88,0.66,2.86,-0.33,7.74
3.791792988777161,3,3,3,3,-8.58,1.1,0.9,1.99,-0.3,8.24
3.801792979240417,3,3,3,3,-8.720000000000001,-0.5600000000000001,0.23,-0.02,-0.36,8.699999999999999
3.811792969703674,3,3,3,3,-8.720000000000001,-0.76,-0.58,-0.61,-0.65,8.619999999999999
3.821792960166931,3,3,3,3,-8.65,-1.23,-0.39,0.08,-0.58,8.19
3.831792950630188,3,3,3,3,-9.140000000000001,-1.2,-0.38,1.4,-0.26,7.47
3.841792941093445,3,3,3,3,-9.300000000000001,-0.74,-0.08,2.63,-0.29,6.99
3.851792931556702,3,3,3,3,-9.33,-0.78,0.24,3.42,-0.38,7.11
3.861792922019958,3,3,3,3,-9.199999999999999,-0.12,0.34,4.36,-0.07000000000000001,7.49
3.871792912483215,3,3,3,3,-8.720000000000001,0.32,0.36,4.54,0.28,8.02
3.881792902946472,3,3,3,3,-8.800000000000001,-0.58,0.45,4.1,0.42,8.300000000000001
3.891792893409729,3,3,3,3,-8.970000000000001,-1.5,0.6,3.18,0.38,8.15
3.901792883872986,3,3,3,3,-9.52,-1.18,0.51,3.99,0.59,7.6
3.911792874336243,3,3,3,3,-10.54,-2.58,0.85,4.26,0.31,7.3
3.9217928647995,3,3,3,3,-10.2,-2.05,0.65,5.49,-0.03,6.78
3.931792855262756,3,3,3,3,-9.970000000000001,-1.07,0.8,7.79,0.51,6.31
3.941793084144592,3,3,3,3,-9.9,0.09,1.04,9.130000000000001,1.04,6.37
3.951793074607849,3,3,3,3,-9.76,1.99,0.85,9.57,1.57,7.06
3.961793065071106,3,3,3,3,-9.9,1.3,0.38,7.92,1.91,7.99
3.971793055534363,3,3,3,3,-9.99,0.43,0,5.54,1.72,8.74
3.98179304599762,3,3,3,3,-10.24,-0.37,-0.21,4.5,1.96,8.960000000000001
3.991793036460876,3,3,3,3,-10.52,-2.45,-0.25,4.19,1.75,9.06
4.001793026924133,3,3,3,3,-10.21,-2.69,-0.28,5.1,1.42,8.880000000000001
4.01179301738739,3,3,3,3,-9.52,-2.82,-0.01,6.06,1.53,8.6
4.021793007850647,3,3,3,3,-9,-2.92,0.21,7.12,1.98,8.41
4.031792998313904,3,3,3,3,-8.31,-3.2,0.15,7.7,2.07,8.279999999999999
4.041792988777161,3,3,3,3,-7.53,-3.44,0.08,7.63,1.61,7.82
4.051792979240417,3,3,3,3,-7.08,-3.43,-0.66,8,1.55,6.75
4.061792969703674,3,3,3,3,-7.19,-2.88,-1.62,9.08,1.35,5.55
4.071792960166931,3,3,3,3,-9.51,3.12,-2.91,12.02,1.31,4.34
4.081792950630188,3,3,3,3,-11.6,6.71,-2.48,14.2,1.28,3.72
4.091792941093445,3,3,3,3,-13.39,8.43,-2.24,11.98,1.09,4.09
4.101792931556702,3,3,3,3,-14.17,8.93,-1.73,6.12,0.93,5.48
4.111792922019958,3,3,3,3,-13.18,4.08,-1.15,-1.51,1,7.4
4.121792912483215,3,3,3,3,-11.91,1.19,-1.85,-7.03,1.34,8.279999999999999
4.131792902946472,3,3,3,3,-11.48,-0.5,-2.33,-8.73,2.12,8.050000000000001
4.141792893409729,3,3,3,3,-10.13,-2.39,-1.35,-7.91,2.33,6.99
4.151792883872986,3,3,3,3,-9.619999999999999,-3.06,-1.22,-6.64,1.97,5.27
4.161792874336243,3,3,3,3,-9.949999999999999,-3.44,-1.32,-5.08,1.61,3.19
4.1717928647995,3,3,3,3,-10.78,-4.27,-0.67,-3.59,1.19,0.84
4.181792855262756,3,3,3,3,-12.08,-5.63,-0.77,-2.03,0.65,-1.75
4.191793084144592,3,3,3,3,-12.88,-5.22,-1.05,0.55,-0.23,-4.33
4.201793074607849,3,3,3,3,-14.24,-4.21,-1.22,3.5,-1.32,-6.53
4.211793065071106,3,3,3,3,-16.05,-2.5,-1.06,5.13,-2.33,-8.390000000000001
4.221793055534363,3,3,3,3,-19.36,-0.7,1.1,4.32,-3.66,-9.15
4.23179304599762,3,3,3,3,-20.46,-1.59,1.95,1.05,-4.57,-8.630000000000001
4.241793036460876,3,3,3,2,-20.95,-2.96,2.77,-3.26,-4.72,-7.71
4.251793026924133,3,3,3,2,-20.79,-4.81,3.95,-7.32,-4.63,-7.13
4.26179301738739,3,3,3,2,-19.52,-7.34,5.08,-9.59,-4.9,-7.77
4.271793007850647,3,3,3,2,-19.66,-8.85,5.56,-10.33,-5.8,-9.699999999999999
4.281792998313904,3,3,3,2,-20.53,-10.5,5.46,-9.67,-7.03,-12.45
4.291792988777161,3,3,3,2,-21.57,-12.28,5.04,-7.48,-8.31,-15.17
4.301792979240417,3,3,3,2,-23.34,-15.66,1.9,-3.74,-9.24,-17.48
4.311792969703674,3,3,3,2,-24.04,-15.44,-0.17,0.62,-9.57,-19.08
4.321792960166931,3,3,3,2,-24.58,-14.06,-2.22,3.37,-9.720000000000001,-19.91
4.331792950630188,3,3,3,2,-25.56,-11.71,-4.71,5.76,-9,-20.54
4.341792941093445,3,3,3,2,-27.25,-0.12,-4.86,3.96,-7.9,-21.14
4.351792931556702,3,3,3,2,-25,4.68,-7.17,0.42,-5.96,-21.34
4.361792922019958,3,3,3,2,-20.55,4.95,-7.2,-1.43,-2.74,-20.56
4.371792912483215,3,3,3,2,-15.57,6.63,-6.61,0.16,-0.35,-20.63
4.381792902946472,3,3,3,2,-8.33,4.36,-3.13,-2.1,1.26,-19.63
4.391792893409729,3,3,3,2,-5.54,6.56,0.51,-0.97,3.1,-18.84
4.401792883872986,3,3,3,2,-3.61,15.56,4.31,10.11,1.9,-18.5
4.411792874336243,3,3,3,2,-0.26,29.84,7.72,15.22,-2.35,-14.09
4.4217928647995,3,3,3,2,-1.29,37.75,11.67,6.08,-3.82,-2.36
4.431792855262756,3,3,3,2,0,26.98,4.82,-5.84,-2.3,6.03
4.441793084144592,3,3,3,2,-0.02,15.95,0.8,-8.49,0.44,8.49
4.451793074607849,3,3,3,2,0.24,5.6,-3.52,-4.31,3.18,9.66
4.461793065071106,3,3,3,2,-5.1,-3.33,0.2,-0.14,4.89,8.69
4.471793055534363,3,3,3,2,-4.37,-2.89,-0.14,0.82,2.26,6.78
4.48179304599762,3,3,3,2,-2.58,-2.43,0.43,1.63,0.49,5.66
4.491793036460876,3,3,3,2,-0.28,-2.72,-0.27,1.57,1.24,5.56
4.501793026924133,3,3,3,2,-0.23,-4.59,-0.91,-1.45,1.43,6.77
4.51179301738739,3,3,3,2,0.27,-5.41,-2.11,-2.54,0.5,7.17
4.521793007850647,3,3,3,2,0.5600000000000001,-6.05,-2.14,-2.82,0.03,5.65
4.531792998313904,3,3,3,2,-0.08,-5.12,-1.23,-0.63,0.17,3.33
4.541792988777161,3,3,3,2,-0.62,-4.14,-1.23,2.03,-0.38,1.56
4.551792979240417,3,3,3,2,-0.67,-3.01,-1.71,4.12,-1.64,0.68
4.561792969703674,3,3,3,2,-0.39,-3.06,-1.24,4.62,-2.96,0.18
4.571792960166931,3,3,3,2,1.1,-1.62,-0.19,5.7,-3.63,-0.04
4.581792950630188,3,3,3,2,1.27,-1.03,0.01,5.42,-3.41,0.3
4.591792941093445,3,3,3,2,1.29,-0.62,0.38,5.07,-2.63,0.96
4.601792931556702,3,3,3,2,1.41,-0.36,0.47,5.23,-1.87,1.68
4.611792922019958,3,3,3,2,1.38,0.43,-0.33,5.49,-1.15,2.19
4.621792912483215,3,3,3,2,0.82,0.68,-0.38,5.01,-0.5,2.44
4.631792902946472,3,3,3,2,0.24,0.77,-0.4,3.74,-0.19,2.56
4.641792893409729,3,3,3,2,-0.37,1.21,-0.15,1.13,0.32,2.64
4.651792883872986,3,3,3,2,-1.47,2.23,-0.36,-0.63,0.99,2.78
4.661792874336243,3,3,3,2,-1.58,2.81,-0.05,-1.64,0.9399999999999999,3.13
4.6717928647995,3,3,3,2,-1.52,3.11,0.41,-3.77,0.61,3.63
4.681792855262756,3,3,3,2,-1.44,3.11,0.64,-5.96,0.28,4.24
4.691793084144592,3,3,3,2,-0.86,1.43,0.37,-7.31,-0.17,4.84
4.701793074607849,3,3,3,2,-0.58,0.75,-0.01,-6.88,-0.38,5.01
4.711793065071106,3,3,3,2,-0.95,0.47,0.06,-5.61,-0.44,4.79
4.721793055534363,3,3,3,2,-1.21,-0.04,0.53,-5.92,-1.19,4.37
4.73179304599762,3,3,3,2,-1.1,2.58,0.8100000000000001,-6.28,-1.6,3.59
4.741793036460876,3,3,3,2,-2.77,14.63,2.83,2.44,-2.47,3.34
4.751793026924133,3,3,3,2,-4.93,24.49,4.09,6.36,-3.34,3.64
4.762792944908142,3,3,3,2,-7.44,13.47,4.04,-17.93,0.17,1.28
4.772792935371399,3,3,3,2,-14.8,-24.94,-9.52,-37.31,1.66,-1.23
4.782792925834656,3,3,3,2,-29.25,0.03,-2.25,-0.96,-1.05,-6.92
4.792792916297913,3,3,3,2,-33.97,11.17,6.58,27.33,-2.76,-2.41
4.802792906761169,3,3,3,2,-32.5,-1.09,-1.81,14.74,6.1,8.140000000000001
4.812792897224426,3,3,3,2,-15.06,13.38,-7.41,22.64,7.87,12.57
4.822792887687683,3,3,3,2,-30.59,37.2,-7.43,49.15,5.94,8.710000000000001
4.83279287815094,3,3,3,2,-39.33,39.12,27.42,21.19,2.41,16.67
4.842792868614197,3,3,3,2,-38.14,9.44,10.1,-42.42,3.63,27.17
4.852792859077454,3,3,3,2,-7.28,-34.61,0.45,-60.99,10.47,22.85
4.86279284954071,3,3,3,2,-8.02,-39.21,-5.82,-55.49,8.83,17.51
4.872793078422546,3,3,3,2,-9.75,-39.1,-4.9,4.42,5.83,7.97
4.882793068885803,3,3,3,2,-8.5,-24.76,-3.46,58.27,6.83,4.07
4.89279305934906,3,3,3,2,-8.67,-7.5,-2.55,79.22,4.32,0.26
4.902793049812317,3,3,3,2,-11.44,2.93,-0.46,69.81,-2.06,-6.39
4.912793040275574,3,3,3,2,-13.91,13.1,-0.65,47.04,-6.35,-11.36
4.922793030738831,3,3,3,2,-22.03,23.98,1.64,18.37,-7.82,-10.89
4.932793021202087,3,3,3,2,-25.94,14.68,1.62,-12.33,-6.03,-4.15
4.942793011665344,3,3,3,2,-25.72,1.55,-1.17,-37.69,-2.45,3.98
4.952793002128601,3,3,3,2,-20.52,-6.24,-2.92,-42.71,-0.31,7.62
4.962792992591858,3,3,3,2,-5.62,-8.1,-2.03,-35.59,-0.49,6.83
4.972792983055115,3,3,3,2,-6.2,-8.56,-2.04,-27.72,-0.55,4.58
4.982792973518372,3,3,3,2,-8.630000000000001,-7.82,-1.91,-18.51,0.7,1.06
4.992792963981628,3,3,3,2,-11.08,-6.13,-1.25,-9.789999999999999,1.95,-2.84
5.002792954444885,3,3,3,2,-12.96,-3.72,-1.35,-4.62,1.83,-6.7
5.012792944908142,3,3,3,2,-12.38,-3.97,-1.83,-1.62,0.51,-9.93
5.022792935371399,3,3,3,2,-11.26,-4.68,-1.95,2.48,-0.74,-11.72
5.032792925834656,3,3,3,2,-10.12,-4.97,-1.74,7.7,-1.67,-11.97
5.042792916297913,3,3,3,2,-9.890000000000001,-3.46,-1.28,11.83,-2.15,-10.98
5.052792906761169,3,3,3,2,-10.28,-1.76,-0.93,13.28,-2.31,-9.4
5.062792897224426,3,3,3,2,-10.82,0.13,-0.9399999999999999,12.41,-1.57,-8.06
5.072792887687683,3,3,3,2,-10.79,1.46,-0.78,9.33,-0.8,-7.21
5.08279287815094,3,3,3,2,-9.56,2.6,0.16,4.93,-0.28,-6.57
5.092792868614197,3,3,3,2,-8.65,2.79,0.71,0.57,0.13,-6.32
5.102792859077454,3,3,3,2,-7.97,3.07,1.22,-3.52,0.38,-6.35
5.11279284954071,3,3,3,2,-7.56,3.08,1.69,-7.48,0.71,-6.67
5.122793078422546,3,3,3,2,-7.52,2.46,2.66,-11.49,0.71,-6.89
5.132793068885803,3,3,3,2,-7.65,1.88,2.95,-14.13,1.09,-6.9
5.14279305934906,3,3,3,2,-7.9,0.95,3.16,-15.5,1.33,-6.72
5.152793049812317,3,3,3,2,-8.09,0.21,3.34,-15.23,1.34,-6.44
5.162793040275574,3,3,3,2,-8.35,-0.37,3.15,-12.8,1.47,-5.99
5.172793030738831,3,3,3,2,-8.470000000000001,-0.62,2.92,-9.51,1.57,-5.47
5.182793021202087,3,3,3,2,-8.359999999999999,-0.5600000000000001,2.24,-6.08,1.3,-4.76
5.192793011665344,3,3,3,2,-8.08,-0.06,1.8,-3.11,1.02,-3.92
5.202793002128601,3,3,3,2,-8.09,1.1,0.18,-1.16,0.77,-3.14
5.212792992591858,3,3,3,2,-8.279999999999999,1.96,-0.51,0.14,0.43,-2.48
5.222792983055115,3,3,3,2,-8.720000000000001,2.68,-0.86,0.53,0.45,-2.02
5.232792973518372,3,3,3,2,-9.210000000000001,2.9,-1.19,-0.32,0.63,-1.72
5.242792963981628,3,3,3,2,-9.67,2.36,-1.15,-1.63,0.8,-1.58
5.252792954444885,3,3,3,2,-9.65,1.56,-1.02,-2.68,1.05,-1.61
5.262792944908142,3,3,3,2,-9.710000000000001,0.61,-0.87,-3.33,1.15,-1.67
5.272792935371399,3,3,3,2,-9.779999999999999,-1.41,0.05,-3.11,1.07,-1.98
5.282792925834656,3,3,3,2,-9.880000000000001,-1.87,0.42,-1.63,1,-2.38
5.292792916297913,3,3,3,2,-9.970000000000001,-2.07,0.77,0.21,0.63,-2.67
5.302792906761169,3,3,3,2,-9.869999999999999,-2,1.07,2.2,0.13,-2.78
5.312792897224426,3,3,3,2,-9.630000000000001,-1.53,1.03,3.69,-0.22,-2.62
5.322792887687683,3,3,3,2,-9.539999999999999,-1.45,1.05,4.25,-0.41,-2.28
5.33279287815094,3,3,3,2,-9.5,-1.5,0.9,4.11,-0.35,-1.91
5.342792868614197,3,3,3,2,-9.529999999999999,-1.54,0.55,3.71,-0.27,-1.65
5.352792859077454,3,3,3,2,-9.66,-1.96,0.16,3.51,-0.1,-1.58
5.36279284954071,3,3,3,2,-9.75,-1.94,-0.15,3.42,0.12,-1.63
5.372793078422546,3,3,3,2,-9.81,-1.59,-0.23,3.57,0.16,-1.85
5.382793068885803,3,3,3,2,-9.81,-1.15,-0.17,3.65,0.19,-2.05
5.39279305934906,3,3,3,2,-9.789999999999999,-0.3,0,2.98,0.1,-2.17
5.402793049812317,3,3,3,2,-9.65,-0.19,0.14,1.76,0.16,-2.28
5.412793040275574,3,3,3,2,-9.57,-0.04,0.12,0.46,0.39,-2.3
5.422793030738831,3,3,3,2,-9.609999999999999,-0.08,0.12,-0.92,0.53,-2.26
5.432793021202087,3,3,3,2,-9.470000000000001,-0.04,0.24,-2.01,0.59,-2.19
5.442793011665344,3,3,3,2,-9.41,-0.09,0.19,-2.88,0.57,-2.12
5.452793002128601,3,3,3,2,-9.4,-0.39,0.06,-3.77,0.51,-1.97
5.462792992591858,3,3,3,2,-9.44,-0.7,-0.01,-4.08,0.48,-1.86
5.472792983055115,3,3,3,2,-9.5,-1.23,0.07000000000000001,-3.93,0.55,-1.78
5.482792973518372,3,3,3,2,-9.539999999999999,-1.51,0.01,-3.42,0.45,-1.76
5.492792963981628,3,3,3,2,-9.619999999999999,-1.74,0.01,-2.68,0.16,-1.66
5.502792954444885,3,3,3,2,-9.67,-2.1,0.17,-1.73,-0.04,-1.67
5.512792944908142,3,3,3,2,-9.619999999999999,-1.74,0.27,-0.63,-0.11,-1.73
5.522792935371399,3,3,3,2,-9.609999999999999,-1.41,0.4,0.29,-0.12,-1.74
5.532792925834656,3,3,3,2,-9.58,-1.18,0.5600000000000001,0.9,-0.26,-1.55
5.542792916297913,3,3,3,2,-9.449999999999999,-0.79,0.7,1.42,-0.33,-1.29
5.552792906761169,3,3,3,2,-9.470000000000001,-0.65,0.63,1.09,-0.3,-0.84
5.562792897224426,3,3,3,2,-9.48,-0.74,0.62,1.05,-0.14,-0.53
5.572792887687683,3,3,3,2,-9.449999999999999,-0.47,0.61,1.34,0.09,-0.35
5.58279287815094,3,3,3,2,-9.460000000000001,-0.76,0.51,1.06,0.28,-0.17
5.592792868614197,3,3,3,2,-9.539999999999999,-1.15,0.37,1.23,0.29,-0.04
5.602792859077454,3,3,3,2,-9.51,-0.77,0.39,1.91,0.23,0.03
5.61279284954071,3,3,3,2,-9.48,-0.34,0.21,2.17,0.07000000000000001,0.06
5.622793078422546,3,3,3,2,-9.449999999999999,0.29,0.07000000000000001,1.69,-0.16,0.25
5.632793068885803,3,3,3,2,-9.42,0.48,0.16,0.99,-0.26,0.51
5.64279305934906,3,3,3,2,-9.41,0.57,0.18,0.15,-0.17,0.84
5.652793049812317,3,3,3,2,-9.41,0.32,0.2,-0.9399999999999999,0.01,1.24
5.662793040275574,3,3,3,2,-9.460000000000001,-0.21,0.12,-1.67,0.19,1.58
5.672793030738831,3,3,3,2,-9.41,-0.14,0.23,-1.79,0.27,1.8
5.682793021202087,3,3,3,2,-9.31,-0.08,0.33,-1.83,0.22,2.06
5.692793011665344,3,3,3,2,-9.16,0.08,0.44,-1.99,0.19,2.47
5.702793002128601,3,3,3,2,-8.779999999999999,0.95,0.57,-1.88,0.29,3.04
5.712792992591858,3,3,3,2,-8.65,1.66,0.68,-1.6,0.26,3.81
5.722792983055115,3,3,3,2,-8.539999999999999,2.32,0.97,-1.43,0.02,4.57
5.732792973518372,3,3,3,2,-8.5,2.84,1.06,-1.21,-0.34,5.31
5.742792963981628,3,3,3,2,-8.77,3.53,1.42,-0.85,-0.63,6.13
5.752792954444885,3,3,3,2,-8.800000000000001,3.69,1.29,-0.6899999999999999,-0.83,7.16
5.762792944908142,3,3,3,2,-8.57,3.16,0.85,-0.6899999999999999,-0.83,7.16
5.772792935371399,3,3,3,2,-8.09,2.26,0.76,-1.72,-0.77,8.800000000000001
5.783792853355408,3,3,3,2,-7.79,0.61,0.61,-1.74,-0.11,9
5.793793082237244,3,3,3,2,-7.85,0.27,0.3,-1.36,0.24,8.800000000000001
5.8037930727005,3,3,3,2,-8.09,0.2,0.49,-1.36,0.24,8.800000000000001
5.813793063163757,3,3,3,2,-8.16,0.25,0.57,0.3,0.23,8.43
5.823793053627014,3,3,3,2,-8.33,0.6899999999999999,0.26,4.97,-0.36,8.69
5.833793044090271,3,3,3,2,-8.539999999999999,1.06,0,4.97,-0.36,8.69
5.843793034553528,3,3,3,2,-8.43,-0.08,0.55,5.25,-0.23,9.94
5.853793025016785,3,3,3,2,-8.33,-0.79,0.14,5.25,-0.23,9.94
5.863793015480042,3,3,3,2,-9.19,-1.31,-0.66,4.64,0.72,10
5.873793005943298,3,3,3,2,-9.51,-1.38,-0.66,5.22,1.52,9.74
5.883792996406555,3,3,3,2,-9.66,-1.39,-0.42,7.12,1.91,9.619999999999999
5.893792986869812,3,3,3,2,-9.710000000000001,-1.22,-0.11,8.82,1.89,9.93
5.903792977333069,3,3,3,2,-9.699999999999999,-1.03,-0.33,9.4,1.95,10.19
5.913792967796326,3,3,3,2,-9.6,-0.26,-1.07,9.119999999999999,2.33,10.21
5.923792958259583,3,3,3,2,-9.76,0.8,-0.75,8.85,2.7,10.38
5.933792948722839,3,3,3,2,-10.32,1.78,-0.28,8.65,3.21,10.31
5.943792939186096,3,3,3,2,-11.34,0.23,0.8,6.91,3.32,10.58
5.953792929649353,3,3,3,2,-10.95,-2.29,0.74,3.37,2.7,11.08
5.96379292011261,3,3,3,2,-10.06,-4.21,0.06,-0.54,1.95,11.73
5.973792910575867,3,3,3,2,-9.550000000000001,-4.38,-0.52,-1.39,2.15,11.65
5.983792901039124,3,3,3,2,-9.779999999999999,-2.27,-1.92,0.52,2.81,10.83
5.99379289150238,3,3,3,2,-10.77,-0.46,-2.55,2.65,2.9,9.529999999999999
6.003792881965637,3,3,3,2,-12.1,1.11,-2.12,3.72,2.29,7.71
6.013792872428894,3,3,3,2,-15.11,1.06,-1.28,2.75,1.68,5.45
6.023792862892151,3,3,3,2,-15.7,-0.53,-0.83,-0.5,1.21,3.52
6.033792853355408,3,3,3,2,-15.86,-2.29,-0.1,-4.28,0.89,2.05
6.043793082237244,3,3,3,2,-15.95,-3.66,0.57,-5.82,0.59,1.03
6.0537930727005,3,3,3,2,-15.77,-5.36,0.95,-5.05,0.27,0.21
6.063793063163757,3,3,3,2,-15.77,-5.79,1.35,-3.31,-0.17,-0.48
6.073793053627014,3,3,3,2,-16.16,-5.67,1.48,-0.9,-0.84,-1.6
6.083793044090271,3,3,3,2,-17.13,-5.72,1.81,1.18,-1.69,-3.38
6.093793034553528,3,3,3,2,-18.95,-4.91,2.14,2.59,-2.84,-5.3
6.103793025016785,3,3,3,2,-20.04,-4.79,2.96,3.57,-4.15,-6.99
6.113793015480042,3,3,3,2,-20.93,-4.95,3.47,3.2,-5.53,-8.369999999999999
6.123793005943298,3,3,3,2,-21.65,-5.7,4.31,1.62,-7.1,-9.43
6.133792996406555,3,3,3,2,-21.74,-10.58,5.78,-0.67,-8.48,-10.08
6.143792986869812,3,3,3,2,-21.47,-13.49,4.94,-3.1,-10.03,-10.7
6.153792977333069,3,3,3,2,-21.05,-16.43,2.88,-3.21,-10.69,-11.91
6.173792958259583,3,3,3,2,-24.19,-17.76,-5.23,2.76,-10.99,-17.31
6.183792948722839,3,3,3,2,-26.57,-16.77,-7.49,5.81,-11.01,-20.75
6.193792939186096,3,3,3,1,-28.87,-11.93,-8.25,10.57,-10.23,-23.74
6.203792929649353,3,3,3,1,-29.95,-6.75,-9.91,13.32,-9.49,-25.86
6.21379292011261,3,3,3,1,-25.37,2.59,-11.06,10.53,-7.38,-26.94
6.223792910575867,3,3,3,1,-21.69,7.2,-8.31,8.48,-4.45,-26.96
6.233792901039124,3,3,3,1,-17.98,8.32,-6.39,10.08,-1.54,-27.57
6.24379289150238,3,3,3,1,-12.67,3.9,-5.5,9.84,0.84,-28.05
6.253792881965637,3,3,3,1,-6.54,25.69,-2.36,16.19,0.7,-27.33
6.263792872428894,3,3,3,1,-3.82,39.23,11.41,34.36,-2.2,-28.25
6.273792862892151,3,3,3,1,-0.75,39.16,20.83,31.74,-10.82,-18.9
6.283792853355408,3,3,3,1,1.66,39.21,10.06,-0.31,-5.37,1.55
6.293793082237244,3,3,3,1,2.24,2.99,1.62,-18.66,6.07,9.199999999999999
6.3037930727005,3,3,3,1,-7.18,-4.16,0.4,-16.02,10.32,8.449999999999999
6.313793063163757,3,3,3,1,-10.69,-5.29,3.12,-10.47,8.44,9.210000000000001
6.323793053627014,3,3,3,1,-6.96,-1.74,3.1,-2.31,4.94,9.949999999999999
6.333793044090271,3,3,3,1,-1.61,-1.63,-0.92,1.87,0.98,10.61
6.343793034553528,3,3,3,1,-1.9,-7.48,-0.18,-6.91,2.34,13.87
6.353793025016785,3,3,3,1,0.13,-9.07,-4.33,-12.58,0.01,15.15
6.363793015480042,3,3,3,1,0.66,-6.8,-5.14,-12.14,-0.46,13.05
6.373793005943298,3,3,3,1,-0.93,-7.62,-1.95,-9.09,4.58,10.76
6.383792996406555,3,3,3,1,-1.36,-5.97,-0.73,-6.47,3.67,9.1
6.393792986869812,3,3,3,1,-1.34,-3.77,-2.53,-0.86,0.35,7.26
6.403792977333069,3,3,3,1,0.42,-2.06,-1.73,3.25,-3.09,6.95
6.413792967796326,3,3,3,1,0.61,-2.43,-0.88,2.78,-5.91,7.23
6.423792958259583,3,3,3,1,0.76,-3.73,-0.07000000000000001,0.86,-6.77,7.12
6.433792948722839,3,3,3,1,0.88,-4.54,0.5,0,-6.06,6.31
6.443792939186096,3,3,3,1,1.26,-5.13,0.1,2.17,-3.51,4.98
6.453792929649353,3,3,3,1,1.46,-4.23,-0.67,5.57,-0.74,4.61
6.46379292011261,3,3,3,1,1.19,-2.48,-1.58,8.75,1.48,5.24
6.473792910575867,3,3,3,1,0.63,-1.18,-1.64,9.710000000000001,3.17,6.08
6.483792901039124,3,3,3,1,0.67,0.22,-1.78,7.58,3.69,6.28
6.49379289150238,3,3,3,1,0.35,1.01,-1.92,3.71,3.71,5.89
6.503792881965637,3,3,3,1,-0.17,1.47,-1.63,-1.51,3.83,5.25
6.513792872428894,3,3,3,1,-0.36,1.29,-1.18,-7.45,3.68,4.33
6.523792862892151,3,3,3,1,0.32,-0.45,-0.31,-13.2,3.09,3.52
6.533792853355408,3,3,3,1,0.46,-1.53,0.02,-17.67,2.14,2.97
6.543793082237244,3,3,3,1,-0.13,-2.04,0.8,-19.34,1.15,2.82
6.5537930727005,3,3,3,1,-0.6899999999999999,-2.24,1.31,-19.33,0.12,2.82
6.563793063163757,3,3,3,1,-0.7,-1.72,0.47,-17.37,-1.11,2.91
6.573793053627014,3,3,3,1,-0.26,-1.36,-0.17,-14.46,-1.9,2.66
6.583793044090271,3,3,3,1,0.07000000000000001,-1.07,-0.41,-11.76,-1.42,2.26
6.593793034553528,3,3,3,1,0.59,0.04,-0.43,-9.08,-0.84,2.06
6.603793025016785,3,3,3,1,-0.11,2.23,-3.23,-8.140000000000001,-0.21,2.31
6.613793015480042,3,3,3,1,-1.49,3.21,-2.53,-10.69,0.88,2.32
6.623793005943298,3,3,3,1,-4.5,15.31,1.78,-10.51,0.92,1.32
6.633792996406555,3,3,3,1,-8.390000000000001,32.18,9.84,7.07,-2.2,0.76
6.643792986869812,3,3,3,1,-12.68,-15.44,2.04,3.18,-2.5,-2.27
6.653792977333069,3,3,3,1,-19.06,-32.89,-7.25,-32.36,2.81,-6.26
6.663792967796326,3,3,3,1,-27.52,-9.94,-3.78,-35.35,3.08,-12.58
6.673792958259583,3,3,3,1,-26.94,6.1,3.75,14.29,-2.17,-10.13
6.683792948722839,3,3,3,1,-18.64,-7.45,-9.09,21.46,2.96,-0.62
6.693792939186096,3,3,3,2,-21.23,10.48,-8.869999999999999,13.55,6.59,5.09
6.703792929649353,3,3,3,2,-35.15,34.8,-16.83,30.24,5.53,2.72
6.71379292011261,3,3,3,2,-39.33,39.23,27.15,56.78,4.74,3.1
6.723792910575867,3,3,3,2,-16.07,-7.2,11.63,-27.09,4.73,27.4
6.733792901039124,3,3,3,2,-0.71,-32.55,3.55,-72.67,8.960000000000001,27.75
6.74379289150238,3,3,3,2,-9.43,-39.21,-4.77,-86.81999999999999,11.85,20.43
6.753792881965637,3,3,3,2,-13.27,-39.09,-4.54,-52.8,6.94,12.63
6.763792872428894,3,3,3,2,-9.59,-32.32,-2.45,21.4,5,6.78
6.773792862892151,3,3,3,2,-9.300000000000001,-16.05,-1.9,68.17,4.65,3.08
6.783792853355408,3,3,3,2,-11.43,-7.11,1.04,81,1.17,-3.79
6.793793082237244,3,3,3,2,-12.05,2.01,0.16,64.2,-4.25,-9.449999999999999
6.8037930727005,3,3,3,2,-13.34,2.25,-0.3,41.06,-8.119999999999999,-12.17
6.814792990684509,3,3,3,2,-15.92,0.32,-2.27,17.56,-7.6,-11.49
6.824792981147766,3,3,3,2,-18.5,0.43,-5.1,-0.5,-5.16,-8.01
6.834792971611023,3,3,3,2,-18.55,7.87,-5.86,-9.85,-2.69,-4.05
6.84479296207428,3,3,3,2,-15.95,9.77,-2.79,-13.78,-1.87,-1.69
6.854792952537537,3,3,3,2,-14.52,6.93,-0.22,-18.98,-2.56,0.16
6.864792943000793,3,3,3,2,-14.01,3.26,0.37,-26.98,-1.8,1.27
6.87479293346405,3,3,3,2,-10.11,-2.8,0.5600000000000001,-30.6,-0.15,1.37
6.884792923927307,3,3,3,2,-8.52,-6.35,-0.6899999999999999,-31.63,1.38,0.76
6.894792914390564,3,3,3,2,-7.24,-8.74,-1.87,-28.86,2.25,-2.22
6.904792904853821,3,3,3,2,-6.44,-10.25,-2.1,-20.38,2.26,-6.21
6.914792895317078,3,3,3,2,-6.49,-9.33,-2,-8.94,1.37,-8.94
6.924792885780334,3,3,3,2,-7.1,-7,-1.82,2.99,0.28,-10.29
6.934792876243591,3,3,3,2,-7.64,-3.97,-1.58,12.8,-0.46,-10.73
6.944792866706848,3,3,3,2,-7.83,-0.8,-1.16,18.33,-0.74,-10.8
6.954792857170105,3,3,3,2,-7.96,3.24,-0.64,18.19,-0.83,-10.52
6.964792847633362,3,3,3,2,-8.09,4.42,-0.44,14.01,-0.87,-9.57
6.974793076515198,3,3,3,2,-8.24,4.91,-0.23,7.57,-0.92,-8.220000000000001
6.984793066978455,3,3,3,2,-8.460000000000001,4.97,0.34,0.88,-0.85,-6.55
6.994793057441711,3,3,3,2,-8.880000000000001,5.15,2.28,-4.18,-1.09,-4.94
7.004793047904968,3,3,3,2,-9.18,4.41,3.1,-7.9,-0.97,-4.2
7.014793038368225,3,3,3,2,-9.08,3.75,3.7,-10.79,-0.47,-4.11
7.024793028831482,3,3,3,2,-8.68,3.06,4.02,-11.43,0.41,-4.2
7.034793019294739,3,3,3,2,-8.02,1.13,3.47,-10.63,1.26,-4.05
7.044793009757996,3,3,3,2,-8.19,-0.28,2.98,-9.109999999999999,1.99,-3.5
7.054793000221252,3,3,3,2,-8.58,-1.37,2.19,-7.12,2.49,-2.55
7.064792990684509,3,3,3,2,-8.960000000000001,-1.17,0.98,-3.32,2.43,-1.59
7.074792981147766,3,3,3,2,-9.06,0.34,-0.5,0.79,1.87,-0.97
7.084792971611023,3,3,3,2,-9.1,1.03,-1.14,3.57,1,-0.77
7.09479296207428,3,3,3,2,-9.359999999999999,1.46,-1.68,4.71,0.35,-0.82
7.104792952537537,3,3,3,2,-9.99,1.37,-1.8,4.27,-0.04,-1.1
7.114792943000793,3,3,3,2,-10.49,0.37,-1.72,2.75,-0.19,-1.64
7.12479293346405,3,3,3,2,-10.67,-0.38,-1.53,1.67,-0.07000000000000001,-2.19
7.134792923927307,3,3,3,2,-10.58,-0.85,-1.12,0.42,0.16,-2.86
7.144792914390564,3,3,3,2,-10.31,-2.41,-0.17,-0.44,0.38,-3.39
7.154792904853821,3,3,3,2,-10.06,-2.88,0.25,-1.82,0.5,-3.75
7.164792895317078,3,3,3,2,-9.84,-3.29,0.74,-1.64,0.48,-4.52
7.174792885780334,3,3,3,2,-9.619999999999999,-3.66,1.08,-1.64,0.48,-4.52
7.184792876243591,3,3,3,2,-9.27,-3.48,1.01,-0.82,0.27,-4.57
7.194792866706848,3,3,3,2,-9.23,-3.02,0.91,0.12,0.04,-4.33
7.204792857170105,3,3,3,2,-9.210000000000001,-2.57,0.79,0.76,-0.14,-3.99
7.214792847633362,3,3,3,2,-9.15,-1.7,0.53,1.07,-0.21,-3.95
7.224793076515198,3,3,3,2,-9.23,-0.53,0.36,0.85,-0.22,-3.89
7.234793066978455,3,3,3,2,-9.27,-0.37,0.29,0.85,-0.22,-3.89
7.244793057441711,3,3,3,2,-9.369999999999999,0.02,0.28,0.27,-0.37,-3.81
7.254793047904968,3,3,3,2,-9.359999999999999,0.37,0.34,-0.48,-0.71,-3.71
7.264793038368225,3,3,3,2,-9.44,0.32,0.23,-1.25,-0.88,-3.39
7.274793028831482,3,3,3,2,-9.43,0.25,0.32,-1.68,-1.09,-3.05
7.284793019294739,3,3,3,2,-9.380000000000001,0.28,0.44,-1.68,-1.09,-3.05
7.294793009757996,3,3,3,2,-9.49,0.51,0.37,-1.68,-1.21,-2.77
7.304793000221252,3,3,3,2,-9.380000000000001,-0.1,0.66,-2.49,-1.2,-2.05
7.314792990684509,3,3,3,2,-9.48,-0.1,0.62,-2.45,-1.08,-1.89
7.324792981147766,3,3,3,2,-9.57,-0.04,0.64,-2.52,-1.01,-1.6
7.334792971611023,3,3,3,2,-9.67,0.06,0.52,-2.52,-1.01,-1.6
7.34479296207428,3,3,3,2,-9.699999999999999,-0.05,0.6,-2.97,-0.87,-1.19
7.354792952537537,3,3,3,2,-9.74,-0.14,0.71,-3.14,-0.33,-0.46
7.364792943000793,3,3,3,2,-9.789999999999999,-0.3,0.6899999999999999,-3.03,-0.14,-0.13
7.37479293346405,3,3,3,2,-9.789999999999999,-0.77,0.75,-2.57,0.05,0.11
7.384792923927307,3,3,3,2,-9.65,-1.62,0.74,-2.57,0.05,0.11
7.394792914390564,3,3,3,2,-9.58,-1.85,0.65,-1.83,0.18,0.23
7.404792904853821,3,3,3,2,-9.49,-1.97,0.55,-0.31,0.19,0.43
7.414792895317078,3,3,3,2,-9.48,-2.16,0.45,0.22,0.18,0.43
7.424792885780334,3,3,3,2,-9.44,-2.19,0.32,0.84,0.16,0.25
7.434792876243591,3,3,3,2,-9.470000000000001,-2,0.24,0.84,0.16,0.25
7.444792866706848,3,3,3,2,-9.58,-1.9,0.21,1.37,0.01,0.04
7.454792857170105,3,3,3,2,-9.67,-1.92,0.25,1.31,0.04,-0.31
7.464792847633362,3,3,3,2,-9.609999999999999,-1.25,0.22,1.35,0.07000000000000001,-0.43
7.474793076515198,3,3,3,2,-9.640000000000001,-1.25,0.35,0.85,0.07000000000000001,-0.48
7.484793066978455,3,3,3,2,-9.619999999999999,-1.29,0.49,0.85,0.07000000000000001,-0.48
7.494793057441711,3,3,3,2,-9.59,-1.07,0.57,0.5600000000000001,0.09,-0.46
7.504793047904968,3,3,3,2,-9.59,-0.86,0.73,0.01,0.17,-0.39
7.514793038368225,3,3,3,2,-9.59,-0.76,0.63,-0.2,0.24,-0.22
7.524793028831482,3,3,3,2,-9.59,-0.5,0.59,-0.68,0.32,0.05
7.534793019294739,3,3,3,2,-9.52,-0.79,0.68,-0.68,0.32,0.05
7.544793009757996,3,3,3,2,-9.51,-0.99,0.71,-1.63,0.53,0.4
7.554793000221252,3,3,3,2,-9.48,-1.01,0.61,-1.29,0.78,0.64
7.564792990684509,3,3,3,2,-9.550000000000001,-1.17,0.38,-1.08,0.84,0.73
7.574792981147766,3,3,3,2,-9.720000000000001,-1.48,0.13,-0.85,0.84,0.83
7.584792971611023,3,3,3,2,-9.75,-1.48,0.06,-0.85,0.84,0.83
7.59479296207428,3,3,3,2,-9.710000000000001,-1.42,0.11,-0.43,0.77,0.9399999999999999
7.604792952537537,3,3,3,2,-9.6,-1.39,0.21,1.13,0.8100000000000001,1.04
7.614792943000793,3,3,3,2,-9.41,-0.43,0.08,2.08,0.74,1.09
7.62479293346405,3,3,3,2,-9.33,0.23,0.31,2.97,0.7,1.35
7.634792923927307,3,3,3,2,-9.19,1.12,0.5,2.97,0.7,1.35
7.644792914390564,3,3,3,2,-9.07,2.27,0.68,3.97,0.77,1.77
7.654792904853821,3,3,3,2,-8.81,5.23,0.96,4.91,0.95,3.87
7.664792895317078,3,3,3,2,-8.74,7.29,0.75,3.33,1.1,5.63
7.674792885780334,3,3,3,2,-8.779999999999999,7.95,0.75,-1.33,1.04,7.65
7.684792876243591,3,3,3,2,-8.69,6.26,1.27,-1.33,1.04,7.65
7.694792866706848,3,3,3,2,-7.82,3.34,1.87,-4.57,0.5600000000000001,9.17
7.704792857170105,3,3,3,2,-7.75,2.71,1.66,-3.36,0.22,10.62
7.714792847633362,3,3,3,2,-7.98,2.26,1.68,-1.25,-0.28,11.04
7.724793076515198,3,3,3,2,-8.18,2.05,1.83,1.37,-0.98,11.43
7.734793066978455,3,3,3,2,-8.77,3.32,1.22,1.37,-0.98,11.43
7.744793057441711,3,3,3,2,-9.41,3.42,1.24,3.17,-1.54,11.96
7.754793047904968,3,3,3,2,-9.68,1.45,0.6899999999999999,-0.53,-2.17,12.96
7.764793038368225,3,3,3,2,-9.06,-1.37,0.58,-0.55,-0.41,12.59
7.774793028831482,3,3,3,2,-9.050000000000001,-3.61,-0.23,0.12,1.99,12.27
7.784793019294739,3,3,3,2,-9.970000000000001,-4.43,0.03,0.12,1.99,12.27
7.794793009757996,3,3,3,2,-10.69,-4.86,-0.68,2.68,2.44,11.66
7.804793000221252,3,3,3,2,-10.92,-4.82,-0.95,11.24,1.02,11.54
7.814792990684509,3,3,3,2,-10.25,-3.92,0,13.45,2.45,11.03
7.824792981147766,3,3,3,2,-10.23,-3.1,0.19,11.29,3.32,11.07
7.835792899131775,3,3,3,2,-10.24,-3.46,0.13,11.29,3.32,11.07
7.845792889595032,3,3,3,2,-9.720000000000001,-3.38,-0.07000000000000001,9.199999999999999,2.41,11.58
7.855792880058289,3,3,3,2,-8.99,-0.17,0.97,10.98,3.84,11.57
7.865792870521545,3,3,3,2,-9.09,-0.61,0.85,8.039999999999999,3.46,12.42
7.875792860984802,3,3,3,2,-9.27,-1.91,0.8,4.71,2.04,12.42
7.885792851448059,3,3,3,2,-9.1,-3.33,-0.29,4.71,2.04,12.42
7.895793080329895,3,3,3,2,-8.35,-3.75,-1.16,2.84,1.32,11.37
7.905793070793152,3,3,3,2,-9.06,-2.32,-1.34,3.01,2.22,8.19
7.915793061256409,3,3,3,2,-10.2,-1.36,-1.55,1.83,1.7,6.92
7.925793051719666,3,3,3,2,-11.67,-1.23,-2.28,-0.78,0.75,5.57
7.935793042182922,3,3,3,2,-12.2,-2.23,-1.96,-0.78,0.75,5.57
7.945793032646179,3,3,3,2,-12.69,-3.77,-2.16,-4.03,0.52,3.65
7.955793023109436,3,3,3,2,-13.06,-5.31,-2.98,-6.53,0.52,-0.6
7.965793013572693,3,3,3,2,-14.38,-5.1,-2.95,-4.16,0.68,-2.15
7.97579300403595,3,3,3,2,-15.63,-4.48,-2.35,-1.72,0.38,-3.06
7.985792994499207,3,3,3,2,-16.63,-4.12,-1.79,-1.72,0.38,-3.06
7.995792984962463,3,3,3,2,-17.49,-3.39,-0.98,-0.14,-0.27,-3.78
8.00579297542572,3,3,3,2,-19.31,-3.33,1.07,-0.53,-1.94,-5.1
8.015792965888977,3,3,3,2,-19.91,-3.83,1.9,-1.88,-2.88,-5.69
8.025792956352234,3,3,3,2,-20.52,-4.54,2.88,-3.05,-3.84,-6.46
8.035792946815491,3,3,3,2,-21.1,-5.44,4.17,-3.05,-3.84,-6.46
8.045792937278748,3,3,3,2,-21.81,-8.34,6.25,-3.68,-5.09,-7.59
8.055792927742004,3,3,3,2,-21.69,-10.28,6.53,-3.1,-7.82,-10.62
8.065792918205261,3,3,3,2,-21.52,-12.49,6.06,-0.78,-8.869999999999999,-12.71
8.075792908668518,3,3,3,2,-21.93,-14.67,5.37,2.25,-10.12,-15.26
8.085792899131775,3,3,3,2,-23.27,-18.97,0.96,2.25,-10.12,-15.26
8.095792889595032,3,3,3,2,-24.13,-18.46,-1.63,7.11,-10.3,-18.01
8.105792880058289,3,3,3,2,-25.51,-16.27,-3.52,13.48,-10.39,-22.18
8.115792870521545,3,3,3,2,-26.95,-12.6,-6.08,12.39,-9.390000000000001,-23.22
8.125792860984802,3,3,3,2,-27.51,-1.56,-10.55,7.26,-7.36,-23
8.135792851448059,3,3,3,2,-25.18,2.04,-10.63,7.26,-7.36,-23
8.145793080329895,3,3,3,2,-21.76,4.5,-9.470000000000001,1.59,-4.16,-22.86
8.155793070793152,3,3,3,2,-18.54,4.53,-8.26,4.19,2.39,-26.76
8.165793061256409,3,3,3,2,-10.71,3.09,-4.23,20.47,-0.73,-27.13
8.175793051719666,3,3,3,2,-6.52,20.84,0.85,37.74,-7.8,-25.17
8.185793042182922,3,3,3,2,-3.11,39.23,11.71,37.74,-7.8,-25.17
8.195793032646179,3,3,3,2,-0.43,39.23,21.62,17.15,-12.39,-11.3
8.205793023109436,3,3,3,2,8.289999999999999,20.86,3.45,-22.74,6.84,6.17
8.245792984962463,3,3,3,2,-1.58,1.26,1.01,9.539999999999999,0.33,6.85
8.25579297542572,3,3,3,2,-0.06,2.58,-2.44,3.9,1.69,12.88
8.265792965888977,3,3,3,2,0.49,-0.2,-4.79,-4,0.67,13.81
8.275792956352234,3,3,3,2,0.27,-4.77,-4.11,-4.25,-0.52,11.11
8.285792946815491,3,3,3,2,0.25,-7.94,-2.73,-4.25,-0.52,11.11
8.295792937278748,3,3,3,2,-0.15,-7.42,-1.64,-1.82,0.43,8.039999999999999
8.305792927742004,3,3,3,2,0.26,-5.99,0.15,6,0.21,4.86
8.315792918205261,3,3,3,2,1.51,-2.11,-1.43,7.15,-1.86,4.43
8.325792908668518,3,3,3,2,1.83,-1.88,-1.65,4.59,-3.54,4.33
8.335792899131775,3,3,3,2,1.79,-2.49,-1.15,4.59,-3.54,4.33
8.345792889595032,3,3,3,2,1.29,-2.76,-0.95,3.6,-3.97,4.1
8.355792880058289,3,3,3,2,0.25,-3.28,-0.63,7.33,-2.21,3.98
8.365792870521545,3,3,3,2,0.22,-2.92,-0.79,10.49,-0.42,3.99
8.375792860984802,3,3,3,2,0.36,-1.88,-1.05,11.67,1.49,4.34
8.385792851448059,3,3,3,2,0.34,-0.49,-1.31,11.67,1.49,4.34
8.395793080329895,3,3,3,2,0.16,0.27,-1.07,9.609999999999999,2.87,4.92
8.405793070793152,3,3,3,2,0.23,0.57,-1.51,3.86,4.21,5.03
8.415793061256409,3,3,3,2,0,0.8,-2.01,0.12,4.55,4.62
8.425793051719666,3,3,3,2,-0.39,0.85,-2.25,-3.55,4.3,3.87
8.435793042182922,3,3,3,2,-0.48,1.18,-1.84,-3.55,4.3,3.87
8.445793032646179,3,3,3,2,-0.19,1.05,-1.34,-6.82,3.56,3.55
8.455793023109436,3,3,3,2,-0.33,1.11,-1,-12.56,2.51,4.46
8.465793013572693,3,3,3,2,-0.89,1.22,-0.8,-14.11,2.11,5.02
8.47579300403595,3,3,3,2,-1.23,0.34,-0.64,-14.74,1.27,5.23
8.485792994499207,3,3,3,2,-0.96,-0.26,-1.13,-14.74,1.27,5.23
8.495792984962463,3,3,3,2,-0.73,-0.7,-1.09,-13.25,0.77,4.79
8.50579297542572,3,3,3,2,-0.51,0.48,0.41,-8.5,0.18,3.76
8.515792965888977,3,3,3,2,-1.15,2.99,-0.1,-6.42,0.16,3.39
8.525792956352234,3,3,3,2,-3.44,15.68,0.78,-0.59,-0.62,3.6
8.535792946815491,3,3,3,2,-3.44,15.68,0.78,-0.59,-0.62,3.6
8.545792937278748,3,3,3,2,-7.94,36.66,4.33,-19.85,-1.24,1.74
8.555792927742004,3,3,3,2,-10.36,-39.01,-11.51,-48.22,1.29,-2.54
8.565792918205261,3,3,3,2,-25.69,-6.83,-4.98,-15.96,4.33,-11.98
8.575792908668518,3,3,3,2,-30.34,18.24,6.94,37.95,-2.71,-11.06
8.585792899131775,3,3,3,2,-30.34,18.24,6.94,37.95,-2.71,-11.06
8.595792889595032,3,3,3,2,-25.51,9.359999999999999,-9.66,22.39,5.77,3.52
8.605792880058289,3,3,3,2,-19.07,12.75,-3.02,3.87,9.460000000000001,14.33
8.615792870521545,3,3,3,2,-32.81,24.1,-6.43,2.4,10.07,12.64
8.625792860984802,3,3,3,2,-38.98,1.97,10.28,-11.72,5.64,15.87
8.635792851448059,3,3,3,2,-38.98,1.97,10.28,-11.72,5.64,15.87
8.645793080329895,3,3,3,2,-27.92,-17.68,9.050000000000001,-42.93,7.81,16.16
8.655793070793152,3,3,3,2,-11.45,-39.21,-0.89,-34.85,8.25,11.09
8.665793061256409,3,3,3,2,-13.72,-28.26,-0.41,-3.75,8.77,4.24
8.675793051719666,3,3,3,2,-16.61,-16.51,-0.4,29.97,6.1,-0.29
8.685793042182922,3,3,3,2,-16.61,-16.51,-0.4,43.77,2.83,-3.7
8.695793032646179,3,3,3,2,-15.75,-8.08,0.78,41.33,0.13,-6.3
8.705793023109436,3,3,3,2,-18.35,4.77,4.22,28.59,-2.94,-6.74
8.715793013572693,3,3,3,2,-18.76,4.65,3.04,10.35,-4.27,-4.15
8.72579300403595,3,3,3,2,-19.74,2.31,1.2,-7.69,-3.75,-1.2
8.735792994499207,3,3,3,2,-19.74,2.31,1.2,-7.69,-3.75,-1.2
8.745792984962463,3,3,3,2,-16.87,-1.26,-0.04,-21.53,-2.56,0.36
8.75579297542572,3,3,3,2,-13.15,-2.99,0.5,-21.34,-1.84,-0.08
8.765792965888977,3,3,3,2,-12.49,-4.01,-0.04,-20.11,-1.65,-1.35
8.775792956352234,3,3,3,2,-11.49,-6.1,-1.82,-16.45,-1.41,-3.5
8.785792946815491,3,3,3,2,-11.49,-6.1,-1.82,-16.45,-1.41,-3.5
8.795792937278748,3,3,3,2,-11.07,-6.42,-2.24,-9.99,-0.66,-6.58
8.805792927742004,3,3,3,2,-8.81,-5.58,-3.06,4.83,-0.77,-10.31
8.815792918205261,3,3,3,2,-7.4,-2.59,-3.15,11.34,-1.54,-10.32
8.825792908668518,3,3,3,2,-7.32,-0.91,-2.94,15.41,-1.89,-9.699999999999999
8.835792899131775,3,3,3,2,-7.32,-0.91,-2.94,16.36,-1.84,-9.039999999999999
8.845792889595032,3,3,3,2,-7.56,1.47,-2.75,14.76,-1.57,-8.289999999999999
8.85679304599762,3,3,3,2,-7.3,2.67,-2.32,11.71,-1.18,-7.71
8.866793036460876,3,3,3,2,-6.68,2.79,-1.75,7.91,-0.78,-7.43
8.876793026924133,3,3,3,2,-5.82,2.6,-1.27,3.79,-0.28,-7.8
8.88679301738739,3,3,3,2,-5.82,2.6,-1.27,-0.47,0.4,-8.6
8.906792998313904,3,3,3,2,-5.57,-0.58,-0.02,-4.19,0.79,-10.26
8.916792988777161,3,3,3,2,-6,-0.76,0.55,-4.02,0.6,-10.77
8.926792979240417,3,3,3,2,-6.44,-0.76,0.91,-3.37,0.47,-11.15
8.936792969703674,3,3,3,2,-6.44,-0.76,0.91,-2.8,0.09,-11.16
8.946792960166931,3,3,3,2,-6.96,-0.88,1.54,-2,-0.32,-10.93
8.956792950630188,3,3,3,2,-7.48,-0.46,1.32,-0.93,-0.57,-10.41
8.966792941093445,3,3,3,2,-7.99,-0.03,1.47,0.26,-0.83,-9.75
8.976792931556702,3,3,3,2,-9.640000000000001,2.21,1.75,2.04,-1.06,-9.050000000000001
8.986792922019958,3,3,3,2,-9.640000000000001,2.21,1.75,2.61,-1.4,-8.359999999999999
8.996792912483215,3,3,3,2,-11.22,3.33,2.4,2.15,-2.26,-7.85
9.006792902946472,3,3,3,2,-13.77,4.72,3.55,0.37,-2.92,-7.35
9.016792893409729,3,3,3,2,-11.91,3.04,2.1,-2.79,-3.12,-6.9
9.026792883872986,3,3,3,2,-10.58,1.87,0.83,-6.3,-2.74,-6.63
9.036792874336243,3,3,3,2,-10.58,1.87,0.83,-9.23,-2.03,-6.47
9.0467928647995,3,3,3,2,-9.789999999999999,0.7,-0.12,-10.61,-1.72,-6.36
9.056792855262756,3,3,3,2,-9.41,-1.43,-1.64,-10.85,-1.65,-6.36
9.066793084144592,3,3,3,2,-9.359999999999999,-1.73,-1.35,-10.48,-1.55,-6.36
9.076793074607849,3,3,3,2,-9.59,-2.13,-0.5,-8.960000000000001,-0.99,-5.88
9.086793065071106,3,3,3,2,-9.59,-2.13,-0.5,-6.35,-0.6,-4.94
9.096793055534363,3,3,3,2,-9.869999999999999,-2.74,0.9,-3.06,-0.53,-4
9.10679304599762,3,3,3,2,-9.49,-2.42,0.65,-0.39,-0.58,-3.26
9.116793036460876,3,3,3,2,-9.210000000000001,-2.43,0.53,1.41,-0.79,-2.53
9.126793026924133,3,3,3,2,-8.74,-1.85,0.5600000000000001,2.78,-1.18,-2.19
9.13679301738739,3,3,3,2,-8.74,-1.85,0.5600000000000001,3.66,-1.6,-2.28
9.146793007850647,3,3,3,2,-8.609999999999999,-1.4,0.52,3.43,-1.74,-2.44
9.156792998313904,3,3,3,2,-8.640000000000001,-0.87,0.37,2.68,-1.56,-2.67
9.166792988777161,3,3,3,2,-8.98,-0.64,0.32,1.81,-1.25,-2.8
9.176792979240417,3,3,3,2,-9.5,-0.78,0.47,0.75,-0.75,-2.38
9.186792969703674,3,3,3,1,-9.5,-0.78,0.47,-0.16,-0.34,-1.16
9.196792960166931,3,3,3,1,-10.17,-1.01,0.9,-0.31,-0.4,-0.21
9.206792950630188,3,3,3,1,-10,-0.6,1.2,-1.04,-0.25,0.06
9.216792941093445,3,3,3,1,-9.779999999999999,-0.72,0.95,-2.45,-0.23,-0.05
9.226792931556702,3,3,3,1,-9.58,-0.74,0.97,-3.62,-0.34,-0.06
9.236792922019958,3,3,3,1,-9.58,-0.74,0.97,-4.62,-0.39,0.09
9.246792912483215,3,3,3,1,-9.49,-0.79,0.9,-5.65,-0.21,0.52
9.256792902946472,3,3,3,1,-9.81,-1.86,0.22,-5.96,0.25,1.28
9.266792893409729,3,3,3,1,-9.880000000000001,-2.22,0.2,-5.5,0.85,1.95
9.276792883872986,3,3,3,1,-9.91,-2.54,0.17,-4.75,1.35,2.32
9.286792874336243,3,3,3,1,-9.91,-2.54,0.17,-3.48,1.72,2.12
9.2967928647995,3,3,3,1,-9.42,-3.42,0.17,-2.25,1.75,1.63
9.306792855262756,3,3,3,1,-9.32,-4.59,0.22,-0.95,1.2,1.07
9.316793084144592,3,3,3,1,-9.289999999999999,-4.59,0.23,0.02,0.8,0.84
9.326793074607849,3,3,3,1,-9.32,-4.52,0.36,0.08,0.68,0.7
9.336793065071106,3,3,3,2,-9.32,-4.52,0.36,0.84,0.55,0.3
9.346793055534363,3,3,3,2,-9.039999999999999,-3.87,0.38,1.3,0.38,-0.23
9.35679304599762,3,3,3,2,-9.08,-3.07,0.22,0.76,0.14,-0.42
9.366793036460876,3,3,3,2,-9.109999999999999,-2.33,0.37,0.26,-0.09,-0.43
9.376793026924133,3,3,3,2,-9.220000000000001,-1.92,0.25,-0.1,-0.2,-0.47
9.38679301738739,3,3,3,2,-9.4,-1.69,0.22,-0.89,-0.39,-0.5
9.396793007850647,3,3,3,2,-9.52,-1.53,0.21,-1.41,-0.37,-0.55
9.406792998313904,3,3,3,2,-9.73,-1.49,0.03,-1.69,-0.26,-0.57
9.416792988777161,3,3,3,2,-9.74,-1.52,0.16,-1.91,-0.15,-0.54
9.426792979240417,3,3,3,2,-9.640000000000001,-1.61,0.3,-1.75,-0.02,-0.42
9.436792969703674,3,3,3,2,-9.550000000000001,-1.84,0.44,-1.35,0.13,-0.33
9.446792960166931,3,3,3,2,-9.51,-1.95,0.51,-0.77,0.17,-0.27
9.456792950630188,3,3,3,2,-9.48,-1.95,0.47,-0.02,0.08,-0.18
9.466792941093445,3,3,3,2,-9.43,-1.84,0.41,0.84,-0.09,-0.14
9.476792931556702,3,3,3,2,-9.619999999999999,-2.33,0.26,1.21,-0.24,-0.11
9.486792922019958,3,3,3,2,-9.75,-2.5,0.22,1.33,-0.32,-0.07000000000000001
9.496792912483215,3,3,3,2,-9.73,-2.53,0.11,1.84,-0.34,-0.08
9.506792902946472,3,3,3,2,-9.710000000000001,-2.62,-0.16,2.21,-0.36,-0.13
9.516792893409729,3,3,3,2,-9.48,-3.08,0.1,2.19,-0.25,-0.12
9.526792883872986,3,3,3,2,-9.289999999999999,-2.91,0.24,2.48,-0.06,-0.06
9.536792874336243,3,3,3,2,-9.23,-2.83,0.28,2.67,-0.02,-0.06
9.5467928647995,3,3,3,2,-9.199999999999999,-2.76,0.37,2.58,-0.08,-0.06
9.556792855262756,3,3,3,2,-9.300000000000001,-2.87,0.24,2.17,-0.22,-0.11
9.566793084144592,3,3,3,2,-9.44,-3.1,0.41,1.32,-0.23,-0.13
9.576793074607849,3,3,3,2,-9.51,-3.11,0.39,0.86,-0.27,-0.1
9.586793065071106,3,3,3,2,-9.550000000000001,-3.05,0.35,0.7,-0.34,-0.21
9.596793055534363,3,3,3,2,-9.369999999999999,-2.65,0.29,0.75,-0.47,-0.36
9.60679304599762,3,3,3,2,-9.33,-2.43,0.15,0.77,-0.53,-0.47
9.616793036460876,3,3,3,2,-9.4,-2.45,0.28,0.37,-0.51,-0.5
9.626793026924133,3,3,3,2,-9.51,-2.45,0.42,0.16,-0.47,-0.42
9.63679301738739,3,3,3,2,-9.57,-2.31,0.37,0.25,-0.44,-0.39
9.646793007850647,3,3,3,2,-9.51,-2.29,0.3,0.39,-0.47,-0.46
9.656792998313904,3,3,3,2,-9.43,-2.18,0.16,0.75,-0.54,-0.55
9.666792988777161,3,3,3,2,-9.359999999999999,-2.01,0.21,0.68,-0.52,-0.51
9.676792979240417,3,3,3,2,-9.460000000000001,-2.32,0.43,0.43,-0.37,-0.3
9.686792969703674,3,3,3,2,-9.56,-2.19,0.41,0.51,-0.35,-0.23
9.696792960166931,3,3,3,2,-9.6,-2.24,0.43,0.35,-0.21,-0.14
9.706792950630188,3,3,3,2,-9.539999999999999,-2.41,0.44,0.33,-0.09,0.02
9.716792941093445,3,3,3,2,-9.43,-2.41,0.5600000000000001,0.52,0,0.1
9.726792931556702,3,3,3,2,-9.380000000000001,-2.45,0.6,0.46,0,0.15
9.736792922019958,3,3,3,2,-9.42,-2.55,0.67,0.2,-0.06,0.19
9.746792912483215,3,3,3,2,-9.449999999999999,-2.57,0.65,-0.06,-0.15,0.2
9.756792902946472,3,3,3,2,-9.5,-2.79,0.44,-0.52,-0.05,0.29
9.766792893409729,3,3,3,2,-9.44,-2.9,0.46,-0.95,0.06,0.42
9.776792883872986,3,3,3,2,-9.35,-2.87,0.38,-0.89,0.06,0.39
9.786792874336243,3,3,3,2,-9.32,-2.96,0.35,-1.05,0.03,0.42
9.7967928647995,3,3,3,2,-9.289999999999999,-3.02,0.33,-1.03,0.02,0.39
9.806792855262756,3,3,3,2,-9.33,-2.93,0.26,-0.8100000000000001,-0.04,0.31
9.816793084144592,3,3,3,2,-9.359999999999999,-2.86,0.3,-0.7,-0.12,0.18
9.826793074607849,3,3,3,2,-9.4,-2.67,0.34,-0.67,-0.2,0.04
9.837792992591858,3,3,3,2,-9.5,-2.59,0.42,-0.72,-0.15,0.06
9.846793055534363,3,3,3,2,-9.460000000000001,-2.38,0.41,-0.62,-0.12,0.1
9.85679304599762,3,3,3,2,-9.49,-2.29,0.38,-0.5,-0.15,0.06
9.867792963981628,3,3,3,2,-9.52,-2.17,0.42,-0.43,-0.22,0.03
9.876793026924133,3,3,3,2,-9.49,-2.2,0.5,-0.4,-0.27,0.03
9.887792944908142,3,3,3,2,-9.49,-2.22,0.55,-0.39,-0.24,0.05
9.897792935371399,3,3,3,2,-9.5,-2.2,0.53,-0.52,-0.23,0.06
9.907792925834656,3,3,3,2,-9.470000000000001,-2.32,0.4,-0.77,-0.2,0.11
9.917792916297913,3,3,3,2,-9.43,-2.4,0.44,-0.88,-0.21,0.14
9.927792906761169,3,3,3,2,-9.449999999999999,-2.51,0.45,-0.93,-0.17,0.17
9.937792897224426,3,3,3,2,-9.4,-2.54,0.39,-0.87,-0.18,0.17
9.947792887687683,3,3,3,2,-9.4,-2.65,0.38,-0.89,-0.17,0.24
9.95779287815094,3,3,3,2,-9.380000000000001,-2.61,0.28,-0.78,-0.2,0.23
9.967792868614197,3,3,3,2,-9.4,-2.56,0.25,-0.85,-0.22,0.21
9.977792859077454,3,3,3,2,-9.43,-2.72,0.36,-1.07,-0.2,0.22
9.98779284954071,3,3,3,2,-9.5,-2.82,0.4,-0.9399999999999999,-0.18,0.18
9.997793078422546,3,3,3,2,-9.49,-2.79,0.38,-0.78,-0.2,0.09
10.0077930688858,3,3,3,2,-9.44,-2.81,0.28,-0.64,-0.33,0.03
10.01779305934906,3,3,3,2,-9.42,-2.78,0.28,-0.41,-0.41,-0.05
10.02779304981232,3,3,3,2,-9.42,-2.57,0.37,-0.25,-0.45,-0.15
10.03779304027557,3,3,3,2,-9.41,-2.52,0.42,-0.07000000000000001,-0.47,-0.21
10.04779303073883,3,3,3,2,-9.42,-2.48,0.44,0.03,-0.44,-0.26
10.05779302120209,3,3,3,2,-9.470000000000001,-2.48,0.29,0.02,-0.39,-0.27
10.06779301166534,3,3,3,2,-9.51,-2.51,0.4,0.04,-0.38,-0.22
10.0777930021286,3,3,3,2,-9.56,-2.52,0.44,0.16,-0.35,-0.21
10.08779299259186,3,3,3,2,-9.51,-2.48,0.44,0.27,-0.35,-0.21
10.09779298305511,3,3,3,2,-9.41,-2.37,0.39,0.28,-0.38,-0.2
10.10779297351837,3,3,3,2,-9.43,-2.54,0.39,0,-0.29,-0.04
10.11779296398163,3,3,3,2,-9.470000000000001,-2.56,0.45,-0.06,-0.22,0
10.12779295444489,3,3,3,2,-9.5,-2.57,0.45,-0.06,-0.22,0
10.13779294490814,3,3,3,2,-9.48,-2.68,0.42,0,-0.3,-0.06
10.1477929353714,3,3,3,2,-9.380000000000001,-2.66,0.41,0.14,-0.37,-0.18
10.15779292583466,3,3,3,2,-9.369999999999999,-2.59,0.35,0.19,-0.45,-0.26
10.16779291629791,3,3,3,2,-9.369999999999999,-2.55,0.39,0.2,-0.51,-0.32
10.17779290676117,3,3,3,2,-9.4,-2.47,0.39,0.11,-0.52,-0.36
10.18779289722443,3,3,3,2,-9.460000000000001,-2.59,0.46,-0.04,-0.46,-0.33
10.19779288768768,3,3,3,2,-9.52,-2.6,0.43,0.01,-0.35,-0.24
10.20779287815094,3,3,3,2,-9.470000000000001,-2.59,0.35,0.1,-0.33,-0.21
10.2177928686142,3,3,3,2,-9.41,-2.62,0.42,0.18,-0.35,-0.19
10.22779285907745,3,3,3,2,-9.359999999999999,-2.58,0.49,0.31,-0.32,-0.17
10.23779284954071,3,3,3,2,-9.390000000000001,-2.51,0.5,0.31,-0.29,-0.18
10.24779307842255,3,3,3,2,-9.43,-2.53,0.53,0.21,-0.27,-0.13
10.2577930688858,3,3,3,2,-9.48,-2.5,0.41,0.18,-0.31,-0.11
10.26779305934906,3,3,3,2,-9.470000000000001,-2.52,0.45,0.12,-0.32,-0.13
10.27779304981232,3,3,3,2,-9.449999999999999,-2.56,0.48,0.07000000000000001,-0.3,-0.18
10.28779304027557,3,3,3,2,-9.44,-2.54,0.53,0.12,-0.28,-0.14
10.29779303073883,3,3,3,2,-9.449999999999999,-2.52,0.47,0.11,-0.24,-0.12
10.30779302120209,3,3,3,2,-9.44,-2.58,0.43,0.04,-0.21,-0.07000000000000001
10.31779301166534,3,3,3,2,-9.44,-2.62,0.54,0,-0.15,-0.02
10.3277930021286,3,3,3,2,-9.42,-2.61,0.57,0.07000000000000001,-0.13,-0.03
10.33779299259186,3,3,3,3,-9.43,-2.61,0.62,0.07000000000000001,-0.12,-0.06
10.34779298305511,3,3,3,3,-9.42,-2.68,0.57,-0.01,-0.14,-0.03
10.35779297351837,3,3,3,3,-9.390000000000001,-2.7,0.48,-0.1,-0.14,-0.01
10.36779296398163,3,3,3,3,-9.390000000000001,-2.71,0.51,-0.11,-0.08,0.08
10.37779295444489,3,3,3,3,-9.449999999999999,-2.7,0.51,-0.13,-0.07000000000000001,0.12
10.38779294490814,3,3,3,3,-9.449999999999999,-2.71,0.49,-0.16,-0.05,0.14
10.3977929353714,3,3,3,3,-9.470000000000001,-2.75,0.53,-0.13,-0.04,0.17
10.40779292583466,3,3,3,3,-9.449999999999999,-2.71,0.46,0,-0.03,0.13
10.41779291629791,3,3,3,3,-9.43,-2.63,0.5600000000000001,0.07000000000000001,-0.03,0.1
10.42779290676117,3,3,3,3,-9.41,-2.58,0.55,0.07000000000000001,-0.05,0.01
10.43779289722443,3,3,3,3,-9.41,-2.54,0.59,0.05,-0.11,-0.05
10.44779288768768,3,3,3,3,-9.4,-2.51,0.59,0.08,-0.12,-0.08
10.45779287815094,3,3,3,3,-9.369999999999999,-2.45,0.39,0.1,-0.12,-0.07000000000000001
10.4677928686142,3,3,3,3,-9.449999999999999,-2.54,0.47,0.06,-0.01,0.02
10.47779285907745,3,3,3,3,-9.52,-2.59,0.52,0.08,0.07000000000000001,0.19
10.48779284954071,3,3,3,3,-9.52,-2.58,0.55,0.28,0.09,0.24
10.49779307842255,3,3,3,3,-9.449999999999999,-2.6,0.49,0.3,0.17,0.32
10.5077930688858,3,3,3,3,-9.41,-2.61,0.42,0.3,0.22,0.35
10.51779305934906,3,3,3,3,-9.369999999999999,-2.53,0.45,0.42,0.2,0.38
10.52779304981232,3,3,3,3,-9.390000000000001,-2.46,0.51,0.35,0.2,0.34
10.53779304027557,3,3,3,3,-9.44,-2.51,0.51,0.35,0.14,0.35
10.54779303073883,3,3,3,3,-9.42,-2.52,0.49,0.33,0.14,0.28
10.55779302120209,3,3,3,3,-9.4,-2.55,0.42,0.33,0.07000000000000001,0.19
10.56779301166534,3,3,3,3,-9.460000000000001,-2.59,0.44,0.33,-0.01,0.14
10.5777930021286,3,3,3,3,-9.460000000000001,-2.62,0.49,0.36,0,0.06
10.58779299259186,3,3,3,3,-9.449999999999999,-2.7,0.47,0.31,0.01,0.09
10.59779298305511,3,3,3,3,-9.460000000000001,-2.7,0.5,0.36,0.05,0.1
10.60779297351837,3,3,3,3,-9.43,-2.71,0.4,0.41,0.09,0.16
10.61779296398163,3,3,3,3,-9.43,-2.76,0.48,0.39,0.1,0.17
10.62779295444489,3,3,3,3,-9.390000000000001,-2.71,0.51,0.45,0.06,0.16
10.63779294490814,3,3,3,3,-9.369999999999999,-2.67,0.51,0.41,0.05,0.1
10.6477929353714,3,3,3,3,-9.35,-2.59,0.46,0.38,0.02,0.04
10.65779292583466,3,3,3,3,-9.4,-2.57,0.41,0.31,-0.01,-0.03
10.66779291629791,3,3,3,3,-9.449999999999999,-2.54,0.48,0.24,-0.03,-0.09
10.67779290676117,3,3,3,3,-9.470000000000001,-2.52,0.5,0.21,-0.06,-0.11
10.68779289722443,3,3,3,3,-9.470000000000001,-2.43,0.48,0.19,-0.05,-0.16
10.69779288768768,3,3,3,3,-9.48,-2.47,0.47,0.13,-0.02,-0.13
10.70779287815094,3,3,3,3,-9.470000000000001,-2.46,0.38,0.16,-0.02,-0.11
10.7177928686142,3,3,3,3,-9.460000000000001,-2.48,0.41,0.18,0,-0.03
10.72779285907745,3,3,3,3,-9.470000000000001,-2.49,0.45,0.21,0.03,-0.04
10.73779284954071,3,3,3,2,-9.449999999999999,-2.47,0.49,0.24,0.03,-0.08
10.74779307842255,3,3,3,2,-9.43,-2.49,0.49,0.23,0,-0.13
10.7577930688858,3,3,3,2,-9.44,-2.47,0.4,0.24,0.02,-0.17
10.76779305934906,3,3,3,2,-9.44,-2.45,0.47,0.27,0.02,-0.19
10.77779304981232,3,3,3,2,-9.42,-2.48,0.5,0.24,-0.01,-0.21
10.78779304027557,3,3,3,2,-9.44,-2.49,0.5,0.2,-0.06,-0.23
10.79779303073883,3,3,3,2,-9.460000000000001,-2.48,0.5,0.15,-0.05,-0.31
10.80779302120209,3,3,3,2,-9.42,-2.51,0.35,0.11,-0.07000000000000001,-0.4
10.81779301166534,3,3,3,2,-9.43,-2.57,0.43,0.03,-0.08,-0.46
10.8277930021286,3,3,3,2,-9.449999999999999,-2.62,0.46,0.01,-0.07000000000000001,-0.47
10.83779299259186,3,3,3,2,-9.449999999999999,-2.59,0.47,0.06,-0.04,-0.46
10.84779298305511,3,3,3,2,-9.449999999999999,-2.63,0.46,0.02,-0.04,-0.45
10.85779297351837,3,3,3,2,-9.470000000000001,-2.67,0.36,0.04,-0.04,-0.45
10.86779296398163,3,3,3,2,-9.449999999999999,-2.62,0.44,0.11,-0.03,-0.44
10.87779295444489,3,3,3,2,-9.43,-2.59,0.47,0.13,-0.07000000000000001,-0.43
10.88779294490814,3,3,3,2,-9.43,-2.54,0.51,0.12,-0.05,-0.44
10.8977929353714,3,3,3,2,-9.42,-2.54,0.51,0.06,-0.09,-0.46
10.90879285335541,3,3,3,2,-9.41,-2.53,0.4,0.05,-0.06,-0.48
10.91879308223724,3,3,3,2,-9.44,-2.48,0.43,0.02,-0.06,-0.48
10.9287930727005,3,3,3,2,-9.470000000000001,-2.5,0.49,-0.01,-0.04,-0.53
10.93879306316376,3,3,3,2,-9.449999999999999,-2.48,0.49,0.05,-0.03,-0.5600000000000001
10.94879305362701,3,3,3,2,-9.449999999999999,-2.52,0.51,0.07000000000000001,-0.09,-0.55
10.95879304409027,3,3,3,2,-9.449999999999999,-2.56,0.41,0.08,-0.04,-0.51
10.96879303455353,3,3,3,2,-9.43,-2.55,0.46,0.13,0.02,-0.48
10.97879302501678,3,3,3,2,-9.43,-2.52,0.51,0.17,0.03,-0.48
10.98879301548004,3,3,3,2,-9.44,-2.56,0.51,0.19,0.01,-0.41
10.9987930059433,3,3,3,2,-9.460000000000001,-2.63,0.47,0.19,0.05,-0.4
11.00879299640656,3,3,3,2,-9.449999999999999,-2.64,0.41,0.24,0.05,-0.38
11.01879298686981,3,3,3,2,-9.42,-2.65,0.48,0.26,0.07000000000000001,-0.31
11.02879297733307,3,3,3,2,-9.390000000000001,-2.62,0.47,0.24,0.09,-0.27
11.03879296779633,3,3,3,2,-9.41,-2.65,0.51,0.23,0.1,-0.23
11.04879295825958,3,3,3,2,-9.390000000000001,-2.66,0.46,0.24,0.06,-0.22
11.05879294872284,3,3,3,2,-9.4,-2.7,0.4,0.22,0.08,-0.22
11.0687929391861,3,3,3,2,-9.4,-2.7,0.4,0.17,0.01,-0.23
11.07879292964935,3,3,3,2,-9.380000000000001,-2.71,0.48,0.14,0.06,-0.24
11.08879292011261,3,3,3,2,-9.380000000000001,-2.7,0.5,0.13,0.05,-0.24
11.09879291057587,3,3,3,2,-9.42,-2.71,0.51,0.07000000000000001,0.04,-0.22
11.10879290103912,3,3,3,2,-9.41,-2.73,0.43,0,0.05,-0.14
11.11879289150238,3,3,3,2,-9.470000000000001,-2.82,0.3,-0.06,0.17,0.19
11.12879288196564,3,3,3,2,-9.59,-2.79,0.29,-0.16,0.32,1
11.13879287242889,3,3,3,2,-9.789999999999999,-2.75,0.47,-0.1,0.6,2.05
11.14879286289215,3,3,3,2,-9.960000000000001,-2.68,0.43,0.17,0.9,2.83
11.15879285335541,3,3,3,2,-9.970000000000001,-1.79,0.12,0.17,1.26,3.29
11.16879308223724,3,3,3,2,-9.68,-1.52,0.18,-0.72,1.46,3.65
11.1787930727005,3,3,3,2,-9.199999999999999,-0.61,0.11,-2.38,2.12,3.98
11.18879306316376,3,3,3,2,-9.07,0.07000000000000001,0.21,-5.18,3.56,4.64
11.19879305362701,3,3,3,2,-8.300000000000001,-1.71,0.99,-3.9,3.8,4.44
11.20879304409027,3,3,3,2,-8.66,-1.53,0.5600000000000001,-1.89,2.96,3.73
11.21879303455353,3,3,3,2,-9.109999999999999,-2.3,1.19,-1.31,2.21,3.92
11.22879302501678,3,3,3,2,-8.93,-2.64,1.15,0.13,1.3,3.81
11.23879301548004,3,3,3,2,-9.27,-2.6,0.64,0.65,0.92,3.42
11.2487930059433,3,3,3,2,-9.449999999999999,-2.56,0.52,0.6899999999999999,0.67,3.17
11.25879299640656,3,3,3,2,-9.6,-2.25,0.37,0.73,0.67,2.92
11.26879298686981,3,3,3,2,-9.779999999999999,-2.13,0.29,0.73,0.77,2.64
11.27879297733307,3,3,3,2,-9.869999999999999,-1.84,0.33,0.91,0.86,2.17
11.28879296779633,3,3,3,2,-9.83,-1.79,0.5,0.9399999999999999,1.06,1.82
11.29879295825958,3,3,3,2,-9.73,-1.83,0.6899999999999999,0.88,1.18,1.53
11.30879294872284,3,3,3,2,-9.630000000000001,-1.97,0.62,0.77,1.29,1.34
11.3187929391861,3,3,3,2,-9.539999999999999,-2.16,0.67,0.78,1.2,1.22
11.32879292964935,3,3,3,2,-9.57,-2.37,0.67,0.5600000000000001,1.07,1.04
11.33879292011261,3,3,3,2,-9.65,-2.45,0.8100000000000001,0.42,1.02,0.89
11.34879291057587,3,3,3,2,-9.58,-2.67,0.7,0.04,1,0.75
11.35879290103912,3,3,3,2,-9.44,-3,0.45,-0.79,0.9,0.54
11.36879289150238,3,3,3,2,-9.4,-3.03,0.36,-1.47,0.92,0.29
11.37879288196564,3,3,3,2,-9.42,-2.94,0.37,-1.88,1.04,0.03
11.38879287242889,3,3,3,2,-9.449999999999999,-2.99,0.53,-2.38,1.13,-0.25
11.39879286289215,3,3,3,2,-9.48,-3.13,0.6,-2.86,1.1,-0.48
11.41879308223724,3,3,3,2,-9.6,-3.42,0.5,-4.1,0.91,-0.87
11.44879305362701,3,3,3,2,-9.34,-2.86,0.45,-5.36,0.51,-1.66
11.45879304409027,3,3,3,2,-9.26,-2.73,0.26,-5.79,0.41,-1.87
11.46879303455353,3,3,3,2,-9.32,-2.69,0.35,-6.11,0.31,-2.05
11.47879302501678,3,3,3,2,-9.279999999999999,-2.54,0.34,-6.3,0.24,-2.19
11.48879301548004,3,3,3,2,-9.279999999999999,-2.68,0.26,-6.48,0.28,-2.25
11.4987930059433,3,3,3,2,-9.359999999999999,-2.89,0.29,-6.24,0.36,-2.31
11.50879299640656,3,3,3,2,-9.289999999999999,-2.9,0.15,-5.68,0.38,-2.41
11.51879298686981,3,3,3,2,-9.25,-2.86,0.07000000000000001,-4.98,0.46,-2.46
11.52879297733307,3,3,3,2,-9.24,-2.84,-0.04,-4.42,0.48,-2.51
11.53879296779633,3,3,3,2,-9.26,-2.69,-0.2,-3.91,0.42,-2.54
11.54879295825958,3,3,3,2,-9.390000000000001,-2.46,-0.41,-3.47,0.4,-2.53
11.55879294872284,3,3,3,2,-9.470000000000001,-2.64,-0.54,-2.96,0.43,-2.57
11.5687929391861,3,3,3,2,-9.449999999999999,-2.54,-0.65,-2.19,0.47,-2.72
11.57879292964935,3,3,3,2,-9.470000000000001,-2.3,-0.64,-1.48,0.52,-2.76
11.58879292011261,3,3,3,2,-9.5,-1.89,-0.61,-0.98,0.46,-2.73
11.59879291057587,3,3,3,2,-9.550000000000001,-1.78,-0.63,-0.61,0.45,-2.75
11.60879290103912,3,3,3,2,-9.58,-1.68,-0.74,-0.33,0.42,-2.82
11.61879289150238,3,3,3,2,-9.609999999999999,-1.57,-0.83,-0.01,0.33,-2.93
11.62879288196564,3,3,3,2,-9.699999999999999,-1.01,-0.92,0.41,0.25,-3.04
11.63879287242889,3,3,3,2,-9.76,-0.89,-0.99,0.51,0.15,-3.14
11.64879286289215,3,3,3,2,-9.789999999999999,-0.79,-1.17,0.33,0.08,-3.3
11.65879285335541,3,3,3,2,-9.869999999999999,-0.8,-1.37,0.1,0.15,-3.54
11.66879308223724,3,3,3,2,-9.75,-0.9399999999999999,-1.45,0,0.35,-3.69
11.6787930727005,3,3,3,2,-9.82,-1.22,-1.43,0.01,0.75,-3.63
11.68879306316376,3,3,3,2,-9.869999999999999,-1.51,-1.29,0.27,1.05,-3.47
11.69879305362701,3,3,3,2,-9.76,-1.81,-1.18,0.49,1.27,-2.91
11.70879304409027,3,3,3,2,-10.02,-2.33,-0.86,0.59,1.42,-2.09
11.71879303455353,3,3,3,2,-9.91,-2.4,-0.66,0.65,1.24,-1.52
11.72879302501678,3,3,3,2,-9.65,-2.57,-0.52,0.77,1.19,-1.6
11.73879301548004,3,3,3,2,-9.220000000000001,-2.98,-0.49,1.06,1.14,-1.97
11.7487930059433,3,3,3,2,-9.07,-3,-0.57,1.39,1.02,-2.35
11.75879299640656,3,3,3,2,-9.07,-2.87,-0.73,1.78,0.98,-2.6
11.76879298686981,3,3,3,2,-9.07,-2.56,-0.66,2.17,0.95,-2.71
11.77879297733307,3,3,3,2,-9.23,-2.46,-0.59,2.32,1,-2.82
11.78879296779633,3,3,3,2,-9.41,-2.53,-0.61,2.34,0.9399999999999999,-2.96
11.79879295825958,3,3,3,2,-9.460000000000001,-2.58,-0.6899999999999999,2.09,0.79,-3.16
11.80879294872284,3,3,3,2,-9.41,-2.72,-0.82,1.73,0.79,-3.32
11.8187929391861,3,3,3,2,-9.24,-2.99,-0.64,1.44,0.76,-3.61
11.82879292964935,3,3,3,2,-9.1,-2.99,-0.68,1.18,0.78,-3.74
11.83879292011261,3,3,3,2,-9.15,-2.96,-0.59,0.98,0.88,-3.8
11.84879291057587,3,3,3,2,-9.16,-2.93,-0.5,0.98,0.89,-3.76
11.85879290103912,3,3,3,2,-9.24,-2.77,-0.44,1.09,0.92,-3.68
11.86879289150238,3,3,3,2,-9.27,-2.63,-0.31,1.16,0.87,-3.56
11.87879288196564,3,3,3,2,-9.27,-2.42,-0.33,1.13,0.84,-3.44
11.88879287242889,3,3,3,2,-9.289999999999999,-2.31,-0.34,0.93,0.85,-3.36
11.89879286289215,3,3,3,2,-9.42,-2.69,-0.55,0.71,0.84,-3.38
11.90879285335541,3,3,3,2,-9.41,-2.83,-0.71,0.8100000000000001,0.91,-3.54
11.91879308223724,3,3,3,2,-9.380000000000001,-2.9,-0.8,1.08,1,-3.67
11.9287930727005,3,3,3,2,-9.33,-2.92,-0.6899999999999999,1.61,1.05,-3.79
11.93979299068451,3,3,3,2,-9.289999999999999,-2.71,-0.7,2.2,1.17,-3.91
11.94979298114777,3,3,3,2,-9.279999999999999,-2.58,-0.65,2.81,1.29,-3.95
11.95979297161102,3,3,3,2,-9.289999999999999,-2.66,-0.57,3.29,1.32,-3.94
11.96979296207428,3,3,3,2,-9.33,-2.73,-0.52,3.73,1.36,-4.03
11.97979295253754,3,3,3,2,-9.51,-3.01,-0.37,4.27,1.46,-4.12
11.98979294300079,3,3,3,2,-9.5,-3.2,-0.37,4.78,1.49,-4.19
11.99979293346405,3,3,3,2,-9.4,-3.26,-0.44,5.26,1.43,-4.21
12.00979292392731,3,3,3,2,-9.27,-3.21,-0.61,5.26,1.43,-4.21
12.01979291439056,3,3,3,2,-9.34,-3.01,-0.63,6.04,1.57,-4.27
12.02979290485382,3,3,3,2,-9.41,-2.91,-0.53,6.37,1.57,-4.35
12.03979289531708,3,3,3,2,-9.449999999999999,-2.81,-0.45,6.39,1.53,-4.42
12.04979288578033,3,3,3,2,-9.5,-2.82,-0.5,6.39,1.53,-4.42
12.05979287624359,3,3,3,2,-9.49,-3.09,-0.72,6.36,1.53,-4.43
12.06979286670685,3,3,3,2,-9.49,-3.08,-0.6,6.33,1.22,-4.64
12.0797928571701,3,3,3,2,-9.460000000000001,-3.04,-0.68,6.33,1.22,-4.64
12.08979284763336,3,3,3,2,-9.74,-3.02,-0.61,5.99,0.82,-4.85
12.0997930765152,3,3,3,2,-9.890000000000001,-3.04,-0.76,5.99,0.82,-4.85
12.10979306697845,3,3,3,2,-10.07,-2.82,-0.8100000000000001,5.69,0.58,-4.99
12.11979305744171,3,3,3,2,-10.22,-2.76,-0.8,5.23,0.33,-5.04
12.12979304790497,3,3,3,2,-10.63,-2.56,-1.02,4.79,0.16,-5.05
12.13979303836823,3,3,3,2,-10.87,-2.13,-0.9,4.56,-0.02,-5.26
12.14979302883148,3,3,3,2,-11.07,-1.83,-0.8,4.56,-0.02,-5.26
12.15979301929474,3,3,3,2,-11.26,-1.8,-0.7,4.42,-0.09,-5.32
12.169793009758,3,3,3,2,-11.78,-1.62,-0.34,4.56,-0.09,-5.46
12.17979300022125,3,3,3,2,-11.95,-1.37,-0.14,4.91,-0.29,-5.58
12.18979299068451,3,3,3,2,-12,-1.03,0.26,4.88,-0.82,-5.41
12.19979298114777,3,3,3,2,-11.96,-0.88,0.83,4.88,-0.82,-5.41
12.20979297161102,3,3,3,2,-11.7,-0.63,1.05,5.04,-0.99,-5.08
12.21979296207428,3,3,3,2,-11.6,-0.49,1.19,4.85,-1.21,-4.51
12.22979295253754,3,3,3,2,-11.45,-0.59,1.25,4.63,-1.33,-3.81
12.23979294300079,3,3,3,2,-11.31,-0.76,1.3,4.51,-1.39,-3.05
12.24979293346405,3,3,3,2,-11.11,-1.05,0.46,4.54,-1.46,-2.26
12.25979292392731,3,3,3,2,-11.25,-0.86,0.44,4.57,-1.39,-1.4
12.26979291439056,3,3,3,2,-11.14,-0.68,0.32,5.36,-1.19,-0.49
12.27979290485382,3,3,3,2,-11.08,-0.35,0.07000000000000001,6.52,-0.87,0.52
12.28979289531708,3,3,3,2,-10.76,1.03,-0.28,7.67,-0.36,1.78
12.29979288578033,3,3,3,2,-10.79,1.26,0.52,8.869999999999999,0.39,3.4
12.30979287624359,3,3,3,2,-10.92,0.36,1.41,8.15,0.93,5.06
12.31979286670685,3,3,3,2,-10.69,0.11,1.92,6.65,0.03,6.1
12.3297928571701,3,3,3,2,-9.77,0.4,1.3,6.67,-1.98,6.38
12.33979284763336,3,3,3,2,-10.08,0.61,1.23,6.84,-3.23,7.13
12.3497930765152,3,3,3,2,-10.4,0.73,1.35,7.69,-3.69,8.27
12.35979306697845,3,3,3,2,-10.42,1.17,1.67,8.84,-4.23,9.6
12.36979305744171,3,3,3,2,-9.82,-0.05,0.97,10.26,-4.69,11.11
12.37979304790497,3,3,3,2,-9.57,-0.9,0.38,11.1,-4.61,12.58
12.38979303836823,3,3,3,2,-9.640000000000001,-1.82,0.2,11.5,-3.98,13.51
12.39979302883148,3,3,3,2,-9.91,-2.58,0.27,11.46,-3.32,14.24
12.40979301929474,3,3,3,2,-10.32,-3.37,0.15,11.57,-2.35,14.22
12.419793009758,3,3,3,2,-10.21,-3.66,-0.08,11.16,-1.1,13.86
12.42979300022125,3,3,3,2,-10.21,-3.91,0,10.74,0.38,13.95
12.43979299068451,3,3,3,2,-10.13,-3.73,-0.16,10.5,1.95,14.14
12.44979298114777,3,3,3,2,-10.37,-3.49,0.27,10.39,3.44,14.54
12.45979297161102,3,3,3,2,-10.41,-3.95,0.55,8.76,4.7,15.03
12.46979296207428,3,3,3,2,-9.949999999999999,-4.44,0.29,6.04,5.17,15.05
12.47979295253754,3,3,3,2,-9.57,-4.18,-0.32,3.17,5.64,15
12.48979294300079,3,3,3,2,-9.82,-4.02,-0.42,1.2,6.43,15.21
12.49979293346405,3,3,3,2,-10.17,-3.86,-0.68,-0.54,6.86,15.75
12.50979292392731,3,3,3,2,-10.33,-3.9,-1.12,-2.71,6.66,16.19
12.51979291439056,3,3,3,2,-10.31,-4.12,-1.57,-4.92,6.34,16.69
12.52979290485382,3,3,3,2,-10.39,-3.86,-1.54,-6.33,5.93,17.48
12.53979289531708,3,3,3,2,-10.43,-3.81,-1.27,-7.29,5.54,18.33
12.54979288578033,3,3,3,2,-10.44,-3.6,-1.02,-8.609999999999999,5.08,19.15
12.55979287624359,3,3,3,2,-10.41,-3.61,-0.4,-10.29,4.68,19.75
12.56979286670685,3,3,3,2,-10.31,-3.85,-0.15,-12.55,4.3,20.09
12.5797928571701,3,3,3,2,-10.1,-4.02,-0.12,-15.16,3.69,20.39
12.58979284763336,3,3,3,2,-9.9,-4.13,-0.1,-17.53,3.19,20.58
12.5997930765152,3,3,3,2,-9.4,-4.21,-0.38,-19.48,2.56,20.62
12.60979306697845,3,3,3,2,-9.41,-4.38,-0.16,-20.65,1.89,20.86
12.61979305744171,3,3,3,2,-9.279999999999999,-4.45,0.01,-20.93,1.66,21.02
12.62979304790497,3,3,3,2,-9.27,-4.76,0.23,-20.79,1.31,21.12
12.63979303836823,3,3,3,2,-8.779999999999999,-4.55,0.31,-20.22,0.7,20.88
12.64979302883148,3,3,3,2,-8.77,-4.8,0.72,-18.47,0.04,19.9
12.65979301929474,3,3,3,2,-8.43,-5,0.58,-17.98,-0.02,19.09
12.669793009758,3,3,3,2,-8.050000000000001,-5.26,0.37,-17.2,-0.5,17.95
12.67979300022125,3,3,3,2,-7.67,-5.06,0.31,-15.72,-0.5600000000000001,16.65
12.68979299068451,3,3,3,2,-7.64,-4.56,0.55,-13.66,-0.49,15.29
12.69979298114777,3,3,3,2,-7.55,-3.99,0.72,-11.61,-0.55,13.9
12.70979297161102,3,3,3,2,-7.38,-3.23,0.92,-10.15,-1.03,13.01
12.71979296207428,3,3,3,2,-7.34,-2.66,1.36,-9.56,-1.65,12.41
12.72979295253754,3,3,3,2,-7.38,-3.22,1.4,-9.529999999999999,-1.92,11.79
12.73979294300079,3,3,3,2,-7.33,-3.58,1.3,-9.289999999999999,-2.02,10.89
12.74979293346405,3,3,3,2,-7.09,-3.32,1.19,-7.6,-1.93,9.449999999999999
12.75979292392731,3,3,3,2,-6.99,-2.56,0.88,-5.16,-1.42,7.69
12.76979291439056,3,3,3,2,-7.22,-2.48,0.63,-3.54,-0.92,5.71
12.77979290485382,3,3,3,2,-7.39,-2.39,0.48,-2.68,-0.88,4.04
12.78979289531708,3,3,3,2,-7.64,-1.71,0.35,-1.35,-1.33,2.45
12.79979288578033,3,3,3,2,-8.24,0.66,0.21,-0.29,-1.65,1.7
12.80979287624359,3,3,3,2,-8.57,1.91,-0.08,0.24,-1.52,1.38
12.81979286670685,3,3,3,2,-9.16,3.89,0.51,0.68,-0.38,1.35
12.8297928571701,3,3,3,2,-10.38,5.69,1.51,0.12,0.84,1.54
12.83979284763336,3,3,3,2,-10.5,7.09,1.94,-1.52,0.49,1.76
12.8497930765152,3,3,3,2,-10.54,8.949999999999999,2.06,-2.57,0.03,2.19
12.85979306697845,3,3,3,2,-10.66,10.95,1.67,-3.81,0.01,2.94
12.86979305744171,3,3,3,2,-12,12.96,0.18,-5.1,0.86,3.9
12.87979304790497,3,3,3,2,-12.34,11.99,0.13,-6.14,1.87,4.84
12.88979303836823,3,3,3,2,-11.82,9.34,0.72,-6.64,1.45,5.5
12.89979302883148,3,3,3,2,-10.88,6.02,1.45,-6.59,0.7,5.78
12.90979301929474,3,3,3,2,-9.81,2.67,1.3,-6.16,0.43,5.29
12.919793009758,3,3,3,2,-9.6,2.88,1.25,-5.34,0.99,4.22
12.92979300022125,3,3,3,2,-9.52,3.31,1.2,-5.89,1.78,3.44
12.93979299068451,3,3,3,2,-9.640000000000001,2.72,0.9,-7.58,2.75,2.64
12.94979298114777,3,3,3,2,-12.44,1.44,2.39,-10.37,4.23,1.49
12.96079289913177,3,3,3,2,-13.8,3.81,4.67,-13.2,4.04,0.29
12.97079288959503,3,3,3,2,-13.86,5.83,6.54,-16.45,0.17,-0.24
12.98079288005829,3,3,3,2,-12.09,6.14,6.92,-21.38,-4.63,0.06
12.99079287052155,3,3,3,2,-11.99,4.3,3.65,-21.82,-4.63,-1.72
13.0007928609848,3,3,3,2,-11.46,0.12,2.66,-19.81,-0.1,-3.06
13.01079285144806,3,3,3,2,-9.9,-5.76,1.92,-18.77,1.24,-3.41
13.0207930803299,3,3,3,2,-8.76,-9.83,0.45,-15.85,2.45,-4.13
13.03079307079315,3,3,3,2,-8.949999999999999,-8.460000000000001,-5.93,-8.550000000000001,5.13,-5.41
13.04079306125641,3,3,3,2,-8.98,-6.47,-7.58,-2.17,6.79,-6.54
13.05079305171967,3,3,3,2,-8.49,-3.6,-6.81,1,6.67,-8.41
13.06079304218292,3,3,3,2,-9.369999999999999,0.3,-3.66,4.53,5.89,-11.26
13.07079303264618,3,3,3,2,-10.78,-2.83,1.04,5.76,5.47,-13.31
13.08079302310944,3,3,3,2,-10.24,-4.78,-1.18,1.91,5.47,-13.98
13.09079301357269,3,3,3,2,-9.74,-4.2,-1.21,-0.74,5.3,-13.76
13.10079300403595,3,3,3,2,-9.380000000000001,-2.83,0.16,1.23,4.62,-13.36
13.11079299449921,3,3,3,2,-9.880000000000001,-1.14,1.1,2.32,4.35,-12.72
13.12079298496246,3,3,3,2,-10.19,-0.5600000000000001,1.23,0.68,4.59,-11.97
13.13079297542572,3,3,3,2,-10.17,-0.87,1.23,-1.49,4.91,-11.67
13.14079296588898,3,3,3,1,-9.83,-1.3,0.57,-2.7,5.05,-11.91
13.15079295635223,3,3,3,1,-9.51,-1.23,-0.98,-2.61,5.16,-12.5
13.16079294681549,3,3,3,1,-9.470000000000001,-0.9,-1.72,-1.89,4.97,-12.98
13.17079293727875,3,3,3,1,-9.49,-0.79,-1.97,-1.29,4.53,-13.17
13.180792927742,3,3,3,1,-9.52,-0.58,-1.8,-1.16,4.4,-13.16
13.19079291820526,3,3,3,1,-9.49,-0.64,-1.46,-1.27,4.51,-12.88
13.20079290866852,3,3,3,1,-9.710000000000001,-1.26,-1.3,-1.3,4.75,-12.57
13.21079289913177,3,3,3,1,-9.81,-1.96,-1.19,-1.17,4.94,-12.26
13.22079288959503,3,3,3,1,-9.73,-2,-0.54,0.41,4.96,-12.26
13.23079288005829,3,3,3,1,-9.67,-2.05,-0.32,1.88,4.7,-12.23
13.24079287052155,3,3,3,1,-9.77,-1.91,-0.17,3.68,4.2,-12.42
13.2507928609848,3,3,3,1,-9.65,-1.65,-0.45,5.2,3.69,-12.62
13.26079285144806,3,3,3,1,-9.52,-1.69,-0.74,6.13,3.31,-12.56
13.2707930803299,3,3,3,1,-9.34,-1.66,-0.84,6.6,3.05,-12.49
13.28079307079315,3,3,3,1,-9.43,-1.45,-0.91,6.97,2.73,-12.33
13.29079306125641,3,3,3,1,-9.48,-1.06,-0.95,7.12,2.52,-12.24
13.30079305171967,3,3,3,1,-9.68,-0.04,-0.6,7,2.36,-12.32
13.31079304218292,3,3,3,1,-9.67,0.23,-0.13,6.14,2.16,-12.3
13.32079303264618,3,3,3,1,-9.789999999999999,0.14,-0.38,4.14,2.19,-12
13.33079302310944,3,3,3,1,-9.859999999999999,-0.08,-1.01,2.07,2.27,-11.88
13.34079301357269,3,3,3,0,-9.539999999999999,-0.3,-1.49,1.4,2.22,-11.94
13.35079300403595,3,3,3,0,-9.32,-0.38,-1.63,0.35,2.21,-11.86
13.36079299449921,3,3,3,0,-9.23,-0.66,-1.41,-0.06,2.32,-11.67
13.37079298496246,3,3,3,0,-9.210000000000001,-0.91,-1.15,0.38,2.76,-11.32
13.38079297542572,3,3,3,0,-9.85,-1.33,-0.77,1.38,3.08,-10.75
13.39079296588898,3,3,3,0,-9.619999999999999,-1.36,-0.83,2.08,2.94,-10.19
13.40079295635223,3,3,3,0,-9.81,-1.41,-0.49,2.09,2.9,-9.470000000000001
13.41079294681549,3,3,3,0,-9.81,-1.52,-0.59,1.95,2.96,-8.880000000000001
13.42079293727875,3,3,3,0,-9.85,-2.13,-0.47,1.83,3.06,-8.56
13.430792927742,3,3,3,0,-9.85,-2.48,-0.31,2.01,3.13,-8.41
13.44079291820526,3,3,3,0,-9.73,-2.62,-0.41,2.75,3.2,-8.359999999999999
13.45079290866852,3,3,3,0,-9.73,-2.37,-0.42,3.89,3.19,-8.33
13.46079289913177,3,3,3,0,-9.75,-1.72,-0.43,5.06,3.26,-8.199999999999999
13.47079288959503,3,3,3,0,-9.81,-1.72,-0.44,5.92,3.25,-8.029999999999999
13.48079288005829,3,3,3,0,-9.82,-1.75,-0.36,6.25,3.18,-7.85
13.49079287052155,3,3,3,0,-9.640000000000001,-1.84,-0.79,6.46,3.11,-7.63
13.5007928609848,3,3,3,0,-9.279999999999999,-1.89,-1.24,6.36,3.11,-7.4
13.51079285144806,3,3,3,0,-9.23,-2.14,-1.47,6.63,3.05,-7.21
13.5207930803299,3,3,3,0,-9.31,-2.49,-1.32,6.45,2.97,-7.25
13.53079307079315,3,3,3,0,-9.380000000000001,-2.78,-1.31,6.47,2.95,-7.41
13.54079306125641,3,3,3,0,-9.57,-3.27,-1.17,6.64,2.97,-7.63
13.55079305171967,3,3,3,0,-9.59,-3.23,-0.95,7.23,2.89,-7.8
13.56079304218292,3,3,3,0,-9.609999999999999,-3.02,-0.84,8.130000000000001,2.75,-8.02
13.57079303264618,3,3,3,0,-9.52,-2.71,-0.62,8.83,2.58,-8.289999999999999
13.58079302310944,3,3,3,0,-9.529999999999999,-2.13,-0.46,9.24,2.48,-8.48
13.59079301357269,3,3,3,0,-9.56,-1.98,-0.41,9.32,2.42,-8.619999999999999
13.60079300403595,3,3,3,0,-9.640000000000001,-1.81,-0.44,9.18,2.32,-8.630000000000001
13.61079299449921,3,3,3,0,-9.76,-1.53,-0.51,8.93,2.21,-8.6
13.64079296588898,3,3,3,0,-9.99,-1.62,-0.76,7.91,1.79,-8.15
13.65079295635223,3,3,3,0,-10.14,-1.66,-0.83,8.140000000000001,1.86,-7.88
13.66079294681549,3,3,3,0,-10.24,-1.8,-1.11,8.74,1.96,-7.56
13.67079293727875,3,3,3,0,-10.36,-1.64,-1.47,9.550000000000001,2.05,-7.29
13.680792927742,3,3,3,0,-10.68,-1.43,-1.86,10.47,2.07,-7.29
13.69079291820526,3,3,3,0,-11.98,-0.68,-1.04,11.3,2.12,-7.47
13.70079290866852,3,3,3,0,-12.54,-0.21,-0.41,12.26,2.09,-7.57
13.71079289913177,3,3,3,0,-12.63,0.29,-0.38,13.13,1.84,-7.17
13.72079288959503,3,3,3,0,-12.44,0.96,-0.29,13.17,1.51,-6.3
13.73079288005829,3,3,3,0,-12.88,2.45,1.1,13.47,1.38,-5.21
13.74079287052155,3,3,3,0,-13.52,3.02,1.89,14.28,1.42,-3.86
13.7507928609848,3,3,3,0,-13.9,3.51,2.65,15.49,1.37,-1.72
13.76079285144806,3,3,3,0,-13.89,3.81,3.79,17.18,1.09,1.38
13.7707930803299,3,3,3,0,-13.15,1.35,5.02,17.57,0.11,4.86
13.78079307079315,3,3,3,0,-12.37,0.11,4.92,16.19,-1.66,7.87
13.79079306125641,3,3,3,0,-11.08,-0.27,3.22,15.86,-3.81,9.81
13.80079305171967,3,3,3,0,-9.529999999999999,0.49,0.57,16.56,-5.91,10.89
13.81079304218292,3,3,3,0,-9.58,0.52,-2.1,16.34,-6.42,12.44
13.82079303264618,3,3,3,0,-10.3,0.13,-1.93,14.65,-5.82,14.09
13.83079302310944,3,3,3,0,-11.12,-0.18,-1.29,12.13,-4.52,15.27
13.84079301357269,3,3,3,0,-11.71,-0.71,-1.49,10.24,-3.76,16.36
13.85079300403595,3,3,3,0,-12.53,-0.8,-0.96,10.01,-2.32,16.08
13.86079299449921,3,3,3,0,-12.66,-1.49,-0.41,8.890000000000001,-0.43,15.26
13.87079298496246,3,3,3,0,-12.41,-2.37,0.32,6.13,1.66,14.57
13.88079297542572,3,3,3,0,-11.71,-3.5,0.84,1.25,2.87,14.18
13.89079296588898,3,3,3,0,-10.22,-4.87,0.02,-3.12,2.96,14.67
13.90079295635223,3,3,3,0,-10.52,-5.94,0.24,-4.51,3.05,15.9
13.91079294681549,3,3,3,0,-10.8,-7.39,0.5,-4.42,3.09,16.87
13.92079293727875,3,3,3,0,-10.63,-7.8,0.35,-2.85,2.79,17.14
13.930792927742,3,3,3,0,-10.88,-6.43,0.65,-0.29,3.57,17.28
13.94079291820526,3,3,3,0,-10.86,-5.64,0.8,1.9,4.35,17.5
13.95079290866852,3,3,3,0,-10.35,-5.65,0.83,1.71,4.48,17.77
13.96079289913177,3,3,3,0,-9.890000000000001,-5.52,0.53,0.01,4.43,18.25
13.97079288959503,3,3,3,0,-9.949999999999999,-4.74,0.11,-1.03,4.4,19.12
13.98179304599762,3,3,3,0,-10.24,-4.26,0.09,-1.21,4.22,19.9
13.99179303646088,3,3,3,0,-10.37,-4.18,0.1,-2.05,3.92,20.33
14.00179302692413,3,3,3,0,-10.06,-3.97,-0.11,-3.4,3.7,20.48
14.01179301738739,3,3,3,0,-9.98,-3.96,-0.22,-5.35,3.62,20.45
14.02179300785065,3,3,3,0,-9.73,-4.08,-0.2,-7.66,3.45,20.34
14.0317929983139,3,3,3,0,-9.460000000000001,-4.38,-0.28,-10.01,3.21,20.19
14.04179298877716,3,3,3,0,-9.359999999999999,-4.98,-0.63,-11.99,2.97,20.01
14.05179297924042,3,3,3,0,-9.300000000000001,-4.97,-0.87,-13.38,2.71,19.82
14.06179296970367,3,3,3,0,-9.199999999999999,-4.8,-1.11,-13.82,2.25,19.67
14.07179296016693,3,3,3,0,-9.19,-4.54,-1.17,-13.49,1.74,19.57
14.08179295063019,3,3,3,0,-9.23,-3.84,-0.98,-12.76,1.28,19.41
14.09179294109344,3,3,3,0,-9.33,-3.47,-0.74,-12.03,0.91,19.13
14.1017929315567,3,3,3,0,-9.19,-3.18,-0.45,-11.51,0.44,18.86
14.11179292201996,3,3,3,0,-8.960000000000001,-3.37,-0.24,-11.34,-0.15,18.63
14.12179291248322,3,3,3,0,-8.73,-3.6,0.09,-11.16,-0.8,18.31
14.13179290294647,3,3,3,0,-8.56,-3.73,0.28,-10.71,-1.25,17.74
14.14179289340973,3,3,3,0,-8.460000000000001,-3.97,0.41,-10.68,-1.61,17.09
14.15179288387299,3,3,3,0,-8.199999999999999,-3.79,0.5,-10.59,-1.83,16.19
14.16179287433624,3,3,3,0,-7.6,-3.57,0.5600000000000001,-10.96,-1.94,15.19
14.1717928647995,3,3,3,0,-7.3,-3.64,0.68,-11.69,-1.98,14.2
14.18179285526276,3,3,3,0,-7.07,-3.67,0.8100000000000001,-12.58,-2.1,13.39
14.19179308414459,3,3,3,0,-6.78,-3.51,0.91,-13.2,-2.34,12.43
14.20179307460785,3,3,3,0,-6.35,-4.09,0.85,-14.16,-2.65,11.37
14.21179306507111,3,3,3,0,-6.51,-4.32,0.68,-14.48,-2.53,10.15
14.22179305553436,3,3,3,0,-6.65,-4.44,0.52,-13.33,-2.08,8.67
14.23179304599762,3,3,3,0,-6.86,-4.15,0.4,-10.99,-1.71,6.98
14.24179303646088,3,3,3,1,-6.03,-3.05,0.21,-8.130000000000001,-1.59,4.76
14.25179302692413,3,3,3,1,-5.76,-2.94,0.13,-5.89,-1.85,2.81
14.26179301738739,3,3,3,1,-5.81,-2.6,0.2,-4.13,-2.26,1.26
14.27179300785065,3,3,3,1,-6.11,-1.81,0.44,-2.54,-2.73,0.22
14.2817929983139,3,3,3,1,-7.4,1.56,0.87,-1.89,-2.78,-0.52
14.29179298877716,3,3,3,1,-8.35,3.82,0.8100000000000001,-0.87,-2.25,-0.61
14.30179297924042,3,3,3,1,-9.49,6.48,1.37,0.58,-1.05,0.45
14.31179296970367,3,3,3,1,-10.34,8.369999999999999,2.33,0.9,0.32,1.81
14.32179296016693,3,3,3,1,-10.51,13.85,4.11,1.1,1.36,2.35
14.33179295063019,3,3,3,1,-10.96,17.01,3.14,1.54,3.75,2.74
14.34179294109344,3,3,3,2,-12.53,18.57,0.91,1.04,6.87,4
14.3517929315567,3,3,3,2,-14.27,17.48,-1.15,-1.19,6.99,5.79
14.36179292201996,3,3,3,2,-12.55,10.33,0.24,-3.02,2.28,7.34
14.39179289340973,3,3,3,2,-8.960000000000001,2.16,0.96,-2.58,1.33,7.53
14.40179288387299,3,3,3,2,-8.880000000000001,2.34,0.22,-2.48,3.14,6.73
14.41179287433624,3,3,3,2,-8.67,1.98,0.41,-3.73,4.2,5.63
14.4217928647995,3,3,3,2,-8.32,1.15,0.71,-6,4.12,4.72
14.43179285526276,3,3,3,2,-7.87,-0.63,-3.57,-10.04,3.4,4.39
14.44179308414459,3,3,3,2,-11.42,-5.3,-0.04,-17.64,5.13,3.58
14.45179307460785,3,3,3,2,-9.68,-7.53,3.05,-23.48,-0.74,-1.29
14.46179306507111,3,3,3,2,-11.04,-2.33,6.7,-15.51,-6.82,-7.41
14.47179305553436,3,3,3,2,-14.54,9.039999999999999,4.48,-6.14,-7.29,-8.640000000000001
14.48179304599762,3,3,3,2,-13.67,8.26,3.24,-6.27,-6.96,-6.75
14.49179303646088,3,3,3,2,-12.56,6.79,1.5,-9.130000000000001,-1.51,-5.23
14.50179302692413,3,3,3,2,-11.87,3.4,0.48,-12.2,2.91,-4.57
14.51179301738739,3,3,3,2,-11.29,-8.390000000000001,-0.12,-15.92,4.1,-5.2
14.57179296016693,3,3,3,2,-11.29,-2.02,0.29,2.6,4.88,-16.55
14.58179295063019,3,3,3,2,-10.58,-3.63,-0.28,2.6,4.88,-16.55
14.59179294109344,3,3,3,2,-9.76,-2.16,-0.1,1.27,4.69,-15.79
14.6017929315567,3,3,3,2,-9.76,-1.29,0.44,0.62,4.3,-14.77
14.61179292201996,3,3,3,2,-9.539999999999999,-0.65,0.44,-1.25,4.42,-14.14
14.62179291248322,3,3,3,2,-9.470000000000001,0.38,0.58,-3.08,4.77,-13.64
14.63179290294647,3,3,3,2,-9.390000000000001,1.22,0.72,-3.08,4.77,-13.64
14.64179289340973,3,3,3,3,-9.19,0.86,0.28,-4.89,4.79,-13.13
14.65179288387299,3,3,3,3,-9.17,0.48,-0.43,-5.8,4.59,-12.32
14.66179287433624,3,3,3,3,-9.300000000000001,0.08,-1.17,-5.03,4.62,-12.13
14.6717928647995,3,3,3,3,-9.56,-0.61,-1.76,-3.78,4.79,-12.09
14.68179285526276,3,3,3,3,-9.59,-0.91,-1.75,-3.78,4.79,-12.09
14.69179308414459,3,3,3,3,-9.68,-1.35,-1.63,-1.96,5.06,-12.19
14.70179307460785,3,3,3,3,-9.970000000000001,-2.15,-1.26,3.49,5.14,-12.95
14.71179306507111,3,3,3,3,-9.94,-2.31,-0.77,6.51,4.74,-13.32
14.72179305553436,3,3,3,3,-9.890000000000001,-1.95,-0.55,8.92,4.06,-13.61
14.73179304599762,3,3,3,3,-9.779999999999999,-1.6,-0.42,8.92,4.06,-13.61
14.74179303646088,3,3,3,3,-9.82,-0.47,-0.41,9.9,3.28,-13.69
14.75179302692413,3,3,3,3,-9.720000000000001,0.11,-0.54,8.59,2.25,-13.21
14.76179301738739,3,3,3,3,-9.58,0.32,-0.91,6.93,2.22,-12.89
14.77179300785065,3,3,3,3,-9.449999999999999,0.33,-1.06,5.74,2.37,-12.74
14.7817929983139,3,3,3,3,-9.35,0.23,-1.09,5.74,2.37,-12.74
14.79179298877716,3,3,3,3,-9.41,0.45,-0.72,5.39,2.53,-12.76
14.80179297924042,3,3,3,3,-9.56,0.54,-0.53,5.01,2.47,-12.48
14.81179296970367,3,3,3,3,-9.76,0.59,-0.49,4.72,2.25,-12.36
14.82179296016693,3,3,3,3,-9.68,0.33,-0.55,4.25,2.05,-12.27
14.83179295063019,3,3,3,3,-9.59,0.19,-0.67,4.25,2.05,-12.27
14.84179294109344,3,3,3,3,-9.51,-0.12,-0.76,3.44,1.82,-12.23
14.8517929315567,3,3,3,3,-9.4,-0.59,-0.8100000000000001,1.91,1.83,-12.25
14.86179292201996,3,3,3,3,-9.390000000000001,-1.42,-0.84,1.5,1.96,-12.28
14.87179291248322,3,3,3,3,-9.41,-1.89,-0.7,1.45,2.11,-12.2
14.88179290294647,3,3,3,3,-9.57,-2.24,-0.78,1.45,2.11,-12.2
14.89179289340973,3,3,3,3,-9.49,-2.32,-0.84,1.67,2.22,-11.95
14.90179288387299,3,3,3,3,-9.56,-2.45,-0.7,2.77,2.49,-11.04
14.91179287433624,3,3,3,3,-9.49,-2.36,-0.67,3.53,2.62,-10.67
14.9217928647995,3,3,3,3,-9.6,-2.34,-0.52,4.37,2.72,-10.44
14.93179285526276,3,3,3,3,-9.56,-2.32,-0.36,4.37,2.72,-10.44
14.94179308414459,3,3,3,3,-9.42,-2.22,-0.32,5.17,2.68,-10.2
14.95179307460785,3,3,3,3,-9.41,-1.97,-0.4,6.62,2.67,-9.640000000000001
14.96179306507111,3,3,3,3,-9.300000000000001,-1.52,-0.43,7,2.71,-9.380000000000001
14.97179305553436,3,3,3,3,-9.279999999999999,-1.35,-0.55,7.01,2.83,-9.140000000000001
14.98179304599762,3,3,3,3,-9.41,-1.45,-0.55,7.01,2.83,-9.140000000000001
14.99179303646088,3,3,3,3,-9.43,-1.77,-0.44,6.99,2.94,-8.970000000000001
15.00179302692413,3,3,3,3,-9.470000000000001,-2.1,-0.5,7.39,3.17,-8.74
15.01279294490814,3,3,3,3,-9.609999999999999,-2.37,-0.59,7.8,3.2,-8.76
15.0227929353714,3,3,3,3,-9.75,-2.71,-0.6,8.1,3.18,-8.84
15.03279292583466,3,3,3,3,-9.800000000000001,-2.68,-0.57,8.1,3.18,-8.84
15.04279291629791,3,3,3,3,-9.859999999999999,-2.37,-0.51,8.779999999999999,3.11,-8.98
15.05279290676117,3,3,3,3,-9.869999999999999,-2.09,-0.42,8.76,2.44,-9.220000000000001
15.06279289722443,3,3,3,3,-10.17,-1.43,-0.64,8.16,1.93,-9.25
15.07279288768768,3,3,3,3,-10.4,-1.09,-0.6899999999999999,7.3,1.66,-9.1
15.08279287815094,3,3,3,3,-10.73,-1.03,-0.87,7.3,1.66,-9.1
15.0927928686142,3,3,3,3,-10.97,-1.09,-0.98,6.66,1.55,-8.789999999999999
15.10279285907745,3,3,3,3,-11.44,-1.47,-1.21,7.36,1.61,-8.390000000000001
15.11279284954071,3,3,3,3,-11.82,-1.53,-1.52,8.210000000000001,1.63,-8.359999999999999
15.12279307842255,3,3,3,3,-12.29,-1.46,-1.64,9.41,1.72,-8.380000000000001
15.1327930688858,3,3,3,3,-13.27,-0.74,-0.19,9.41,1.72,-8.380000000000001
15.14279305934906,3,3,3,3,-13.35,-0.2,0.03,10.89,1.61,-8.17
15.15279304981232,3,3,3,3,-13.13,0.58,-0.02,12.09,1.07,-6.72
15.16279304027557,3,3,3,3,-12.93,1.54,0.23,12.54,0.85,-5.72
15.17279303073883,3,3,3,3,-13.43,3.05,1.3,12.9,0.53,-4.28
15.18279302120209,3,3,3,3,-13.84,3.8,1.64,12.9,0.53,-4.28
15.19279301166534,3,3,3,3,-14.1,4.52,1.98,13.59,0.3,-2.18
15.2027930021286,3,3,3,3,-14.18,5.44,2.67,16.35,-0.37,4.11
15.21279299259186,3,3,3,3,-13.6,3.14,4.84,14.37,-1.84,7.03
15.22279298305511,3,3,3,3,-12.78,0.9399999999999999,4.51,13.58,-3.35,9.49
15.23279297351837,3,3,3,3,-11.34,0.6899999999999999,3.57,13.58,-3.35,9.49
15.24279296398163,3,3,3,3,-9.460000000000001,2.82,1.38,16.25,-5.2,11.44
15.25279295444489,3,3,3,3,-9.470000000000001,4.01,-0.35,14.74,-5.85,14.4
15.26279294490814,3,3,3,3,-10.13,2.49,-0.98,10.18,-5.71,15.75
15.2727929353714,3,3,3,3,-11.2,0.33,-0.9,7.22,-4.72,16.6
15.28279292583466,3,3,3,3,-11.92,-0.99,-1.18,7.22,-4.72,16.6
15.29279291629791,3,3,3,3,-13.84,-2.19,-1.11,6.91,-2.93,16.92
15.30279290676117,3,3,3,3,-14.06,-2.85,-0.84,6.33,0.63,16.72
15.31279289722443,3,3,3,3,-13.64,-3.67,-0.55,4.86,1.75,17.44
15.32279288768768,3,3,3,3,-12.61,-4.06,-0.34,3.89,2.96,18.36
15.33279287815094,3,3,3,2,-11.61,-4.05,-0.07000000000000001,3.89,2.96,18.36
15.3427928686142,3,3,3,2,-11.71,-4.79,1.06,2.5,4.16,19.28
15.35279285907745,3,3,3,2,-11.59,-6.15,1.49,-1.48,4.2,19.87
15.36279284954071,3,3,3,2,-11.26,-6.54,0.78,-0.93,4.84,19.84
15.37279307842255,3,3,3,2,-11.32,-6.51,0.41,-0.34,5.22,19.95
15.3827930688858,3,3,3,2,-11.27,-6.93,0.3,-0.34,5.22,19.95
15.39279305934906,3,3,3,2,-10.94,-6.87,0.11,-0.03,5.36,20.21
15.40279304981232,3,3,3,2,-10.6,-6.38,-0.07000000000000001,0.13,4.94,21.07
15.41279304027557,3,3,3,2,-9.800000000000001,-5.84,-0.41,-0.5600000000000001,4.71,22.13
15.42279303073883,3,3,3,2,-9.66,-5.26,-0.55,-1.16,4.5,22.7
15.43279302120209,3,3,3,1,-9.48,-4.83,-0.75,-1.16,4.5,22.7
15.44279301166534,3,3,3,1,-9.18,-4.61,-0.71,-2.68,4.29,22.9
15.4527930021286,3,3,3,1,-8.59,-4.41,-0.59,-7.44,3.99,22.72
15.46279299259186,3,3,3,1,-8.48,-4.61,-0.68,-10.12,3.96,22.62
15.47279298305511,3,3,3,1,-8.359999999999999,-4.76,-0.77,-12.62,3.9,22.47
15.48279297351837,3,3,3,1,-7.99,-4.95,-0.82,-12.62,3.9,22.47
15.49279296398163,3,3,3,1,-7.87,-4.86,-0.82,-14.89,3.71,22.35
15.50279295444489,3,3,3,1,-7.81,-5.19,-0.79,-17.93,3.01,21.63
15.51279294490814,3,3,3,1,-7.81,-5.43,-0.9,-17.64,2.52,20.8
15.5227929353714,3,3,3,1,-7.91,-5.48,-0.5600000000000001,-17.01,1.74,19.84
15.53279292583466,3,3,3,0,-7.76,-5.46,-0.43,-17.01,1.74,19.84
15.54279291629791,3,3,3,0,-7.87,-5.36,-0.21,-15.89,1.14,18.78
15.55279290676117,3,3,3,0,-7.82,-5.19,0,-14.33,-0.3,16.4
15.56279289722443,3,3,3,0,-7.61,-5.44,0.08,-13.91,-1.15,14.7
15.57279288768768,3,3,3,0,-7.01,-4.96,0.08,-13.37,-1.45,13.36
15.58279287815094,3,3,3,0,-6.87,-5.02,0.02,-13.37,-1.45,13.36
15.5927928686142,3,3,3,0,-6.77,-5.66,0.08,-14.2,-1.61,12.74
15.60279285907745,3,3,3,0,-6.42,-6.07,0,-13.23,-1.7,10.02
15.61279284954071,3,3,3,0,-6.23,-6.02,0.07000000000000001,-12.26,-1.95,8.66
15.62279307842255,3,3,3,0,-5.79,-6.14,0.15,-11.19,-2.15,7.64
15.6327930688858,3,3,3,0,-5.5,-6.53,0.26,-11.19,-2.15,7.64
15.64279305934906,3,3,3,0,-5.53,-6.67,-0.27,-8.9,-1.96,6.07
15.65279304981232,3,3,3,0,-6.14,-6.43,-0.61,-1.08,0.33,1.53
15.66279304027557,3,3,3,0,-6.77,-5.14,-0.65,0.47,0.97,-1.25
15.67279303073883,3,3,3,0,-7.23,-3.32,-0.33,-0.93,0.98,-3.28
15.68279302120209,3,3,3,0,-7.79,-0.32,0.1,-0.93,0.98,-3.28
15.69279301166534,3,3,3,0,-8.630000000000001,1.24,0.12,-2.21,0.99,-3.7
15.7027930021286,3,3,3,0,-9.93,4.23,1.12,-0.92,0.52,-0.77
15.71279299259186,3,3,3,0,-11.13,6.43,2.03,1.1,0.25,0.7
15.72279298305511,3,3,3,0,-11.75,15.13,6.67,1.55,1.67,2.24
15.73279297351837,3,3,3,0,-10.77,21.18,6.75,1.55,1.67,2.24
15.74279296398163,3,3,3,0,-13.1,27.24,3.16,0.62,8.15,4.64
15.75279295444489,3,3,3,0,-18.34,29.94,0,-6.86,2.9,10.54
15.76279294490814,3,3,3,0,-13.36,14.3,-0.08,-5.62,-2.34,8.890000000000001
15.7727929353714,3,3,3,0,-9.27,5.12,2.36,-4.95,0.48,7.25
15.78279292583466,3,3,3,0,-8.029999999999999,-1.41,3.14,-4.95,0.48,7.25
15.79279291629791,3,3,3,0,-8.09,-2.61,1.72,-4.31,3.49,6.73
15.80279290676117,3,3,3,0,-9.460000000000001,1.26,-2.12,-1.15,5.21,3.88
15.81279289722443,3,3,3,0,-10.06,1.17,-2.33,-5.8,3.56,2.48
15.82279288768768,3,3,3,0,-9.890000000000001,-0.64,-1.47,-14.38,1.16,1.7
15.83279287815094,3,3,3,0,-9.67,-0.07000000000000001,-0.4,-14.38,1.16,1.7
15.8427928686142,3,3,3,0,-13.54,4.58,11.12,-22.04,-4.04,0.48
15.85279285907745,3,3,3,0,-13.21,7.4,12.2,-21.52,-9.960000000000001,-6.01
15.86279284954071,3,3,3,0,-14.9,8.83,7.86,-21.48,-0.63,-4.55
15.87279307842255,3,3,3,0,-11.18,-0.36,-1.47,-20.57,2.7,-3.79
15.8827930688858,3,3,3,0,-10.17,-4.83,0.08,-20.57,2.7,-3.79
15.89279305934906,3,3,3,0,-9.859999999999999,-9,-1.74,-17.28,4.41,-4.22
15.90279304981232,3,3,3,0,-9.77,-9.380000000000001,-3.46,-10.65,7.63,-6.4
15.91279304027557,3,3,3,0,-8.99,-7.8,-7.29,-8.31,7.23,-8.9
15.92279303073883,3,3,3,0,-8.77,-6.02,-6.36,-3.84,6.21,-12.94
15.93279302120209,3,3,3,0,-9.65,-3.18,-3.35,-3.84,6.21,-12.94
15.94279301166534,3,3,3,0,-11.42,-2.75,0.44,-0.48,6.19,-15.96
15.9527930021286,3,3,3,0,-10.65,-9.42,-2.84,-1.84,5.61,-15.31
15.96279299259186,3,3,3,0,-9.869999999999999,-8.35,-3.47,4.29,5.03,-15.3
15.97279298305511,3,3,3,0,-9.92,-5.21,-1.76,7.63,4.43,-15.05
15.98279297351837,3,3,3,1,-9.98,-2.67,-0.39,7.63,4.43,-15.05
15.99279296398163,3,3,3,1,-9.66,-0.13,1.12,6.73,4.16,-14.38
16.00279295444489,3,3,3,1,-10.07,0.07000000000000001,1.53,-0.83,5.01,-13.28
16.01279294490814,3,3,3,1,-10.2,-0.14,1.21,-3.52,4.93,-13.12
16.0227929353714,3,3,3,1,-9.81,-0.11,0.85,-4.66,4.63,-13.14
16.03379285335541,3,3,3,1,-9.16,0.49,-0.21,-4.66,4.63,-13.14
16.04379308223724,3,3,3,1,-9.25,-0.22,-1.05,-6.01,4.38,-12.95
16.0537930727005,3,3,3,1,-9.65,-1.25,-1.89,-5.55,4.63,-12.5
16.06379306316376,3,3,3,1,-9.9,-2.61,-2.14,-3.91,4.99,-12.36
16.07379305362701,3,3,3,1,-9.859999999999999,-2.88,-1.96,-1.28,5.26,-12.49
16.08379304409027,3,3,3,1,-9.859999999999999,-2.88,-1.96,-1.28,5.26,-12.49
16.09379303455353,3,3,3,1,-9.81,-2.95,-1.59,2.14,5.44,-12.82
16.10379302501678,3,3,3,1,-9.5,-2.19,-0.49,7.88,4.43,-13.76
16.11379301548004,3,3,3,1,-9.630000000000001,-1.7,-0.14,9.59,3.74,-14.04
16.1237930059433,3,3,3,1,-9.699999999999999,-1.27,0.02,10.49,3.05,-14.1
16.13379299640656,3,3,3,2,-9.699999999999999,-1.27,0.02,10.49,3.05,-14.1
16.14379298686981,3,3,3,2,-9.609999999999999,-0.68,-0.02,10.4,2.54,-13.72
16.15379297733307,3,3,3,2,-9.359999999999999,0.1,-0.6,7.59,2.48,-12.47
16.16379296779633,3,3,3,2,-9.369999999999999,0.03,-0.77,6.24,2.72,-12.09
16.17379295825958,3,3,3,2,-9.49,-0.09,-0.78,5.39,2.93,-11.92
16.18379294872284,3,3,3,2,-9.49,-0.09,-0.78,5.39,2.93,-11.92
16.1937929391861,3,3,3,2,-9.58,0.4,-0.91,5.21,2.86,-12.09
16.20379292964935,3,3,3,2,-9.52,0,-0.91,4.24,2.67,-12.38
16.21379292011261,3,3,3,2,-9.539999999999999,0.21,-0.73,4.05,2.5,-12.35
16.22379291057587,3,3,3,2,-9.550000000000001,0.21,-0.67,4,2.39,-12.29
16.23379290103912,3,3,3,2,-9.550000000000001,0.21,-0.67,4,2.39,-12.29
16.24379289150238,3,3,3,2,-9.4,0.25,-0.52,3.89,2.24,-12.04
16.25379288196564,3,3,3,2,-9.529999999999999,0.01,-0.58,3.57,2.09,-12.04
16.26379287242889,3,3,3,2,-9.380000000000001,-0.15,-0.62,3.22,2.08,-12.33
16.27379286289215,3,3,3,2,-9.48,-0.53,-0.6,3.35,2.35,-12.55
16.28379285335541,3,3,3,3,-9.48,-0.53,-0.6,3.35,2.35,-12.55
16.29379308223724,3,3,3,3,-9.460000000000001,-0.92,-0.6899999999999999,3.89,2.75,-12.44
16.3037930727005,3,3,3,3,-9.73,-2.29,-0.84,5.56,3.44,-11.22
16.31379306316376,3,3,3,3,-9.74,-2.53,-0.79,6.74,3.69,-10.52
16.32379305362701,3,3,3,3,-9.67,-2.67,-0.66,7.77,3.74,-10.01
16.33379304409027,3,3,3,3,-9.67,-2.67,-0.66,8.630000000000001,3.76,-9.76
16.34379303455353,3,3,3,3,-9.52,-2.37,-0.53,9.26,3.83,-9.67
16.35379302501678,3,3,3,3,-9.539999999999999,-2.11,-0.6,9.380000000000001,3.93,-9.699999999999999
16.36379301548004,3,3,3,3,-9.640000000000001,-1.99,-0.59,9.6,4,-9.710000000000001
16.3737930059433,3,3,3,3,-10.2,-1.81,-0.39,9.82,4.01,-9.76
16.38379299640656,3,3,3,3,-10.2,-1.81,-0.39,10,3.8,-9.869999999999999
16.39379298686981,3,3,3,3,-10.26,-1.66,-0.53,9.77,3.57,-9.84
16.40379297733307,3,3,3,3,-10.04,-1.21,-1.18,9.710000000000001,3.38,-9.73
16.41379296779633,3,3,3,3,-9.75,-0.7,-1.11,9.4,2.95,-9.65
16.42379295825958,3,3,3,3,-9.81,-0.59,-1.1,8.210000000000001,2.57,-9.57
16.43379294872284,3,3,3,3,-9.81,-0.59,-1.1,7.37,2.31,-9.359999999999999
16.4437929391861,3,3,3,3,-10.08,-0.63,-1.09,6.74,2.15,-9.1
16.45379292964935,3,3,3,3,-11.21,-1.47,-0.85,6.98,2.15,-8.83
16.46379292011261,3,3,3,3,-11.55,-1.69,-0.8,8,2.34,-8.58
16.47379291057587,3,3,3,3,-11.9,-1.48,-0.93,9.640000000000001,2.52,-8.42
16.48379290103912,3,3,3,3,-11.9,-1.48,-0.93,9.640000000000001,2.52,-8.42
16.49379289150238,3,3,3,3,-12.29,-0.93,-1.02,11.32,2.63,-8.32
16.50379288196564,3,3,3,3,-13.29,0.98,0.17,13.83,2.56,-7.92
16.51379287242889,3,3,3,3,-13.51,1.73,0.8,14.44,2.11,-7.04
16.52379286289215,3,3,3,3,-13.44,2.42,0.77,14.25,1.55,-5.77
16.53379285335541,3,3,3,3,-13.44,2.42,0.77,14.25,1.55,-5.77
16.54379308223724,3,3,3,3,-13.17,3.83,0.61,13.9,1.24,-4.35
16.5537930727005,3,3,3,3,-14,5.47,1.66,14.53,0.9,-0.17
16.56379306316376,3,3,3,3,-14.51,5.08,2.88,13.36,-0.11,2.56
16.57379305362701,3,3,3,3,-13.97,2.72,4.31,11.69,-1.74,5.55
16.58379304409027,3,3,3,3,-13.97,2.72,4.31,11.69,-1.74,5.55
16.59379303455353,3,3,3,3,-12.88,2.35,3.99,11.77,-3.79,8.470000000000001
16.60379302501678,3,3,3,3,-10.18,4.08,0.9,14.8,-5.61,12.8
16.61379301548004,3,3,3,3,-10.52,1.89,-0.27,13.53,-5.55,14.6
16.6237930059433,3,3,3,3,-11.32,-0.12,-0.86,9.83,-4.79,15.84
16.63379299640656,3,3,3,3,-12.02,-1.64,-1.34,6.78,-3.82,16.84
16.64379298686981,3,3,3,3,-13.75,-2.14,-1.35,6.54,-2.08,16.92
16.65379297733307,3,3,3,3,-14.39,-2.42,-1.27,6.41,-0.57,16.81
16.66379296779633,3,3,3,3,-14.22,-3.45,-1.1,5.37,0.92,17.29
16.67379295825958,3,3,3,3,-13.29,-4.01,-1.27,4.94,1.94,18.08
16.68379294872284,3,3,3,3,-12.37,-3.16,-0.11,4.73,3.36,19.06
16.6937929391861,3,3,3,3,-12.26,-4.06,1.09,2.6,4.4,20.06
16.70379292964935,3,3,3,3,-11.95,-6,1.24,-1.28,4.45,20.57
16.71379292011261,3,3,3,3,-11.37,-6.94,0.41,-2.47,4.58,20.72
16.72379291057587,3,3,3,3,-11.67,-6.86,0.16,-1.26,5.42,20.73
16.73379290103912,3,3,3,3,-11.82,-6.96,0.05,-0.11,5.75,21.2
16.74379289150238,3,3,3,3,-11.91,-6.75,-0.15,0.48,5.51,21.85
16.75379288196564,3,3,3,3,-11.76,-6.61,-0.5,0.6,5.21,22.56
16.76379287242889,3,3,3,3,-11.25,-5.02,-0.85,0.46,5.01,23.49
16.77379286289215,3,3,3,3,-10.94,-4.13,-0.34,-0.87,5,24.49
16.78379285335541,3,3,3,3,-11.03,-4.04,-0.03,-3.52,4.82,25.36
16.79379308223724,3,3,3,3,-10.5,-4.6,0,-6.17,4.24,25.65
16.8037930727005,3,3,3,3,-9.380000000000001,-4.99,-0.45,-7.89,3.71,25.58
16.81379306316376,3,3,3,3,-9.06,-5.21,-0.4,-9.279999999999999,3.65,25.38
16.82379305362701,3,3,3,3,-8.779999999999999,-5.16,-0.29,-10.71,3.45,25.24
16.83379304409027,3,3,3,3,-8.4,-5.49,-0.35,-12.37,2.95,24.99
16.84379303455353,3,3,3,3,-8.109999999999999,-5.33,-0.53,-13.49,2.55,24.53
16.85379302501678,3,3,3,3,-7.79,-5.43,-0.6,-14.6,2.15,23.94
16.86379301548004,3,3,3,3,-7.59,-5.3,-0.6,-15.36,1.72,23.08
16.8737930059433,3,3,3,3,-7.52,-5.36,-0.43,-16,1.25,22.22
16.88379299640656,3,3,3,3,-7.34,-5.74,-0.1,-16.26,0.44,21.27
16.91379296779633,3,3,3,3,-7.16,-5.79,0.07000000000000001,-15.77,-2.1,16.6
16.92379295825958,3,3,3,3,-6.58,-6.61,-0.03,-16.03,-2.69,15.14
16.9437929391861,3,3,3,3,-5.77,-7.68,-0.71,-14.39,-3.71,12.17
16.95379292964935,3,3,3,3,-5.58,-7.88,-1.14,-12.22,-3.87,10.65
16.96379292011261,3,3,3,3,-5.19,-7.51,-1.22,-9.91,-4.03,9.029999999999999
16.97379291057587,3,3,3,3,-4.99,-7.06,-0.98,-8.58,-4.03,7.31
16.98379290103912,3,3,3,3,-4.8,-6.93,-0.75,-8.73,-3.94,5.32
16.99379289150238,3,3,3,3,-3.91,-7.63,-0.72,-8.83,-3.9,3.42
17.00379288196564,3,3,3,3,-4.17,-7.07,-0.78,-7.26,-3.71,1.47
17.01379287242889,3,3,3,3,-4.87,-6.25,-0.73,-5.03,-2.85,-1.06
17.02379286289215,3,3,3,3,-5.77,-4.77,-0.06,-3.73,-2.2,-4.28
17.03379285335541,3,3,3,3,-6.95,-1.47,1.29,-6.26,-3.32,-6.55
17.04379308223724,3,3,3,3,-8.220000000000001,0.6899999999999999,1.15,-9.220000000000001,-4.13,-7.99
17.0537930727005,3,3,3,3,-10.77,3.54,2.5,-8.83,-3.53,-7.47
17.06479299068451,3,3,3,3,-13.71,7.39,5.08,-7.46,-4.54,-5.61
17.07479298114777,3,3,3,3,-15.56,18.54,9.99,-7.86,-4.58,-2.21
17.08479297161102,3,3,3,3,-13.94,24.95,9.48,-8.529999999999999,0.39,-0.34
17.09479296207428,3,3,3,3,-14.48,28.79,3.84,-9.449999999999999,9.050000000000001,2.49
17.10479295253754,3,3,3,3,-17.17,30.32,-2.6,-11.41,6.85,7.15
17.11479294300079,3,3,3,3,-11.3,12.47,3,-7.18,-0.31,8.15
17.12479293346405,3,3,3,3,-9.41,2.64,3.39,1.42,2.43,8.17
17.13479292392731,3,3,3,3,-9.449999999999999,-3.38,1.88,3.59,5.2,7.89
17.14479291439056,3,3,3,3,-9.779999999999999,-5.37,0.44,7.36,3.11,6.22
17.15479290485382,3,3,3,3,-9.99,-1.44,-2.72,12.37,1.29,3.01
17.16479289531708,3,3,3,3,-10.96,6.63,-1.87,13.08,3.17,1
17.17479288578033,3,3,3,3,-13.64,14.49,1.97,4.32,3.7,1.96
17.18479287624359,3,3,3,3,-14.77,14.15,9.66,-10.9,-4.99,2.6
17.19479286670685,3,3,3,3,-8.82,9.41,7.19,-21.55,-11.85,-0.76
17.2047928571701,3,3,3,3,-12.77,5.93,0.31,-28.61,-2.34,-2.85
17.21479284763336,3,3,3,3,-11.71,-0.64,-2.47,-30.94,3.15,-1.86
17.2247930765152,3,3,3,3,-9.949999999999999,-7.08,0.29,-26.41,4.55,-2.97
17.23479306697845,3,3,3,3,-9.52,-11.76,-3.55,-21.31,7.37,-4.85
17.24479305744171,3,3,3,3,-10.39,-11.76,-4.12,-16.88,9.029999999999999,-6.57
17.25479304790497,3,3,3,3,-10.1,-10.23,-5.42,-11.31,7.94,-8.699999999999999
17.26479303836823,3,3,3,3,-10.82,-7.23,-3.13,-5.02,7.33,-11.78
17.27479302883148,3,3,3,3,-12.28,-9.109999999999999,0.3,-1.04,7.73,-14.75
17.28479301929474,3,3,3,3,-11.52,-10.46,-2.99,0.18,8.27,-16.19
17.294793009758,3,3,3,3,-10.74,-10.1,-3.46,3.95,7.88,-16.64
17.30479300022125,3,3,3,3,-10.04,-8.26,-3.11,10.1,6.64,-16.47
17.31479299068451,3,3,3,3,-9.94,-2.95,-2.4,13.3,5.96,-15.75
17.32479298114777,3,3,3,3,-10.13,-1.01,-1.17,12.52,5.43,-15.25
17.33479297161102,3,3,3,3,-10.1,1.15,-0.33,9.550000000000001,5.18,-15.21
17.34479296207428,3,3,3,3,-9.85,2.02,0.4,4.69,5.04,-15.26
17.35479295253754,3,3,3,3,-9.41,0.8100000000000001,0.29,-0.83,4.96,-15.45
17.36479294300079,3,3,3,3,-9.27,-0.32,-0.1,-4.79,5,-15.42
17.37479293346405,3,3,3,3,-9.27,-1.03,-0.49,-5.63,5.06,-15.21
17.38479292392731,3,3,3,3,-9.630000000000001,-2.14,-1.19,-4.75,5.25,-15.03
17.39479291439056,3,3,3,3,-9.76,-2.12,-1.34,-3.03,5.3,-14.72
17.40479290485382,3,3,3,3,-10,-1.89,-1.6,-1.35,5.44,-14.48
17.41479289531708,3,3,3,3,-10.01,-1.63,-1.67,0.45,5.5,-14.34
17.42479288578033,3,3,3,3,-9.789999999999999,-2.56,-1.51,2.77,5.52,-14.38
17.43479287624359,3,3,3,3,-9.82,-2.34,-1.17,6.22,5.2,-14.68
17.44479286670685,3,3,3,3,-9.550000000000001,-1.35,-0.8100000000000001,9.779999999999999,4.41,-14.92
17.48479306697845,3,3,3,3,-9.869999999999999,0.48,-0.57,10.76,2.09,-14.81
17.49479305744171,3,3,3,3,-9.81,0.62,-0.66,9.27,1.74,-14.65
17.50479304790497,3,3,3,3,-9.65,1.09,-0.8100000000000001,7.67,1.66,-14.69
17.51479303836823,3,3,3,3,-9.65,0.83,-0.62,6.32,1.9,-14.74
17.52479302883148,3,3,3,3,-9.67,0.43,-0.65,6.08,2.48,-14.51
17.53479301929474,3,3,3,3,-9.69,-0.03,-0.6,6.62,2.96,-13.73
17.544793009758,3,3,3,3,-9.84,-0.64,-0.92,7.57,3.27,-12.57
17.55479300022125,3,3,3,3,-9.91,-0.92,-0.93,7.88,3.26,-11.35
17.56479299068451,3,3,3,3,-9.85,-1.43,-1.13,6.67,3.09,-10.39
17.57479298114777,3,3,3,3,-9.800000000000001,-1.91,-1.01,5.1,2.8,-9.85
17.58479297161102,3,3,3,3,-9.710000000000001,-2.5,-0.61,3.72,2.53,-9.76
17.59479296207428,3,3,3,3,-9.609999999999999,-2.19,-1.12,2.77,2.39,-9.92
17.60479295253754,3,3,3,3,-9.609999999999999,-1.88,-0.95,2.42,2.4,-10.1
17.61479294300079,3,3,3,3,-9.68,-1.72,-0.36,2.47,2.22,-10.35
17.62479293346405,3,3,3,3,-9.880000000000001,-1.99,-0.19,2.53,2.14,-10.49
17.63479292392731,3,3,3,3,-9.91,-2.11,-0.13,3.08,2.16,-10.46
17.64479291439056,3,3,3,3,-9.92,-2.01,-0.34,4.03,2.14,-10.27
17.65479290485382,3,3,3,3,-9.83,-1.78,-0.51,5.1,2.17,-9.93
17.66479289531708,3,3,3,3,-9.49,-1.46,-0.42,6.07,2.28,-9.56
17.67479288578033,3,3,3,3,-9.359999999999999,-1.52,-0.5,6.67,2.45,-9.210000000000001
17.68479287624359,3,3,3,3,-9.31,-1.47,-0.54,7.26,2.62,-9.02
17.69479286670685,3,3,3,3,-9.380000000000001,-1.47,-0.42,7.7,2.75,-8.92
17.7047928571701,3,3,3,3,-9.59,-1.69,-0.44,8.26,2.91,-8.960000000000001
17.71479284763336,3,3,3,3,-9.68,-1.77,-0.29,8.77,3.02,-8.92
17.7247930765152,3,3,3,3,-9.65,-1.71,-0.24,9.140000000000001,2.89,-9.029999999999999
17.73479306697845,3,3,3,3,-9.56,-1.56,-0.42,9.050000000000001,2.65,-9.119999999999999
17.74479305744171,3,3,3,3,-9.539999999999999,-1.31,-0.55,8.75,2.32,-9.210000000000001
17.75479304790497,3,3,3,3,-9.56,-1.13,-0.6,8.09,1.82,-9.23
17.76479303836823,3,3,3,3,-9.65,-0.86,-0.76,7.12,1.4,-9.15
17.77479302883148,3,3,3,3,-10.21,-0.58,-0.8100000000000001,6.03,1.02,-8.890000000000001
17.78479301929474,3,3,3,3,-10.58,-0.67,-0.72,5.43,0.93,-8.550000000000001
17.794793009758,3,3,3,3,-10.85,-0.88,-0.73,5.46,1.03,-8.23
17.80479300022125,3,3,3,3,-11.07,-1.01,-0.98,6.11,1.18,-7.88
17.81479299068451,3,3,3,3,-11.83,-0.55,-1.07,6.85,1.36,-7.54
17.82479298114777,3,3,3,3,-12.39,0.08,-0.3,8.029999999999999,1.53,-7.28
17.83479297161102,3,3,3,3,-12.88,0.6899999999999999,0.32,9.640000000000001,1.55,-6.78
17.84479296207428,3,3,3,3,-13.15,1.48,0.4,11.3,1.41,-5.88
17.85479295253754,3,3,3,3,-13.52,3.58,0.8,13.03,1.34,-4.57
17.86479294300079,3,3,3,3,-13.97,4.54,1.72,15.4,1.08,-3.04
17.87479293346405,3,3,3,3,-14.57,5.72,2.1,18.3,0.67,-0.86
17.88479292392731,3,3,3,3,-15.04,7.23,2.59,20.93,0.29,2.54
17.89479291439056,3,3,3,3,-14.9,5.07,4.89,19.09,-1,6.32
17.90479290485382,3,3,3,3,-13.62,3.46,4.63,15.78,-3.25,9.51
17.91479289531708,3,3,3,3,-11.96,4.47,3.76,17.05,-5.83,11.4
17.92479288578033,3,3,3,3,-10.79,5.32,1.76,16.38,-7.22,12.66
17.93479287624359,3,3,3,3,-11.1,3.3,-1.51,12.55,-6.61,14.06
17.94479286670685,3,3,3,3,-12.38,1.05,-2.25,7.4,-5.21,15.99
17.9547928571701,3,3,3,3,-13.39,-1.03,-3.57,4.98,-3.91,18.15
17.96479284763336,3,3,3,3,-14.24,-2.04,-3.39,5.69,-1.35,18.9
17.9747930765152,3,3,3,3,-15.56,-3.52,-1.05,4.79,0.63,19.69
17.98479306697845,3,3,3,3,-15.03,-4.15,-0.1,1.64,2.55,20.07
17.99479305744171,3,3,3,3,-14.14,-4.33,0.25,-2.39,4.44,20.2
18.00479304790497,3,3,3,3,-13.23,-4.87,0.36,-5.51,5.48,20.55
18.01479303836823,3,3,3,3,-12.05,-7.09,0.63,-7.37,5.81,20.95
18.02479302883148,3,3,3,3,-11.74,-8.359999999999999,0.64,-7.9,5.21,20.48
18.03479301929474,3,3,3,3,-11.42,-8.82,0.1,-5.05,5.16,20.3
18.044793009758,3,3,3,3,-11.14,-8.31,0.08,-0.92,5.33,20.48
18.05479300022125,3,3,3,3,-11.08,-7.27,-0.13,1.47,5.23,20.68
18.06479299068451,3,3,3,3,-11.28,-6.52,-0.3,2.45,4.85,20.87
18.07479298114777,3,3,3,3,-9.789999999999999,-5.83,-0.26,2.66,4.67,22.09
18.08579289913177,3,3,3,3,-10.3,-4.96,-0.3,1.56,5.02,22.74
18.09579288959503,3,3,3,3,-10.57,-4.04,0.42,-1.38,4.84,23.27
18.10579288005829,3,3,3,3,-10.16,-4.71,0.39,-4.64,4.33,23.54
18.11579287052155,3,3,3,3,-9.56,-5.15,0.15,-6.03,3.84,23.32
18.1257928609848,3,3,3,3,-9.029999999999999,-5.11,0,-6.25,3.91,22.91
18.13579285144806,3,3,3,3,-8.789999999999999,-5.08,-0.08,-6.58,3.99,22.72
18.1457930803299,3,3,3,3,-8.619999999999999,-5.01,-0.24,-7.41,3.95,22.63
18.15579307079315,3,3,3,3,-8.52,-4.78,-0.54,-8.460000000000001,4,22.5
18.16579306125641,3,3,3,3,-8.56,-4.42,-0.51,-10.23,3.76,22.32
18.17579305171967,3,3,3,3,-8.31,-4.45,-0.54,-12.15,3.24,22.15
18.18579304218292,3,3,3,2,-8.15,-4.52,-0.44,-13.77,2.54,21.79
18.19579303264618,3,3,3,2,-8.140000000000001,-4.75,-0.28,-15.16,1.59,21.2
18.20579302310944,3,3,3,2,-7.76,-5.43,-0.06,-16.11,0.63,20.32
18.21579301357269,3,3,3,2,-7.59,-5.7,0.07000000000000001,-16.72,-0.4,19.09
18.22579300403595,3,3,3,2,-7.19,-6.04,0.12,-16.94,-1.69,17.63
18.23579299449921,3,3,3,2,-6.8,-6.12,0.06,-16.85,-2.42,16.22
18.24579298496246,3,3,3,2,-6.32,-6.69,-0.22,-16.19,-2.88,14.85
18.25579297542572,3,3,3,2,-6.12,-7.1,-0.39,-15,-3.51,13.29
18.26579296588898,3,3,3,2,-5.83,-7.5,-0.61,-13.18,-4.1,11.72
18.27579295635223,3,3,3,2,-5.6,-7.78,-0.88,-11.08,-4.31,9.869999999999999
18.28579294681549,3,3,3,2,-5.61,-7.01,-1.1,-8.73,-4.12,7.82
18.29579293727875,3,3,3,2,-5.67,-6.33,-0.93,-7.1,-3.9,5.92
18.305792927742,3,3,3,2,-5.6,-5.83,-0.78,-7.02,-3.88,4.32
18.31579291820526,3,3,3,2,-5.44,-5.74,-0.5600000000000001,-7.3,-3.77,2.96
18.35579288005829,3,3,3,2,-6.9,-1.67,0.75,-4.57,-2.88,-4.05
18.36579287052155,3,3,3,2,-8.130000000000001,0.67,1.64,-7.39,-2.82,-5.16
18.3757928609848,3,3,3,2,-9.359999999999999,1.56,2.09,-9.109999999999999,-2.37,-5.26
18.38579285144806,3,3,3,2,-10.92,3.68,2.74,-6.34,-1.78,-3.91
18.3957930803299,3,3,3,2,-12.63,6.2,3.94,-3.64,-1.91,-2.15
18.40579307079315,3,3,3,2,-13.3,15.17,6.55,-1.28,-1.4,-1.16
18.41579306125641,3,3,3,2,-12.41,19.94,6.08,0.31,2.62,0.39
18.42579305171967,3,3,3,2,-12.79,24.55,2.43,0.78,8.539999999999999,3.04
18.43579304218292,3,3,3,1,-15.64,27.46,-1.41,0.12,6.81,6.36
18.44579303264618,3,3,3,1,-13.2,13.79,1.25,2.34,1.29,7.36
18.45579302310944,3,3,3,1,-9.970000000000001,5.12,2.67,2.34,1.29,7.36
18.46579301357269,3,3,3,1,-8.52,-0.28,2.24,4.71,1.67,6.43
18.47579300403595,3,3,3,1,-7.92,-1.84,1.03,6.81,2.01,5.5
18.48579299449921,3,3,3,1,-8.44,0.52,-1.77,8.359999999999999,2.49,3.65
18.49579298496246,3,3,3,1,-10.35,1.4,-1.72,8.359999999999999,2.49,3.65
18.50579297542572,3,3,3,1,-11.46,4.17,-1.24,3.42,3.32,0.86
