timestamp,magCalib,accCalib,gyrCalib,sysCalib,accX,accY,accZ,gyrX,gyrY,gyrZ
0.08079302310943604,3,3,3,3,-9.42,1.46,-2.05,0.13,0.15,-0.24
0.1007930040359497,3,3,3,3,-9.51,1.43,-1.97,0.35,0.23,-0.23
0.1207929849624634,3,3,3,3,-9.48,1.26,-2.04,0.19,0.04,-0.15
0.1407929658889771,3,3,3,3,-9.460000000000001,1.21,-1.86,0.1,-0.03,-0.12
0.1607929468154907,3,3,3,3,-9.52,1.28,-1.87,0.2,0.17,-0.21
0.1807929277420044,3,3,3,3,-9.51,1.1,-1.95,0.05,0.05,-0.2
0.2007929086685181,3,3,3,3,-9.49,1.11,-1.86,0.01,-0.05,-0.16
0.2207928895950317,3,3,3,3,-9.550000000000001,1.11,-1.9,0.05,-0.22,-0.18
0.2407928705215454,3,3,3,3,-9.5,1.32,-1.89,-0.04,-0.06,-0.21
0.2607928514480591,3,3,3,3,-9.5,1.34,-1.98,-0.1,0.01,-0.25
0.2807930707931519,3,3,3,3,-9.470000000000001,1.36,-2.03,-0.09,-0.1,-0.23
0.3007930517196655,3,3,3,3,-9.470000000000001,1.41,-1.89,0.05,-0.12,-0.17
0.3207930326461792,3,3,3,3,-9.51,1.3,-1.96,0.13,-0.05,-0.14
0.3407930135726929,3,3,3,3,-9.5,1.24,-1.84,0.11,-0.1,-0.12
0.3607929944992065,3,3,3,3,-9.529999999999999,1.31,-1.87,0.08,-0.06,-0.1
0.3807929754257202,3,3,3,3,-9.49,1.38,-1.86,-0.03,-0.08,-0.18
0.4007929563522339,3,3,3,3,-9.550000000000001,1.36,-1.91,-0.08,0.03,-0.22
0.4207929372787476,3,3,3,3,-9.49,1.34,-2.04,-0.31,0,-0.24
0.4407929182052612,3,3,3,3,-9.49,1.34,-1.96,-0.31,0.04,-0.23
0.4607928991317749,3,3,3,3,-9.51,1.27,-1.88,-0.32,0.05,-0.2
0.4807928800582886,3,3,3,3,-9.48,1.14,-1.95,-0.34,-0.01,-0.17
0.5007928609848022,3,3,3,3,-9.529999999999999,1.15,-1.9,-0.25,0.06,-0.25
0.520793080329895,3,3,3,3,-9.5,1.19,-1.91,-0.17,0,-0.16
0.5407930612564087,3,3,3,3,-9.52,1.24,-1.92,-0.22,-0.11,-0.18
0.5607930421829224,3,3,3,3,-9.5,1.26,-1.85,-0.32,-0.06,-0.17
0.580793023109436,3,3,3,3,-9.470000000000001,1.32,-1.95,-0.31,0.09,-0.2
0.6007930040359497,3,3,3,3,-9.539999999999999,1.26,-1.9,-0.27,0.12,-0.16
0.6207929849624634,3,3,3,3,-9.49,1.24,-2.01,-0.34,-0.02,-0.1
0.6407929658889771,3,3,3,3,-9.52,1.19,-1.89,-0.26,-0.01,-0.06
0.6607929468154907,3,3,3,3,-9.51,1.12,-1.86,-0.16,-0.05,-0.07000000000000001
0.6807929277420044,3,3,3,3,-9.550000000000001,1.19,-1.91,-0.03,0.01,-0.08
0.7007929086685181,3,3,3,3,-9.5,1.27,-1.88,-0.03,0.02,-0.03
0.7207928895950317,3,3,3,3,-9.470000000000001,1.36,-1.99,0.01,-0.04,0.02
0.7407928705215454,3,3,3,3,-9.5,1.3,-1.88,-0.01,0.07000000000000001,0.01
0.7607928514480591,3,3,3,3,-9.52,1.23,-1.91,-0.12,0.01,0.02
0.7807930707931519,3,3,3,3,-9.48,1.24,-1.9,-0.16,-0.04,0
0.8007930517196655,3,3,3,3,-9.51,1.21,-1.83,-0.13,-0.01,-0.01
0.8207930326461792,3,3,3,3,-9.52,1.28,-2,-0.03,0.03,0.02
0.8407930135726929,3,3,3,3,-9.51,1.27,-1.9,0.01,0.07000000000000001,0.02
0.8607929944992065,3,3,3,3,-9.51,1.32,-1.9,0.03,0.07000000000000001,0.04
0.8807929754257202,3,3,3,3,-9.51,1.3,-1.89,0,0.04,0.01
0.9007929563522339,3,3,3,3,-9.529999999999999,1.29,-1.84,-0.08,0.06,-0.02
0.9207929372787476,3,3,3,3,-9.51,1.27,-1.96,-0.12,-0.02,0.01
0.9407929182052612,3,3,3,3,-9.49,1.31,-1.87,-0.07000000000000001,0.05,0
0.9607928991317749,3,3,3,3,-9.539999999999999,1.31,-1.95,0.01,0.15,0.06
0.9807928800582886,3,3,3,3,-9.470000000000001,1.34,-1.97,-0.01,-0.04,0.06
1.000792860984802,3,3,3,3,-9.51,1.25,-1.84,-0.01,0.03,0.01
1.021793007850647,3,3,3,3,-9.51,1.3,-1.93,0.02,0,0.06
1.041792988777161,3,3,3,3,-9.51,1.27,-1.87,0.03,0.12,0.06
1.061792969703674,3,3,3,3,-9.48,1.28,-1.88,0,0.14,0.01
1.081792950630188,3,3,3,3,-9.48,1.32,-1.99,0.01,0.01,0.02
1.101792931556702,3,3,3,3,-9.49,1.36,-1.93,0.02,0.03,-0.04
1.121792912483215,3,3,3,3,-9.49,1.34,-2.01,0.13,0.09,0.01
1.141792893409729,3,3,3,3,-9.49,1.32,-1.92,0.08,0.09,0.05
1.161792874336243,3,3,3,3,-9.49,1.31,-1.89,0.05,0.04,0.04
1.181792855262756,3,3,3,3,-9.51,1.22,-1.98,0.03,-0.07000000000000001,0.11
1.201793074607849,3,3,3,3,-9.52,1.32,-1.86,0.15,-0.07000000000000001,0.06
1.221793055534363,3,3,3,3,-9.48,1.33,-1.94,0.04,0.04,0.01
1.241793036460876,3,3,3,3,-9.51,1.43,-1.95,0.08,0.09,-0.02
1.26179301738739,3,3,3,3,-9.48,1.31,-1.96,0.02,0.08,0.02
1.281792998313904,3,3,3,3,-9.48,1.27,-1.92,0,0.03,0.07000000000000001
1.301792979240417,3,3,3,3,-9.529999999999999,1.28,-1.82,0.03,0.1,0.06
1.321792960166931,3,3,3,3,-9.529999999999999,1.27,-1.98,0.14,0.04,0.04
1.341792941093445,3,3,3,3,-9.51,1.26,-1.91,0.24,0.04,0.1
1.361792922019958,3,3,3,3,-9.51,1.33,-1.89,0.25,0.01,0.09
1.381792902946472,3,3,3,3,-9.470000000000001,1.38,-1.95,0.15,0.02,0.07000000000000001
1.401792883872986,3,3,3,3,-9.5,1.32,-1.87,0.13,0.06,0.06
1.4217928647995,3,3,3,3,-9.52,1.22,-1.94,0.02,-0.07000000000000001,0.05
1.441793084144592,3,3,3,3,-9.539999999999999,1.26,-1.86,0.01,0.03,-0.01
1.461793065071106,3,3,3,3,-9.48,1.34,-1.93,-0.03,-0.04,-0.03
1.48179304599762,3,3,3,3,-9.460000000000001,1.38,-1.96,0.06,-0.01,-0.01
1.501793026924133,3,3,3,3,-9.529999999999999,1.38,-1.85,0.07000000000000001,-0.01,-0.03
1.521793007850647,3,3,3,3,-9.550000000000001,1.3,-2.01,-0.04,0.13,-0.04
1.541792988777161,3,3,3,3,-9.48,1.31,-1.88,-0.03,0.06,-0.06
1.561792969703674,3,3,3,3,-9.5,1.4,-1.91,0.02,0,-0.03
1.581792950630188,3,3,3,3,-9.51,1.38,-1.97,-0.05,0.1,-0.02
1.601792931556702,3,3,3,3,-9.49,1.34,-1.92,-0.11,0,-0.02
1.621792912483215,3,3,3,3,-9.5,1.27,-1.98,-0.09,0.03,0
1.641792893409729,3,3,3,3,-9.5,1.35,-1.91,-0.04,0.06,0.02
1.661792874336243,3,3,3,3,-9.51,1.3,-1.89,0.03,0.12,0.01
1.681792855262756,3,3,3,3,-9.5,1.29,-1.96,-0.03,0.05,-0.01
1.701793074607849,3,3,3,3,-9.51,1.25,-1.89,-0.02,0.05,0.01
1.721793055534363,3,3,3,3,-9.470000000000001,1.29,-1.98,-0.02,-0.08,0.01
1.741793036460876,3,3,3,3,-9.5,1.35,-1.9,0,0.07000000000000001,0.01
1.76179301738739,3,3,3,3,-9.51,1.38,-1.93,-0.05,0.12,-0.02
1.781792998313904,3,3,3,3,-9.49,1.4,-1.99,-0.03,0.11,0.01
1.801792979240417,3,3,3,3,-9.48,1.35,-1.98,0.02,0.01,0.08
1.821792960166931,3,3,3,3,-9.5,1.28,-1.99,-0.04,-0.01,0.09
1.841792941093445,3,3,3,3,-9.5,1.34,-1.91,0,0.07000000000000001,0.03
1.861792922019958,3,3,3,3,-9.5,1.38,-1.91,-0.08,0.03,0
1.881792902946472,3,3,3,3,-9.470000000000001,1.42,-1.97,-0.12,0.1,-0.02
1.901792883872986,3,3,3,3,-9.48,1.44,-1.94,-0.09,0.12,0.02
1.9217928647995,3,3,3,3,-9.5,1.38,-2,-0.22,0.06,-0.01
1.941793084144592,3,3,3,3,-9.51,1.39,-1.96,-0.29,0.03,0.03
1.961793065071106,3,3,3,3,-9.470000000000001,1.43,-2,-0.26,-0.04,0.07000000000000001
1.98179304599762,3,3,3,3,-9.48,1.41,-2.01,-0.17,-0.01,0.09
2.001793026924133,3,3,3,3,-9.49,1.35,-1.9,-0.12,-0.05,0.15
2.021793007850647,3,3,3,3,-9.48,1.27,-1.97,-0.05,-0.13,0.15
2.041792988777161,3,3,3,3,-9.51,1.19,-1.85,0.06,0.01,0.14
2.062792897224426,3,3,3,3,-9.529999999999999,1.22,-1.84,0.07000000000000001,0.04,0.06
2.08279287815094,3,3,3,3,-9.49,1.29,-1.91,0.14,-0.02,0.03
2.102792859077454,3,3,3,3,-9.49,1.35,-1.86,0.22,-0.06,0.02
2.122793078422546,3,3,3,3,-9.449999999999999,1.45,-2,0.26,-0.06,0.04
2.14279305934906,3,3,3,3,-9.43,1.45,-1.96,0.15,-0.04,0.04
2.162793040275574,3,3,3,3,-9.460000000000001,1.47,-1.9,0.12,0.08,-0.02
2.182793021202087,3,3,3,3,-9.51,1.42,-1.96,0.06,0.14,-0.02
2.202793002128601,3,3,3,3,-9.52,1.38,-1.89,0.05,-0.03,0.02
2.222792983055115,3,3,3,3,-9.470000000000001,1.37,-1.98,0.2,-0.07000000000000001,0.03
2.242792963981628,3,3,3,3,-9.48,1.38,-1.89,0.27,-0.04,0.05
2.262792944908142,3,3,3,3,-9.529999999999999,1.39,-1.84,0.21,0.04,0.03
2.282792925834656,3,3,3,3,-9.48,1.34,-1.95,0,-0.06,-0.03
2.302792906761169,3,3,3,3,-9.5,1.36,-1.85,0.07000000000000001,0.06,-0.06
2.322792887687683,3,3,3,3,-9.51,1.34,-1.95,0.07000000000000001,0.09,-0.03
2.342792868614197,3,3,3,3,-9.52,1.38,-1.94,0,0.06,-0.05
2.36279284954071,3,3,3,3,-9.470000000000001,1.41,-1.93,0.05,0.07000000000000001,-0.01
2.382793068885803,3,3,3,3,-9.460000000000001,1.43,-1.99,0.05,0.07000000000000001,-0.02
2.402793049812317,3,3,3,3,-9.52,1.42,-1.88,0.02,0.05,0.01
2.422793030738831,3,3,3,3,-9.51,1.41,-1.98,0.02,0.06,-0.03
2.442793011665344,3,3,3,3,-9.5,1.3,-1.9,-0.02,-0.07000000000000001,0.06
2.462792992591858,3,3,3,3,-9.51,1.38,-1.86,0.09,-0.01,0.03
2.482792973518372,3,3,3,3,-9.5,1.43,-1.97,-0.08,0.01,0.01
2.502792954444885,3,3,3,3,-9.49,1.45,-1.92,-0.12,0.01,-0.05
2.522792935371399,3,3,3,3,-9.48,1.38,-2.01,-0.19,0.03,-0.03
2.542792916297913,3,3,3,3,-9.49,1.41,-1.87,-0.13,0.04,0.01
2.562792897224426,3,3,3,3,-9.51,1.36,-1.86,-0.05,0,0
2.58279287815094,3,3,3,3,-9.51,1.34,-1.9,0.01,-0.04,0.04
2.602792859077454,3,3,3,3,-9.460000000000001,1.37,-1.89,0,-0.02,0.01
2.622793078422546,3,3,3,3,-9.49,1.42,-1.94,0.03,0.15,0.03
2.64279305934906,3,3,3,3,-9.51,1.42,-1.89,-0.02,0.05,0.01
2.662793040275574,3,3,3,3,-9.49,1.43,-1.92,0.04,0.06,0
2.682793021202087,3,3,3,3,-9.5,1.35,-1.94,-0.08,-0.03,0.01
2.702793002128601,3,3,3,3,-9.5,1.38,-1.89,-0.06,0,-0.04
2.722792983055115,3,3,3,3,-9.460000000000001,1.39,-1.92,-0.1,0,-0.09
2.742792963981628,3,3,3,3,-9.470000000000001,1.43,-1.91,-0.05,-0.07000000000000001,0
2.762792944908142,3,3,3,3,-9.51,1.4,-1.9,0.05,0.03,-0.06
2.782792925834656,3,3,3,3,-9.48,1.41,-1.91,0.08,-0.05,-0.02
2.802792906761169,3,3,3,3,-9.460000000000001,1.46,-1.86,-0.05,0.03,-0.05
2.822792887687683,3,3,3,3,-9.49,1.42,-1.97,-0.14,-0.01,-0.01
2.842792868614197,3,3,3,3,-9.460000000000001,1.44,-1.89,-0.13,-0.03,-0.04
2.86279284954071,3,3,3,3,-9.48,1.43,-1.9,-0.14,0.06,-0.05
2.882793068885803,3,3,3,3,-9.51,1.36,-1.93,-0.07000000000000001,0.02,-0.06
2.902793049812317,3,3,3,3,-9.51,1.35,-1.88,-0.01,0.02,-0.01
2.922793030738831,3,3,3,3,-9.5,1.39,-1.93,0.06,0,-0.01
2.942793011665344,3,3,3,3,-9.49,1.44,-1.9,0.04,0.01,-0.01
2.962792992591858,3,3,3,3,-9.470000000000001,1.43,-1.86,0.04,0.06,0
2.982792973518372,3,3,3,3,-9.52,1.41,-1.93,-0.01,0.05,-0.04
3.002792954444885,3,3,3,3,-9.51,1.44,-1.87,-0.01,-0.02,-0.03
3.022792935371399,3,3,3,3,-9.48,1.44,-2,-0.01,0.01,-0.01
3.042792916297913,3,3,3,3,-9.5,1.37,-1.89,0.06,0.01,0.02
3.062792897224426,3,3,3,3,-9.49,1.32,-1.9,0.12,0.03,-0.01
3.083793044090271,3,3,3,3,-9.48,1.4,-1.91,0.19,0.03,0.03
3.103793025016785,3,3,3,3,-9.470000000000001,1.46,-1.88,0.08,0.03,0.07000000000000001
3.123793005943298,3,3,3,3,-9.470000000000001,1.45,-2,0.07000000000000001,0.13,0.08
3.143792986869812,3,3,3,3,-9.51,1.38,-1.91,0.1,0.09,0.08
3.163792967796326,3,3,3,3,-9.51,1.35,-1.83,0.15,0.01,0.06
3.183792948722839,3,3,3,3,-9.5,1.35,-1.9,0.08,-0.09,0
3.203792929649353,3,3,3,3,-9.49,1.43,-1.88,0.14,0.02,0.01
3.223792910575867,3,3,3,3,-9.48,1.46,-1.94,0.1,-0.01,0.02
3.24379289150238,3,3,3,3,-9.5,1.44,-1.89,0.04,0.01,0
3.263792872428894,3,3,3,3,-9.470000000000001,1.43,-1.88,0.03,0.04,0
3.283792853355408,3,3,3,3,-9.48,1.44,-1.94,0.03,0.03,0.03
3.3037930727005,3,3,3,3,-9.49,1.45,-1.87,0.08,0.13,-0.06
3.323793053627014,3,3,3,3,-9.5,1.44,-1.94,-0.05,0.04,-0.06
3.343793034553528,3,3,3,3,-9.470000000000001,1.39,-1.91,-0.03,0.17,-0.09
3.363793015480042,3,3,3,3,-9.51,1.44,-1.92,0.11,0.12,-0.11
3.383792996406555,3,3,3,3,-9.48,1.44,-1.9,0.03,0.07000000000000001,-0.07000000000000001
3.403792977333069,3,3,3,3,-9.48,1.38,-1.82,-0.13,-0.03,-0.08
3.423792958259583,3,3,3,3,-9.5,1.38,-1.97,-0.06,0.15,-0.14
3.443792939186096,3,3,3,3,-9.470000000000001,1.44,-1.9,0,0.16,-0.18
3.46379292011261,3,3,3,3,-9.470000000000001,1.53,-1.87,-0.03,0.15,-0.23
3.483792901039124,3,3,3,3,-9.49,1.44,-1.92,-0.14,0.24,-0.26
3.503792881965637,3,3,3,3,-9.460000000000001,1.02,-1.88,0.02,0.28,-0.29
3.523792862892151,3,3,3,3,-9.51,0.49,-1.8,0.53,0.26,-0.66
3.543793082237244,3,3,3,3,-9.470000000000001,0.4,-1.52,0.43,0.32,-0.92
3.563793063163757,3,3,3,3,-9.6,0.41,-1.54,0.3,0.15,-1.61
3.583793044090271,3,3,3,3,-9.710000000000001,0.87,-1.74,0.1,0.15,-1.76
3.603793025016785,3,3,3,3,-9.5,1.56,-2.03,0.03,0.36,-1.8
3.623793005943298,3,3,3,3,-9.369999999999999,1.68,-2.23,-0.28,0.31,-1.27
3.643792986869812,3,3,3,3,-9.42,1.45,-2.05,-0.17,0.18,-1.03
3.663792967796326,3,3,3,3,-9.44,1.24,-1.88,-0.18,-0.13,-0.66
3.683792948722839,3,3,3,3,-9.619999999999999,0.6899999999999999,-1.78,-0.2,-0.06,-0.57
3.703792929649353,3,3,3,3,-9.550000000000001,0.47,-1.67,-0.13,0.01,-0.55
3.723792910575867,3,3,3,3,-9.51,-0.37,-1.51,0.7,-0.23,-0.49
3.74379289150238,3,3,3,3,-9.66,-0.62,-1.36,0.93,-0.51,-0.74
3.763792872428894,3,3,3,3,-9.48,-0.4,-1.15,1.6,-0.97,-1.55
3.783792853355408,3,3,3,3,-9.51,-0.63,-0.87,1.04,-1.12,-2.04
3.8037930727005,3,3,3,3,-9.289999999999999,-0.78,-1.02,0.92,-1.17,-2.42
3.823793053627014,3,3,3,3,-9.279999999999999,-0.57,-0.45,0.75,-1.58,-3.48
3.843793034553528,3,3,3,3,-9.35,-2.53,-0.03,0.19,-2.49,-4.16
3.863793015480042,3,3,3,3,-8.890000000000001,-1.68,0.02,-0.33,-2.26,-5.91
3.883792996406555,3,3,3,3,-8.869999999999999,-1.9,0,-1.37,-3.43,-7.21
3.903792977333069,3,3,3,3,-8.69,-0.73,-0.68,-1.37,-3,-7.33
3.923792958259583,3,3,3,3,-8.609999999999999,-0.84,-0.47,-1.24,-4.09,-8
3.943792939186096,3,3,3,3,-8.699999999999999,-0.99,-1,-1.6,-5.09,-8.539999999999999
3.96379292011261,3,3,3,3,-8.800000000000001,-0.29,-0.99,-2.59,-4.76,-9.85
3.983792901039124,3,3,3,3,-9.68,2.79,-1.89,-1.25,-2.76,-9.960000000000001
4.003792881965637,3,3,3,3,-9.68,4.28,-2.49,-1.16,-3.38,-10.17
4.023792862892151,3,3,3,3,-10.35,1.55,-1.97,-6.32,-3.96,-9.58
4.043793082237244,3,3,3,3,-10.73,-0.42,-1.44,-7.51,-3.17,-8.99
4.063793063163757,3,3,3,3,-12.19,-4.25,-0.42,-4.35,-0.49,-9.66
4.083793044090271,3,3,3,3,-11.63,-1.18,0.58,2.68,-1.33,-11.01
4.104792952537537,3,3,3,3,-9.69,0.95,0.28,4.05,-1.96,-11.16
4.12479293346405,3,3,3,3,-8.630000000000001,0.55,0.05,-1.88,-2.58,-10.99
4.144792914390564,3,3,3,3,-8.57,-0.09,-0.22,-2.85,-2.37,-10.69
4.164792895317078,3,3,3,3,-8.109999999999999,-0.71,-2.14,-1.55,-1.91,-9.140000000000001
4.184792876243591,3,3,3,3,-10.64,-3.18,-2.27,-2.96,-1.79,-7.31
4.204792857170105,3,3,3,3,-11.72,-3.77,-2.29,-3.08,-2.06,-6.49
4.224793076515198,3,3,3,3,-11.6,-1.13,-3.02,-0.09,-1.27,-5.81
4.244793057441711,3,3,3,3,-11.18,-0.52,-3,-0.5600000000000001,-0.55,-5.88
4.264793038368225,3,3,3,3,-9.199999999999999,4.14,-3.62,-2.04,1.54,-3.07
4.284793019294739,3,3,3,3,-12.31,3,-5.3,-4.86,2.62,2.26
4.304793000221252,3,3,3,3,-16.67,-1.15,-4.91,-8.289999999999999,1.31,7.92
4.324792981147766,3,3,3,3,-22.7,-1.48,-2.29,-5.21,-0.77,10.3
4.34479296207428,3,3,3,3,-22.87,1.16,-1.39,1,-0.92,10.48
4.364792943000793,3,3,3,3,-19.9,8.130000000000001,-1.58,-1,-1.16,13.23
4.384792923927307,3,3,3,3,-23,9.630000000000001,-3.12,-6.61,-2.99,18.62
4.404792904853821,3,3,3,3,-25.54,5.97,-6.87,-10.51,-1.48,22.44
4.424792885780334,3,3,3,3,-24.16,-1.67,-7.51,-9.699999999999999,3.59,23.7
4.444792866706848,3,3,3,3,-19.11,-10.4,-3.92,0.59,7.16,21.78
4.464792847633362,3,3,3,3,-9.83,-7.39,0.23,11.36,8.16,19.36
4.484793066978455,3,3,3,3,-2.44,-12.54,0.57,1.8,4.7,14.88
4.504793047904968,3,3,3,3,0.25,-20.07,9.529999999999999,7.71,-2.07,6.49
4.524793028831482,3,3,3,3,-3.21,-13.77,11.13,8.27,-2.04,-0.33
4.544793009757996,3,3,3,3,-3.25,0.15,3.94,5.25,-0.12,-3.02
4.564792990684509,3,3,3,3,-2.12,3.85,-2.91,-7.36,0.57,-5.32
4.584792971611023,3,3,3,3,-0.2,0.87,-2.54,-14.74,1.04,-8.25
4.604792952537537,3,3,3,2,0.83,2.52,-1.44,-5.05,-1.72,-6.85
4.62479293346405,3,3,3,2,0,3.34,-1.2,-0.26,-2.71,-5.65
4.644792914390564,3,3,3,2,1.19,2.48,-1.58,-5.48,-2.71,-4.51
4.664792895317078,3,3,3,2,1.14,0.96,-1.4,-11.39,-1.6,-3.12
4.684792876243591,3,3,3,2,1.19,-0.89,-1.14,-8.94,-1.7,-1.43
4.704792857170105,3,3,3,2,0.8100000000000001,-2.53,-1.05,-2.3,-0.61,-0.88
4.724793076515198,3,3,3,2,0.08,-1.2,-0.32,7.05,-0.72,0.76
4.744793057441711,3,3,3,2,-0.04,-0.32,-0.29,12.07,-0.7,2.22
4.764793038368225,3,3,3,2,-0.23,-0.02,-0.38,14.6,-1.2,3.01
4.784793019294739,3,3,3,2,-0.17,-1.97,0.25,17.11,-1.38,2.62
4.804793000221252,3,3,3,2,-1.02,-3.01,1.1,18.42,0.58,1.43
4.824792981147766,3,3,3,2,-5.94,-21.74,7.46,13.19,0.55,-2.04
4.84479296207428,3,3,3,2,-14.12,-1.35,2.88,-6.12,0.08,-6.08
4.864792943000793,3,3,3,2,-24.46,0.93,-3.21,-14.32,-23.7,-5.19
4.884792923927307,3,3,3,2,-20,-3.86,-12.34,-22.48,10.46,-17.11
4.904792904853821,3,3,3,2,-32.42,-39.08,-2.4,-25.56,1.67,-18.4
4.924792885780334,3,3,3,2,-38.26,-6.8,-4.88,11.27,-1.51,-15.42
4.944792866706848,3,3,3,3,-7.74,39.35,-1.84,41.53,6.64,-11.41
4.965793013572693,3,3,3,3,-12.24,18.42,-1.11,-4.16,3.21,-8.57
4.984793066978455,3,3,3,3,-14.84,-4.07,-0.96,-20.52,-0.43,-3.14
5.004793047904968,3,3,3,3,-20.32,-5.29,-1.84,-4.93,-3.6,2.88
5.025792956352234,3,3,3,3,-16.69,1.83,-3.59,10.74,-2.68,4.14
5.044793009757996,3,3,3,3,-12.34,1.41,-2.46,11.59,-0.29,3.33
5.064792990684509,3,3,3,3,-12.08,1.29,-2.54,9.57,-0.2,5.4
5.084792971611023,3,3,3,3,-11.15,4.12,-3.02,8.470000000000001,0.32,8.01
5.104792952537537,3,3,3,3,-8.529999999999999,5.48,-3.41,2.27,0.77,8.82
5.125792860984802,3,3,3,3,-9.25,3.8,-3.23,-5.97,1.11,7.58
5.145793080329895,3,3,3,3,-10.27,0.11,-2.34,-10.49,2.32,6.98
5.165793061256409,3,3,3,3,-9.300000000000001,-1.61,-1.83,-9.58,3.33,6.61
5.185793042182922,3,3,3,3,-8.130000000000001,-2.43,-0.75,-5.15,3.89,7.4
5.205793023109436,3,3,3,3,-7.59,-2.9,-0.08,-1.15,3.4,7.74
5.22579300403595,3,3,3,3,-7.76,-3.54,0.2,2.49,3.02,7.34
5.245792984962463,3,3,3,3,-7.93,-2.72,0.59,6.04,2.46,6.93
5.265792965888977,3,3,3,3,-8.99,-1.9,0.37,7.33,1.87,5.85
5.285792946815491,3,3,3,3,-9.1,-1.65,0.33,5.64,1.81,4.31
5.305792927742004,3,3,3,3,-9.01,-2.11,-0.42,3.14,1.71,2.96
5.325792908668518,3,3,3,3,-9.26,-1.2,-0.72,2.17,0.87,2.04
5.345792889595032,3,3,3,3,-9.51,-0.42,-1.07,1.67,0.38,1.71
5.365792870521545,3,3,3,3,-9.83,0.66,-1.3,0.9,0.33,1.35
5.385792851448059,3,3,3,3,-9.880000000000001,1.13,-1.24,-0.48,0.2,1.17
5.405793070793152,3,3,3,2,-9.84,1.4,-1.05,-1.65,0.13,1.3
5.425793051719666,3,3,3,2,-9.710000000000001,2.04,-1.03,-3.26,0.43,1.45
5.445793032646179,3,3,3,2,-9.68,1.17,-1.09,-4.66,0.65,1.61
5.465793013572693,3,3,3,2,-9.52,0.18,-1.29,-5.87,0.16,1.45
5.485792994499207,3,3,3,2,-9.44,-0.71,-1.45,-4.4,0.4,1.43
5.50579297542572,3,3,3,2,-9.449999999999999,-1.18,-1.44,-0.6,0.46,1.74
5.525792956352234,3,3,3,2,-9.5,-0.9,-1.33,3.44,0.39,2.21
5.545792937278748,3,3,3,2,-9.460000000000001,0,-1.33,6.22,0.39,2.26
5.565792918205261,3,3,3,2,-9.6,0.8100000000000001,-1.53,7.02,0.4,2.41
5.585792899131775,3,3,3,2,-9.6,1.5,-1.52,5.54,-0.01,2.04
5.605792880058289,3,3,3,2,-9.640000000000001,2.15,-1.25,3.28,0.5,1.8
5.625792860984802,3,3,3,2,-9.609999999999999,1.59,-1.06,0.76,0.71,1.77
5.645793080329895,3,3,3,2,-9.44,0.31,-0.44,-1.27,0.52,1.26
5.665793061256409,3,3,3,2,-9.449999999999999,-0.59,-0.61,-2.69,-0.06,0.46
5.685793042182922,3,3,3,2,-9.57,-0.91,-0.73,-3.59,-0.09,-0.27
5.705793023109436,3,3,3,2,-9.66,-1.22,-0.93,-3.02,-0.36,-0.58
5.72579300403595,3,3,3,2,-9.15,-0.78,-1.12,-1.72,-0.36,-0.88
5.745792984962463,3,3,3,2,-9.109999999999999,-0.4,-1.06,0,0.39,-1.05
5.765792965888977,3,3,3,2,-9.02,-1.31,-0.98,1.4,-0.22,-1.35
5.785792946815491,3,3,3,2,-8.869999999999999,-2.09,-0.49,2.37,-0.48,-1.7
5.805792927742004,3,3,3,2,-9.029999999999999,-1.68,-0.21,3.74,-1.21,-2.9
5.825792908668518,3,3,3,2,-9.619999999999999,-0.6,-0.08,5.75,-1.95,-3.41
5.845792889595032,3,3,3,2,-9.65,-1.19,0.84,4.44,-2.86,-3.79
5.865792870521545,3,3,3,2,-8.960000000000001,-3.16,1.25,1.83,-4.57,-5.54
5.885792851448059,3,3,3,2,-7.79,-2.35,0.64,1.83,-4.29,-8.44
5.905793070793152,3,3,3,2,-7.28,-0.86,0.66,3.54,-5.26,-9.279999999999999
5.925793051719666,3,3,3,2,-8.220000000000001,-0.53,0.61,-0.17,-7.04,-10.85
5.945793032646179,3,3,3,2,-8.34,-0.63,-0.74,-3.76,-5.27,-13.21
5.965793013572693,3,3,3,2,-9.68,0.37,-1.55,-1.94,-2.64,-14.07
5.985792994499207,3,3,3,2,-10.6,0.41,-1.11,-4.13,-3,-13.21
6.00579297542572,3,3,3,2,-11.51,-0.54,-1.6,-5.27,-2.88,-14.28
6.025792956352234,3,3,3,2,-10.97,-0.26,-1.37,-1.63,-1.27,-16.07
6.045792937278748,3,3,3,2,-9.300000000000001,2.94,-1.3,0.3,-1.06,-14.68
6.065792918205261,3,3,3,2,-10.36,1.84,-1.85,-2.34,0.11,-12.94
6.085792899131775,3,3,3,2,-10.93,-0.14,-1.84,-2.07,0.66,-10.41
6.105792880058289,3,3,3,2,-11.55,0.85,-2.61,-1.21,-0.07000000000000001,-6.24
6.125792860984802,3,3,3,2,-13.76,1.79,-3.59,-1.4,0.05,-1.45
6.146793007850647,3,3,3,2,-15.59,1.51,-3.41,-2.24,0.57,2.42
6.166792988777161,3,3,3,2,-17.23,0.57,-3.37,-4.66,0.46,5.27
6.186792969703674,3,3,3,2,-21.22,1.03,-2,-5.37,-0.6,7.93
6.206792950630188,3,3,3,2,-22.27,4.07,-0.63,-4.45,-1.49,10.87
6.226792931556702,3,3,3,2,-21.68,9.539999999999999,-0.55,-5.74,-1.84,15.21
6.246792912483215,3,3,3,2,-22.52,11.37,-2.82,-9.74,-2.54,20.25
6.266792893409729,3,3,3,2,-26.21,5.92,-9.66,-14.55,-0.48,24.19
6.286792874336243,3,3,3,2,-27.57,-1.29,-11.89,-10.29,4.54,25.37
6.306792855262756,3,3,3,2,-19.92,-11.35,-4.43,-0.63,9.5,25.15
6.326793074607849,3,3,3,2,-11.37,-3.31,3.43,6.59,10.15,23.74
6.346793055534363,3,3,3,2,-3.41,-28.4,11.46,-8.300000000000001,4.45,17.95
6.366793036460876,3,3,3,2,0.03,-39.08,21.17,-1.49,-3.54,1.48
6.38679301738739,3,3,3,2,-6.4,2.82,5.52,7.55,6.92,-6.23
6.406792998313904,3,3,3,2,-3.25,8.039999999999999,0.79,-9.220000000000001,0.03,-9.51
6.426792979240417,3,3,3,2,2.11,-0.12,-6.12,-18.01,-3.78,-15.15
6.446792960166931,3,3,3,2,3.42,2.81,-6.74,-4.58,-1.68,-14.64
6.466792941093445,3,3,3,2,1.78,6.35,-3.42,7.14,-2.07,-9.35
6.486792922019958,3,3,3,2,1.12,4.47,-2.48,2.14,-3.05,-3.69
6.506792902946472,3,3,3,2,-0.1,1.9,-1.21,-2.07,-4.78,-1.08
6.526792883872986,3,3,3,2,-0.27,0.58,-0.43,1.17,-4.6,-1.45
6.5467928647995,3,3,3,2,-0.3,-0.78,-0.49,4.98,-1.88,-1.96
6.566793084144592,3,3,3,2,-0.05,-1.26,-1.31,9.779999999999999,0.23,-2.02
6.586793065071106,3,3,3,2,0.36,-1.19,-0.23,14.24,-0.84,-1.14
6.60679304599762,3,3,3,2,0.04,-1.23,0.25,17.61,-1.62,0.62
6.626793026924133,3,3,3,2,-0.27,0.53,-0.05,19.95,-0.68,1.94
6.646793007850647,3,3,3,2,-0.51,2.28,0.5600000000000001,18.68,-0.59,3.54
6.666792988777161,3,3,3,2,0.51,0.15,-1.41,15.85,2.09,3.14
6.686792969703674,3,3,3,2,-2.09,2.59,1.44,4.55,5.11,1.53
6.706792950630188,3,3,3,2,-5.3,-19.78,5.2,-11.71,2.1,-2.18
6.726792931556702,3,3,3,2,-12.01,18.85,-3.75,9.890000000000001,-13.13,0.82
6.746792912483215,3,3,3,2,-35.67,-7.87,-9.199999999999999,-21.89,-3.57,-3.09
6.766792893409729,3,3,3,2,-9.9,-7.79,-6.87,-18.85,3.43,-12.26
6.786792874336243,3,3,3,2,-25.78,-9.59,-3.5,-9.1,2.99,-14.74
6.806792855262756,3,3,3,2,-33.63,-1.99,-0.37,-1.2,-1.69,-9.029999999999999
6.826793074607849,3,3,3,2,-24.96,11.4,1.11,10.97,0.47,-9.390000000000001
6.846793055534363,3,3,3,2,-16.71,14.29,-0.24,1.2,1.58,-4.91
6.866793036460876,3,3,3,2,-15.71,8.43,-0.59,-10.04,0.65,-3.55
6.88679301738739,3,3,3,2,-13.32,1.97,-1.85,-10.62,-1.71,0.5600000000000001
6.906792998313904,3,3,3,3,-13.09,1.06,-4.66,-5.2,-3.33,3.98
6.926792979240417,3,3,3,3,-11.47,-0.62,-7.14,0.53,-2.12,6
6.946792960166931,3,3,3,3,-11.79,-3.16,-6.09,5.25,-0.05,7.17
6.966792941093445,3,3,3,3,-10.37,-0.41,-2.56,12.17,2.11,8.94
6.986792922019958,3,3,3,3,-8.19,2.79,-0.5600000000000001,13.54,3.6,9.529999999999999
7.006792902946472,3,3,3,3,-7.09,4.56,0.09,7.73,3.93,7.7
7.026792883872986,3,3,3,3,-7.05,3.14,0.28,0.05,4.68,6.31
7.0467928647995,3,3,3,3,-7.01,-0.24,0.02,-4.85,4.72,5.72
7.066793084144592,3,3,3,3,-6.79,-2.19,-0.08,-6.69,3.69,5.41
7.086793065071106,3,3,3,3,-7.47,-3.84,0.11,-2.83,2.58,4.57
7.10679304599762,3,3,3,2,-8.710000000000001,-3.5,1.26,1.35,0.9,4.02
7.126793026924133,3,3,3,2,-10.82,-2.7,1.75,4.15,0.46,2.84
7.146793007850647,3,3,3,2,-10.71,-1.71,1.8,2.59,1.13,1.07
7.166792988777161,3,3,3,2,-9.539999999999999,-0.86,0.13,-0.57,1.68,0.17
7.187792897224426,3,3,3,2,-9.23,-0.5600000000000001,-1.89,-3.53,0.93,-0.57
7.20779287815094,3,3,3,2,-8.890000000000001,0.15,-3.72,-4.2,0.83,-0.5600000000000001
7.227792859077454,3,3,3,2,-9.74,0.15,-3.87,-1.39,0.68,0.78
7.247793078422546,3,3,3,2,-10.34,1.44,-2.47,2.14,0.24,2.34
7.26779305934906,3,3,3,2,-10.48,3.04,-1.55,5.07,1.09,3.82
7.287793040275574,3,3,3,2,-10.21,2.97,-0.2,4.71,1.15,4.5
7.307793021202087,3,3,3,2,-9.67,2.09,0.25,1.68,1.04,3.77
7.327793002128601,3,3,3,2,-8.970000000000001,0.93,-0.17,-0.49,1.35,3.12
7.347792983055115,3,3,3,2,-8.94,0.16,-0.78,-0.84,1.24,2.52
7.367792963981628,3,3,3,2,-9.02,-1.54,-1.63,-0.42,0.96,2.33
7.387792944908142,3,3,3,2,-9.18,-1.7,-1.68,1.26,0.6,1.97
7.407792925834656,3,3,3,2,-10.16,-0.28,-1.65,4.32,0.49,1.76
7.427792906761169,3,3,3,2,-9.880000000000001,2.3,-1.51,5.35,0.49,1.87
7.447792887687683,3,3,3,2,-9.58,2.79,-1.42,4.16,1.08,2.49
7.467792868614197,3,3,3,2,-9.220000000000001,1.76,-1.48,1.24,0.85,2.46
7.48779284954071,3,3,3,2,-9.26,0.72,-1.5,-0.74,0.5600000000000001,1.59
7.507793068885803,3,3,3,2,-9.640000000000001,-0.25,-1.41,-1.34,0.25,0.99
7.527793049812317,3,3,3,2,-9.76,-0.23,-1.43,-0.6899999999999999,-0.04,0.82
7.547793030738831,3,3,3,2,-9.550000000000001,0.06,-1.18,-0.21,-0.42,0.6899999999999999
7.567793011665344,3,3,3,2,-9.56,0.31,-1.25,0.24,0.13,0.53
7.587792992591858,3,3,3,2,-9.58,0.07000000000000001,-1.27,0.6,0.28,0.44
7.607792973518372,3,3,3,2,-9.52,0.02,-1.26,0.9399999999999999,-0.06,0.42
7.627792954444885,3,3,3,2,-9.609999999999999,0.25,-1.25,1.66,-0.04,0.29
7.647792935371399,3,3,3,2,-9.5,0.5600000000000001,-0.9,1.63,-0.2,0.19
7.667792916297913,3,3,3,2,-9.380000000000001,0.85,-0.93,0.11,0.02,-0.37
7.687792897224426,3,3,3,2,-9.5,0.24,-0.6899999999999999,-1.58,-0.31,-0.96
7.70779287815094,3,3,3,2,-9.48,-0.91,-0.51,-2.35,-0.82,-1.85
7.727792859077454,3,3,3,2,-9.26,-1.53,-0.08,-2.67,-1,-2.33
7.747793078422546,3,3,3,2,-9.1,-3.73,0.79,-1.85,-2.49,-3.28
7.76779305934906,3,3,3,2,-8.609999999999999,-5.64,0.9399999999999999,-0.76,-3.95,-5.25
7.787793040275574,3,3,3,2,-8.92,-3.26,0.8,1.06,-2.93,-6.67
7.807793021202087,3,3,3,2,-9.16,-2.79,0.64,4.29,-4.93,-6.89
7.827793002128601,3,3,3,2,-9.460000000000001,-2.7,0.5600000000000001,3.66,-6.75,-8.220000000000001
7.847792983055115,3,3,3,2,-9.470000000000001,-3.09,-0.1,1.62,-7.87,-11.73
7.867792963981628,3,3,3,2,-9.17,-0.98,0.9399999999999999,1.18,-6.85,-12.77
7.887792944908142,3,3,3,2,-10.81,-0.5,0.36,1.88,-7.29,-15.17
7.907792925834656,3,3,3,2,-11.95,0.79,-0.02,-1.66,-6.21,-17.83
7.927792906761169,3,3,3,2,-10.98,7.39,-2.1,1.84,-1.97,-16.51
7.947792887687683,3,3,3,2,-8.710000000000001,8.109999999999999,-1.27,-6.55,-3.11,-15.25
7.967792868614197,3,3,3,2,-7.9,2.5,-1.77,-13.1,-1.86,-16.33
7.98779284954071,3,3,3,2,-8.359999999999999,0.44,-1.44,-8.27,-0.6,-14.31
8.007793068885803,3,3,3,2,-9.710000000000001,1.7,-2.66,-2.5,-1.86,-8.279999999999999
8.027793049812317,3,3,3,2,-12.37,2.64,-3.25,0.33,-1.06,-2.84
8.047793030738831,3,3,3,2,-13.55,4.16,-3.7,-0.05,-1.51,1.36
8.067793011665344,3,3,3,2,-15.65,2.29,-4.62,-3.85,0.08,2.34
8.087792992591858,3,3,3,2,-16.93,0.84,-4.21,-5.26,1.21,3.07
8.107792973518372,3,3,3,2,-19.36,1.43,-2.81,-3.58,1.01,5.55
8.127792954444885,3,3,3,2,-22.08,4.6,-0.31,-2.31,-0.49,10.09
8.147792935371399,3,3,3,2,-22.13,7.5,0.12,-2.93,-1,14.72
8.167792916297913,3,3,3,2,-24.3,11.17,-2.33,-6.61,-1.37,19.44
8.187792897224426,3,3,3,2,-26.49,9.98,-5.9,-11.68,0.74,23.42
8.208793044090271,3,3,3,2,-26.64,0.26,-9.890000000000001,-11.33,5.52,24.99
8.228793025016785,3,3,3,2,-21.73,-6.84,-8.34,-2.76,10.87,25.13
8.248793005943298,3,3,3,2,-8.27,-6.57,-1.6,2.42,14.08,25.89
8.268792986869812,3,3,3,2,-1.18,-32.08,8.85,-9.06,3.56,23.28
8.288792967796326,3,3,3,2,-5.73,-29.57,16.29,14.06,0.91,3.79
8.308792948722839,3,3,3,2,-5.19,7.12,4.28,21.93,2.68,-3.09
8.328792929649353,3,3,3,2,-2.96,7.53,-0.82,-3.28,0.74,-5.87
8.348792910575867,3,3,3,2,2.56,-2.79,-5.1,-8.789999999999999,-6.37,-12.76
8.36879289150238,3,3,3,2,0.88,3.11,-5.26,0.79,-4,-11.55
8.388792872428894,3,3,3,2,1.21,5.71,-0.6899999999999999,5.69,-4.53,-4.52
8.408792853355408,3,3,3,2,1.49,2.76,-1.01,0.54,-4.59,-1.16
8.4287930727005,3,3,3,2,1.39,1.31,-0.99,-3.27,-6.19,-2.32
8.448793053627014,3,3,3,2,0.17,0.3,-0.62,-1.62,-5.9,-4.21
8.468793034553528,3,3,3,2,-0.83,-0.28,-0.89,0.8,-3.04,-3.87
8.488793015480042,3,3,3,2,-0.88,-1.49,-0.16,4.98,-1.88,-3.49
8.508792996406555,3,3,3,2,0.13,-1.58,0.3,9.25,-1.94,-2.97
8.528792977333069,3,3,3,2,-0.05,0.23,0.27,9.85,-1.2,-2.13
8.548792958259583,3,3,3,2,0.38,1.76,-0.21,9.039999999999999,-1.65,-0.67
8.568792939186096,3,3,3,2,0.21,0.64,-0.64,5.17,-0.82,-1.23
8.58879292011261,3,3,3,2,0.13,-0.88,-1.21,3.01,1.19,-2.65
8.608792901039124,3,3,3,2,-1.66,-6.34,0.6,-0.75,4.92,-4.51
8.628792881965637,3,3,3,2,-5.9,-17.69,8.16,-22.17,3.04,-10.03
8.648792862892151,3,3,3,2,-16.58,17.07,-2.84,6.21,-10.86,-4.1
8.668793082237244,3,3,3,2,-27.76,-14.1,5.11,-28.2,-8.880000000000001,-6.68
8.688793063163757,3,3,3,2,-10.26,-0.63,-7.35,-11.67,0.74,-13.63
8.708793044090271,3,3,3,2,-20.77,-5.92,-10.61,-9.07,2.12,-12.61
8.728793025016785,3,3,3,2,-39.24,-12.62,-3.71,25.97,0.24,-11.04
8.748793005943298,3,3,3,2,-13.04,23.27,1.38,29.74,3.14,-8.800000000000001
8.768792986869812,3,3,3,2,-14.76,17.44,1.27,-8.65,0.45,-1.41
8.788792967796326,3,3,3,2,-17.75,4.6,-0.54,-12.6,-0.77,0.38
8.808792948722839,3,3,3,2,-17.33,0.38,-0.72,-2.46,-0.62,5.31
8.828792929649353,3,3,3,2,-14.94,1.16,-1.91,4.42,-0.58,7.72
8.848792910575867,3,3,3,2,-14.09,0.64,-1.49,5.25,-0.23,8.35
8.86879289150238,3,3,3,2,-12.08,-0.02,-1.17,7.7,0.88,8.98
8.888792872428894,3,3,3,2,-9.880000000000001,0.86,-1.1,7.82,1.11,9.52
8.908792853355408,3,3,3,2,-8.69,2.65,-1.66,2.11,3.2,8.99
8.9287930727005,3,3,3,2,-6.69,1.87,-2.01,-3.06,5.26,7.62
8.948793053627014,3,3,3,2,-5.85,0.6899999999999999,-2.33,-5.69,5.48,6.89
8.968793034553528,3,3,3,2,-5.55,-1.4,-1.75,-6.14,3.73,6.93
8.988793015480042,3,3,3,2,-5.16,-2.74,0.01,-3.19,3.21,7.41
9.008792996406555,3,3,3,2,-5.38,-2.52,0.41,4.96,2.9,7.9
9.028792977333069,3,3,3,2,-7.01,-1.98,1.08,9.119999999999999,1.92,7.45
9.048792958259583,3,3,3,2,-7.94,-0.99,0.91,9.58,1.44,6.75
9.068792939186096,3,3,3,2,-9.119999999999999,-0.75,0.39,5.31,1.96,5.02
9.08879292011261,3,3,3,2,-10.6,-0.45,0.05,2.92,2,4.23
9.108792901039124,3,3,3,2,-11.09,-1.23,-1.08,-2.12,2.33,2.36
9.128792881965637,3,3,3,2,-11.76,-1.36,-0.5600000000000001,-1.39,1.48,2.26
9.148792862892151,3,3,3,2,-11.79,0.08,-0.06,0.04,1,2.38
9.168793082237244,3,3,3,2,-11.47,1.07,-0.78,1.98,-0.42,2.25
9.188793063163757,3,3,3,2,-10.15,3.2,-0.87,1.35,-0.63,2.53
9.208793044090271,3,3,3,2,-9.220000000000001,3.54,-1.39,-3.85,0.38,2.24
9.229792952537537,3,3,3,2,-8.09,2.83,-1.53,-5.31,0.54,1.87
9.24979293346405,3,3,3,2,-7.97,2.11,-1.22,-5.55,0.66,1.97
9.269792914390564,3,3,3,2,-7.98,1.68,-1.78,-3,1.05,3.76
9.289792895317078,3,3,3,2,-8.19,1.45,-2.08,-1.86,1.09,4.6
9.309792876243591,3,3,3,2,-9.119999999999999,0.91,-2.39,3.44,1.89,7.37
9.329792857170105,3,3,3,2,-9.91,1.33,-2.44,5.73,1.75,7.9
9.349793076515198,3,3,3,2,-10.5,2.18,-1.49,6.43,0.62,7.51
9.369793057441711,3,3,3,2,-10.28,1.44,-0.35,5.66,0.38,6.25
9.389793038368225,3,3,3,2,-10.14,-0.22,0.26,4.51,0.66,5.7
9.409793019294739,3,3,3,2,-10.26,-1.46,0.31,4.72,0.38,3.07
9.429793000221252,3,3,3,2,-10.39,-0.7,0.03,3.26,0.12,0.72
9.449792981147766,3,3,3,2,-10.15,2.12,-0.9,1.7,-0.17,-0.44
9.46979296207428,3,3,3,2,-9.59,3.51,-1.34,-4.05,-0.02,-1.26
9.489792943000793,3,3,3,2,-9.07,3.89,-1.64,-6.05,0.4,-0.96
9.509792923927307,3,3,3,2,-8.94,2.9,-1.64,-6.85,0.6,-0.19
9.529792904853821,3,3,3,2,-8.789999999999999,1.47,-1.58,-3.24,0.41,0.1
9.549792885780334,3,3,3,2,-8.84,1.23,-1.55,-0.98,0.37,0.4
9.569792866706848,3,3,3,2,-9.369999999999999,1.88,-1.97,4.96,-0.36,1.81
9.589792847633362,3,3,3,2,-9.59,2.44,-1.94,6.09,-0.73,2.22
9.609793066978455,3,3,3,2,-9.640000000000001,2.63,-1.55,6.99,-1.51,2.3
9.629793047904968,3,3,3,2,-9.460000000000001,2.48,-1.26,5.51,-1.5,1.61
9.649793028831482,3,3,3,2,-9.380000000000001,2.66,-0.75,4.18,-1.23,1.28
9.669793009757996,3,3,3,2,-9.49,2.92,-0.8100000000000001,-0.97,0.02,0.31
9.689792990684509,3,3,3,2,-9.31,2.84,-0.9,-2.56,0.36,-0.01
9.709792971611023,3,3,3,2,-9.34,2.7,-1.2,-4.16,0.9,-0.35
9.729792952537537,3,3,3,2,-9.210000000000001,2.55,-1.75,-2.83,0.9,-0.26
9.74979293346405,3,3,3,2,-9.48,2.51,-1.82,-1.8,0.71,0
9.769792914390564,3,3,3,2,-9.359999999999999,2.57,-1.91,1.04,0.07000000000000001,0.47
9.789792895317078,3,3,3,2,-9.380000000000001,2.55,-1.81,1.5,-0.03,0.5
9.809792876243591,3,3,3,2,-9.220000000000001,2.58,-1.73,2.42,-0.6,0.36
9.829792857170105,3,3,3,2,-9.210000000000001,2.42,-1.14,2.06,-0.62,0.4
9.849793076515198,3,3,3,2,-9.300000000000001,2.46,-1.12,1.76,-0.35,0.41
9.869793057441711,3,3,3,2,-9.43,2.89,-1.22,0.06,0.19,-0.18
9.889793038368225,3,3,3,2,-9.4,2.7,-1.28,-0.7,0.35,-0.33
9.909793019294739,3,3,3,2,-9.279999999999999,2.42,-1.62,-1.33,0.41,-0.58
9.929793000221252,3,3,3,2,-9.32,2.57,-1.56,-1.18,0.52,-0.5
9.949792981147766,3,3,3,2,-9.33,2.69,-1.62,-1.02,0.53,-0.55
9.96979296207428,3,3,3,2,-9.26,2.8,-1.67,-0.83,0.25,-0.58
9.989792943000793,3,3,3,2,-9.210000000000001,2.65,-1.61,-0.75,0.18,-0.6
10.00979292392731,3,3,3,2,-9.33,2.22,-1.55,0.04,0.11,-0.37
10.02979290485382,3,3,3,2,-9.390000000000001,2.28,-1.39,0.39,0.19,-0.33
10.04979288578033,3,3,3,2,-9.359999999999999,2.33,-1.38,0.44,0.14,-0.38
10.06979286670685,3,3,3,2,-9.4,2.51,-1.46,0.14,0.2,-0.45
10.08979284763336,3,3,3,2,-9.44,2.48,-1.46,-0.3,0.28,-0.48
10.10979306697845,3,3,3,2,-9.390000000000001,2.45,-1.59,-0.84,0.37,-0.52
10.12979304790497,3,3,3,2,-9.4,2.41,-1.55,-0.98,0.47,-0.5600000000000001
10.14979302883148,3,3,3,2,-9.44,2.42,-1.53,-1.07,0.4,-0.49
10.169793009758,3,3,3,2,-9.32,2.36,-1.56,-0.7,0.28,-0.51
10.18979299068451,3,3,3,2,-9.35,2.25,-1.48,-0.21,0.15,-0.44
10.20979297161102,3,3,3,2,-9.369999999999999,2.23,-1.61,0,0.09,-0.31
10.22979295253754,3,3,3,2,-9.380000000000001,2.35,-1.44,0.04,0.05,-0.25
10.2507928609848,3,3,3,2,-9.380000000000001,2.35,-1.41,0,0.11,-0.27
10.2707930803299,3,3,3,2,-9.4,2.19,-1.38,-0.06,0.12,-0.29
10.29079306125641,3,3,3,2,-9.41,2.21,-1.42,-0.06,0.22,-0.34
10.31079304218292,3,3,3,2,-9.33,2.27,-1.61,-0.12,0.22,-0.38
10.33079302310944,3,3,3,2,-9.31,2.36,-1.56,-0.29,0.12,-0.41
10.35079300403595,3,3,3,2,-9.369999999999999,2.51,-1.6,-0.37,0.14,-0.4
10.37079298496246,3,3,3,2,-9.380000000000001,2.56,-1.62,-0.64,0.02,-0.35
10.39079296588898,3,3,3,2,-9.32,2.42,-1.52,-0.93,0.04,-0.39
10.41079294681549,3,3,3,2,-9.300000000000001,2.19,-1.64,-0.96,0.15,-0.36
10.430792927742,3,3,3,2,-9.300000000000001,2.22,-1.55,-0.6,0.18,-0.29
10.45079290866852,3,3,3,3,-9.369999999999999,2.31,-1.66,-0.22,0.22,-0.13
10.47079288959503,3,3,3,3,-9.359999999999999,2.37,-1.66,0.02,0.15,-0.06
10.49079287052155,3,3,3,3,-9.300000000000001,2.25,-1.58,0.18,-0.01,0.04
10.51079285144806,3,3,3,3,-9.380000000000001,2.16,-1.67,0.4,-0.03,0.12
10.53079307079315,3,3,3,3,-9.44,2.2,-1.47,0.49,-0.01,0.11
10.55079305171967,3,3,3,3,-9.43,2.17,-1.42,0.5,-0.05,0.08
10.57079303264618,3,3,3,3,-9.41,2.15,-1.48,0.49,-0.08,0.03
10.59079301357269,3,3,3,3,-9.41,2.18,-1.46,0.47,-0.06,0.04
10.61079299449921,3,3,3,3,-9.42,2.22,-1.55,0.55,-0.08,0.01
10.63079297542572,3,3,3,3,-9.390000000000001,2.29,-1.51,0.5600000000000001,-0.11,-0.01
10.65079295635223,3,3,3,3,-9.42,2.44,-1.59,0.59,-0.16,0
10.67079293727875,3,3,3,3,-9.359999999999999,2.42,-1.67,0.52,-0.16,0.01
10.69079291820526,3,3,3,3,-9.27,2.39,-1.56,0.5,-0.24,0
10.71079289913177,3,3,3,3,-9.31,2.39,-1.6,0.57,-0.19,0.01
10.73079288005829,3,3,3,3,-9.32,2.43,-1.47,0.57,-0.22,0
10.7507928609848,3,3,3,3,-9.35,2.48,-1.42,0.4,-0.13,0.02
10.7707930803299,3,3,3,3,-9.390000000000001,2.4,-1.51,0.22,-0.07000000000000001,0.03
10.79079306125641,3,3,3,3,-9.34,2.44,-1.51,0.11,-0.01,0.02
10.81079304218292,3,3,3,3,-9.4,2.32,-1.58,0.01,0.02,0.03
10.83079302310944,3,3,3,3,-9.359999999999999,2.25,-1.46,0.06,0.08,0
10.85079300403595,3,3,3,3,-9.359999999999999,2.35,-1.46,0.02,0.03,0.01
10.87079298496246,3,3,3,3,-9.4,2.28,-1.52,0,0.01,0.05
10.89079296588898,3,3,3,3,-9.359999999999999,2.25,-1.44,-0.03,-0.02,0.08
10.91079294681549,3,3,3,3,-9.449999999999999,2.16,-1.51,0.07000000000000001,0.02,0.03
10.930792927742,3,3,3,3,-9.460000000000001,2.14,-1.37,0.09,-0.02,0.01
10.95079290866852,3,3,3,3,-9.460000000000001,2.04,-1.36,0.13,-0.01,-0.08
10.97079288959503,3,3,3,3,-9.4,2.2,-1.53,0.15,0.01,-0.11
10.99079287052155,3,3,3,3,-9.359999999999999,2.22,-1.44,0.03,0.02,-0.06
11.01079285144806,3,3,3,3,-9.470000000000001,2.25,-1.53,-0.1,-0.05,-0.09
11.03079307079315,3,3,3,3,-9.41,2.35,-1.52,-0.12,-0.04,-0.09
11.05079305171967,3,3,3,3,-9.300000000000001,2.37,-1.52,-0.21,-0.09,-0.1
11.07079303264618,3,3,3,3,-9.35,2.37,-1.54,-0.01,-0.1,-0.04
11.09079301357269,3,3,3,3,-9.34,2.46,-1.49,0.08,-0.05,0.13
11.11079299449921,3,3,3,3,-9.300000000000001,2.49,-1.59,0.15,-0.02,0.22
11.13079297542572,3,3,3,3,-9.34,2.4,-1.52,0.11,-0.07000000000000001,0.27
11.15079295635223,3,3,3,3,-9.35,2.23,-1.49,0.12,-0.08,0.26
11.17079293727875,3,3,3,3,-9.43,2.26,-1.49,0.15,-0.01,0.2
11.19079291820526,3,3,3,3,-9.32,2.29,-1.46,0.19,-0.05,0.1
11.21079289913177,3,3,3,3,-9.199999999999999,2.44,-1.48,0.23,-0.06,0.06
11.23079288005829,3,3,3,3,-9.210000000000001,2.61,-1.29,0.31,-0.16,0.15
11.2507928609848,3,3,3,3,-9.220000000000001,2.87,-1.26,0.27,-0.16,0.3
11.27179300785065,3,3,3,3,-9.220000000000001,3.2,-1.72,-0.2,-0.36,0.65
11.29179298877716,3,3,3,3,-9.029999999999999,2.82,-1.34,-0.76,-0.33,1.07
11.31179296970367,3,3,3,3,-9.08,2.17,-1.66,0.04,-0.33,1.43
11.33179295063019,3,3,3,3,-9.51,1.75,-1.93,0.74,-0.38,1.78
11.3517929315567,3,3,3,3,-9.699999999999999,1.36,-2.08,1.27,-0.63,1.85
11.37179291248322,3,3,3,3,-9.93,1.42,-2.08,2.1,-0.53,1.18
11.39179289340973,3,3,3,3,-9.949999999999999,1.62,-1.75,2.34,-1.28,0.54
11.41179287433624,3,3,3,3,-9.890000000000001,1.56,-1.43,2.18,-2.19,0.2
11.43179285526276,3,3,3,3,-9.609999999999999,1.37,-1.12,1.63,-2.42,-0.31
11.45179307460785,3,3,3,3,-9.66,1.06,-1.04,0.8,-2.05,-0.95
11.47179305553436,3,3,3,3,-9.630000000000001,0.51,-0.85,0.26,-1.95,-1.78
11.49179303646088,3,3,3,3,-9.789999999999999,0.14,-0.64,0.14,-1.54,-2.74
11.51179301738739,3,3,3,3,-10.36,0.17,-1.06,0.48,-1.41,-3.42
11.5317929983139,3,3,3,3,-10.49,0.18,-0.82,0.6899999999999999,-2.16,-4
11.55179297924042,3,3,3,3,-10.63,-0.51,-0.62,1.11,-2.89,-4.82
11.57179296016693,3,3,3,3,-10.9,-1.33,-0.46,1.25,-3.74,-6.24
11.59179294109344,3,3,3,3,-11.61,-2.26,0.15,1.91,-5.29,-7.96
11.61179292201996,3,3,3,3,-11.91,-3.15,0.43,2.45,-6.73,-10.08
11.63179290294647,3,3,3,3,-12.04,-4.45,0.8100000000000001,0.48,-6.13,-12.9
11.65179288387299,3,3,3,3,-11.53,-3.06,1.36,-2.39,-5.96,-13.24
11.6717928647995,3,3,3,3,-10.92,-0.26,-0.35,-0.26,-6.29,-11.2
11.69179308414459,3,3,3,2,-10.94,0.65,-1.68,1.88,-4.92,-11.33
11.71179306507111,3,3,3,2,-10.94,3.3,-1.1,-0.65,-5.01,-11.18
11.73179304599762,3,3,3,2,-10.36,4.2,-0.41,-1.82,-5.57,-10.79
11.75179302692413,3,3,3,2,-9.890000000000001,3.97,-0.85,-4.94,-4.55,-11.69
11.77179300785065,3,3,3,2,-9.24,2.02,-1.42,-8.07,-2.17,-12.01
11.79179298877716,3,3,3,2,-9.529999999999999,0.37,-1.77,-7.4,-0.82,-12.67
11.81179296970367,3,3,3,2,-9.119999999999999,0.58,-1.88,-4.74,-0.67,-12.99
11.83179295063019,3,3,3,2,-8.44,0.31,-1.95,-1.83,-0.54,-12.24
11.8517929315567,3,3,3,2,-8.460000000000001,0.01,-1.87,1.21,0.86,-10.98
11.87179291248322,3,3,3,2,-8.529999999999999,-0.12,-1.4,4.38,1.19,-10.25
11.89179289340973,3,3,3,2,-8.539999999999999,-0.36,-0.8,7.46,1.41,-9.449999999999999
11.91179287433624,3,3,3,2,-7.91,-0.28,-0.83,9.67,2.08,-7.7
11.93179285526276,3,3,3,2,-7.37,-0.58,-0.41,10.77,2.46,-6.68
11.95179307460785,3,3,3,2,-8.08,-0.83,-0.05,11.25,3.41,-6.08
11.97179305553436,3,3,3,2,-8.43,-1.3,-0.05,11.96,3.59,-5.67
11.99179303646088,3,3,3,2,-8.52,-1.45,0.02,11.37,3.68,-5.17
12.01179301738739,3,3,3,2,-8.58,-1.53,0.16,9.58,3.37,-4.75
12.0317929983139,3,3,3,2,-8.130000000000001,-1.92,0.47,6.88,2.73,-4.03
12.05179297924042,3,3,3,2,-8.74,-3.94,0.77,4.22,2.59,-2.56
12.07179296016693,3,3,3,2,-9.59,-5.12,1.81,2.69,2.8,-2.25
12.09179294109344,3,3,3,2,-9.56,-4.9,2.89,4.09,2.36,-1.55
12.11179292201996,3,3,3,2,-9.529999999999999,-4.92,3.31,5.27,1.84,-0.19
12.13179290294647,3,3,3,2,-9.75,-6.14,3.11,4.27,2.25,-0.16
12.15179288387299,3,3,3,2,-9.550000000000001,-6.61,2.18,3.8,2.91,-1.02
12.1717928647995,3,3,3,2,-9.15,-5.37,0.63,3.97,2.85,-1.35
12.19179308414459,3,3,3,2,-8.24,-4.23,0.29,4.23,2.74,-0.93
12.21179306507111,3,3,3,2,-8.300000000000001,-1.84,-1.65,5.38,4.76,1.26
12.23179304599762,3,3,3,2,-10.38,0.01,-2.47,6.03,5.39,3.63
12.25179302692413,3,3,3,2,-11.93,-6.39,3.17,3.86,3.14,4.22
12.27179300785065,3,3,3,2,-13.75,-8.949999999999999,3.61,7.92,4.12,2.84
12.29179298877716,3,3,3,2,-13.02,-1.92,1.74,11.42,5.22,4.88
12.31279289722443,3,3,3,2,-9.800000000000001,4.64,1.92,7.31,3.85,6.59
12.33279287815094,3,3,3,2,-7.88,3.53,-2.78,3.97,8.300000000000001,8.07
12.35279285907745,3,3,3,2,-8.08,2.51,-4.1,-0.67,7.43,7.76
12.37279307842255,3,3,3,2,-7.81,1.89,-5.16,-0.73,7.26,8.210000000000001
12.39279305934906,3,3,3,2,-9.289999999999999,3.59,-4.26,1.53,6.54,8.58
12.41279304027557,3,3,3,2,-10.75,1.96,-1.89,0.29,5.77,9.710000000000001
12.43279302120209,3,3,3,2,-10.76,1.41,-1.53,0.47,6.37,11.61
12.4527930021286,3,3,3,2,-9.73,2.1,-2.46,1.16,6.44,12.07
12.47279298305511,3,3,3,2,-9.109999999999999,1.33,-3.45,1.79,7.27,12.5
12.49279296398163,3,3,3,2,-8.75,1.43,-3.91,2.01,7.1,12.45
12.51279294490814,3,3,3,2,-8.710000000000001,1.35,-3.35,1.69,6.73,12.29
12.53279292583466,3,3,3,2,-9.17,1.26,-2.87,0.92,5.33,12.23
12.55279290676117,3,3,3,3,-9.56,-0.54,-2.14,-2.39,4.74,12
12.57279288768768,3,3,3,3,-9.9,-2.39,-2.04,-4.81,5.35,11.16
12.5927928686142,3,3,3,3,-10.78,-4.4,-1.81,-5.76,5.66,8.869999999999999
12.61279284954071,3,3,3,3,-10.51,-3.6,-1.34,-5.66,4.77,5.38
12.6327930688858,3,3,3,3,-9.52,-0.29,-2,-6.15,3.83,3.39
12.65279304981232,3,3,3,3,-8.93,0.76,-2.91,-7.63,3.12,3.4
12.67279303073883,3,3,3,3,-8.67,1.17,-3.45,-7.72,2.68,4.22
12.69279301166534,3,3,3,3,-8.27,1.26,-3.22,-7.77,2.54,5.71
12.71279299259186,3,3,3,3,-8.43,1.52,-2.96,-7.88,4.02,6.81
12.73279297351837,3,3,3,3,-9.75,2.35,-2.79,-8.69,5.84,7.57
12.75279295444489,3,3,3,3,-9.91,2.66,-3.33,-7.82,4.82,7.24
12.7727929353714,3,3,3,3,-9.42,1.36,-3.17,-7.35,2.38,5.51
12.79279291629791,3,3,3,3,-9.27,1.54,-2.79,-4.77,1.72,4.85
12.81279289722443,3,3,3,3,-9.539999999999999,2.17,-2.56,-3.86,1.89,4.97
12.83279287815094,3,3,3,3,-9.43,1.66,-2.28,-4.94,2.14,4.74
12.85279285907745,3,3,3,3,-9.33,1.6,-2.13,-6.7,2.56,4.27
12.87279307842255,3,3,3,3,-9.289999999999999,1.95,-2.62,-7.73,3.32,4.05
12.89279305934906,3,3,3,3,-9.26,1.33,-2.38,-10.21,3.78,3.82
12.91279304027557,3,3,3,3,-9.529999999999999,0.85,-2.52,-9.48,2.83,4.09
12.93279302120209,3,3,3,3,-9.449999999999999,0.79,-2.46,-8.01,2.29,4.45
12.9527930021286,3,3,3,3,-9.220000000000001,1.39,-2.85,-6.13,2.06,4.93
12.97279298305511,3,3,3,3,-9.52,1.92,-3.02,-4.75,1.87,5.39
12.99279296398163,3,3,3,3,-10.28,1.69,-2.78,-4.43,0.88,5.65
13.01279294490814,3,3,3,3,-10.7,1,-2.82,-4.88,0.7,5.52
13.03279292583466,3,3,3,3,-11.23,0.41,-2.69,-5.8,0.89,4.57
13.05279290676117,3,3,3,3,-11.68,-0.41,-2.16,-7.28,1.03,3.58
13.07279288768768,3,3,3,3,-11.82,-2.3,-1.75,-8.08,0.44,2.44
13.0927928686142,3,3,3,3,-13.34,-3.11,-0.27,-6.54,-0.99,1.24
13.11279284954071,3,3,3,3,-13.5,-3.01,0.47,-3.34,-4.41,-0.95
13.1327930688858,3,3,3,3,-13.13,-4.06,0.91,-2.53,-7.14,-4.58
13.15279304981232,3,3,3,3,-12.02,-0.9399999999999999,1.87,-2.28,-9.02,-7.97
13.17279303073883,3,3,3,3,-9.17,-3.11,-1.12,-8.6,-9.94,-9.369999999999999
13.19279301166534,3,3,3,3,-11.13,-2.71,-2.44,-11.64,-7.38,-12.66
13.21279299259186,3,3,3,3,-12.11,1.33,-2.34,-4.05,-8.09,-15.86
13.23279297351837,3,3,3,3,-12.45,3.85,-2.8,-0.15,-8.07,-16.39
13.25279295444489,3,3,3,2,-11.35,4.18,-2.93,0.97,-7.2,-16.53
13.2727929353714,3,3,3,2,-11.39,3.67,-2.46,1.11,-6,-17.19
13.29279291629791,3,3,3,2,-12.09,4.23,-1.87,2.34,-5.15,-18.04
13.31279289722443,3,3,3,2,-11.84,4.98,-2.2,3.16,-4.43,-18.3
13.33379304409027,3,3,3,2,-10.86,5.09,-2.21,2.74,-3.79,-18.92
13.35379302501678,3,3,3,2,-10.5,3.02,-2.36,0.73,-3.08,-20.56
13.3737930059433,3,3,3,2,-10.86,1.59,-2.19,2,-2.03,-21.71
13.39379298686981,3,3,3,2,-10.47,2.81,-1.94,6.92,-2.45,-22.07
13.41379296779633,3,3,3,2,-9.51,4.74,-1.96,10.12,-2.94,-22.04
13.43379294872284,3,3,3,2,-8.65,5.22,-1.63,9.710000000000001,-3.44,-21.78
13.45379292964935,3,3,3,2,-7.31,5.31,-2.05,7.89,-4,-20.85
13.47379291057587,3,3,3,2,-6.56,4.94,-2.65,4.3,-3.55,-17.62
13.49379289150238,3,3,3,2,-6.12,3.23,-3,1.88,-1.79,-14.08
13.51379287242889,3,3,3,2,-5.88,2.33,-3.16,1.93,0.27,-11.64
13.53379285335541,3,3,3,2,-5.64,2.58,-2.14,4.69,1.82,-9.93
13.5537930727005,3,3,3,2,-5.4,2.47,-1.8,6.44,3.05,-8.31
13.57379305362701,3,3,3,2,-5.64,0.86,-1.76,5.78,4.63,-5.97
13.59379303455353,3,3,3,2,-5.73,0.53,-1.81,6.49,6.43,-2.48
13.61379301548004,3,3,3,2,-6.82,-0.17,-2.93,5.23,7.71,1.47
13.63379299640656,3,3,3,2,-8.82,-2.6,-1.99,2.33,6.83,2.64
13.65379297733307,3,3,3,2,-11.63,-8.210000000000001,1.78,4.18,2.58,0.19
13.67379295825958,3,3,3,2,-12.5,-10.78,4.01,11.94,-0.61,-1.1
13.6937929391861,3,3,3,2,-13.53,-13.68,3.18,16.44,-2.58,-1.45
13.71379292011261,3,3,3,2,-11.39,-9.529999999999999,3.46,9.31,-4.9,-2.75
13.73379290103912,3,3,3,2,-7.72,-0.25,0.47,7.27,-1.5,-2.29
13.75379288196564,3,3,3,1,-4.97,2.21,-2.46,4.89,7.64,-3.79
13.77379286289215,3,3,3,1,-13.21,-0.92,1.38,-11.17,8.41,7.52
13.79379308223724,3,3,3,1,-19.85,-16.97,6.79,0.37,1.58,4.29
13.81379306316376,3,3,3,1,-15.01,0.44,0.92,10.98,1.92,6.73
13.83379304409027,3,3,3,1,-8.470000000000001,9.859999999999999,-2.46,8.15,2.22,9.359999999999999
13.85379302501678,3,3,3,1,-6.6,5.81,-11.37,1.54,9.289999999999999,9.15
13.8737930059433,3,3,3,1,-7.5,-2.27,-6.91,-4.96,11.05,9.619999999999999
13.89379298686981,3,3,3,0,-9.619999999999999,2.09,-4.66,2.67,7.84,12.52
13.91379296779633,3,3,3,0,-9.300000000000001,3.51,-3.28,7.9,6.95,13.65
13.93379294872284,3,3,3,0,-10.48,2.17,-1.43,6.79,6.53,13.23
13.95379292964935,3,3,3,0,-10,1.76,-1.08,6.51,6.7,14.12
13.97379291057587,3,3,3,0,-9.1,1.62,-2.17,6.28,6.77,14.23
13.99379289150238,3,3,3,0,-8.74,0.71,-2.63,6.02,6.4,13.74
14.01379287242889,3,3,3,0,-8.73,1.23,-3.18,5.44,6.3,13.04
14.03379285335541,3,3,3,0,-9.27,0.87,-2.46,2.93,6.4,11.91
14.0537930727005,3,3,3,0,-9.4,0.51,-1.87,0.1,5.41,10.79
14.07379305362701,3,3,3,0,-9.69,-0.33,-2.35,-2.94,5.04,9.73
14.09379303455353,3,3,3,0,-9.35,-0.98,-2.76,-5.45,5.35,8.18
14.11379301548004,3,3,3,0,-9.529999999999999,-1.13,-2.68,-6.84,4.41,7.34
14.13379299640656,3,3,3,0,-9.720000000000001,-1.3,-2.96,-7.67,3.93,6.86
14.15379297733307,3,3,3,0,-9.43,-1.29,-2.71,-7.2,4.05,6.03
14.17379295825958,3,3,3,0,-9.17,-0.19,-3.15,-5.43,3.29,5.89
14.1937929391861,3,3,3,0,-8.66,0.93,-3.45,-4.63,3.12,5.75
14.21379292011261,3,3,3,0,-8.949999999999999,1.96,-3.34,-4.62,3.28,6.19
14.23379290103912,3,3,3,0,-8.81,1.36,-2.95,-5.06,3.1,6.22
14.25379288196564,3,3,3,1,-8.6,0.83,-2.98,-5.29,3.36,6.37
14.27379286289215,3,3,3,1,-9.01,0.82,-2.36,-4.22,4.09,5.85
14.29379308223724,3,3,3,1,-9.24,0.86,-2.08,-4.58,3.76,5.32
14.31379306316376,3,3,3,1,-9.529999999999999,1.85,-2.36,-5.82,3.33,5.62
14.33379304409027,3,3,3,1,-9.380000000000001,1.5,-2.18,-7.79,2.94,6.11
14.35479295253754,3,3,3,1,-8.609999999999999,0.86,-2.07,-9.42,2.97,6.47
14.37479293346405,3,3,3,1,-8.960000000000001,0.64,-2.46,-10.41,3.75,7.17
14.39479291439056,3,3,3,1,-9.550000000000001,1.14,-3.23,-10.08,3.98,7.07
14.41479289531708,3,3,3,1,-9.57,0.88,-3.15,-8.039999999999999,2.44,5.9
14.43479287624359,3,3,3,1,-9.539999999999999,1.05,-2.46,-7.11,1.97,5.64
14.4547928571701,3,3,3,2,-9.210000000000001,1.13,-2.9,-6.38,1.85,5.4
14.4747930765152,3,3,3,2,-9.76,1.67,-2.9,-6,1.77,4.56
14.49479305744171,3,3,3,2,-10.87,1.32,-2.46,-6.49,1.8,4.2
14.51479303836823,3,3,3,2,-11.53,0.98,-2.2,-6.87,1.9,3.69
14.53479301929474,3,3,3,2,-12.82,-0.99,-2.17,-8.779999999999999,2.04,2.79
14.55479300022125,3,3,3,2,-13.84,-2.11,-1.33,-8.83,0.59,1.46
14.57479298114777,3,3,3,2,-13.4,-4.01,-0.88,-7.7,-2.17,0.16
14.59479296207428,3,3,3,2,-14.26,-5.21,0.07000000000000001,-6.61,-3.45,-0.73
14.61479294300079,3,3,3,2,-14.23,-7.16,0.79,-2.61,-8.449999999999999,-7.05
14.63479292392731,3,3,3,2,-13.9,-4.1,4.62,-1.34,-10.88,-8.23
14.65479290485382,3,3,3,2,-10.42,-2.96,1.33,-11.1,-12.2,-12.8
14.67479288578033,3,3,3,2,-9.81,-2.3,-2.8,-11.33,-9.94,-17.65
14.69479286670685,3,3,3,2,-13.41,1.64,-3.84,-8.119999999999999,-9.630000000000001,-18.68
14.71479284763336,3,3,3,2,-15.1,3.89,-3.09,-1.2,-8.34,-18.33
14.73479306697845,3,3,3,2,-14.29,6.78,-3.36,-1.45,-6.87,-18.88
14.75479304790497,3,3,3,2,-11.23,5.05,-2.35,-3.62,-4.96,-22.93
14.77479302883148,3,3,3,2,-11.36,3.28,-1.98,-2.91,-3.89,-23.12
14.794793009758,3,3,3,2,-12.13,4.82,-2.61,-0.86,-3.44,-22.32
14.81479299068451,3,3,3,2,-11.11,5.2,-3.07,3.28,-2.86,-21.49
14.83479297161102,3,3,3,2,-10.64,5.19,-2.93,3.57,-2.91,-22.37
14.85479295253754,3,3,3,2,-8.74,4.93,-2.6,3.8,-2.8,-22.87
14.87479293346405,3,3,3,2,-8.050000000000001,4.48,-2.52,6.61,-2.77,-21.48
14.89479291439056,3,3,3,2,-7.01,4.33,-2.36,8.449999999999999,-2.53,-20.39
14.91479289531708,3,3,3,2,-6.86,5.03,-2.81,11.07,-1.62,-16.47
14.93479287624359,3,3,3,2,-6.75,4.52,-2.43,11.69,-1.47,-15.01
14.9547928571701,3,3,3,2,-5.94,4.62,-2.65,15.35,-0.11,-9.970000000000001
14.9747930765152,3,3,3,2,-5.28,5.19,-2.52,12.7,0.66,-8.369999999999999
14.99479305744171,3,3,3,2,-4.72,5.04,-2.25,11.16,0.89,-7.36
15.01479303836823,3,3,3,2,-4.25,4.52,-2.35,5.28,3.77,-4.67
15.03479301929474,3,3,3,2,-4.33,2.86,-2.03,2.46,4.25,-3.85
15.05479300022125,3,3,3,2,-5.34,-0.77,-1.77,-4.86,7.93,-0.93
15.07479298114777,3,3,3,2,-7.46,-3.29,-1.48,-1.45,10.77,-0.09
15.09479296207428,3,3,3,2,-11.39,-5.85,1.39,2.85,9.15,-0.09
15.11479294300079,3,3,3,2,-13.74,-11.91,4.66,14.04,3.43,-2.3
15.13479292392731,3,3,3,2,-14.97,-16.53,3.66,14.72,-0.09,-2.05
15.15479290485382,3,3,3,2,-12.73,-11.14,4.27,7.32,-6.31,-2.8
15.17479288578033,3,3,3,2,-10.34,-1.73,0.78,6.55,-1.69,-3.17
15.19479286670685,3,3,3,2,-6.82,1.15,-3.95,5.46,0.67,-3.67
15.21479284763336,3,3,3,2,-8.81,-1.44,-2.13,-9.44,7.25,4.6
15.23479306697845,3,3,3,2,-16.11,-13.18,6.88,-3.57,2.79,5.08
15.25579297542572,3,3,3,2,-15.15,-2.98,1.61,12.46,4.79,9.6
15.27479302883148,3,3,3,2,-9.32,12.75,-2.47,9.640000000000001,8.449999999999999,9.539999999999999
15.294793009758,3,3,3,2,-6.75,8.85,-6.99,2.48,9.109999999999999,10.14
15.31579291820526,3,3,3,2,-9.68,1.51,-6.54,-4.42,8.789999999999999,11.55
15.33479297161102,3,3,3,2,-8.83,0.83,-5.36,-2.18,7.79,13.57
15.35479295253754,3,3,3,2,-9.32,3.44,-3.42,3.88,8.470000000000001,13.98
15.3757928609848,3,3,3,2,-9.68,2.65,-2.08,3.23,7.38,14.24
15.3957930803299,3,3,3,2,-10.44,2.52,-1.16,3.02,7.14,14.59
15.41579306125641,3,3,3,2,-9.390000000000001,2.74,-2.48,0.39,6.89,14.33
15.43579304218292,3,3,3,2,-9.039999999999999,1.67,-3.38,-0.44,6.76,13.96
15.45579302310944,3,3,3,2,-8.69,0.97,-3.97,-2.44,6.7,13.28
15.47579300403595,3,3,3,2,-8.85,0.19,-3.21,-4.64,5.06,12.84
15.49579298496246,3,3,3,2,-9.140000000000001,0.08,-2.43,-6.62,4.27,12.76
15.51579296588898,3,3,3,2,-9.73,-0.67,-2.78,-12.95,2.7,13.95
15.53579294681549,3,3,3,2,-9.18,-3.84,-3.15,-16.06,1.94,13.84
15.555792927742,3,3,3,2,-9.49,-4.24,-1.07,-13.14,5.51,9.970000000000001
15.57579290866852,3,3,3,2,-10.53,-1.9,-2.57,-8.640000000000001,6.04,6.09
15.59579288959503,3,3,3,2,-10.29,1.8,-3.18,-7.02,4.6,4.49
15.61579287052155,3,3,3,2,-8.539999999999999,2.18,-2.75,-7.06,1.75,5.13
15.63579285144806,3,3,3,2,-8.380000000000001,1.83,-2.25,-7.11,1.53,5.83
15.65579307079315,3,3,3,2,-8.92,1.43,-2.38,-8.33,3.67,6.47
15.67579305171967,3,3,3,2,-9.050000000000001,1.75,-2.87,-9.41,3.86,5.82
15.69579303264618,3,3,3,2,-8.970000000000001,1.88,-3.02,-9.32,3.37,5.65
15.71579301357269,3,3,3,2,-9.06,2,-2.51,-7.55,2.26,6.33
15.73579299449921,3,3,3,2,-8.960000000000001,2,-2.35,-6.79,2.38,6.67
15.75579297542572,3,3,3,2,-9.31,2.14,-2.27,-5.3,3.55,7.38
15.77579295635223,3,3,3,2,-9.77,1.5,-2.43,-5.61,3.22,7.69
15.79579293727875,3,3,3,2,-9.880000000000001,0.86,-2.54,-6.09,2.8,7.71
15.81579291820526,3,3,3,2,-10.05,0.14,-2.02,-5.24,2,7.55
15.83579289913177,3,3,3,2,-9.81,0.26,-1.93,-4.87,1.93,7.35
15.85579288005829,3,3,3,2,-10.07,0.6,-2.31,-5.54,1.26,6.58
15.8757928609848,3,3,3,2,-10.66,0.93,-1.84,-4.67,0.25,5.46
15.8957930803299,3,3,3,2,-11.02,0.99,-2.16,-5.24,0.51,4.87
15.91579306125641,3,3,3,2,-12.39,-0.32,-2.57,-8.82,2.07,3.33
15.93579304218292,3,3,3,2,-12.99,-2.09,-1.01,-9.220000000000001,1.67,2.9
15.95579302310944,3,3,3,2,-12.88,-4.74,0.57,-7.91,-2.4,0.33
15.97579300403595,3,3,3,2,-14.97,-7.95,1.07,-6.61,-5.53,-3.56
15.99579298496246,3,3,3,2,-15.05,-6.77,1.97,-2.87,-7.42,-6.11
16.01579296588898,3,3,3,2,-9.9,-5.82,0.15,-8.24,-11.33,-13
16.03579294681549,3,3,3,2,-9.74,-5.5,-1.71,-10.18,-9.960000000000001,-14.76
16.055792927742,3,3,3,2,-14.86,0.76,-4.41,-0.92,-8.66,-19.23
16.07579290866852,3,3,3,2,-16.56,3.34,-4.21,5.23,-8.859999999999999,-18.65
16.09579288959503,3,3,3,2,-16.12,6.97,-4.26,6.06,-7.55,-19.65
16.11579287052155,3,3,3,2,-11.41,4.77,-2.43,1.2,-5.93,-21.97
16.13579285144806,3,3,3,2,-11.86,4.41,-2.11,0.31,-4.42,-23.2
16.15579307079315,3,3,3,2,-11.91,6.02,-2.89,2.27,-3.25,-22.15
16.17579305171967,3,3,3,2,-10.56,6.26,-3.29,3.9,-2.8,-21.78
16.19579303264618,3,3,3,2,-10.63,5.69,-3.36,3.27,-2.44,-22.95
16.21579301357269,3,3,3,2,-9.32,4.03,-2.95,4.53,-2.99,-23.21
16.23579299449921,3,3,3,2,-8.710000000000001,4.22,-2.96,6.41,-2.62,-21.69
16.25579297542572,3,3,3,2,-7.4,3.88,-2.82,10.66,-2.5,-19.9
16.27579295635223,3,3,3,2,-6.58,5.55,-2.76,14.71,-2.63,-18.08
16.29579293727875,3,3,3,2,-6.34,5.86,-2.63,15.72,-2.27,-15.63
16.31579291820526,3,3,3,2,-4.98,5.82,-2.96,15,-1.17,-11.54
16.33579289913177,3,3,3,2,-5.12,5.52,-3,12.65,0.36,-8.77
16.35579288005829,3,3,3,2,-5.14,4.64,-2.62,10.56,1.27,-6.63
16.3757928609848,3,3,3,2,-4.51,4.94,-1.72,9.51,2.15,-4.55
16.39679300785065,3,3,3,2,-4.49,2.47,-1.4,5.77,3.84,-2.61
16.41679298877716,3,3,3,2,-5.48,-0.53,-1.23,0.01,5.39,-0.68
16.43679296970367,3,3,3,2,-9.66,-3.54,0.5,2.56,7.77,0.17
16.45679295063019,3,3,3,2,-11.91,-8.119999999999999,2.24,8.630000000000001,6.18,-0.53
16.4767929315567,3,3,3,2,-13.83,-13.52,5.36,13.3,4.31,-3.96
16.49679291248322,3,3,3,2,-15.63,-19.86,3.84,9.130000000000001,-4.4,-4.69
16.51679289340973,3,3,3,2,-11.88,-6.04,2.36,0.79,-6.15,-5.92
16.53679287433624,3,3,3,2,-9.02,1.44,-0.49,1.23,-0.34,-5.61
16.55679285526276,3,3,3,2,-6,0.1,-2.87,-1.42,7.07,-8.42
16.57679307460785,3,3,3,2,-4.79,2.16,-2.95,-15.41,8.539999999999999,6.87
16.59679305553436,3,3,3,2,-17.88,-15.93,5.75,6.66,-3.03,6.5
16.61679303646088,3,3,3,2,-17.22,-7.51,0.98,16.27,4.53,6.55
16.63679301738739,3,3,3,2,-10.51,12.67,-0.32,17.43,1.92,11.27
16.6567929983139,3,3,3,2,-7.83,9.59,-7.89,5.86,10.51,10.57
16.67679297924042,3,3,3,2,-6.22,3.86,-6.93,-2.63,11.94,12.45
16.69679296016693,3,3,3,2,-8.34,1.88,-6.51,-3.16,9.779999999999999,14.63
16.71679294109344,3,3,3,2,-9.390000000000001,2.83,-3.99,0.99,7.63,13.96
16.73679292201996,3,3,3,2,-9.66,1.8,-2.39,2.93,6.9,13.94
16.75679290294647,3,3,3,2,-10.45,1.86,-1.36,3.82,6.72,14.76
16.77679288387299,3,3,3,2,-9.27,1.55,-2.54,3.43,6.93,14.13
16.7967928647995,3,3,3,3,-8.82,0.46,-3.27,2.03,6.13,13.59
16.81679308414459,3,3,3,3,-8.699999999999999,-0.03,-3.97,1.38,6.85,13.04
16.83679306507111,3,3,3,3,-9.220000000000001,0.12,-2.86,0.95,5.75,12.5
16.85679304599762,3,3,3,3,-9.25,1.83,-1.91,-1.94,4.45,12.53
16.87679302692413,3,3,3,3,-9.91,1.03,-1.82,-8.66,4.1,12.74
16.89679300785065,3,3,3,3,-9.52,-2.46,-2.26,-12.97,4.2,12.17
16.91679298877716,3,3,3,3,-9.15,-2.96,-2.34,-13.94,5.49,11.74
16.93679296970367,3,3,3,3,-9.699999999999999,-1.28,-2.87,-13.27,7.96,10.31
16.95679295063019,3,3,3,3,-10.01,0.37,-3.73,-9.359999999999999,6.08,8.039999999999999
16.9767929315567,3,3,3,3,-9.630000000000001,2,-2.95,-6.06,2.33,6.15
16.99679291248322,3,3,3,3,-9.32,2.38,-2.38,-6.02,2.23,6.08
17.01679289340973,3,3,3,3,-9.130000000000001,1.53,-2.07,-7.64,3.44,6.56
17.03679287433624,3,3,3,3,-9.15,1.42,-2.32,-8.69,4.64,6.78
17.05679285526276,3,3,3,3,-9.609999999999999,1.27,-2.67,-8.83,4.75,6.61
17.07679307460785,3,3,3,3,-9.539999999999999,0.98,-2.79,-7.76,3.7,6.87
17.09679305553436,3,3,3,3,-9.609999999999999,1.4,-2.75,-5.37,2.5,7.35
17.11679303646088,3,3,3,3,-10.05,2.18,-2.46,-3.72,1.92,7.66
17.13679301738739,3,3,3,3,-9.52,2.43,-2,-4.41,2.07,7.45
17.1567929983139,3,3,3,3,-9.59,1.84,-1.86,-6.78,2.8,7.54
17.17679297924042,3,3,3,3,-9.84,0.18,-1.75,-8.83,3.16,7.65
17.19679296016693,3,3,3,3,-9.26,-1.03,-2.1,-9.130000000000001,3.16,7.52
17.21679294109344,3,3,3,3,-10.09,-1.12,-2.98,-7.17,1.22,7.25
17.23679292201996,3,3,3,3,-11.23,-0.17,-2.61,-3.68,-0.88,6.14
17.25679290294647,3,3,3,3,-13.09,-0.87,-2.01,-4.33,-0.16,4.97
17.27679288387299,3,3,3,3,-13.03,-1.59,-1.67,-5.28,-0.06,2.83
17.2967928647995,3,3,3,3,-13.17,-4.94,0.25,-7.68,-0.71,0.41
17.31679308414459,3,3,3,3,-14.44,-6.78,1.18,-7.34,-4.43,-3.05
17.33679306507111,3,3,3,3,-14.38,-6.46,2.96,-5.72,-8.210000000000001,-8.640000000000001
17.35679304599762,3,3,3,3,-13.03,-4.54,4.29,-8.779999999999999,-10.69,-11.66
17.37679302692413,3,3,3,3,-12.15,-3.12,-1.3,-13.27,-9.369999999999999,-15.28
17.39679300785065,3,3,3,3,-14.45,1.87,-3.33,-6.19,-9.539999999999999,-20.11
17.41679298877716,3,3,3,3,-16.21,4.98,-4.01,-3.37,-8.31,-20.54
17.43779289722443,3,3,3,3,-15.29,6.05,-3.65,-1.39,-6,-21.13
17.45779287815094,3,3,3,3,-12.7,5.49,-1.67,-2.32,-5.11,-23.98
17.47779285907745,3,3,3,3,-12.68,5.61,-2.37,-1.82,-3.47,-25.41
17.49779307842255,3,3,3,3,-11.26,6.05,-2.5,0.66,-2.1,-24.37
17.51779305934906,3,3,3,3,-11.16,4.68,-2.81,1.04,-1.56,-24.59
17.53779304027557,3,3,3,3,-10.12,4.99,-2.89,2.84,-2.44,-25.11
17.55779302120209,3,3,3,3,-8.57,4.86,-2.82,3.45,-3.21,-24.77
17.5777930021286,3,3,3,3,-7.69,4.01,-2.97,5.38,-2.9,-22.59
17.59779298305511,3,3,3,3,-6.58,4.56,-3.33,11.55,-2.33,-19.84
17.61779296398163,3,3,3,3,-6.47,4.58,-3.45,15.18,-1.73,-17.81
17.63779294490814,3,3,3,3,-6.08,6.11,-3.13,18.23,-1.67,-15.2
17.65779292583466,3,3,3,3,-5.35,6.4,-3.27,18.85,-0.99,-11.01
17.67779290676117,3,3,3,3,-4.82,6.18,-3.23,17.04,0.5,-8.039999999999999
17.69779288768768,3,3,3,3,-5,6.12,-3.16,13.77,1.66,-5.3
17.7177928686142,3,3,3,3,-4.22,6.24,-1.9,12.17,1.97,-2.99
17.73779284954071,3,3,3,3,-4.38,3.99,-1.1,7.29,4.15,-1.06
17.7577930688858,3,3,3,3,-6.41,-0.79,-0.84,2.88,6.89,1.2
17.77779304981232,3,3,3,3,-10.02,-3.42,0.55,3.98,7.46,1.72
17.79779303073883,3,3,3,3,-13.75,-9.94,3.85,11.09,6.56,0.38
17.81779301166534,3,3,3,3,-13.91,-11.97,4.48,14.65,6.45,-3.24
17.83779299259186,3,3,3,3,-14.31,-17.99,4.82,9.67,-5.73,-3.34
17.85779297351837,3,3,3,3,-12.5,-9.050000000000001,4.28,2.61,-5.15,-5.1
17.87779295444489,3,3,3,3,-7.52,0.79,-0.95,0.54,-1.52,-6.12
17.8977929353714,3,3,3,3,-6.23,2.15,-2.78,-7.56,10.43,-8.220000000000001
17.91779291629791,3,3,3,3,-17.37,-7.33,11.46,-12.44,5.5,9.050000000000001
17.93779289722443,3,3,3,3,-15.18,-13.63,2.8,1.91,-0.32,5.1
17.95779287815094,3,3,3,3,-11.77,10.2,-1.87,11.31,4.11,9.49
17.97779285907745,3,3,3,3,-8.699999999999999,12.55,-6.58,2.16,5.8,8.380000000000001
17.99779307842255,3,3,3,3,-8.6,6.08,-8.210000000000001,-4.24,11.35,9.17
18.01779305934906,3,3,3,3,-8.779999999999999,0.8,-5.8,-7.32,8.19,13.31
18.03779304027557,3,3,3,3,-8.699999999999999,2.14,-4.77,-1.36,8.359999999999999,14.47
18.05779302120209,3,3,3,3,-9.59,1.62,-3.4,0.5600000000000001,7.48,13.67
18.0777930021286,3,3,3,3,-10.1,1.2,-1.46,2.24,5.92,14.24
18.09779298305511,3,3,3,3,-9.6,2.01,-2.18,2.72,5.9,14.31
18.11779296398163,3,3,3,3,-8.75,1.85,-2.83,1.9,5.65,14.27
18.13779294490814,3,3,3,3,-9.09,0.57,-3.45,0.68,5.96,13.58
18.15779292583466,3,3,3,3,-8.93,0.25,-3.21,-0.75,5.5,12.74
18.17779290676117,3,3,3,3,-8.68,-0.27,-2.42,-2.71,4.11,12.81
18.19779288768768,3,3,3,3,-8.92,-1.53,-2.52,-5.37,4.01,12.88
18.2177928686142,3,3,3,3,-10.09,-1.73,-1.69,-5.51,4.58,12.91
18.23779284954071,3,3,3,3,-10.01,-2.83,-1.38,-7.51,3.88,12.74
18.2577930688858,3,3,3,3,-9.98,-1.93,-0.83,-7.66,5.81,10.46
18.27779304981232,3,3,3,3,-10.02,-1.03,-2.34,-8.35,6.27,8.380000000000001
18.29779303073883,3,3,3,3,-9.119999999999999,1.47,-3.8,-6.45,4.23,7.35
18.31779301166534,3,3,3,3,-9.66,2.58,-3.6,-5.15,2.17,6.74
18.33779299259186,3,3,3,3,-9.24,2.5,-2.46,-5.73,1.36,6.53
18.35779297351837,3,3,3,3,-9.15,2.1,-1.82,-6.44,2.6,6.55
18.37779295444489,3,3,3,3,-9.460000000000001,2.23,-1.7,-7.41,3.91,6.68
18.3977929353714,3,3,3,3,-9.44,2.46,-1.89,-8.199999999999999,4.03,6.34
18.41779291629791,3,3,3,3,-9.289999999999999,1.46,-2.91,-8.31,2.92,6.65
18.43779289722443,3,3,3,3,-9.449999999999999,1.32,-2.87,-5.55,1.98,7.09
18.45879304409027,3,3,3,3,-9.93,1.64,-2.78,-3.45,1.96,7.36
18.47879302501678,3,3,3,3,-9.91,2.05,-2.32,-3.66,2.03,7.18
18.4987930059433,3,3,3,3,-9.4,1.33,-1.84,-6.1,2.09,6.88
18.51879298686981,3,3,3,3,-9.26,0.26,-1.83,-8.039999999999999,2.56,7.18
18.53879296779633,3,3,3,3,-9.92,-0.71,-2.33,-8,2.13,7.17
18.55879294872284,3,3,3,3,-10.69,-0.63,-2.21,-5.62,-0.09,5.89
18.57879292964935,3,3,3,3,-11.06,-0.55,-1.85,-5.08,-0.87,4.08
18.59879291057587,3,3,3,3,-12.08,-1.57,-2.1,-8.390000000000001,0.9,2.46
18.61879289150238,3,3,3,3,-12.97,-3.81,-0.63,-9.130000000000001,0.02,0.48
18.63879287242889,3,3,3,3,-12.89,-5.27,0.73,-8.67,-2.91,-1.73
18.65879285335541,3,3,3,3,-14.36,-8.19,1.85,-8.59,-6.23,-5.67
18.6787930727005,3,3,3,3,-13.19,-5.58,3.79,-5.93,-10.54,-9.27
18.69879305362701,3,3,3,3,-10.44,-5.27,-0.62,-12.48,-10.33,-12.24
18.71879303455353,3,3,3,3,-12.85,-2.74,-3.8,-7.18,-8.66,-17.1
18.73879301548004,3,3,3,3,-15.84,1.89,-4.49,0.05,-9.09,-19.09
18.75879299640656,3,3,3,3,-16.69,5.39,-4.69,4.41,-7.52,-18.83
18.77879297733307,3,3,3,3,-13.9,6.16,-3.32,2.1,-5.7,-20.5
18.79879295825958,3,3,3,3,-12.82,4.78,-1.87,0.25,-4.59,-22.72
18.8187929391861,3,3,3,3,-12.53,5.51,-2.23,1.65,-2.95,-23.25
18.83879292011261,3,3,3,3,-11.35,5.98,-1.92,2.99,-2.3,-23.78
18.85879290103912,3,3,3,3,-11.6,5.6,-2.14,2.91,-2.56,-25.33
18.87879288196564,3,3,3,3,-10.03,4.4,-1.95,3.25,-3.15,-25.69
18.89879286289215,3,3,3,3,-9.17,4.69,-2.12,5.03,-3.07,-24.89
18.91879308223724,3,3,3,3,-8.039999999999999,4.09,-2.31,7.19,-3.29,-23.1
18.93879306316376,3,3,3,2,-7.14,4.7,-2.41,11.35,-3.46,-21.08
18.95879304409027,3,3,3,2,-6.25,5.59,-2.85,12.96,-2.79,-18.25
18.97879302501678,3,3,3,2,-5.15,5.19,-2.87,12.68,-1.93,-14.27
18.9987930059433,3,3,3,2,-4.86,5.48,-3.01,12.79,-0.97,-11.31
19.01879298686981,3,3,3,2,-4.81,5.29,-2.87,12.13,0.03,-8.34
19.03879296779633,3,3,3,2,-4.17,5.78,-2.26,11.34,0.7,-5.65
19.05879294872284,3,3,3,2,-4.06,5.63,-1.89,8.82,1.7,-3.14
19.07879292964935,3,3,3,2,-4.88,0.98,-1.1,3.24,3.33,-0.35
19.09879291057587,3,3,3,2,-5.93,-1.39,-0.68,4.04,6.17,2.73
19.11879289150238,3,3,3,2,-10.62,-3.53,0.57,10.13,6.98,3.86
19.13879287242889,3,3,3,2,-13.85,-8.93,3.27,14.41,3.94,0.38
19.15879285335541,3,3,3,2,-15.75,-14.58,5,14.65,4.24,-3.18
19.1787930727005,3,3,3,2,-14.92,-18.55,5.11,5.96,-9.119999999999999,-4.53
19.19879305362701,3,3,3,2,-10.98,-3.56,2.09,-2.97,-2.18,-6.2
19.21879303455353,3,3,3,2,-7.38,-1.12,-0.19,-3.82,0.57,-7.1
19.23879301548004,3,3,3,2,-2.2,4.6,-5.04,-13.86,16.51,-6.42
19.25879299640656,3,3,3,2,-10.61,-0.71,3.11,-8.130000000000001,7.61,11.25
19.27879297733307,3,3,3,2,-16.54,-14.85,6.46,7.14,-5.48,4.67
19.29879295825958,3,3,3,2,-15.75,-0.75,-2.17,18.15,5.35,8.92
19.3187929391861,3,3,3,2,-12.32,10.4,0.91,9,3.28,10.41
19.33879292011261,3,3,3,2,-6.46,8.4,-8.99,4.46,11.5,10.98
19.35879290103912,3,3,3,2,-7.15,-0.37,-6.82,-5,12.52,12.84
19.37879288196564,3,3,3,2,-8.76,0.88,-4.89,2.08,8.82,14.03
19.39879286289215,3,3,3,2,-8.84,2.31,-3.6,4.11,7.66,13.18
19.41879308223724,3,3,3,2,-9.68,2.38,-2.04,4.28,6.9,13.19
19.43879306316376,3,3,3,2,-10.81,2.74,-1.3,2.84,7.22,13.84
19.45879304409027,3,3,3,2,-9.48,3.1,-2.37,1.01,6.98,13.36
19.47979295253754,3,3,3,2,-9.039999999999999,1.19,-3.18,-0.79,6.42,12.89
19.49979293346405,3,3,3,2,-8.66,0.95,-4.07,-1.79,6.73,12.38
19.51979291439056,3,3,3,2,-8.93,0.86,-3.34,-2.19,5.47,11.92
19.53979289531708,3,3,3,2,-9.17,1.36,-1.92,-4.54,4.79,11.9
19.55979287624359,3,3,3,2,-9.449999999999999,0.53,-2.14,-9.02,4.94,12.01
19.5797928571701,3,3,3,2,-9.369999999999999,-2.55,-2.32,-14.26,3.87,11.89
19.5997930765152,3,3,3,2,-9.52,-2.57,-2.19,-12.22,4.58,12.08
19.61979305744171,3,3,3,2,-9.91,-2.64,-1.67,-11.67,5.84,11.65
19.63979303836823,3,3,3,2,-9.74,-1.61,-1.86,-11.21,6.35,9.44
19.65979301929474,3,3,3,2,-9.74,1.07,-3.56,-7.94,4.38,6.82
19.67979300022125,3,3,3,2,-9.890000000000001,1.77,-3.29,-6.78,2.82,5.33
19.69979298114777,3,3,3,2,-8.800000000000001,1.58,-2.42,-6.75,2.05,5.73
19.71979296207428,3,3,3,2,-9.140000000000001,1.6,-2.33,-6.72,3.12,6.11
19.73979294300079,3,3,3,2,-9.640000000000001,1.94,-2.05,-7.8,3.72,6.38
19.75979292392731,3,3,3,2,-9.31,2.02,-2.39,-9.23,3.78,6.12
19.77979290485382,3,3,3,2,-8.83,1.29,-2.69,-9,3.03,6.35
19.79979288578033,3,3,3,2,-9.51,1.52,-2.41,-6.18,2.68,7.24
19.81979286670685,3,3,3,2,-10.29,1.68,-2.45,-5.32,2.58,8
19.83979284763336,3,3,3,2,-10.74,1.29,-2.12,-6.32,2.47,7.99
19.85979306697845,3,3,3,2,-10.14,-0.22,-1.6,-6.9,2.12,7.64
19.87979304790497,3,3,3,2,-9.69,-1.18,-1.8,-6.8,1.89,7.45
19.89979302883148,3,3,3,2,-10.69,-1.02,-2.28,-5.08,-0.15,6.42
19.919793009758,3,3,3,2,-11.8,-0.61,-1.59,-3.41,-1.3,4.72
19.93979299068451,3,3,3,2,-12.72,-1.55,-1.47,-6.49,-0.14,2.92
19.95979297161102,3,3,3,2,-13.64,-3.07,-0.48,-8.529999999999999,-0.68,0.8100000000000001
19.97979295253754,3,3,3,2,-13.49,-6.09,1.94,-8.970000000000001,-3.66,-2.07
19.99979293346405,3,3,3,3,-14.18,-8.19,3.18,-9.92,-6.59,-6.78
20.01979291439056,3,3,3,3,-13.42,-3.19,4.4,-8.890000000000001,-11.1,-10.06
20.03979289531708,3,3,3,3,-10.17,-4.75,-0.54,-17.53,-10.38,-13.33
20.05979287624359,3,3,3,3,-13.79,-1.89,-4.8,-3.38,-9.789999999999999,-19.31
20.0797928571701,3,3,3,3,-16.94,1.74,-4.42,-0.2,-9.52,-18.89
20.0997930765152,3,3,3,3,-17.13,6.96,-4.87,3.36,-7.1,-19.77
20.11979305744171,3,3,3,3,-13.36,6.44,-3.74,3.81,-5.91,-22.73
20.13979303836823,3,3,3,3,-11.64,4.65,-1.77,4.02,-5.24,-23.76
20.15979301929474,3,3,3,3,-12.63,5.7,-2.35,4.92,-3.15,-22.36
20.17979300022125,3,3,3,3,-10.82,6.9,-2.55,3.95,-2.59,-22.75
20.19979298114777,3,3,3,3,-8.880000000000001,6.2,-2.86,0.93,-2.15,-24.49
20.21979296207428,3,3,3,3,-8.960000000000001,4.53,-3.14,-0.54,-1.3,-24.04
20.23979294300079,3,3,3,3,-8.029999999999999,2.6,-3.05,0.61,-1.2,-23.42
20.25979292392731,3,3,3,3,-7.44,2.4,-3.25,10.82,-0.79,-20.81
20.27979290485382,3,3,3,3,-7.17,4.03,-3.29,13.98,-0.84,-20
20.29979288578033,3,3,3,3,-6.88,4.85,-3.14,16.64,-1.17,-16.48
20.31979286670685,3,3,3,3,-5.96,5.26,-3.3,14.86,-0.19,-13.6
20.33979284763336,3,3,3,3,-5.75,4.92,-3.17,13.6,0.45,-12.28
20.35979306697845,3,3,3,3,-5.79,4.36,-3.3,11.08,2.29,-8.460000000000001
20.37979304790497,3,3,3,3,-5.86,4.84,-2.58,10.4,2.05,-7.07
20.39979302883148,3,3,3,3,-5.4,4.74,-1.16,8.24,1.4,-3.29
20.419793009758,3,3,3,3,-5.03,4.76,-0.68,4.97,3.34,-0.76
20.43979299068451,3,3,3,3,-5.18,2.01,-0.4,2.82,5.28,0.68
20.45979297161102,3,3,3,3,-5.88,0.2,-1.12,1.22,11.63,4.04
20.47979295253754,3,3,3,3,-10.11,-4.67,-0.35,1.32,12.94,3.17
20.5007928609848,3,3,3,3,-12.47,-11.15,1.81,7.2,12.51,-4.39
20.5207930803299,3,3,3,3,-16.19,-17.37,5.28,8.94,-0.74,-4.39
20.54079306125641,3,3,3,3,-16.74,-20.51,5.42,7.95,-8.09,-4.85
20.56079304218292,3,3,3,3,-10.99,-3.22,1.4,4.96,-2.35,-3.42
20.58079302310944,3,3,3,2,-6.72,1.32,-2.24,4.94,0.26,-4.56
20.60079300403595,3,3,3,2,-6.09,3.45,-4.45,-9.949999999999999,7.5,9.380000000000001
20.62079298496246,3,3,3,2,-15.94,-12.28,7.86,10.86,-4.43,5.34
20.64079296588898,3,3,3,2,-17.99,-10.55,2.58,15.14,-1.66,6.2
20.66079294681549,3,3,3,2,-12.77,10.19,-2.56,13.31,6.44,10.32
20.680792927742,3,3,3,2,-6.87,12.57,-9.109999999999999,3.75,12.46,9.44
20.70079290866852,3,3,3,2,-7.43,5.14,-8.77,-6.55,9.119999999999999,12.26
20.72079288959503,3,3,3,2,-9.18,2.12,-5.74,1.81,8.02,14.81
20.74079287052155,3,3,3,2,-9.390000000000001,6.05,-4.81,2.11,8.01,14.62
20.76079285144806,3,3,3,2,-9.76,3.36,-2.53,-0.59,6.65,13.85
20.78079307079315,3,3,3,2,-10.78,2.22,-0.85,-1.15,6.61,14.01
20.80079305171967,3,3,3,2,-9.460000000000001,3.1,-2.97,-2.75,6.27,13.65
20.82079303264618,3,3,3,2,-8.890000000000001,1.76,-3.79,-3.71,6.19,13
20.84079301357269,3,3,3,1,-8.550000000000001,0.75,-4.92,-3.74,6.24,12.83
20.86079299449921,3,3,3,1,-8.66,0.54,-4.36,-6.39,4.3,11.93
20.88079297542572,3,3,3,1,-9.26,1.11,-2.23,-8.65,3.61,12.01
20.90079295635223,3,3,3,1,-9.51,-1.03,-2.57,-18.27,2.61,13.11
20.92079293727875,3,3,3,1,-9.4,-3.73,-3.33,-17.59,4.01,12.98
20.94079291820526,3,3,3,1,-9.91,-5.17,-1.12,-16.06,5.13,12.41
20.96079289913177,3,3,3,1,-10.07,-3.51,-1.24,-11.5,6.56,7.33
20.98079288005829,3,3,3,1,-10.87,0.1,-3.79,-9.449999999999999,4.75,5.11
21.0007928609848,3,3,3,1,-9.9,0.99,-3.47,-4.94,-0.09,4.36
21.0207930803299,3,3,3,1,-8.640000000000001,2.91,-2.64,-5.95,0.42,5.98
21.04079306125641,3,3,3,1,-8.51,2.04,-1.85,-6.56,1.56,6.47
21.06079304218292,3,3,3,1,-8.84,1.87,-1.98,-9.619999999999999,4.62,6.39
21.08079302310944,3,3,3,1,-8.869999999999999,2.25,-2.31,-10.52,4.74,6.14
21.10079300403595,3,3,3,1,-9.289999999999999,1.43,-2.86,-8.699999999999999,2.53,7.07
21.12079298496246,3,3,3,1,-9.68,1.46,-2.56,-5.29,1.66,7.76
21.14079296588898,3,3,3,1,-9.720000000000001,1.54,-2.57,-4.15,2,7.97
21.16079294681549,3,3,3,1,-9.869999999999999,2.14,-2.24,-4.41,2.62,7.78
21.180792927742,3,3,3,1,-9.779999999999999,1.77,-1.95,-5.49,2.52,7.89
21.20079290866852,3,3,3,1,-9.789999999999999,0.09,-1.81,-7.6,2.47,8.65
21.22079288959503,3,3,3,1,-10.2,-0.84,-2.06,-6.4,1.69,8.609999999999999
21.24079287052155,3,3,3,1,-10.38,-0.9399999999999999,-2.33,-5.54,0.82,8.24
21.26079285144806,3,3,3,1,-11.56,-0.15,-1.45,-3.23,-1.29,5.51
21.28079307079315,3,3,3,1,-11.71,-0.26,-1.31,-4.2,-0.9,4.55
21.30079305171967,3,3,3,1,-13.58,-2.49,-0.24,-7.89,0.06,1.75
21.32079303264618,3,3,3,1,-13.74,-5.57,1.5,-8.619999999999999,-3.34,-0.86
21.34079301357269,3,3,3,1,-13.68,-6.71,2.13,-8.57,-6.81,-5.42
21.36079299449921,3,3,3,1,-12.73,-4.95,3.64,-5.37,-11.54,-10.75
21.38079297542572,3,3,3,1,-11.04,-5.91,2.74,-8.94,-11.72,-12.37
21.40079295635223,3,3,3,1,-13.33,-2.67,-4.8,-7.98,-9.199999999999999,-18.03
21.42079293727875,3,3,3,1,-16.55,0.58,-4.48,1.28,-9.609999999999999,-19.23
21.44079291820526,3,3,3,1,-18.07,5.64,-4.76,7.39,-8.98,-18.32
21.46079289913177,3,3,3,1,-14.64,7.67,-4.07,5.54,-7.88,-20.2
21.48079288005829,3,3,3,1,-12.57,6.73,-3.73,2.68,-6.33,-23.2
21.5007928609848,3,3,3,1,-13.1,4.61,-2.38,3.54,-4.59,-23.53
21.52179300785065,3,3,3,1,-11.25,6.52,-2.9,4.99,-3.4,-23.23
21.54179298877716,3,3,3,1,-10.56,6.53,-2.97,4.25,-2.94,-24.8
21.56179296970367,3,3,3,1,-9.51,4.71,-3.06,2.84,-3.11,-25.15
21.58179295063019,3,3,3,1,-8.789999999999999,3.9,-3.16,3.69,-2.6,-24.32
21.6017929315567,3,3,3,1,-7.56,3.29,-3.32,6.34,-2.11,-22.24
21.62179291248322,3,3,3,1,-7.22,3.89,-3.22,12.32,-1.66,-20.45
21.64179289340973,3,3,3,1,-6.25,5.42,-3.04,15.5,-1.93,-18.55
21.66179287433624,3,3,3,1,-6.13,5.42,-3.11,15.41,-1.09,-15.52
21.68179285526276,3,3,3,1,-5.28,5.15,-3.12,13.96,0.14,-11.97
21.70179307460785,3,3,3,1,-5.3,5.19,-3.24,11.83,1.44,-9.41
21.72179305553436,3,3,3,1,-5.51,5.41,-2.52,9.34,1.39,-7.12
21.74179303646088,3,3,3,1,-4.98,5.75,-1.72,8.119999999999999,0.9,-4.43
21.76179301738739,3,3,3,1,-3.97,5.54,-1.29,4.12,2.04,-2.26
21.7817929983139,3,3,3,1,-4.31,2.3,-1.06,-0.48,6.28,0.74
21.80179297924042,3,3,3,1,-6.6,-1.77,-2.23,0.24,11.84,3.54
21.82179296016693,3,3,3,1,-11.24,-5.91,-0.58,4.71,13.6,1.41
21.84179294109344,3,3,3,1,-15.38,-13.6,5.9,12.32,11.39,-3.47
21.86179292201996,3,3,3,1,-17.57,-19.45,5.36,14.63,-3.85,-4.28
21.88179290294647,3,3,3,1,-13.69,-13.95,5.16,5.52,-8.859999999999999,-3.79
21.90179288387299,3,3,3,1,-9.16,1.62,0.63,6.11,-4.35,-4.93
21.9217928647995,3,3,3,1,-7.38,1.09,-3.45,0.18,5.88,-9.26
21.94179308414459,3,3,3,1,-10.73,-4.5,5.08,-21.52,8.470000000000001,7.06
21.96179306507111,3,3,3,1,-15.61,-13.04,3.76,0.79,-1.26,4.2
21.98179304599762,3,3,3,1,-12.52,6.61,-2.07,14.51,4.84,9.06
22.00179302692413,3,3,3,1,-9.460000000000001,12.96,-4.46,5.67,5.85,10.34
22.02179300785065,3,3,3,1,-8.289999999999999,4.88,-10.47,-3.27,10.23,9.25
22.04179298877716,3,3,3,1,-10.06,0.1,-5.76,-3.93,7.08,12.79
22.06179296970367,3,3,3,1,-9.609999999999999,3.11,-4.45,6.16,8.65,16.27
22.08179295063019,3,3,3,1,-9.43,3.92,-2.78,5.48,7.74,15.31
22.1017929315567,3,3,3,1,-9.470000000000001,2.67,-2.16,2.72,7.41,14.38
22.12179291248322,3,3,3,1,-9.66,2.06,-2.15,0.64,6.59,13.6
22.14179289340973,3,3,3,2,-9.18,0.97,-2.61,-0.5600000000000001,6.34,13.53
22.16179287433624,3,3,3,2,-8.949999999999999,0.9399999999999999,-3.01,-1.47,5.96,12.86
22.18179285526276,3,3,3,2,-9.130000000000001,0.3,-3.31,-3.73,5.91,12.1
22.20179307460785,3,3,3,2,-9.31,-0.04,-2.95,-5.57,5.37,11.49
22.22179305553436,3,3,3,2,-9.41,0.03,-2.08,-7.54,4.5,11.6
22.24179303646088,3,3,3,2,-9.44,-1.02,-2.04,-9.01,4.43,11.61
22.26179301738739,3,3,3,2,-9.470000000000001,-2.81,-2.44,-11.29,3.21,10.55
22.2817929983139,3,3,3,2,-9.68,-3.96,-2.39,-12.05,1.37,10.65
22.30179297924042,3,3,3,2,-9.960000000000001,-2.61,-2.28,-9.98,3.1,10.39
22.32179296016693,3,3,3,2,-9.85,-1.56,-2.04,-9.390000000000001,3.44,9.41
22.34179294109344,3,3,3,2,-9.67,0.3,-2.57,-8.27,2.96,8.609999999999999
22.36179292201996,3,3,3,2,-9.460000000000001,1.18,-2.98,-6.91,2.11,7.25
22.38179290294647,3,3,3,2,-9.279999999999999,2.57,-2.2,-7.57,2.42,5.86
22.40179288387299,3,3,3,2,-9.130000000000001,2.56,-2.09,-8.32,2.79,5.8
22.4217928647995,3,3,3,2,-8.779999999999999,1.85,-1.94,-9.949999999999999,3.44,5.94
22.44179308414459,3,3,3,3,-8.949999999999999,1.57,-2.53,-10.38,3.61,6.32
22.46179306507111,3,3,3,3,-9.34,1.89,-2.98,-8.380000000000001,2.86,6.97
22.48179304599762,3,3,3,3,-9.84,1.7,-2.65,-4.96,1.67,8.109999999999999
22.50179302692413,3,3,3,3,-10.33,1.39,-2.34,-4.88,1.96,8.17
22.52179300785065,3,3,3,3,-10.05,0.9,-2,-5.86,2.62,7.93
22.54179298877716,3,3,3,3,-9.83,-0.37,-1.64,-7.26,2.63,7.79
22.56279289722443,3,3,3,3,-10.05,-1.26,-2.08,-7.7,2.15,8.06
22.58279287815094,3,3,3,3,-11.46,-1.39,-2.06,-5.94,0.22,7.28
22.60279285907745,3,3,3,3,-12.07,-1.25,-1.55,-3.2,-1.42,5.36
22.62279307842255,3,3,3,3,-13.02,-2.18,-0.99,-5.17,-0.87,3.4
22.64279305934906,3,3,3,3,-13.24,-4.13,0.14,-6.59,-0.9399999999999999,1.69
22.66279304027557,3,3,3,3,-12.73,-5.88,1.6,-7.96,-3.68,-0.66
22.68279302120209,3,3,3,3,-15.38,-7.11,4.15,-9.02,-6.04,-4.46
22.7027930021286,3,3,3,3,-13.36,-4.65,4.09,-6.6,-11.32,-8.23
22.72279298305511,3,3,3,3,-9.93,-4.98,-2.8,-12.49,-12.04,-11.35
22.74279296398163,3,3,3,3,-12.9,-2.19,-5.19,-10.57,-9.699999999999999,-17.75
22.76279294490814,3,3,3,3,-17.56,3.38,-4.88,-0.6899999999999999,-9.35,-20.05
22.78279292583466,3,3,3,3,-17.76,6.85,-5.3,4.43,-8.109999999999999,-18.4
22.80279290676117,3,3,3,3,-12.3,6.32,-3.38,4.44,-6.39,-19.76
22.82279288768768,3,3,3,3,-11.62,5.08,-1.98,3.79,-5.33,-23.6
22.8427928686142,3,3,3,3,-12.48,5.79,-2.67,3.49,-3.57,-24.1
22.86279284954071,3,3,3,3,-10.21,7.07,-2.7,6.18,-2.74,-22.42
22.8827930688858,3,3,3,3,-9.56,6.14,-3.06,3.81,-2.21,-23.22
22.90279304981232,3,3,3,3,-8.66,4.27,-3.29,1.07,-2.2,-24.36
22.92279303073883,3,3,3,3,-8.029999999999999,2.68,-3.05,1.36,-1.47,-23.52
22.94279301166534,3,3,3,3,-7.07,2.67,-3.01,6.72,-0.89,-21.35
22.96279299259186,3,3,3,3,-6.91,3.56,-3.15,13.44,-0.6899999999999999,-19.52
22.98279297351837,3,3,3,3,-6.68,4.57,-2.77,17.06,-0.9,-17.51
23.00279295444489,3,3,3,3,-5.88,5.22,-2.68,18.75,-1,-13.99
23.0227929353714,3,3,3,3,-5.56,5.44,-2.65,17.87,-0.36,-11.39
23.04279291629791,3,3,3,3,-5.62,5.15,-2.34,15.25,1.15,-9.4
23.06279289722443,3,3,3,3,-5.72,5.35,-2.49,11.73,2.18,-6.87
23.08279287815094,3,3,3,3,-5.32,4.71,-1.55,7.81,1.86,-4.32
23.10279285907745,3,3,3,3,-4.8,4.38,-1.14,4.24,1.94,-2.12
23.12279307842255,3,3,3,3,-5.26,1.18,-1.4,-0.8100000000000001,5.19,-0.33
23.14279305934906,3,3,3,3,-6.87,-0.6899999999999999,-1.62,-2.12,10.77,1.84
23.16279304027557,3,3,3,3,-10.86,-7.66,0.84,-1.05,13.14,1.67
23.18279302120209,3,3,3,3,-13.33,-12.63,3.78,1.32,15.3,-2.44
23.2027930021286,3,3,3,3,-17.17,-20.76,3.69,6.09,10.35,-4.73
23.22279298305511,3,3,3,3,-14.99,-16.69,4.84,5.67,-7.16,-5.8
23.24279296398163,3,3,3,2,-9.300000000000001,0.13,0.29,3.49,-4.57,-3.85
23.26279294490814,3,3,3,2,-6.7,1.51,-4.04,5.52,-0.17,-4.51
23.28279292583466,3,3,3,2,-10.42,-4.33,0.02,-5.72,9.890000000000001,2.2
23.30279290676117,3,3,3,2,-16.64,-16.75,5.32,5.87,-1.4,8.52
23.32279288768768,3,3,3,2,-14.82,1.23,-1.11,18.18,-0.31,8.380000000000001
23.3427928686142,3,3,3,2,-7.46,14.96,-5.45,21.75,2.4,11.49
23.36279284954071,3,3,3,2,-7.17,8.449999999999999,-9.74,2.6,13.16,10.3
23.3827930688858,3,3,3,2,-8.94,0.53,-5.72,-4.61,10.62,10.91
23.40279304981232,3,3,3,2,-9.15,2.49,-5.61,-3.94,7.94,13.51
23.42279303073883,3,3,3,2,-9.359999999999999,3.4,-3.08,1.77,7.57,13.9
23.44279301166534,3,3,3,2,-10.11,2.88,-1.65,1.97,6.98,13.43
23.46279299259186,3,3,3,2,-10.24,2.37,-2.6,1.79,6.22,14.07
23.48279297351837,3,3,3,1,-9.050000000000001,2.12,-3.54,1.51,6.46,13.93
23.50279295444489,3,3,3,1,-8.630000000000001,1.41,-4.23,0.99,5.76,14.01
23.5227929353714,3,3,3,1,-8.550000000000001,0.75,-4.41,-0.88,6.4,13.44
23.54279291629791,3,3,3,1,-9.119999999999999,1.16,-2.98,-3.38,5.31,12.56
23.56379306316376,3,3,3,1,-9.43,0.01,-2.01,-7.74,3.83,12.64
23.58379304409027,3,3,3,1,-9.25,-2.22,-2.1,-11.87,3.44,12.97
23.60379302501678,3,3,3,1,-9.029999999999999,-4.45,-3.04,-15.01,3.5,13.1
23.6237930059433,3,3,3,1,-9.970000000000001,-3.57,-0.77,-13.4,6.29,11.96
23.64379298686981,3,3,3,1,-10.91,-1.44,-2.76,-10.31,7.35,8.970000000000001
23.66379296779633,3,3,3,1,-10.05,1.61,-3.78,-6.59,3.96,5.44
23.68379294872284,3,3,3,1,-9.050000000000001,2.11,-2.96,-5.15,0.45,4.57
23.70379292964935,3,3,3,1,-8.380000000000001,1.57,-2.15,-5.87,1.26,5.42
23.72379291057587,3,3,3,1,-8.800000000000001,1.81,-1.81,-7.2,2.97,6.17
23.74379289150238,3,3,3,1,-9.1,2.04,-2.28,-8.789999999999999,4.71,5.93
23.76379287242889,3,3,3,1,-9.25,1.98,-3.02,-9.93,4.55,5.87
23.78379285335541,3,3,3,1,-9.32,1.83,-2.97,-8.41,2.91,6.37
23.8037930727005,3,3,3,1,-9.43,1.75,-2.74,-6.03,1.74,7.1
23.82379305362701,3,3,3,1,-9.640000000000001,1.64,-2.05,-4.65,1.83,7.33
23.84379303455353,3,3,3,1,-9.81,1.66,-1.84,-5.3,2.57,7.14
23.86379301548004,3,3,3,1,-9.91,0.39,-2.03,-7.51,3.05,6.82
23.88379299640656,3,3,3,1,-9.67,-0.25,-2.13,-8.52,2.99,6.78
23.90379297733307,3,3,3,1,-9.92,-0.71,-2.72,-8.1,2.45,7.1
23.92379295825958,3,3,3,1,-11.04,-0.59,-2.55,-6.19,0.48,6.95
23.9437929391861,3,3,3,1,-11.26,-0.24,-2.02,-3.98,-1.28,5.26
23.96379292011261,3,3,3,1,-12.45,-0.7,-1.7,-5.9,0.26,3.52
23.98379290103912,3,3,3,1,-13.13,-1.69,-0.61,-7.48,0.79,2.1
24.00379288196564,3,3,3,1,-12.67,-4.52,0.67,-9.1,-1.09,0.8100000000000001
24.02379286289215,3,3,3,1,-14.3,-7.08,2.23,-9.26,-4.07,-1.46
24.04379308223724,3,3,3,2,-15.08,-4.62,4.55,-6.51,-7.85,-6.83
24.06379306316376,3,3,3,2,-11.68,-2.37,2.74,-6.09,-12.45,-9.449999999999999
24.08379304409027,3,3,3,2,-10.51,-4.55,-3.78,-15.11,-10.53,-13.75
24.10379302501678,3,3,3,2,-13.6,-0.67,-4.36,-6.69,-9.42,-18.87
24.1237930059433,3,3,3,2,-16.62,5.18,-3.89,1.52,-9.720000000000001,-18.71
24.14379298686981,3,3,3,2,-15.63,7.29,-3.8,3.45,-8.359999999999999,-18.17
24.16379296779633,3,3,3,2,-10.9,6.11,-2.12,1.17,-6.76,-20.1
24.18379294872284,3,3,3,2,-11.29,4.7,-1.55,-0.82,-5.22,-22.17
24.20379292964935,3,3,3,2,-11.76,6.23,-2.28,-0.26,-3.8,-21.69
24.22379291057587,3,3,3,2,-10.81,6.31,-2.61,0.39,-3.34,-20.89
24.24379289150238,3,3,3,2,-10.07,4.89,-3.06,-1.07,-2.71,-22.18
24.26379287242889,3,3,3,2,-9.640000000000001,3.17,-2.82,-1.5,-2.42,-22.8
24.28379285335541,3,3,3,2,-8.119999999999999,2.79,-2.92,3,-1.8,-22.11
24.3037930727005,3,3,3,2,-7.58,3.17,-3.05,9.039999999999999,-1.82,-20.72
24.32379305362701,3,3,3,2,-6.87,4.52,-3.16,13.51,-1.84,-19.33
24.34379303455353,3,3,3,2,-6.82,5.4,-2.83,15.22,-2.12,-17.26
24.36379301548004,3,3,3,2,-6.49,4.67,-3.09,13.81,-1.52,-14.58
24.38379299640656,3,3,3,2,-5.57,5.01,-3.1,12.85,-0.37,-11.91
24.40379297733307,3,3,3,2,-5.29,4.95,-3.02,10.75,1.19,-10.03
24.42379295825958,3,3,3,2,-5.13,4.5,-2.59,7.45,1.66,-7.95
24.4437929391861,3,3,3,2,-4.64,3.96,-2.05,5.55,2.15,-5.53
24.46379292011261,3,3,3,2,-4.97,2.26,-1.45,3.38,4.29,-3.12
24.48379290103912,3,3,3,2,-6.2,0.28,-1.22,0.85,6.96,-0.33
24.50379288196564,3,3,3,2,-7.61,-1.18,-1.46,0.53,8.140000000000001,2
24.52379286289215,3,3,3,2,-11.66,-7.3,0.83,3.76,8.94,2.09
24.54379308223724,3,3,3,2,-13.63,-12.56,3.41,7.82,8.76,-2.03
24.56379306316376,3,3,3,2,-16.97,-22.07,4.77,13.83,2.32,-3.29
24.58379304409027,3,3,3,2,-12.79,-14.52,4.38,11.96,-9.77,-4.52
24.60479295253754,3,3,3,2,-8.41,3.04,-0.2,10.2,-4.67,-2.56
24.62479293346405,3,3,3,2,-6.73,3.92,-2.85,8.26,1.11,-5.4
24.64479291439056,3,3,3,2,-10.67,-3.49,1.18,-8.539999999999999,7,2.68
24.66479289531708,3,3,3,2,-18.25,-13.85,7.81,1.5,-0.5600000000000001,5.56
24.68479287624359,3,3,3,2,-14.52,1.26,0.99,9.380000000000001,0.99,6.8
24.7047928571701,3,3,3,2,-8.43,11.53,-5.35,11.03,5.85,7.71
24.7247930765152,3,3,3,2,-7.12,8.109999999999999,-10.6,-0.96,11.64,7.29
24.74479305744171,3,3,3,2,-7.71,-1.9,-6.53,-6.78,9.94,9.27
24.76479303836823,3,3,3,2,-9.029999999999999,0.58,-5.75,1.08,7.37,14.22
24.78479301929474,3,3,3,2,-9.640000000000001,3.74,-3.2,7.76,7.61,14.65
24.80479300022125,3,3,3,2,-10.17,2.63,-1.63,7.09,7.62,14.36
24.82479298114777,3,3,3,2,-9.84,1.01,-1.23,5.75,6.51,14.33
24.84479296207428,3,3,3,2,-9.130000000000001,0.41,-2,5.83,6.18,13.44
24.86479294300079,3,3,3,2,-8.99,0.68,-2.79,7,5.92,13.08
24.88479292392731,3,3,3,2,-8.949999999999999,1.58,-3.09,7.12,5.83,12.97
24.90479290485382,3,3,3,2,-9.359999999999999,1.43,-2.77,4.14,5.77,11.81
24.92479288578033,3,3,3,2,-9.470000000000001,0.48,-2.11,0.59,4.57,10.98
24.94479286670685,3,3,3,2,-9.6,0.73,-2.06,-1.5,3.89,11.03
24.96479284763336,3,3,3,2,-9.390000000000001,0.32,-2.35,-4.44,3.74,10.91
24.98479306697845,3,3,3,2,-9.59,-1.72,-1.89,-7.54,3.84,10.38
25.00479304790497,3,3,3,2,-10.23,-3.03,-1.92,-10.97,4.2,10.82
25.02479302883148,3,3,3,2,-9.92,-1.5,-1.74,-12.5,6.09,9.039999999999999
25.044793009758,3,3,3,2,-10.14,-0.15,-3.3,-11.89,6.85,6.21
25.06479299068451,3,3,3,2,-9.81,1.73,-3.65,-8.09,3.6,3.68
25.08479297161102,3,3,3,2,-9.08,2.26,-2.99,-6.5,1.18,3.23
25.10479295253754,3,3,3,2,-9.039999999999999,1.31,-2.23,-6.77,1.16,3.87
25.12479293346405,3,3,3,2,-9.210000000000001,1.21,-1.98,-6.78,2.23,4.05
25.14479291439056,3,3,3,2,-9.279999999999999,1.61,-1.96,-7.66,3.28,3.66
25.16479289531708,3,3,3,2,-9.390000000000001,1.54,-2.49,-8.859999999999999,3.29,3.4
25.18479287624359,3,3,3,2,-9.210000000000001,1.45,-2.85,-8.58,2.11,3.56
25.2047928571701,3,3,3,2,-9.24,1.47,-2.97,-7.22,1.71,3.91
25.2247930765152,3,3,3,2,-9.130000000000001,1.79,-2.69,-6.17,1.99,4.18
25.24479305744171,3,3,3,2,-8.99,1.79,-2.35,-6.17,2.21,4.35
25.26479303836823,3,3,3,2,-9.49,1.54,-2.2,-6.92,2.22,4.66
25.28479301929474,3,3,3,2,-9.279999999999999,1.66,-2.09,-7.1,1.85,4.8
25.30479300022125,3,3,3,2,-9.16,1.84,-2.53,-7.18,1.69,4.87
25.32479298114777,3,3,3,2,-9.57,1.48,-3.09,-7.53,1.34,4.76
25.34479296207428,3,3,3,2,-9.859999999999999,1.09,-2.94,-7.03,1.01,4.14
25.36479294300079,3,3,3,2,-9.67,1.53,-2.91,-6.33,0.76,3.26
25.38479292392731,3,3,3,2,-9.92,1.12,-3.19,-7.77,1.18,2.97
25.40479290485382,3,3,3,2,-11.74,-0.06,-2.09,-9.57,2.03,3.11
25.42479288578033,3,3,3,2,-11.12,-1.16,-2.12,-9.01,1,2.62
25.44479286670685,3,3,3,2,-12.11,-2.57,-1.04,-7.7,0.17,1.66
25.46479284763336,3,3,3,2,-12.84,-2.9,-0.52,-4.05,-2.2,-0.41
25.48479306697845,3,3,3,2,-12.52,-3.21,0.55,-0.99,-5.36,-3.75
25.50479304790497,3,3,3,2,-12.25,-3.14,1.37,-0.58,-6.52,-8.26
25.52479302883148,3,3,3,2,-10.91,2.25,1.26,-2.69,-7.43,-9.199999999999999
25.544793009758,3,3,3,2,-9.9,1.8,-0.78,-10.28,-9.16,-12.79
25.56479299068451,3,3,3,2,-9.52,2.19,-2.67,-9.789999999999999,-8.76,-14.36
25.58479297161102,3,3,3,2,-10.69,4.66,-2.83,-7.99,-7.01,-15.14
25.60479295253754,3,3,3,2,-10.47,6.55,-2.88,-7.53,-6.35,-13.68
25.6257928609848,3,3,3,1,-9.91,6.18,-2.93,-7.53,-5.72,-13.22
25.6457930803299,3,3,3,1,-9.15,6.55,-2.32,-5.72,-3.29,-12.06
25.66579306125641,3,3,3,1,-9.18,6.63,-2.43,-4.59,-1.53,-11.16
25.68579304218292,3,3,3,1,-9.550000000000001,6.11,-1.99,-3.55,-1.07,-10.64
25.70579302310944,3,3,3,1,-9.550000000000001,6.13,-1.97,-0.59,-0.75,-10.04
25.72579300403595,3,3,3,1,-8.529999999999999,4.84,-1.97,0.3,-0.71,-9.74
25.74579298496246,3,3,3,1,-7.68,4.82,-2.41,5.51,-0.13,-8.74
25.76579296588898,3,3,3,1,-7.45,4.71,-2.54,8.15,-0.61,-8.199999999999999
25.78579294681549,3,3,3,1,-7.96,5.28,-2.62,8.42,-1.03,-7.74
25.805792927742,3,3,3,1,-8,5.36,-2.01,9.59,-1.12,-7.05
25.82579290866852,3,3,3,1,-7.94,5.49,-1.59,9.51,-1.06,-6.93
25.84579288959503,3,3,3,1,-7.86,4.13,-1.43,5.72,0.68,-5.53
25.86579287052155,3,3,3,1,-7.72,2.1,-1.72,5.26,4.04,-3.8
25.88579285144806,3,3,3,1,-9.470000000000001,0.24,-1.12,5.84,5.12,-3.17
25.90579307079315,3,3,3,1,-10.34,-0.45,-0.7,10.81,4.64,-1.57
25.92579305171967,3,3,3,1,-10.43,-1.06,-0.21,11.23,3.63,-1.15
25.94579303264618,3,3,3,1,-10.09,-1.63,0.04,6.85,1.96,-0.68
25.96579301357269,3,3,3,1,-8.93,-1.25,-0.65,1.99,1.65,0.65
25.98579299449921,3,3,3,1,-8.82,0.02,-0.5,-0.5600000000000001,0.9,1.14
26.00579297542572,3,3,3,1,-8.49,0.55,-0.64,-6.08,2.25,1.66
26.02579295635223,3,3,3,1,-9.15,3,-1.39,-6.51,3.44,1.95
26.04579293727875,3,3,3,1,-9.56,3.85,-0.22,-0.58,1.82,3.59
26.06579291820526,3,3,3,1,-10.81,1.67,-0.06,-2.04,1.93,3.15
26.08579289913177,3,3,3,1,-11.22,1.45,-0.62,-1.25,1.27,3.54
26.10579288005829,3,3,3,1,-11.59,3.63,-2,1.83,1.15,6.37
26.1257928609848,3,3,3,1,-10.47,1.65,-2.13,1.66,0.6,6.62
26.1457930803299,3,3,3,1,-9.65,0.44,-2.7,2.69,2.58,6.7
26.16579306125641,3,3,3,1,-9.029999999999999,1.22,-2.72,2.84,2.75,6.19
26.18579304218292,3,3,3,1,-9.619999999999999,1.96,-1.89,1.93,3.03,5.72
26.20579302310944,3,3,3,1,-9.85,1.66,-0.78,-2.03,2.57,4.62
26.22579300403595,3,3,3,1,-9.99,0.89,-0.16,-3.19,2.74,4.22
26.24579298496246,3,3,3,1,-10.06,0.17,-0.36,-5.23,2.85,3.55
26.26579296588898,3,3,3,1,-9.880000000000001,-0.71,-1.35,-4.19,2.78,3.11
26.28579294681549,3,3,3,1,-10,-1.12,-1.83,-3.1,2.71,2.81
26.305792927742,3,3,3,1,-9.74,-0.95,-2.26,1.05,1.6,2.76
26.32579290866852,3,3,3,1,-9.75,-0.39,-1.89,2.09,1.47,2.71
26.34579288959503,3,3,3,1,-9.640000000000001,0.79,-1.55,3.54,1.24,2.31
26.36579287052155,3,3,3,1,-9.51,1.48,-1.61,2.91,1.17,2.1
26.38579285144806,3,3,3,1,-9.52,1.66,-1.63,2.22,1.19,1.92
26.40579307079315,3,3,3,1,-9.48,1.5,-1.91,0.05,1.36,1.36
26.42579305171967,3,3,3,2,-9.449999999999999,0.96,-2.08,-0.11,1.35,1.23
26.44579303264618,3,3,3,2,-9.41,0.63,-2.1,1.01,0.6899999999999999,1.27
26.46579301357269,3,3,3,2,-9.56,0.7,-2.21,1.77,0.58,1.32
26.48579299449921,3,3,3,2,-9.539999999999999,0.87,-2.09,2.08,0.66,1.31
26.50579297542572,3,3,3,2,-9.470000000000001,1.43,-2.05,2.26,0.48,1
26.52579295635223,3,3,3,2,-9.470000000000001,1.48,-2.18,1.92,0.48,0.9
26.54579293727875,3,3,3,2,-9.44,1.42,-2.23,1,0.49,0.68
26.56579291820526,3,3,3,2,-9.35,1.41,-2.26,0.61,0.47,0.47
26.58579289913177,3,3,3,2,-9.43,1.34,-2.33,0.54,0.4,0.34
26.60579288005829,3,3,3,2,-9.539999999999999,1.32,-2.38,0.7,0.36,0.31
26.6257928609848,3,3,3,2,-9.460000000000001,1.48,-2.2,0.73,0.41,0.33
26.64679300785065,3,3,3,2,-9.43,1.48,-2.13,0.49,0.15,0.18
26.66679298877716,3,3,3,2,-9.390000000000001,1.53,-2.24,0.44,0.28,0.08
26.68679296970367,3,3,3,2,-9.35,1.49,-2.24,0.44,0.28,0.05
26.70679295063019,3,3,3,2,-9.42,1.47,-2.32,0.11,0.1,0
26.7267929315567,3,3,3,2,-9.43,1.41,-2.27,0.04,0.2,-0.14
26.74679291248322,3,3,3,2,-9.51,1.31,-2.11,-0.04,0.1,-0.12
26.76679289340973,3,3,3,2,-9.48,1.45,-2.25,-0.02,0.21,-0.17
26.78679287433624,3,3,3,2,-9.44,1.42,-2.25,-0.04,0.17,-0.2
26.80679285526276,3,3,3,2,-9.390000000000001,1.47,-2.17,0.03,0.2,-0.24
26.82679307460785,3,3,3,2,-9.390000000000001,1.4,-2.2,-0.08,0.15,-0.25
26.84679305553436,3,3,3,2,-9.49,1.54,-2.31,-0.41,0.26,-0.36
26.86679303646088,3,3,3,2,-9.41,1.36,-2.16,-0.46,0.21,-0.39
26.88679301738739,3,3,3,2,-9.43,1.46,-2.28,-0.5,0.23,-0.33
26.9067929983139,3,3,3,2,-9.449999999999999,1.41,-2.23,-0.43,0.15,-0.33
26.92679297924042,3,3,3,2,-9.43,1.34,-2.19,-0.47,0.12,-0.32
26.94679296016693,3,3,3,2,-9.380000000000001,1.4,-2.21,-0.72,0.28,-0.45
26.96679294109344,3,3,3,2,-9.449999999999999,1.33,-2.19,-0.71,0.24,-0.5
26.98679292201996,3,3,3,2,-9.43,1.27,-2.18,-0.68,0.19,-0.49
27.00679290294647,3,3,3,2,-9.41,1.18,-2.16,-0.65,0.2,-0.43
27.02679288387299,3,3,3,2,-9.35,1.13,-2.21,-0.72,0.15,-0.38
27.0467928647995,3,3,3,2,-9.449999999999999,1.15,-2.38,-0.27,0.32,-0.35
27.06679308414459,3,3,3,2,-9.35,1.23,-2.2,-0.12,0.22,-0.18
27.08679306507111,3,3,3,1,-9.390000000000001,1.26,-2.29,0.08,0.28,-0.12
27.10679304599762,3,3,3,1,-9.48,1.19,-2.35,0.03,0.14,-0.03
27.12679302692413,3,3,3,1,-9.42,1.25,-2.25,-0.04,0.12,-0.07000000000000001
27.14679300785065,3,3,3,1,-9.390000000000001,1.19,-2.35,0.06,0.16,-0.09
27.16679298877716,3,3,3,1,-9.4,1.2,-2.3,-0.03,0.11,-0.11
27.18679296970367,3,3,3,1,-9.41,1.21,-2.34,0.22,0.13,-0.08
27.20679295063019,3,3,3,1,-9.42,1.2,-2.32,0.44,0.03,0.04
27.2267929315567,3,3,3,1,-9.43,1.24,-2.23,0.61,0.08,0.09
27.24679291248322,3,3,3,1,-9.42,1.28,-2.36,0.65,0.03,0.13
27.26679289340973,3,3,3,1,-9.43,1.32,-2.34,0.59,0.01,0.09
27.28679287433624,3,3,3,1,-9.43,1.34,-2.24,0.55,-0.04,0.15
27.30679285526276,3,3,3,1,-9.44,1.24,-2.3,0.35,-0.02,0.07000000000000001
27.32679307460785,3,3,3,1,-9.449999999999999,1.17,-2.28,0.24,-0.17,0
27.34679305553436,3,3,3,1,-9.4,1.17,-2.34,0.32,-0.08,-0.01
27.36679303646088,3,3,3,1,-9.4,1.25,-2.25,0.47,0.06,0.02
27.38679301738739,3,3,3,1,-9.44,1.26,-2.23,0.55,-0.09,0.06
27.4067929983139,3,3,3,1,-9.5,1.34,-2.38,0.58,-0.05,0.03
27.42679297924042,3,3,3,1,-9.4,1.36,-2.23,0.66,-0.17,0.04
27.44679296016693,3,3,3,1,-9.4,1.41,-2.42,0.55,-0.14,0.01
27.46679294109344,3,3,3,1,-9.41,1.41,-2.28,0.44,-0.16,-0.02
27.48679292201996,3,3,3,2,-9.4,1.34,-2.25,0.3,-0.13,-0.06
27.50679290294647,3,3,3,2,-9.460000000000001,1.3,-2.23,0.28,-0.11,-0.11
27.52779304981232,3,3,3,2,-9.470000000000001,1.26,-2.21,0.22,-0.14,-0.13
27.5467928647995,3,3,3,2,-9.42,1.3,-2.28,0.15,-0.18,-0.2
27.56679308414459,3,3,3,2,-9.42,1.25,-2.23,0.12,-0.1,-0.25
27.58679306507111,3,3,3,2,-9.4,1.2,-2.21,0.12,-0.05,-0.28
27.60679304599762,3,3,3,2,-9.390000000000001,1,-2.2,0.53,-0.18,-0.19
27.62679302692413,3,3,3,2,-9.640000000000001,0.41,-1.86,1.42,-0.37,-0.05
27.64679300785065,3,3,3,2,-9.449999999999999,0.89,-2.23,2.33,-0.29,-0.21
27.66679298877716,3,3,3,2,-9.41,1.45,-2.6,2.05,-0.31,-0.54
27.68779289722443,3,3,3,2,-9.449999999999999,1.79,-2.49,1.25,-0.42,-0.8100000000000001
27.70779287815094,3,3,3,2,-9.44,2.1,-2.32,0.43,-0.59,-0.79
27.72779285907745,3,3,3,2,-9.42,2.02,-2.16,-0.87,-0.54,-0.97
27.74779307842255,3,3,3,2,-9.57,1.72,-2.31,-1.99,-0.43,-1.08
27.76779305934906,3,3,3,2,-9.41,1.69,-2.2,-3.34,-0.2,-1.51
27.78779304027557,3,3,3,2,-9.44,1.51,-2.08,-4.74,-0.27,-1.9
27.80779302120209,3,3,3,2,-9.449999999999999,1.09,-2.26,-6.15,-0.14,-2.2
27.8277930021286,3,3,3,2,-9.449999999999999,0.5,-2.23,-6.74,0.09,-2.44
27.84779298305511,3,3,3,2,-9.539999999999999,0,-2.26,-5.71,0.01,-2.47
27.86779296398163,3,3,3,2,-9.6,0.2,-2.08,-3.72,-0.2,-2.11
27.88779294490814,3,3,3,2,-9.619999999999999,0.47,-2.11,-1.79,-0.33,-1.65
27.90779292583466,3,3,3,2,-9.449999999999999,0.74,-2.16,-0.64,-0.43,-1.26
27.92779290676117,3,3,3,2,-9.5,1.04,-2.12,0.35,-0.52,-0.9399999999999999
27.94779288768768,3,3,3,2,-9.52,1.21,-2.14,0.72,-0.59,-0.72
27.9677928686142,3,3,3,2,-9.43,1.36,-2.1,0.52,-0.43,-0.6899999999999999
27.98779284954071,3,3,3,2,-9.48,1.13,-1.96,-0.08,-0.38,-0.89
28.0077930688858,3,3,3,2,-9.73,1,-2.02,-0.68,-0.42,-1.08
28.02779304981232,3,3,3,2,-9.84,0.97,-1.81,-1.21,-0.38,-1.26
28.04779303073883,3,3,3,2,-9.67,1.01,-1.58,-2.1,-0.14,-1.49
28.06779301166534,3,3,3,2,-9.550000000000001,0.86,-1.36,-3.03,-0.29,-1.61
28.08779299259186,3,3,3,2,-9.369999999999999,0.5600000000000001,-1,-3.66,-0.66,-1.9
28.10779297351837,3,3,3,2,-9.710000000000001,-0.03,-0.89,-4.11,-1.19,-2.54
28.12779295444489,3,3,3,2,-10.46,0.23,-0.63,-3.99,-1.77,-3.39
28.1477929353714,3,3,3,2,-10.49,0.27,-0.66,-4.78,-2.14,-4.01
28.16779291629791,3,3,3,2,-9.970000000000001,0.26,-0.57,-5.83,-2.34,-4.6
28.18779289722443,3,3,3,2,-9.640000000000001,0.13,-1.11,-6.26,-2.5,-4.69
28.20779287815094,3,3,3,2,-10.07,0.19,-1.5,-5.92,-2.32,-5.15
28.22779285907745,3,3,3,2,-9.949999999999999,0.21,-1.2,-4.82,-2.98,-5.39
28.24779307842255,3,3,3,2,-9.9,0.02,-1.08,-4.83,-3.08,-6.03
28.26779305934906,3,3,3,2,-9.880000000000001,1.19,-1.45,-4.63,-3.36,-6
28.28779304027557,3,3,3,2,-10.81,3.07,-1.08,-7.1,-2.32,-6.53
28.30779302120209,3,3,3,2,-9.84,4.11,-0.37,-10.89,-2.43,-5.32
28.3277930021286,3,3,3,2,-9.039999999999999,3.18,-1.12,-15.99,-1.07,-5.55
28.34779298305511,3,3,3,2,-9.029999999999999,2.96,-1.65,-20.27,-1.13,-5.5
28.36779296398163,3,3,3,2,-9.279999999999999,3.12,-1.38,-22.98,-1.28,-5.16
28.38779294490814,3,3,3,2,-8.859999999999999,2.96,-1.17,-26.84,-1.14,-4.87
28.40779292583466,3,3,3,2,-8.609999999999999,2.28,-1.21,-32.02,-0.01,-5.19
28.42779290676117,3,3,3,2,-9.24,-0.05,-2.66,-36.45,1.72,-6.29
28.44779288768768,3,3,3,2,-9.35,0.43,-1.97,-40.26,3.26,-8.77
28.4677928686142,3,3,3,2,-8.800000000000001,-0.13,-1.17,-43.14,2.77,-8.25
28.48779284954071,3,3,3,2,-8.91,-0.77,-2.65,-40.85,2.46,-7.31
28.5077930688858,3,3,3,2,-8.49,-0.96,-2.84,-38.7,2.08,-6.94
28.52779304981232,3,3,3,2,-8.130000000000001,-0.24,-5.46,-32.2,3.59,-5.25
28.54779303073883,3,3,3,2,-8.51,-1.39,-6.16,-26.01,3.41,-3.76
28.56779301166534,3,3,3,2,-8.390000000000001,-2.62,-4.65,-18.29,2.43,-2.6
28.58779299259186,3,3,3,2,-9.99,-5.33,-2.31,-9.43,2.95,-1.95
28.60779297351837,3,3,3,2,-11.03,0.71,-3.01,0.11,2.8,1.01
28.62779295444489,3,3,3,2,-11.03,0.48,-2.15,6.26,1.04,5.04
28.6477929353714,3,3,3,2,-10.3,0.87,-3.82,3.85,2.97,5.47
28.66779291629791,3,3,3,2,-9.640000000000001,0.9399999999999999,-2.91,5.04,2.66,5
28.68779289722443,3,3,3,2,-9.050000000000001,1.78,-1.55,4.35,4.05,4.75
28.70879304409027,3,3,3,2,-9.84,2.8,-0.78,1.06,3.01,2.89
28.72879302501678,3,3,3,2,-9.640000000000001,1.48,-1.86,-4.18,3.41,1.83
28.7487930059433,3,3,3,2,-9.23,-0.43,-2.89,-6.88,2.65,0.73
28.76879298686981,3,3,3,2,-9.289999999999999,-0.03,-3.09,-7.11,2.54,-0.54
28.78879296779633,3,3,3,2,-9.81,1,-2.92,-7.15,2.17,-1.16
28.80879294872284,3,3,3,2,-9.789999999999999,1.27,-2.37,-8.44,1.88,-1.18
28.82879292964935,3,3,3,2,-9.359999999999999,0.39,-3.57,-10.06,1.35,-1.56
28.84879291057587,3,3,3,2,-9.220000000000001,0.25,-4.44,-9.74,1.36,-2.27
28.86879289150238,3,3,3,2,-9.44,0.5,-4.29,-7.87,1.27,-2.46
28.88879287242889,3,3,3,2,-9.34,1.48,-3.49,-6.32,1.02,-1.9
28.90879285335541,3,3,3,2,-9.25,2.25,-2.85,-6.79,0.87,-1.78
28.9287930727005,3,3,3,2,-9.23,1.84,-2.84,-8.66,0.54,-2.22
28.94879305362701,3,3,3,2,-9.050000000000001,0.39,-4.03,-10.37,0.63,-3.08
28.96879303455353,3,3,3,2,-9.02,-0.46,-4.24,-10.2,0.47,-3.69
28.98879301548004,3,3,3,2,-9.16,-0.21,-3.75,-9.81,-0.06,-3.77
29.00879299640656,3,3,3,2,-9.390000000000001,0.02,-3.28,-9.720000000000001,-0.28,-4.09
29.02879297733307,3,3,3,3,-9.279999999999999,-0.25,-3.14,-10.89,-0.74,-4.57
29.04879295825958,3,3,3,3,-9.52,-1.16,-3.3,-12.26,-1.05,-4.98
29.0687929391861,3,3,3,3,-9.640000000000001,-1.27,-3.12,-12.9,-1.28,-5.41
29.08879292011261,3,3,3,3,-9.449999999999999,-1.72,-2.71,-13.24,-1.71,-5.69
29.10879290103912,3,3,3,3,-9.48,-1.7,-2.65,-13.14,-1.99,-6.01
29.12879288196564,3,3,3,3,-9.449999999999999,-1.03,-2.53,-13.29,-2.11,-6.34
29.14879286289215,3,3,3,3,-9.51,-0.6,-2.88,-13.54,-2.34,-6.42
29.16879308223724,3,3,3,3,-9.56,-1.06,-2.71,-14,-2.7,-6.17
29.18879306316376,3,3,3,3,-9.59,-0.78,-2.05,-13.93,-3.27,-5.8
29.20879304409027,3,3,3,3,-9.68,0.16,-2.23,-13.86,-3.56,-5.26
29.22879302501678,3,3,3,3,-9.73,0.42,-2.42,-15.03,-3.45,-5.13
29.2487930059433,3,3,3,3,-9.42,1.2,-3.01,-16.47,-3.32,-5.06
29.26879298686981,3,3,3,3,-9.19,0.99,-3.1,-17.89,-2.69,-4.81
29.28879296779633,3,3,3,3,-9.02,-0.03,-2.72,-18.39,-2.28,-4.5
29.30879294872284,3,3,3,3,-9.26,-0.84,-2.28,-17.71,-2.25,-4.35
29.32879292964935,3,3,3,3,-9.800000000000001,-1.41,-1.18,-16.59,-2.94,-4.3
29.34879291057587,3,3,3,3,-9.76,-1.09,-0.89,-16.28,-3.83,-4.36
29.36879289150238,3,3,3,3,-9.619999999999999,0.5,-0.37,-18.06,-4.61,-4.87
29.38879287242889,3,3,3,3,-9.44,1.75,0.02,-21.18,-5.06,-5.62
29.40879285335541,3,3,3,3,-10.21,1.77,0.21,-25.56,-5.51,-6.54
29.4287930727005,3,3,3,3,-10.42,1.62,0.29,-28.87,-6.05,-7.01
29.44879305362701,3,3,3,3,-10.38,0.65,0,-30.97,-5.88,-7.56
29.46879303455353,3,3,3,3,-10.25,0.58,-0.19,-31.71,-6.1,-7.46
29.48879301548004,3,3,3,3,-9.51,0.72,-1.5,-31.91,-3.84,-6.94
29.50879299640656,3,3,3,3,-9.26,0.36,-2.01,-33.27,-2.01,-7.35
29.52879297733307,3,3,3,3,-8.98,0.58,-2.12,-34.94,-2.13,-6.97
29.54879295825958,3,3,3,3,-8.640000000000001,0.52,-2.99,-34.81,-1.5,-5.17
29.5687929391861,3,3,3,3,-9.06,-0.62,-3.64,-33.96,0.1,-3.37
29.58879292011261,3,3,3,3,-9.15,-1.29,-3.36,-30.69,-1.07,-2.12
29.60879290103912,3,3,3,3,-9.289999999999999,-0.5600000000000001,-2.46,-23.54,-1.73,-1.4
29.62879288196564,3,3,3,3,-8.779999999999999,0.03,-2.13,-18.51,-1.84,0.78
29.64879286289215,3,3,3,3,-8.99,-1.4,-4.69,-14.13,0.12,1.66
29.66879308223724,3,3,3,3,-8.779999999999999,2.35,-1.17,-13.92,0.1,1.42
29.68879306316376,3,3,3,3,-7.43,1.88,-1.99,-14.25,-0.87,4.23
29.70879304409027,3,3,3,3,-9.01,0.31,-3.88,-13.76,2.65,3.79
29.72979295253754,3,3,3,3,-9.4,0.54,-3.71,-14.25,3.46,3.68
29.74979293346405,3,3,3,3,-9.550000000000001,0.86,-2.81,-13.08,3.81,3.93
29.76979291439056,3,3,3,3,-9.74,-0.23,-2.06,-11.33,3.13,3.82
29.78979289531708,3,3,3,3,-10.09,-0.98,-1.7,-10.52,2.3,3.21
29.80979287624359,3,3,3,3,-10.24,-2.63,-1.89,-9.529999999999999,2.26,1.95
29.8297928571701,3,3,3,3,-10.84,-4.54,0.07000000000000001,-7.25,3.45,0.49
29.8497930765152,3,3,3,3,-10.01,-1.25,-1.78,-3.58,3.7,1.98
29.86979305744171,3,3,3,3,-10.61,-1.69,-0.9399999999999999,-3.42,2.19,4.34
29.88979303836823,3,3,3,3,-10.55,-1.8,-0.95,-0.8,1.59,3.86
29.90979301929474,3,3,3,3,-9.449999999999999,-1.35,-1.52,0.74,1.99,3.48
29.92979300022125,3,3,3,3,-9.66,0.07000000000000001,-2.54,1.82,3.21,3.48
29.94979298114777,3,3,3,3,-10.01,0.73,-2.65,0.17,2.55,3.42
29.96979296207428,3,3,3,3,-9.970000000000001,0.97,-1.65,-1.37,1.43,2.66
29.98979294300079,3,3,3,3,-9.279999999999999,0.75,-0.5,-2.15,2.03,2.35
30.00979292392731,3,3,3,3,-9.17,0.18,-1.47,-1.07,2.55,2.33
30.02979290485382,3,3,3,3,-9.27,1.03,-2.51,-0.1,2.3,2.53
30.04979288578033,3,3,3,3,-9.619999999999999,1.21,-2.77,0.67,2.72,2.63
30.06979286670685,3,3,3,3,-9.34,1.07,-2.75,1.14,2.38,2.61
30.08979284763336,3,3,3,3,-9.25,0.55,-2.01,1.8,2.05,2.19
30.10979306697845,3,3,3,3,-9.4,0.89,-2.19,2.95,1.86,1.88
30.12979304790497,3,3,3,3,-9.279999999999999,1.14,-2.55,2.91,2,1.55
30.14979302883148,3,3,3,3,-9.529999999999999,1.06,-2.62,2.43,2.17,0.93
30.169793009758,3,3,3,3,-9.68,1.04,-2.18,1.72,2.16,0.43
30.18979299068451,3,3,3,3,-9.85,1.05,-2.27,1.84,1.71,0.19
30.20979297161102,3,3,3,3,-9.76,1.53,-3.12,1.54,1.17,0.15
30.22979295253754,3,3,3,3,-9.220000000000001,1.25,-3.54,0.62,1.28,-0.1
30.24979293346405,3,3,3,3,-9.08,1.24,-3.53,0.6,0.92,-0.29
30.26979291439056,3,3,3,3,-9.5,1.11,-3.14,0.5,0.97,-0.29
30.28979289531708,3,3,3,3,-9.550000000000001,0.9,-2.86,0.12,0.88,-0.55
30.30979287624359,3,3,3,3,-9.279999999999999,0.85,-2.67,-0.49,0.99,-0.89
30.3297928571701,3,3,3,3,-9.289999999999999,0.99,-2.58,-0.65,0.9,-0.93
30.3497930765152,3,3,3,3,-9.289999999999999,1.29,-2.79,-1.43,0.62,-1.07
30.36979305744171,3,3,3,3,-9.380000000000001,1.21,-2.93,-1.88,0.63,-1.27
30.38979303836823,3,3,3,3,-9.449999999999999,1.01,-2.75,-1.97,0.5600000000000001,-1.43
30.40979301929474,3,3,3,3,-9.289999999999999,0.88,-2.57,-1.84,0.42,-1.51
30.42979300022125,3,3,3,3,-9.390000000000001,0.9399999999999999,-2.78,-1.73,0.5,-1.41
30.44979298114777,3,3,3,3,-9.41,1.03,-3.21,-2.09,0.45,-1.46
30.46979296207428,3,3,3,3,-9.369999999999999,0.86,-3.09,-2.79,0.37,-1.58
30.48979294300079,3,3,3,3,-9.300000000000001,0.62,-2.36,-2.74,0.2,-1.36
30.50979292392731,3,3,3,3,-9.449999999999999,0.38,-2.13,-2.53,0.06,-1.1
30.52979290485382,3,3,3,3,-9.449999999999999,0.24,-2.46,-2.35,0.06,-0.96
30.54979288578033,3,3,3,3,-9.359999999999999,0.51,-2.83,-1.89,0.12,-0.7
30.56979286670685,3,3,3,3,-9.26,0.78,-2.97,-1.59,-0.02,-0.5
30.58979284763336,3,3,3,3,-9.279999999999999,0.79,-3.24,-1.63,-0.14,-0.41
30.60979306697845,3,3,3,3,-9.27,1.11,-3.57,-1.61,0.14,-0.33
30.62979304790497,3,3,3,3,-9.19,1.57,-3.48,-1.76,0.5,-0.22
30.64979302883148,3,3,3,3,-9.25,1.56,-3.06,-2.43,0.39,-0.03
30.669793009758,3,3,3,3,-9.300000000000001,1.2,-2.68,-2.98,0.24,0.02
30.68979299068451,3,3,3,3,-9.460000000000001,0.41,-2.41,-3.24,0.36,0.06
30.70979297161102,3,3,3,3,-9.56,0.19,-2.46,-2.63,0.14,-0.07000000000000001
30.72979295253754,3,3,3,3,-9.43,0.44,-2.38,-1.67,0.12,-0.04
30.7507928609848,3,3,3,3,-9.359999999999999,1.04,-2.74,-0.79,0.17,0.03
30.7707930803299,3,3,3,3,-9.31,1.49,-2.72,-0.22,-0.08,0.2
30.79079306125641,3,3,3,3,-9.24,1.59,-2.71,0.18,-0.01,0.43
30.81079304218292,3,3,3,3,-9.26,1.39,-2.64,-0.02,-0.17,0.44
30.83079302310944,3,3,3,3,-9.33,1.23,-2.46,-0.33,-0.2,0.3
30.85079300403595,3,3,3,3,-9.35,1.34,-2.64,-0.59,-0.13,0.22
30.87079298496246,3,3,3,3,-9.300000000000001,1.25,-2.64,-0.67,-0.14,0.11
30.89079296588898,3,3,3,3,-9.24,1.44,-2.57,-0.45,-0.25,0.15
30.91079294681549,3,3,3,3,-9.34,1.38,-2.77,-0.5600000000000001,-0.43,0.14
30.930792927742,3,3,3,3,-9.34,1.2,-2.54,-0.44,-0.47,0.13
30.95079290866852,3,3,3,3,-9.380000000000001,1.09,-2.54,-0.2,-0.52,0.2
30.97079288959503,3,3,3,3,-9.390000000000001,1.19,-2.49,0.01,-0.6,0.19
30.99079287052155,3,3,3,3,-9.32,1.14,-2.37,0.15,-0.54,0.16
31.01079285144806,3,3,3,3,-9.390000000000001,1.28,-2.44,0.05,-0.62,0.18
31.03079307079315,3,3,3,3,-9.390000000000001,1.32,-2.46,-0.06,-0.67,0.05
31.05079305171967,3,3,3,3,-9.300000000000001,1.29,-2.64,-0.12,-0.52,-0.05
31.07079303264618,3,3,3,3,-9.35,1.39,-2.5,-0.14,-0.5,-0.11
31.09079301357269,3,3,3,3,-9.35,1.37,-2.43,-0.13,-0.45,-0.13
31.11079299449921,3,3,3,3,-9.4,1.36,-2.39,-0.17,-0.52,-0.17
31.13079297542572,3,3,3,3,-9.4,1.35,-2.43,-0.26,-0.5,-0.26
31.15079295635223,3,3,3,3,-9.33,1.29,-2.55,-0.16,-0.5,-0.34
31.17079293727875,3,3,3,3,-9.359999999999999,1.21,-2.4,-0.15,-0.5,-0.35
31.19079291820526,3,3,3,3,-9.369999999999999,1.04,-2.4,-0.13,-0.42,-0.37
31.21079289913177,3,3,3,3,-9.41,1.1,-2.36,-0.09,-0.33,-0.46
31.23079288005829,3,3,3,3,-9.43,1.23,-2.33,-0.18,-0.33,-0.52
31.2507928609848,3,3,3,3,-9.33,1.16,-2.49,-0.18,-0.27,-0.55
31.2707930803299,3,3,3,3,-9.369999999999999,1.23,-2.41,-0.12,-0.21,-0.5
31.29079306125641,3,3,3,3,-9.42,1.23,-2.31,0.09,-0.24,-0.44
31.31079304218292,3,3,3,3,-9.449999999999999,1.16,-2.32,0.08,-0.23,-0.32
31.33079302310944,3,3,3,3,-9.390000000000001,1.03,-2.26,0.05,-0.16,-0.27
31.35079300403595,3,3,3,3,-9.4,1.04,-2.35,0.05,-0.14,-0.29
31.37079298496246,3,3,3,3,-9.43,1.22,-2.34,-0.12,-0.18,-0.36
31.39079296588898,3,3,3,3,-9.44,1.24,-2.42,-0.31,-0.11,-0.29
31.41079294681549,3,3,3,3,-9.35,1.27,-2.53,-0.31,-0.04,-0.26
31.430792927742,3,3,3,3,-9.42,1.05,-2.33,-0.32,-0.02,-0.16
31.45079290866852,3,3,3,3,-9.4,1.08,-2.45,-0.19,-0.03,-0.14
31.47079288959503,3,3,3,3,-9.4,0.98,-2.37,-0.11,-0.02,-0.07000000000000001
31.49079287052155,3,3,3,3,-9.359999999999999,0.99,-2.4,-0.01,-0.1,0.08
31.51079285144806,3,3,3,3,-9.44,0.99,-2.47,0.19,-0.11,0.1
31.53079307079315,3,3,3,3,-9.390000000000001,1.08,-2.38,0.23,-0.15,0.14
31.55079305171967,3,3,3,3,-9.41,1.17,-2.45,0.12,-0.18,0.14
31.57079303264618,3,3,3,3,-9.449999999999999,1.11,-2.4,0.04,-0.11,0.1
31.59079301357269,3,3,3,3,-9.41,1.08,-2.39,0.04,-0.05,0.07000000000000001
31.61079299449921,3,3,3,3,-9.390000000000001,1.13,-2.45,0.14,-0.05,0.12
31.63079297542572,3,3,3,3,-9.380000000000001,1.04,-2.35,0.2,-0.1,0.13
31.65079295635223,3,3,3,3,-9.44,1.02,-2.44,0.38,-0.06,0.1
31.67079293727875,3,3,3,3,-9.42,1.15,-2.35,0.43,-0.16,0.11
31.69079291820526,3,3,3,3,-9.41,1.31,-2.32,0.42,-0.14,0.12
31.71079289913177,3,3,3,3,-9.42,1.32,-2.37,0.15,-0.08,0.06
31.73079288005829,3,3,3,3,-9.380000000000001,1.19,-2.3,0.02,-0.08,0.02
31.7507928609848,3,3,3,3,-9.4,1.23,-2.43,-0.1,-0.11,-0.02
31.77179300785065,3,3,3,3,-9.44,1.21,-2.31,-0.17,-0.03,-0.03
31.79179298877716,3,3,3,3,-9.470000000000001,1.27,-2.3,-0.12,-0.09,-0.06
31.81179296970367,3,3,3,3,-9.390000000000001,1.35,-2.39,-0.06,-0.02,-0.04
31.83179295063019,3,3,3,3,-9.4,1.35,-2.31,-0.19,-0.05,-0.06
31.8517929315567,3,3,3,3,-9.4,1.11,-2.43,-0.3,-0.15,-0.06
31.87179291248322,3,3,3,3,-9.44,1.32,-2.33,-0.34,-0.05,-0.1
31.89179289340973,3,3,3,3,-9.4,1.36,-2.35,-0.43,0.1,-0.06
31.91179287433624,3,3,3,3,-9.359999999999999,1.25,-2.36,-0.54,-0.09,-0.11
31.93179285526276,3,3,3,3,-9.44,1.07,-2.35,-0.44,0.02,-0.12
31.95179307460785,3,3,3,3,-9.44,1.01,-2.36,-0.13,0.05,-0.16
31.97179305553436,3,3,3,3,-9.460000000000001,1.18,-2.28,-0.09,0.02,-0.14
31.99179303646088,3,3,3,3,-9.470000000000001,1.09,-2.21,-0.17,-0.06,-0.19
32.01179301738739,3,3,3,3,-9.390000000000001,1.07,-2.37,-0.01,0.14,-0.18
32.0317929983139,3,3,3,3,-9.380000000000001,1.17,-2.33,-0.11,0.08,-0.2
32.05179297924042,3,3,3,3,-9.43,1.23,-2.41,-0.14,0.08,-0.18
32.07179296016693,3,3,3,3,-9.43,1.21,-2.38,-0.16,0.08,-0.19
32.09179294109344,3,3,3,3,-9.42,1.09,-2.37,-0.02,0.1,-0.11
32.11179292201996,3,3,3,3,-9.44,1.03,-2.39,0.14,0.06,-0.02
32.13179290294647,3,3,3,3,-9.44,1.04,-2.31,0.17,-0.03,-0.09
32.15179288387299,3,3,3,3,-9.43,1.03,-2.35,0.22,-0.01,-0.12
32.1717928647995,3,3,3,3,-9.390000000000001,1.19,-2.34,0.17,0.01,-0.05
32.19179308414459,3,3,3,3,-9.42,1.16,-2.38,0.17,-0.02,-0.01
32.21179306507111,3,3,3,3,-9.4,1.15,-2.42,0.18,-0.08,-0.01
32.23179304599762,3,3,3,3,-9.390000000000001,1.13,-2.34,0.22,-0.06,-0.05
32.25179302692413,3,3,3,3,-9.4,1.21,-2.39,0.15,0.14,0.02
32.27179300785065,3,3,3,3,-9.44,1.12,-2.46,0.15,0.01,0
32.29179298877716,3,3,3,3,-9.380000000000001,1.05,-2.35,0.29,0,0.04
32.31179296970367,3,3,3,3,-9.449999999999999,1.07,-2.44,0.29,-0.1,0.04
32.33179295063019,3,3,3,3,-9.41,1.06,-2.28,0.29,0.02,0.03
32.3517929315567,3,3,3,3,-9.460000000000001,1.06,-2.41,0.35,-0.09,0.09
32.37179291248322,3,3,3,3,-9.44,1.06,-2.36,0.4,-0.06,0.08
32.39179289340973,3,3,3,3,-9.41,1.12,-2.33,0.32,0,0.01
32.41179287433624,3,3,3,3,-9.43,1.19,-2.39,0.28,0.02,0.01
32.43179285526276,3,3,3,3,-9.390000000000001,1.16,-2.32,0.22,0.04,0.05
32.45179307460785,3,3,3,3,-9.44,1.1,-2.4,0.22,-0.12,0.02
32.47179305553436,3,3,3,3,-9.449999999999999,1.11,-2.34,0.2,-0.13,0.01
32.49179303646088,3,3,3,3,-9.390000000000001,1.14,-2.29,0.34,0.02,-0.01
32.51179301738739,3,3,3,3,-9.460000000000001,1.24,-2.36,0.25,-0.02,-0.02
32.5317929983139,3,3,3,3,-9.42,1.23,-2.33,0.22,0.02,-0.01
32.55179297924042,3,3,3,3,-9.390000000000001,1.15,-2.31,0.08,-0.05,0.01
32.57179296016693,3,3,3,3,-9.460000000000001,1.17,-2.33,0.02,-0.09,-0.06
32.59179294109344,3,3,3,3,-9.42,1.1,-2.34,0.02,0.02,-0.11
32.61179292201996,3,3,3,3,-9.43,1.18,-2.33,-0.08,0.01,-0.11
32.63179290294647,3,3,3,3,-9.449999999999999,1.15,-2.32,-0.04,0.01,-0.1
32.65179288387299,3,3,3,3,-9.44,1.11,-2.38,0.02,-0.03,-0.09
32.6717928647995,3,3,3,3,-9.42,1.13,-2.28,0.01,-0.03,-0.09
32.69179308414459,3,3,3,3,-9.4,1.12,-2.37,-0.04,0.01,-0.11
32.71179306507111,3,3,3,3,-9.44,1.12,-2.34,-0.01,0.05,-0.09
32.73179304599762,3,3,3,3,-9.41,1.15,-2.34,0.03,-0.07000000000000001,-0.09
32.75179302692413,3,3,3,3,-9.380000000000001,1.16,-2.37,0.04,0.01,-0.09
32.77179300785065,3,3,3,3,-9.41,1.15,-2.27,-0.01,0.04,-0.1
32.79179298877716,3,3,3,3,-9.470000000000001,1.07,-2.43,-0.03,0.06,-0.07000000000000001
32.81279289722443,3,3,3,3,-9.449999999999999,1.16,-2.31,0.01,-0.03,-0.13
32.83279287815094,3,3,3,3,-9.41,1.17,-2.34,0.01,-0.02,-0.09
32.85279285907745,3,3,3,3,-9.43,1.2,-2.37,0.05,0.02,-0.1
32.87279307842255,3,3,3,3,-9.44,1.14,-2.3,0.04,0.06,-0.09
32.89279305934906,3,3,3,3,-9.460000000000001,1.05,-2.37,0.07000000000000001,0.05,-0.06
32.91279304027557,3,3,3,3,-9.460000000000001,1.01,-2.28,0.15,0.07000000000000001,-0.18
32.93279302120209,3,3,3,3,-9.42,1.02,-2.27,0.18,0.04,-0.14
32.9527930021286,3,3,3,3,-9.449999999999999,1.15,-2.4,0.08,-0.01,-0.19
32.97279298305511,3,3,3,3,-9.390000000000001,1.24,-2.31,0.18,0.03,-0.15
32.99279296398163,3,3,3,3,-9.390000000000001,1.26,-2.43,0.17,0.05,-0.14
33.01279294490814,3,3,3,3,-9.43,1.23,-2.3,0.05,0.05,-0.19
33.03279292583466,3,3,3,3,-9.41,1.2,-2.3,-0.08,0,-0.22
33.05279290676117,3,3,3,3,-9.449999999999999,1.15,-2.38,-0.13,-0.05,-0.17
33.07279288768768,3,3,3,3,-9.449999999999999,1.17,-2.34,-0.08,0,-0.17
33.0927928686142,3,3,3,3,-9.41,1.16,-2.39,-0.1,0.02,-0.23
33.11279284954071,3,3,3,3,-9.41,1.14,-2.33,-0.16,0.05,-0.19
33.1327930688858,3,3,3,3,-9.460000000000001,1.09,-2.32,-0.14,0.02,-0.18
33.15279304981232,3,3,3,3,-9.41,1.08,-2.37,-0.09,0.07000000000000001,-0.24
33.17279303073883,3,3,3,3,-9.49,1.01,-2.3,-0.12,0.05,-0.21
33.19279301166534,3,3,3,3,-9.449999999999999,1.04,-2.37,-0.08,-0.04,-0.25
33.21279299259186,3,3,3,3,-9.4,1.07,-2.23,-0.07000000000000001,0.05,-0.22
33.23279297351837,3,3,3,3,-9.44,1.09,-2.25,-0.12,0.1,-0.3
33.25279295444489,3,3,3,3,-9.449999999999999,1.09,-2.31,-0.22,0.1,-0.24
33.2727929353714,3,3,3,3,-9.43,1.01,-2.35,-0.17,-0.04,-0.2
33.29279291629791,3,3,3,3,-9.44,1.02,-2.4,-0.02,0,-0.19
33.31279289722443,3,3,3,3,-9.449999999999999,1.09,-2.3,0.03,0.09,-0.17
33.33279287815094,3,3,3,3,-9.470000000000001,1.05,-2.26,-0.03,0.07000000000000001,-0.14
33.35279285907745,3,3,3,3,-9.43,1.08,-2.31,-0.01,0.05,-0.14
33.37279307842255,3,3,3,3,-9.42,1.06,-2.29,-0.09,0.07000000000000001,-0.13
33.39279305934906,3,3,3,3,-9.49,1.13,-2.41,-0.22,0.08,-0.06
33.41279304027557,3,3,3,3,-9.42,1.12,-2.31,-0.31,0,-0.08
33.43279302120209,3,3,3,3,-9.380000000000001,1.07,-2.38,-0.31,0.1,-0.1
33.4527930021286,3,3,3,3,-9.41,1.07,-2.34,-0.4,0.13,-0.08
33.47279298305511,3,3,3,3,-9.460000000000001,0.97,-2.29,-0.32,0.06,-0.1
33.49279296398163,3,3,3,3,-9.43,0.97,-2.35,-0.16,0.08,-0.07000000000000001
33.51279294490814,3,3,3,3,-9.43,1.02,-2.28,-0.19,0.05,-0.03
33.53279292583466,3,3,3,3,-9.43,1.06,-2.37,-0.23,0.01,-0.04
33.55279290676117,3,3,3,3,-9.42,0.99,-2.48,-0.28,0,-0.01
33.57279288768768,3,3,3,3,-9.43,1,-2.38,-0.09,0.02,0.01
33.5927928686142,3,3,3,3,-9.449999999999999,1.04,-2.37,0.04,-0.05,0.12
33.61279284954071,3,3,3,3,-9.449999999999999,1.02,-2.32,-0.04,-0.03,0.13
33.6327930688858,3,3,3,3,-9.4,1.02,-2.26,-0.02,-0.01,0.01
33.65279304981232,3,3,3,3,-9.43,1.05,-2.17,0.05,-0.11,0.12
33.67279303073883,3,3,3,3,-9.58,1.42,-2.18,-0.1,-0.22,0.21
33.69279301166534,3,3,3,3,-9.460000000000001,1.3,-2.55,-0.55,-0.19,0.21
33.71279299259186,3,3,3,3,-9.26,0.88,-2.57,-0.46,-0.03,0.08
33.73279297351837,3,3,3,3,-9.369999999999999,0.97,-2.43,-0.2,-0.05,0.1
33.75279295444489,3,3,3,3,-9.5,1.01,-2.28,-0.24,-0.15,0.14
33.7727929353714,3,3,3,3,-9.460000000000001,1.09,-2.21,-0.25,-0.06,0.07000000000000001
33.79279291629791,3,3,3,3,-9.390000000000001,1,-2.35,-0.09,-0.04,0.14
33.81279289722443,3,3,3,3,-9.43,0.97,-2.33,0.08,-0.13,0.17
33.83379304409027,3,3,3,3,-9.41,0.92,-2.42,0.32,-0.06,0.18
33.85379302501678,3,3,3,3,-9.4,1.04,-2.5,0.34,-0.13,0.27
33.8737930059433,3,3,3,3,-9.449999999999999,1.16,-2.34,0.2,-0.17,0.29
33.89379298686981,3,3,3,3,-9.44,1.16,-2.37,0.02,-0.16,0.23
33.91379296779633,3,3,3,3,-9.4,1.16,-2.28,-0.11,-0.13,0.21
33.93379294872284,3,3,3,3,-9.470000000000001,1.2,-2.23,-0.14,-0.07000000000000001,0.27
33.95379292964935,3,3,3,3,-9.380000000000001,1.31,-2.24,-0.3,-0.17,0.29
33.97379291057587,3,3,3,3,-9.390000000000001,1.11,-2.32,-0.38,-0.23,0.33
33.99379289150238,3,3,3,3,-9.460000000000001,0.98,-2.44,-0.21,-0.28,0.37
34.01379287242889,3,3,3,3,-9.449999999999999,1.07,-2.36,-0.02,-0.23,0.45
34.03379285335541,3,3,3,3,-9.43,1.07,-2.31,0.02,-0.25,0.46
34.0537930727005,3,3,3,3,-9.51,1.14,-2.31,-0.1,-0.39,0.55
34.07379305362701,3,3,3,3,-9.48,1.13,-2.22,-0.1,-0.33,0.52
34.09379303455353,3,3,3,3,-9.43,1.2,-2.31,-0.19,-0.3,0.52
34.11379301548004,3,3,3,3,-9.380000000000001,1.2,-2.26,-0.37,-0.36,0.55
34.13379299640656,3,3,3,3,-9.449999999999999,1.2,-2.31,-0.38,-0.38,0.58
34.15379297733307,3,3,3,3,-9.44,1.25,-2.28,-0.27,-0.4,0.65
34.17379295825958,3,3,3,3,-9.470000000000001,1.08,-2.11,-0.18,-0.51,0.78
34.1937929391861,3,3,3,3,-9.529999999999999,1.05,-2.15,-0.04,-0.58,0.74
34.21379292011261,3,3,3,3,-9.44,1.27,-1.99,-0.07000000000000001,-0.53,0.66
34.23379290103912,3,3,3,3,-9.41,1.32,-2.06,-0.24,-0.5,0.63
34.25379288196564,3,3,3,3,-9.460000000000001,1.33,-2.13,-0.47,-0.63,0.61
34.27379286289215,3,3,3,3,-9.49,1.3,-1.98,-0.66,-0.87,0.6899999999999999
34.29379308223724,3,3,3,3,-9.48,1.02,-1.86,-0.75,-0.97,0.7
34.31379306316376,3,3,3,3,-9.66,0.6,-1.55,-0.9,-1.41,0.77
34.33379304409027,3,3,3,3,-9.93,-0.59,-1.07,-0.77,-2.05,0.7
34.35379302501678,3,3,3,3,-9.92,-0.9399999999999999,-1.04,0.14,-2.5,0.37
34.3737930059433,3,3,3,3,-9.92,-0.7,-1.04,1.44,-2.71,-0.2
34.39379298686981,3,3,3,3,-9.949999999999999,-0.2,-1.25,1.83,-2.57,-0.8
34.41379296779633,3,3,3,3,-9.960000000000001,-0.37,-1.02,1.4,-2.59,-1.47
34.43379294872284,3,3,3,3,-9.93,-1.25,-0.6899999999999999,0.84,-2.56,-2.39
34.45379292964935,3,3,3,3,-10.12,-2.62,-0.39,0.76,-2.73,-4.1
34.47379291057587,3,3,3,3,-10.24,-2.5,-0.08,1.77,-3.51,-5.99
34.49379289150238,3,3,3,3,-10.72,-1.11,-0.5,2.17,-4.38,-7.13
34.51379287242889,3,3,3,3,-10.98,-1.26,-0.97,-0.23,-4.62,-7.72
34.53379285335541,3,3,3,3,-11.17,-2.18,-1.71,-2.86,-3.55,-8.35
34.5537930727005,3,3,3,3,-11.12,-0.67,-1.31,-1.39,-3.25,-8.699999999999999
34.57379305362701,3,3,3,3,-10.49,2.22,-1.12,0.87,-4.11,-7.71
34.59379303455353,3,3,3,3,-10.23,2.86,-1.66,0.7,-3.7,-7.12
34.61379301548004,3,3,3,3,-10.05,1.67,-1.67,-1.61,-3.32,-7.29
34.63379299640656,3,3,3,3,-10.08,0.93,-1.79,-3.15,-2.97,-7.95
34.65379297733307,3,3,3,3,-9.69,0.88,-1.72,-1.79,-2.85,-8.220000000000001
34.67379295825958,3,3,3,3,-9.32,0.8,-1.65,0.28,-2.44,-8.029999999999999
34.6937929391861,3,3,3,3,-9.27,-0.14,-1.75,1.58,-1.9,-7.6
34.71379292011261,3,3,3,3,-9.380000000000001,-0.48,-1.47,3.23,-1.92,-7.53
34.73379290103912,3,3,3,3,-9.529999999999999,-0.7,-1.18,5.27,-1.98,-7.19
34.75379288196564,3,3,3,3,-9.5,-0.55,-0.49,6.92,-2.07,-6.93
34.77379286289215,3,3,3,3,-9.26,-0.5600000000000001,-0.17,8.390000000000001,-2.28,-6.69
34.79379308223724,3,3,3,3,-9.380000000000001,-0.92,-0.87,9.470000000000001,-1.57,-6.4
34.81379306316376,3,3,3,3,-9.08,-0.8100000000000001,-0.79,8.98,-1.8,-6.22
34.83379304409027,3,3,3,3,-8.859999999999999,-0.16,-0.53,7.97,-1.08,-6.08
34.85479295253754,3,3,3,3,-8.630000000000001,-0.19,-0.2,6.9,-1.27,-5.42
34.87479293346405,3,3,3,3,-8.949999999999999,-1.1,-0.71,4.88,-1.49,-4.41
34.89479291439056,3,3,3,3,-9.17,-1.5,-0.19,3.34,-1.67,-4.25
34.91479289531708,3,3,3,3,-9.140000000000001,-2.07,0.25,1.95,-1.86,-3.76
34.93479287624359,3,3,3,3,-8.98,-2.92,0.37,1.39,-1.32,-3.34
34.9547928571701,3,3,3,3,-8.859999999999999,-3.83,0.6,2.15,-2.62,-3.05
34.9747930765152,3,3,3,3,-9.51,-2.91,1.58,2.38,-2.27,-2.44
34.99479305744171,3,3,3,3,-9.25,-2.49,1.38,2.82,-3.02,-1.16
35.01479303836823,3,3,3,3,-8.19,-2.84,1.26,1.52,-2.31,-0.96
35.03479301929474,3,3,3,3,-8.529999999999999,-4.11,0.29,1.57,-1.14,-0.5
35.05479300022125,3,3,3,3,-8.6,-4.07,-0.03,1.39,0.01,-0.29
35.07479298114777,3,3,3,3,-8.58,-2.31,0.18,1.4,0.58,0.4
35.09479296207428,3,3,3,3,-8.369999999999999,-0.89,0,1.21,1.55,2.15
35.11479294300079,3,3,3,3,-9.85,1.36,-0.18,0.33,4.03,3.8
35.13479292392731,3,3,3,3,-11.73,1.27,0.26,-0.66,4.25,5.03
35.15479290485382,3,3,3,3,-12.95,-8.470000000000001,2.45,-3.44,2.82,2.8
35.17479288578033,3,3,3,3,-13.12,-7.58,2.02,-2.34,4.54,2.05
35.19479286670685,3,3,3,3,-10.76,-1.55,-0.21,2.17,4.61,4.23
35.21479284763336,3,3,3,3,-9.029999999999999,0.6899999999999999,-1.9,3.27,5.89,4.53
35.23479306697845,3,3,3,3,-8,1.36,-3.88,4.61,6.59,5.78
35.25479304790497,3,3,3,3,-8.869999999999999,0.45,-2.97,4.43,5.29,6.39
35.27479302883148,3,3,3,3,-9.15,2.79,-2.33,4.88,4.46,7.21
35.294793009758,3,3,3,3,-10.08,2.73,-1.25,2.71,4.49,7.08
35.31479299068451,3,3,3,3,-10.11,0.82,-1.13,-0.2,5.09,6.9
35.33479297161102,3,3,3,3,-9.779999999999999,-0.37,-1.55,-0.85,5.63,6.82
35.35479295253754,3,3,3,3,-9.6,-0.65,-1.35,-0.11,5.33,6.85
35.37479293346405,3,3,3,3,-9.529999999999999,0.36,-1.68,0.4,4.57,7.1
35.39479291439056,3,3,3,3,-9.460000000000001,-0.55,-1.91,1.29,4.92,7.19
35.41479289531708,3,3,3,3,-9.710000000000001,-0.41,-1.99,0.64,4.57,6.58
35.43479287624359,3,3,3,3,-9.57,0.92,-2.18,0.79,3.79,6.25
35.4547928571701,3,3,3,3,-9.369999999999999,1.74,-2.23,0.32,3.93,6.14
35.4747930765152,3,3,3,3,-9.33,1.96,-2.1,-1.51,4.1,5.94
35.49479305744171,3,3,3,3,-9.58,1.3,-2.36,-3.22,4.04,5.6
35.51479303836823,3,3,3,3,-9.460000000000001,0.65,-2.44,-4.04,4.1,5.21
35.53479301929474,3,3,3,3,-9.4,-0.37,-2.58,-4.26,4.05,5.06
35.55479300022125,3,3,3,3,-9.51,-1.04,-2.24,-3.14,3.82,4.89
35.57479298114777,3,3,3,3,-9.779999999999999,-0.72,-2.15,-1.63,3.15,4.61
35.59479296207428,3,3,3,3,-9.970000000000001,-0.15,-2.27,-1.45,2.89,4.17
35.61479294300079,3,3,3,3,-9.369999999999999,0.17,-2.55,-1.76,3.03,3.55
35.63479292392731,3,3,3,3,-9.08,0.01,-2.73,-0.91,2.72,3.19
35.65479290485382,3,3,3,3,-9.210000000000001,0.38,-3.05,0.41,2.68,3.26
35.67479288578033,3,3,3,3,-9.56,0.65,-2.78,1.82,2.67,3.12
35.69479286670685,3,3,3,3,-9.390000000000001,1.71,-2.25,2.67,1.83,3.37
35.71479284763336,3,3,3,3,-9.470000000000001,1.97,-2.4,2.9,1.61,3.78
35.73479306697845,3,3,3,3,-9.48,1.32,-2.98,1.67,1.58,3.79
35.75479304790497,3,3,3,3,-9.279999999999999,0.9399999999999999,-2.89,0,1.78,3.39
35.77479302883148,3,3,3,3,-9.34,1.4,-2.69,-1.45,1.53,2.97
35.794793009758,3,3,3,3,-9.380000000000001,1.1,-2.84,-2.85,1.2,2.72
35.81479299068451,3,3,3,3,-9.210000000000001,1.07,-2.73,-3.74,1.14,2.4
35.83479297161102,3,3,3,3,-9.32,1.28,-2.84,-3.79,0.89,2.29
35.85479295253754,3,3,3,3,-9.01,0.91,-3.25,-3.8,0.98,2.07
35.8757928609848,3,3,3,3,-8.9,0.67,-2.84,-3.46,1.2,1.7
35.8957930803299,3,3,3,3,-9.74,1.44,-2.69,-2.76,1.41,1.46
35.91579306125641,3,3,3,3,-9.359999999999999,2.05,-2.68,-3.11,1.04,2.1
35.93579304218292,3,3,3,3,-9.25,0.99,-2.77,-4.3,1.24,2.27
35.95579302310944,3,3,3,3,-9.16,0.5600000000000001,-2.89,-3.99,1.33,2.14
35.97579300403595,3,3,3,3,-9.23,1.07,-2.93,-3.34,1.42,2.5
35.99579298496246,3,3,3,3,-9.369999999999999,1.16,-2.66,-3.72,1,2.56
36.01579296588898,3,3,3,3,-9.300000000000001,1.17,-2.81,-4.08,0.76,2.73
36.03579294681549,3,3,3,3,-9.210000000000001,1.4,-2.29,-4.75,0.87,2.17
36.055792927742,3,3,3,3,-9.050000000000001,1.66,-2.29,-5.03,1.09,1.98
36.07579290866852,3,3,3,3,-8.960000000000001,1.9,-2.24,-6.26,0.92,2.21
36.09579288959503,3,3,3,3,-9.050000000000001,0.77,-2.46,-7.67,0.4,2.46
36.11579287052155,3,3,3,3,-9.369999999999999,-0.85,-2.63,-8.56,0.55,2.59
36.13579285144806,3,3,3,3,-9.75,-1.66,-3.09,-8.57,1.14,2.62
36.15579307079315,3,3,3,3,-10.67,-2.69,-1.34,-6.98,1.58,2.28
36.17579305171967,3,3,3,3,-11.44,-0.9,-1.3,-3.29,1.65,0.24
36.19579303264618,3,3,3,3,-13.19,1.24,-0.58,-2.01,0.07000000000000001,-1.36
36.21579301357269,3,3,3,3,-13.1,1.34,-0.26,-1.48,-2.6,-3.01
36.23579299449921,3,3,3,3,-11.75,-0.43,-0.33,-3.47,-5.37,-5.88
36.25579297542572,3,3,3,3,-10.76,-1.56,0.6,-4.98,-7.3,-8.470000000000001
36.27579295635223,3,3,3,3,-9.98,-0.4,0.53,-5.6,-7.48,-8.76
36.29579293727875,3,3,3,3,-9.19,0.58,-0.1,-5.63,-6.88,-8.359999999999999
36.31579291820526,3,3,3,3,-8.99,1.39,-1.84,-5.81,-5.56,-8.550000000000001
36.33579289913177,3,3,3,3,-9.43,1.63,-2.39,-5.88,-4.85,-8.779999999999999
36.35579288005829,3,3,3,3,-10.45,2.87,-2.58,-6.05,-5.1,-8.56
36.3757928609848,3,3,3,2,-10.87,3.1,-2.85,-6.74,-5.53,-8.35
36.3957930803299,3,3,3,2,-10.42,1.96,-2.96,-7.86,-5.42,-9.25
36.41579306125641,3,3,3,2,-10.09,1.26,-2.77,-6.95,-4.43,-10.69
36.43579304218292,3,3,3,2,-10.27,1.04,-2.43,-3.84,-3.65,-11.28
36.45579302310944,3,3,3,2,-10.63,0.73,-2.21,-0.93,-3.16,-11.27
36.47579300403595,3,3,3,2,-10.32,0.48,-1.67,2.72,-3.06,-11.07
36.49579298496246,3,3,3,2,-10.17,0.73,-1.41,6.99,-3.02,-10.83
36.51579296588898,3,3,3,2,-9.529999999999999,1.02,-0.95,9.48,-3.28,-10.76
36.53579294681549,3,3,3,2,-9.4,1.18,-0.9,9.85,-3.05,-10.56
36.555792927742,3,3,3,2,-9.279999999999999,0.86,-0.99,9.460000000000001,-2.6,-10.64
36.57579290866852,3,3,3,2,-9.359999999999999,0.6899999999999999,-1.07,9.24,-1.93,-10.82
36.59579288959503,3,3,3,2,-8.98,0.77,-1.17,8.789999999999999,-1.49,-10.69
36.61579287052155,3,3,3,2,-8.93,0.83,-1.19,7.65,-0.93,-10.29
36.63579285144806,3,3,3,2,-8.85,0.45,-1.13,6.22,-0.11,-9.48
36.65579307079315,3,3,3,2,-8.73,0.12,-1.07,4.79,0.49,-8.960000000000001
36.67679297924042,3,3,3,1,-8.720000000000001,-0.43,-0.91,3.41,0.97,-8.529999999999999
36.69579303264618,3,3,3,1,-8.99,-0.8100000000000001,-0.9,2.45,1.1,-8.029999999999999
36.71579301357269,3,3,3,1,-9.35,-1.53,-1.24,2.79,1.19,-7.98
36.73679292201996,3,3,3,1,-9.27,-1.7,-0.49,4.05,0.72,-8.74
36.75579297542572,3,3,3,1,-8.640000000000001,-2.5,-0.65,5.58,0.13,-8.34
36.77579295635223,3,3,3,1,-8.93,-3.43,-0.71,6.68,0.76,-8.289999999999999
36.7967928647995,3,3,3,1,-9.4,-3.2,-0.68,7.29,-0.24,-7.7
36.81579291820526,3,3,3,1,-8.48,-2.46,0.23,7.4,-3.94,-5.92
36.83579289913177,3,3,3,1,-8.51,-2.4,1.35,7.53,-5.96,-3.28
36.85679304599762,3,3,3,1,-8.300000000000001,-2.9,1.73,6.3,-5.01,-1.8
36.8757928609848,3,3,3,1,-8.220000000000001,-3.86,1.78,6.03,-3.01,-0.76
36.89679300785065,3,3,3,1,-8.26,-3.96,0.98,5.17,-1.03,-0.23
36.91679298877716,3,3,3,1,-7.96,-2.87,0.59,3.98,0.44,0.16
36.93679296970367,3,3,3,1,-7.61,-1.56,-0.2,2.65,2.54,1.06
36.95679295063019,3,3,3,1,-7.36,-1.63,-1.05,1.76,4.89,2.38
36.9767929315567,3,3,3,1,-8.220000000000001,-3.04,-1.87,2.13,7.33,4.08
36.99679291248322,3,3,3,1,-11.71,-1.62,-1.56,6.27,7.43,5.99
37.01679289340973,3,3,3,1,-14.61,-7.34,4.47,9.789999999999999,2.53,6.25
37.03679287433624,3,3,3,1,-15.58,-11.41,5.27,12.16,2.51,5.36
37.05679285526276,3,3,3,1,-12.17,-0.5,2.66,13.08,3.04,6.81
37.07679307460785,3,3,3,1,-8.67,4.72,0.23,10.75,4.76,6.3
37.09679305553436,3,3,3,1,-7.34,3.46,-5.61,1.24,10.44,6.97
37.11679303646088,3,3,3,1,-9.34,-0.96,-3.84,-0.97,9.18,6.75
37.13679301738739,3,3,3,1,-9.460000000000001,3.29,-4.13,0.04,5.35,6.16
