timestamp,magCalib,accCalib,gyrCalib,sysCalib,accX,accY,accZ,gyrX,gyrY,gyrZ
-0.003207087516784668,2,3,3,3,-9.35,-0.5600000000000001,2.83,0.15,-0.13,0.21
0.006792902946472168,2,3,3,3,-9.359999999999999,-0.54,2.85,0.15,-0.13,0.21
0.016792893409729,2,3,3,3,-9.380000000000001,-0.54,2.85,0.11,-0.1,0.22
0.02679288387298584,2,3,3,3,-9.380000000000001,-0.52,2.85,0.03,-0.05,0.22
0.03679287433624268,2,3,3,3,-9.4,-0.5,2.76,-0.01,-0.1,0.23
0.04679286479949951,2,3,3,3,-9.4,-0.5600000000000001,2.78,-0.06,-0.09,0.2
0.05679285526275635,2,3,3,3,-9.390000000000001,-0.55,2.78,-0.06,-0.09,0.2
0.06679308414459229,2,3,3,3,-9.380000000000001,-0.5600000000000001,2.84,0.02,0,0.18
0.07679307460784912,2,3,3,3,-9.369999999999999,-0.5600000000000001,2.88,-0.02,-0.01,0.17
0.08679306507110596,2,3,3,3,-9.33,-0.54,2.71,-0.11,0.04,0.13
0.09679305553436279,2,3,3,3,-9.359999999999999,-0.54,2.76,-0.17,0.03,0.13
0.1067930459976196,2,3,3,3,-9.4,-0.55,2.82,-0.17,0.03,0.13
0.1167930364608765,2,3,3,3,-9.390000000000001,-0.52,2.81,-0.22,0.04,0.12
0.1267930269241333,2,3,3,3,-9.390000000000001,-0.5600000000000001,2.76,-0.37,0.07000000000000001,0.14
0.1367930173873901,2,3,3,3,-9.390000000000001,-0.58,2.71,-0.39,0.06,0.14
0.146793007850647,2,3,3,3,-9.380000000000001,-0.58,2.73,-0.3,0.06,0.21
0.1567929983139038,2,3,3,3,-9.359999999999999,-0.63,2.75,-0.3,0.06,0.21
0.1667929887771606,2,3,3,3,-9.44,-0.62,2.78,-0.08,-0.06,0.31
0.1767929792404175,2,3,3,3,-9.44,-0.6,2.79,0.14,-0.36,0.4
0.1867929697036743,2,3,3,3,-9.390000000000001,-0.65,2.72,0.12,-0.61,0.43
0.1967929601669312,2,3,3,3,-9.279999999999999,-0.65,2.63,-0.12,-0.43,0.42
0.206792950630188,2,3,3,3,-9.300000000000001,-0.65,2.63,-0.12,-0.43,0.42
0.2167929410934448,2,3,3,3,-9.35,-0.63,2.69,-0.06,-0.23,0.41
0.2267929315567017,2,3,3,3,-9.369999999999999,-0.62,2.76,0.06,-0.18,0.41
0.2367929220199585,2,3,3,3,-9.369999999999999,-0.54,2.67,-0.03,-0.18,0.34
0.2467929124832153,2,3,3,3,-9.369999999999999,-0.54,2.79,-0.04,-0.12,0.29
0.2567929029464722,2,3,3,3,-9.390000000000001,-0.54,2.81,-0.04,-0.12,0.29
0.266792893409729,2,3,3,3,-9.41,-0.47,2.82,0.02,-0.11,0.31
0.2767928838729858,2,3,3,3,-9.42,-0.48,2.8,0.13,-0.24,0.33
0.2867928743362427,2,3,3,3,-9.380000000000001,-0.48,2.65,-0.04,-0.26,0.28
0.2967928647994995,2,3,3,3,-9.42,-0.51,2.68,-0.25,-0.12,0.21
0.3067928552627563,2,3,3,3,-9.44,-0.5,2.73,-0.27,0,0.17
0.3167930841445923,2,3,3,3,-9.44,-0.5,2.76,-0.29,0.02,0.13
0.3267930746078491,2,3,3,3,-9.449999999999999,-0.5,2.79,-0.23,0.01,0.08
0.336793065071106,2,3,3,3,-9.43,-0.5,2.73,-0.18,-0.15,0.1
0.3467930555343628,2,3,3,3,-9.369999999999999,-0.52,2.72,-0.29,-0.27,0.09
0.3567930459976196,2,3,3,3,-9.33,-0.5600000000000001,2.77,-0.4,-0.24,0.12
0.3667930364608765,2,3,3,3,-9.33,-0.58,2.8,-0.49,-0.2,0.11
0.3767930269241333,2,3,3,3,-9.35,-0.55,2.76,-0.55,-0.12,0.15
0.3867930173873901,2,3,3,3,-9.369999999999999,-0.5600000000000001,2.65,-0.59,-0.06,0.16
0.396793007850647,2,3,3,3,-9.369999999999999,-0.55,2.73,-0.57,0.02,0.17
0.4067929983139038,2,3,3,3,-9.380000000000001,-0.55,2.75,-0.54,0.05,0.14
0.4167929887771606,2,3,3,3,-9.369999999999999,-0.53,2.77,-0.53,0.04,0.12
0.4267929792404175,2,3,3,3,-9.369999999999999,-0.53,2.76,-0.51,0.04,0.11
0.4367929697036743,2,3,3,3,-9.359999999999999,-0.55,2.69,-0.5600000000000001,0,0.13
0.4467929601669312,2,3,3,3,-9.35,-0.5600000000000001,2.72,-0.63,0.02,0.15
0.456792950630188,2,3,3,3,-9.380000000000001,-0.54,2.73,-0.71,0.05,0.16
0.4667929410934448,2,3,3,3,-9.390000000000001,-0.54,2.83,-0.66,0.11,0.15
0.4767929315567017,2,3,3,3,-9.380000000000001,-0.5600000000000001,2.8,-0.6899999999999999,0.09,0.14
0.4867929220199585,2,3,3,3,-9.369999999999999,-0.54,2.71,-0.67,0.18,0.13
0.5367928743362427,2,3,3,3,-9.369999999999999,-0.58,2.64,-0.59,0.02,0.17
0.5467928647994995,2,3,3,3,-9.380000000000001,-0.58,2.73,-0.5,0.06,0.19
0.5567928552627563,2,3,3,3,-9.369999999999999,-0.61,2.74,-0.5,0.05,0.18
0.5667930841445923,2,3,3,3,-9.390000000000001,-0.61,2.74,-0.5600000000000001,0.07000000000000001,0.16
0.5767930746078491,2,3,3,3,-9.380000000000001,-0.61,2.75,-0.5600000000000001,0.11,0.16
0.586793065071106,2,3,3,3,-9.42,-0.6,2.69,-0.54,0.13,0.13
0.5967930555343628,2,3,3,3,-9.42,-0.59,2.73,-0.51,0.13,0.09
0.6067930459976196,2,3,3,3,-9.42,-0.57,2.74,-0.44,0.09,0.1
0.6167930364608765,2,3,3,3,-9.44,-0.6,2.77,-0.42,0.04,0.09
0.6267930269241333,2,3,3,3,-9.4,-0.6,2.72,-0.36,0.01,0.04
0.6367930173873901,2,3,3,3,-9.369999999999999,-0.64,2.61,-0.38,0.01,0.02
0.646793007850647,2,3,3,3,-9.359999999999999,-0.63,2.66,-0.34,0.1,0.03
0.6567929983139038,2,3,3,3,-9.4,-0.6,2.72,-0.32,0.11,0.03
0.6667929887771606,2,3,3,3,-9.42,-0.62,2.79,-0.23,0.04,0.09
0.6767929792404175,2,3,3,3,-9.390000000000001,-0.6,2.76,-0.18,-0.01,0.08
0.6867929697036743,2,3,3,3,-9.380000000000001,-0.6,2.65,-0.13,0.02,0.1
0.6967929601669312,2,3,3,3,-9.369999999999999,-0.54,2.77,0,0.02,0.13
0.706792950630188,2,3,3,3,-9.380000000000001,-0.53,2.78,0.09,-0.03,0.16
0.7167929410934448,2,3,3,3,-9.390000000000001,-0.5600000000000001,2.79,0.06,-0.13,0.16
0.7267929315567017,2,3,3,3,-9.4,-0.5600000000000001,2.78,-0.03,-0.15,0.14
0.7367929220199585,2,3,3,3,-9.43,-0.59,2.62,-0.1,-0.15,0.15
0.7467929124832153,2,3,3,3,-9.43,-0.62,2.64,-0.15,-0.11,0.12
0.7567929029464722,2,3,3,3,-9.390000000000001,-0.65,2.63,-0.23,-0.03,0.13
0.766792893409729,2,3,3,3,-9.41,-0.64,2.7,-0.28,0.01,0.11
0.7767928838729858,2,3,3,3,-9.41,-0.63,2.69,-0.23,0.03,0.11
0.7867928743362427,2,3,3,3,-9.44,-0.61,2.64,-0.12,-0.02,0.15
0.7967928647994995,2,3,3,3,-9.43,-0.58,2.67,0,-0.11,0.14
0.8067928552627563,2,3,3,3,-9.4,-0.58,2.77,0.13,-0.19,0.16
0.8167930841445923,2,3,3,3,-9.359999999999999,-0.59,2.79,0.17,-0.28,0.15
0.8267930746078491,2,3,3,3,-9.33,-0.6,2.74,-0.01,-0.23,0.14
0.836793065071106,2,3,3,3,-9.33,-0.6,2.64,-0.18,-0.12,0.14
0.8467930555343628,2,3,3,3,-9.4,-0.6,2.67,-0.31,-0.01,0.14
0.8567930459976196,2,3,3,3,-9.42,-0.62,2.7,-0.29,0.07000000000000001,0.12
0.8667930364608765,2,3,3,3,-9.43,-0.6,2.69,-0.2,0.07000000000000001,0.09
0.8767930269241333,2,3,3,3,-9.41,-0.62,2.73,-0.11,0.05,0.09
0.8867930173873901,2,3,3,3,-9.42,-0.63,2.62,-0.03,-0.03,0.07000000000000001
0.896793007850647,2,3,3,3,-9.41,-0.61,2.69,0.01,-0.1,0.08
0.9067929983139038,2,3,3,3,-9.42,-0.6,2.72,0.07000000000000001,-0.11,0.09
0.9167929887771606,2,3,3,3,-9.369999999999999,-0.65,2.76,-0.01,-0.16,0.09
0.9267929792404175,2,3,3,3,-9.390000000000001,-0.66,2.69,-0.1,-0.12,0.11
0.9367929697036743,2,3,3,3,-9.390000000000001,-0.67,2.58,-0.15,-0.07000000000000001,0.09
0.9467929601669312,2,3,3,3,-9.41,-0.65,2.61,-0.15,0.03,0.04
0.956792950630188,2,3,3,3,-9.42,-0.65,2.72,-0.09,0.08,0.05
0.9677928686141968,2,3,3,3,-9.41,-0.65,2.76,-0.03,0.06,0.03
0.9777928590774536,2,3,3,3,-9.4,-0.64,2.77,-0.09,0.06,0.01
0.9877928495407104,2,3,3,3,-9.380000000000001,-0.62,2.63,-0.11,0.07000000000000001,0.01
0.9977930784225464,2,3,3,3,-9.41,-0.62,2.71,-0.12,0.08,0.02
1.007793068885803,2,3,3,3,-9.390000000000001,-0.62,2.71,-0.16,0.03,0
1.01779305934906,2,3,3,3,-9.4,-0.63,2.71,-0.23,0.03,0.03
1.027793049812317,2,3,3,3,-9.43,-0.63,2.74,-0.24,0.07000000000000001,-0.01
1.037793040275574,2,3,3,3,-9.390000000000001,-0.63,2.66,-0.27,0.09,-0.01
1.047793030738831,2,3,3,3,-9.380000000000001,-0.64,2.71,-0.27,0.17,-0.07000000000000001
1.057793021202087,2,3,3,3,-9.390000000000001,-0.62,2.74,-0.23,0.26,-0.07000000000000001
1.067793011665344,2,3,3,3,-9.4,-0.63,2.75,-0.22,0.24,-0.07000000000000001
1.077793002128601,2,3,3,3,-9.4,-0.6,2.72,-0.16,0.2,-0.08
1.087792992591858,2,3,3,3,-9.43,-0.64,2.65,-0.14,0.16,-0.05
1.097792983055115,2,3,3,3,-9.42,-0.64,2.67,-0.12,0.12,-0.04
1.107792973518372,2,3,3,3,-9.380000000000001,-0.65,2.71,-0.12,0.12,-0.06
1.117792963981628,2,3,3,3,-9.369999999999999,-0.67,2.71,-0.09,0.17,-0.06
1.127792954444885,2,3,3,3,-9.4,-0.68,2.73,-0.06,0.15,-0.07000000000000001
1.137792944908142,2,3,3,3,-9.42,-0.6899999999999999,2.63,-0.06,0.12,-0.09
1.147792935371399,2,3,3,3,-9.43,-0.66,2.67,-0.03,0.11,-0.07000000000000001
1.157792925834656,2,3,3,3,-9.43,-0.65,2.7,0.04,0.07000000000000001,-0.05
1.167792916297913,2,3,3,3,-9.4,-0.63,2.73,0.02,0.06,-0.06
1.177792906761169,2,3,3,3,-9.42,-0.62,2.7,-0.03,0.05,-0.03
1.187792897224426,2,3,3,3,-9.390000000000001,-0.64,2.63,-0.04,0.04,-0.06
1.197792887687683,2,3,3,3,-9.43,-0.64,2.72,-0.04,0.05,-0.06
1.20779287815094,2,3,3,3,-9.42,-0.64,2.72,-0.05,0.03,-0.04
1.217792868614197,2,3,3,3,-9.42,-0.65,2.72,-0.05,0.02,-0.04
1.227792859077454,2,3,3,3,-9.390000000000001,-0.67,2.68,0.05,0.05,-0.05
1.23779284954071,2,3,3,3,-9.41,-0.66,2.59,0.11,0.03,-0.08
1.247793078422546,2,3,3,3,-9.380000000000001,-0.67,2.61,0.16,0.01,-0.1
1.257793068885803,2,3,3,3,-9.380000000000001,-0.62,2.64,0.18,0.05,-0.11
1.26779305934906,2,3,3,3,-9.43,-0.63,2.7,0.21,0.04,-0.1
1.277793049812317,2,3,3,3,-9.42,-0.62,2.7,0.21,-0.03,-0.08
1.287793040275574,2,3,3,3,-9.41,-0.62,2.61,0.14,-0.03,-0.09
1.297793030738831,2,3,3,3,-9.43,-0.64,2.67,0.13,0.03,-0.08
1.307793021202087,2,3,3,3,-9.390000000000001,-0.6,2.67,0.1,0.07000000000000001,-0.09
1.317793011665344,2,3,3,3,-9.390000000000001,-0.6,2.71,0.1,0.05,-0.07000000000000001
1.327793002128601,2,3,3,3,-9.4,-0.64,2.71,0.13,0.03,-0.05
1.337792992591858,2,3,3,3,-9.41,-0.63,2.61,0.17,0.04,-0.07000000000000001
1.347792983055115,2,3,3,3,-9.41,-0.65,2.67,0.17,0.01,-0.09
1.357792973518372,2,3,3,3,-9.41,-0.66,2.66,0.15,-0.01,-0.12
1.367792963981628,2,3,3,3,-9.4,-0.65,2.68,0.11,-0.01,-0.11
1.377792954444885,2,3,3,3,-9.4,-0.65,2.66,0.12,0.05,-0.09
1.387792944908142,2,3,3,3,-9.4,-0.61,2.58,0.14,0.05,-0.08
1.397792935371399,2,3,3,3,-9.380000000000001,-0.59,2.64,0.15,0.01,-0.03
1.407792925834656,2,3,3,3,-9.390000000000001,-0.58,2.7,0.17,0.01,-0.01
1.417792916297913,2,3,3,3,-9.369999999999999,-0.6,2.72,0.09,-0.03,0.05
1.427792906761169,2,3,3,3,-9.369999999999999,-0.62,2.71,0.02,-0.05,0.06
1.437792897224426,2,3,3,3,-9.4,-0.62,2.61,-0.03,-0.04,0.09
1.447792887687683,2,3,3,3,-9.43,-0.64,2.64,-0.11,-0.05,0.06
1.45779287815094,2,3,3,3,-9.43,-0.63,2.67,-0.1,-0.03,0.04
1.467792868614197,2,3,3,3,-9.44,-0.63,2.68,-0.09,-0.01,0.05
1.477792859077454,2,3,3,3,-9.43,-0.63,2.72,-0.04,0.02,0.02
1.48779284954071,2,3,3,3,-9.41,-0.65,2.57,-0.02,0.02,0.03
1.497793078422546,2,3,3,3,-9.42,-0.64,2.62,-0.03,0,-0.02
1.507793068885803,2,3,3,3,-9.4,-0.62,2.68,0.01,-0.05,-0.01
1.51779305934906,2,3,3,3,-9.41,-0.62,2.73,0.01,-0.05,0.02
1.527793049812317,2,3,3,3,-9.390000000000001,-0.63,2.68,-0.01,-0.08,0.02
1.537793040275574,2,3,3,3,-9.369999999999999,-0.64,2.63,-0.05,-0.05,0.02
1.547793030738831,2,3,3,3,-9.359999999999999,-0.62,2.69,-0.11,-0.07000000000000001,0.03
1.557793021202087,2,3,3,3,-9.380000000000001,-0.63,2.69,-0.12,-0.02,0
1.567793011665344,2,3,3,3,-9.41,-0.65,2.69,-0.11,0.09,0
1.577793002128601,2,3,3,3,-9.4,-0.65,2.67,-0.06,0.09,0.02
1.587792992591858,2,3,3,3,-9.43,-0.66,2.58,-0.01,0.1,-0.01
1.597792983055115,2,3,3,3,-9.460000000000001,-0.66,2.6,-0.02,0.08,-0.03
1.607792973518372,2,3,3,3,-9.43,-0.65,2.67,0.01,0.04,-0.06
1.617792963981628,2,3,3,3,-9.42,-0.65,2.71,0.06,-0.04,-0.07000000000000001
1.627792954444885,2,3,3,3,-9.4,-0.65,2.73,0.08,-0.05,-0.09
1.637792944908142,2,3,3,3,-9.390000000000001,-0.65,2.62,0.07000000000000001,-0.07000000000000001,-0.09
1.647792935371399,2,3,3,3,-9.380000000000001,-0.67,2.67,0.07000000000000001,-0.01,-0.08
1.657792925834656,2,3,3,3,-9.369999999999999,-0.66,2.68,0.04,0.01,-0.08
1.667792916297913,2,3,3,3,-9.380000000000001,-0.65,2.71,0.01,0.03,-0.05
1.677792906761169,2,3,3,3,-9.4,-0.64,2.62,0,0.01,-0.07000000000000001
1.687792897224426,2,3,3,3,-9.43,-0.64,2.58,0.05,0.01,-0.04
1.697792887687683,2,3,3,3,-9.42,-0.62,2.65,0.09,0,0
1.70779287815094,2,3,3,3,-9.4,-0.63,2.68,0.12,-0.04,-0.01
1.717792868614197,2,3,3,3,-9.41,-0.62,2.7,0.06,-0.08,0.02
1.727792859077454,2,3,3,3,-9.41,-0.62,2.71,0.05,-0.04,-0.01
1.73779284954071,2,3,3,3,-9.390000000000001,-0.64,2.61,0.03,-0.05,-0.01
1.747793078422546,2,3,3,3,-9.390000000000001,-0.63,2.64,-0.05,-0.01,-0.03
1.757793068885803,2,3,3,3,-9.44,-0.62,2.68,-0.09,0.05,0.01
1.76779305934906,2,3,3,3,-9.42,-0.61,2.68,-0.1,0.05,0.02
1.777793049812317,2,3,3,3,-9.449999999999999,-0.61,2.72,-0.09,0.05,0.01
1.787793040275574,2,3,3,3,-9.41,-0.6,2.63,-0.13,0.02,0.03
1.797793030738831,2,3,3,3,-9.4,-0.6,2.7,-0.13,0,0.04
1.807793021202087,2,3,3,3,-9.4,-0.63,2.72,-0.14,-0.04,0.06
1.817793011665344,2,3,3,3,-9.380000000000001,-0.64,2.71,-0.28,-0.03,0.08
1.827793002128601,2,3,3,3,-9.390000000000001,-0.64,2.67,-0.36,-0.02,0.09
1.837792992591858,2,3,3,3,-9.44,-0.67,2.6,-0.41,-0.01,0.09
1.847792983055115,2,3,3,3,-9.44,-0.68,2.64,-0.39,0,0.05
1.857792973518372,2,3,3,3,-9.42,-0.7,2.65,-0.39,0.01,0.07000000000000001
1.867792963981628,2,3,3,3,-9.43,-0.72,2.69,-0.36,0.01,0.04
1.877792954444885,2,3,3,3,-9.43,-0.74,2.66,-0.3,0.01,0.03
1.887792944908142,2,3,3,3,-9.43,-0.76,2.58,-0.26,0,0
1.897792935371399,2,3,3,3,-9.4,-0.78,2.61,-0.25,-0.02,0
1.907792925834656,2,3,3,3,-9.41,-0.78,2.64,-0.26,-0.04,0.03
1.917792916297913,2,3,3,3,-9.41,-0.77,2.65,-0.28,-0.01,0.05
1.927792906761169,2,3,3,3,-9.42,-0.79,2.66,-0.3,-0.02,0.07000000000000001
1.937792897224426,2,3,3,3,-9.43,-0.8,2.57,-0.21,-0.02,0.06
1.947792887687683,2,3,3,3,-9.41,-0.82,2.61,-0.16,0,0.06
1.977792859077454,2,3,3,3,-9.41,-0.8100000000000001,2.66,0,-0.05,0.02
1.98779284954071,2,3,3,3,-9.42,-0.8100000000000001,2.56,0.05,-0.07000000000000001,0.01
1.997793078422546,2,3,3,3,-9.43,-0.79,2.59,0.05,-0.01,0
2.008792996406555,2,3,3,3,-9.43,-0.8,2.62,0.06,-0.03,0.01
2.018792986869812,2,3,3,3,-9.4,-0.82,2.63,0.07000000000000001,-0.05,-0.01
2.028792977333069,2,3,3,3,-9.41,-0.79,2.64,0.11,-0.04,0.03
2.038792967796326,2,3,3,3,-9.42,-0.78,2.54,0.14,-0.06,0.04
2.048792958259583,2,3,3,3,-9.41,-0.77,2.61,0.18,-0.03,0.05
2.058792948722839,2,3,3,3,-9.41,-0.74,2.62,0.19,-0.08,0.06
2.068792939186096,2,3,3,3,-9.42,-0.72,2.65,0.13,-0.09,0.03
2.078792929649353,2,3,3,3,-9.43,-0.68,2.68,0.14,-0.07000000000000001,0.03
2.08879292011261,2,3,3,3,-9.44,-0.68,2.6,0.19,-0.08,0.03
2.098792910575867,2,3,3,3,-9.390000000000001,-0.65,2.69,0.25,-0.08,0
2.108792901039124,2,3,3,3,-9.380000000000001,-0.65,2.71,0.22,-0.1,-0.02
2.11879289150238,2,3,3,3,-9.369999999999999,-0.65,2.71,0.19,-0.07000000000000001,-0.03
2.128792881965637,2,3,3,3,-9.390000000000001,-0.64,2.72,0.17,-0.05,-0.04
2.138792872428894,2,3,3,3,-9.4,-0.68,2.58,0.16,0.02,-0.05
2.148792862892151,2,3,3,3,-9.42,-0.67,2.63,0.08,0,-0.05
2.158792853355408,2,3,3,3,-9.44,-0.66,2.63,0.01,0.06,-0.08
2.168793082237244,2,3,3,3,-9.42,-0.64,2.64,0.02,0.06,-0.06
2.1787930727005,2,3,3,3,-9.44,-0.66,2.63,0.03,0.05,-0.06
2.188793063163757,2,3,3,3,-9.44,-0.68,2.55,0.03,0.06,-0.08
2.198793053627014,2,3,3,3,-9.449999999999999,-0.68,2.61,0.06,0.02,-0.07000000000000001
2.208793044090271,2,3,3,3,-9.43,-0.67,2.66,0.1,-0.05,-0.06
2.218793034553528,2,3,3,3,-9.4,-0.68,2.72,0.09,-0.11,-0.04
2.228793025016785,2,3,3,3,-9.369999999999999,-0.68,2.7,0.05,-0.11,-0.05
2.238793015480042,2,3,3,3,-9.380000000000001,-0.67,2.62,0.06,-0.06,-0.02
2.248793005943298,2,3,3,3,-9.359999999999999,-0.68,2.66,0.01,-0.03,-0.01
2.258792996406555,2,3,3,3,-9.390000000000001,-0.68,2.64,-0.02,-0.04,0.02
2.268792986869812,2,3,3,3,-9.4,-0.65,2.68,-0.02,-0.04,0.03
2.278792977333069,2,3,3,3,-9.43,-0.64,2.72,0.03,-0.02,0.05
2.288792967796326,2,3,3,3,-9.41,-0.63,2.59,0.05,-0.02,0.04
2.298792958259583,2,3,3,3,-9.41,-0.64,2.61,0.03,-0.09,0.02
2.308792948722839,2,3,3,3,-9.380000000000001,-0.67,2.66,-0.02,-0.06,0.01
2.318792939186096,2,3,3,3,-9.369999999999999,-0.65,2.7,-0.02,-0.03,0.01
2.328792929649353,2,3,3,3,-9.41,-0.71,2.65,0.03,-0.03,-0.01
2.33879292011261,2,3,3,3,-9.390000000000001,-0.7,2.53,-0.03,-0.07000000000000001,-0.04
2.348792910575867,2,3,3,3,-9.41,-0.7,2.63,-0.04,-0.05,-0.02
2.358792901039124,2,3,3,3,-9.449999999999999,-0.6899999999999999,2.65,0.02,0,-0.01
2.36879289150238,2,3,3,3,-9.43,-0.71,2.7,0.09,-0.03,0
2.378792881965637,2,3,3,3,-9.4,-0.72,2.71,0.07000000000000001,-0.07000000000000001,0.01
2.388792872428894,2,3,3,3,-9.380000000000001,-0.7,2.59,0.05,-0.04,0.02
2.398792862892151,2,3,3,3,-9.380000000000001,-0.7,2.61,-0.01,-0.03,0.06
2.408792853355408,2,3,3,3,-9.43,-0.68,2.64,-0.06,-0.03,0.05
2.418793082237244,2,3,3,3,-9.44,-0.68,2.67,-0.02,0,0.09
2.4287930727005,2,3,3,3,-9.41,-0.6899999999999999,2.65,-0.03,-0.01,0.13
2.438793063163757,2,3,3,3,-9.44,-0.68,2.57,0.01,-0.05,0.12
2.448793053627014,2,3,3,3,-9.41,-0.6899999999999999,2.63,0.07000000000000001,-0.07000000000000001,0.09
2.458793044090271,2,3,3,3,-9.42,-0.72,2.66,0.08,-0.09,0.06
2.468793034553528,2,3,3,3,-9.41,-0.73,2.69,0.13,-0.04,0.05
2.478793025016785,2,3,3,3,-9.4,-0.72,2.63,0.06,-0.06,0.04
2.488793015480042,2,3,3,3,-9.390000000000001,-0.71,2.57,0.02,-0.03,0.03
2.498793005943298,2,3,3,3,-9.4,-0.71,2.61,-0.03,-0.02,0.03
2.508792996406555,2,3,3,3,-9.42,-0.72,2.69,-0.03,-0.02,0.01
2.518792986869812,2,3,3,3,-9.4,-0.73,2.64,-0.05,-0.03,0.04
2.528792977333069,2,3,3,3,-9.43,-0.72,2.66,-0.02,0.04,0.06
2.538792967796326,2,3,3,3,-9.4,-0.73,2.55,0.01,-0.02,0.06
2.548792958259583,2,3,3,3,-9.390000000000001,-0.75,2.58,0,-0.04,0.04
2.558792948722839,2,3,3,3,-9.43,-0.76,2.64,-0.05,-0.04,0.08
2.568792939186096,2,3,3,3,-9.449999999999999,-0.75,2.67,0.04,0,0.06
2.578792929649353,2,3,3,3,-9.449999999999999,-0.74,2.67,0.08,-0.03,0.05
2.58879292011261,2,3,3,3,-9.41,-0.72,2.58,0.03,-0.06,0.06
2.598792910575867,2,3,3,3,-9.44,-0.71,2.64,0.03,-0.03,0.06
2.608792901039124,2,3,3,3,-9.41,-0.71,2.68,0.04,-0.03,0.09
2.61879289150238,2,3,3,3,-9.4,-0.7,2.69,-0.01,-0.08,0.06
2.628792881965637,2,3,3,3,-9.41,-0.6899999999999999,2.59,-0.02,-0.02,0.06
2.638792872428894,2,3,3,3,-9.4,-0.68,2.58,-0.01,-0.05,0.04
2.648792862892151,2,3,3,3,-9.41,-0.71,2.64,0,-0.01,0.04
2.658792853355408,2,3,3,3,-9.42,-0.7,2.64,-0.06,-0.03,0.03
2.668793082237244,2,3,3,3,-9.380000000000001,-0.73,2.67,-0.1,-0.02,0.04
2.6787930727005,2,3,3,3,-9.42,-0.75,2.66,-0.1,0.05,0.04
2.688793063163757,2,3,3,3,-9.44,-0.74,2.55,-0.1,0.04,0.03
2.698793053627014,2,3,3,3,-9.43,-0.74,2.57,-0.07000000000000001,0.01,0.06
2.708793044090271,2,3,3,3,-9.42,-0.74,2.63,-0.04,-0.03,0.04
2.718793034553528,2,3,3,3,-9.4,-0.7,2.69,-0.01,-0.05,0.05
2.728793025016785,2,3,3,3,-9.4,-0.72,2.66,0.02,-0.05,0.08
2.738793015480042,2,3,3,3,-9.42,-0.68,2.58,0.01,-0.05,0.09
2.748793005943298,2,3,3,3,-9.41,-0.6899999999999999,2.63,-0.01,-0.04,0.1
2.758792996406555,2,3,3,3,-9.42,-0.7,2.67,-0.05,-0.03,0.11
2.768792986869812,2,3,3,3,-9.41,-0.6899999999999999,2.68,-0.07000000000000001,-0.04,0.11
2.778792977333069,2,3,3,3,-9.42,-0.71,2.63,-0.1,-0.06,0.11
2.788792967796326,2,3,3,3,-9.4,-0.72,2.54,-0.14,-0.05,0.08
2.798792958259583,2,3,3,3,-9.41,-0.72,2.62,-0.13,-0.01,0.06
2.808792948722839,2,3,3,3,-9.44,-0.73,2.65,-0.1,0.01,0.06
2.818792939186096,2,3,3,3,-9.43,-0.72,2.67,-0.09,0.03,0.04
2.828792929649353,2,3,3,3,-9.43,-0.72,2.64,-0.1,0.04,0.03
2.83879292011261,2,3,3,3,-9.43,-0.74,2.57,-0.03,0.07000000000000001,0.04
2.848792910575867,2,3,3,3,-9.44,-0.75,2.6,-0.03,0.01,0.01
2.858792901039124,2,3,3,3,-9.41,-0.73,2.65,-0.04,-0.02,0.01
2.86879289150238,2,3,3,3,-9.43,-0.71,2.66,-0.05,-0.02,0.05
2.878792881965637,2,3,3,3,-9.4,-0.71,2.66,-0.04,-0.04,0.04
2.889793038368225,2,3,3,3,-9.41,-0.72,2.6,-0.04,-0.02,0.05
2.898792862892151,2,3,3,3,-9.380000000000001,-0.74,2.63,-0.09,-0.05,0.05
2.908792853355408,2,3,3,3,-9.369999999999999,-0.74,2.65,-0.07000000000000001,0.01,0.04
2.919793009757996,2,3,3,3,-9.41,-0.78,2.67,-0.05,-0.01,0.05
2.9287930727005,2,3,3,3,-9.41,-0.76,2.67,-0.03,0,0.05
2.938793063163757,2,3,3,3,-9.470000000000001,-0.77,2.56,-0.04,0.01,0.05
2.949792981147766,2,3,3,3,-9.460000000000001,-0.75,2.57,0.02,-0.01,0.05
2.958793044090271,2,3,3,3,-9.44,-0.73,2.6,0.03,-0.03,0.03
2.968793034553528,2,3,3,3,-9.44,-0.7,2.67,0.04,0,0
2.979792952537537,2,3,3,3,-9.44,-0.72,2.69,0.11,0,0
2.988793015480042,2,3,3,3,-9.43,-0.71,2.59,0.1,-0.04,-0.06
2.998793005943298,2,3,3,3,-9.42,-0.72,2.62,0.05,-0.05,-0.06
3.009792923927307,2,3,3,3,-9.390000000000001,-0.73,2.67,-0.01,-0.06,-0.02
3.018792986869812,2,3,3,3,-9.4,-0.72,2.69,-0.03,-0.02,0
3.029792904853821,2,3,3,3,-9.390000000000001,-0.72,2.68,-0.04,-0.01,0.01
3.039792895317078,2,3,3,3,-9.41,-0.73,2.55,-0.08,0.03,0.02
3.049792885780334,2,3,3,3,-9.44,-0.71,2.58,-0.01,0.07000000000000001,0.02
3.059792876243591,2,3,3,3,-9.460000000000001,-0.72,2.62,0.05,0.01,0.01
3.069792866706848,2,3,3,3,-9.44,-0.71,2.64,0.12,-0.09,0.04
3.079792857170105,2,3,3,3,-9.44,-0.74,2.68,0.19,-0.1,0.01
3.089792847633362,2,3,3,3,-9.43,-0.73,2.56,0.19,-0.11,-0.02
3.099793076515198,2,3,3,3,-9.42,-0.75,2.62,0.2,-0.11,-0.01
3.109793066978455,2,3,3,3,-9.42,-0.75,2.63,0.16,-0.08,-0.02
3.119793057441711,2,3,3,3,-9.41,-0.73,2.65,0.05,-0.1,0
3.129793047904968,2,3,3,3,-9.42,-0.74,2.6,0.04,-0.02,0.02
3.139793038368225,2,3,3,3,-9.42,-0.72,2.51,0.01,-0.03,0.01
3.149793028831482,2,3,3,3,-9.41,-0.74,2.55,0.03,-0.03,0.01
3.159793019294739,2,3,3,3,-9.390000000000001,-0.73,2.63,0.09,-0.02,0.01
3.169793009757996,2,3,3,3,-9.380000000000001,-0.74,2.65,0.14,-0.04,0.04
3.179793000221252,2,3,3,3,-9.42,-0.76,2.63,0.13,-0.06,0.02
3.189792990684509,2,3,3,3,-9.369999999999999,-0.74,2.58,0.14,-0.02,0.04
3.199792981147766,2,3,3,3,-9.390000000000001,-0.73,2.64,0.19,-0.07000000000000001,0.06
3.209792971611023,2,3,3,3,-9.41,-0.73,2.63,0.16,-0.07000000000000001,0.04
3.21979296207428,2,3,3,3,-9.42,-0.6899999999999999,2.67,0.15,-0.03,0.07000000000000001
3.229792952537537,2,3,3,3,-9.43,-0.6899999999999999,2.64,0.09,-0.07000000000000001,0.06
3.239792943000793,2,3,3,3,-9.449999999999999,-0.67,2.56,0.09,0.01,0.06
3.24979293346405,2,3,3,3,-9.43,-0.67,2.6,0.05,-0.03,0.02
3.259792923927307,2,3,3,3,-9.42,-0.7,2.65,-0.01,-0.03,0.06
3.269792914390564,2,3,3,3,-9.42,-0.72,2.68,-0.02,-0.03,0.05
3.279792904853821,2,3,3,3,-9.41,-0.77,2.61,-0.11,-0.09,0.03
3.289792895317078,2,3,3,3,-9.43,-0.79,2.56,-0.15,0,0.05
3.299792885780334,2,3,3,3,-9.42,-0.77,2.53,-0.12,0,0.07000000000000001
3.309792876243591,2,3,3,3,-9.42,-0.78,2.59,-0.09,0,0.09
3.319792866706848,2,3,3,3,-9.42,-0.76,2.65,-0.03,-0.06,0.11
3.329792857170105,2,3,3,3,-9.42,-0.74,2.63,0.12,-0.11,0.1
3.339792847633362,2,3,3,3,-9.390000000000001,-0.72,2.53,0.17,-0.1,0.1
3.349793076515198,2,3,3,3,-9.42,-0.7,2.63,0.17,-0.09,0.09
3.359793066978455,2,3,3,3,-9.41,-0.67,2.67,0.16,-0.08,0.12
3.369793057441711,2,3,3,3,-9.4,-0.6899999999999999,2.68,0.05,-0.06,0.11
3.379793047904968,2,3,3,3,-9.4,-0.7,2.72,0.06,-0.05,0.14
3.389793038368225,2,3,3,3,-9.44,-0.68,2.59,0.08,0.02,0.17
3.399793028831482,2,3,3,3,-9.449999999999999,-0.67,2.66,0.19,0.07000000000000001,0.19
3.409793019294739,2,3,3,3,-9.48,-0.72,2.66,0.29,-0.04,0.18
3.419793009757996,2,3,3,3,-9.43,-0.76,2.62,0.2,-0.19,0.18
3.429793000221252,2,3,3,3,-9.4,-0.84,2.61,0.14,-0.16,0.12
3.439792990684509,2,3,3,3,-9.449999999999999,-0.87,2.59,0.21,-0.1,0.06
3.449792981147766,2,3,3,3,-9.49,-0.85,2.61,0.54,-0.1,0.07000000000000001
3.459792971611023,2,3,3,3,-9.529999999999999,-0.84,2.67,0.93,-0.21,0.11
3.46979296207428,2,3,3,3,-9.31,-0.79,2.63,1.1,-0.51,0.08
3.479792952537537,2,3,3,3,-9.210000000000001,-0.82,2.53,0.68,-0.46,-0.13
3.489792943000793,2,3,3,3,-9.220000000000001,-0.85,2.4,0.3,-0.01,-0.29
3.49979293346405,2,3,3,3,-9.300000000000001,-0.85,2.45,0.24,0.35,-0.43
3.509792923927307,2,3,3,3,-9.5,-0.74,2.61,0.43,0.34,-0.52
3.519792914390564,2,3,3,3,-9.52,-0.6899999999999999,2.61,0.55,0.05,-0.51
3.529792904853821,2,3,3,3,-9.51,-0.71,2.61,0.42,-0.14,-0.48
3.539792895317078,2,3,3,3,-9.529999999999999,-0.58,2.58,0.47,-0.13,-0.52
3.549792885780334,2,3,3,3,-9.48,-0.51,2.72,0.83,-0.16,-0.51
3.559792876243591,2,3,3,3,-9.44,-0.46,2.83,1.19,-0.27,-0.49
3.569792866706848,2,3,3,3,-9.31,-0.41,2.76,1.07,-0.58,-0.51
3.579792857170105,2,3,3,3,-9.23,-0.53,2.59,0.5600000000000001,-0.57,-0.5
3.589792847633362,2,3,3,3,-9.31,-0.62,2.57,0.23,-0.16,-0.53
3.599793076515198,2,3,3,3,-9.42,-0.6899999999999999,2.53,0.06,0.23,-0.51
3.609793066978455,2,3,3,3,-9.42,-0.75,2.46,-0.1,0.46,-0.59
3.619793057441711,2,3,3,3,-9.33,-0.8100000000000001,2.34,-0.1,0.74,-0.67
3.629793047904968,2,3,3,3,-9.35,-0.8,2.4,0.12,0.97,-0.77
3.639793038368225,2,3,3,3,-9.300000000000001,-0.76,2.38,0.6,1.14,-0.9399999999999999
3.649793028831482,2,3,3,3,-9.27,-0.73,2.51,0.9399999999999999,1.19,-1.01
3.659793019294739,2,3,3,3,-9.33,-0.65,2.83,1.37,1.24,-0.99
3.669793009757996,2,3,3,3,-9.300000000000001,-0.63,2.87,1.6,1.01,-0.86
3.679793000221252,2,3,3,3,-9.16,-0.62,2.81,1.24,0.76,-0.78
3.689792990684509,2,3,3,3,-9.109999999999999,-0.64,2.61,0.55,0.92,-0.6899999999999999
3.699792981147766,2,3,3,3,-9.130000000000001,-0.7,2.36,-0.11,1.26,-0.64
3.709792971611023,2,3,3,3,-9.130000000000001,-0.78,2.19,-0.78,1.63,-0.72
3.71979296207428,2,3,3,3,-9.15,-0.84,2.05,-1.04,2.03,-0.86
3.729792952537537,2,3,3,3,-9,-0.96,2,-0.88,2.31,-0.97
3.739792943000793,2,3,3,3,-8.949999999999999,-1.01,2.08,-0.45,2.4,-1.03
3.74979293346405,2,3,3,3,-8.84,-1.08,2.21,0.08,2.2,-1.03
3.759792923927307,2,3,3,3,-8.66,-1.13,2.2,0.19,1.83,-0.9399999999999999
3.769792914390564,2,3,3,3,-8.390000000000001,-1.26,2.07,-0.03,1.67,-0.88
3.779792904853821,2,3,3,3,-8.220000000000001,-1.23,1.91,-0.23,1.7,-0.92
3.789792895317078,2,3,3,3,-8.029999999999999,-1.17,1.74,-0.5,1.89,-1.12
3.799792885780334,2,3,3,3,-7.94,-1.15,1.79,-0.65,2.27,-1.34
3.809792876243591,2,3,3,3,-7.66,-1.18,1.68,-0.77,2.46,-1.62
3.819792866706848,2,3,3,3,-7.48,-1.19,1.61,-0.9,2.19,-1.91
3.829792857170105,2,3,3,3,-7.28,-1.09,1.65,-0.95,1.55,-2.28
3.839792847633362,2,3,3,3,-7.18,-1.01,1.71,-1.04,0.86,-2.38
3.849793076515198,2,3,3,3,-7.24,-0.99,1.7,-1.3,0,-2.08
3.859793066978455,2,3,3,3,-7.45,-1.1,1.55,-1.76,-0.73,-1.72
3.869793057441711,2,3,3,3,-7.72,-1.18,1.47,-1.88,-1.31,-1.33
3.879793047904968,2,3,3,3,-7.97,-1.25,1.55,-1.62,-1.82,-1.07
3.889793038368225,2,3,3,3,-8.140000000000001,-1.19,1.4,-1.34,-2.12,-1.1
3.899793028831482,2,3,3,3,-8.17,-1.03,1.36,-1.25,-2.25,-1.3
3.909793019294739,2,3,3,3,-8.109999999999999,-0.65,1.44,-1.12,-2.17,-1.91
3.919793009757996,2,3,3,3,-8,-0.11,2.17,-1.28,-2.48,-2.6
3.929793000221252,2,3,3,3,-8.09,-0.14,2.16,-1.46,-3.16,-2.79
3.939792990684509,2,3,3,3,-8.16,-0.41,1.64,-2.54,-3.79,-2.34
3.949792981147766,2,3,3,3,-8.380000000000001,-0.78,1.62,-3.07,-3.23,-1.72
3.959792971611023,2,3,3,3,-9.32,-1.61,2.16,-2.19,-2.44,-1.32
3.96979296207428,2,3,3,3,-9.32,-1.61,2.16,-1.1,-2.65,-1.31
3.979792952537537,2,3,3,3,-9.34,-1.93,2.11,-0.68,-3.19,-1.55
3.989792943000793,2,3,3,3,-8.720000000000001,-2.34,2.04,-0.7,-2.84,-1.91
3.99979293346405,2,3,3,3,-8.26,-2.11,2.79,-0.95,-1.99,-2.35
4.009792923927307,2,3,3,3,-8.289999999999999,-2.04,2.99,-1.47,-1.09,-2.62
4.019792914390564,2,3,3,3,-8.289999999999999,-2.04,2.99,-1.82,-0.14,-2.63
4.029792904853821,2,3,3,3,-8.74,-1.78,2.72,-1.79,0.57,-2.53
4.039792895317078,2,3,3,3,-9.210000000000001,-1.48,2.43,-1.31,0.8,-2.5
4.049792885780334,2,3,3,3,-9.279999999999999,-1.38,2.31,-0.18,0.49,-2.63
4.060793042182922,2,3,3,3,-9.1,-1.23,2.29,0.95,-0.39,-2.91
4.070793032646179,2,3,3,3,-9.1,-1.23,2.29,1.5,-1.22,-3.11
4.080793023109436,2,3,3,3,-8.74,-1.13,2.44,1.76,-1.98,-3
4.090793013572693,2,3,3,3,-8.09,-0.5,3.64,1.62,-2.78,-2.66
4.10079300403595,2,3,3,3,-8.26,-0.8100000000000001,3.89,0.74,-2.56,-2.12
4.110792994499207,2,3,3,3,-9.43,-1.48,3.47,-0.53,-1.64,-1.54
4.120792984962463,2,3,3,3,-9.43,-1.48,3.47,-1.85,-0.76,-1.19
4.13079297542572,2,3,3,3,-10,-1.75,3.04,-2.25,-0.11,-1.2
4.140792965888977,2,3,3,3,-11.09,-1.93,2.65,-1.3,0.12,-1.47
4.150792956352234,2,3,3,3,-12.56,-1.61,3.64,0.49,-0.1,-1.81
4.160792946815491,2,3,3,3,-13.12,-1.14,4.24,2.43,-1.57,-2.03
4.170792937278748,2,3,3,3,-13.12,-1.14,4.24,2.43,-1.57,-2.03
4.180792927742004,2,3,3,3,-13.57,-0.68,4.82,3.07,-3.25,-1.74
4.190792918205261,2,3,3,3,-14.66,0.67,5.95,1.77,-5.1,0.68
4.200792908668518,2,3,3,3,-14.95,1.1,6.6,0.12,-5.3,2.04
4.210792899131775,2,3,3,3,-15.38,1.19,7.23,-2,-4.42,3.1
4.220792889595032,2,3,3,3,-15.38,1.19,7.23,-2,-4.42,3.1
4.230792880058289,2,3,3,3,-15.84,0.6,7.2,-7.19,0.12,3.2
4.240792870521545,2,3,3,3,-19.1,-1.97,5.61,-6.82,3.8,2.64
4.250792860984802,2,3,3,3,-20.83,-2.1,5.75,-4.33,5.84,1.64
4.260792851448059,2,3,3,3,-22.32,-2.16,6.13,-1.67,6.5,0.29
4.270793080329895,2,3,3,3,-22.32,-2.16,6.13,-1.67,6.5,0.29
4.280793070793152,2,3,3,3,-24.48,-2.12,6.8,0.25,5.93,-1.05
4.290793061256409,2,3,3,3,-23.57,-1.08,6.26,0.83,1.48,-2.01
4.300793051719666,2,3,3,3,-20.8,-0.97,6.7,0.55,1.72,-0.88
4.310793042182922,2,3,3,3,-20.25,-1.89,6.57,0.62,2.48,0.72
4.320793032646179,2,3,3,3,-20.25,-1.89,6.57,0.62,2.48,0.72
4.330793023109436,2,3,3,3,-20.29,-2.3,6.7,1.34,3.52,2.08
4.340793013572693,2,3,3,3,-22.2,-1.92,6.24,2.87,6.47,5.57
4.35079300403595,2,3,3,3,-21.75,-1.73,5.76,3.12,6.57,6.98
4.360792994499207,2,3,3,3,-20.41,-1.68,5.22,3.41,5.67,6.92
4.370792984962463,2,3,3,3,-20.41,-1.68,5.22,3.41,5.67,6.92
4.38079297542572,2,3,3,3,-18.67,-1.97,4.57,3.22,5.06,5.71
4.390792965888977,2,3,3,3,-11.51,-7.36,2.03,1.64,5.79,-0.16
4.400792956352234,2,3,3,3,-9.789999999999999,-8.130000000000001,0.83,1.94,6.29,-2.72
4.410792946815491,2,3,3,3,-7.74,-7.75,-0.54,2.25,4.79,-3.92
4.420792937278748,2,3,3,3,-7.74,-7.75,-0.54,2.25,4.79,-3.92
4.430792927742004,2,3,3,3,-2.47,-5.14,-1.8,2.32,3.3,-4.39
4.440792918205261,2,3,3,3,2.38,-3.67,-1.72,-1.93,0.9399999999999999,-7
4.450792908668518,2,3,3,3,4.53,-3.71,-2.34,-7.24,-2.19,-9.69
4.460792899131775,2,3,3,3,5.63,-4.77,-3.49,-13.03,-4.53,-11.62
4.470792889595032,2,3,3,3,5.63,-4.77,-3.49,-13.03,-4.53,-11.62
4.480792880058289,2,3,3,3,5.18,-4.83,-2.79,-13.65,-2.33,-10.18
4.490792870521545,2,3,3,3,4.49,-4.08,-2.48,-5.05,5.53,-5.29
4.500792860984802,2,3,3,3,4.1,-3,-0.53,-1.28,3.66,-2.98
4.510792851448059,2,3,3,3,3.92,-2.33,0.46,0.47,1.47,0.66
4.520793080329895,2,3,3,3,3.15,-1.51,1.32,0.47,1.47,0.66
4.530793070793152,2,3,3,3,2.1,-0.58,1.77,1.03,-0.53,4.18
4.540793061256409,2,3,3,3,0.51,1.03,1.19,0.9,-4.57,7.48
4.550793051719666,2,3,3,3,0.33,1.58,0.54,2.21,-4.83,7.72
4.560793042182922,2,3,3,3,-0.01,1.65,0.01,3.15,-4.03,7.73
4.570793032646179,2,3,3,3,-0.4,1.58,-0.49,3.15,-4.03,7.73
4.580793023109436,2,3,3,3,-1.38,1.46,-0.1,4.41,-3.15,7.57
4.590793013572693,2,3,3,3,-1.55,1.41,-0.26,3.14,-3.49,6.91
4.60079300403595,2,3,3,3,-1.59,1.26,-0.6,2.2,-2.6,6.61
4.610792994499207,2,3,3,3,-1.86,1.24,-0.19,1.16,-1.71,5.74
4.620792984962463,2,3,3,3,-2.24,1.6,-0.05,1.16,-1.71,5.74
4.63079297542572,2,3,3,3,-2.2,1.76,-0.3,-0.6899999999999999,-0.11,4.26
4.640792965888977,2,3,3,3,-2.19,1.73,-0.22,-3.41,2.68,-0.04
4.650792956352234,2,3,3,3,-2.24,1.45,-0.04,-4.89,1.63,-2.36
4.660792946815491,2,3,3,3,-1.68,0.43,0.29,-6.61,-0.01,-4.02
4.670792937278748,2,3,3,3,-0.86,-0.07000000000000001,-0.05,-6.61,-0.01,-4.02
4.680792927742004,2,3,3,3,-0.21,-0.48,-0.37,-7.69,-0.5,-5.16
4.690792918205261,2,3,3,3,0.26,-1.22,-0.79,-6.42,1.65,-6.63
4.700792908668518,2,3,3,3,0.34,-1.51,-1.01,-4.48,2.81,-6.9
4.710792899131775,2,3,3,3,0.37,-1.74,-0.99,-1.77,3.66,-6.94
4.720792889595032,2,3,3,3,0.16,-1.82,-0.7,-1.77,3.66,-6.94
4.730792880058289,2,3,3,3,0.15,-2.02,-0.24,0.7,2.99,-6.86
4.740792870521545,2,3,3,3,0.33,-2.08,-0.09,3.63,-0.84,-6.25
4.750792860984802,2,3,3,3,0.44,-1.91,0.07000000000000001,4.41,-2.4,-5.44
4.760792851448059,2,3,3,3,0.7,-1.75,0.83,5.07,-3.27,-4.13
4.770793080329895,2,3,3,3,0.78,-1.48,1.69,5.07,-3.27,-4.13
4.780793070793152,2,3,3,3,0.36,-2.48,0.9,2.96,-4.48,-1.56
4.790793061256409,2,3,3,3,-0.44,-3.59,1.61,3.4,-5.47,5.64
4.800793051719666,2,3,3,3,-0.89,-3.83,2.87,2.49,-4.56,9.15
4.810793042182922,2,3,3,3,-2.52,-8.199999999999999,3.81,0.25,-5,12.59
4.820793032646179,2,3,3,3,-3.84,-10.27,0.78,0.25,-5,12.59
4.830793023109436,2,3,3,3,-7.51,-10.46,-0.66,1.49,1.74,17.34
4.840793013572693,2,3,3,3,-35.05,-6.91,11.7,18.15,7.36,29.18
4.85079300403595,2,3,3,3,-39.11,-4.38,13.19,22.9,-8.789999999999999,30.04
4.860792994499207,2,3,3,3,-39.02,-6.73,-10.05,23.82,35.01,-1.68
4.870792984962463,2,3,3,3,-39.11,0.5600000000000001,-6.91,23.82,35.01,-1.68
4.88079297542572,2,3,3,3,-17.16,15.96,7.28,26.53,-21.69,-29.29
4.890792965888977,2,3,3,3,-11.31,5.12,15.09,-5.18,-9.15,7.16
4.900792956352234,2,3,3,3,-8.369999999999999,1.4,14.5,-3.47,-15.96,17.36
4.910792946815491,2,3,3,3,-6.9,-2.22,10,1.99,-13.4,16.03
4.920792937278748,2,3,3,3,-11.39,-1.5,7.35,1.99,-13.4,16.03
4.930792927742004,2,3,3,3,-14.48,2.03,6.65,5.43,-2.64,12.26
4.940792918205261,2,3,3,3,-18.28,4.87,6.82,-0.92,15.16,4.01
4.950792908668518,2,3,3,3,-22.31,5.45,5.04,2.48,16.1,1.57
4.960792899131775,2,3,3,3,-23.28,3.07,0.16,6.07,6.16,-3.86
4.970792889595032,2,3,3,3,-19.57,1.85,1.85,6.07,6.16,-3.86
4.980792880058289,2,3,3,3,-14.93,0.63,4.1,4.22,-6.72,-8.699999999999999
4.990792870521545,2,3,3,3,-12.02,-0.43,5.45,2.98,-5.82,-8.369999999999999
5.000792860984802,2,3,3,3,-10.77,-0.55,6.22,1.47,-1.01,-5.77
5.010792851448059,2,3,3,3,-10.8,0,6.34,-0.45,1.77,-3.98
5.020793080329895,2,3,3,3,-11.34,0.12,6.1,-0.45,1.77,-3.98
5.030793070793152,2,3,3,3,-12.69,-0.63,4.17,-2.4,2.38,-3.11
5.040793061256409,2,3,3,3,-12.16,-0.72,3.01,-4.31,0.41,0.36
5.050793051719666,2,3,3,3,-11.06,-0.73,2.25,-3.92,1.16,2.58
5.060793042182922,2,3,3,3,-9.94,-0.73,2.03,-3.43,2.24,4.24
5.070793032646179,2,3,3,3,-8.99,-0.87,2.47,-3.43,2.24,4.24
5.081792950630188,2,3,3,3,-8.76,-0.79,2.59,-3.14,1.88,4.97
5.091792941093445,2,3,3,3,-8.710000000000001,-0.74,2.49,-3.56,-1.15,3.33
5.101792931556702,2,3,3,3,-8.41,-0.7,2.07,-3.74,-1.95,1.86
5.111792922019958,2,3,3,3,-7.27,-0.52,1.47,-3.96,-1.81,0.48
5.121792912483215,2,3,3,3,-6.68,-0.57,1.35,-3.96,-1.81,0.48
5.131792902946472,2,3,3,3,-6.19,-0.78,1.32,-3.98,-1.27,-0.76
5.141792893409729,2,3,3,3,-5.9,-1.05,1.29,-2.91,-0.85,-2.35
5.151792883872986,2,3,3,3,-5.19,-1.34,0.93,-2.62,0.3,-2.22
5.161792874336243,2,3,3,3,-5.16,-1.7,1.26,-1.84,1.55,-1.81
5.1717928647995,2,3,3,3,-5.49,-2.05,1.47,-1.84,1.55,-1.81
5.181792855262756,2,3,3,3,-5.92,-2.15,1.56,-1.24,1.25,-1.21
5.191793084144592,2,3,3,3,-6.62,-2.15,1.33,-0.27,-0.45,-0.46
5.201793074607849,2,3,3,3,-6.91,-2.04,1.25,0.33,-0.72,-0.02
5.211793065071106,2,3,3,3,-7.03,-1.85,1.29,0.79,-0.88,0.46
5.221793055534363,2,3,3,3,-7.28,-1.76,1.93,0.79,-0.88,0.46
5.23179304599762,2,3,3,3,-7.7,-1.8,2.47,1.23,-1.49,0.85
5.241793036460876,2,3,3,3,-7.9,-1.73,2.41,-0.01,-4.29,1.38
5.251793026924133,2,3,3,3,-7.86,-1.81,1.79,-1.15,-3.3,1.52
5.26179301738739,2,3,3,3,-8,-2.07,1.3,-0.99,-1.27,1.68
5.271793007850647,2,3,3,3,-8.26,-2.12,1.14,-0.99,-1.27,1.68
5.281792998313904,2,3,3,3,-8.73,-2.06,1.27,0.02,0.25,1.8
5.291792988777161,2,3,3,3,-9.34,-1.83,1.49,3.72,0.11,1.47
5.301792979240417,2,3,3,3,-9.970000000000001,-1.22,2.09,4.83,-0.73,1.39
5.311792969703674,2,3,3,3,-10.19,-0.76,2.54,5.42,-1.35,1.17
5.321792960166931,2,3,3,3,-10.24,-0.28,2.9,5.42,-1.35,1.17
5.331792950630188,2,3,3,3,-10.17,0.19,3.24,5.4,-1.63,0.83
5.341792941093445,2,3,3,3,-9.779999999999999,0.76,2.96,2.63,-0.82,0.13
5.351792931556702,2,3,3,3,-9.699999999999999,0.92,2.85,1.61,-0.18,0.01
5.361792922019958,2,3,3,3,-9.58,1.06,2.83,0.55,0.02,0.07000000000000001
5.371792912483215,2,3,3,3,-9.449999999999999,1.04,2.78,0.55,0.02,0.07000000000000001
5.381792902946472,2,3,3,3,-9.33,0.7,2.53,-0.47,0.26,0.02
5.391792893409729,2,3,3,3,-9.359999999999999,0.51,2.57,-1.23,0.6,0.07000000000000001
5.401792883872986,2,3,3,3,-9.44,0.32,2.61,-1.29,0.33,0.04
5.411792874336243,2,3,3,3,-9.52,-0.13,2.65,-1.47,0.14,-0.1
5.4217928647995,2,3,3,3,-9.550000000000001,-0.3,2.6,-1.47,0.14,-0.1
5.431792855262756,2,3,3,3,-9.640000000000001,-0.41,2.6,-1.45,0.15,-0.4
5.441793084144592,2,3,3,3,-9.720000000000001,-0.47,2.71,-0.9399999999999999,-0.13,-1.22
5.451793074607849,2,3,3,3,-9.59,-0.59,2.74,-0.9399999999999999,-0.13,-1.22
5.461793065071106,2,3,3,3,-9.48,-0.71,2.86,-0.91,-0.32,-1.57
5.471793055534363,2,3,3,3,-9.199999999999999,-0.71,2.61,-0.99,-0.67,-1.83
5.48179304599762,2,3,3,3,-8.85,-0.76,2.24,-1.51,-0.59,-1.93
5.491793036460876,2,3,3,3,-8.69,-0.85,2.33,-1.54,0.24,-1.82
5.501793026924133,2,3,3,3,-8.67,-0.84,2.13,-1.31,0.84,-1.52
5.51179301738739,2,3,3,3,-8.75,-0.87,2.09,-1.37,1.02,-1.14
5.521793007850647,2,3,3,3,-8.869999999999999,-0.86,2.1,-1.2,1.18,-0.79
5.531792998313904,2,3,3,3,-9.199999999999999,-0.88,2.27,-0.88,1.09,-0.51
5.541792988777161,2,3,3,3,-9.4,-0.89,2.38,-0.53,0.99,-0.27
5.551792979240417,2,3,3,3,-9.539999999999999,-0.89,2.37,-0.28,0.75,-0.1
5.561792969703674,2,3,3,3,-9.58,-0.95,2.36,-0.45,0.34,-0.03
5.571792960166931,2,3,3,3,-9.5,-1.1,2.42,-0.53,0.08,-0.09
5.581792950630188,2,3,3,3,-9.369999999999999,-1.16,2.35,-0.79,-0.14,-0.23
5.591792941093445,2,3,3,3,-9.220000000000001,-1.16,2.29,-1.04,0.03,-0.48
5.601792931556702,2,3,3,3,-9.26,-1.24,2.14,-0.98,0.55,-0.65
5.611792922019958,2,3,3,3,-9.279999999999999,-1.26,2.2,-0.88,0.82,-0.8
5.621792912483215,2,3,3,3,-9.27,-1.22,2.27,-0.41,0.82,-0.87
5.631792902946472,2,3,3,3,-9.220000000000001,-1.18,2.4,0.26,0.71,-0.87
5.641792893409729,2,3,3,3,-9.109999999999999,-0.99,2.39,0.8,0.47,-0.79
5.651792883872986,2,3,3,3,-8.92,-0.93,2.12,0.91,0.07000000000000001,-0.75
5.661792874336243,2,3,3,3,-8.91,-0.85,2.21,0.57,0.09,-0.58
5.6717928647995,2,3,3,3,-9,-0.8100000000000001,2.36,0.41,0.24,-0.37
5.681792855262756,2,3,3,3,-9.18,-0.74,2.37,0.01,0.13,-0.17
5.691793084144592,2,3,3,3,-9.210000000000001,-0.74,2.26,-0.5,0.13,-0.06
5.701793074607849,2,3,3,3,-9.300000000000001,-0.77,2.1,-0.86,0.29,-0.06
5.711793065071106,2,3,3,3,-9.300000000000001,-0.85,2.11,-0.95,0.38,-0.14
5.721793055534363,2,3,3,3,-9.18,-0.93,2.03,-0.9399999999999999,0.39,-0.42
5.73179304599762,2,3,3,3,-9.01,-0.99,1.93,-0.9399999999999999,0.5,-0.82
5.741793036460876,2,3,3,3,-8.85,-1.04,1.85,-0.9399999999999999,0.82,-1.38
5.751793026924133,2,3,3,3,-8.640000000000001,-1.12,1.8,-0.95,1.27,-1.95
5.76179301738739,2,3,3,3,-8.029999999999999,-1.32,1.92,-1.07,1.74,-2.44
5.771793007850647,2,3,3,3,-7.76,-1.53,1.84,-1.44,2.13,-2.76
5.781792998313904,2,3,3,3,-7.52,-1.83,1.54,-2.09,2.19,-2.85
5.791792988777161,2,3,3,3,-6.95,-2.15,0.8,-2.53,2.06,-2.87
5.801792979240417,2,3,3,3,-6.65,-2.21,0.71,-2.17,2.2,-3
5.811792969703674,2,3,3,3,-6.48,-2.11,0.88,-1.18,2.26,-3.11
5.821792960166931,2,3,3,3,-6.32,-2.01,1.18,-0.14,1.85,-3.11
5.831792950630188,2,3,3,3,-6.06,-1.85,1.47,0.47,1.2,-3.09
5.841792941093445,2,3,3,3,-5.99,-1.77,1.32,0.25,0.6,-3.12
5.851792931556702,2,3,3,3,-5.9,-1.7,1.03,-0.66,0.15,-3.42
5.861792922019958,2,3,3,3,-5.87,-1.63,0.75,-1.68,-0.21,-3.87
5.871792912483215,2,3,3,3,-5.98,-1.49,0.8,-2.44,-0.64,-4.32
5.881792902946472,2,3,3,3,-6.1,-1.63,1.06,-2.99,-1.25,-4.7
5.891792893409729,2,3,3,3,-6.21,-1.92,0.78,-2.94,-1.88,-4.63
5.901792883872986,2,3,3,3,-6.29,-2.23,0.14,-2.66,-2.47,-4.45
5.911792874336243,2,3,3,3,-6.13,-2.11,0.64,-1.59,-2.7,-4.48
5.9217928647995,2,3,3,3,-6.38,-1.98,0.9399999999999999,-0.27,-2.57,-4.55
5.931792855262756,2,3,3,3,-6.81,-1.93,1.25,0.65,-2.55,-4.36
5.941793084144592,2,3,3,3,-7.22,-2.01,1.69,1.28,-2.84,-3.78
5.951793074607849,2,3,3,3,-7.72,-1.83,2.71,1.72,-3.58,-3.12
5.961793065071106,2,3,3,3,-7.97,-1.71,2.8,0.84,-4.03,-2.9
5.971793055534363,2,3,3,3,-8.42,-1.4,2.81,-0.78,-3.22,-3.14
5.98179304599762,2,3,3,3,-10.22,-0.29,3.75,-1.85,-1.39,-3.42
5.991793036460876,2,3,3,3,-11.09,0.47,4.12,-1.94,-0.52,-3.4
6.001793026924133,2,3,3,3,-11.69,1.14,4.66,-1.04,-1.45,-2.9
6.01179301738739,2,3,3,3,-12.06,1.11,5.6,-0.04,-3.09,-1.84
6.021793007850647,2,3,3,3,-12.47,-0.11,6.25,0.17,-5.47,0.11
6.031792998313904,2,3,3,3,-13.18,-1.21,5.8,-0.61,-6.2,1.85
6.041792988777161,2,3,3,3,-14.81,-2.18,5.63,-1.77,-3.92,2.66
6.051792979240417,2,3,3,3,-16.96,-2.59,5.64,-2.07,-1.2,2.6
6.061792969703674,2,3,3,3,-20.3,-1.62,5.1,-1.89,-0.45,2.34
6.071792960166931,2,3,3,3,-21.01,-0.65,5.04,-1.19,-0.84,1.97
6.081792950630188,2,3,3,3,-21.36,-0.32,5.79,0.47,-1.39,1.62
6.091792941093445,2,3,3,3,-21.66,-0.24,6.8,2.25,-2.15,1.56
6.102792859077454,2,3,3,3,-21.48,0.12,7.61,2.69,-2.2,1.83
6.11279284954071,2,3,3,3,-21.48,0.16,8.380000000000001,2.18,-0.1,2.32
6.122793078422546,2,3,3,3,-21.66,0.21,8.92,1.77,2.15,2.58
6.132793068885803,2,3,3,3,-21.8,0.25,8.220000000000001,0.39,2.6,1.79
6.14279305934906,2,3,3,3,-21.57,0.44,5.96,-0.97,2.71,0.8100000000000001
6.152793049812317,2,3,3,3,-21.84,-0.38,5.66,-2.22,4.08,0.95
6.162793040275574,2,3,3,3,-22.68,-1.12,5.86,-1.77,4.91,1.91
6.172793030738831,2,3,3,3,-23.78,-1.03,6.11,-0.31,3.85,2.87
6.182793021202087,2,3,3,3,-23.38,-0.74,6.85,1.39,2.81,3.63
6.192793011665344,2,3,3,3,-22.77,-0.14,7.86,4.11,2.71,4.72
6.202793002128601,2,3,3,3,-22.21,0.48,8.039999999999999,6.46,3.36,6.89
6.212792992591858,2,3,3,3,-20.68,1.66,6.9,7.29,5.24,8.98
6.222792983055115,2,3,3,3,-19.52,2.17,6.54,6.79,7.48,9.619999999999999
6.232792973518372,2,3,3,3,-18.09,1.93,6.35,4.96,9.65,8.380000000000001
6.242792963981628,2,3,3,3,-16.06,0.3,5.71,1.97,10.1,5.52
6.252792954444885,2,3,3,3,-11.93,-4.43,2.7,-1.67,9.49,1.57
6.262792944908142,2,3,3,3,-9.460000000000001,-5.52,0.03,-4.51,9.300000000000001,-1.41
6.272792935371399,2,3,3,3,-6.86,-5.83,-2.65,-6.79,10.19,-3.68
6.282792925834656,2,3,3,3,-4.6,-5.98,-3.57,-7.87,12.56,-5
6.292792916297913,2,3,3,3,-1.66,-6.95,-1.25,-8.44,8.91,-6.99
6.302792906761169,2,3,3,3,1,-10.27,-3.9,-15.46,-3.28,-9.15
6.312792897224426,2,3,3,3,2.41,-13.03,-10.14,-29.45,-14.29,-12.37
6.322792887687683,2,3,3,3,2.09,-12.78,-9.94,-31.66,-12.11,-12.11
6.33279287815094,2,3,3,3,3.53,-12.19,-5.82,-17,-0.28,-8.41
6.342792868614197,2,3,3,3,7.19,-10.63,-2.02,1.63,3.59,-7.79
6.352792859077454,2,3,3,3,9.109999999999999,-7.4,-0.12,12.04,0.38,-6.78
6.36279284954071,2,3,3,3,4.83,-0.57,0.59,13.67,-0.86,0.53
6.372793078422546,2,3,3,3,4.41,2.04,0.52,14.2,-0.53,7.99
6.382793068885803,2,3,3,3,4.49,4.08,0.63,16.88,-0.45,10.87
6.39279305934906,2,3,3,3,3.66,5.31,1.42,17.95,0.02,11.86
6.402793049812317,2,3,3,3,1.48,4.49,2.02,15.56,-1.56,12.69
6.412793040275574,2,3,3,3,0.78,3.71,1.43,10.96,-4.55,12
6.422793030738831,2,3,3,3,0.2,3.31,-0.19,4.41,-5.45,10.26
6.432793021202087,2,3,3,3,-1.72,2.39,-0.06,-1.51,-3.45,9.15
6.442793011665344,2,3,3,3,-5.2,1.3,1.1,-3.09,-1.63,8.81
6.452793002128601,2,3,3,3,-5.95,1.27,0.84,-4.78,-1.48,8
6.462792992591858,2,3,3,3,-6.37,1.6,1.19,-5.88,-0.85,6.63
6.472792983055115,2,3,3,3,-6.28,1.6,1.04,-5.6,-1.14,4.75
6.482792973518372,2,3,3,3,-4.04,0.53,0.38,-5.18,-3.05,1.78
6.492792963981628,2,3,3,3,-2.53,0.21,0.06,-4.57,-3.67,-1.64
6.502792954444885,2,3,3,3,-1.04,-0.17,-0.44,-3.38,-2.49,-4.54
6.512792944908142,2,3,3,3,1,-0.61,-0.18,-1.53,-0.5,-6.35
6.522792935371399,2,3,3,3,1.52,-0.6899999999999999,0.08,-0.02,0.96,-7.67
6.532792925834656,2,3,3,3,1.58,-0.75,0.34,0.64,0.91,-8.83
6.542792916297913,2,3,3,3,1.22,-0.7,0.28,0.23,-0.45,-9.85
6.552792906761169,2,3,3,3,1.2,-0.58,-0.46,-0.43,-2.13,-9.890000000000001
6.562792897224426,2,3,3,3,1.11,-0.57,-0.4,-0.32,-2.67,-8.960000000000001
6.572792887687683,2,3,3,3,0.96,-0.32,-0.19,0.89,-2.13,-7.53
6.58279287815094,2,3,3,3,1.04,-0.13,0.09,2.25,-1.8,-5.91
6.592792868614197,2,3,3,3,1.59,0.32,-0.08,3.11,-2.35,-4.28
6.602792859077454,2,3,3,3,1.54,0.75,-0.17,4.3,-3.2,-2.64
6.61279284954071,2,3,3,3,1.32,0.96,0.15,5.61,-4.05,-0.95
6.622793078422546,2,3,3,3,1.19,0.8,0.59,6.23,-4.69,0.62
6.632793068885803,2,3,3,3,1.28,-0.38,3.1,6.51,-4.69,2.03
6.64279305934906,2,3,3,3,0.99,-0.9,3.35,7.96,-4.33,3.62
6.652793049812317,2,3,3,3,0.26,-1.47,1.79,7.67,-5.77,5.28
6.662793040275574,2,3,3,3,-0.34,-2.66,1.39,3.42,-8.699999999999999,7.53
6.672793030738831,2,3,3,3,0.2,-5.23,2.84,2.2,-6.69,10.43
6.682793021202087,2,3,3,3,-0.09,-6.29,2.35,3.55,-1.71,12.69
6.692793011665344,2,3,3,3,-2.64,-7.33,1.19,2.5,4.3,16.91
6.702793002128601,2,3,3,3,-9.59,-5.93,3.92,6.31,15.61,22.59
6.712792992591858,2,3,3,3,-38.85,-1.49,17.45,8.17,25.25,27.13
6.722792983055115,2,3,3,3,-39.11,7.63,1.7,14.28,10.3,32.08
6.732792973518372,2,3,3,3,-39.05,8.32,-8.609999999999999,14.89,44.52,11.4
6.742792963981628,2,3,3,3,-33.75,10.71,7.37,7.13,18.7,-11.27
6.752792954444885,2,3,3,3,-20.26,7.67,5.17,-5.17,-43.67,-20.49
6.762792944908142,2,3,3,3,-7.83,-0.19,6.14,-20.89,-39.09,-12.25
6.772792935371399,2,3,3,3,-2.08,-3.02,8.539999999999999,-14.22,-22.62,0.36
6.782792925834656,2,3,3,3,-5.31,-5.04,8.74,-9.35,-12.08,8.06
6.792792916297913,2,3,3,3,-11.32,-0.99,8.18,0.5,0.57,8.16
6.802792906761169,2,3,3,3,-17.49,1.92,7.78,6.56,8.119999999999999,6.23
6.812792897224426,2,3,3,3,-21.99,2.8,8.279999999999999,2.67,5.47,4.13
6.822792887687683,2,3,3,3,-23.34,4.32,4.42,-2.69,3.79,3.15
6.83279287815094,2,3,3,3,-21.21,4.53,3.26,-1.06,6.4,1.31
6.842792868614197,2,3,3,3,-18.17,3.26,3.94,2.13,5.24,-3.19
6.852792859077454,2,3,3,3,-14.97,1.68,4.31,0.04,0.47,-7.66
6.86279284954071,2,3,3,3,-12.34,-1.21,3.57,-3.3,-1.26,-9.550000000000001
6.872793078422546,2,3,3,3,-11.85,-2.32,3.49,-4.92,0.52,-10.15
6.882793068885803,2,3,3,3,-11.48,-2.85,3.4,-4.85,2.47,-9.84
6.89279305934906,2,3,3,3,-11.15,-2.9,2.94,-3.51,3.82,-9.17
6.902793049812317,2,3,3,3,-10.81,-3.41,1.45,-2.1,4.68,-8
6.912793040275574,2,3,3,3,-10.5,-2.56,1.19,-0.17,3.62,-6.33
6.922793030738831,2,3,3,3,-9.359999999999999,-1.49,1.18,1.55,0.9399999999999999,-4.25
6.932793021202087,2,3,3,3,-5.96,-0.29,1.36,2.17,-1.09,-2.37
6.942793011665344,2,3,3,3,-4.69,-0.09,1.68,2.54,-0.37,-1.1
6.952793002128601,2,3,3,3,-4.01,-0.23,2.02,2.3,1.37,-0.6899999999999999
6.962792992591858,2,3,3,3,-3.7,-0.3,2.2,1.66,2.09,-0.82
6.972792983055115,2,3,3,3,-4.07,-0.08,2.19,0.34,1.83,-1.24
6.982792973518372,2,3,3,2,-4.91,-0.31,2.38,-1.47,0.9399999999999999,-1.85
6.992792963981628,2,3,3,2,-5.89,-0.65,2.42,-3.56,-0.41,-2.31
7.002792954444885,2,3,3,2,-6.25,-0.99,1.92,-5.65,-2.55,-2.57
7.012792944908142,2,3,3,2,-5.78,-2.14,1.08,-7.11,-3.33,-2.87
7.022792935371399,2,3,3,2,-5.51,-2.49,0.59,-6.91,-2.66,-3.3
7.032792925834656,2,3,3,2,-5.09,-2.67,-0.09,-5.37,-1.48,-3.63
7.042792916297913,2,3,3,2,-4.81,-2.8,-0.51,-3.41,0.63,-3.02
7.052792906761169,2,3,3,2,-6.06,-3.06,0.25,-0.46,3.08,-1.88
7.062792897224426,2,3,3,2,-7.16,-3.26,0.85,2.46,3.23,-0.86
7.072792887687683,2,3,3,2,-8.48,-3.42,1.4,4.09,1.18,-0.01
7.08279287815094,2,3,3,2,-10.97,-3.27,2.3,4.94,-1.53,0.82
7.092792868614197,2,3,3,2,-11.24,-2.72,1.86,5.22,-4.21,1.61
7.102792859077454,2,3,3,2,-10.68,-1.87,1.3,5.01,-5.04,2.25
7.11279284954071,2,3,3,2,-9.75,-1,1.52,5.38,-2.37,2.41
7.122793078422546,2,3,3,2,-9.380000000000001,0.38,2.97,6.08,-0.07000000000000001,2.2
7.133792996406555,2,3,3,2,-9.640000000000001,0.96,3.71,6.57,-0.44,1.95
7.143792986869812,2,3,3,2,-9.869999999999999,1.58,3.87,6.41,-2.26,1.99
7.153792977333069,2,3,3,2,-10.12,1.87,3.57,4.71,-3.41,1.99
7.163792967796326,2,3,3,2,-10.52,1.76,3.22,2.57,-3.3,1.92
7.173792958259583,2,3,3,2,-10.38,1.36,3.24,0.91,-2.93,1.82
7.183792948722839,2,3,3,2,-10.08,0.86,3.09,-0.28,-2.37,1.5
7.193792939186096,2,3,3,2,-9.779999999999999,0.49,2.79,-1.29,-1.51,1.06
7.203792929649353,2,3,3,2,-9.75,0,2.58,-2.07,-0.52,0.62
7.21379292011261,2,3,3,2,-9.67,-0.18,2.52,-2.59,0.17,0.18
7.223792910575867,2,3,3,2,-9.539999999999999,-0.33,2.5,-3,0.43,-0.18
7.233792901039124,2,3,3,2,-9.32,-0.57,2.52,-3.01,0.61,-0.5
7.24379289150238,2,3,3,2,-8.52,-1.04,2.41,-2.71,0.65,-0.77
7.253792881965637,2,3,3,2,-8.15,-1.29,2.25,-2.35,0.57,-0.99
7.263792872428894,2,3,3,2,-7.91,-1.43,2.24,-1.81,0.73,-1.14
7.273792862892151,2,3,3,2,-7.87,-1.63,2.15,-1.18,0.86,-1.27
7.283792853355408,2,3,3,2,-8.06,-1.67,2.17,-0.44,1.07,-1.52
7.293793082237244,2,3,3,2,-8.359999999999999,-1.64,2.21,0.46,1.28,-1.79
7.3037930727005,2,3,3,2,-8.65,-1.57,2.13,1.29,1.32,-1.97
7.313793063163757,2,3,3,2,-9.09,-1.44,2.36,1.92,1.16,-2.01
7.323793053627014,2,3,3,2,-9.18,-1.44,2.53,2.25,0.8,-1.9
7.333793044090271,2,3,3,2,-9.16,-1.45,2.45,2.1,0.35,-1.58
7.343793034553528,2,3,3,2,-9.300000000000001,-1.36,2.36,1.43,0.36,-0.9399999999999999
7.353793025016785,2,3,3,2,-9.81,-1.08,2.43,0.77,0.54,-0.24
7.363793015480042,2,3,3,2,-9.890000000000001,-0.8100000000000001,2.36,0.32,0.26,0.37
7.373793005943298,2,3,3,2,-9.789999999999999,-0.55,2.4,0.07000000000000001,0.08,0.82
7.383792996406555,2,3,3,2,-9.630000000000001,-0.4,2.6,-0.16,0.12,1.16
7.393792986869812,2,3,3,2,-9.43,-0.62,2.78,-0.42,0,1.36
7.403792977333069,2,3,3,2,-9.529999999999999,-0.86,2.72,-0.8,0.11,1.29
7.413792967796326,2,3,3,2,-9.66,-0.96,2.75,-0.6899999999999999,0.49,1.04
7.423792958259583,2,3,3,2,-9.699999999999999,-0.97,2.72,-0.17,0.76,0.67
7.433792948722839,2,3,3,2,-9.56,-0.86,2.78,0.18,0.87,0.2
7.443792939186096,2,3,3,2,-9.380000000000001,-0.73,2.98,0.49,0.67,-0.36
7.453792929649353,2,3,3,2,-9.17,-0.58,3.04,0.74,0.12,-0.73
7.46379292011261,2,3,3,2,-8.789999999999999,-0.47,2.92,0.45,-0.26,-0.85
7.473792910575867,2,3,3,2,-8.81,-0.48,2.98,-0.05,-0.02,-0.6899999999999999
7.483792901039124,2,3,3,2,-8.869999999999999,-0.48,3.03,-0.4,0.36,-0.29
7.49379289150238,2,3,3,2,-8.960000000000001,-0.51,3,-0.75,0.5,0.15
7.503792881965637,2,3,3,2,-9.25,-0.62,2.69,-1.26,0.62,0.5600000000000001
7.513792872428894,2,3,3,2,-9.529999999999999,-0.63,2.72,-1.47,0.72,0.89
7.523792862892151,2,3,3,2,-9.66,-0.62,2.64,-1.39,0.32,1.16
7.533792853355408,2,3,3,2,-9.68,-0.7,2.51,-1.64,-0.14,1.18
7.543793082237244,2,3,3,2,-9.779999999999999,-0.88,2.49,-1.79,-0.14,1
7.5537930727005,2,3,3,2,-9.75,-0.98,2.3,-1.85,-0.17,0.73
7.563793063163757,2,3,3,2,-9.76,-1,2.23,-1.65,-0.2,0.41
7.573793053627014,2,3,3,2,-9.619999999999999,-0.91,2.17,-1,-0.22,0.15
7.583793044090271,2,3,3,2,-9.279999999999999,-1.09,2.19,-0.9,-0.28,-0.06
7.593793034553528,2,3,3,2,-9.17,-1.17,2.29,-0.83,-0.3,-0.12
7.603793025016785,2,3,3,2,-9.109999999999999,-1.21,2.31,-0.41,-0.33,0.03
7.613793015480042,2,3,3,2,-9.15,-1.24,2.34,-0.04,-0.52,0.29
7.623793005943298,2,3,3,2,-9.18,-1.14,2.42,0.48,-0.98,0.63
7.633792996406555,2,3,3,2,-9.1,-1.08,2.33,0.59,-1.48,0.89
7.643792986869812,2,3,3,2,-9.01,-1.03,2.32,0.52,-1.62,1.02
7.653792977333069,2,3,3,2,-8.92,-1.01,2.27,0.33,-1.52,1.09
7.663792967796326,2,3,3,2,-8.890000000000001,-1.09,2.19,-0.11,-1.14,1.06
7.673792958259583,2,3,3,2,-8.82,-1.18,2.02,-0.84,-0.6,0.97
7.683792948722839,2,3,3,2,-8.76,-1.35,1.81,-1.62,0.12,0.76
7.693792939186096,2,3,3,2,-8.33,-1.68,1.13,-2.22,0.9,0.31
7.703792929649353,2,3,3,2,-8.01,-1.73,0.95,-2.6,1.79,-0.37
7.71379292011261,2,3,3,2,-7.72,-1.79,1.15,-2.46,2.68,-1.06
7.723792910575867,2,3,3,2,-7.3,-1.9,1.36,-2.16,3.05,-1.61
7.733792901039124,2,3,3,2,-6.47,-2.07,1.28,-2.1,2.97,-1.95
7.74379289150238,2,3,3,2,-6.09,-2.21,1.16,-2.29,2.79,-2.22
7.753792881965637,2,3,3,2,-5.9,-2.37,0.9,-2.25,2.42,-2.25
7.763792872428894,2,3,3,2,-5.69,-2.52,0.59,-1.98,1.91,-2.28
7.773792862892151,2,3,3,2,-5.21,-2.47,0.12,-1.64,1.06,-2.08
7.783792853355408,2,3,3,2,-5.11,-2.22,0.49,-0.58,0.37,-2.07
7.793793082237244,2,3,3,2,-5.18,-2,1.24,1.26,-0.63,-1.8
7.8037930727005,2,3,3,2,-5.3,-1.84,1.81,3.23,-1.84,-1.22
7.813793063163757,2,3,3,2,-5.73,-2.2,2.16,3.48,-2.98,-0.7
7.823793053627014,2,3,3,2,-6.05,-2.09,1.03,2.5,-3.83,-0.5600000000000001
7.833793044090271,2,3,3,2,-6.28,-1.79,0.12,0.34,-4.24,-0.97
7.843793034553528,2,3,3,2,-7.72,-0.86,2.74,-0.44,-2.96,-1.46
7.853793025016785,2,3,3,2,-8.720000000000001,-0.32,3.65,1.13,-1.36,-1.8
7.863793015480042,2,3,3,2,-9.25,0.16,3.01,1.18,-1.79,-2.28
7.873793005943298,2,3,3,2,-9.380000000000001,0.37,1.99,-1.18,-3.13,-3.03
7.883792996406555,2,3,3,2,-9.460000000000001,0.33,2.28,-2.85,-2.71,-3.97
7.893792986869812,2,3,3,2,-9.74,0.09,2.35,-2.84,-1.07,-4.53
7.903792977333069,2,3,3,2,-9.69,0.02,2.41,-2.67,-0.74,-4.61
7.913792967796326,2,3,3,2,-9.94,-0.42,3.01,-2.28,-1.81,-4.05
7.923792958259583,2,3,3,2,-10.26,-1.28,4.51,-1.22,-3.38,-3.12
7.933792948722839,2,3,3,3,-10.53,-1.49,4.96,-0.54,-4.43,-1.84
7.943792939186096,2,3,3,3,-10.96,-1.41,4.99,-0.66,-4.89,-0.21
7.953792929649353,2,3,3,3,-11.5,-1.24,4.96,-0.95,-4.45,1.25
7.96379292011261,2,3,3,3,-13.71,-1.5,5.89,-1.25,-3.16,2.27
7.973792910575867,2,3,3,3,-15.27,-1.96,5.75,-0.93,-3.04,2.62
7.983792901039124,2,3,3,3,-16.9,-2.13,5.49,-0.5600000000000001,-3.48,2.71
7.99379289150238,2,3,3,3,-18.91,-1.77,5.92,0.8100000000000001,-1.96,2.65
8.003792881965637,2,3,3,3,-21.87,0.61,6.47,3.15,-0.43,2.14
8.013792872428894,2,3,3,3,-22.05,1.65,6.43,3.3,-0.37,1.3
8.023792862892151,2,3,3,3,-21.65,1.83,6.7,1.97,-0.04,0.49
8.033792853355408,2,3,3,3,-21.62,1.02,7.36,0.75,1.75,0.05
8.043793082237244,2,3,3,3,-22.16,0.67,7.43,0.09,4.17,-0.65
8.0537930727005,2,3,3,3,-22.88,0.4,7,-0.38,6.02,-0.97
8.063793063163757,2,3,3,3,-23.54,0.34,6.66,-0.25,6.42,-0.62
8.073793053627014,2,3,3,3,-24.36,-0.39,6.19,0.24,5.99,0.28
8.083793044090271,2,3,3,3,-24.48,-0.59,5.96,0.59,4.55,1.43
8.093793034553528,2,3,3,3,-24.08,-0.43,6.48,1.29,2.35,2.4
8.103793025016785,2,3,3,3,-23.53,-0.09,7.16,2.74,1.09,3.3
8.113793015480042,2,3,3,3,-22.68,0.8100000000000001,7.94,4.54,1.63,4.68
8.123793005943298,2,3,3,3,-22.1,1.25,7.92,6.19,3.16,6.11
8.133792996406555,2,3,3,3,-20.91,1.26,7.44,6.61,4.23,6.64
8.143792986869812,2,3,3,3,-19.25,0.86,6.57,5.58,4.75,6.35
8.154792904853821,2,3,3,3,-16.48,-1.44,5.17,4.15,5.47,4.75
8.164792895317078,2,3,3,3,-14.62,-3.25,3.8,2.85,5.17,1.87
8.174792885780334,2,3,3,3,-12.08,-4.11,2.02,1.57,3.22,-0.62
8.184792876243591,2,3,3,3,-9.390000000000001,-4.18,-0.6,0.86,2.37,-2.06
8.194792866706848,2,3,3,3,-3.1,-4.29,-2.29,-0.38,5.25,-3.86
8.204792857170105,2,3,3,3,-1.33,-5.45,-0.33,-1.97,7.69,-5.53
8.214792847633362,2,3,3,3,0.21,-8.32,0.45,-7.58,3.99,-7.32
8.224793076515198,2,3,3,3,1.81,-15.82,-8.07,-21.1,-3.7,-11.04
8.234793066978455,2,3,3,3,1.67,-15.6,-9.960000000000001,-27.73,-6.82,-13.39
8.244793057441711,2,3,3,3,2.11,-14.4,-9.300000000000001,-21.33,-1.71,-12.09
8.254793047904968,2,3,3,3,4.04,-11.73,-5.55,-6.04,3.83,-10.91
8.264793038368225,2,3,3,3,7.98,-3.74,0.3,9.619999999999999,2.06,-11.72
8.274793028831482,2,3,3,3,5.75,-0.73,1.56,16.94,-1.72,-6.65
8.284793019294739,2,3,3,3,3.89,1.13,1.95,18.36,-2.74,2.81
8.294793009757996,2,3,3,3,3.88,2.95,1.99,18.95,-1.17,7.81
8.304793000221252,2,3,3,3,5.45,6.2,1.79,20.12,1.73,10.38
8.314792990684509,2,3,3,3,4.88,6.28,1.59,17.51,3.61,12.33
8.324792981147766,2,3,3,3,3.55,5.86,1.53,12.54,3.83,12.85
8.334792971611023,2,3,3,3,1.73,5.33,1.15,6.3,1.26,11.87
8.34479296207428,2,3,3,3,-2.01,3.18,0.71,-0.5600000000000001,-1.74,10.9
8.354792952537537,2,3,3,3,-3.53,1.97,0.59,-5.09,-2.69,10.34
8.364792943000793,2,3,3,3,-5.01,1.43,0.53,-6.8,-1.25,9.1
8.37479293346405,2,3,3,3,-5.71,1.48,0.5600000000000001,-6.58,1.98,7.15
8.384792923927307,2,3,3,3,-6.58,0.8100000000000001,1.01,-6.13,4.81,4.97
8.394792914390564,2,3,3,3,-6.18,0.11,0.6899999999999999,-7.06,4.12,1.74
8.404792904853821,2,3,3,3,-5.24,-0.52,-0.05,-8.800000000000001,1.27,-1.94
8.414792895317078,2,3,3,3,-2.09,-0.74,-1.56,-9.289999999999999,0.17,-5.63
8.424792885780334,2,3,3,3,-0.59,-0.87,-1.62,-8.23,1.32,-8.039999999999999
8.434792876243591,2,3,3,3,0.45,-0.9399999999999999,-1.21,-6.51,2.47,-9.65
8.444792866706848,2,3,3,3,1.29,-1.09,-0.54,-4.79,2.93,-11.28
8.454792857170105,2,3,3,3,2.06,-1.69,-0.57,-3.99,1.12,-12.11
8.464792847633362,2,3,3,3,2.39,-1.97,-0.92,-3.45,-0.97,-11.93
8.474793076515198,2,3,3,3,2.29,-1.97,-1.22,-2.42,-1.14,-10.69
8.484793066978455,2,3,3,3,1.79,-1.71,-1.32,-0.14,0.07000000000000001,-8.720000000000001
8.494793057441711,2,3,3,3,1.13,-0.77,-0.38,3.29,0.77,-6.94
8.504793047904968,2,3,3,3,1.19,-0.22,0.25,6.42,-0.31,-5.4
8.514793038368225,2,3,3,3,1.38,0.39,0.44,7.55,-2.36,-3.64
8.524793028831482,2,3,3,3,1.53,0.96,0.41,7.23,-3.89,-1.52
8.534793019294739,2,3,3,3,0.83,1.21,1.17,5.72,-4.38,0.65
8.544793009757996,2,3,3,3,0.5,1.22,2.46,4.52,-5.23,2.6
8.554793000221252,2,3,3,3,0.21,0.84,2.47,3.11,-6.36,4.44
8.564792990684509,2,3,3,3,-0.54,-1.9,-0.05,-1.41,-7.16,6.33
8.574792981147766,2,3,3,3,-1.36,-2.64,0.97,-5.84,-6.01,8.19
8.584792971611023,2,3,3,3,-2.49,-3.32,5,-3.02,-3.47,10.13
8.59479296207428,2,3,3,3,-4.02,-5.34,7.07,1.63,-2.9,13.26
8.604792952537537,2,3,3,3,-8.539999999999999,-11.26,3.63,-2.18,-3.55,17.36
8.614792943000793,2,3,3,3,-18.47,-10.27,7.95,-3.54,4.09,21.43
8.62479293346405,2,3,3,3,-38.45,-15.9,12.9,-1.31,18.36,25.5
8.634792923927307,2,3,3,3,-39.11,-15.21,0.31,14.94,-5.95,24.67
8.644792914390564,2,3,3,3,-31.87,24.72,-0.02,32.15,18.46,-0.85
8.654792904853821,2,3,3,3,-26.48,19.09,11.96,31.83,3.98,-20.28
8.664792895317078,2,3,3,3,-24.6,9.109999999999999,15.79,8.199999999999999,-16.32,-14.69
8.674792885780334,2,3,3,3,-19.23,2.85,12.09,-5.8,-6.23,-1.93
8.684792876243591,2,3,3,3,-10.51,-1.32,8.710000000000001,-11.16,-14.12,9.07
8.694792866706848,2,3,3,3,-11.94,-0.54,10.46,-8.630000000000001,-13.12,12.59
8.704792857170105,2,3,3,3,-17.17,0.97,9.83,-5.66,1.22,11.24
8.714792847633362,2,3,3,3,-23.4,4.09,6.81,-5.16,14.95,9.07
8.724793076515198,2,3,3,3,-31.38,4.28,0.18,-5.7,21.63,3.26
8.734793066978455,2,3,3,3,-29.53,3.01,-0.21,-0.07000000000000001,16.82,-4.2
8.744793057441711,2,3,3,3,-24.49,1.31,1.68,5.23,-0.35,-10.62
8.754793047904968,2,3,3,3,-13.34,-0.47,5.13,3.08,-15.85,-13.25
8.764793038368225,2,3,3,3,-11.41,-0.16,5.32,-0.48,-14.41,-11.95
8.774793028831482,2,3,3,3,-11.05,0.05,5.09,-1.74,-5.44,-9.58
8.784793019294739,2,3,3,3,-11.32,0.14,4.77,-2.26,-0.07000000000000001,-7.33
8.794793009757996,2,3,3,3,-12.69,-0.66,4.15,-3.16,2.42,-6.34
8.804793000221252,2,3,3,3,-13.29,-1.25,3.16,-3.54,4.49,-6.03
8.814792990684509,2,3,3,3,-13.01,-1.79,2.16,-3.5,5,-5.27
8.824792981147766,2,3,3,3,-12.1,-2.04,1.36,-3.16,3.15,-4.1
8.834792971611023,2,3,3,3,-8.67,-1.6,0.83,-2.99,0.57,-2.86
8.84479296207428,2,3,3,3,-7.05,-1.3,0.98,-2.67,-0.93,-1.7
8.854792952537537,2,3,3,3,-5.92,-0.87,1.25,-2.29,-1.34,-0.96
8.864792943000793,2,3,3,3,-5.07,-0.5600000000000001,1.39,-2.04,-0.8,-1.22
8.87479293346405,2,3,3,3,-3.78,-0.5600000000000001,1.08,-2.14,0.17,-1.79
8.884792923927307,2,3,3,3,-3.18,-0.66,0.76,-2.44,0.93,-2.38
8.894792914390564,2,3,3,3,-2.78,-0.97,0.59,-2.71,0.74,-2.93
8.904792904853821,2,3,3,3,-2.37,-1.22,0.42,-2.56,-0.16,-3.49
8.914792895317078,2,3,3,3,-1.55,-1.54,0.48,-2.45,-1.1,-4.06
8.924792885780334,2,3,3,3,-1.55,-1.85,0.74,-2.21,-0.87,-4.09
8.934792876243591,2,3,3,3,-1.78,-2.09,0.97,-1.71,0.43,-3.61
8.944792866706848,2,3,3,3,-2.84,-2.32,1.07,-0.99,2,-2.69
8.954792857170105,2,3,3,3,-3.5,-2.47,0.98,-0.15,2.93,-1.52
8.964792847633362,2,3,3,3,-4.16,-2.55,1.03,0.93,3.08,-0.41
8.974793076515198,2,3,3,3,-4.76,-2.68,1.03,1.83,2.6,0.65
8.984793066978455,2,3,3,3,-6.05,-2.48,1.13,2.49,1.74,1.32
8.994793057441711,2,3,3,3,-6.77,-2.34,1.39,3.47,0.83,1.66
9.004793047904968,2,3,3,3,-7.4,-2.26,1.7,4.26,-0.58,1.93
9.014793038368225,2,3,3,3,-8.279999999999999,-2.27,2.06,4.44,-2.16,2.43
9.024793028831482,2,3,3,3,-10.45,-2.44,2.77,4.27,-3.64,3.26
9.034793019294739,2,3,3,3,-10.45,-2.44,2.77,3.98,-5.15,4.35
9.044793009757996,2,3,3,3,-11.74,-2.42,2.88,3.38,-5.84,5.45
9.054793000221252,2,3,3,3,-14,-1.97,2.45,3.58,-5.63,6.44
9.064792990684509,2,3,3,3,-13.84,-0.89,1.32,4.12,-4.41,6.47
9.074792981147766,2,3,3,3,-13.2,-0.15,1.58,4.64,-2.39,5.06
9.084792971611023,2,3,3,3,-13.2,-0.15,1.58,4.99,-0.88,2.15
9.09479296207428,2,3,3,3,-12.43,0.65,2.28,4.33,-1.07,-0.84
9.104792952537537,2,3,3,3,-9.609999999999999,1.04,3.71,2.47,-1.92,-2.62
9.114792943000793,2,3,3,3,-8.720000000000001,0.63,3.97,0.32,-1.57,-2.68
9.12479293346405,2,3,3,3,-8.33,0.1,3.98,-2.29,-0.05,-1.81
9.134792923927307,2,3,3,3,-8.33,0.1,3.98,-4.36,1.24,-0.6899999999999999
9.144792914390564,2,3,3,3,-8.369999999999999,-0.41,3.51,-5.83,2.04,0.16
9.154792904853821,2,3,3,3,-8.529999999999999,-0.74,2.23,-6.97,2.61,0.43
9.164792895317078,2,3,3,3,-8.300000000000001,-0.9,1.82,-7.63,2.56,0.32
9.174792885780334,2,3,3,3,-7.72,-1.51,1.2,-7.67,2.11,-0.46
9.185793042182922,2,3,3,3,-7.59,-1.99,1.09,-7.13,1.87,-1.46
9.195793032646179,2,3,3,3,-7.59,-1.99,1.09,-5.88,1.92,-2.2
9.205793023109436,2,3,3,3,-7.79,-2.63,0.99,-4.23,2.05,-2.34
9.215793013572693,2,3,3,3,-8.630000000000001,-2.9,1.91,-2.32,2.07,-2.21
9.22579300403595,2,3,3,3,-9.24,-2.92,2.04,-0.42,1.66,-1.7
9.235792994499207,2,3,3,3,-9.24,-2.92,2.04,0.82,0.37,-0.79
9.245792984962463,2,3,3,3,-9.630000000000001,-2.91,2.11,1.67,-0.67,0.29
9.25579297542572,2,3,3,3,-10.19,-2.01,1.65,2.66,-1.21,1.05
9.265792965888977,2,3,3,3,-10.24,-1.63,1.94,3.81,-1.45,1.39
9.275792956352234,2,3,3,3,-10.22,-1.26,2.33,5.01,-1.67,1.48
9.285792946815491,2,3,3,3,-10.22,-1.26,2.33,5.67,-1.97,1.46
9.295792937278748,2,3,3,3,-10.26,-0.97,2.63,5.5,-2.22,1.49
9.305792927742004,2,3,3,3,-10.24,-0.39,3.17,4.64,-2.23,1.66
9.315792918205261,2,3,3,3,-10.21,-0.37,3.26,3.16,-2.08,1.98
9.325792908668518,2,3,3,3,-9.77,-0.23,3.26,1.72,-1.7,2.16
9.335792899131775,2,3,3,3,-9.77,-0.23,3.26,0.98,-1.17,2.07
9.345792889595032,2,3,3,3,-9.460000000000001,-0.19,3.14,0.16,-0.61,1.8
9.355792880058289,2,3,3,3,-9.199999999999999,-0.31,2.97,-0.84,-0.27,1.27
9.365792870521545,2,3,3,3,-9.029999999999999,-0.5600000000000001,2.65,-1.85,-0.07000000000000001,0.47
9.375792860984802,2,3,3,3,-8.960000000000001,-0.7,2.44,-2.87,0.29,-0.26
9.385792851448059,2,3,3,3,-8.960000000000001,-0.7,2.44,-2.87,0.29,-0.26
9.395793080329895,2,3,3,3,-8.94,-0.93,2.34,-3.83,1.52,-1.16
9.405793070793152,2,3,3,3,-9.029999999999999,-1.84,1.9,-3.93,1.82,-1.35
9.415793061256409,2,3,3,3,-9.140000000000001,-2.04,1.79,-3.76,1.72,-1.36
9.425793051719666,2,3,3,3,-9.33,-2.35,1.65,-3.25,1.14,-1.19
9.435793042182922,2,3,3,3,-9.33,-2.35,1.65,-3.25,1.14,-1.19
9.445793032646179,2,3,3,3,-9.550000000000001,-2.43,1.58,-2.66,0.64,-0.79
9.455793023109436,2,3,3,3,-9.550000000000001,-2.25,1.74,-0.71,-0.83,0.09
9.465793013572693,2,3,3,3,-9.44,-2.15,1.88,0.45,-1.1,0.43
9.47579300403595,2,3,3,3,-9.42,-2.03,1.96,1.51,-1.04,0.74
9.485792994499207,2,3,3,3,-9.42,-2.03,1.96,1.51,-1.04,0.74
9.495792984962463,2,3,3,3,-9.4,-1.74,2.01,2.45,-0.89,1
9.50579297542572,2,3,3,3,-9.4,-1.43,2.05,3.58,-0.46,1.13
9.515792965888977,2,3,3,3,-9.449999999999999,-1.13,2.37,3.87,-0.3,1.09
9.525792956352234,2,3,3,3,-9.51,-1.05,2.52,3.93,-0.17,1.1
9.535792946815491,2,3,3,3,-9.51,-1.05,2.52,3.93,-0.17,1.1
9.575792908668518,2,3,3,3,-9.470000000000001,-0.41,2.39,2,-0.04,1
9.585792899131775,2,3,3,3,-9.470000000000001,-0.41,2.39,2,-0.04,1
9.595792889595032,2,3,3,3,-9.42,-0.39,2.39,1.29,0.07000000000000001,0.61
9.605792880058289,2,3,3,3,-9.789999999999999,-0.65,2.45,0.19,0.26,-0.11
9.615792870521545,2,3,3,3,-9.789999999999999,-0.65,2.45,-0.04,0.13,-0.41
9.625792860984802,2,3,3,3,-9.779999999999999,-0.76,2.43,-0.3,0.23,-0.54
9.635792851448059,2,3,3,3,-9.66,-0.91,2.45,-0.3,0.23,-0.54
9.645793080329895,2,3,3,3,-9.41,-1.06,2.54,-0.34,0.47,-0.65
9.655793070793152,2,3,3,3,-9.369999999999999,-1.14,2.51,-0.03,0.1,-0.66
9.665793061256409,2,3,3,3,-9.220000000000001,-1.27,2.33,0.04,-0.24,-0.43
9.675793051719666,2,3,3,3,-9.220000000000001,-1.27,2.33,0.13,-0.35,-0.1
9.685793042182922,2,3,3,3,-9.119999999999999,-1.29,2.33,0.13,-0.35,-0.1
9.695793032646179,2,3,3,3,-9.1,-1.28,2.32,0.2,-0.33,0.24
9.705793023109436,2,3,3,3,-9.140000000000001,-1.25,2.37,0.71,-0.07000000000000001,0.8
9.715793013572693,2,3,3,3,-9.27,-1.1,2.26,0.9,-0.06,0.9399999999999999
9.72579300403595,2,3,3,3,-9.369999999999999,-1.13,2.32,1,0,1.02
9.735792994499207,2,3,3,3,-9.470000000000001,-1.08,2.45,1,0,1.02
9.745792984962463,2,3,3,3,-9.529999999999999,-1.02,2.46,1.08,-0.09,1.09
9.75579297542572,2,3,3,3,-9.460000000000001,-1.06,2.51,0.75,-0.07000000000000001,1.1
9.765792965888977,2,3,3,3,-9.369999999999999,-1.11,2.47,0.48,0.14,1.06
9.775792956352234,2,3,3,3,-9.49,-1.13,2.52,0.32,0.22,0.9
9.785792946815491,2,3,3,3,-9.68,-0.99,2.58,0.32,0.22,0.9
9.795792937278748,2,3,3,3,-9.74,-0.79,2.56,0.2,0.09,0.71
9.805792927742004,2,3,3,3,-9.67,-0.72,2.61,-0.17,0.01,0.47
9.815792918205261,2,3,3,3,-9.550000000000001,-0.72,2.52,-0.54,0.02,0.39
9.825792908668518,2,3,3,3,-9.359999999999999,-0.77,2.54,-0.8100000000000001,0.21,0.29
9.835792899131775,2,3,3,3,-9.33,-0.85,2.58,-0.8100000000000001,0.21,0.29
9.845792889595032,2,3,3,3,-9.380000000000001,-0.87,2.58,-0.97,0.35,0.25
9.855792880058289,2,3,3,3,-9.44,-0.87,2.59,-1.15,0.07000000000000001,0.22
9.865792870521545,2,3,3,3,-9.44,-0.86,2.44,-1.21,-0.19,0.22
9.875792860984802,2,3,3,3,-9.42,-0.87,2.44,-1.27,-0.26,0.27
9.885792851448059,2,3,3,3,-9.390000000000001,-0.92,2.5,-1.27,-0.26,0.27
9.895793080329895,2,3,3,3,-9.41,-0.97,2.5,-1.37,-0.26,0.32
9.905793070793152,2,3,3,3,-9.359999999999999,-1.07,2.37,-1.58,0.05,0.49
9.915793061256409,2,3,3,3,-9.380000000000001,-1.13,2.27,-1.45,0.18,0.55
9.925793051719666,2,3,3,3,-9.43,-1.15,2.33,-1.34,0.21,0.59
9.935793042182922,2,3,3,3,-9.449999999999999,-1.11,2.32,-1.34,0.21,0.59
9.945793032646179,2,3,3,3,-9.529999999999999,-1.07,2.28,-1.17,0.18,0.58
9.955793023109436,2,3,3,3,-9.550000000000001,-1.07,2.32,-0.77,0.01,0.52
9.965793013572693,2,3,3,3,-9.57,-1.04,2.29,-0.71,-0.03,0.48
9.97579300403595,2,3,3,3,-9.550000000000001,-1,2.34,-0.74,-0.1,0.43
9.985792994499207,2,3,3,3,-9.449999999999999,-0.9399999999999999,2.38,-0.74,-0.1,0.43
9.995792984962463,2,3,3,3,-9.42,-0.91,2.4,-0.83,-0.2,0.41
10.00579297542572,2,3,3,3,-9.35,-0.92,2.5,-1.13,-0.27,0.46
10.01579296588898,2,3,3,3,-9.210000000000001,-0.97,2.34,-1.47,0.11,0.57
10.02579295635223,2,3,3,3,-9.609999999999999,-0.93,2.47,-1.41,0.23,0.62
10.03579294681549,2,3,3,3,-9.66,-0.89,2.47,-1.41,0.23,0.62
10.04579293727875,2,3,3,3,-9.58,-0.88,2.38,-1.5,0.01,0.57
10.055792927742,2,3,3,3,-9.51,-0.9,2.46,-1.37,0.26,0.33
10.06579291820526,2,3,3,3,-9.460000000000001,-1.02,2.38,-1.45,0.26,0.18
10.07579290866852,2,3,3,3,-9.460000000000001,-1.08,2.37,-1.43,0.35,0.07000000000000001
10.08579289913177,2,3,3,3,-9.470000000000001,-1.12,2.31,-1.43,0.35,0.07000000000000001
10.09579288959503,2,3,3,3,-9.5,-1.17,2.25,-1.41,0.42,0.03
10.10579288005829,2,3,3,3,-9.539999999999999,-1.12,2.23,-1.22,0.39,0.05
10.11579287052155,2,3,3,3,-9.529999999999999,-1.15,2.15,-0.53,0.08,0.16
10.1257928609848,2,3,3,3,-9.52,-1.14,2.19,-0.27,-0.02,0.23
10.13579285144806,2,3,3,3,-9.460000000000001,-1.07,2.31,-0.27,-0.02,0.23
10.1457930803299,2,3,3,3,-9.43,-0.99,2.37,-0.06,-0.05,0.26
10.15579307079315,2,3,3,3,-9.43,-0.97,2.4,0.01,-0.33,0.33
10.16579306125641,2,3,3,3,-9.44,-0.93,2.3,-0.15,-0.32,0.39
10.17579305171967,2,3,3,3,-9.470000000000001,-0.95,2.34,-0.16,-0.25,0.42
10.18579304218292,2,3,3,3,-9.460000000000001,-0.9399999999999999,2.39,-0.16,-0.25,0.42
10.19579303264618,2,3,3,3,-9.44,-0.99,2.33,-0.41,0.01,0.26
10.20679295063019,2,3,3,3,-9.449999999999999,-0.98,2.37,-0.46,0.09,0.13
10.21679294109344,2,3,3,3,-9.550000000000001,-0.91,2.26,-0.36,0.1,0.05
10.2267929315567,2,3,3,3,-9.57,-0.91,2.36,-0.3,0.04,0.01
10.23679292201996,2,3,3,3,-9.539999999999999,-0.92,2.36,-0.3,0.04,0.01
10.24679291248322,2,3,3,3,-9.48,-0.9399999999999999,2.35,-0.32,0.01,-0.01
10.25679290294647,2,3,3,3,-9.460000000000001,-0.93,2.33,-0.28,-0.03,0
10.2967928647995,2,3,3,3,-9.4,-0.98,2.43,-0.18,-0.22,0.04
10.30679285526276,2,3,3,3,-9.43,-0.98,2.41,-0.21,-0.32,0.16
10.31679308414459,2,3,3,3,-9.48,-1,2.36,-0.15,-0.43,0.2
10.32679307460785,2,3,3,3,-9.51,-1.04,2.35,-0.03,-0.54,0.23
10.33679306507111,2,3,3,3,-9.51,-1.03,2.42,-0.03,-0.54,0.23
10.34679305553436,2,3,3,3,-9.470000000000001,-1.1,2.47,0.1,-0.6899999999999999,0.21
10.35679304599762,2,3,3,3,-9.390000000000001,-1.13,2.44,-0.12,-0.46,0.19
10.36679303646088,2,3,3,3,-9.57,-1.05,2.38,0.07000000000000001,-0.35,0.14
10.37679302692413,2,3,3,3,-9.56,-1.01,2.41,0.18,-0.46,0.08
10.38679301738739,2,3,3,3,-9.44,-0.96,2.45,0.18,-0.46,0.08
10.39679300785065,2,3,3,3,-9.4,-0.93,2.57,0.28,-0.31,-0.01
10.4067929983139,2,3,3,3,-9.43,-0.88,2.61,0.11,-0.15,-0.13
10.41679298877716,2,3,3,3,-9.449999999999999,-0.88,2.51,-0.07000000000000001,-0.09,-0.19
10.42679297924042,2,3,3,3,-9.49,-0.86,2.5,-0.2,-0.03,-0.21
10.43679296970367,2,3,3,3,-9.49,-0.91,2.53,-0.2,-0.03,-0.21
10.44679296016693,2,3,3,3,-9.460000000000001,-0.99,2.42,-0.36,0.07000000000000001,-0.26
10.45679295063019,2,3,3,3,-9.470000000000001,-1.07,2.4,-0.57,0.37,-0.36
10.46679294109344,2,3,3,3,-9.52,-1.11,2.31,-0.47,0.36,-0.38
10.4767929315567,2,3,3,3,-9.44,-1.14,2.34,-0.28,0.22,-0.37
10.48679292201996,2,3,3,3,-9.4,-1.17,2.39,-0.28,0.22,-0.37
10.49679291248322,2,3,3,3,-9.34,-1.22,2.45,-0.11,0.2,-0.35
10.50679290294647,2,3,3,3,-9.300000000000001,-1.24,2.43,0,0.12,-0.27
10.51679289340973,2,3,3,3,-9.42,-1.29,2.28,0.24,0.04,0.02
10.52679288387299,2,3,3,3,-9.470000000000001,-1.23,2.24,0.37,-0.08,0.17
10.53679287433624,2,3,3,3,-9.48,-1.19,2.29,0.37,-0.08,0.17
10.5467928647995,2,3,3,2,-9.44,-1.12,2.37,0.5600000000000001,-0.17,0.22
10.55679285526276,2,3,3,2,-9.35,-1.08,2.39,0.72,-0.24,0.23
10.56679308414459,2,3,3,2,-9.42,-1.06,2.33,0.73,-0.18,0.18
10.57679307460785,2,3,3,2,-9.470000000000001,-1.05,2.38,0.7,-0.18,0.15
10.58679306507111,2,3,3,2,-9.529999999999999,-1.01,2.42,0.7,-0.18,0.15
10.59679305553436,2,3,3,2,-9.44,-0.97,2.43,0.64,-0.08,0.16
10.60679304599762,2,3,3,2,-9.5,-0.97,2.45,0.5600000000000001,0.08,0.14
10.61679303646088,2,3,3,2,-9.5,-0.95,2.36,0.61,0.14,0.1
10.62679302692413,2,3,3,2,-9.52,-0.92,2.43,0.68,0.23,0.03
10.63679301738739,2,3,3,2,-9.51,-0.9,2.5,0.68,0.23,0.03
10.64679300785065,2,3,3,2,-9.44,-0.9,2.47,0.71,0.21,-0.02
10.6567929983139,2,3,3,2,-9.5,-0.9,2.44,0.46,0.26,-0.09
10.66679298877716,2,3,3,2,-9.48,-0.85,2.3,0.41,0.28,-0.14
10.67679297924042,2,3,3,2,-9.42,-0.8,2.38,0.4,0.22,-0.2
10.68679296970367,2,3,3,2,-9.369999999999999,-0.85,2.46,0.38,0.24,-0.27
10.69679296016693,2,3,3,2,-9.300000000000001,-0.9,2.46,0.31,0.31,-0.29
10.70679295063019,2,3,3,2,-9.44,-0.96,2.35,0.11,0.43,-0.34
10.71679294109344,2,3,3,2,-9.48,-0.93,2.22,-0.01,0.51,-0.32
10.7267929315567,2,3,3,2,-9.529999999999999,-0.93,2.25,0.01,0.57,-0.27
10.73679292201996,2,3,3,2,-9.51,-0.89,2.3,0.07000000000000001,0.5,-0.23
10.74679291248322,2,3,3,2,-9.470000000000001,-0.91,2.4,0.06,0.37,-0.22
10.75679290294647,2,3,3,2,-9.51,-0.92,2.38,-0.01,0.36,-0.21
10.76679289340973,2,3,3,2,-9.529999999999999,-0.95,2.24,0,0.39,-0.27
10.77679288387299,2,3,3,2,-9.56,-0.93,2.22,0,0.42,-0.29
10.78679287433624,2,3,3,2,-9.5,-0.91,2.34,0.03,0.37,-0.32
10.7967928647995,2,3,3,2,-9.42,-0.89,2.36,0.05,0.31,-0.34
10.80679285526276,2,3,3,2,-9.380000000000001,-0.91,2.35,-0.06,0.32,-0.32
10.81679308414459,2,3,3,2,-9.449999999999999,-0.86,2.22,-0.1,0.42,-0.32
10.82679307460785,2,3,3,2,-9.48,-0.86,2.27,-0.05,0.38,-0.32
10.83679306507111,2,3,3,2,-9.460000000000001,-0.9399999999999999,2.32,0.02,0.39,-0.31
10.84679305553436,2,3,3,2,-9.43,-0.95,2.39,0.11,0.34,-0.31
10.85679304599762,2,3,3,2,-9.42,-0.92,2.23,0.07000000000000001,0.36,-0.29
10.86679303646088,2,3,3,2,-9.470000000000001,-0.92,2.22,-0.04,0.44,-0.31
10.87679302692413,2,3,3,2,-9.49,-0.93,2.28,0.05,0.37,-0.25
10.88679301738739,2,3,3,2,-9.470000000000001,-0.9399999999999999,2.31,0.07000000000000001,0.23,-0.24
10.89679300785065,2,3,3,2,-9.49,-0.99,2.33,0.05,0.2,-0.19
10.9067929983139,2,3,3,2,-9.48,-1.02,2.28,0.02,0.15,-0.17
10.91679298877716,2,3,3,2,-9.5,-1.01,2.17,-0.02,0.1,-0.17
10.92679297924042,2,3,3,2,-9.52,-0.98,2.18,-0.05,0.16,-0.18
10.93679296970367,2,3,3,2,-9.5,-1.01,2.27,0.01,0.09,-0.21
10.94679296016693,2,3,3,2,-9.48,-0.99,2.25,0.08,0.05,-0.22
10.95679295063019,2,3,3,2,-9.460000000000001,-1.01,2.3,0.08,0.11,-0.23
10.96679294109344,2,3,3,2,-9.470000000000001,-1.04,2.25,0.17,0.11,-0.21
10.9767929315567,2,3,3,2,-9.470000000000001,-1.08,2.27,0.18,0.09,-0.17
10.98679292201996,2,3,3,2,-9.460000000000001,-1.07,2.32,0.17,0.02,-0.14
10.99679291248322,2,3,3,2,-9.48,-1.06,2.27,0.15,0.08,-0.06
11.00679290294647,2,3,3,2,-9.48,-1.02,2.2,0.14,0.08,-0.04
11.01679289340973,2,3,3,2,-9.460000000000001,-1.03,2.15,0.24,0.1,-0.01
11.02679288387299,2,3,3,2,-9.470000000000001,-1.02,2.23,0.3,0.1,-0.02
11.03679287433624,2,3,3,2,-9.5,-1.05,2.29,0.35,0.01,-0.02
11.0467928647995,2,3,3,2,-9.550000000000001,-1.04,2.27,0.28,-0.07000000000000001,-0.06
11.05679285526276,2,3,3,2,-9.5,-1.07,2.25,0.24,-0.11,-0.02
11.06679308414459,2,3,3,2,-9.49,-1.03,2.14,0.21,-0.13,-0.04
11.07679307460785,2,3,3,2,-9.470000000000001,-1.04,2.21,0.21,-0.09,-0.05
11.08679306507111,2,3,3,2,-9.460000000000001,-1.04,2.27,0.27,-0.1,-0.03
11.09679305553436,2,3,3,3,-9.44,-1.04,2.31,0.31,-0.11,-0.06
11.10679304599762,2,3,3,3,-9.43,-1.06,2.33,0.39,-0.14,-0.04
11.11679303646088,2,3,3,3,-9.43,-1.04,2.26,0.39,-0.17,-0.05
11.12679302692413,2,3,3,3,-9.49,-1.05,2.27,0.33,-0.1,-0.06
11.13679301738739,2,3,3,3,-9.529999999999999,-1.03,2.26,0.18,-0.1,-0.03
11.14679300785065,2,3,3,3,-9.550000000000001,-1.03,2.25,0.02,-0.17,0.02
11.1567929983139,2,3,3,3,-9.59,-1.02,2.17,-0.14,-0.22,0.11
11.16679298877716,2,3,3,3,-9.67,-1.07,2.14,-0.32,-0.36,0.19
11.17679297924042,2,3,3,3,-9.800000000000001,-1.16,2.28,-0.33,-0.68,0.28
11.18679296970367,2,3,3,3,-9.94,-1.32,2.35,-0.28,-1.21,0.36
11.19679296016693,2,3,3,3,-9.960000000000001,-1.56,2.32,-0.34,-1.67,0.42
11.20679295063019,2,3,3,3,-9.779999999999999,-1.63,2.23,-0.21,-1.79,0.31
11.21679294109344,2,3,3,3,-9.619999999999999,-1.64,2.15,0.18,-1.67,0.02
11.22779285907745,2,3,3,3,-9.43,-1.65,2.2,0.46,-1.5,-0.44
11.23779284954071,2,3,3,3,-8.779999999999999,-1.5,2.41,0.7,-1.44,-0.93
11.24779307842255,2,3,3,3,-8.529999999999999,-1.48,2.57,0.92,-1.07,-1.48
11.2577930688858,2,3,3,3,-8.44,-1.5,2.77,1.22,-0.45,-1.95
11.26779305934906,2,3,3,3,-8.359999999999999,-1.53,2.73,1.34,0.07000000000000001,-2.1
11.27779304981232,2,3,3,3,-8.5,-1.49,2.8,1.25,0.46,-1.97
11.28779304027557,2,3,3,3,-8.779999999999999,-1.46,2.99,1.44,0.79,-1.79
11.29779303073883,2,3,3,3,-9.050000000000001,-1.42,3.17,1.92,0.84,-1.47
11.30779302120209,2,3,3,3,-9.26,-1.35,3.28,2.51,0.66,-1.09
11.31779301166534,2,3,3,3,-9.529999999999999,-1.12,3.35,2.97,0.42,-0.71
11.3277930021286,2,3,3,3,-9.550000000000001,-1.01,3.4,3.35,0.19,-0.31
11.33779299259186,2,3,3,3,-9.460000000000001,-0.86,3.34,3.35,-0.02,-0.06
11.34779298305511,2,3,3,3,-9.43,-0.68,3.53,2.96,-0.06,0.15
11.35779297351837,2,3,3,3,-9.460000000000001,-0.5,3.61,2.89,-0.2,0.32
11.36779296398163,2,3,3,3,-9.449999999999999,-0.42,3.53,2.74,-0.79,0.47
11.37779295444489,2,3,3,3,-9.41,-0.47,3.61,2.11,-1.35,0.65
11.38779294490814,2,3,3,3,-9.35,-0.45,3.6,1.54,-1.71,0.84
11.3977929353714,2,3,3,3,-9.18,-0.47,3.41,0.7,-2.1,0.89
11.40779292583466,2,3,3,3,-9.07,-0.51,3.4,-0.35,-1.93,0.85
11.41779291629791,2,3,3,3,-9.050000000000001,-0.65,3.51,-0.95,-1.3,0.74
11.42779290676117,2,3,3,3,-9.300000000000001,-0.9,3.94,-1.39,-0.87,0.5600000000000001
11.43779289722443,2,3,3,3,-9.279999999999999,-0.99,3.85,-1.58,-1.19,0.43
11.44779288768768,2,3,3,3,-9.289999999999999,-1.13,3.51,-2.09,-1.95,0.39
11.45779287815094,2,3,3,3,-9.24,-1.15,3.38,-2.46,-2.4,0.45
11.4677928686142,2,3,3,3,-9.119999999999999,-1.31,2.73,-2.58,-2.42,0.51
11.49779307842255,2,3,3,3,-8.84,-1.33,3.15,-0.93,-2.02,0.17
11.5077930688858,2,3,3,3,-8.68,-1.5,3.2,-0.16,-1.88,0.24
11.51779305934906,2,3,3,3,-8.630000000000001,-1.56,2.94,-0.01,-1.77,0.33
11.52779304981232,2,3,3,3,-8.789999999999999,-1.47,2.97,-0.16,-1.42,0.52
11.53779304027557,2,3,3,3,-9.029999999999999,-1.09,2.28,0.05,-1.05,0.79
11.54779303073883,2,3,3,3,-9.050000000000001,-0.87,2.38,0.14,-0.59,1.04
11.55779302120209,2,3,3,3,-8.93,-0.73,2.49,0.5,-0.09,1.05
11.56779301166534,2,3,3,3,-8.9,-0.73,2.26,0.38,0.59,0.92
11.5777930021286,2,3,3,3,-9.1,-0.89,2.26,-0.12,1.51,0.74
11.58779299259186,2,3,3,3,-9.35,-0.88,2.17,-0.19,2.18,0.59
11.59779298305511,2,3,3,3,-9.539999999999999,-0.85,1.98,-0.19,2.44,0.61
11.60779297351837,2,3,3,3,-9.720000000000001,-0.75,1.94,-0.39,2.36,0.61
11.61779296398163,2,3,3,3,-9.83,-0.33,1.33,-0.62,2.21,0.5600000000000001
11.62779295444489,2,3,3,3,-9.85,-0.13,1.41,-1.18,1.89,0.39
11.63779294490814,2,3,3,3,-9.859999999999999,0.05,1.71,-1.42,1.44,0.17
11.6477929353714,2,3,3,3,-9.890000000000001,0.05,1.88,-1.47,1.1,0.03
11.65779292583466,2,3,3,3,-9.99,-0.06,1.85,-1.58,0.92,-0.13
11.66779291629791,2,3,3,3,-9.949999999999999,-0.16,1.7,-1.66,0.96,-0.25
11.67779290676117,2,3,3,3,-9.83,-0.13,1.82,-1.76,1.01,-0.36
11.68779289722443,2,3,3,3,-9.710000000000001,-0.11,1.98,-1.6,0.85,-0.37
11.69779288768768,2,3,3,3,-9.5,-0.17,2.14,-1.5,0.93,-0.24
11.70779287815094,2,3,3,3,-9.5,-0.2,2.2,-1.34,1.41,0
11.7177928686142,2,3,3,3,-9.57,-0.1,2.12,-1.05,1.83,0.27
11.72779285907745,2,3,3,3,-9.460000000000001,0,2.04,-0.74,2.19,0.45
11.73779284954071,2,3,3,3,-9.470000000000001,0.25,2.29,-0.46,2.19,0.41
11.74779307842255,2,3,3,3,-9.49,0.32,2.31,-0.22,2.32,0.4
11.7577930688858,2,3,3,3,-9.49,0.27,2.2,-0.48,2.39,0.45
11.76779305934906,2,3,3,3,-9.59,0.26,2.01,-0.93,2.6,0.51
11.77779304981232,2,3,3,3,-9.609999999999999,0.17,1.97,-1.08,2.84,0.34
11.78779304027557,2,3,3,3,-9.550000000000001,0.08,1.9,-1.25,3.09,-0.04
11.79779303073883,2,3,3,3,-9.48,-0.02,1.82,-1.34,3.41,-0.48
11.80779302120209,2,3,3,3,-9.34,-0.37,1.68,-1.37,3.48,-0.87
11.81779301166534,2,3,3,3,-9.41,-0.55,1.66,-1.24,3.47,-1.06
11.8277930021286,2,3,3,3,-9.49,-0.73,1.7,-1.08,3.26,-1.09
11.83779299259186,2,3,3,3,-9.57,-0.79,1.7,-0.99,2.85,-0.95
11.84779298305511,2,3,3,3,-9.65,-0.74,1.59,-0.75,2.58,-0.86
11.85779297351837,2,3,3,3,-9.550000000000001,-0.65,1.54,-0.49,2.4,-0.88
11.86779296398163,2,3,3,3,-9.44,-0.55,1.37,-0.31,2.25,-1.01
11.87779295444489,2,3,3,3,-9.44,-0.52,1.44,-0.16,2.4,-1.2
11.88779294490814,2,3,3,3,-9.56,-0.32,1.66,0.37,2.24,-1.42
11.8977929353714,2,3,3,3,-9.550000000000001,-0.32,1.78,0.95,1.69,-1.68
11.90779292583466,2,3,3,3,-9.529999999999999,-0.37,1.72,1.16,1.24,-1.85
11.91779291629791,2,3,3,3,-9.51,-0.49,1.66,1.02,0.98,-1.93
11.92779290676117,2,3,3,3,-9.5,-0.5,1.72,1.06,0.83,-1.97
11.93779289722443,2,3,3,3,-9.51,-0.54,1.75,1.31,0.79,-1.92
11.94779288768768,2,3,3,3,-9.58,-0.49,1.88,1.61,0.76,-1.82
11.95779287815094,2,3,3,3,-9.449999999999999,-0.42,1.88,1.99,0.53,-1.74
11.9677928686142,2,3,3,3,-9.44,-0.4,1.92,2.22,0.42,-1.71
11.97779285907745,2,3,3,3,-9.43,-0.39,2.01,2.36,0.46,-1.72
11.98779284954071,2,3,3,3,-9.44,-0.34,1.98,2.5,0.7,-1.72
11.99779307842255,2,3,3,3,-9.57,-0.23,2.07,2.65,0.9,-1.75
12.0077930688858,2,3,3,3,-9.56,-0.2,1.96,2.67,0.89,-1.8
12.01779305934906,2,3,3,3,-9.619999999999999,-0.2,1.75,2.39,0.93,-1.91
12.02779304981232,2,3,3,3,-9.75,-0.13,1.73,2.35,1.37,-2.04
12.03779304027557,2,3,3,3,-9.77,-0.17,1.69,2.48,1.52,-2.3
12.04779303073883,2,3,3,3,-9.68,-0.19,1.76,2.82,1.46,-2.69
12.05779302120209,2,3,3,3,-9.68,-0.24,1.68,3.27,1.35,-3.06
12.06779301166534,2,3,3,3,-9.74,-0.27,1.48,3.59,1.24,-3.38
12.0777930021286,2,3,3,3,-9.789999999999999,-0.18,1.4,3.92,1,-3.5
12.08779299259186,2,3,3,3,-9.77,-0.14,1.35,4.24,0.61,-3.49
12.09779298305511,2,3,3,3,-9.699999999999999,-0.03,1.34,4.66,0.26,-3.42
12.10779297351837,2,3,3,3,-9.6,0.14,1.3,5.13,0.11,-3.32
12.11779296398163,2,3,3,3,-9.619999999999999,0.21,1.2,5.66,0.18,-3.25
12.12779295444489,2,3,3,3,-9.73,0.26,1.35,6.06,0.41,-3.15
12.13779294490814,2,3,3,3,-9.869999999999999,0.24,1.52,6.64,0.6,-3.02
12.1477929353714,2,3,3,3,-10.13,0.23,1.32,6.97,0.6,-2.9
12.15779292583466,2,3,3,3,-10.27,0.29,1.36,7.1,0.72,-2.73
12.16779291629791,2,3,3,3,-10.45,0.42,1.38,7.59,1.02,-2.5
12.17779290676117,2,3,3,3,-10.66,0.5,1.63,8.210000000000001,1.15,-2.27
12.18779289722443,2,3,3,3,-11.11,0.88,2.07,8.880000000000001,1.07,-2.03
12.19779288768768,2,3,3,3,-11.24,1.04,2.15,9.039999999999999,0.95,-1.81
12.20779287815094,2,3,3,3,-11.42,1.16,2.36,8.49,1.16,-1.4
12.2177928686142,2,3,3,3,-11.59,1.2,2.26,7.42,1.49,-1.02
12.22779285907745,2,3,3,3,-11.95,1.34,2.3,6.11,1.7,-0.55
12.23779284954071,2,3,3,3,-12.09,1.54,2.16,5.56,2.18,-0.02
12.24779307842255,2,3,3,3,-12.14,1.53,1.8,3.77,2.09,0.35
12.25879299640656,2,3,3,3,-12.23,1.5,1.62,1.52,1.79,0.5600000000000001
12.26879298686981,2,3,3,3,-12.13,0.8,1.09,-0.34,1.61,0.58
12.27879297733307,2,3,3,3,-12.12,0.31,1.33,-1.8,1.42,0.55
12.28879296779633,2,3,3,3,-12.13,-0.4,1.52,-2.26,0.84,0.4
12.29879295825958,2,3,3,3,-11.79,-1.71,1.35,-2.53,-0.29,0.39
12.30879294872284,2,3,3,3,-11.53,-2.14,1.5,-2.75,-1.33,0.66
12.32879292964935,2,3,3,3,-10.83,-2.96,1.56,-2.02,-2.69,1.82
12.35879290103912,2,3,3,3,-9.58,-4.13,1.6,-1.32,-1.89,2.92
12.36879289150238,2,3,3,3,-9.44,-4.41,1.58,-0.5,-1.16,2.85
12.37879288196564,2,3,3,3,-9.199999999999999,-4.64,1.36,0.18,-0.63,2.72
12.38879287242889,2,3,3,3,-9.06,-4.47,1.25,0.48,-0.11,2.71
12.39879286289215,2,3,3,3,-8.83,-4.05,1.17,0.75,0.68,2.7
12.40879285335541,2,3,3,3,-8.539999999999999,-3.6,1.39,1.36,1.58,2.89
12.41879308223724,2,3,3,3,-7.85,-2.62,1.93,2.15,2.12,3.2
12.4287930727005,2,3,3,3,-7.55,-2.44,2.13,2.48,2.38,3.37
12.43879306316376,2,3,3,3,-7.49,-2.24,2.24,2.27,2.5,3.22
12.44879305362701,2,3,3,3,-7.78,-1.95,2.63,2.1,2.61,2.97
12.45879304409027,2,3,3,3,-7.98,-1.86,2.71,2.15,2.41,2.93
12.46879303455353,2,3,3,3,-8.109999999999999,-1.66,2.78,2.35,1.29,3.21
12.47879302501678,2,3,3,3,-8.210000000000001,-1.43,2.93,2.82,-0.25,3.74
12.48879301548004,2,3,3,3,-8.34,-0.7,2.95,3.34,-2.15,4.47
12.4987930059433,2,3,3,3,-8.380000000000001,-0.38,2.92,3.32,-4.22,4.9
12.50879299640656,2,3,3,3,-8.41,-0.13,2.96,2.67,-5.66,5.11
12.51879298686981,2,3,3,3,-8.529999999999999,0.04,2.9,1.72,-6.37,5.29
12.52879297733307,2,3,3,3,-8.92,0.1,3.14,0.13,-6.85,5.38
12.53879296779633,2,3,3,3,-9.09,0.29,3.17,-1.59,-7.21,5.18
12.54879295825958,2,3,3,2,-9.220000000000001,0.17,3.16,-3.51,-7.36,4.79
12.55879294872284,2,3,3,2,-9.460000000000001,-0.04,3.15,-5.58,-7.29,4.39
12.5687929391861,2,3,3,2,-9.529999999999999,-0.42,2.62,-7.41,-7.18,3.91
12.57879292964935,2,3,3,2,-9.44,-0.58,2.45,-9,-7.01,3.42
12.58879292011261,2,3,3,2,-9.369999999999999,-0.86,2.3,-10.25,-6.79,3.13
12.59879291057587,2,3,3,1,-9.24,-1.03,2.13,-10.89,-6.66,3.07
12.60879290103912,2,3,3,1,-9.07,-1.52,2.18,-10.86,-6.48,3.28
12.61879289150238,2,3,3,1,-9.119999999999999,-1.81,2.33,-10.02,-6.3,3.46
12.62879288196564,2,3,3,1,-9.17,-2,2.68,-8.550000000000001,-6.31,3.71
12.63879287242889,2,3,3,1,-9.08,-2.14,3.2,-6.96,-6.66,3.98
12.64879286289215,2,3,3,1,-8.960000000000001,-2.1,3.29,-5.58,-7.44,4.1
12.65879285335541,2,3,3,1,-8.470000000000001,-1.77,3.02,-4.11,-8.52,4.03
12.66879308223724,2,3,3,1,-7.81,-1.5,2.65,-3.08,-9.050000000000001,3.46
12.6787930727005,2,3,3,1,-7.63,-0.6,2.84,-2.17,-7.86,2.82
12.68879306316376,2,3,3,1,-7.81,-0.14,3.1,-0.96,-5.86,2.47
12.69879305362701,2,3,3,1,-7.89,0.31,3.29,0.09,-4.44,2.17
12.70879304409027,2,3,3,1,-7.94,0.64,3.4,0.48,-4.14,1.85
12.71879303455353,2,3,3,1,-7.92,0.91,3.4,0.17,-3.84,1.59
12.72879302501678,2,3,3,1,-7.83,0.91,3.43,-0.52,-3.32,1.31
12.73879301548004,2,3,3,1,-7.78,0.9399999999999999,3.34,-1.63,-2.71,1.03
12.7487930059433,2,3,3,0,-7.77,1.03,3.22,-2.77,-1.72,0.63
12.75879299640656,2,3,3,0,-7.79,1.17,3.09,-3.66,-0.55,0.21
12.76879298686981,2,3,3,0,-7.85,1.22,3.1,-4.29,0.47,-0.21
12.77879297733307,2,3,3,0,-7.92,1.16,3.25,-4.63,1.32,-0.44
12.78879296779633,2,3,3,0,-8.039999999999999,1.08,3.46,-4.93,1.79,-0.5
12.79879295825958,2,3,3,0,-8.44,0.95,3.89,-5.01,2.05,-0.29
12.80879294872284,2,3,3,0,-8.49,1,3.88,-4.71,1.93,0.06
12.8187929391861,2,3,3,0,-8.460000000000001,1,3.62,-4.41,1.56,0.4
12.82879292964935,2,3,3,0,-8.4,1.01,3.93,-4.35,1.45,0.76
12.83879292011261,2,3,3,0,-8.460000000000001,0.96,4.15,-4.24,1.86,1.11
12.84879291057587,2,3,3,0,-8.41,0.9,4.15,-4.42,2.28,1.2
12.85879290103912,2,3,3,0,-8.44,0.79,4.09,-5.11,2.59,1.13
12.86879289150238,2,3,3,0,-8.880000000000001,0.37,3.95,-6.09,3.09,1.13
12.87879288196564,2,3,3,0,-9.08,0,4.02,-7.18,3.25,1.15
12.88879287242889,2,3,3,0,-9.279999999999999,-0.55,3.96,-8.630000000000001,2.81,1.03
12.89879286289215,2,3,3,0,-9.4,-1.07,3.51,-10.05,2.16,0.73
12.90879285335541,2,3,3,0,-9.890000000000001,-1.43,2.54,-11.2,1.89,0.27
12.91879308223724,2,3,3,0,-10.66,-1.32,3.39,-11.24,2.17,-0.13
12.9287930727005,2,3,3,0,-11.26,-1.05,4,-9.140000000000001,1.52,-0.31
12.93879306316376,2,3,3,0,-11.35,-0.87,3.8,-6.16,-1.04,-0.22
12.94879305362701,2,3,3,0,-11.32,0.21,5.43,-2.16,-3.24,0.55
12.95879304409027,2,3,3,0,-11.03,0.84,5.95,1.96,-4.89,1.83
12.96879303455353,2,3,3,0,-10.6,1.24,5.78,3.61,-6.13,3.25
12.97879302501678,2,3,3,0,-10.54,1.4,5.5,2.53,-5.61,4.5
12.98879301548004,2,3,3,0,-11.26,1.83,6.39,0.9399999999999999,-3.76,5.52
12.9987930059433,2,3,3,0,-12.23,1.7,6.99,-0.9,-2.23,6.03
13.00879299640656,2,3,3,0,-13.14,1.17,6.37,-3.38,-2.32,5.98
13.01879298686981,2,3,3,0,-14.52,-0.05,2.87,-7.36,-2.48,4.91
13.02879297733307,2,3,3,0,-15.76,-0.3,2.45,-9.34,-0.18,2.93
13.03879296779633,2,3,3,0,-16.12,-0.52,2.92,-7.52,1.75,0.35
13.04879295825958,2,3,3,0,-14.63,-1.1,3.61,-4.05,-0.64,-2.5
13.05879294872284,2,3,3,0,-9.76,-2.48,3.77,-1.53,-5.88,-4.44
13.0687929391861,2,3,3,0,-7.31,-2.54,4.14,-0.28,-9.83,-4.62
13.07879292964935,2,3,3,0,-5.52,-2.41,4.96,1.04,-8.82,-3.4
13.08979284763336,2,3,3,0,-4.61,-2.36,4.83,1.98,-5.38,-1.77
13.09879291057587,2,3,3,0,-5,-2.03,3.03,0.8,-2.75,-0.16
13.10879290103912,2,3,3,0,-6.11,-1.53,2.54,-1.02,-0.01,1.21
13.11979305744171,2,3,3,0,-7.13,-1.07,1.62,-1.91,2.99,1.62
13.12879288196564,2,3,3,0,-8.039999999999999,-1.01,0.83,-2.99,5.41,1.3
13.14879286289215,2,3,3,0,-10.55,-2.2,0.47,-3.27,7.14,-0.32
13.15879285335541,2,3,3,0,-10.86,-2.77,0.62,-2.12,5.74,-1.46
13.16879308223724,2,3,3,0,-10.69,-3.25,0.86,-0.89,3.01,-1.98
13.17979300022125,2,3,3,0,-9.130000000000001,-3.37,1.39,0.19,-0.25,-1.79
13.18879306316376,2,3,3,0,-8.24,-3.41,1.73,0.88,-2.72,-1.46
13.19879305362701,2,3,3,0,-7.56,-3.22,1.99,1.54,-3.62,-0.84
13.20879304409027,2,3,3,0,-6.72,-2.3,2.17,1.89,-3.08,0.19
13.21879303455353,2,3,3,0,-6.7,-1.97,2.17,1.78,-1.57,1.49
13.22879302501678,2,3,3,0,-6.84,-1.7,2.21,1.42,0.33,2.62
13.23879301548004,2,3,3,0,-7.2,-1.54,2.08,1.21,2.22,3.23
13.2487930059433,2,3,3,0,-8.16,-1.38,1.75,1.16,3.83,3.24
13.25879299640656,2,3,3,0,-8.609999999999999,-1.54,1.54,1.44,4.77,2.85
13.26879298686981,2,3,3,0,-8.99,-1.68,1.51,2.07,5.01,2.21
13.27979290485382,2,3,3,0,-9.35,-1.8,1.64,3.16,4.6,1.43
13.28979289531708,2,3,3,0,-9.640000000000001,-1.78,1.96,4.11,3.61,0.47
13.29979288578033,2,3,3,0,-9.41,-1.44,2.02,4.9,2.93,-0.63
13.30979287624359,2,3,3,0,-9.02,-1.04,2.23,5.33,2.8,-1.52
13.31979286670685,2,3,3,0,-8.74,-0.8100000000000001,2.48,5.29,3.21,-2.11
13.3297928571701,2,3,3,0,-8.77,-0.1,2.57,4.66,4.04,-2.55
13.33979284763336,2,3,3,0,-8.869999999999999,0.13,2.44,3.56,4.84,-2.74
13.3497930765152,2,3,3,0,-8.99,0.16,2.25,1.89,5.37,-2.85
13.35979306697845,2,3,3,0,-9.130000000000001,-0.04,2.12,0.34,5.54,-2.93
13.36979305744171,2,3,3,0,-9.44,-0.88,1.81,-0.92,5.25,-2.92
13.37979304790497,2,3,3,0,-9.44,-1.23,1.8,-1.54,4.39,-3.08
13.38979303836823,2,3,3,0,-9.300000000000001,-1.5,1.7,-1.91,3.27,-3.27
13.39979302883148,2,3,3,0,-9.050000000000001,-1.85,1.56,-2.11,2.52,-3.4
13.40979301929474,2,3,3,0,-8.93,-1.83,1.6,-2.02,1.99,-3.45
13.419793009758,2,3,3,0,-8.83,-1.73,1.55,-1.42,1.53,-3.44
13.42979300022125,2,3,3,0,-8.869999999999999,-1.61,1.61,-0.61,1.38,-3.27
13.43979299068451,2,3,3,0,-9.210000000000001,-1.33,1.92,0.34,1.68,-3.02
13.44979298114777,2,3,3,0,-9.460000000000001,-1.08,1.99,1.43,1.92,-2.83
13.45979297161102,2,3,3,0,-9.710000000000001,-0.87,2.06,2.52,2.06,-2.57
13.46979296207428,2,3,3,0,-9.789999999999999,-0.63,2.08,3.52,1.84,-2.37
13.47979295253754,2,3,3,0,-9.66,-0.31,2.08,4.08,1.35,-2.32
13.48979294300079,2,3,3,0,-9.51,-0.27,2.09,4.28,0.9399999999999999,-2.31
13.49979293346405,2,3,3,0,-9.51,-0.25,2.21,4.41,0.68,-2.24
13.50979292392731,2,3,3,0,-9.56,-0.22,2.24,4.36,0.41,-2.14
13.51979291439056,2,3,3,0,-9.609999999999999,-0.17,1.83,4.12,0.02,-2.1
13.52979290485382,2,3,3,0,-9.550000000000001,-0.11,1.76,3.94,-0.35,-2.22
13.53979289531708,2,3,3,0,-9.56,-0.04,1.87,3.89,-0.54,-2.62
13.54979288578033,2,3,3,0,-9.58,0.05,1.86,4.09,-0.58,-3.14
13.55979287624359,2,3,3,0,-9.75,0.29,1.83,4.26,-0.44,-3.71
13.56979286670685,2,3,3,0,-9.720000000000001,0.36,1.89,4.53,-0.54,-4.15
13.5797928571701,2,3,3,0,-9.550000000000001,0.31,2.05,5,-0.96,-4.64
13.58979284763336,2,3,3,0,-9.1,0.07000000000000001,2.48,5.74,-1.43,-5.11
13.5997930765152,2,3,3,0,-9,-0.18,2.77,6.47,-1.67,-5.48
13.60979306697845,2,3,3,0,-8.91,-0.36,2.76,7.2,-1.47,-5.6
13.61979305744171,2,3,3,0,-8.869999999999999,-0.43,2.49,7.5,-1.18,-5.55
13.62979304790497,2,3,3,0,-8.880000000000001,-0.33,2.37,7.67,-0.82,-5.34
13.63979303836823,2,3,3,0,-8.93,-0.16,2.41,7.91,-0.42,-5
13.64979302883148,2,3,3,0,-9.1,0.1,2.49,7.95,0.01,-4.52
13.65979301929474,2,3,3,0,-9.33,0.36,2.54,7.76,0.54,-3.96
13.669793009758,2,3,3,0,-9.880000000000001,0.85,2.28,7.59,1.09,-3.48
13.67979300022125,2,3,3,0,-9.99,1.1,2.36,7.58,1.22,-3.11
13.68979299068451,2,3,3,0,-10,1.1,2.9,7.9,0.89,-3.07
13.69979298114777,2,3,3,0,-9.84,0.68,3.58,8.609999999999999,0.82,-3.34
13.70979297161102,2,3,3,0,-9.81,-0.08,4.5,9.449999999999999,1.05,-3.75
13.71979296207428,2,3,3,0,-10.1,-0.25,4.73,10.03,1.39,-3.79
13.72979295253754,2,3,3,0,-10.29,-0.28,4.52,9.76,1.83,-2.96
13.73979294300079,2,3,3,0,-10.41,-0.24,4.12,8.050000000000001,3.47,-1.57
13.74979293346405,2,3,3,0,-11.02,-0.13,3.91,6.19,5.8,-0.13
13.75979292392731,2,3,3,0,-11.81,-0.4,3.48,4.3,7.48,1.04
13.76979291439056,2,3,3,0,-12.83,-0.54,2.34,1.67,8.699999999999999,1.97
13.77979290485382,2,3,3,0,-14.64,-0.6,0.05,-1.22,10.16,2.86
13.78979289531708,2,3,3,0,-14.99,-0.85,-0.45,-4.32,11.22,3.52
13.79979288578033,2,3,3,0,-15,-1.57,-0.18,-6.81,10.96,3.11
13.80979287624359,2,3,3,0,-14.66,-2.5,0.49,-7.64,9.59,2.1
13.81979286670685,2,3,3,0,-13.05,-5.29,0.89,-7.03,7.98,1.15
13.8297928571701,2,3,3,0,-11.79,-6.56,0.67,-5.66,6.46,-0.01
13.83979284763336,2,3,3,0,-10.51,-7.35,0.45,-3.64,5.09,-0.6
13.8497930765152,2,3,3,0,-9.41,-7.73,0.57,-0.85,4.15,-0.57
13.85979306697845,2,3,3,0,-7.53,-7.21,1.06,2.5,3.71,0.3
13.86979305744171,2,3,3,0,-6.9,-6.61,1.24,5.85,3.11,2.05
13.87979304790497,2,3,3,0,-6.59,-5.7,1.46,8.84,2.79,4.26
13.88979303836823,2,3,3,0,-6.34,-4.42,1.94,11.69,3.15,6.09
13.89979302883148,2,3,3,0,-7.05,-1.72,2.25,14.15,3.96,7.6
13.90979301929474,2,3,3,0,-7.74,-0.51,2.55,15.3,4.46,8.289999999999999
13.919793009758,2,3,3,0,-8.369999999999999,0.25,2.82,15.02,3.57,8.43
13.92979300022125,2,3,3,0,-9.369999999999999,1.13,3.27,12.98,1.57,8.050000000000001
13.93979299068451,2,3,3,0,-9.84,1.28,3.57,9.75,-1.02,7.31
13.94979298114777,2,3,3,0,-9.84,1.28,3.57,6.77,-3.5,6.35
13.95979297161102,2,3,3,0,-10.53,1.37,3.41,4.7,-5.54,5.55
13.96979296207428,2,3,3,0,-10.64,0.58,2.42,2.16,-7.11,5.04
13.97979295253754,2,3,3,0,-10.7,0.13,2.12,-0.04,-7.92,4.66
13.98979294300079,2,3,3,0,-10.5,-0.29,1.82,-1.77,-8.460000000000001,4.22
13.99979293346405,2,3,3,0,-10.5,-0.29,1.82,-2.92,-9.369999999999999,3.9
14.00979292392731,2,3,3,0,-9.699999999999999,-0.47,1.65,-3.89,-9.369999999999999,3.78
14.01979291439056,2,3,3,0,-9.43,-0.26,2.21,-4.05,-8.5,3.84
14.02979290485382,2,3,3,0,-8.76,-0.08,2.38,-3.89,-9.630000000000001,3.8
14.03979289531708,2,3,3,0,-8.09,-0.08,2.3,-5.41,-11.25,3.4
14.04979288578033,2,3,3,0,-8.09,-0.08,2.3,-7.46,-10.42,3.18
14.05979287624359,2,3,3,0,-8.66,-0.4,3.33,-8.210000000000001,-9.039999999999999,3.59
14.06979286670685,2,3,3,0,-8.779999999999999,-0.72,2.93,-8.59,-8.69,4.12
14.0797928571701,2,3,3,0,-8.699999999999999,-1.11,2.59,-9.83,-8.539999999999999,4.4
14.08979284763336,2,3,3,0,-8.5,-1.73,2.36,-10.24,-7.69,4.44
14.0997930765152,2,3,3,0,-8.5,-1.73,2.36,-9.42,-6.61,4.31
14.10979306697845,2,3,3,0,-8.42,-1.78,2.42,-8.17,-5.82,3.96
14.11979305744171,2,3,3,0,-8.359999999999999,-1.7,2.57,-6.89,-5.22,3.32
14.12979304790497,2,3,3,0,-8.52,-1.4,2.91,-5.53,-4.73,2.51
14.13979303836823,2,3,3,0,-8.630000000000001,-1.23,3.17,-4.26,-4.26,1.86
14.14979302883148,2,3,3,0,-8.73,-0.9,3.33,-3.08,-4.04,1.66
14.15979301929474,2,3,3,0,-8.65,-0.22,3.28,-2.33,-4.23,1.61
14.169793009758,2,3,3,0,-8.460000000000001,0.12,3.14,-2.06,-4.38,1.78
14.17979300022125,2,3,3,0,-8.289999999999999,0.38,3.15,-2.02,-4.29,2.03
14.18979299068451,2,3,3,0,-8.24,0.59,3.17,-2.12,-4.14,1.96
14.19979298114777,2,3,3,0,-8.06,0.85,3.18,-2.4,-3.87,1.62
14.20979297161102,2,3,3,0,-7.89,0.8100000000000001,3.11,-2.85,-3.67,1.2
14.21979296207428,2,3,3,0,-7.73,0.76,2.95,-3.52,-3.33,0.61
14.22979295253754,2,3,3,0,-7.59,0.71,2.96,-4.07,-2.63,-0.03
14.23979294300079,2,3,3,0,-7.3,0.83,3.1,-4.36,-1.91,-0.68
14.24979293346405,2,3,3,0,-7.06,0.92,3.2,-4.53,-1.15,-1.18
14.25979292392731,2,3,3,0,-6.8,0.96,3.32,-4.62,-0.32,-1.43
14.26979291439056,2,3,3,0,-6.62,0.91,3.41,-4.6,0.45,-1.41
14.27979290485382,2,3,3,0,-6.43,0.83,3.8,-4.56,1.1,-1.27
14.28979289531708,2,3,3,0,-6.51,0.83,3.85,-4.41,1.66,-0.95
14.29979288578033,2,3,3,0,-6.73,0.84,3.88,-4.37,2.34,-0.43
14.31079304218292,2,3,3,0,-7.08,0.83,3.91,-4.44,3.11,0.13
14.32079303264618,2,3,3,0,-7.82,0.51,3.74,-4.68,3.67,0.65
14.33079302310944,2,3,3,0,-8.199999999999999,0.18,3.72,-4.82,3.96,1.1
14.34079301357269,2,3,3,0,-8.550000000000001,-0.22,3.7,-4.94,3.8,1.53
14.35079300403595,2,3,3,0,-8.550000000000001,-0.22,3.7,-5.13,3.25,1.79
14.36079299449921,2,3,3,0,-9.050000000000001,-1.94,3.24,-5.71,2.59,1.65
14.37079298496246,2,3,3,0,-9.369999999999999,-2.44,2.6,-6.51,2.04,1.15
14.38079297542572,2,3,3,0,-9.85,-2.22,2.1,-6.64,1.7,0.33
14.39079296588898,2,3,3,0,-11.29,-0.73,2.69,-5.07,1.35,-0.43
14.40079295635223,2,3,3,0,-11.29,-0.73,2.69,-1.79,0.37,-0.51
14.41079294681549,2,3,3,0,-11.63,0.32,3.71,2.48,-1.66,0.21
14.42079293727875,2,3,3,0,-10.9,2.64,5.26,5.74,-3.71,1.33
14.430792927742,2,3,3,0,-9.359999999999999,4.76,5.91,6.5,-4.74,2.39
14.44079291820526,2,3,3,0,-8.84,5.85,6.47,5.45,-4.43,3.41
14.45079290866852,2,3,3,0,-8.84,5.85,6.47,3.7,-3.14,4.52
14.46079289913177,2,3,3,0,-8.710000000000001,6.66,7.51,0.37,-2.16,5.86
14.47079288959503,2,3,3,0,-12.44,4.33,7.39,-5.85,-3.23,7.7
14.48079288005829,2,3,3,0,-13.84,2.81,6.24,-14.35,-5.04,8.18
14.49079287052155,2,3,3,0,-15.37,1.68,5.95,-19.28,-3.29,6.8
14.5007928609848,2,3,3,0,-15.37,1.68,5.95,-19.18,1.15,4.55
14.51079285144806,2,3,3,0,-16.73,0.39,5.27,-16.42,3.55,2.06
14.5207930803299,2,3,3,0,-15.05,-4.72,2.01,-13.14,3.28,-0.92
14.53079307079315,2,3,3,0,-14.37,-5.13,2.49,-10.05,1.25,-3.75
14.54079306125641,2,3,3,0,-10.42,-3.71,3.7,-4.68,-2.13,-5.25
14.55079305171967,2,3,3,0,-10.42,-3.71,3.7,-4.68,-2.13,-5.25
14.56079304218292,2,3,3,0,-8.15,-3.59,4.68,5.53,-9.890000000000001,-3.83
14.57079303264618,2,3,3,0,-6.66,-3.68,4.76,8,-9.35,-2.09
14.58079302310944,2,3,3,0,-6.75,-2.16,3.91,9.300000000000001,-6.16,-0.49
14.59079301357269,2,3,3,0,-6.85,-1.19,3.17,8.93,-2.81,0.6899999999999999
14.60079300403595,2,3,3,0,-6.85,-1.19,3.17,8.93,-2.81,0.6899999999999999
14.61079299449921,2,3,3,0,-7.1,-0.42,2.54,7.01,0.39,1.26
14.62079298496246,2,3,3,0,-8.68,0.43,1.15,3.07,5.25,0.07000000000000001
14.63079297542572,2,3,3,0,-9.119999999999999,0.12,0.61,0.88,6.02,-1.24
14.64079296588898,2,3,3,0,-9.289999999999999,-0.63,0.3,-1.88,5.97,-2.63
14.65079295635223,2,3,3,0,-9.289999999999999,-0.63,0.3,-1.88,5.97,-2.63
14.66079294681549,2,3,3,0,-9.279999999999999,-1.61,0.24,-4.45,5,-3.49
14.67079293727875,2,3,3,0,-8.109999999999999,-3.17,0.84,-6.03,-0.16,-3.23
14.680792927742,2,3,3,0,-7.65,-3.43,1.33,-5.22,-1.91,-2.71
14.69079291820526,2,3,3,0,-7.08,-3.37,2.29,-4,-2.51,-1.95
14.70079290866852,2,3,3,0,-7.08,-3.37,2.29,-4,-2.51,-1.95
14.71079289913177,2,3,3,0,-6.89,-3,2.62,-2.61,-2.58,-1.06
14.72079288959503,2,3,3,0,-6.76,-2.61,2.77,-0.44,-0.72,0.83
14.73079288005829,2,3,3,0,-6.77,-2.19,2.72,0.31,1.42,1.52
14.74079287052155,2,3,3,0,-7.46,-1.68,2.34,0.95,3.42,1.75
14.7507928609848,2,3,3,0,-7.71,-1.57,2.14,0.95,3.42,1.75
14.76079285144806,2,3,3,0,-8.050000000000001,-1.46,1.95,2,5.24,1.57
14.7707930803299,2,3,3,0,-8.449999999999999,-1.38,1.85,4.95,6.77,0.53
14.78079307079315,2,3,3,0,-9.529999999999999,-1.53,1.42,6.55,6.58,-0.14
14.79079306125641,2,3,3,0,-9.75,-1.18,1.36,7.81,5.93,-0.86
14.80079305171967,2,3,3,0,-9.699999999999999,-0.97,1.55,7.81,5.93,-0.86
14.81079304218292,2,3,3,0,-9.51,-0.59,1.88,8.609999999999999,4.98,-1.59
14.82079303264618,2,3,3,0,-8.779999999999999,0.32,2.37,8.26,3.45,-2.4
14.83079302310944,2,3,3,0,-8.43,0.59,2.46,6.86,3.23,-2.41
14.84079301357269,2,3,3,0,-8.279999999999999,0.92,2.87,5.31,3.47,-2.33
14.85079300403595,2,3,3,0,-8.279999999999999,0.91,2.95,5.31,3.47,-2.33
14.86079299449921,2,3,3,0,-8.66,0.51,2.61,3.23,3.95,-2.22
14.87079298496246,2,3,3,0,-8.98,0.28,2.47,0.22,4.88,-2.61
14.88079297542572,2,3,3,0,-9.34,0.11,2.03,-0.71,4.6,-3.05
14.89079296588898,2,3,3,0,-9.470000000000001,-0.21,1.4,-1.05,4.49,-3.44
14.90079295635223,2,3,3,0,-9.43,-0.33,1.44,-1.05,4.49,-3.44
14.91079294681549,2,3,3,0,-9.369999999999999,-0.38,1.48,-0.65,3.96,-3.74
14.92079293727875,2,3,3,0,-9.289999999999999,-0.43,1.58,0.24,2.17,-4.14
14.930792927742,2,3,3,0,-9.24,-0.4,1.73,0.65,1.36,-4.18
14.94079291820526,2,3,3,0,-9.25,-0.27,1.79,0.74,0.5600000000000001,-4.16
14.95079290866852,2,3,3,0,-9.300000000000001,-0.27,1.98,0.74,0.5600000000000001,-4.16
14.96079289913177,2,3,3,0,-9.279999999999999,-0.21,2.04,0.78,-0.05,-4.04
14.97079288959503,2,3,3,0,-9.09,-0.07000000000000001,2.09,0.12,-0.49,-3.87
14.98079288005829,2,3,3,0,-9.039999999999999,-0.18,2.01,-0.23,-0.45,-3.79
14.99079287052155,2,3,3,0,-9.01,-0.34,1.95,-0.43,-0.18,-3.8
15.0007928609848,2,3,3,0,-9.07,-0.5,1.99,-0.43,-0.18,-3.8
15.01079285144806,2,3,3,0,-9.210000000000001,-0.72,2.08,-0.24,0.07000000000000001,-3.96
15.0207930803299,2,3,3,0,-9.24,-0.76,2.17,1.02,-0.25,-4.79
15.03079307079315,2,3,3,0,-9.26,-0.82,2.22,2.16,-0.6899999999999999,-5.29
15.04079306125641,2,3,3,0,-9.31,-0.87,2.27,3.45,-1.15,-5.74
15.05079305171967,2,3,3,0,-9.24,-0.63,2.36,3.45,-1.15,-5.74
15.06079304218292,2,3,3,0,-9.16,-0.44,2.56,4.83,-1.55,-5.98
15.07079303264618,2,3,3,0,-9.050000000000001,-0.25,2.41,6.8,-1.94,-5.98
15.08079302310944,2,3,3,0,-8.92,0,2.42,7.3,-1.5,-5.76
15.09079301357269,2,3,3,0,-9.01,0.13,2.7,7.39,-0.6899999999999999,-5.46
15.10079300403595,2,3,3,0,-9.24,0.36,2.8,7.39,-0.6899999999999999,-5.46
15.11079299449921,2,3,3,0,-9.550000000000001,0.6899999999999999,2.59,6.87,0.43,-4.93
15.12079298496246,2,3,3,0,-10.36,1.44,2.2,6.14,2.3,-3.37
15.13079297542572,2,3,3,0,-10.69,1.63,2.6,6.8,2.36,-2.67
15.14079296588898,2,3,3,0,-11,1.56,3.32,7.52,1.81,-2.17
15.15079295635223,2,3,3,0,-11.3,1.26,4.17,7.52,1.81,-2.17
15.16079294681549,2,3,3,0,-12.01,0.65,4.89,7.74,0.82,-1.65
15.17079293727875,2,3,3,0,-12.08,0.7,4.48,5.96,0.55,-0.05
15.180792927742,2,3,3,0,-12.01,1.07,4.23,5.04,2.97,0.58
15.19079291820526,2,3,3,0,-12.13,1.42,4.24,3.41,5.43,1.01
15.20079290866852,2,3,3,0,-12.51,1.61,3.67,3.41,5.43,1.01
15.21079289913177,2,3,3,0,-12.87,1.28,3.34,0.54,7.2,1.28
15.22079288959503,2,3,3,0,-13.38,0.65,2.5,-5.38,9.73,1.11
15.23079288005829,2,3,3,0,-13.89,-0.29,1.21,-7.65,10.41,0.96
15.24079287052155,2,3,3,0,-14.23,-2.29,-0.29,-8.34,9.84,0.65
15.2507928609848,2,3,3,0,-13.85,-3.18,0.15,-8.34,9.84,0.65
15.26079285144806,2,3,3,0,-13.01,-4.24,0.65,-7.36,7.96,0.37
15.2707930803299,2,3,3,0,-10.53,-6.65,0.17,-4.76,3.94,1.17
15.28079307079315,2,3,3,0,-9.529999999999999,-7.36,-0.04,-3.41,3.63,1.79
15.29079306125641,2,3,3,0,-8.539999999999999,-8,0.06,-1.21,3.23,2.74
15.30079305171967,2,3,3,1,-7.92,-8.050000000000001,0.24,-1.21,3.23,2.74
15.31079304218292,2,3,3,1,-7.15,-7,0.98,2.61,3.1,3.79
15.32079303264618,2,3,3,1,-7.11,-6.21,1.27,10.46,3.42,6.52
15.33179295063019,2,3,3,1,-7.25,-5.07,1.6,13.56,3.68,8.01
15.34179294109344,2,3,3,1,-7.39,-3.78,1.93,15.01,3.84,9.289999999999999
15.3517929315567,2,3,3,1,-8.119999999999999,-1.48,2.56,15.01,3.84,9.289999999999999
15.36179292201996,2,3,3,1,-8.75,-0.43,3.15,15.53,3.78,9.9
15.37179291248322,2,3,3,1,-9.44,0.49,3.65,13.3,0.28,8.34
15.38179290294647,2,3,3,1,-9.94,1.28,3.78,10.32,-2.17,6.62
15.39179289340973,2,3,3,1,-10.53,1.83,3.62,6.56,-3.99,4.81
15.40179288387299,2,3,3,2,-10.59,1.72,3.37,6.56,-3.99,4.81
15.41179287433624,2,3,3,2,-10.38,1.51,2.99,3.11,-5,3.43
15.4217928647995,2,3,3,2,-10.17,1.2,2.64,-1.94,-5.84,2.67
15.43179285526276,2,3,3,2,-9.880000000000001,0.59,2.05,-3.28,-6.47,2.83
15.44179308414459,2,3,3,2,-9.76,0.61,1.92,-4.34,-7.56,2.88
15.45179307460785,2,3,3,2,-9.470000000000001,0.63,1.89,-4.34,-7.56,2.88
15.46179306507111,2,3,3,2,-8.42,0.53,2,-5.52,-8.869999999999999,3.17
15.47179305553436,2,3,3,2,-7.86,0.29,2.2,-7.45,-10.13,3.78
15.48179304599762,2,3,3,2,-7.26,0.15,2.46,-8.32,-9.94,3.96
15.49179303646088,2,3,3,2,-6.85,0.02,2.87,-9.109999999999999,-9.130000000000001,4.21
15.50179302692413,2,3,3,2,-7.06,-0.51,3.54,-9.109999999999999,-9.130000000000001,4.21
15.51179301738739,2,3,3,2,-7.3,-0.88,3.47,-10.09,-8.5,4.74
15.52179300785065,2,3,3,2,-7.55,-1.22,3.11,-12.13,-7.34,5.18
15.5317929983139,2,3,3,2,-7.66,-1.46,2.62,-12.48,-6.18,4.86
15.54179298877716,2,3,3,2,-8,-1.44,2.55,-11.48,-5.04,4.55
15.55179297924042,2,3,3,2,-8.02,-1.45,2.59,-11.48,-5.04,4.55
15.56179296970367,2,3,3,2,-7.97,-1.44,2.6,-9.69,-4.59,4.29
15.57179296016693,2,3,3,2,-7.94,-1.4,2.59,-6.05,-4.24,3.46
15.58179295063019,2,3,3,2,-8.01,-1.06,2.71,-4.71,-3.93,3.13
15.59179294109344,2,3,3,2,-8.01,-0.77,2.89,-3.97,-3.79,2.62
15.6017929315567,2,3,3,2,-8.109999999999999,-0.4,2.97,-3.97,-3.79,2.62
15.61179292201996,2,3,3,2,-8.130000000000001,0.02,2.92,-3.74,-3.34,2.08
15.62179291248322,2,3,3,2,-8.119999999999999,0.8,2.82,-3.64,-1.42,1.39
15.63179290294647,2,3,3,2,-8.109999999999999,1.09,2.83,-3.3,-0.24,0.95
15.64179289340973,2,3,3,2,-8.1,1.25,2.98,-3.2,0.67,0.39
15.65179288387299,2,3,3,2,-7.96,1.21,3.14,-3.2,0.67,0.39
15.66179287433624,2,3,3,2,-7.85,1.08,3.19,-3.45,1.33,-0.35
15.6717928647995,2,3,3,2,-7.73,1.06,3.23,-3.81,2.78,-1.83
15.68179285526276,2,3,3,2,-7.6,1.05,3.25,-4.02,3.66,-2.54
15.69179308414459,2,3,3,2,-7.49,1.07,3.61,-4.36,4.35,-3.08
15.70179307460785,2,3,3,2,-7.63,1.1,4.07,-4.36,4.35,-3.08
15.71179306507111,2,3,3,2,-7.91,1.22,4.53,-4.28,4.48,-3.31
15.72179305553436,2,3,3,2,-8.01,1.31,4.46,-4.62,1.91,-2.91
15.73179304599762,2,3,3,2,-7.52,1.15,3.41,-4.96,2.33,-1.81
15.74179303646088,2,3,3,2,-7.86,0.74,3.85,-4.96,2.33,-1.81
15.75179302692413,2,3,3,3,-8.17,0.13,3.94,-5.19,3.51,-0.4
15.76179301738739,2,3,3,3,-8.130000000000001,-0.8,3.67,-6.68,3.46,0.59
15.77179300785065,2,3,3,3,-8.6,-3.35,2.58,-10.49,3.7,0.62
15.7817929983139,2,3,3,3,-8.859999999999999,-4,0.19,-14.12,4.65,-0.06
15.79179298877716,2,3,3,3,-10.02,-3.9,-1.23,-16.32,6.44,-1.68
15.80179297924042,2,3,3,3,-12.76,-2.56,0.91,-13.18,8.960000000000001,-2.87
15.81179296970367,2,3,3,3,-15.07,0.22,3.58,-2.35,5.49,-2.38
15.82179296016693,2,3,3,3,-13.34,1.9,3.95,8.15,-3.38,-0.76
15.83179295063019,2,3,3,3,-11.22,3.52,5.37,15.43,-9.06,1.31
15.84179294109344,2,3,3,3,-9.27,5.22,8.039999999999999,17.74,-9.82,3.52
15.8517929315567,2,3,3,3,-9.66,5.74,8.33,14.1,-8.609999999999999,6.03
15.86179292201996,2,3,3,3,-10.47,6.19,7.78,6.56,-6.84,9.65
15.87179291248322,2,3,3,3,-11.73,6.28,7.25,-1.76,-5.06,12.68
15.88179290294647,2,3,3,3,-16.01,5.21,7.12,-8.539999999999999,-3.1,13.77
15.89179289340973,2,3,3,3,-17.62,3.32,6,-14.02,-3.27,11.64
15.90179288387299,2,3,3,3,-18.77,0.19,2.81,-18.82,-5.56,7.46
15.91179287433624,2,3,3,3,-19.5,-2.38,0.13,-21.82,-4.28,2.31
15.9217928647995,2,3,3,3,-15.97,-3.48,1.38,-16.27,0.77,-3.21
15.93179285526276,2,3,3,3,-11.41,-4.03,2.92,-7.32,-0.03,-7.2
15.94179308414459,2,3,3,3,-7.34,-4.78,3.84,-2.9,-6.91,-8.5
15.95179307460785,2,3,3,3,-4.71,-5.4,4.22,-1.73,-12.14,-7.01
15.96179306507111,2,3,3,2,-2.71,-4.86,3.33,-0.75,-11.8,-4.75
15.97179305553436,2,3,3,2,-3.4,-4.11,2.53,0.05,-7.78,-2.44
15.98179304599762,2,3,3,2,-5.41,-3.08,2.33,-0.17,-3.14,0.28
15.99179303646088,2,3,3,2,-7.44,-1.99,2.15,-0.54,0.95,1.72
16.00179302692413,2,3,3,2,-9.109999999999999,-0.99,0.59,-0.87,3.51,1.91
16.01179301738739,2,3,3,2,-9.4,-1.29,-0.03,-1.45,5.15,1.21
16.02179300785065,2,3,3,2,-9.640000000000001,-1.9,-0.2,-2.29,6.56,-0.05
16.0317929983139,2,3,3,2,-9.800000000000001,-3.5,0.51,-2.52,6.03,-1.37
16.04179298877716,2,3,3,2,-9.6,-3.86,1.1,-2.06,3.27,-2.44
16.05179297924042,2,3,3,2,-9.029999999999999,-4.06,1.44,-1.83,-0.47,-2.44
16.06179296970367,2,3,3,2,-8.35,-3.96,1.79,-1.58,-2.87,-1.56
16.07179296016693,2,3,3,2,-7.41,-3.2,2.38,-0.72,-3.07,-0.7
16.08179295063019,2,3,3,2,-7.18,-2.72,2.54,0.52,-1.71,0.07000000000000001
16.09179294109344,2,3,3,2,-7.23,-2.33,2.81,1.19,0.11,0.79
16.1017929315567,2,3,3,2,-7.49,-2.06,2.87,1.57,1.95,1.29
16.11179292201996,2,3,3,2,-7.68,-1.97,2.08,1.71,3.48,1.39
16.12179291248322,2,3,3,2,-7.63,-2.02,1.69,2.19,4.7,1.09
16.13179290294647,2,3,3,2,-7.56,-1.93,1.36,3.62,5.6,0.71
16.14179289340973,2,3,3,2,-7.59,-2.2,1.31,5.76,6.05,-0.04
16.15179288387299,2,3,3,2,-8.16,-1.9,1.32,7.87,6.06,-0.6
16.16179287433624,2,3,3,1,-8.539999999999999,-1.69,1.48,9.51,5.54,-1.09
16.1717928647995,2,3,3,1,-8.91,-1.17,1.69,10.51,4.84,-1.57
16.18179285526276,2,3,3,1,-9.279999999999999,-0.59,1.63,10.98,4.38,-1.92
16.19179308414459,2,3,3,1,-9.18,0.37,2.4,10.78,3.86,-2.17
16.20179307460785,2,3,3,1,-8.9,0.64,2.71,10.13,3.23,-2.58
16.21179306507111,2,3,3,1,-8.640000000000001,0.8100000000000001,2.74,8.91,2.76,-2.9
16.22179305553436,2,3,3,1,-8.470000000000001,0.8,2.73,7.33,2.89,-3.16
16.23179304599762,2,3,3,1,-8.550000000000001,0.74,2.55,6.06,3.26,-3.4
16.24179303646088,2,3,3,1,-8.73,0.8100000000000001,2.62,4.67,3.44,-3.63
16.25179302692413,2,3,3,1,-8.890000000000001,0.74,2.29,3.28,3.49,-3.91
16.26179301738739,2,3,3,0,-9.050000000000001,0.48,2.02,1.78,3.37,-4.17
16.27179300785065,2,3,3,0,-9.039999999999999,0.24,2.02,1.07,3.23,-4.4
16.2817929983139,2,3,3,0,-8.970000000000001,-0.04,1.91,0.73,2.98,-4.69
16.29179298877716,2,3,3,0,-8.94,-0.3,1.94,0.72,2.62,-5.08
16.30179297924042,2,3,3,0,-9.02,-0.39,2.08,0.89,2.35,-5.4
16.31179296970367,2,3,3,0,-9.02,-0.27,2.19,1.23,1.95,-5.67
16.32179296016693,2,3,3,0,-9.06,-0.08,2.1,1.53,1.65,-5.88
16.33179295063019,2,3,3,0,-9.09,0.1,2.04,1.79,1.62,-5.92
16.34179294109344,2,3,3,0,-8.960000000000001,0.43,2.2,2.14,1.41,-5.78
16.35279285907745,2,3,3,0,-8.83,0.46,2.32,2.27,0.89,-5.38
16.36279284954071,2,3,3,0,-8.779999999999999,0.38,2.38,2.06,0.38,-4.88
16.37279307842255,2,3,3,0,-8.76,0.33,2.45,1.74,-0.05,-4.39
16.3827930688858,2,3,3,0,-9.06,0.05,2.3,1.3,-0.31,-3.94
16.39279305934906,2,3,3,0,-9.27,-0.09,2.27,0.88,-0.55,-3.64
16.40279304981232,2,3,3,0,-9.49,-0.17,2.14,0.74,-0.72,-3.58
16.41279304027557,2,3,3,0,-9.94,-0.52,1.95,0.79,-0.8,-3.8
16.42279303073883,2,3,3,0,-10.13,-0.7,1.75,1.09,-0.86,-4.2
16.43279302120209,2,3,3,0,-10.12,-0.75,1.46,1.81,-0.93,-4.72
16.44279301166534,2,3,3,0,-9.76,-0.8,1.4,3,-1.07,-5.31
16.4527930021286,2,3,3,0,-9.15,-0.49,2.15,4.4,-0.89,-5.89
16.46279299259186,2,3,3,0,-9.08,-0.12,2.45,5.97,-0.02,-6.18
16.47279298305511,2,3,3,0,-9.119999999999999,0.34,2.4,7.09,0.88,-5.99
16.48279297351837,2,3,3,0,-9.27,0.88,2.18,7.46,1.45,-5.15
16.49279296398163,2,3,3,0,-10.07,1.76,2.83,7.75,1.53,-3.79
16.50279295444489,2,3,3,0,-10.47,1.72,3.6,8.210000000000001,0.96,-2.43
16.51279294490814,2,3,3,0,-10.78,1.41,4.53,8.390000000000001,0.02,-1.36
16.5227929353714,2,3,3,0,-10.99,1.08,5.15,8.470000000000001,-0.9,-0.6899999999999999
16.53279292583466,2,3,3,0,-11.65,0.9399999999999999,5.46,8.039999999999999,-1.06,-0.31
16.54279291629791,2,3,3,0,-11.92,0.84,4.8,7.15,0.22,0.22
16.55279290676117,2,3,3,0,-11.96,0.74,3.8,5.08,2.74,1
16.56279289722443,2,3,3,0,-12.38,1.15,3.15,1.64,9.119999999999999,1.72
16.57279288768768,2,3,3,0,-12.88,1.21,2.94,1.64,9.119999999999999,1.72
16.58279287815094,2,3,3,0,-13.57,0.82,2.19,0.27,10.75,1.52
16.5927928686142,2,3,3,0,-14.16,0.13,0.9399999999999999,-1.54,11.76,1.18
16.60279285907745,2,3,3,0,-14.55,-1.42,0.26,-3.59,12.48,1.04
16.61279284954071,2,3,3,0,-14.16,-2.26,0.91,-5.01,11.64,0.9399999999999999
16.62279307842255,2,3,3,0,-13.1,-3.27,0.92,-5.8,8.640000000000001,1.14
16.6327930688858,2,3,3,0,-11.61,-4.62,0.4,-7.39,5.35,1.93
16.64279305934906,2,3,3,0,-9.84,-6.87,0.09,-8.58,4.21,2.99
16.65279304981232,2,3,3,0,-9.43,-7.84,0.19,-7.74,4.86,3.7
16.66279304027557,2,3,3,0,-9.199999999999999,-8.279999999999999,0.4,-1.65,5.14,5.3
16.67279303073883,2,3,3,0,-9.02,-8.07,0.5600000000000001,-1.65,5.14,5.3
16.68279302120209,2,3,3,0,-8.52,-6.66,1.27,3.54,4.88,6.1
16.69279301166534,2,3,3,0,-8.18,-5.36,1.51,9.06,3.57,6.77
16.7027930021286,2,3,3,0,-7.94,-4.12,1.75,12.87,2,7.55
16.71279299259186,2,3,3,0,-7.94,-2.89,2.03,14.41,1.64,8.76
16.72279298305511,2,3,3,0,-8.67,-0.52,2.79,14.88,1.55,9.449999999999999
16.73279297351837,2,3,3,0,-9.23,0.51,3.14,14.6,1.05,9.19
16.74279296398163,2,3,3,0,-9.720000000000001,1.41,3.44,13.45,-0.09,8.029999999999999
16.75279295444489,2,3,3,0,-10.56,2.14,3.78,10.55,-1.66,6.27
16.76279294490814,2,3,3,0,-10.63,1.76,3.6,6.28,-3.6,4.67
16.7727929353714,2,3,3,0,-10.53,1.25,3.18,1.78,-5.52,3.55
16.78279292583466,2,3,3,0,-10.46,0.75,2.78,-2.2,-7,2.87
16.79279291629791,2,3,3,0,-10.17,-0.1,2.28,-4.92,-8.23,2.53
16.80279290676117,2,3,3,0,-10.24,-0.24,2.15,-6.17,-9.539999999999999,2.5
16.81279289722443,2,3,3,0,-9.880000000000001,-0.32,1.76,-7.49,-13.55,2.43
16.82279288768768,2,3,3,0,-9.02,-0.36,1.2,-7.49,-13.55,2.43
16.83279287815094,2,3,3,0,-7.19,-0.65,1.04,-8.800000000000001,-14.32,2.76
16.8427928686142,2,3,3,0,-6.84,-0.46,1.91,-8.880000000000001,-13.07,2.95
16.85279285907745,2,3,3,0,-6.76,-0.33,2.62,-7.79,-11.27,3.09
16.86279284954071,2,3,3,0,-6.93,-0.23,2.95,-7.42,-10.4,3.32
16.87279307842255,2,3,3,0,-7.37,-0.65,3,-7.97,-9.9,3.81
16.8827930688858,2,3,3,0,-7.52,-1,2.83,-8.460000000000001,-9.119999999999999,4.3
16.89279305934906,2,3,3,0,-7.65,-1.22,2.76,-8.43,-8.31,4.67
16.90279304981232,2,3,3,0,-7.78,-1.27,2.85,-7.95,-7.43,4.74
16.91279304027557,2,3,3,0,-7.5,-0.93,2.66,-6.98,-7.15,4.65
16.92279303073883,2,3,3,0,-7.39,-0.73,2.72,-5.97,-6.83,4.17
16.93279302120209,2,3,3,0,-7.44,-0.43,2.91,-4.8,-5.55,3.48
16.94279301166534,2,3,3,0,-7.9,-0.03,3.51,-3.74,-4.43,2.56
16.9527930021286,2,3,3,0,-8.199999999999999,0.22,3.72,-3.36,-3.91,1.64
16.96279299259186,2,3,3,0,-8.26,0.42,3.72,-4.22,-3.8,0.61
16.97279298305511,2,3,3,0,-8.130000000000001,0.53,3.53,-4.22,-3.8,0.61
16.98279297351837,2,3,3,0,-8.15,0.84,3.29,-5.09,-3.11,0.23
16.99279296398163,2,3,3,0,-8.140000000000001,0.95,3.35,-5.56,-1.87,-0.27
17.00279295444489,2,3,3,0,-8.08,1.02,3.41,-5.57,0.18,-1.51
17.01279294490814,2,3,3,0,-8.01,0.93,3.49,-5.3,0.61,-2.14
17.0227929353714,2,3,3,0,-7.41,0.85,3.28,-5.3,0.61,-2.14
17.03279292583466,2,3,3,0,-7.06,0.77,3.1,-5.07,1.06,-2.8
17.04279291629791,2,3,3,0,-6.83,0.76,3.2,-4.81,2.39,-3.39
17.05279290676117,2,3,3,0,-6.71,0.87,3.4,-3.97,4.18,-3.67
17.06279289722443,2,3,3,0,-6.76,1.2,3.92,-1.89,6.29,-3.11
17.07279288768768,2,3,3,0,-6.89,1.37,4.22,-1.89,6.29,-3.11
17.08279287815094,2,3,3,0,-7.11,1.51,4.45,-1.06,6.66,-2.31
17.0927928686142,2,3,3,0,-7.48,1.53,4.69,-0.61,6.58,-1.21
17.10279285907745,2,3,3,0,-8.640000000000001,1.29,4.87,-2.52,4.01,1.7
17.11279284954071,2,3,3,0,-8.83,0.8100000000000001,4.85,-5.27,2.03,2.93
17.12279307842255,2,3,3,0,-8.800000000000001,-0.22,4.75,-5.27,2.03,2.93
17.1327930688858,2,3,3,0,-8.949999999999999,-3.96,2.77,-9.449999999999999,0.89,3.58
17.14279305934906,2,3,3,0,-9.24,-5.11,-0.25,-14.46,0.36,2.64
17.15279304981232,2,3,3,0,-10.93,-4.8,-2.09,-18.25,1.29,-0.48
17.16279304027557,2,3,3,0,-14.04,-3.38,0.26,-5.45,6.98,-5.21
17.17279303073883,2,3,3,0,-17.19,0.39,6.45,-5.45,6.98,-5.21
17.18279302120209,2,3,3,0,-14.36,1.52,5.89,9.140000000000001,-1.99,-4.02
17.19279301166534,2,3,3,0,-11.54,1.38,6.48,11.93,-16.55,2.37
17.2027930021286,2,3,3,0,-9.68,1.04,6.16,11.93,-16.55,2.37
17.21279299259186,2,3,3,0,-9.07,3.49,7.55,6.53,-6.75,8.68
17.22279298305511,2,3,3,0,-10.72,4.16,8.35,6.53,-6.75,8.68
17.23279297351837,2,3,3,0,-12.52,3.61,8.01,3.17,-3.87,11.68
17.24279296398163,2,3,3,0,-14.25,3.43,7,-6.14,-5.45,8.880000000000001
17.25279295444489,2,3,3,0,-16.37,2.6,3.37,-6.14,-5.45,8.880000000000001
17.26279294490814,2,3,3,1,-14.98,1.58,2.74,-4.37,-1.15,1.19
17.2727929353714,2,3,3,1,-12.96,-0.32,2.98,-4.37,-1.15,1.19
17.28279292583466,2,3,3,1,-11.62,-1.67,3.6,-1.29,-0.52,-1.79
17.29279291629791,2,3,3,1,-9.119999999999999,-2.71,3.22,-0.26,-3.07,-4.18
17.30279290676117,2,3,3,1,-8.550000000000001,-2.96,3.35,-2.31,-1.44,-4.35
17.31279289722443,2,3,3,1,-8.779999999999999,-2.99,3.78,-4.15,-0.59,-3.83
17.32279288768768,2,3,3,1,-10.09,-2.33,2.03,-4.15,-0.59,-3.83
17.33279287815094,2,3,3,1,-9.880000000000001,-1.82,1.02,-5.25,-1.49,-3.01
17.3427928686142,2,3,3,1,-9.25,-1.66,0.55,-6.4,1.12,-3.73
17.35279285907745,2,3,3,1,-8.359999999999999,-1.85,0.48,-7.06,2.55,-4.28
17.36279284954071,2,3,3,1,-6.44,-2.79,0.88,-7.58,1.94,-4.23
17.37279307842255,2,3,3,1,-5.8,-3.17,1.15,-7.58,1.94,-4.23
17.38379299640656,2,3,3,1,-5.61,-3.52,1.31,-7.93,0.8100000000000001,-3.49
17.39379298686981,2,3,3,1,-5.79,-3.79,1.49,-7.03,0.89,0.01
17.40379297733307,2,3,3,1,-6.57,-4.27,1.45,-5.68,1.46,1.36
17.41379296779633,2,3,3,1,-7.02,-4.14,1.35,-4,2.49,2.18
17.42379295825958,2,3,3,1,-7.42,-4.06,1.3,-4,2.49,2.18
17.43379294872284,2,3,3,1,-7.77,-3.9,1.29,-2.18,3.54,2.35
17.4437929391861,2,3,3,1,-8.34,-3.43,1.31,1.63,5.54,1.32
17.45379292964935,2,3,3,1,-8.52,-3.04,1.22,3.65,6.24,0.46
17.46379292011261,2,3,3,1,-8.529999999999999,-2.68,1.04,5.71,6.51,-0.47
17.47379291057587,2,3,3,1,-8.35,-2.29,0.82,7.9,6.55,-1.28
17.48379290103912,2,3,3,1,-8.16,-2.07,1.04,9.800000000000001,6.32,-1.89
17.52379286289215,2,3,3,1,-9.220000000000001,-0.9399999999999999,1.58,9.949999999999999,4.27,-3.08
17.53379285335541,2,3,3,1,-9.33,-0.48,1.64,9.18,4.22,-3.34
17.54379308223724,2,3,3,1,-9.33,-0.13,1.96,8.460000000000001,3.98,-3.57
17.5537930727005,2,3,3,1,-9.210000000000001,0.3,2.41,7.56,3.61,-3.78
17.56379306316376,2,3,3,1,-9.199999999999999,0.33,2.45,6.87,3.55,-3.78
17.57379305362701,2,3,3,1,-9.220000000000001,0.3,2.38,6.11,3.54,-3.64
17.58379304409027,2,3,3,1,-9.27,0.31,2.17,5.52,3.24,-3.57
17.59379303455353,2,3,3,1,-9.470000000000001,0.45,1.96,4.78,2.69,-3.51
17.60379302501678,2,3,3,1,-9.48,0.45,1.93,3.99,2.05,-3.31
17.61379301548004,2,3,3,1,-9.460000000000001,0.43,1.92,3.28,1.54,-3.34
17.6237930059433,2,3,3,1,-9.44,0.38,1.95,2.89,1.31,-3.58
17.63379299640656,2,3,3,1,-9.41,0.13,1.7,2.4,1.41,-3.83
17.64379298686981,2,3,3,1,-9.51,0.09,1.87,2.22,1.39,-4.23
17.65379297733307,2,3,3,1,-9.699999999999999,0.13,1.99,2.25,0.97,-4.73
17.66379296779633,2,3,3,1,-9.779999999999999,0.07000000000000001,2.06,1.99,0.39,-5.03
17.67379295825958,2,3,3,1,-9.84,-0.22,1.99,2.18,-0.14,-5.19
17.68379294872284,2,3,3,1,-9.73,-0.33,1.99,2.69,-0.89,-5.17
17.6937929391861,2,3,3,1,-9.470000000000001,-0.51,2.16,2.97,-1.55,-5.11
17.70379292964935,2,3,3,1,-8.960000000000001,-0.99,2.46,3.25,-1.81,-5.07
17.71379292011261,2,3,3,1,-8.789999999999999,-1.11,2.29,3.34,-1.86,-5.06
17.72379291057587,2,3,3,1,-8.75,-1.12,2.16,3.76,-1.68,-5.1
17.73379290103912,2,3,3,1,-8.789999999999999,-1.04,1.99,4.68,-1.64,-5.2
17.74379289150238,2,3,3,1,-8.890000000000001,-0.64,2.2,6.09,-1.78,-5.35
17.79379308223724,2,3,3,1,-8.51,1.08,2.67,8.039999999999999,0.26,-4.09
17.8037930727005,2,3,3,1,-8.76,1.3,2.66,7.28,1.17,-3.3
17.81379306316376,2,3,3,2,-9.09,1.54,2.37,6.44,1.55,-2.39
17.82379305362701,2,3,3,2,-10.01,1.66,3.01,6.24,1.16,-1.47
17.83379304409027,2,3,3,2,-10.33,1.33,3.51,5.96,0.14,-0.84
17.84379303455353,2,3,3,2,-10.54,0.76,4.31,5.83,-0.46,-0.55
17.85379302501678,2,3,3,2,-10.88,0.32,4.96,5.86,-0.72,-0.32
17.86379301548004,2,3,3,2,-11.47,0,4.88,5.26,-0.11,0.05
17.8737930059433,2,3,3,2,-11.65,0.24,4.6,4.41,2.03,0.7
17.88379299640656,2,3,3,2,-11.69,0.7,4.42,3.25,4.6,1.4
17.89379298686981,2,3,3,2,-12.16,0.84,4.44,1.13,6.49,2.08
17.90379297733307,2,3,3,2,-12.53,0.42,3.48,-2.11,8.26,2.54
17.91379296779633,2,3,3,2,-13.01,-0.24,1.95,-5.32,11.02,2.67
17.92379295825958,2,3,3,2,-13.52,-1.04,0.36,-7.49,13.75,2.29
17.93379294872284,2,3,3,2,-14.31,-2.89,0.16,-8.210000000000001,14.37,1.37
17.9437929391861,2,3,3,2,-13.99,-4.09,0.29,-8.56,12.66,0.67
17.95379292964935,2,3,3,2,-13.17,-5.54,0.13,-8.24,9.75,0.67
17.96379292011261,2,3,3,3,-12.1,-6.67,-0.07000000000000001,-7.07,6.94,1.45
17.97379291057587,2,3,3,3,-10.12,-8,-0.07000000000000001,-5,5.56,2.51
17.98379290103912,2,3,3,3,-9.550000000000001,-8.130000000000001,0.21,-0.9,5.74,4.21
17.99379289150238,2,3,3,3,-9.34,-7.75,0.74,4.34,6.06,5.82
18.00379288196564,2,3,3,3,-9.18,-6.7,1.7,9.83,5.61,7.54
18.01379287242889,2,3,3,3,-9.06,-4.1,3.28,13.27,4.01,9.01
18.02379286289215,2,3,3,3,-9.050000000000001,-2.74,3.88,14.8,1.47,9.890000000000001
18.03379285335541,2,3,3,3,-9.039999999999999,-1.38,4.07,14.86,-1.19,9.56
18.04379308223724,2,3,3,3,-8.949999999999999,-0.03,3.96,13.05,-2.91,8.300000000000001
18.0537930727005,2,3,3,3,-8.94,1.89,3.28,9.59,-3.37,6.64
18.06379306316376,2,3,3,3,-9.17,2.4,3.27,5.64,-3.79,5.1
18.07379305362701,2,3,3,3,-9.32,2.56,3.07,1.37,-4.91,3.99
18.08379304409027,2,3,3,3,-9.619999999999999,1.99,2.71,-2.37,-5.82,3.25
18.09379303455353,2,3,3,3,-9.94,1.37,2.68,-5.46,-6.94,2.72
18.10379302501678,2,3,3,3,-10.01,0.84,2.45,-7.86,-8.300000000000001,2.46
18.1237930059433,2,3,3,3,-9.69,-0.25,2.06,-9.869999999999999,-11.27,2.89
18.13379299640656,2,3,3,3,-9.06,-0.47,1.55,-10.42,-13.33,3.06
18.14379298686981,2,3,3,3,-8.1,-0.88,1.13,-11.65,-14.18,2.96
18.15379297733307,2,3,3,3,-7.4,-1.36,1.09,-11.89,-12.84,2.95
18.16379296779633,2,3,3,3,-6.94,-1.82,1.85,-10.8,-10.98,3.04
18.17379295825958,2,3,3,3,-7.05,-2.08,2.5,-9.26,-9.789999999999999,3.12
18.18379294872284,2,3,3,3,-7.03,-2.14,2.82,-8.140000000000001,-9.369999999999999,3.22
18.1937929391861,2,3,3,3,-7.03,-2.47,2.82,-7.49,-8.640000000000001,3.3
18.20379292964935,2,3,3,3,-7.34,-2.55,2.97,-6.4,-7.84,3.66
18.21379292011261,2,3,3,3,-7.52,-2.23,2.87,-5.32,-7.21,3.96
18.22379291057587,2,3,3,3,-7.68,-1.82,2.79,-3.97,-6.35,4.19
18.23379290103912,2,3,3,3,-7.86,-1.42,2.66,-2.53,-5.56,4.24
18.24379289150238,2,3,3,3,-8.380000000000001,-0.44,2.86,-1.5,-5.19,3.88
18.25379288196564,2,3,3,3,-8.539999999999999,-0.23,3.1,-0.99,-5.22,3.37
18.26379287242889,2,3,3,3,-8.67,0.04,3.24,-0.89,-5.02,2.84
18.27379286289215,2,3,3,3,-8.42,0.27,3.5,-1.32,-4.55,2.21
18.28379285335541,2,3,3,3,-8.31,0.34,3.55,-2.05,-3.89,1.62
18.29379308223724,2,3,3,3,-8.220000000000001,0.51,3.72,-2.66,-2.88,1.15
18.3037930727005,2,3,3,3,-8.19,0.66,3.83,-3.05,-1.95,0.74
18.31379306316376,2,3,3,3,-7.97,0.91,3.83,-3.3,-1.39,0.36
18.32379305362701,2,3,3,3,-7.73,0.97,3.73,-3.59,-0.92,-0.08
18.33379304409027,2,3,3,3,-7.36,0.95,3.52,-3.82,-0.27,-0.73
18.34379303455353,2,3,3,3,-7.02,0.93,3.4,-3.74,0.83,-1.55
18.35379302501678,2,3,3,3,-6.53,1.14,3.38,-3.29,2.51,-2.35
18.36379301548004,2,3,3,3,-6.5,1.22,3.62,-2.6,4.44,-2.97
18.3737930059433,2,3,3,3,-6.68,1.29,3.89,-2.04,5.9,-3.3
18.38379299640656,2,3,3,3,-6.91,1.28,4.04,-2.01,6.52,-3.22
18.39379298686981,2,3,3,3,-7.58,1.4,4.24,-2.09,6.52,-2.74
18.40479290485382,2,3,3,3,-7.9,1.51,4.27,-2.1,6.05,-2.01
18.41479289531708,2,3,3,3,-8.19,1.55,4.33,-2.02,5.63,-0.91
18.42479288578033,2,3,3,3,-8.65,1.42,4.59,-2.3,4.99,0.33
18.43479287624359,2,3,3,3,-9.16,0.35,4.57,-4.11,3.67,1.36
18.44479286670685,2,3,3,3,-8.99,-0.61,4.14,-7.7,3.01,1.79
18.4547928571701,2,3,3,3,-8.949999999999999,-2.04,4.03,-12.41,3.24,1.32
18.46479284763336,2,3,3,3,-9.49,-4.28,0.87,-16.4,3.5,-0.57
18.4747930765152,2,3,3,3,-10.32,-4.09,-0.96,-17.74,5.68,-3.06
18.48479306697845,2,3,3,3,-12.31,-2.86,0.78,-9.91,6.79,-3.94
18.49479305744171,2,3,3,3,-14.12,-1.13,3.34,3.65,1.6,-2.86
18.50479304790497,2,3,3,3,-11.83,2.49,5.29,13.19,-4.55,-0.59
18.51479303836823,2,3,3,3,-10.16,3.34,7.03,15.57,-7.52,2.01
18.52479302883148,2,3,3,3,-9.199999999999999,3.64,7.93,11.63,-9.16,4.61
18.53479301929474,2,3,3,3,-8.67,3.73,7.77,3.55,-8.48,7.4
18.544793009758,2,3,3,3,-9.57,4.12,6.4,-2.51,-4.12,10.13
18.55479300022125,2,3,3,3,-11.62,4.11,7.15,-4.16,0.05,12.57
18.56479299068451,2,3,3,3,-14.05,3.12,8.140000000000001,-7.38,-1.45,12.52
18.57479298114777,2,3,3,3,-16.1,1.24,7.45,-13.57,-5.21,8.6
18.58479297161102,2,3,3,3,-19.11,-2.76,0.3,-15.65,-3.64,3.03
18.59479296207428,2,3,3,3,-19.08,-2.95,-0.5,-8.720000000000001,1.29,-2.25
18.60479295253754,2,3,3,3,-16.71,-2.91,1.43,-0.43,0.2,-5.99
18.61479294300079,2,3,3,3,-9.59,-3.85,3.2,2.88,-7.64,-7.27
18.62479293346405,2,3,3,3,-6.84,-4.44,3.71,2.42,-11.87,-6.57
18.63479292392731,2,3,3,3,-4.92,-4.56,3.82,2.52,-9.960000000000001,-5.29
18.64479291439056,2,3,3,3,-3.91,-4.12,3.14,1.78,-6.07,-2.7
18.65479290485382,2,3,3,3,-5.93,-2.51,2.57,0.58,-1.75,-0.45
18.66479289531708,2,3,3,3,-7.71,-1.67,2.65,0.35,2.07,0.42
18.67479288578033,2,3,3,3,-8.92,-1.07,2.17,0.32,3.89,0.46
18.68479287624359,2,3,3,3,-9.32,-0.82,1.31,-0.49,4.37,-0.22
18.69479286670685,2,3,3,3,-8.73,-1.49,0.46,-1.61,4.15,-1.24
18.7047928571701,2,3,3,3,-8.4,-2.01,0.83,-2.27,2.97,-1.76
18.71479284763336,2,3,3,3,-8.15,-2.32,1.22,-2.82,1.16,-1.44
18.7247930765152,2,3,3,3,-7.92,-2.64,1.62,-3.28,-0.07000000000000001,-0.46
18.73479306697845,2,3,3,3,-7.6,-2.9,2.07,-3.03,-0.12,0.5
18.74479305744171,2,3,3,3,-7.54,-2.83,2.2,-2.38,0.8100000000000001,1.15
18.75479304790497,2,3,3,3,-7.77,-2.71,2.22,-1.36,2.58,1.39
18.76479303836823,2,3,3,3,-8.01,-2.59,2.29,-0.23,4.18,1.27
18.77479302883148,2,3,3,3,-8.35,-2.09,2.2,0.91,5.56,0.86
18.78479301929474,2,3,3,3,-8.449999999999999,-2.01,1.8,2.02,6.56,0.53
18.794793009758,2,3,3,3,-8.380000000000001,-1.98,1.48,3.31,7.05,-0.03
18.80479300022125,2,3,3,3,-7.98,-1.58,1.14,4.93,7.39,-0.6899999999999999
18.81479299068451,2,3,3,3,-7.94,-1.69,1.32,6.52,7.08,-1.43
18.82479298114777,2,3,3,3,-8.140000000000001,-1.73,1.41,7.64,6.42,-1.89
18.83479297161102,2,3,3,3,-8.220000000000001,-1.6,1.42,8.17,5.27,-2.35
18.84479296207428,2,3,3,3,-8.609999999999999,-1.13,1.48,8.140000000000001,4.53,-2.71
18.85479295253754,2,3,3,3,-8.76,-0.8,1.68,7.57,4.43,-2.97
18.86479294300079,2,3,3,3,-8.81,-0.31,1.87,6.69,4.32,-3.11
18.87479293346405,2,3,3,3,-8.779999999999999,-0.07000000000000001,1.98,5.63,4.14,-3.09
18.88479292392731,2,3,3,3,-8.68,0.02,2.1,4.92,3.99,-2.81
18.89479291439056,2,3,3,3,-8.66,0.04,2.08,4.23,3.72,-2.34
18.90479290485382,2,3,3,3,-8.720000000000001,0.02,2.02,3.64,3.42,-1.82
18.91479289531708,2,3,3,3,-8.800000000000001,0.07000000000000001,2.11,3.21,3.04,-1.47
