timestamp,magCalib,accCalib,gyrCalib,sysCalib,accX,accY,accZ,gyrX,gyrY,gyrZ
0.01346099376678467,2,3,3,3,-9.6,-1.07,-0.45,0.28,0.09,0.11
0.0234609842300415,2,3,3,3,-9.609999999999999,-1.01,-0.52,0.3,0.07000000000000001,0.14
0.03346097469329834,2,3,3,3,-9.73,-1.01,-0.6,0.3,0.07000000000000001,0.14
0.04346096515655518,2,3,3,3,-9.77,-1.04,-0.58,0.29,0.04,0.12
0.05346095561981201,2,3,3,3,-9.779999999999999,-1.07,-0.6,0.3,0.06,0.07000000000000001
0.06346094608306885,2,3,3,3,-9.77,-1.09,-0.72,0.3,0.09,0.05
0.07346093654632568,2,3,3,3,-9.720000000000001,-1.01,-0.65,0.3,0.16,0.07000000000000001
0.08346092700958252,2,3,3,3,-9.68,-0.98,-0.62,0.3,0.16,0.07000000000000001
0.09346091747283936,2,3,3,3,-9.68,-0.9399999999999999,-0.53,0.23,0.18,0.07000000000000001
0.1034609079360962,2,3,3,3,-9.73,-0.87,-0.34,0.02,0.21,0.05
0.113460898399353,2,3,3,3,-9.710000000000001,-0.9,-0.51,-0.12,0.2,0
0.1234608888626099,2,3,3,3,-9.720000000000001,-0.91,-0.54,-0.27,0.14,-0.06
0.1334608793258667,2,3,3,3,-9.699999999999999,-0.93,-0.51,-0.27,0.14,-0.06
0.1434608697891235,2,3,3,3,-9.68,-0.96,-0.46,-0.31,0.11,-0.07000000000000001
0.1534608602523804,2,3,3,3,-9.68,-1.01,-0.58,-0.3,0.19,-0.13
0.1634610891342163,2,3,3,3,-9.66,-1.02,-0.68,-0.19,0.19,-0.15
0.1734610795974731,2,3,3,3,-9.66,-1.07,-0.67,-0.06,0.2,-0.12
0.18346107006073,2,3,3,3,-9.73,-1.08,-0.51,-0.06,0.2,-0.12
0.1934610605239868,2,3,3,3,-9.75,-1.08,-0.44,-0.08,0.17,-0.08
0.2034610509872437,2,3,3,3,-9.77,-1.06,-0.49,-0.05,0.16,-0.07000000000000001
0.2134610414505005,2,3,3,3,-9.75,-1.05,-0.67,-0.04,0.12,-0.08
0.2234610319137573,2,3,3,3,-9.699999999999999,-1.06,-0.6,-0.08,0.15,-0.11
0.2334610223770142,2,3,3,3,-9.73,-1.06,-0.46,-0.08,0.15,-0.11
0.243461012840271,2,3,3,3,-9.710000000000001,-1.07,-0.43,-0.27,0.17,-0.16
0.2534610033035278,2,3,3,3,-9.74,-1.09,-0.43,-0.35,0.15,-0.19
0.2634609937667847,2,3,3,3,-9.69,-1.15,-0.63,-0.39,0.12,-0.17
0.2734609842300415,2,3,3,3,-9.699999999999999,-1.13,-0.53,-0.44,0.06,-0.14
0.2834609746932983,2,3,3,3,-9.69,-1.14,-0.5,-0.44,0.06,-0.14
0.2934609651565552,2,3,3,3,-9.67,-1.14,-0.49,-0.44,0.08,-0.11
0.303460955619812,2,3,3,3,-9.720000000000001,-1.11,-0.49,-0.32,0.05,0.04
0.3134609460830688,2,3,3,3,-9.74,-1.09,-0.61,-0.27,-0.01,0.09
0.3234609365463257,2,3,3,3,-9.75,-1.09,-0.62,-0.18,-0.04,0.06
0.3334609270095825,2,3,3,3,-9.73,-1.11,-0.62,-0.18,-0.04,0.06
0.3434609174728394,2,3,3,3,-9.69,-1.12,-0.55,-0.04,0,-0.05
0.3534609079360962,2,3,3,3,-9.699999999999999,-1.14,-0.57,-0.02,0.01,-0.06
0.363460898399353,2,3,3,3,-9.69,-1.18,-0.54,-0.03,0.09,-0.08
0.3734608888626099,2,3,3,3,-9.68,-1.17,-0.51,-0.02,0.11,-0.12
0.3834608793258667,2,3,3,3,-9.699999999999999,-1.16,-0.51,-0.02,0.11,-0.12
0.3934608697891235,2,3,3,3,-9.710000000000001,-1.17,-0.49,0.1,0.09,-0.09
0.4034608602523804,2,3,3,3,-9.720000000000001,-1.18,-0.51,0.12,0.06,-0.1
0.4134610891342163,2,3,3,3,-9.720000000000001,-1.15,-0.7,0.21,0.09,-0.08
0.4234610795974731,2,3,3,3,-9.710000000000001,-1.11,-0.6899999999999999,0.26,0.06,-0.01
0.43346107006073,2,3,3,3,-9.720000000000001,-1.13,-0.65,0.26,0.06,-0.01
0.4434610605239868,2,3,3,3,-9.699999999999999,-1.1,-0.61,0.36,0.04,0
0.4534610509872437,2,3,3,3,-9.720000000000001,-1.08,-0.43,0.41,0.03,0.04
0.4634610414505005,2,3,3,3,-9.699999999999999,-1.04,-0.54,0.42,-0.01,0.07000000000000001
0.4734610319137573,2,3,3,3,-9.699999999999999,-1.03,-0.57,0.41,0.03,0.04
0.4834610223770142,2,3,3,3,-9.710000000000001,-1.03,-0.58,0.41,0.03,0.04
0.493461012840271,2,3,3,3,-9.73,-1.03,-0.5,0.4,0.06,-0.05
0.5034610033035278,2,3,3,3,-9.720000000000001,-1.03,-0.48,0.38,0.1,-0.13
0.5134609937667847,2,3,3,3,-9.75,-1.04,-0.53,0.3,0.19,-0.19
0.5234609842300415,2,3,3,3,-9.73,-1.04,-0.51,0.29,0.18,-0.22
0.5334609746932983,2,3,3,3,-9.720000000000001,-1.07,-0.47,0.29,0.18,-0.22
0.5434609651565552,2,3,3,3,-9.74,-1.1,-0.45,0.27,0.12,-0.21
0.553460955619812,2,3,3,3,-9.699999999999999,-1.13,-0.47,0.27,0.13,-0.18
0.5634609460830688,2,3,3,3,-9.69,-1.15,-0.64,0.33,0.06,-0.08
0.5734609365463257,2,3,3,3,-9.68,-1.18,-0.61,0.34,0.05,0
0.5834609270095825,2,3,3,3,-9.68,-1.18,-0.61,0.34,0.05,0
0.5934609174728394,2,3,3,3,-9.69,-1.16,-0.54,0.36,0.05,0.03
0.6034609079360962,2,3,3,3,-9.640000000000001,-1.08,-0.5600000000000001,0.37,0.01,0.08
0.613460898399353,2,3,3,3,-9.66,-1.08,-0.64,0.36,-0.02,0.17
0.6234608888626099,2,3,3,3,-9.720000000000001,-1.07,-0.58,0.35,-0.03,0.21
0.6334608793258667,2,3,3,3,-9.76,-1.06,-0.55,0.31,-0.09,0.22
0.6434608697891235,2,3,3,3,-9.74,-1.06,-0.53,0.33,-0.16,0.25
0.6534608602523804,2,3,3,3,-9.699999999999999,-1.06,-0.54,0.32,-0.22,0.26
0.6634610891342163,2,3,3,3,-9.710000000000001,-1.04,-0.51,0.24,-0.21,0.25
0.6734610795974731,2,3,3,3,-9.73,-1.04,-0.46,0.19,-0.13,0.23
0.68346107006073,2,3,3,3,-9.69,-1.05,-0.51,0.15,-0.08,0.2
0.6934610605239868,2,3,3,3,-9.69,-1.05,-0.49,0.06,-0.05,0.18
0.7034610509872437,2,3,3,3,-9.68,-1.05,-0.47,-0.02,-0.03,0.13
0.7134610414505005,2,3,3,3,-9.699999999999999,-1.05,-0.59,-0.02,-0.01,0.13
0.7234610319137573,2,3,3,3,-9.720000000000001,-1.07,-0.58,-0.02,-0.02,0.15
0.7334610223770142,2,3,3,3,-9.699999999999999,-1.07,-0.58,0.05,0,0.17
0.743461012840271,2,3,3,3,-9.710000000000001,-1.07,-0.48,0.09,-0.04,0.2
0.7534610033035278,2,3,3,3,-9.73,-1.01,-0.52,0.09,-0.09,0.22
0.7634609937667847,2,3,3,3,-9.699999999999999,-1.03,-0.61,0.08,-0.11,0.19
0.7744609117507935,2,3,3,3,-9.720000000000001,-1.02,-0.55,0.08,-0.1,0.19
0.7844609022140503,2,3,3,3,-9.74,-1.03,-0.55,0.1,-0.08,0.17
0.7944608926773071,2,3,3,3,-9.73,-1.03,-0.37,0.06,-0.06,0.14
0.804460883140564,2,3,3,3,-9.699999999999999,-1.04,-0.51,0.02,-0.03,0.13
0.8144608736038208,2,3,3,3,-9.68,-1.05,-0.67,0.02,-0.03,0.08
0.8244608640670776,2,3,3,3,-9.67,-1.05,-0.59,-0.03,-0.05,0.06
0.8344610929489136,2,3,3,3,-9.630000000000001,-1.05,-0.42,-0.03,0,-0.01
0.8444610834121704,2,3,3,3,-9.69,-1.04,-0.32,-0.01,0.07000000000000001,-0.01
0.8544610738754272,2,3,3,3,-9.710000000000001,-1.03,-0.29,-0.03,0.03,0
0.8644610643386841,2,3,3,3,-9.699999999999999,-1.06,-0.49,-0.15,-0.02,-0.04
0.8744610548019409,2,3,3,3,-9.779999999999999,-1.07,-0.55,-0.24,-0.12,-0.06
0.8844610452651978,2,3,3,3,-9.75,-1.07,-0.47,-0.28,-0.12,-0.08
0.8944610357284546,2,3,3,3,-9.720000000000001,-1.08,-0.45,-0.26,-0.1,-0.09
0.9044610261917114,2,3,3,3,-9.68,-1.09,-0.48,-0.28,-0.08,-0.12
0.9144610166549683,2,3,3,3,-9.66,-1.08,-0.63,-0.3,-0.03,-0.12
0.9244610071182251,2,3,3,3,-9.67,-1.09,-0.59,-0.25,-0.03,-0.19
0.9344609975814819,2,3,3,3,-9.67,-1.1,-0.51,-0.21,0.02,-0.22
0.9444609880447388,2,3,3,3,-9.69,-1.15,-0.44,-0.15,0.06,-0.23
0.9544609785079956,2,3,3,3,-9.699999999999999,-1.14,-0.51,-0.16,0.06,-0.3
0.9644609689712524,2,3,3,3,-9.73,-1.16,-0.59,-0.19,0.1,-0.32
0.9744609594345093,2,3,3,3,-9.710000000000001,-1.15,-0.52,-0.27,0.1,-0.33
0.9844609498977661,2,3,3,3,-9.73,-1.17,-0.47,-0.31,0.1,-0.31
0.9944609403610229,2,3,3,3,-9.68,-1.14,-0.49,-0.35,0.06,-0.23
1.00446093082428,2,3,3,3,-9.720000000000001,-1.14,-0.49,-0.36,0.04,-0.1
1.014460921287537,2,3,3,3,-9.720000000000001,-1.13,-0.65,-0.33,0,0
1.024460911750793,2,3,3,3,-9.710000000000001,-1.15,-0.65,-0.17,-0.05,0.05
1.03446090221405,2,3,3,3,-9.720000000000001,-1.13,-0.6,-0.02,-0.07000000000000001,0.08
1.044460892677307,2,3,3,3,-9.710000000000001,-1.15,-0.47,0.12,-0.06,0.1
1.054460883140564,2,3,3,3,-9.699999999999999,-1.16,-0.48,0.19,-0.05,0.06
1.064460873603821,2,3,3,3,-9.73,-1.1,-0.52,0.23,-0.03,0.01
1.074460864067078,2,3,3,3,-9.68,-1.09,-0.41,0.23,0.01,-0.05
1.084461092948914,2,3,3,3,-9.67,-1.1,-0.43,0.28,0.15,-0.05
1.09446108341217,2,3,3,3,-9.66,-1.09,-0.47,0.33,0.16,-0.09
1.104461073875427,2,3,3,3,-9.720000000000001,-1.05,-0.48,0.26,0.16,-0.07000000000000001
1.114461064338684,2,3,3,3,-9.75,-1.05,-0.6,0.28,0.11,-0.03
1.124461054801941,2,3,3,3,-9.789999999999999,-1.05,-0.61,0.23,0,-0.03
1.134461045265198,2,3,3,3,-9.73,-1.07,-0.55,0.23,-0.09,-0.03
1.144461035728455,2,3,3,3,-9.699999999999999,-1.1,-0.43,0.28,-0.06,-0.03
1.154461026191711,2,3,3,3,-9.67,-1.11,-0.42,0.25,-0.08,-0.04
1.164461016654968,2,3,3,3,-9.67,-1.12,-0.41,0.21,-0.05,-0.08
1.174461007118225,2,3,3,3,-9.67,-1.11,-0.41,0.09,-0.02,-0.07000000000000001
1.184460997581482,2,3,3,3,-9.67,-1.1,-0.51,0.03,-0.02,-0.11
1.194460988044739,2,3,3,3,-9.68,-1.1,-0.55,0.02,0.04,-0.14
1.204460978507996,2,3,3,3,-9.699999999999999,-1.1,-0.48,-0.02,0.02,-0.19
1.214460968971252,2,3,3,3,-9.720000000000001,-1.07,-0.6,0.03,0.02,-0.19
1.224460959434509,2,3,3,3,-9.720000000000001,-1.1,-0.5600000000000001,0.01,-0.01,-0.19
1.234460949897766,2,3,3,3,-9.74,-1.11,-0.46,0,-0.04,-0.15
1.244460940361023,2,3,3,3,-9.720000000000001,-1.1,-0.42,0.04,-0.13,-0.12
1.25446093082428,2,3,3,3,-9.69,-1.1,-0.49,0.05,-0.14,-0.09
1.264460921287537,2,3,3,3,-9.720000000000001,-1.09,-0.47,0.09,-0.13,-0.11
1.274460911750793,2,3,3,3,-9.720000000000001,-1.11,-0.46,0.13,-0.11,-0.13
1.28446090221405,2,3,3,3,-9.710000000000001,-1.14,-0.48,0.09,-0.12,-0.17
1.294460892677307,2,3,3,3,-9.74,-1.17,-0.35,0.06,-0.15,-0.22
1.304460883140564,2,3,3,3,-9.68,-1.14,-0.54,-0.07000000000000001,-0.26,-0.26
1.314460873603821,2,3,3,3,-9.67,-1.15,-0.72,-0.16,-0.35,-0.35
1.324460864067078,2,3,3,3,-9.640000000000001,-1.17,-0.71,-0.09,-0.32,-0.39
1.334461092948914,2,3,3,3,-9.640000000000001,-1.17,-0.68,0,-0.34,-0.42
1.354461073875427,2,3,3,3,-9.619999999999999,-1.27,-0.5600000000000001,0.21,-0.31,-0.34
1.394461035728455,2,3,3,3,-9.68,-1.21,-0.42,0.34,-0.39,0.31
1.404461026191711,2,3,3,3,-9.73,-1.19,-0.67,0.39,-0.46,0.43
1.414461016654968,2,3,3,3,-9.720000000000001,-1.23,-0.72,0.45,-0.5,0.54
1.424461007118225,2,3,3,3,-9.640000000000001,-1.24,-0.65,0.64,-0.54,0.53
1.434460997581482,2,3,3,3,-9.57,-1.3,-0.52,0.85,-0.59,0.54
1.444460988044739,2,3,3,3,-9.279999999999999,-1.38,-0.52,0.91,-0.62,0.49
1.454460978507996,2,3,3,3,-9.18,-1.45,-0.48,1.2,-0.58,0.48
1.464460968971252,2,3,3,3,-9.09,-1.52,-0.61,1.27,-0.4,0.45
1.474460959434509,2,3,3,3,-9.050000000000001,-1.47,-0.59,1.15,-0.3,0.46
1.484460949897766,2,3,3,3,-9.31,-1.36,-0.18,1.14,-0.25,0.62
1.494460940361023,2,3,3,3,-9.529999999999999,-1.39,-0.05,0.93,-0.27,0.84
1.50446093082428,2,3,3,3,-9.76,-1.46,0.04,0.38,-0.32,1.06
1.514460921287537,2,3,3,3,-9.93,-1.4,-0.19,-0.07000000000000001,-0.55,1.52
1.524460911750793,2,3,3,3,-9.779999999999999,-1.25,-0.75,-0.18,-0.8,2.02
1.53446090221405,2,3,3,3,-9.710000000000001,-1.06,-0.83,-0.08,-0.91,2.39
1.544460892677307,2,3,3,3,-9.630000000000001,-0.79,-0.86,0.12,-0.95,2.67
1.554460883140564,2,3,3,3,-9.68,-0.36,-0.76,0.41,-0.72,2.67
1.564460873603821,2,3,3,3,-9.68,-0.21,-0.7,0.64,-0.43,2.48
1.574460864067078,2,3,3,3,-9.73,-0.14,-0.42,0.77,-0.28,2.34
1.584461092948914,2,3,3,3,-9.800000000000001,-0.13,-0.05,0.6,-0.31,2.2
1.59446108341217,2,3,3,3,-10.06,-0.21,0.05,-0.13,-0.36,1.94
1.604461073875427,2,3,3,3,-10.1,-0.27,-0.04,-0.62,-0.5,1.64
1.614461064338684,2,3,3,3,-10.12,-0.41,-0.14,-0.82,-0.58,1.22
1.624461054801941,2,3,3,3,-10.07,-0.49,-0.09,-0.7,-0.43,0.7
1.634461045265198,2,3,3,3,-10.08,-0.62,0.3,-0.59,-0.02,0.17
1.644461035728455,2,3,3,3,-10.06,-0.63,0.17,-0.71,0.32,-0.24
1.654461026191711,2,3,3,3,-10.05,-0.62,-0.15,-0.7,0.51,-0.48
1.664461016654968,2,3,3,3,-10.12,-0.58,-0.37,-0.63,0.65,-0.68
1.674461007118225,2,3,3,3,-10.05,-0.5,-0.37,-0.6,0.78,-0.84
1.684460997581482,2,3,3,3,-10.02,-0.5600000000000001,-0.25,-0.61,0.92,-1.04
1.694460988044739,2,3,3,3,-9.960000000000001,-0.58,-0.21,-0.86,1.05,-1.22
1.704460978507996,2,3,3,3,-9.93,-0.65,-0.28,-1.21,1.04,-1.41
1.714460968971252,2,3,3,3,-10.06,-0.82,-0.45,-1.41,1.06,-1.53
1.724460959434509,2,3,3,3,-10.08,-0.9,-0.44,-1.58,0.99,-1.59
1.734460949897766,2,3,3,3,-10.08,-0.95,-0.51,-1.64,0.85,-1.56
1.744460940361023,2,3,3,3,-10.01,-1.08,-0.35,-1.49,0.74,-1.54
1.75446093082428,2,3,3,3,-9.970000000000001,-1.16,-0.34,-1.45,0.73,-1.5
1.764460921287537,2,3,3,3,-9.92,-1.11,-0.6,-1.57,0.63,-1.44
1.774460911750793,2,3,3,3,-9.789999999999999,-1.08,-0.58,-1.23,0.38,-1.2
1.78446090221405,2,3,3,3,-9.6,-1.15,-0.37,-0.9,0.25,-0.99
1.795461058616638,2,3,3,3,-9.449999999999999,-1.19,-0.28,-0.63,0.16,-0.75
1.805461049079895,2,3,3,3,-9.359999999999999,-1.21,-0.31,-0.46,0.07000000000000001,-0.59
1.815461039543152,2,3,3,3,-9.300000000000001,-1.14,-0.45,-0.19,0.04,-0.4
1.825461030006409,2,3,3,3,-9.26,-1.07,-0.36,0.05,0,-0.2
1.835461020469666,2,3,3,3,-9.26,-0.99,-0.5,0.08,-0.1,-0.02
1.845461010932922,2,3,3,3,-9.300000000000001,-0.95,-0.48,0.18,-0.04,0.1
1.855461001396179,2,3,3,3,-9.369999999999999,-0.85,-0.46,0.12,0.02,0.21
1.865460991859436,2,3,3,3,-9.470000000000001,-0.86,-0.52,-0.01,0.08,0.24
1.875460982322693,2,3,3,3,-9.56,-0.87,-0.39,-0.42,0.15,0.16
1.88546097278595,2,3,3,3,-9.68,-0.86,-0.41,-0.8,0.21,0.09
1.895460963249207,2,3,3,3,-9.800000000000001,-0.96,-0.57,-0.99,0.21,-0.07000000000000001
1.905460953712463,2,3,3,3,-10.15,-1.2,-0.66,-1.05,0.21,-0.21
1.91546094417572,2,3,3,3,-10.25,-1.2,-0.74,-1.04,0.15,-0.3
1.925460934638977,2,3,3,3,-10.23,-1.24,-0.64,-0.84,0.11,-0.28
1.935460925102234,2,3,3,3,-10.14,-1.26,-0.45,-0.65,0.1,-0.24
1.945460915565491,2,3,3,3,-9.890000000000001,-1.27,-0.36,-0.6899999999999999,0.09,-0.24
1.955460906028748,2,3,3,3,-9.77,-1.26,-0.48,-0.71,0.02,-0.26
1.965460896492004,2,3,3,3,-9.630000000000001,-1.25,-0.62,-0.57,0,-0.26
1.975460886955261,2,3,3,3,-9.48,-1.22,-0.36,-0.34,0.07000000000000001,-0.18
1.985460877418518,2,3,3,3,-9.41,-1.2,-0.33,-0.27,0.1,-0.1
1.995460867881775,2,3,3,3,-9.369999999999999,-1.14,-0.45,-0.31,0.07000000000000001,0.01
2.005460858345032,2,3,3,3,-9.41,-1.1,-0.43,-0.21,0.02,0.17
2.015461087226868,2,3,3,3,-9.550000000000001,-1.05,-0.74,-0.12,0.06,0.29
2.025461077690125,2,3,3,3,-9.609999999999999,-0.99,-0.68,-0.05,0.06,0.38
2.035461068153381,2,3,3,3,-9.67,-0.9399999999999999,-0.57,-0.02,0.07000000000000001,0.37
2.045461058616638,2,3,3,3,-9.720000000000001,-0.95,-0.58,-0.03,0.12,0.32
2.055461049079895,2,3,3,3,-9.859999999999999,-0.99,-0.58,-0.04,0.17,0.15
2.065461039543152,2,3,3,3,-9.890000000000001,-0.99,-0.55,-0.13,0.29,-0.03
2.075461030006409,2,3,3,3,-9.93,-1.08,-0.42,-0.34,0.36,-0.24
2.085461020469666,2,3,3,3,-9.92,-1.13,-0.49,-0.53,0.34,-0.35
2.095461010932922,2,3,3,3,-9.880000000000001,-1.15,-0.39,-0.57,0.33,-0.4
2.105461001396179,2,3,3,3,-9.9,-1.16,-0.48,-0.57,0.28,-0.43
2.115460991859436,2,3,3,3,-9.82,-1.13,-0.65,-0.5,0.24,-0.5
2.125460982322693,2,3,3,3,-9.76,-1.14,-0.64,-0.48,0.24,-0.58
2.13546097278595,2,3,3,3,-9.69,-1.17,-0.63,-0.52,0.24,-0.63
2.145460963249207,2,3,3,3,-9.67,-1.2,-0.47,-0.48,0.28,-0.6
2.155460953712463,2,3,3,3,-9.66,-1.25,-0.49,-0.57,0.25,-0.59
2.16546094417572,2,3,3,3,-9.68,-1.26,-0.58,-0.72,0.13,-0.54
2.175460934638977,2,3,3,3,-9.65,-1.2,-0.66,-0.82,0.07000000000000001,-0.45
2.185460925102234,2,3,3,3,-9.66,-1.16,-0.65,-0.78,-0.04,-0.32
2.195460915565491,2,3,3,3,-9.65,-1.12,-0.5600000000000001,-0.64,-0.09,-0.22
2.205460906028748,2,3,3,3,-9.66,-1.12,-0.65,-0.6,-0.11,-0.21
2.215460896492004,2,3,3,3,-9.66,-1.12,-0.66,-0.62,-0.1,-0.21
2.225460886955261,2,3,3,3,-9.699999999999999,-1.14,-0.41,-0.73,-0.08,-0.29
2.235460877418518,2,3,3,3,-9.720000000000001,-1.13,-0.39,-0.98,-0.15,-0.35
2.245460867881775,2,3,3,3,-9.710000000000001,-1.13,-0.65,-1.23,-0.16,-0.4
2.255460858345032,2,3,3,3,-9.69,-1.13,-0.68,-1.19,-0.14,-0.44
2.265461087226868,2,3,3,3,-9.720000000000001,-1.16,-0.79,-0.91,-0.04,-0.42
2.275461077690125,2,3,3,3,-9.74,-1.22,-0.7,-0.74,0.07000000000000001,-0.33
2.285461068153381,2,3,3,3,-9.640000000000001,-1.2,-0.68,-0.6,0.01,-0.29
2.295461058616638,2,3,3,3,-9.630000000000001,-1.19,-0.64,-0.39,0.05,-0.26
2.305461049079895,2,3,3,3,-9.640000000000001,-1.21,-0.64,-0.21,0.13,-0.3
2.315461039543152,2,3,3,3,-9.619999999999999,-1.17,-0.68,-0.13,0.16,-0.36
2.325461030006409,2,3,3,3,-9.67,-1.13,-0.6,-0.03,0.18,-0.4
2.335461020469666,2,3,3,3,-9.699999999999999,-1.13,-0.6,0.01,0.18,-0.41
2.345461010932922,2,3,3,3,-9.710000000000001,-1.13,-0.52,-0.02,0.23,-0.5
2.355461001396179,2,3,3,3,-9.65,-1.08,-0.72,-0.07000000000000001,0.28,-0.5600000000000001
2.365460991859436,2,3,3,3,-9.640000000000001,-1.14,-0.77,-0.07000000000000001,0.35,-0.57
2.375460982322693,2,3,3,3,-9.640000000000001,-1.15,-0.71,-0.07000000000000001,0.41,-0.6
2.38546097278595,2,3,3,3,-9.67,-1.15,-0.68,-0.01,0.46,-0.63
2.395460963249207,2,3,3,3,-9.74,-1.22,-0.53,0.02,0.42,-0.61
2.405460953712463,2,3,3,3,-9.74,-1.23,-0.67,-0.05,0.32,-0.64
2.41546094417572,2,3,3,3,-9.73,-1.22,-0.79,-0.02,0.24,-0.58
2.425460934638977,2,3,3,3,-9.68,-1.23,-0.6899999999999999,0,0.16,-0.55
2.435460925102234,2,3,3,3,-9.550000000000001,-1.18,-0.65,-0.02,0.18,-0.46
2.445460915565491,2,3,3,3,-9.52,-1.17,-0.61,0.02,0.11,-0.36
2.455460906028748,2,3,3,3,-9.51,-1.14,-0.54,0.13,0.16,-0.24
2.465460896492004,2,3,3,3,-9.58,-1.13,-0.62,0.13,0.15,-0.24
2.475460886955261,2,3,3,3,-9.74,-1.14,-0.5600000000000001,0.13,0.15,-0.26
2.485460877418518,2,3,3,3,-9.779999999999999,-1.14,-0.53,0.16,0.12,-0.23
2.495460867881775,2,3,3,3,-9.84,-1.15,-0.53,0.13,0.16,-0.29
2.505460858345032,2,3,3,3,-9.81,-1.14,-0.53,0.09,0.15,-0.36
2.515461087226868,2,3,3,3,-9.710000000000001,-1.15,-0.73,0.16,0.21,-0.38
2.535461068153381,2,3,3,3,-9.699999999999999,-1.16,-0.55,0.4,0.3,-0.33
2.565461039543152,2,3,3,3,-9.720000000000001,-1.24,-0.65,0.3,0.21,-0.18
2.575461030006409,2,3,3,3,-9.710000000000001,-1.29,-0.65,0.28,0.19,-0.14
2.585461020469666,2,3,3,3,-9.66,-1.27,-0.45,0.07000000000000001,0.12,-0.1
2.595461010932922,2,3,3,3,-9.58,-1.22,-0.53,-0.16,-0.04,-0.06
2.605461001396179,2,3,3,3,-9.539999999999999,-1.19,-0.57,-0.23,-0.1,0.04
2.615460991859436,2,3,3,3,-9.56,-1.18,-0.71,-0.3,-0.09,0.07000000000000001
2.625460982322693,2,3,3,3,-9.67,-1.24,-0.61,-0.35,-0.12,0.08
2.63546097278595,2,3,3,3,-9.75,-1.27,-0.55,-0.34,-0.13,0.12
2.645460963249207,2,3,3,3,-9.76,-1.32,-0.54,-0.37,-0.18,0.13
2.655460953712463,2,3,3,3,-9.76,-1.37,-0.54,-0.47,-0.18,0.1
2.66546094417572,2,3,3,3,-9.720000000000001,-1.41,-0.68,-0.63,-0.18,0.07000000000000001
2.675460934638977,2,3,3,3,-9.67,-1.41,-0.65,-0.76,-0.12,-0.01
2.685460925102234,2,3,3,3,-9.67,-1.35,-0.57,-0.8,-0.06,-0.08
2.695460915565491,2,3,3,3,-9.67,-1.35,-0.55,-0.77,0.02,-0.15
2.705460906028748,2,3,3,3,-9.779999999999999,-1.3,-0.54,-0.75,0.11,-0.17
2.715460896492004,2,3,3,3,-9.84,-1.3,-0.5600000000000001,-0.61,0.19,-0.18
2.725460886955261,2,3,3,3,-9.83,-1.3,-0.54,-0.54,0.18,-0.18
2.775461077690125,2,3,3,3,-9.6,-0.98,-0.53,0.3,0.19,-0.28
2.785461068153381,2,3,3,3,-9.59,-0.9399999999999999,-0.54,0.11,0.2,-0.31
2.795461058616638,2,3,3,3,-9.619999999999999,-0.92,-0.53,-0.03,0.17,-0.3
2.805461049079895,2,3,3,3,-9.640000000000001,-0.96,-0.47,-0.2,0.1,-0.31
2.815461039543152,2,3,3,3,-9.550000000000001,-0.96,-0.62,-0.39,0.02,-0.24
2.826460957527161,2,3,3,3,-9.539999999999999,-0.96,-0.53,-0.64,-0.02,-0.19
2.836460947990417,2,3,3,3,-9.58,-0.98,-0.51,-0.88,0.05,-0.15
2.846460938453674,2,3,3,3,-9.630000000000001,-1,-0.57,-0.99,0.12,-0.13
2.856460928916931,2,3,3,3,-9.789999999999999,-1.05,-0.52,-1.12,0.15,-0.12
2.866460919380188,2,3,3,3,-9.859999999999999,-1.08,-0.57,-1.21,0.12,-0.14
2.876460909843445,2,3,3,3,-9.859999999999999,-1.12,-0.54,-1.37,0.08,-0.15
2.886460900306702,2,3,3,3,-9.9,-1.15,-0.49,-1.46,0.05,-0.18
2.896460890769958,2,3,3,3,-9.75,-1.22,-0.53,-1.39,-0.01,-0.19
2.906460881233215,2,3,3,3,-9.59,-1.27,-0.6,-1.26,-0.04,-0.19
2.916460871696472,2,3,3,3,-9.5,-1.31,-0.71,-1.16,-0.01,-0.14
2.926460862159729,2,3,3,3,-9.5,-1.34,-0.67,-1.03,0.03,-0.08
2.936461091041565,2,3,3,3,-9.550000000000001,-1.38,-0.6899999999999999,-0.8,0.08,0.04
2.946461081504822,2,3,3,3,-9.65,-1.37,-0.6899999999999999,-0.58,0.01,0.17
2.956461071968079,2,3,3,3,-9.699999999999999,-1.3,-0.67,-0.32,-0.06,0.29
2.966461062431335,2,3,3,3,-9.74,-1.28,-0.74,-0.1,-0.2,0.37
2.976461052894592,2,3,3,3,-9.710000000000001,-1.27,-0.6899999999999999,0.06,-0.29,0.35
2.986461043357849,2,3,3,3,-9.66,-1.26,-0.61,0.23,-0.33,0.33
2.996461033821106,2,3,3,3,-9.57,-1.27,-0.58,0.36,-0.26,0.25
3.006461024284363,2,3,3,3,-9.539999999999999,-1.31,-0.35,0.49,-0.1,0.25
3.01646101474762,2,3,3,3,-9.6,-1.31,-0.26,0.38,-0.01,0.21
3.026461005210876,2,3,3,3,-9.66,-1.27,-0.37,0.06,-0.03,0.24
3.036460995674133,2,3,3,3,-9.73,-1.33,-0.44,-0.24,-0.16,0.26
3.04646098613739,2,3,3,3,-9.800000000000001,-1.32,-0.72,-0.44,-0.29,0.3
3.056460976600647,2,3,3,3,-9.77,-1.26,-0.7,-0.48,-0.36,0.4
3.066460967063904,2,3,3,3,-9.699999999999999,-1.24,-0.8,-0.46,-0.37,0.47
3.076460957527161,2,3,3,3,-9.640000000000001,-1.21,-0.66,-0.43,-0.25,0.59
3.086460947990417,2,3,3,3,-9.69,-1.1,-0.37,-0.51,-0.09,0.62
3.096460938453674,2,3,3,3,-9.74,-1.06,-0.44,-0.6,-0.04,0.7
3.106460928916931,2,3,3,3,-9.859999999999999,-1,-0.52,-0.6,-0.06,0.63
3.116460919380188,2,3,3,3,-9.92,-0.97,-0.72,-0.53,-0.01,0.46
3.126460909843445,2,3,3,3,-9.94,-1.05,-0.68,-0.39,-0.02,0.27
3.136460900306702,2,3,3,3,-9.869999999999999,-1.05,-0.61,-0.21,0,0.12
3.146460890769958,2,3,3,3,-9.77,-1.1,-0.53,-0.08,0.07000000000000001,0.05
3.156460881233215,2,3,3,3,-9.65,-1.14,-0.6,-0.02,0.13,-0.06
3.166460871696472,2,3,3,3,-9.619999999999999,-1.17,-0.62,0.06,0.17,-0.15
3.176460862159729,2,3,3,3,-9.609999999999999,-1.21,-0.49,0.19,0.27,-0.2
3.186461091041565,2,3,3,3,-9.609999999999999,-1.21,-0.39,0.22,0.24,-0.24
3.196461081504822,2,3,3,3,-9.619999999999999,-1.19,-0.5,0.1,0.16,-0.33
3.206461071968079,2,3,3,3,-9.619999999999999,-1.21,-0.52,0.05,0.21,-0.41
3.216461062431335,2,3,3,3,-9.66,-1.24,-0.57,0.14,0.18,-0.44
3.226461052894592,2,3,3,3,-9.67,-1.27,-0.64,0.18,0.16,-0.48
3.236461043357849,2,3,3,3,-9.68,-1.29,-0.58,0.25,0.18,-0.52
3.246461033821106,2,3,3,3,-9.640000000000001,-1.35,-0.54,0.31,0.23,-0.57
3.256461024284363,2,3,3,3,-9.59,-1.41,-0.59,0.26,0.26,-0.65
3.26646101474762,2,3,3,3,-9.56,-1.39,-0.82,0.24,0.25,-0.71
3.276461005210876,2,3,3,3,-9.57,-1.47,-0.76,0.34,0.35,-0.75
3.286460995674133,2,3,3,3,-9.57,-1.52,-0.73,0.39,0.45,-0.8
3.29646098613739,2,3,3,3,-9.6,-1.52,-0.8,0.33,0.48,-0.79
3.306460976600647,2,3,3,3,-9.66,-1.51,-0.8,0.33,0.46,-0.79
3.316460967063904,2,3,3,3,-9.800000000000001,-1.53,-0.75,0.38,0.35,-0.71
3.326460957527161,2,3,3,3,-9.81,-1.55,-0.66,0.44,0.26,-0.64
3.336460947990417,2,3,3,3,-9.789999999999999,-1.58,-0.62,0.47,0.09,-0.54
3.346460938453674,2,3,3,3,-9.73,-1.56,-0.54,0.46,-0.08,-0.42
3.356460928916931,2,3,3,3,-9.68,-1.56,-0.6899999999999999,0.42,-0.19,-0.34
3.366460919380188,2,3,3,3,-9.630000000000001,-1.59,-0.8100000000000001,0.37,-0.24,-0.29
3.376460909843445,2,3,3,3,-9.57,-1.51,-0.89,0.36,-0.26,-0.2
3.386460900306702,2,3,3,3,-9.51,-1.62,-0.73,0.5,-0.2,-0.14
3.396460890769958,2,3,3,3,-9.449999999999999,-1.73,-0.8,0.66,-0.22,-0.1
3.406460881233215,2,3,3,3,-9.390000000000001,-1.73,-0.8100000000000001,0.87,-0.22,-0.01
3.416460871696472,2,3,3,3,-9.25,-1.79,-0.93,1.03,-0.23,0.06
3.426460862159729,2,3,3,3,-8.92,-1.91,-0.66,1.1,-0.23,0.19
3.436461091041565,2,3,3,3,-8.779999999999999,-1.93,-0.42,0.96,-0.08,0.34
3.446461081504822,2,3,3,3,-8.68,-1.96,-0.31,0.84,0.09,0.6
3.456461071968079,2,3,3,3,-8.550000000000001,-1.96,-0.4,0.75,0.06,0.99
3.466461062431335,2,3,3,3,-8.91,-2.01,-0.85,0.68,-0.13,1.45
3.476461052894592,2,3,3,3,-9.23,-2.02,-1.09,0.52,-0.44,1.92
3.486461043357849,2,3,3,3,-9.630000000000001,-2.05,-1.23,0.33,-0.9,2.4
3.496461033821106,2,3,3,3,-9.880000000000001,-2.1,-0.91,0.09,-1.55,2.85
3.506461024284363,2,3,3,3,-9.449999999999999,-2.04,-0.66,-0.61,-2.14,3.23
3.51646101474762,2,3,3,3,-8.9,-1.98,-1.07,-0.86,-2.56,3.57
3.526461005210876,2,3,3,3,-8.369999999999999,-1.91,-1.25,-0.85,-2.65,3.57
3.536460995674133,2,3,3,3,-7.46,-1.66,-1.41,-0.92,-2.49,3.27
3.54646098613739,2,3,3,3,-7.07,-1.54,-1.52,-0.95,-2.13,2.74
3.556460976600647,2,3,3,3,-6.63,-1.48,-1.53,-0.82,-1.71,2
3.566460967063904,2,3,3,3,-6.16,-1.44,-1.34,-0.57,-1.17,1.41
3.576460957527161,2,3,3,3,-5.93,-1.03,-0.23,-0.44,-0.78,0.77
3.586460947990417,2,3,3,3,-5.73,-0.6899999999999999,-0.28,0.02,-1.03,0.45
3.596460938453674,2,3,3,3,-5.92,-0.59,-0.3,1.2,-1.54,0.67
3.606460928916931,2,3,3,3,-6.12,-0.63,-0.49,2.04,-2.26,0.93
3.616460919380188,2,3,3,3,-7.06,-0.55,-0.93,1.99,-2.96,1.16
3.626460909843445,2,3,3,3,-7.65,-0.37,-0.97,1.91,-3.6,1.28
3.636460900306702,2,3,3,3,-8.050000000000001,-0.27,-0.95,2.95,-4.16,1.69
3.646460890769958,2,3,3,3,-8.31,-0.22,-0.61,3.63,-4.58,1.89
3.656460881233215,2,3,3,3,-8.57,-0.22,0.18,3.72,-4.75,1.82
3.666460871696472,2,3,3,3,-8.109999999999999,-0.11,0.6,3.48,-4.3,1.65
3.676460862159729,2,3,3,3,-8.630000000000001,-0.28,1.01,2.35,-3.46,1.15
3.686461091041565,2,3,3,3,-8.41,-0.52,0.76,0.67,-2.66,0.51
3.696461081504822,2,3,3,3,-9.06,-0.95,0.39,-1.13,-1.98,-0.16
3.706461071968079,2,3,3,3,-9.279999999999999,-0.72,0.07000000000000001,-2.68,-2.06,-0.73
3.716461062431335,2,3,3,3,-9.449999999999999,-0.13,-0.31,-3.15,-2.92,-0.92
3.726461052894592,2,3,3,3,-9.09,0.42,-0.14,-2.8,-4.05,-0.32
3.736461043357849,2,3,3,3,-8.859999999999999,0.44,0.1,-2.89,-4.89,0.38
3.746461033821106,2,3,3,3,-8.73,0.46,0.39,-2.52,-5.28,1.09
3.756461024284363,2,3,3,3,-8.890000000000001,0.31,0.57,-1.38,-4.74,1.88
3.76646101474762,2,3,3,3,-9.73,-0.38,0.97,-0.4,-3.59,2.39
3.776461005210876,2,3,3,3,-10.27,-0.83,0.91,0.19,-2.35,2.54
3.786460995674133,2,3,3,3,-10.83,-0.87,0.96,0.33,-1.33,2.59
3.79646098613739,2,3,3,3,-11.33,-0.6,1.04,0.41,-0.66,2.54
3.806460976600647,2,3,3,3,-12.07,0.35,1.1,0.34,-0.38,2.41
3.816460967063904,2,3,3,3,-12.24,0.79,1.28,-0.33,-0.66,2.2
3.826460957527161,2,3,3,3,-12.31,1.01,1.43,-1,-1.38,2.18
3.836460947990417,2,3,3,3,-12.35,0.9399999999999999,1.44,-1.61,-2.15,2.29
3.847460865974426,2,3,3,3,-12.7,0.82,1.47,-2.32,-2.63,2.34
3.857460856437683,2,3,3,3,-12.84,0.84,1.36,-2.51,-2.76,2.37
3.867461085319519,2,3,3,3,-13.09,0.88,1.13,-2.57,-2.36,2.33
3.877461075782776,2,3,3,3,-13.43,0.73,1.12,-2.58,-1.55,2.18
3.887461066246033,2,3,3,3,-14.38,0.45,1.26,-2.77,-0.9399999999999999,1.95
3.89746105670929,2,3,3,3,-14.76,0.61,1.34,-2.43,-0.86,1.94
3.907461047172546,2,3,3,3,-14.85,0.6,1.36,-1.84,-0.96,1.86
3.917461037635803,2,3,3,3,-14.81,0.45,1.13,-1.88,-1.12,1.45
3.92746102809906,2,3,3,3,-15.26,0.31,1.6,-2.09,-1.49,0.92
3.937461018562317,2,3,3,3,-15.72,0.24,1.53,-3.66,-1.73,-0.04
3.947461009025574,2,3,3,3,-16.39,0.6899999999999999,1.07,-3.91,-2.02,-0.71
3.957460999488831,2,3,3,3,-17.93,0.67,0.86,-2.93,-1.45,-1.05
3.967460989952087,2,3,3,3,-18.67,0.5,0.6,-2.04,-0.62,-1.57
3.977460980415344,2,3,3,3,-19.14,0.25,0.55,-1.06,0.07000000000000001,-1.97
3.987460970878601,2,3,3,3,-19.53,-0.31,0.74,-0.02,0.73,-2.28
3.997460961341858,2,3,3,3,-20.56,-0.8100000000000001,0.86,0.55,0.97,-2.61
4.007460951805115,2,3,3,3,-20.46,-0.71,1.04,1.45,0.75,-2.77
4.017460942268372,2,3,3,3,-20.59,-0.78,0.55,2.47,0.78,-2.87
4.027460932731628,2,3,3,3,-20.86,-0.28,0.53,3.95,0.31,-2.7
4.037460923194885,2,3,3,3,-20.22,1.2,1.02,5.11,0.3,-2.25
4.047460913658142,2,3,3,3,-19.82,1.24,1.31,5.07,1.24,-1.86
4.057460904121399,2,3,3,3,-20.9,0.79,1.35,5.27,1.51,-1.37
4.067460894584656,2,3,3,3,-19.98,0.4,1.11,5.04,1.49,-1.01
4.077460885047913,2,3,3,3,-16.97,-1.28,1.14,5.26,6.35,-2.11
4.087460875511169,2,3,3,3,-15.7,-3.05,0.36,6.35,7.28,-2.49
4.097460865974426,2,3,3,3,-14.88,-4.52,0.3,5.83,8.869999999999999,-2.75
4.107460856437683,2,3,3,3,-18.14,-4.08,-1.56,7.29,9.84,-2.55
4.117461085319519,2,3,3,3,-12.4,-4.85,-0.76,8.49,9.44,-4.21
4.127461075782776,2,3,3,3,-10.23,-4.37,-0.83,9.539999999999999,9.029999999999999,-5.78
4.137461066246033,2,3,3,3,-8.31,-4.09,-0.4,10.74,9.06,-7
4.14746105670929,2,3,3,3,-6.4,-3.52,-0.86,9.890000000000001,9.94,-7.79
4.157461047172546,2,3,3,3,-5.35,-2.57,-1.75,7.41,9.51,-8.42
4.167461037635803,2,3,3,3,-2.37,-1.92,-2.18,4.63,9.029999999999999,-9.91
4.17746102809906,2,3,3,3,-1.28,-1.71,-2.03,4.38,8.35,-11.42
4.187461018562317,2,3,3,3,1.04,-0.82,0.01,5.44,8.08,-11.46
4.197461009025574,2,3,3,3,1.69,-1.78,-0.12,4.79,9.91,-11.35
4.207460999488831,2,3,3,3,2.24,-2.37,0.01,4.38,9.5,-10.91
4.217460989952087,2,3,3,3,2.2,-2.52,0.9399999999999999,5.49,7.9,-9.52
4.227460980415344,2,3,3,3,2.82,-1.58,0.26,5.09,6.4,-7.11
4.237460970878601,2,3,3,3,1.77,-1.86,-3.18,3.2,1.28,-3.96
4.247460961341858,2,3,3,3,-0.93,-1.91,-4.9,1.04,-21.3,-0.24
4.257460951805115,2,3,3,3,6.25,-1.8,6.01,-9.109999999999999,-22.66,-1.54
4.267460942268372,2,3,3,3,7.75,3.39,3.01,-6.47,0.23,0.25
4.277460932731628,2,3,3,3,3.16,4.69,-3.37,-2.41,12.96,2.28
4.287460923194885,2,3,3,3,-0.95,0.62,4.25,8.449999999999999,7.96,9.1
4.297460913658142,2,3,3,3,0.24,1.48,0.89,1.37,-0.53,10.1
4.307460904121399,2,3,3,3,1.02,0.49,-0.25,-4.34,-4.86,10.6
4.317460894584656,2,3,3,3,-1.15,-0.3,-0.54,-6.23,-5.24,11.49
4.327460885047913,2,3,3,3,-0.77,-0.02,-0.16,-5.2,-3.63,11.81
4.337460875511169,2,3,3,3,-3.39,-0.9,-0.38,-3.91,-0.84,9.65
4.347460865974426,2,3,3,3,-1.14,-0.51,-0.9399999999999999,-3.27,0.73,8.9
4.357460856437683,2,3,3,3,-3.05,-1.66,-1.31,-2.28,1.27,7.15
4.367461085319519,2,3,3,3,-2.04,-0.37,-2.48,-3.25,0.96,5.57
4.377461075782776,2,3,3,3,-1.44,-1.15,-1.35,-3.65,1.03,3.93
4.387461066246033,2,3,3,3,-2.78,-1.4,-1.5,-3.24,2.25,2.19
4.39746105670929,2,3,3,3,-3.98,-0.64,-1.47,-2.37,3.37,0.87
4.407461047172546,2,3,3,3,-2.68,0.12,-1.21,0.03,3.39,0.18
4.417461037635803,2,3,3,3,-2.07,0.59,0.28,1.64,1.99,0.37
4.42746102809906,2,3,3,3,-1.67,0.63,0.8,2.19,0.27,0.04
4.437461018562317,2,3,3,3,-1.03,0.36,1.01,1.75,-0.15,-1.01
4.447461009025574,2,3,3,3,-0.98,0.15,0.41,1.6,-0.48,-1.31
4.457460999488831,2,3,3,3,0.3,0.22,1.01,1.35,-1.66,-0.87
4.467460989952087,2,3,3,3,0.28,0.3,0.32,2.97,-3.22,0.49
4.477460980415344,2,3,3,3,0.89,-0.8100000000000001,0.93,3.63,-3.93,1.5
4.487460970878601,2,3,3,3,-1,-0.98,1.53,0.76,-5.65,2.6
4.497460961341858,2,3,3,3,-2.28,-3.17,5.22,1.64,-9.07,4.97
4.507460951805115,2,3,3,3,-3.3,-4.54,1.46,1.31,-11.91,7.55
4.517460942268372,2,3,3,3,-8.9,-4.92,8.18,4.49,-14.23,12.82
4.527460932731628,2,3,3,3,-39.07,-28.45,-21.45,-2.44,-10.42,12.34
4.537460923194885,2,3,3,3,-39.11,7.73,-21.45,3.9,-14.68,3.56
4.547460913658142,2,3,3,3,-21.86,26.83,20.34,2.04,-8.51,10.55
4.557460904121399,2,3,3,3,-18.94,10.25,6.86,-15.36,5,4.57
4.567460894584656,2,3,3,3,-25.12,0.95,-0.49,-12.46,-5.38,8.91
4.577460885047913,2,3,3,3,-24.15,3.79,4.69,-9.619999999999999,-9.859999999999999,10.46
4.587460875511169,2,3,3,3,-27.43,3,3.1,-7.77,-7.04,10.77
4.597460865974426,2,3,3,3,-28.67,0.59,1.11,-2.48,-6.1,10.96
4.607460856437683,2,3,3,3,-13.74,0.96,1.48,1.92,-6.3,8.77
4.617461085319519,2,3,3,3,-8.06,3.38,1.67,1.92,-2.38,5.48
4.627461075782776,2,3,3,3,-10.24,2.09,2.35,0.47,3.54,1.66
4.637461066246033,2,3,3,3,-16.06,-0.11,1.23,2.07,3.67,0.25
4.64746105670929,2,3,3,3,-15.75,0.99,0.64,6.74,1.09,-0.18
4.657461047172546,2,3,3,3,-14.66,0.5,0.15,9.699999999999999,1.28,-2.91
4.667461037635803,2,3,3,3,-14.63,0.67,0.71,8.41,3.82,-6.02
4.67746102809906,2,3,3,3,-14.93,1.21,1.09,5.18,5.56,-7.11
4.687461018562317,2,3,3,3,-13.35,1,1.65,2.68,5.95,-6.68
4.697461009025574,2,3,3,3,-12.28,0.67,1.77,0.73,6.5,-5.88
4.707460999488831,2,3,3,3,-11.56,0.57,1.36,-1.46,7.33,-5.48
4.717460989952087,2,3,3,3,-11.46,0.1,0.89,-3.21,7.97,-5.22
4.727460980415344,2,3,3,3,-11.51,-0.32,0.04,-4.65,7.34,-4.59
4.737460970878601,2,3,3,3,-10.69,-0.38,-0.51,-5.07,5.65,-3.6
4.747460961341858,2,3,3,3,-9.51,-0.86,-0.38,-4.51,4.46,-2.75
4.757460951805115,2,3,3,3,-7.2,-2.2,-0.77,-3.43,3.74,-2.37
4.767460942268372,2,3,3,3,-6.5,-2.51,-0.9,-1.88,3.8,-2.24
4.777460932731628,2,3,3,3,-6.36,-2.21,-0.8,-0.35,3.82,-2
4.787460923194885,2,3,3,3,-6.61,-2.59,-1.04,0.59,3.52,-1.81
4.797460913658142,2,3,3,3,-6.67,-1.8,-0.43,2.01,2.97,-1.21
4.817460894584656,2,3,3,3,-6.61,-2,-0.22,4.16,1.68,-1
4.827460885047913,2,3,3,3,-6.74,-1.66,0.2,4.55,1.19,-1.42
4.837460875511169,2,3,3,3,-7.03,-0.79,-0.24,4.14,1.04,-1.93
4.847460865974426,2,3,3,3,-7.16,-0.3,-0.21,4.03,1.12,-2.14
4.857460856437683,2,3,3,3,-6.69,0.1,0.01,4.19,1.79,-2.32
4.867461085319519,2,3,3,3,-6.86,0.62,-0.29,2.69,2.69,-2.87
4.878461003303528,2,3,3,3,-7.7,0.83,-0.19,1.27,2.63,-3.01
4.888460993766785,2,3,3,3,-8.26,0.51,-0.13,0.49,1.64,-2.84
4.898460984230042,2,3,3,3,-8.15,-0.05,0.24,0.64,-0.38,-2.57
4.908460974693298,2,3,3,3,-8.65,-0.74,-0.08,-1.09,-1.2,-2.6
4.918460965156555,2,3,3,3,-9.470000000000001,-1.38,-0.44,-1.85,-2.22,-2.36
4.928460955619812,2,3,3,3,-9.300000000000001,-1.41,-0.88,-2.43,-2.13,-2.26
4.938460946083069,2,3,3,3,-9.44,-1.2,-0.86,-1.78,-1.35,-1.77
4.948460936546326,2,3,3,3,-10.16,-0.26,-0.29,-0.67,-0.77,-0.93
4.968460917472839,2,3,3,3,-10.56,0.12,-0.46,0.46,-1.38,0.63
4.978460907936096,2,3,3,3,-10.46,0.16,-0.52,0.17,-1.51,0.9399999999999999
4.988460898399353,2,3,3,3,-10.1,-0.01,-0.33,-0.02,-1.48,0.88
4.99846088886261,2,3,3,3,-9.890000000000001,-0.24,-0.14,-0.06,-1.2,0.47
5.008460879325867,2,3,3,3,-9.619999999999999,-0.51,-0.12,-0.2,-0.85,-0.28
5.018460869789124,2,3,3,3,-10.13,-0.67,-0.16,-0.39,-0.58,-1.3
5.02846086025238,2,3,3,3,-9.82,-0.71,-0.34,0.22,-0.51,-1.95
5.038461089134216,2,3,3,3,-10.03,-0.61,-1.24,1.03,-0.2,-2.53
5.048461079597473,2,3,3,3,-10.03,-0.61,-1.24,1.35,0.51,-3.16
5.05846107006073,2,3,3,3,-9.73,-0.47,-0.66,1.59,0.33,-3.34
5.068461060523987,2,3,3,3,-8.99,-0.21,-0.49,1.19,0.52,-3.45
5.078461050987244,2,3,3,3,-9.220000000000001,-0.42,-0.29,0.75,0.57,-3.46
5.0884610414505,2,3,3,3,-9.02,-0.5,-0.23,0.27,0.85,-3.43
5.098461031913757,2,3,3,3,-8.880000000000001,-0.53,-0.25,-0.05,0.87,-3.38
5.108461022377014,2,3,3,3,-8.52,-0.61,-0.24,-0.07000000000000001,0.93,-3.12
5.118461012840271,2,3,3,3,-8.42,-0.67,-0.03,-0.16,1.03,-2.72
5.128461003303528,2,3,3,3,-8.42,-0.8,0.1,-0.85,0.93,-2.4
5.138460993766785,2,3,3,3,-8.640000000000001,-0.83,0.17,-1.9,0.79,-2.02
5.148460984230042,2,3,3,3,-8.66,-1.03,-0.2,-2.57,0.68,-1.59
5.158460974693298,2,3,3,3,-8.76,-1.23,-0.57,-2.84,0.68,-1.22
5.168460965156555,2,3,3,3,-8.99,-1.41,-1,-2.91,0.79,-0.91
5.178460955619812,2,3,3,3,-9.33,-1.64,-1.34,-2.98,0.93,-0.7
5.188460946083069,2,3,3,3,-9.5,-1.61,-1.39,-2.92,0.96,-0.43
5.198460936546326,2,3,3,3,-9.6,-1.65,-1.34,-2.31,1.01,-0.2
5.208460927009583,2,3,3,3,-9.6,-1.65,-1.34,-1.55,1,0.04
5.218460917472839,2,3,3,3,-9.380000000000001,-1.9,-1.17,-0.96,0.83,0.21
5.228460907936096,2,3,3,3,-9.31,-1.83,-0.8100000000000001,-0.5600000000000001,0.67,0.3
5.268460869789124,2,3,3,3,-8.609999999999999,-1.59,-0.53,0.74,1.1,0.8
5.27846086025238,2,3,3,3,-8.65,-1.61,-0.75,0.52,1.19,0.88
5.288461089134216,2,3,3,3,-8.51,-1.69,-0.74,0.33,1.3,0.83
5.298461079597473,2,3,3,3,-8.52,-1.77,-0.87,0.02,1.39,0.82
5.30846107006073,2,3,3,3,-8.58,-1.78,-0.76,-0.04,1.25,0.95
5.318461060523987,2,3,3,3,-8.550000000000001,-1.77,-0.92,0.14,1,1.17
5.328461050987244,2,3,3,3,-8.66,-1.44,-0.78,0.1,0.82,1.35
5.3384610414505,2,3,3,3,-8.59,-1.31,-0.85,-0.63,0.57,1.36
5.348461031913757,2,3,3,3,-8.32,-1.38,-0.97,-1.19,0.29,1.4
5.358461022377014,2,3,3,3,-8.32,-1.38,-0.97,-1.36,-0.05,1.46
5.368461012840271,2,3,3,3,-7.48,-1.15,-0.85,-1.23,-0.38,1.49
5.378461003303528,2,3,3,3,-7.33,-0.73,-0.42,-0.9399999999999999,-0.97,1.59
5.388460993766785,2,3,3,3,-7.12,-0.62,-0.03,-1.13,-1.53,1.7
5.398460984230042,2,3,3,3,-7.12,-0.62,-0.03,-1.6,-1.96,1.5
5.408460974693298,2,3,3,3,-7.06,-0.65,0.01,-2.33,-2.3,1.07
5.418460965156555,2,3,3,3,-7.1,-1.02,-0.57,-3.91,-2.14,0.34
5.428460955619812,2,3,3,3,-7.42,-1.03,-0.6899999999999999,-4.34,-2.14,-0.29
5.438460946083069,2,3,3,3,-7.54,-0.93,-0.63,-3.98,-1.67,-0.75
5.448460936546326,2,3,3,3,-7.54,-0.93,-0.63,-3.67,-1.21,-0.97
5.458460927009583,2,3,3,3,-7.59,-0.78,-0.8100000000000001,-3.49,-1,-1.08
5.468460917472839,2,3,3,3,-7.38,-0.68,-0.91,-3.42,-0.98,-1.15
5.478460907936096,2,3,3,3,-7.42,-0.9,-0.88,-2.88,-1.27,-0.9
5.488460898399353,2,3,3,3,-7.69,-0.5600000000000001,-0.6,-1.31,-1.81,-0.28
5.49846088886261,2,3,3,3,-7.9,-0.35,-0.28,0.91,-2.22,0.8
5.508460879325867,2,3,3,3,-8.15,-0.06,0.37,2.3,-2.49,1.75
5.518460869789124,2,3,3,3,-8.69,0.19,0.73,2.41,-3.03,2.25
5.52846086025238,2,3,3,3,-8.970000000000001,0.11,0.7,2.19,-3.51,2.45
5.538461089134216,2,3,3,3,-9.199999999999999,-0.12,0.74,1.98,-3.52,2.51
5.548461079597473,2,3,3,3,-9.199999999999999,-0.12,0.74,1.98,-3.52,2.51
5.55846107006073,2,3,3,3,-9.49,-0.53,0.47,1.09,-3.32,2.27
5.568461060523987,2,3,3,3,-10.15,0.13,-0.29,-1.24,-3.28,1.33
5.578461050987244,2,3,3,3,-10.32,0.34,-0.52,-1.95,-3.06,1.27
5.5884610414505,2,3,3,3,-10.46,0.41,-0.44,-2.45,-3.02,1.6
5.598461031913757,2,3,3,3,-10.46,0.41,-0.44,-2.33,-3.37,2.06
5.608461022377014,2,3,3,3,-10.89,0.66,0.55,-2.33,-3.37,2.06
5.618461012840271,2,3,3,3,-11.14,0.53,1.03,-0.31,-3.84,2.66
5.628461003303528,2,3,3,3,-11.46,0.55,1.3,0.08,-3.69,2.36
5.638460993766785,2,3,3,3,-12.05,1.02,1.42,0.17,-3.29,2.01
5.648460984230042,2,3,3,3,-12.05,1.02,1.42,0.17,-3.29,2.01
5.658460974693298,2,3,3,3,-12.24,1.09,1.29,-0.78,-1.99,1.8
5.668460965156555,2,3,3,3,-12.4,0.73,0.75,-1.94,-1.45,1.92
5.678460955619812,2,3,3,3,-13.03,0.61,0.75,-2.93,-1.56,2.19
5.688460946083069,2,3,3,3,-13.81,0.71,0.89,-3.49,-1.51,2.38
5.698460936546326,2,3,3,3,-13.81,0.71,0.89,-3.58,-1.44,2.4
5.708460927009583,2,3,3,3,-14.46,0.72,0.97,-3.27,-1.04,1.99
5.738460898399353,2,3,3,3,-17.85,0.01,0.68,-1.34,-1.39,0.51
5.77846086025238,2,3,3,3,-19.72,-0.1,0.72,-1.72,-3.75,0.36
5.788461089134216,2,3,3,3,-19.81,0.2,0.78,-1.82,-4.55,0.47
5.798461079597473,2,3,3,3,-19.81,0.2,0.78,-1.88,-5.19,0.45
5.809460997581482,2,3,3,3,-19.85,0.43,0.93,-1.38,-5.89,0.34
5.818461060523987,2,3,3,3,-18.64,1.52,1.39,0.3,-5.66,0.37
5.828461050987244,2,3,3,3,-20.3,1.38,1.41,0.85,-4.73,0.13
5.8384610414505,2,3,3,3,-19.69,1.84,2.18,1.54,-3.85,-0.1
5.848461031913757,2,3,3,3,-19.69,1.84,2.18,1.54,-3.85,-0.1
5.858461022377014,2,3,3,3,-20.14,1.48,2.01,3.45,-2.21,-0.2
5.868461012840271,2,3,3,3,-17.2,0.82,2.73,6.19,0.65,-0.8100000000000001
5.878461003303528,2,3,3,3,-21.01,0.84,-0.1,7.24,3.09,-1.39
5.888460993766785,2,3,3,3,-20.23,0.7,0.25,11.87,6.38,-2.21
5.899460911750793,2,3,3,3,-20.23,0.7,0.25,11.84,8.050000000000001,-3.18
5.90946090221405,2,3,3,3,-18.61,0.16,1.09,11.84,8.050000000000001,-3.18
5.919460892677307,2,3,3,3,-16.01,-1.03,1.16,9.74,9.5,-5.5
5.929460883140564,2,3,3,3,-14.47,-3.03,1.38,7.85,11.21,-7.09
5.939460873603821,2,3,3,3,-11.48,-5.8,1.25,5.87,12.5,-8.93
5.949460864067078,2,3,3,3,-11.48,-5.8,1.25,5.87,12.5,-8.93
5.959461092948914,2,3,3,3,-10,-6.24,0.44,2.55,11.17,-11.35
5.96946108341217,2,3,3,3,-7.68,-5.11,-2.47,1.16,9.199999999999999,-12.67
5.979461073875427,2,3,3,3,-3.78,-4.94,-3.72,1.66,7.36,-14.44
5.989461064338684,2,3,3,3,-1.89,-5.74,-4.06,3.18,5.4,-15.58
5.999461054801941,2,3,3,2,-1.89,-5.74,-4.06,3.18,5.4,-15.58
6.009461045265198,2,3,3,2,-0.44,-6.68,-3.89,3.23,4.84,-16.14
6.019461035728455,2,3,3,2,2.76,-4.6,-2.15,-1.91,5.51,-13.34
6.029461026191711,2,3,3,2,2.76,-4.6,-2.15,0.12,5.08,-10.88
6.039461016654968,2,3,3,2,3.77,-3.8,0,2.81,5.81,-7.03
6.049461007118225,2,3,3,2,4.2,-3.73,1.25,2.81,5.81,-7.03
6.059460997581482,2,3,3,2,3.15,-3.63,1.46,3.65,5.87,-0.93
6.069460988044739,2,3,3,2,3.21,-1.4,1.14,5.96,2.98,10.77
6.079460978507996,2,3,3,2,3.39,2.33,0.41,7.23,1.28,15.84
6.089460968971252,2,3,3,2,3.39,2.33,0.41,7.06,-4.07,17.92
6.099460959434509,2,3,3,2,2.66,4.17,0.16,7.06,-4.07,17.92
6.109460949897766,2,3,3,2,1.02,3.67,3.7,2.95,-12.34,18.5
6.119460940361023,2,3,3,2,0.19,3.21,3.81,0.16,-12.58,17.02
6.12946093082428,2,3,3,2,0.68,2.91,1.73,-2.05,-11.12,14.18
6.139460921287537,2,3,3,2,-0.27,2.14,0.13,-4.05,-8.18,10.66
6.149460911750793,2,3,3,2,-1.46,1.35,0.14,-4.05,-8.18,10.66
6.15946090221405,2,3,3,2,-2.17,0.53,-0.53,-5.21,-4.84,6.83
6.169460892677307,2,3,3,2,-2.68,0.09,-1,-5.23,1.6,-0.61
6.179460883140564,2,3,3,2,-3.21,-0.34,-0.63,-4.08,4.49,-3.58
6.189460873603821,2,3,3,2,-2.99,-0.33,-0.53,-1.91,6.9,-5.87
6.199460864067078,2,3,3,2,-2.32,-0.5,-0.7,-1.91,6.9,-5.87
6.209461092948914,2,3,3,2,-1.81,-0.95,-0.76,0.77,8.609999999999999,-7.48
6.21946108341217,2,3,3,2,-1.15,-0.82,-0.08,3.97,8.880000000000001,-8.4
6.229461073875427,2,3,3,2,-1.06,-0.28,0.62,3.19,7.68,-8.32
6.239461064338684,2,3,3,2,-0.73,-0.02,0.76,1.33,5.57,-8.01
6.249461054801941,2,3,3,2,-0.24,-0.04,0.82,1.33,5.57,-8.01
6.259461045265198,2,3,3,2,0.41,-0.34,-0.12,0.05,3.05,-7.32
6.269461035728455,2,3,3,2,0.5600000000000001,-0.34,0.17,-0.29,0.34,-4.69
6.279461026191711,2,3,3,2,0.64,-0.51,0.22,0.06,0.21,-3.33
6.289461016654968,2,3,3,2,0.97,-0.82,0.05,0.49,0.21,-1.43
6.299461007118225,2,3,3,2,1.02,-1.31,0.45,0.49,0.21,-1.43
6.309460997581482,2,3,3,2,0.77,-1.45,1.2,-0.1,-0.42,0.32
6.319460988044739,2,3,3,2,0.19,-1.28,1.73,0.5,-4.24,7
6.329460978507996,2,3,3,2,-0.17,-2.93,-1.2,-0.73,-7.19,9.34
6.339460968971252,2,3,3,2,-2.02,-3.05,0.46,-1.16,-11.64,12.45
6.349460959434509,2,3,3,2,-3.61,-2.81,2.36,-1.16,-11.64,12.45
6.359460949897766,2,3,3,2,-3.44,-3.09,0.21,-0.32,-13.7,15.85
6.369460940361023,2,3,3,2,-9.74,-5.18,-1.34,4.32,-9.48,21.77
6.37946093082428,2,3,3,2,-20.58,-6.46,-3.91,6.65,-8.76,18.72
6.389460921287537,2,3,3,2,-31.97,-4.3,-5.76,1.86,-9.57,7.78
6.399460911750793,2,3,3,2,-39.11,7.28,-0.92,1.86,-9.57,7.78
6.40946090221405,2,3,3,2,-18.86,8.720000000000001,6.97,-6.67,-6.57,1.7
6.419460892677307,2,3,3,2,-18.1,3.45,3.31,-15.2,-2.06,4.39
6.429460883140564,2,3,3,2,-22.54,1.65,2.27,-12,-5.71,4
6.439460873603821,2,3,3,2,-27.85,-1.72,-0.06,-8.44,-8.07,2.65
6.449460864067078,2,3,3,2,-25.47,-1.68,-4.22,-8.44,-8.07,2.65
6.459461092948914,2,3,3,2,-22.23,1.31,-5.43,-9.390000000000001,-2.54,1.06
6.46946108341217,2,3,3,2,-16.96,1.29,-2.22,-6.02,0.28,3.98
6.479461073875427,2,3,3,2,-14.82,-0.14,1.64,-2.72,-0.6,5.27
6.489461064338684,2,3,3,2,-13.63,-2.12,3.37,-1.39,-0.46,5.06
6.499461054801941,2,3,3,2,-14.52,-1.02,3.5,-1.39,-0.46,5.06
6.509461045265198,2,3,3,2,-15.94,0,4.44,-0.98,-1.96,4.39
6.519461035728455,2,3,3,2,-17.49,0.16,3.1,0.14,-2.8,1.34
6.529461026191711,2,3,3,2,-16.58,0.51,2.35,0.75,-1.64,-0.36
6.539461016654968,2,3,3,2,-14.39,0.35,1.48,0.9,0.15,-1.01
6.549461007118225,2,3,3,2,-12.36,0.21,1.11,0.9,0.15,-1.01
6.559460997581482,2,3,3,2,-10.97,0.02,1.24,1.04,2.62,-1.41
6.569460988044739,2,3,3,2,-11.49,-0.48,1,2.57,6.73,-2.73
6.579460978507996,2,3,3,2,-12.37,-0.6,0.14,3.45,7.18,-3.98
6.589460968971252,2,3,3,2,-13.52,-0.37,-0.78,4.34,7.43,-5.23
6.599460959434509,2,3,3,2,-15.23,-0.44,-1.96,4.34,7.43,-5.23
6.609460949897766,2,3,3,2,-15.54,-0.51,-2.1,5.73,6.77,-5.11
6.619460940361023,2,3,3,2,-15.06,-0.34,-1.84,7.59,3.65,-2.12
6.62946093082428,2,3,3,2,-13.97,0.15,-1.41,6.03,2.22,-1.13
6.639460921287537,2,3,3,2,-11.17,1.34,-0.02,3.4,1.17,-0.67
6.649460911750793,2,3,3,2,-10.39,1.87,0.53,3.4,1.17,-0.67
6.65946090221405,2,3,3,2,-10.28,1.84,0.85,0.5600000000000001,0.04,-0.1
6.669460892677307,2,3,3,2,-10.14,1.72,0.86,-2.88,-3.13,0.14
6.679460883140564,2,3,3,2,-9.23,1.33,0.63,-3.31,-3.92,-0.57
6.689460873603821,2,3,3,2,-8.550000000000001,0.96,0.62,-3.27,-3.75,-1.54
6.699460864067078,2,3,3,2,-7.88,0.5,0.54,-3.27,-3.75,-1.54
6.709461092948914,2,3,3,2,-7.15,-0.74,0.5600000000000001,-3.03,-2.58,-2.51
6.71946108341217,2,3,3,2,-7.38,-1.2,0.43,-1.29,1.62,-3.59
6.729461073875427,2,3,3,2,-7.99,-1.52,0.14,-0.15,3.13,-3.92
6.739461064338684,2,3,3,2,-8.550000000000001,-1.85,-0.06,0.6899999999999999,3.75,-4.07
6.749461054801941,2,3,3,2,-9.4,-2.19,-0.48,0.6899999999999999,3.75,-4.07
6.759461045265198,2,3,3,2,-9.19,-2.06,-0.46,1.28,3.52,-4.17
6.769461035728455,2,3,3,2,-8.9,-1.83,-0.58,2.46,3.53,-4.16
6.779461026191711,2,3,3,2,-8.630000000000001,-1.48,-0.64,2.71,3.27,-3.82
6.789461016654968,2,3,3,2,-7.8,-0.45,-0.28,2.46,2.87,-3.49
6.799461007118225,2,3,3,2,-7.43,-0.15,-0.12,2.46,2.87,-3.49
6.809460997581482,2,3,3,3,-7.11,0.11,0.07000000000000001,1.75,2.45,-3.1
6.819460988044739,2,3,3,3,-6.91,0.17,0.15,-0.09,1.32,-1.91
6.830460906028748,2,3,3,3,-7.09,-0.11,-0.19,-0.87,0.9,-1.26
6.839460968971252,2,3,3,3,-7.43,-0.34,-0.35,-1.56,0.77,-0.7
6.849460959434509,2,3,3,3,-7.78,-0.63,-0.51,-1.56,0.77,-0.7
6.860460877418518,2,3,3,3,-8.08,-0.91,-0.62,-1.97,0.87,-0.45
6.869460940361023,2,3,3,3,-8.449999999999999,-1.33,-0.7,-2.3,1.19,-0.91
6.87946093082428,2,3,3,3,-8.41,-1.52,-0.76,-2.04,1.36,-1.38
6.890461087226868,2,3,3,3,-8.24,-1.65,-0.6899999999999999,-1.73,1.68,-1.83
6.899460911750793,2,3,3,3,-7.77,-1.7,-0.3,-1.73,1.68,-1.83
6.90946090221405,2,3,3,3,-7.56,-1.65,-0.12,-1.46,1.95,-2.19
6.920461058616638,2,3,3,3,-7.4,-1.51,-0.04,-0.42,1.9,-2.02
6.930461049079895,2,3,3,3,-7.24,-1.41,-0.21,-0.01,1.49,-1.67
6.940461039543152,2,3,3,3,-6.97,-1.34,-0.37,-0.11,0.93,-1.32
6.950461030006409,2,3,3,3,-6.94,-1.23,-0.31,-0.11,0.93,-1.32
6.960461020469666,2,3,3,3,-6.94,-1.07,-0.26,-0.61,0.35,-0.98
6.970461010932922,2,3,3,3,-6.93,-0.92,-0.22,-1.68,-0.79,-0.17
7.000460982322693,2,3,3,3,-6.97,-0.64,-0.18,-1.97,-2.32,0.96
7.01046097278595,2,3,3,3,-7.16,-0.64,0.01,-1.81,-2.81,1.52
7.020460963249207,2,3,3,3,-7.44,-0.79,-0.1,-1.8,-3.26,1.88
7.030460953712463,2,3,3,3,-7.4,-0.83,-0.21,-1.9,-3.12,1.43
7.04046094417572,2,3,3,3,-7.48,-0.6899999999999999,-0.26,-1.95,-2.77,0.73
7.050460934638977,2,3,3,3,-7.64,-0.43,-0.06,-1.95,-2.77,0.73
7.060460925102234,2,3,3,3,-7.71,-0.25,0.01,-2.12,-2.08,0.04
7.070460915565491,2,3,3,3,-7.66,-0.2,0.11,-1.7,-1.23,-0.61
7.080460906028748,2,3,3,3,-7.55,-0.18,0.13,-1.26,-1.31,-0.58
7.090460896492004,2,3,3,3,-7.51,-0.15,0.29,-1.01,-1.55,-0.5
7.100460886955261,2,3,3,3,-7.76,0.02,0.23,-1.01,-1.55,-0.5
7.110460877418518,2,3,3,3,-8.08,0.17,0.21,-1.19,-2.12,-0.28
7.120460867881775,2,3,3,3,-8.33,0.29,0.12,-1.93,-3.01,0.46
7.130460858345032,2,3,3,3,-8.609999999999999,0.65,0,-2.06,-2.81,0.77
7.140461087226868,2,3,3,3,-8.84,0.73,0.41,-2.06,-2.36,0.95
7.150461077690125,2,3,3,3,-9.130000000000001,0.63,0.73,-2.06,-2.36,0.95
7.160461068153381,2,3,3,3,-9.34,0.34,0.79,-1.87,-1.8,1.06
7.170461058616638,2,3,3,3,-9.92,-0.34,0.99,-1.8,-1.03,0.65
7.180461049079895,2,3,3,3,-10.44,-0.49,0.99,-1.88,-0.86,0.12
7.190461039543152,2,3,3,3,-10.98,-0.47,0.96,-1.92,-0.9399999999999999,-0.38
7.200461030006409,2,3,3,3,-11.52,-0.15,0.83,-1.92,-0.9399999999999999,-0.38
7.210461020469666,2,3,3,3,-12.67,0.6,0.38,-1.64,-1.19,-0.66
7.220461010932922,2,3,3,3,-12.9,0.65,0.37,-0.87,-1.73,0.12
7.230461001396179,2,3,3,3,-13.15,0.67,0.51,-0.93,-1.76,0.83
7.240460991859436,2,3,3,3,-13.47,0.49,0.75,-1.26,-1.66,1.41
7.250460982322693,2,3,3,3,-14.25,0.06,1.2,-1.26,-1.66,1.41
7.26046097278595,2,3,3,3,-14.88,-0.2,1.29,-0.85,-1.15,1.54
7.270460963249207,2,3,3,3,-15.65,-0.54,1.4,-0.5,0.09,0.95
7.280460953712463,2,3,3,3,-16.4,-0.71,1.18,-1.72,0.6899999999999999,0.05
7.29046094417572,2,3,3,3,-18.72,-0.49,0.6,-2.3,0.32,-0.63
7.300460934638977,2,3,3,3,-19.53,-0.26,0.39,-2.3,0.32,-0.63
7.310460925102234,2,3,3,3,-20.17,-0.05,0.18,-1.42,-0.35,-0.92
7.320460915565491,2,3,3,3,-21.22,0.04,0.53,0.05,-1.24,-0.8100000000000001
7.330460906028748,2,3,3,3,-21.35,-0.14,0.3,1.36,-2.64,-0.6
7.340460896492004,2,3,3,3,-21.29,-0.04,0.85,1.57,-4.17,-0.34
7.350460886955261,2,3,3,3,-21.16,0.31,1.61,0.53,-5.83,-0.09
7.360460877418518,2,3,3,3,-20.59,1.04,1.73,0.33,-6.46,0.16
7.370460867881775,2,3,3,3,-21.02,1.55,1.99,0.19,-6.56,0.26
7.380460858345032,2,3,3,3,-21.08,2.05,1.8,0.09,-6.86,0.35
7.390461087226868,2,3,3,3,-20.87,2.19,2.3,-0.51,-7.26,0.32
7.400461077690125,2,3,3,3,-20.29,2.55,2.32,-1.03,-7.84,-0.07000000000000001
7.410461068153381,2,3,3,3,-19.03,2.87,2.13,0.24,-7.07,-0.27
7.420461058616638,2,3,3,3,-18.83,2.84,2.78,2.76,-4.03,-0.48
7.430461049079895,2,3,3,3,-19.15,2.45,2.85,5.25,-0.93,-0.93
7.440461039543152,2,3,3,3,-19.98,1.3,2.74,7.23,0.71,-1.4
7.450461030006409,2,3,3,3,-20.28,1.07,2.87,9.109999999999999,2.54,-1.09
7.460461020469666,2,3,3,3,-20.25,0.6899999999999999,2.43,10.7,3.82,-0.55
7.470461010932922,2,3,3,3,-19.52,-0.03,2.17,12.23,4.77,-0.9399999999999999
7.480461001396179,2,3,3,3,-17.18,-1.94,1.86,13.14,6.01,-2
7.490460991859436,2,3,3,3,-14.71,-2.71,1.67,11.54,8,-4.65
7.500460982322693,2,3,3,3,-12.8,-3.73,1.06,9.31,10.87,-7.58
7.51046097278595,2,3,3,3,-9.289999999999999,-4.76,-0.44,7.1,12.92,-10.29
7.520460963249207,2,3,3,3,-7.57,-5.38,-1.14,4.17,14.31,-12.9
7.530460953712463,2,3,3,3,-5.68,-6.87,-2.08,2.01,15.47,-15.14
7.54046094417572,2,3,3,3,-3.35,-8.35,-4.24,0.45,15.85,-17.1
7.550460934638977,2,3,3,3,0.66,-11.4,-7.73,-1.27,12.98,-20.12
7.570460915565491,2,3,3,3,3.19,-9.73,-4.42,4.07,3.43,-23.26
7.580460906028748,2,3,3,3,1.36,-10.64,0.36,8.77,4.26,-18.43
7.590460896492004,2,3,3,3,-1,-7.87,0.05,10.53,8.93,-6.82
7.600460886955261,2,3,3,3,1.58,-4.68,0.19,11.91,6.99,5.75
7.610460877418518,2,3,3,3,4.17,1.57,1.09,10.7,3.99,17.2
7.620460867881775,2,3,3,3,4.82,7.5,1.41,7.95,-2.5,20.84
7.630460858345032,2,3,3,3,5.7,6.7,4.22,6.87,-6.61,21.58
7.640461087226868,2,3,3,3,4.46,5.03,2.43,4,-7.08,21.91
7.650461077690125,2,3,3,3,2.55,3.61,1.56,-0.03,-9.300000000000001,21.72
7.660461068153381,2,3,3,3,1.44,2.81,1.17,-2.7,-10.09,19.74
7.670461058616638,2,3,3,3,-0.33,2.36,2.17,-4.17,-9.289999999999999,15.25
7.680461049079895,2,3,3,3,-1.42,1.37,1.61,-5.64,-4.97,8.970000000000001
7.690461039543152,2,3,3,3,-2.28,0.32,1.21,-6.3,0.15,3.05
7.700461030006409,2,3,3,3,-4.09,-0.8100000000000001,1.21,-6.68,4.31,-1.78
7.710461020469666,2,3,3,3,-4.92,-0.45,-0.13,-5.57,7.56,-5.66
7.720461010932922,2,3,3,3,-4.81,-0.6899999999999999,-0.85,-5.57,7.56,-5.66
7.730461001396179,2,3,3,3,-3.87,-1.57,-1.49,0.28,8.66,-9.01
7.740460991859436,2,3,3,3,-1.44,-1.03,-1.11,1.64,7.45,-8.75
7.750460982322693,2,3,3,3,-0.77,-1.07,-1.35,2.05,6.15,-7.97
7.76046097278595,2,3,3,3,-0.92,-0.8,-1.39,1.67,3.96,-6.34
7.770460963249207,2,3,3,3,-0.49,-0.52,-1.33,1.67,3.96,-6.34
7.780460953712463,2,3,3,3,-0.17,0.3,-0.27,1.41,1.29,-4.76
7.79046094417572,2,3,3,3,0.3,0.01,0.43,-0.54,-2.72,-3.45
7.800460934638977,2,3,3,3,0.54,-0.11,0.45,-1.71,-2.15,-3.26
7.810460925102234,2,3,3,3,0.59,0.22,0.3,-1.49,-2.43,-2.25
7.820460915565491,2,3,3,3,1.55,1.39,0.53,-1.49,-2.43,-2.25
7.830460906028748,2,3,3,3,2.11,1.22,-0.4,-0.25,-4.37,0.51
7.840460896492004,2,3,3,3,2.02,0.27,-0.99,0.45,-3.72,2.09
7.850460886955261,2,3,3,3,1.87,-0.55,-1.32,0.79,-2.96,3.92
7.860460877418518,2,3,3,3,1.28,-1.34,-1.28,0.36,-3.1,5.63
7.870460867881775,2,3,3,3,0.98,-1.27,-1.34,0.36,-3.1,5.63
7.880460858345032,2,3,3,3,0.64,-1.07,-1.41,-0.33,-3.56,7.01
7.890461087226868,2,3,3,3,0.29,-1.04,-1.17,0.03,-5.29,8.529999999999999
7.900461077690125,2,3,3,3,-1.29,-0.36,2.06,0.19,-5.51,8.5
7.911460995674133,2,3,3,3,-2.02,0.3,3.92,-0.14,-5.64,7.31
7.920461058616638,2,3,3,3,-1.8,-0.7,1.15,-0.14,-5.64,7.31
7.930461049079895,2,3,3,3,-3.73,-0.87,0.28,0.08,-7.51,6.78
7.940461039543152,2,3,3,3,-5.45,-0.77,4.96,0.11,-5.74,6.59
7.951460957527161,2,3,3,3,-7.4,-2.69,4.97,-0.41,-2.3,6.97
7.961460947990417,2,3,3,3,-9.23,-5.61,-1.61,-0.04,-4.58,8.66
7.971460938453674,2,3,3,3,-23.07,-3.98,-0.17,-0.04,-4.58,8.66
7.981460928916931,2,3,3,3,-30.98,0.41,-1.85,4.38,-5.89,11.33
7.991460919380188,2,3,3,3,-38.28,8.83,2.22,-4.23,-3.76,4.76
8.001460909843445,2,3,3,3,-31.56,9.23,2.69,-12.48,-0.95,-1.55
8.021460890769958,2,3,3,3,-31.14,-1.08,-0.32,-11.79,2.41,0.6
8.031460881233215,2,3,3,3,-32.79,-1.06,-3.53,-7.94,2.67,4.84
8.041460871696472,2,3,3,3,-30.73,0.6,-0.93,-4.31,3.45,3.07
8.051460862159729,2,3,3,3,-24.34,1.05,4.95,-1.03,-0.18,6.66
8.061461091041565,2,3,3,3,-22.28,2.01,5.63,-1.87,-1.93,9.279999999999999
8.071461081504822,2,3,3,3,-21.73,1.6,4.55,-1.87,-1.93,9.279999999999999
8.081461071968079,2,3,3,3,-21.34,0.35,2.69,-4.08,-3.07,8.449999999999999
8.091461062431335,2,3,3,3,-19.2,0.22,1.26,-6.19,-2.43,4.41
8.101461052894592,2,3,3,3,-17.66,0.42,0.86,-4.61,-0.8,2.29
8.111461043357849,2,3,3,3,-16.28,0.5,0.8,-1.91,0.45,0.34
8.121461033821106,2,3,3,3,-14.8,0.48,1.07,-1.91,0.45,0.34
8.131461024284363,2,3,3,3,-14.31,0.34,0.75,2.42,2.73,-2.94
8.14146101474762,2,3,3,3,-13.85,0.26,0.7,3.21,4.35,-4.52
8.151461005210876,2,3,3,3,-13.66,0.35,0.6899999999999999,3.67,5.72,-5.7
8.161460995674133,2,3,3,3,-13.65,-0.01,0.4,4.12,6.38,-6.3
8.17146098613739,2,3,3,3,-13.27,-0.07000000000000001,-0.06,4.12,6.38,-6.3
8.181460976600647,2,3,3,3,-12.69,0.17,-0.11,4.19,6.37,-5.94
8.191460967063904,2,3,3,3,-11.97,0.42,0.07000000000000001,3.55,6.3,-5.11
8.201460957527161,2,3,3,3,-10.3,0.87,0.34,0.6,6.38,-4.02
8.211460947990417,2,3,3,3,-9.66,1.14,0.24,-1,6.3,-3.96
8.221460938453674,2,3,3,3,-9.19,0.99,0.05,-1,6.3,-3.96
8.231460928916931,2,3,3,3,-8.609999999999999,0.73,-0.17,-3.47,5.51,-4.63
8.241460919380188,2,3,3,3,-7.46,0.05,-0.36,-4.06,4.78,-5.04
8.251460909843445,2,3,3,3,-7.09,-0.32,-0.18,-4.11,4.1,-5.33
8.261460900306702,2,3,3,3,-6.83,-0.48,-0.15,-3.72,3.45,-5.57
8.271460890769958,2,3,3,3,-6.7,-0.44,-0.13,-3.72,3.45,-5.57
8.281460881233215,2,3,3,3,-6.6,-0.62,-0.18,-2.76,2.94,-5.65
8.291460871696472,2,3,3,3,-6.67,-0.89,0,-0.36,2.89,-5.86
8.301460862159729,2,3,3,3,-6.58,-1.22,0.12,-0.32,2.28,-6.11
8.311461091041565,2,3,3,3,-6.13,-1.52,0.04,-1.18,1.47,-6.36
8.321461081504822,2,3,3,3,-5.92,-1.45,-0.19,-1.18,1.47,-6.36
8.331461071968079,2,3,3,3,-5.97,-1.3,-0.32,-1.12,1.63,-6.38
8.341461062431335,2,3,3,3,-6.03,-1.06,-0.3,-1.24,2.26,-6.28
8.351461052894592,2,3,3,3,-6.69,-0.53,-0.47,-1.54,2.68,-5.97
8.361461043357849,2,3,3,3,-7.2,-0.63,-0.49,-2.01,2.65,-5.41
8.371461033821106,2,3,3,3,-7.64,-0.77,-0.53,-2.01,2.65,-5.41
8.381461024284363,2,3,3,3,-8.039999999999999,-0.76,-0.29,-2.76,1.86,-4.6
8.39146101474762,2,3,3,3,-8.880000000000001,-1.23,-0.14,-4.79,-0.8100000000000001,-2.54
8.401461005210876,2,3,3,3,-9.24,-1.44,0.22,-5.85,-2.5,-1.59
8.411460995674133,2,3,3,3,-9.300000000000001,-1.31,-0.74,-6.03,-3.63,-0.79
8.42146098613739,2,3,3,3,-9.24,-1.37,-0.76,-6.03,-3.63,-0.79
8.431460976600647,2,3,3,3,-8.73,-1.44,-1.66,-5.29,-3.49,-0.63
8.441460967063904,2,3,3,3,-8.73,-1.33,-1.4,-4.35,-2.8,-0.63
8.451460957527161,2,3,3,3,-8.65,-1.11,-1.05,-3.03,-1.54,-0.74
8.461460947990417,2,3,3,3,-8.859999999999999,-0.96,-0.88,-0.8100000000000001,0.22,-1.22
8.471460938453674,2,3,3,3,-9.630000000000001,-0.71,-0.6899999999999999,-0.8100000000000001,0.22,-1.22
8.481460928916931,2,3,3,3,-10.08,-0.74,-0.83,-0.09,0.62,-1.4
8.491460919380188,2,3,3,3,-10.28,-0.8100000000000001,-0.89,0.4,0.71,-1.38
8.501460909843445,2,3,3,3,-10.06,-0.8,-0.71,0.92,0.35,-0.6899999999999999
8.511460900306702,2,3,3,3,-9.779999999999999,-0.77,-0.64,1.02,0.45,-0.4
8.521460890769958,2,3,3,3,-9.52,-0.7,-0.63,1.02,0.45,-0.4
8.531460881233215,2,3,3,3,-9.24,-0.72,-0.5600000000000001,1.17,0.76,-0.28
8.541460871696472,2,3,3,3,-8.85,-0.73,-0.73,1.4,0.92,-0.12
8.551460862159729,2,3,3,3,-8.94,-0.63,-0.77,1.87,1.26,0.31
8.561461091041565,2,3,3,3,-9.140000000000001,-0.7,-0.71,2.08,1.47,0.39
8.571461081504822,2,3,3,3,-9.359999999999999,-0.68,-0.52,2.08,1.47,0.39
8.581461071968079,2,3,3,3,-9.56,-0.47,-0.4,1.77,1.36,0.4
8.591461062431335,2,3,3,3,-9.56,-0.51,-0.49,-0.18,0.23,0.06
8.601461052894592,2,3,3,3,-9.58,-0.73,-0.55,-0.18,0.23,0.06
8.611461043357849,2,3,3,3,-9.58,-1.03,-0.45,-2.09,-0.84,0.13
8.621461033821106,2,3,3,3,-9.57,-1.46,-0.6899999999999999,-2.09,-0.84,0.13
8.631461024284363,2,3,3,3,-9.59,-1.64,-0.84,-2.84,-1.2,0.3
8.64146101474762,2,3,3,3,-9.67,-1.79,-0.82,-2.98,-1.05,0.59
8.651461005210876,2,3,3,3,-9.69,-1.89,-0.64,-2.53,-0.96,0.67
8.661460995674133,2,3,3,3,-9.949999999999999,-2.17,-0.27,-1.96,-0.78,0.68
8.67146098613739,2,3,3,3,-10.12,-2.16,-0.15,-1.96,-0.78,0.68
8.681460976600647,2,3,3,3,-10.11,-1.98,-0.77,-1.75,-0.55,0.55
8.691460967063904,2,3,3,3,-9.789999999999999,-1.78,-0.92,0.06,0.04,0.67
8.701460957527161,2,3,3,3,-9.640000000000001,-1.75,-0.93,0.06,0.04,0.67
8.711460947990417,2,3,3,3,-9.5,-1.76,-0.95,1.79,0.5600000000000001,0.92
8.721460938453674,2,3,3,3,-9.44,-1.81,-0.9399999999999999,1.79,0.5600000000000001,0.92
8.731460928916931,2,3,3,3,-9.5,-1.77,-0.85,2.59,0.6,1.04
8.741460919380188,2,3,3,3,-9.449999999999999,-1.67,-0.75,4.19,0.4,1.25
8.752461075782776,2,3,3,3,-9.41,-1.61,-0.73,4.19,0.4,1.25
8.761460900306702,2,3,3,3,-9.390000000000001,-1.54,-0.76,5.55,0.17,1.16
8.771460890769958,2,3,3,3,-9.539999999999999,-1.26,-0.62,5.55,0.17,1.16
8.781460881233215,2,3,3,3,-9.74,-1.12,-0.44,5.79,0.18,0.84
8.791460871696472,2,3,3,3,-9.75,-0.96,-0.57,5.53,0.13,0.45
8.801460862159729,2,3,3,3,-9.779999999999999,-0.84,-0.55,4.17,0.36,-0.31
8.811461091041565,2,3,3,3,-9.779999999999999,-0.84,-0.52,3.41,0.65,-0.73
8.821461081504822,2,3,3,3,-9.789999999999999,-0.86,-0.62,3.41,0.65,-0.73
8.831461071968079,2,3,3,3,-9.85,-1.01,-0.7,2.65,0.68,-1.03
8.841461062431335,2,3,3,3,-10,-1.23,-0.59,2.08,0.65,-1.27
8.851461052894592,2,3,3,3,-9.65,-1.6,-0.28,1.58,0.48,-1.45
8.861461043357849,2,3,3,3,-9.630000000000001,-1.75,-0.59,1.07,0.33,-1.5
8.871461033821106,2,3,3,3,-9.640000000000001,-1.81,-0.8100000000000001,1.07,0.33,-1.5
8.881461024284363,2,3,3,3,-9.73,-1.88,-1.01,1.31,0.01,-1.21
8.89146101474762,2,3,3,3,-9.800000000000001,-1.95,-0.96,1.76,-0.27,-0.82
8.901461005210876,2,3,3,3,-9.73,-1.86,-0.66,2.28,-0.55,-0.3
8.911460995674133,2,3,3,3,-9.67,-1.69,-0.57,3.1,-0.59,0.5
8.92146098613739,2,3,3,3,-9.35,-1.43,-0.85,3.1,-0.59,0.5
8.931460976600647,2,3,3,3,-9.57,-1.26,-0.9,3.39,-0.63,0.83
8.941460967063904,2,3,3,3,-9.52,-1.14,-0.76,3.62,-0.47,0.99
8.951460957527161,2,3,3,3,-9.58,-1.13,-0.65,3.55,-0.41,0.83
8.961460947990417,2,3,3,3,-10.04,-1.19,-0.5600000000000001,3.1,-0.55,0.71
8.972460865974426,2,3,3,3,-10.12,-1.11,-0.6,3.1,-0.55,0.71
8.982460856437683,2,3,3,3,-9.859999999999999,-1,-0.6899999999999999,2.59,-0.79,0.57
8.992461085319519,2,3,3,3,-9.890000000000001,-1.12,-0.82,2.45,-0.95,0.44
9.002461075782776,2,3,3,3,-9.44,-0.7,-0.52,2.26,-0.91,0.26
9.012461066246033,2,3,3,3,-9.529999999999999,-0.74,-0.5600000000000001,2.28,-0.74,0.12
9.02246105670929,2,3,3,3,-9.23,-0.7,-0.44,2.28,-0.74,0.12
9.032461047172546,2,3,3,3,-9.41,-0.74,-0.53,2.12,-0.51,0.01
9.042461037635803,2,3,3,3,-9.6,-0.83,-0.44,1.86,-0.34,-0.12
9.05246102809906,2,3,3,3,-9.710000000000001,-0.96,-0.5600000000000001,0.85,-0.22,-0.47
9.062461018562317,2,3,3,3,-9.84,-1,-0.66,0.35,-0.22,-0.59
9.072461009025574,2,3,3,3,-9.92,-1.05,-0.5,0.35,-0.22,-0.59
9.082460999488831,2,3,3,3,-9.710000000000001,-1.17,-0.48,-0.07000000000000001,-0.18,-0.74
9.092460989952087,2,3,3,3,-9.81,-1.26,-0.49,-0.08,-0.05,-0.7
9.102460980415344,2,3,3,3,-9.84,-1.25,-0.59,0.2,0.4,-0.8
9.112460970878601,2,3,3,3,-9.94,-1.28,-0.5,0.47,0.54,-0.87
9.122460961341858,2,3,3,3,-9.890000000000001,-1.34,-0.48,0.47,0.54,-0.87
9.132460951805115,2,3,3,3,-9.789999999999999,-1.37,-0.49,0.85,0.5,-0.8100000000000001
9.142460942268372,2,3,3,3,-9.720000000000001,-1.43,-0.46,1.1,0.29,-0.64
9.152460932731628,2,3,3,3,-9.619999999999999,-1.33,-0.14,1.21,0.07000000000000001,-0.47
9.162460923194885,2,3,3,3,-9.49,-1.23,-0.03,1.3,-0.41,-0.11
9.172460913658142,2,3,3,3,-9.33,-1.21,-0.06,1.3,-0.41,-0.11
9.182460904121399,2,3,3,3,-9.24,-1.16,-0.1,1.33,-0.58,0.1
9.192460894584656,2,3,3,3,-9.23,-1.01,-0.06,1.15,-0.49,0.14
9.202460885047913,2,3,3,3,-9.210000000000001,-0.98,-0.22,0.83,-0.36,0.16
9.212460875511169,2,3,3,3,-9.289999999999999,-0.84,-0.32,-0.07000000000000001,-0.27,-0.04
9.222460865974426,2,3,3,3,-9.44,-0.8,-0.23,-0.07000000000000001,-0.27,-0.04
9.232460856437683,2,3,3,3,-9.73,-0.93,-0.37,-0.54,-0.29,-0.11
9.242461085319519,2,3,3,3,-9.83,-1,-0.45,-0.91,-0.32,-0.17
9.252461075782776,2,3,3,3,-9.970000000000001,-1.04,-0.42,-1.14,-0.38,-0.2
9.262461066246033,2,3,3,3,-9.949999999999999,-1.12,-0.32,-1.41,-0.29,-0.41
9.27246105670929,2,3,3,3,-9.99,-1.23,-0.28,-1.41,-0.29,-0.41
9.282461047172546,2,3,3,3,-10.03,-1.31,-0.31,-1.44,-0.09,-0.58
9.292461037635803,2,3,3,3,-10.03,-1.37,-0.13,-1.38,0.15,-0.72
9.30246102809906,2,3,3,3,-9.98,-1.36,-0.1,-1.4,0.32,-0.86
9.312461018562317,2,3,3,3,-9.77,-1.42,-0.23,-1.34,0.38,-1.14
9.322461009025574,2,3,3,3,-9.65,-1.46,-0.16,-1.34,0.38,-1.14
9.332460999488831,2,3,3,3,-9.56,-1.51,-0.25,-1.32,0.44,-1.22
9.342460989952087,2,3,3,3,-9.449999999999999,-1.52,-0.22,-1.31,0.51,-1.26
9.352460980415344,2,3,3,3,-9.460000000000001,-1.74,-0.18,-1.27,0.42,-1.19
9.372460961341858,2,3,3,3,-9.630000000000001,-1.87,-0.45,-0.98,0.16,-0.82
9.382460951805115,2,3,3,3,-9.66,-1.8,-0.52,-0.73,-0.02,-0.61
9.392460942268372,2,3,3,3,-9.619999999999999,-1.75,-0.21,-0.3,-0.02,-0.45
9.402460932731628,2,3,3,3,-9.6,-1.63,0.01,0.06,0.01,-0.28
9.412460923194885,2,3,3,3,-9.52,-1.56,0.19,0.28,-0.18,-0.03
9.422460913658142,2,3,3,3,-9.52,-1.41,0.29,0.28,-0.18,-0.03
9.432460904121399,2,3,3,3,-9.550000000000001,-1.38,0.08,0.15,-0.32,0.12
9.442460894584656,2,3,3,3,-9.640000000000001,-1.38,-0.15,0.08,-0.5,0.23
9.452460885047913,2,3,3,3,-9.789999999999999,-1.29,-0.18,-0.02,-0.68,0.28
9.462460875511169,2,3,3,3,-9.91,-1.14,-0.21,-0.22,-0.62,0.22
9.472460865974426,2,3,3,3,-9.869999999999999,-1.14,-0.04,-0.22,-0.62,0.22
9.482460856437683,2,3,3,3,-9.789999999999999,-1.14,-0.03,-0.1,-0.62,0.24
9.492461085319519,2,3,3,3,-9.630000000000001,-1.05,-0.13,-0.22,-0.65,0.23
9.502461075782776,2,3,3,3,-9.619999999999999,-1.03,-0.06,-0.45,-0.68,0.15
9.512461066246033,2,3,3,3,-9.65,-1.11,-0.05,-1.41,-0.53,-0.18
9.52246105670929,2,3,3,3,-9.720000000000001,-1.21,-0.11,-1.41,-0.53,-0.18
9.532461047172546,2,3,3,3,-9.859999999999999,-1.43,-0.38,-1.86,-0.49,-0.32
9.542461037635803,2,3,3,3,-9.91,-1.51,-0.36,-1.99,-0.49,-0.28
9.55246102809906,2,3,3,3,-9.92,-1.59,-0.33,-1.95,-0.51,-0.22
9.562461018562317,2,3,3,3,-9.94,-1.72,-0.22,-1.45,-0.82,0.01
9.572461009025574,2,3,3,3,-10,-1.83,0.4,-1.45,-0.82,0.01
9.582460999488831,2,3,3,3,-10.04,-1.74,0.27,-1.52,-1.13,0.12
9.592460989952087,2,3,3,3,-10.1,-1.81,0.22,-1.71,-1.35,0.29
9.602460980415344,2,3,3,3,-10.13,-1.92,0.17,-1.65,-1.76,0.5
9.612460970878601,2,3,3,3,-10.18,-2.23,0.35,-1.17,-2.68,1.01
9.622460961341858,2,3,3,3,-10.26,-2.48,0.26,-1.17,-2.68,1.01
9.632460951805115,2,3,3,3,-10.21,-2.59,-0.05,-1.08,-3.62,1.16
9.642460942268372,2,3,3,3,-10.07,-2.69,-0.17,-1.41,-4.84,1.14
9.652460932731628,2,3,3,3,-9.31,-2.5,-0.59,-1.6,-5.76,0.99
9.662460923194885,2,3,3,3,-9.199999999999999,-2.19,-0.49,-0.85,-5.43,1.08
9.672460913658142,2,3,3,3,-9.19,-2,0.07000000000000001,-0.85,-5.43,1.08
9.682460904121399,2,3,3,3,-9.26,-1.78,0.66,0.84,-4.96,1.52
9.692460894584656,2,3,3,3,-9.91,-1.33,2.72,2.34,-4.58,2
9.702460885047913,2,3,3,3,-10.23,-1.15,2.61,3.15,-4.3,2.59
9.712460875511169,2,3,3,3,-10.14,-0.95,1.55,1.73,-4.07,2.76
9.722460865974426,2,3,3,3,-10.53,-0.5,0.86,1.73,-4.07,2.76
9.732460856437683,2,3,3,3,-10.71,-0.18,0.71,1.22,-3.74,2.62
9.742461085319519,2,3,3,3,-10.77,0,0.86,0.87,-3.54,2.38
9.752461075782776,2,3,3,3,-10.65,-0.06,1.27,0.67,-3.48,2.16
9.762461066246033,2,3,3,3,-9.789999999999999,-0.13,1.1,-0.36,-4.13,1.76
9.77246105670929,2,3,3,3,-9.75,-0.06,1.09,-0.36,-4.13,1.76
9.782461047172546,2,3,3,3,-9.65,-0.06,1.15,-0.97,-4.23,1.73
9.792461037635803,2,3,3,3,-9.58,-0.06,1.34,-1.42,-4.28,1.66
9.80246102809906,2,3,3,3,-9.470000000000001,-0.1,1.48,-1.78,-4.21,1.7
9.812461018562317,2,3,3,3,-9.51,-0.11,1.59,-2.63,-4.03,1.66
9.822461009025574,2,3,3,3,-9.51,-0.19,1.64,-2.63,-4.03,1.66
9.832460999488831,2,3,3,3,-9.35,-0.05,1.49,-2.91,-3.96,1.63
9.842460989952087,2,3,3,3,-9.109999999999999,0.02,1.43,-3.29,-3.94,1.59
9.852460980415344,2,3,3,3,-9,-0.01,1.42,-3.62,-3.84,1.46
9.862460970878601,2,3,3,3,-8.93,-0.08,1.37,-4.24,-3.59,1.43
9.872460961341858,2,3,3,3,-8.82,-0.09,1.29,-4.24,-3.59,1.43
9.882460951805115,2,3,3,3,-8.68,-0.02,1.35,-4.48,-3.52,1.47
9.892460942268372,2,3,3,3,-8.68,-0.08,1.5,-4.54,-3.42,1.59
9.902460932731628,2,3,3,3,-8.75,-0.21,1.7,-4.64,-3.1,1.53
9.912460923194885,2,3,3,3,-9.119999999999999,-0.23,2.08,-4.69,-2.49,1.62
9.922460913658142,2,3,3,3,-9.390000000000001,-0.14,2.07,-4.69,-2.49,1.62
9.932460904121399,2,3,3,3,-9.57,-0.05,1.85,-4.54,-2.29,1.67
9.942460894584656,2,3,3,3,-9.75,-0.19,1.83,-4.18,-2.32,1.8
9.952460885047913,2,3,3,3,-10.01,-0.44,1.52,-4.19,-2.26,1.62
9.962460875511169,2,3,3,3,-10.24,-0.59,1.95,-4.59,-2.33,1.06
9.972460865974426,2,3,3,3,-10.11,-0.72,1.45,-4.59,-2.33,1.06
9.982460856437683,2,3,3,3,-10.1,-0.6,0.83,-4.81,-2.43,0.8
9.992461085319519,2,3,3,3,-9.76,-0.31,1.23,-4.44,-2.71,0.53
10.00346100330353,2,3,3,3,-9.550000000000001,-0.19,1.45,-3.65,-2.7,0.33
10.01346099376678,2,3,3,3,-9.460000000000001,-0.03,1.62,-2.34,-1.94,0.07000000000000001
10.02346098423004,2,3,3,3,-9.27,0.12,1.81,-2.34,-1.94,0.07000000000000001
10.0334609746933,2,3,3,3,-9.06,0.13,1.94,-2.2,-1.75,-0.17
10.04346096515656,2,3,3,3,-8.99,0.2,2,-2.58,-1.68,-0.49
10.05346095561981,2,3,3,3,-9.01,0.24,2.15,-3.07,-1.51,-0.74
10.06346094608307,2,3,3,3,-9.06,0.41,2.04,-3.83,-1.46,-1.03
10.07346093654633,2,3,3,3,-8.92,0.84,1.85,-3.83,-1.46,-1.03
10.08346092700958,2,3,3,3,-8.859999999999999,0.96,1.74,-4.53,-1.66,-1.07
10.09346091747284,2,3,3,3,-8.83,0.9,1.99,-5.4,-1.82,-1.07
10.1034609079361,2,3,3,3,-8.789999999999999,0.57,2.51,-6.07,-1.88,-0.9399999999999999
10.11346089839935,2,3,3,3,-8.800000000000001,0.38,2.68,-6.57,-1.92,-0.14
10.12346088886261,2,3,3,3,-8.890000000000001,0.22,2.65,-6.57,-1.92,-0.14
10.13346087932587,2,3,3,3,-8.98,0.1,2.56,-6.54,-1.74,0.38
10.14346086978912,2,3,3,3,-9.43,-0.07000000000000001,2.85,-5.99,-1.41,0.84
10.15346086025238,2,3,3,3,-9.67,-0.09,3.07,-4.98,-1,1.19
10.16346108913422,2,3,3,3,-9.75,0.13,3.1,-3.44,-0.8100000000000001,1.48
10.17346107959747,2,3,3,3,-9.69,0.41,3.06,-3.44,-0.8100000000000001,1.48
10.18346107006073,2,3,3,3,-9.83,0.83,2.96,-2.8,-0.66,1.35
10.19346106052399,2,3,3,3,-9.76,0.91,2.99,-2.31,-0.43,1.24
10.20346105098724,2,3,3,3,-9.65,0.95,2.99,-2.31,-0.29,0.98
10.2134610414505,2,3,3,3,-9.460000000000001,0.82,2.97,-2.71,0.09,0.51
10.24346101284027,2,3,3,3,-9.039999999999999,0.73,3,-2.87,0.76,0.33
10.25346100330353,2,3,3,3,-9.07,0.5600000000000001,3.17,-3,1.08,0.44
10.26346099376678,2,3,3,3,-9.279999999999999,0.31,3.14,-3.38,1.61,1.01
10.27346098423004,2,3,3,3,-9.539999999999999,0.17,3.35,-3.38,1.61,1.01
10.2834609746933,2,3,3,3,-9.869999999999999,0.02,3.45,-3.39,2.13,1.21
10.29346096515656,2,3,3,3,-10.56,-0.06,3.34,-3.28,2.73,1.54
10.30346095561981,2,3,3,3,-10.68,-0.45,3.24,-2.78,2.49,2.06
10.31346094608307,2,3,3,3,-10.82,-0.98,2.97,-2.11,1.76,2.47
10.32346093654633,2,3,3,3,-11.2,-1.39,2.63,-2.11,1.76,2.47
10.33346092700958,2,3,3,3,-12.79,-2.17,2.63,-2.86,2.24,1.85
10.34346091747284,2,3,3,3,-13.6,-2.3,2.2,-3.61,2.95,0.7
10.3534609079361,2,3,3,3,-13.65,-1.85,1.55,-3.78,2.79,-0.07000000000000001
10.36346089839935,2,3,3,3,-13.27,-1.25,1.59,-0.93,-1.76,0.66
10.37346088886261,2,3,3,3,-11,-0.67,3.81,-0.93,-1.76,0.66
10.38346087932587,2,3,3,3,-9.75,-0.59,3.87,1.87,-2.69,1.48
10.39346086978912,2,3,3,3,-8.529999999999999,-0.53,3.28,4.38,-2.33,2.17
10.40346086025238,2,3,3,3,-7.67,-0.5600000000000001,3.3,5.72,-1.65,2.75
10.41346108913422,2,3,3,3,-7.57,-0.71,1.87,6.3,1.56,3.34
10.42346107959747,2,3,3,3,-7.77,-1.12,1.81,6.3,1.56,3.34
10.43346107006073,2,3,3,3,-8.27,-0.93,1.34,6.11,2.8,3.26
10.44346106052399,2,3,3,3,-8.27,-0.87,0.5,4.7,3.71,2.85
10.45346105098724,2,3,3,3,-9.23,-1.23,-1.23,4.7,4.6,2.42
10.4634610414505,2,3,3,3,-10.68,-1.62,-1.62,4.97,7.37,0.7
10.47346103191376,2,3,3,3,-12.07,-1.96,-1.7,4.97,7.37,0.7
10.48346102237701,2,3,3,3,-11.99,-2.17,-1.28,5.55,7.58,-0.08
10.49346101284027,2,3,3,3,-11.31,-2.26,-1.07,6.81,6.91,-0.82
10.50346100330353,2,3,3,3,-10.56,-2.21,-0.28,7.72,6.47,-1.71
10.51346099376678,2,3,3,3,-9.85,-1.92,0.03,7.5,5.56,-2.11
10.52346098423004,2,3,3,3,-8.289999999999999,-1.61,-0.64,7.5,5.56,-2.11
10.5334609746933,2,3,3,3,-8.16,-1.37,-0.57,7.84,5.5,-1.88
10.54346096515656,2,3,3,3,-8.06,-1.2,-0.71,7.55,5.72,-1.83
10.55346095561981,2,3,3,3,-8.109999999999999,-1.02,-0.61,7.44,6.13,-1.85
10.56346094608307,2,3,3,3,-8.42,-1.05,-0.6,5.85,6.4,-2.18
10.57346093654633,2,3,3,3,-8.619999999999999,-1.15,-0.73,5.85,6.4,-2.18
10.58346092700958,2,3,3,3,-8.859999999999999,-1.25,-1.13,5.09,6.42,-2.34
10.59346091747284,2,3,3,3,-9.15,-1.28,-1.28,4.66,6.54,-2.41
10.6034609079361,2,3,3,3,-9.52,-1.33,-1.05,4.51,6.74,-2.41
10.61346089839935,2,3,3,2,-9.449999999999999,-1.31,-1.02,4.45,6.97,-2.6
10.62346088886261,2,3,3,2,-9.25,-1.46,-0.74,4.45,6.97,-2.6
10.63346087932587,2,3,3,2,-9.140000000000001,-1.49,-0.78,4.7,6.86,-2.43
10.64346086978912,2,3,3,2,-8.789999999999999,-1.3,-0.96,4.85,6.68,-2.1
10.65346086025238,2,3,3,2,-8.77,-1.21,-0.67,5.04,6.52,-1.92
10.66346108913422,2,3,3,2,-8.5,-1.12,-0.73,5.46,6.06,-2.03
10.67346107959747,2,3,3,2,-8.19,-1.4,-1.05,5.46,6.06,-2.03
10.68346107006073,2,3,3,2,-8.109999999999999,-1.74,-1.11,5.73,6.04,-2.18
10.69346106052399,2,3,3,2,-8.31,-2.07,-1.19,6.15,6.36,-2.45
10.70346105098724,2,3,3,2,-8.630000000000001,-2.28,-1.35,6.44,6.69,-2.77
10.7134610414505,2,3,3,2,-9.9,-1.86,-1.62,8.369999999999999,6.4,-2.31
10.72346103191376,2,3,3,2,-10.57,-1.51,-1.61,8.369999999999999,6.4,-2.31
10.73346102237701,2,3,3,2,-10.79,-0.95,-1.67,9.359999999999999,5.46,-1.72
10.74346101284027,2,3,3,2,-10.6,-0.37,-1.54,9.92,4.33,-0.97
10.75346100330353,2,3,3,2,-9.779999999999999,0.55,-1.05,10.08,3.25,-0.31
10.76346099376678,2,3,3,2,-9.34,0.92,-0.77,9.109999999999999,2.36,0.2
10.77346098423004,2,3,3,2,-8.949999999999999,1.1,-0.62,9.109999999999999,2.36,0.2
10.7834609746933,2,3,3,2,-8.779999999999999,1.08,-0.5,8.15,2.47,-0.03
10.79346096515656,2,3,3,2,-8.52,0.66,-0.5600000000000001,7.03,2.75,-0.48
10.80346095561981,2,3,3,2,-8.57,0.36,-0.62,5.5,3.02,-1.15
10.81346094608307,2,3,3,2,-8.65,0.08,-0.84,3,3.66,-2.28
10.82346093654633,2,3,3,2,-9.08,-0.05,-1.01,3,3.66,-2.28
10.83346092700958,2,3,3,2,-9.69,-0.04,-1.1,2.42,3.87,-2.74
10.84346091747284,2,3,3,2,-9.789999999999999,-0.01,-1.01,2.53,3.88,-3.2
10.8534609079361,2,3,3,2,-9.859999999999999,0.04,-0.9399999999999999,2.78,3.82,-3.67
10.86346089839935,2,3,3,2,-9.720000000000001,0.05,-0.77,3.36,3.59,-4.35
10.87346088886261,2,3,3,2,-9.57,0.04,-0.68,3.36,3.59,-4.35
10.88346087932587,2,3,3,2,-9.449999999999999,-0.12,-0.72,3.6,3.28,-4.58
10.89346086978912,2,3,3,2,-9.390000000000001,-0.27,-0.71,3.83,2.96,-4.81
10.90346086025238,2,3,3,2,-9.130000000000001,-0.88,-0.89,4.09,2.58,-5.17
10.91346108913422,2,3,3,2,-9.289999999999999,-1.27,-1.1,5.5,2.22,-5.04
10.92346107959747,2,3,3,2,-9.25,-1.48,-1.47,5.5,2.22,-5.04
10.93346107006073,2,3,3,2,-9.23,-1.54,-1.82,6.63,2.24,-4.69
10.94346106052399,2,3,3,2,-9.32,-1.35,-2.27,7.91,2.53,-4.17
10.95346105098724,2,3,3,2,-9.449999999999999,-1.02,-2.44,9.279999999999999,3.2,-3.55
10.9634610414505,2,3,3,2,-9.460000000000001,-0.39,-2.37,11.48,4.58,-2.27
10.97346103191376,2,3,3,2,-9.69,0.01,-2.11,11.48,4.58,-2.27
10.98346102237701,2,3,3,2,-10.04,0.73,-1.72,11.85,4.75,-1.58
10.99346101284027,2,3,3,2,-9.74,1.25,-1.73,11.65,4.44,-0.77
11.00346100330353,2,3,3,2,-10.15,1.42,-1.82,11.13,3.9,0
11.01346099376678,2,3,3,2,-10.66,1.58,-1.8,11.03,3.71,0.83
11.02446091175079,2,3,3,2,-11.99,1.3,-1.73,11.03,3.71,0.83
11.03446090221405,2,3,3,2,-12.47,1.21,-1.98,11.5,3.82,0.96
11.04446089267731,2,3,3,2,-12.88,1.15,-2.36,11.9,3.67,1.14
11.05446088314056,2,3,3,2,-13.46,0.67,-1.99,11.95,3.45,1.29
11.06446087360382,2,3,3,1,-13.36,0.46,-1.65,8.76,2.77,1.23
11.07446086406708,2,3,3,1,-13.02,0.36,-1.63,8.76,2.77,1.23
11.08446109294891,2,3,3,1,-12.67,0.12,-1.21,5.11,2.67,0.95
11.09446108341217,2,3,3,1,-12.21,-0.39,-1.03,1.09,2.69,0.89
11.10446107387543,2,3,3,1,-12.16,-0.76,-1.77,-2.98,2.79,1.19
11.11446106433868,2,3,3,0,-12.15,-1.06,-2.83,-10.42,3.12,2.3
11.12446105480194,2,3,3,0,-12.31,-1.45,-3.54,-10.42,3.12,2.3
11.1344610452652,2,3,3,0,-12.49,-3.06,-3.16,-13.23,3.02,2.81
11.14446103572845,2,3,3,0,-12.3,-3.9,-2.94,-14.58,2.5,3.28
11.15446102619171,2,3,3,0,-11.71,-4.35,-2.69,-14.99,1.34,3.83
11.16446101665497,2,3,3,0,-11,-4.69,-2.4,-13.05,-2.33,5.46
11.17446100711823,2,3,3,0,-9.56,-5.06,-1.93,-13.05,-2.33,5.46
11.18446099758148,2,3,3,0,-9.050000000000001,-4.91,-1.69,-11.25,-4.08,6.5
11.19446098804474,2,3,3,0,-8.390000000000001,-4.69,-1.15,-8.49,-5.48,7.88
11.204460978508,2,3,3,0,-8.23,-4.2,-0.8,-4.66,-6.53,9.470000000000001
11.21446096897125,2,3,3,0,-8.390000000000001,-2.84,-0.9,2.92,-6.9,11.92
11.22446095943451,2,3,3,0,-8.99,-2.07,-0.88,2.92,-6.9,11.92
11.23446094989777,2,3,3,0,-9.699999999999999,-1.35,-0.61,5.23,-6.4,12.32
11.24446094036102,2,3,3,0,-10.62,-0.35,-0.32,6.38,-6.19,12.18
11.25446093082428,2,3,3,0,-10.68,-0.04,-0.42,6.06,-6.07,11.47
11.26446092128754,2,3,3,0,-10.65,0.33,-0.38,1.58,-5.51,8.67
11.27446091175079,2,3,3,0,-10.33,0.45,-0.27,1.58,-5.51,8.67
11.28446090221405,2,3,3,0,-9.27,-0.25,-0.34,-1.46,-5.3,6.94
11.29446089267731,2,3,3,0,-8.869999999999999,-0.51,-0.36,-4.65,-5.54,5.32
11.30446088314056,2,3,3,0,-8.789999999999999,-0.57,-0.47,-7.54,-6.15,4.22
11.31446087360382,2,3,3,0,-8.51,-0.61,-0.47,-11.65,-7.68,3.27
11.32446086406708,2,3,3,0,-8.44,-0.17,-0.53,-11.65,-7.68,3.27
11.33446109294891,2,3,3,0,-8.57,0.08,-0.5,-12.63,-8.390000000000001,3.23
11.34446108341217,2,3,3,0,-8.630000000000001,0.26,-0.27,-13.29,-9.08,3.38
11.35446107387543,2,3,3,0,-8.699999999999999,0.46,-0.03,-13.74,-9.67,3.61
11.36446106433868,2,3,3,0,-8.48,0,0.42,-13.73,-10.31,3.5
11.37446105480194,2,3,3,0,-8.33,-0.21,0.6,-13.73,-10.31,3.5
11.3844610452652,2,3,3,0,-8.18,-0.36,0.75,-13.88,-10.35,3.41
11.39446103572845,2,3,3,0,-8.18,-0.49,0.89,-13.75,-10.01,3.41
11.40446102619171,2,3,3,0,-8.199999999999999,-0.75,1.01,-13.66,-9.449999999999999,3.47
11.41446101665497,2,3,3,0,-8.34,-0.73,0.66,-14.27,-9.24,3.18
11.42446100711823,2,3,3,0,-8.35,-0.59,0.41,-14.27,-9.24,3.18
11.43446099758148,2,3,3,0,-8.41,-0.27,0.05,-15.04,-9.289999999999999,2.74
11.44446098804474,2,3,3,0,-8.869999999999999,0.06,0.35,-15.26,-8.9,2.31
11.454460978508,2,3,3,0,-8.98,0.09,0.63,-14.9,-8.109999999999999,1.8
11.46446096897125,2,3,3,0,-9.029999999999999,0,0.59,-13.54,-6.63,-0.02
11.47446095943451,2,3,3,0,-8.710000000000001,-0.11,0.6899999999999999,-13.54,-6.63,-0.02
11.48446094989777,2,3,3,0,-8.449999999999999,-0.05,0.64,-12.62,-5.84,-0.67
11.49446094036102,2,3,3,0,-8.199999999999999,-0.08,0.91,-11.31,-4.99,-1.21
11.50446093082428,2,3,3,0,-7.91,0,1.12,-9.83,-4,-1.62
11.51446092128754,2,3,3,0,-7.65,0.62,1.38,-6.69,-1.39,-2.51
11.52446091175079,2,3,3,0,-7.48,0.96,1.43,-6.69,-1.39,-2.51
11.53446090221405,2,3,3,0,-7.47,1.17,1.45,-5.63,0.11,-2.87
11.54446089267731,2,3,3,0,-7.4,1.36,1.5,-4.68,1.68,-3.14
11.55446088314056,2,3,3,0,-7.6,1.57,1.96,-4.08,3.04,-3.36
11.56446087360382,2,3,3,0,-7.83,1.57,2.55,-2.78,5.21,-3.11
11.57446086406708,2,3,3,0,-8.1,1.48,3.38,-2.78,5.21,-3.11
11.58446109294891,2,3,3,0,-8.039999999999999,1.41,3.14,-2.79,5.8,-2.91
11.59446108341217,2,3,3,0,-8.119999999999999,1.12,1.85,-3.59,6.08,-2.68
11.60446107387543,2,3,3,0,-7.96,0.64,1.55,-3.43,5.73,-2.13
11.61446106433868,2,3,3,0,-7.96,0.64,1.55,-4.68,5.51,-1.4
11.62446105480194,2,3,3,0,-7.88,-0.57,0.6899999999999999,-4.68,5.51,-1.4
11.6344610452652,2,3,3,0,-9.949999999999999,-0.87,-1.04,-8,6.07,-1.9
11.64446103572845,2,3,3,0,-11.2,-0.55,-0.71,-11.55,6.07,-2.28
11.65446102619171,2,3,3,0,-12.75,-0.06,-0.11,-12.81,4.73,-1.72
11.68446099758148,2,3,3,0,-14.54,2.65,4.09,-6.77,-3.11,3.06
11.69446098804474,2,3,3,0,-14.14,2.8,3.94,-2.41,-7.1,5.56
11.704460978508,2,3,3,0,-12.2,2,3.39,-2.18,-8.34,5.83
11.71446096897125,2,3,3,0,-11.45,1.76,2.75,-4.58,-8.289999999999999,5.02
11.72446095943451,2,3,3,0,-10.84,1.52,3.69,-4.58,-8.289999999999999,5.02
11.73446094989777,2,3,3,0,-10.75,0.54,4.43,-8.33,-6.54,3.28
11.74446094036102,2,3,3,0,-11.9,-1.09,2.52,-9.81,-3.76,1.77
11.75446093082428,2,3,3,0,-13.5,-2.22,0.6899999999999999,-8.699999999999999,-2.97,0.54
11.76446092128754,2,3,3,0,-13.5,-2.22,0.6899999999999999,-6.46,-3.58,-0.37
11.77446091175079,2,3,3,0,-16.91,-2.44,2.49,-6.46,-3.58,-0.37
11.78446090221405,2,3,3,0,-14.85,-3.24,0.35,-2.39,-3.95,-1.29
11.79446089267731,2,3,3,0,-12.35,-3.7,0.88,6.24,-7.08,-0.65
11.80446088314056,2,3,3,0,-10.43,-4.08,0.37,8.31,-6.6,0.33
11.81446087360382,2,3,3,0,-8.949999999999999,-3.67,0.2,8.76,-5.09,1.18
11.82446086406708,2,3,3,0,-7.4,-2.09,-0.25,8.76,-5.09,1.18
11.83446109294891,2,3,3,0,-7.28,-1.83,-1.23,8.630000000000001,-2.73,1.62
11.84446108341217,2,3,3,0,-7.16,-1.73,-1.36,9.619999999999999,-0.44,1.65
11.85446107387543,2,3,3,0,-7.62,-0.78,-1.56,10.34,1.72,0.9
11.86446106433868,2,3,3,0,-7.98,-0.74,-1.6,9.59,5.96,-2.53
11.87446105480194,2,3,3,0,-8.91,-0.88,-1.54,9.59,5.96,-2.53
11.8844610452652,2,3,3,0,-10.01,-1.41,-1.52,8.5,7.43,-4.28
11.89446103572845,2,3,3,0,-9.720000000000001,-2.27,-0.66,5.35,5.81,-6.17
11.90446102619171,2,3,3,0,-9.09,-2.52,-0.45,4.48,4.95,-6.3
11.91446101665497,2,3,3,0,-9.09,-2.52,-0.45,4.48,4.95,-6.3
11.92446100711823,2,3,3,0,-8.31,-2.65,-0.57,4.51,5.35,-6.01
11.93446099758148,2,3,3,0,-7.13,-2.04,-0.54,5.09,6.27,-5.52
11.94446098804474,2,3,3,0,-6.91,-1.7,-0.54,6.32,7.53,-4.89
11.954460978508,2,3,3,0,-6.97,-1.21,-0.5600000000000001,7.36,8.710000000000001,-4.25
11.96446096897125,2,3,3,0,-6.97,-1.21,-0.5600000000000001,8.1,9.15,-3.03
11.97446095943451,2,3,3,0,-6.78,-0.88,-0.4,8.1,9.15,-3.03
11.98446094989777,2,3,3,0,-7.06,-1.47,-1.12,8.19,9,-2.44
11.99446094036102,2,3,3,0,-7.57,-1.43,-1.15,8.970000000000001,9.18,-1.48
12.00446093082428,2,3,3,0,-8.359999999999999,-1.35,-1.13,9.17,9.390000000000001,-1.37
12.01446092128754,2,3,3,0,-8.359999999999999,-1.35,-1.13,9.470000000000001,9.58,-1.62
12.02446091175079,2,3,3,0,-9.449999999999999,-1.32,-1.24,9.470000000000001,9.58,-1.62
12.03446090221405,2,3,3,0,-9.93,-1.17,-1.29,9.720000000000001,9.609999999999999,-1.92
12.04546105861664,2,3,3,0,-9.4,-0.57,-1.03,9.67,8.199999999999999,-2.13
12.0554610490799,2,3,3,0,-9.050000000000001,-0.48,-0.8100000000000001,9.41,7.22,-2.13
12.06546103954315,2,3,3,0,-9.050000000000001,-0.48,-0.8100000000000001,9.279999999999999,6.52,-2.21
12.07546103000641,2,3,3,0,-8.66,-0.3,-0.7,9.279999999999999,6.52,-2.21
12.08546102046967,2,3,3,0,-8.630000000000001,-0.25,-1.07,9.16,6.42,-2.69
12.09546101093292,2,3,3,0,-9.130000000000001,-0.3,-1.05,9.289999999999999,6.7,-3.3
12.10546100139618,2,3,3,0,-9.56,-0.38,-1.47,9.52,7.25,-4
12.11546099185944,2,3,3,0,-9.56,-0.38,-1.47,9.74,7.25,-5.1
12.12546098232269,2,3,3,0,-9.94,-0.42,-1.4,9.74,7.25,-5.1
12.13546097278595,2,3,3,0,-9.76,0.21,-1.39,9.44,6.53,-5.22
12.14546096324921,2,3,3,0,-9.33,0.5600000000000001,-1.55,7.99,4.42,-4.6
12.15546095371246,2,3,3,0,-9.06,0.73,-1.35,7.27,3.54,-4.15
12.16546094417572,2,3,3,0,-9.06,0.73,-1.35,7.27,3.54,-4.15
12.17546093463898,2,3,3,0,-8.42,1.02,-1,6.4,2.89,-4.05
12.18546092510223,2,3,3,0,-8.75,0.76,-0.92,5.5,2.6,-4.1
12.19546091556549,2,3,3,0,-9.130000000000001,0.62,-1.28,4.39,2.32,-4.64
12.20546090602875,2,3,3,0,-9.69,0.26,-1.32,4.39,2.32,-4.64
12.215460896492,2,3,3,0,-9.69,0.26,-1.32,4.39,2.32,-4.64
12.22546088695526,2,3,3,0,-9.84,0.09,-1.22,4.9,1.97,-5.66
12.23546087741852,2,3,3,0,-9.52,-0.6,-1.22,5.93,1.47,-6.72
12.24546086788177,2,3,3,0,-9.17,-1.02,-1.48,7.02,1.53,-6.87
12.25546085834503,2,3,3,0,-8.94,-1.48,-1.91,8.859999999999999,2.08,-6.5
12.26546108722687,2,3,3,0,-8.94,-1.48,-1.91,8.859999999999999,2.08,-6.5
12.27546107769012,2,3,3,0,-9.02,-1.62,-2.29,10.93,2.87,-5.63
12.28546106815338,2,3,3,0,-9.23,0.49,-1.68,12.16,3.3,-4.62
12.29546105861664,2,3,3,0,-9.41,0.97,-1.26,10.41,2.9,-2.02
12.3054610490799,2,3,3,0,-9.76,0.95,-0.73,8.98,2.87,-0.45
12.31546103954315,2,3,3,0,-9.76,0.95,-0.73,8.98,2.87,-0.45
12.32546103000641,2,3,3,0,-11.13,0.24,-1.23,7.99,3.41,1.06
12.33546102046967,2,3,3,0,-12.47,-0.21,-2.24,8.109999999999999,4.12,2.29
12.34546101093292,2,3,3,0,-12.49,0.1,-2.5,9.69,4.65,3.13
12.35546100139618,2,3,3,0,-12.08,1.62,-3.12,12.01,5.07,3.49
12.36546099185944,2,3,3,0,-12.08,1.62,-3.12,12.01,5.07,3.49
12.37546098232269,2,3,3,0,-12.3,1.99,-2.64,13.79,6.17,3.01
12.38546097278595,2,3,3,0,-12.17,1.96,-2.29,11.61,6.32,2.59
12.39546096324921,2,3,3,0,-11.78,1.49,-1.57,1.84,7.44,2.53
12.40546095371246,2,3,3,0,-11.68,-0.72,-1.01,-3.76,8.359999999999999,2.97
12.41546094417572,2,3,3,0,-11.58,-1.7,-2.12,-3.76,8.359999999999999,2.97
12.42546093463898,2,3,3,0,-12.11,-2.35,-3.48,-7.3,8.880000000000001,4.12
12.43546092510223,2,3,3,0,-13.48,-3.64,-2.92,-7.27,4.19,7.6
12.44546091556549,2,3,3,0,-13.33,-4.31,-2.72,-6.8,0.02,9.300000000000001
12.45546090602875,2,3,3,0,-12.69,-4.47,-2.73,-5.84,-3.82,10.58
12.465460896492,2,3,3,0,-11.67,-4.74,-2.41,-5.84,-3.82,10.58
12.47546088695526,2,3,3,0,-10.27,-4.73,-1.67,-4.37,-6.86,11.88
12.48546087741852,2,3,3,0,-9.85,-4.65,-1.48,-1.77,-9.35,13.53
12.49546086788177,2,3,3,0,-9.58,-4.22,-0.95,0.85,-11.49,15.15
12.50546085834503,2,3,3,0,-9.4,-3.57,-0.63,4.49,-10.19,15.99
12.51546108722687,2,3,3,0,-11.05,-1.82,-0.49,4.49,-10.19,15.99
12.52546107769012,2,3,3,0,-12.43,-0.85,0,5.03,-8.619999999999999,14.86
12.53546106815338,2,3,3,0,-13.71,0.08,0.09,3.37,-7.12,12.5
12.54546105861664,2,3,3,0,-14.68,1.05,0.38,-4.08,-3.93,5.86
12.5554610490799,2,3,3,0,-14.56,0.83,0,-7.93,-4.04,3.06
12.56546103954315,2,3,3,0,-13.17,0.08,-0.37,-7.93,-4.04,3.06
12.57546103000641,2,3,3,0,-11.51,-0.52,-0.45,-10.92,-5.01,1.4
12.58546102046967,2,3,3,0,-10.24,-1.01,-0.6,-13.01,-6.19,0.57
12.59546101093292,2,3,3,0,-8.52,-1.75,-0.67,-15.09,-8.4,0.37
12.60546100139618,2,3,3,0,-8.039999999999999,-1.74,-0.59,-15.09,-8.4,0.37
12.61546099185944,2,3,3,0,-7.79,-1.44,-0.5,-15.09,-8.4,0.37
12.62546098232269,2,3,3,0,-7.65,-0.55,-0.74,-15.8,-10.62,0.47
12.63546097278595,2,3,3,0,-7.67,-0.01,-0.61,-14.9,-12.89,0.73
12.64546096324921,2,3,3,0,-7.4,0.39,-0.42,-15.03,-13.81,0.86
12.65546095371246,2,3,3,0,-7.04,0.61,-0.04,-15.5,-14.35,0.85
12.66546094417572,2,3,3,0,-6.51,0.66,0.46,-15.5,-14.35,0.85
12.67546093463898,2,3,3,0,-6.03,0.43,0.52,-16.02,-14.31,0.73
12.68546092510223,2,3,3,0,-5.81,0.24,0.51,-16.59,-13.69,0.64
12.69546091556549,2,3,3,0,-5.58,0.01,0.45,-17.15,-11.3,0.66
12.70546090602875,2,3,3,0,-5.59,-0.29,0.36,-17.52,-9.869999999999999,0.57
12.715460896492,2,3,3,0,-5.65,-0.32,0.52,-17.52,-9.869999999999999,0.57
12.72546088695526,2,3,3,0,-5.13,-0.13,0.57,-17.12,-7.68,0.15
12.73546087741852,2,3,3,0,-6.92,-0.19,0.7,-16.61,-6.51,-0.39
12.74546086788177,2,3,3,0,-6.83,-0.27,1.3,-15.53,-5.41,-1.06
12.75546085834503,2,3,3,0,-7.16,-0.22,1.3,-14.3,-3.66,-1.94
12.76546108722687,2,3,3,0,-7.15,-0.28,1.42,-14.3,-3.66,-1.94
12.77546107769012,2,3,3,0,-7.7,-0.39,1.25,-11.14,0.19,-2.93
12.78546106815338,2,3,3,0,-7.29,-0.29,1.25,-8.880000000000001,1.69,-2.94
12.79546105861664,2,3,3,0,-7.13,-0.05,1.43,-5.49,5.24,-2.32
12.8054610490799,2,3,3,0,-7.3,0.25,2.43,-5.49,5.24,-2.32
12.81546103954315,2,3,3,0,-8.48,1.3,3.51,-5.49,5.24,-2.32
12.82546103000641,2,3,3,0,-9.140000000000001,1.66,2.57,-5.01,6.76,-0.5600000000000001
12.83546102046967,2,3,3,0,-9.279999999999999,1.9,1.65,-0.61,4.15,1.52
12.84546101093292,2,3,3,0,-8.76,1.74,1.7,-1.38,5.41,1.17
12.85546100139618,2,3,3,0,-8.039999999999999,0.61,1.39,-4.56,6.21,0.05
12.86546099185944,2,3,3,0,-8.279999999999999,-0.14,0.2,-4.56,6.21,0.05
12.87546098232269,2,3,3,0,-8.74,-1.11,-0.38,-8.279999999999999,6.42,-1.22
12.88546097278595,2,3,3,0,-9.69,-1.83,-0.48,-12.13,6.34,-2.34
12.89546096324921,2,3,3,0,-13.49,-1.43,-0.99,-10.74,0.5600000000000001,-0.74
12.90546095371246,2,3,3,0,-15.12,-0.61,0.47,-6.79,-2.96,1.1
12.93546092510223,2,3,3,0,-15.29,2.4,2.76,-0.34,-10.86,5.15
12.97546088695526,2,3,3,0,-10.93,0.55,1.49,-9.57,-8.710000000000001,3.37
13.00546085834503,2,3,3,0,-11.94,-0.76,1.95,-7.44,-5.9,1.16
13.01546108722687,2,3,3,0,-12.59,-2.3,3.73,-7.44,-5.9,1.16
13.02546107769012,2,3,3,0,-11.84,-3.47,3.43,-0.84,-7.01,-0.06
13.03546106815338,2,3,3,0,-10.8,-3.91,2.9,5.15,-7.1,0.6
13.04546105861664,2,3,3,0,-8.199999999999999,-3.36,0.44,7,-4.37,1
13.0554610490799,2,3,3,0,-7.58,-2.83,-0.31,7.89,-0.9,1.27
13.06546103954315,2,3,3,0,-7.34,-2.33,-0.95,7.89,-0.9,1.27
13.07646095752716,2,3,3,0,-7.95,-2.06,-1.5,8.24,2.37,1.07
13.08646094799042,2,3,3,0,-10.07,-1.09,-1.95,8.800000000000001,4.77,0.18
13.09646093845367,2,3,3,0,-10.95,-1.11,-2.15,9.19,6.09,-2.78
13.10646092891693,2,3,3,0,-10.35,-1.19,-2.62,7.75,6.08,-3.54
13.11646091938019,2,3,3,0,-11.1,-1.66,-2.52,7.75,6.08,-3.54
13.12646090984344,2,3,3,0,-9.92,-1.3,-0.74,6.12,4.96,-3.45
13.1364609003067,2,3,3,0,-8.91,-1.22,0.24,3.44,5.37,-3.24
13.14646089076996,2,3,3,0,-8.289999999999999,-1.34,0.42,3.44,5.37,-3.24
13.15646088123322,2,3,3,0,-7.92,-1.3,0.23,2.64,6.89,-3.22
13.16646087169647,2,3,3,0,-8.06,-1.21,0.14,2.64,6.89,-3.22
13.17646086215973,2,3,3,0,-8.039999999999999,-1.16,-0.18,2.34,9.32,-3.21
13.18646109104156,2,3,3,0,-7.76,-1.18,-0.5600000000000001,2.52,10.27,-3.46
13.19646108150482,2,3,3,0,-7.51,-1.26,-0.62,3.9,11.55,-3.84
13.20646107196808,2,3,3,0,-7.06,-1.7,-0.98,4.97,12.03,-3.89
13.21646106243134,2,3,3,0,-6.86,-2.01,-1.11,4.97,12.03,-3.89
13.22646105289459,2,3,3,0,-6.96,-2.15,-1.28,6.16,12.82,-4.14
13.23646104335785,2,3,3,0,-8.23,-2.35,-1.47,8.470000000000001,14.29,-4.71
13.24646103382111,2,3,3,0,-8.83,-2.37,-1.84,9.789999999999999,14.17,-4.56
13.25646102428436,2,3,3,0,-9.07,-2.39,-1.83,10.82,13.52,-4.21
13.26646101474762,2,3,3,1,-9.16,-2.18,-1.85,10.82,13.52,-4.21
13.27646100521088,2,3,3,1,-9.25,-0.95,-1.62,11.5,12.53,-3.94
13.28646099567413,2,3,3,1,-9.210000000000001,-0.36,-1.21,11.76,11.15,-3.98
13.29646098613739,2,3,3,1,-9,0.08,-1.12,11.36,9.619999999999999,-4.18
13.30646097660065,2,3,3,1,-8.48,0,-1.16,10.58,7.85,-4.77
13.3164609670639,2,3,3,1,-7.58,-0.39,-1.01,10.58,7.85,-4.77
13.32646095752716,2,3,3,1,-7.59,-0.54,-1.37,10.34,7.74,-5.34
13.33646094799042,2,3,3,1,-7.77,-0.86,-1.84,10.94,7.42,-6.91
13.34646093845367,2,3,3,1,-8.08,-1.07,-2.07,11.39,6.73,-7.29
13.35646092891693,2,3,3,1,-8.66,-0.28,-2.39,11.21,5.49,-7.04
13.36646091938019,2,3,3,1,-9.06,0.04,-2.35,11.21,5.49,-7.04
13.37646090984344,2,3,3,1,-9.19,0.6899999999999999,-2.37,10.5,3.97,-6.27
13.3864609003067,2,3,3,1,-9.51,0.99,-2.13,9.210000000000001,2.13,-5.34
13.39646089076996,2,3,3,1,-9.199999999999999,1.64,-2,7.82,0.52,-4.49
13.40646088123322,2,3,3,1,-8.94,1.66,-1.49,6.89,-0.44,-3.93
13.41646087169647,2,3,3,2,-8.84,1.49,-1.17,6.89,-0.44,-3.93
13.42646086215973,2,3,3,2,-9.23,1.18,-0.89,5.35,-0.45,-4.03
13.43646109104156,2,3,3,2,-9.81,0.89,-1.15,4.69,-0.01,-4.48
13.44646108150482,2,3,3,2,-10.22,0.63,-1.39,3.6,1.04,-5.31
13.45646107196808,2,3,3,2,-10.6,0.2,-1.55,3.57,1.78,-5.79
13.46646106243134,2,3,3,2,-10.66,-0.87,-1.51,3.57,1.78,-5.79
13.47646105289459,2,3,3,2,-10.29,-1.3,-1.73,4,2.62,-6.2
13.48646104335785,2,3,3,2,-9.94,-1.42,-2.02,4.9,3.44,-6.49
13.49646103382111,2,3,3,2,-9.699999999999999,-1.35,-2.26,6.91,4.23,-5.43
13.50646102428436,2,3,3,2,-9.57,-0.24,-1.91,7.36,4.05,-4.28
13.51646101474762,2,3,3,3,-9.550000000000001,0.29,-1.62,7.36,4.05,-4.28
13.52646100521088,2,3,3,3,-9.6,0.47,-1.01,7.91,3.97,-2.99
13.53646099567413,2,3,3,3,-9.640000000000001,0.33,-0.79,8.49,4.15,-1.96
13.54646098613739,2,3,3,3,-10.2,-0.28,-1.67,8.49,4.15,-1.96
13.55646097660065,2,3,3,3,-10.89,-0.34,-2.17,9.73,4.81,-1.02
13.5664609670639,2,3,3,3,-11.58,-0.36,-2.48,12.23,5.53,0.71
13.57646095752716,2,3,3,3,-12.24,-0.9,-2.08,11.82,4.67,1.79
13.58646094799042,2,3,3,3,-12.44,-1.42,-2.6,11.82,4.67,1.79
13.59646093845367,2,3,3,3,-12.22,-1.97,-2.95,8.859999999999999,3.04,3.03
13.60646092891693,2,3,3,3,-11.69,-2.14,-2.61,-5.62,1.32,7.22
13.61646091938019,2,3,3,3,-10.8,-3.08,-1.2,-5.62,1.32,7.22
13.62646090984344,2,3,3,3,-10.96,-3.38,-1.76,-9.18,3.92,8.93
13.6364609003067,2,3,3,3,-11.57,-3.31,-2.98,-13.69,5.87,12.22
13.64646089076996,2,3,3,3,-12.14,-3.16,-4.12,-13.69,5.87,12.22
13.65646088123322,2,3,3,3,-13.44,-3.4,-4.81,-13.5,4.71,13.13
13.66646087169647,2,3,3,3,-13.45,-3.41,-4.8,-13.5,4.71,13.13
13.67646086215973,2,3,3,3,-13.06,-3.19,-4.24,-7.59,-2.65,14.53
13.68646109104156,2,3,3,3,-12.56,-3.13,-2.96,-7.59,-2.65,14.53
13.69646108150482,2,3,3,3,-12.18,-3.43,-1.31,-5.74,-5.54,14.02
13.70646107196808,2,3,3,3,-12.38,-3.47,-0.8100000000000001,-3.41,-6.57,12.76
13.71646106243134,2,3,3,3,-12.3,-3.23,-0.17,0.17,-8.24,10.71
13.72646105289459,2,3,3,3,-11.93,-2.97,-0.28,0.71,-9.130000000000001,9.99
13.73646104335785,2,3,3,3,-11.27,-1.37,-0.68,0.71,-9.130000000000001,9.99
13.74646103382111,2,3,3,3,-10.95,-0.63,-0.87,0.48,-9.43,9.529999999999999
13.75646102428436,2,3,3,3,-10.38,0.06,-0.89,-2.82,-8.92,8.869999999999999
13.76646101474762,2,3,3,3,-9.779999999999999,0.51,-0.79,-6.37,-8.369999999999999,7.48
13.77646100521088,2,3,3,3,-8.67,0.23,-0.53,-10.14,-7.46,5.62
13.78646099567413,2,3,3,3,-8.619999999999999,-0.08,-0.45,-10.14,-7.46,5.62
13.79646098613739,2,3,3,3,-8.4,-0.5,-0.26,-13.07,-7.08,4.1
13.80646097660065,2,3,3,3,-8.75,-1.21,0.23,-14.47,-7.05,2.62
13.8164609670639,2,3,3,3,-8.58,-1.68,0.43,-14.47,-7.05,2.62
13.82646095752716,2,3,3,3,-8.42,-2.05,0.34,-13.13,-8.34,2.25
13.83646094799042,2,3,3,3,-8.24,-2.29,-0.1,-13.13,-8.34,2.25
13.84646093845367,2,3,3,3,-7.51,-1.64,-0.89,-13.99,-11.77,2.68
13.85646092891693,2,3,3,3,-7.25,-1.09,-0.93,-13.99,-11.77,2.68
13.86646091938019,2,3,3,3,-7.11,-0.57,-0.75,-13.78,-13.25,3.75
13.87646090984344,2,3,3,3,-6.95,-0.19,-0.23,-13.06,-12.65,4.41
13.8864609003067,2,3,3,3,-7.21,0.19,0.01,-13.06,-12.65,4.41
13.89646089076996,2,3,3,3,-7.47,0.23,-0.02,-12.56,-11.56,4.83
13.90646088123322,2,3,3,3,-7.71,0.32,0.15,-12.05,-8.73,4.91
13.91646087169647,2,3,3,3,-8,0.5,0.22,-12.16,-7.79,4.31
13.92646086215973,2,3,3,3,-8.289999999999999,0.9,0.72,-12.96,-7.41,3.04
13.93646109104156,2,3,3,3,-8.449999999999999,1.06,0.74,-12.96,-7.41,3.04
13.94646108150482,2,3,3,3,-8.59,1.13,0.55,-13.78,-6.97,0.96
13.95646107196808,2,3,3,3,-8.41,0.93,0.72,-14.35,-6.54,-1.31
13.96646106243134,2,3,3,3,-8.18,0.44,0.96,-13.94,-5.79,-3.43
13.97646105289459,2,3,3,2,-7.78,0.32,1.07,-11.69,-3.49,-5.75
13.98646104335785,2,3,3,2,-7.65,0.06,1.13,-11.69,-3.49,-5.75
13.99646103382111,2,3,3,2,-7.58,-0.04,0.85,-10.12,-1.62,-6.12
14.00646102428436,2,3,3,2,-7.57,0.06,1.53,-7.51,2.71,-5.75
14.01646101474762,2,3,3,2,-7.83,0.24,1.6,-6.55,5.1,-5.62
14.02646100521088,2,3,3,1,-7.96,0.42,1.15,-6.66,6.45,-5.41
14.03646099567413,2,3,3,1,-7.95,0.76,-0.33,-6.66,6.45,-5.41
14.04646098613739,2,3,3,1,-7.9,0.83,-0.22,-4.66,5.18,-4.13
14.05646097660065,2,3,3,1,-7.98,0.82,0.75,-2.55,5.43,-3.39
14.0664609670639,2,3,3,1,-8.32,0.82,1.69,-2.55,5.43,-3.39
14.07646095752716,2,3,3,1,-8.640000000000001,0.24,1.7,0.5,5.91,-1.35
14.08646094799042,2,3,3,1,-7.86,-0.68,1.37,0.5,5.91,-1.35
14.09746086597443,2,3,3,1,-6.9,-2.03,0.7,1.55,5.03,-0.18
14.10746085643768,2,3,3,1,-6.56,-3.05,-0.51,-6.67,6.62,-1.57
14.11746108531952,2,3,3,1,-10.02,-1.17,-2.19,-8.99,5.78,-1.47
14.12746107578278,2,3,3,0,-12.5,0.6899999999999999,0.52,-5.82,4.04,-0.01
14.13746106624603,2,3,3,0,-15.01,2.56,2.76,-5.82,4.04,-0.01
14.14746105670929,2,3,3,0,-16.73,4.1,2.1,0.92,-1.8,4.63
14.15746104717255,2,3,3,0,-15.42,4.98,2.7,1.28,-6.19,5.15
14.1674610376358,2,3,3,0,-15.27,5.24,3.17,-1.15,-8.92,4.36
14.17746102809906,2,3,3,0,-14.74,4.48,2.91,-1.95,-10.71,4.33
14.18746101856232,2,3,3,0,-12.95,3.23,2.09,-1.95,-10.71,4.33
14.19746100902557,2,3,3,0,-9.01,2.1,3.36,-5.37,-11.71,3.98
14.20746099948883,2,3,3,0,-8.73,0.61,3.92,-9.58,-11.48,3.22
14.21746098995209,2,3,3,0,-9.380000000000001,-1.02,3.36,-11.58,-9.470000000000001,1.91
14.22746098041534,2,3,3,0,-12.12,-4.68,0.3,-10.83,-3.09,-0.52
14.2374609708786,2,3,3,0,-15.29,-5.63,-0.18,-10.83,-3.09,-0.52
14.24746096134186,2,3,3,0,-19.53,-5.34,-0.1,-3.14,-0.17,-2.81
14.25746095180511,2,3,3,0,-20.74,-4.83,0.92,2.62,-3.66,-3.14
14.26746094226837,2,3,3,0,-13.63,-3.23,0.82,8.380000000000001,-7.71,-1.2
14.27746093273163,2,3,3,0,-10.07,-2.97,0.14,11.74,-8.800000000000001,1.14
14.28746092319489,2,3,3,0,-7.67,-2.25,0.2,11.74,-8.800000000000001,1.14
14.29746091365814,2,3,3,0,-6.83,-0.96,0.23,12.19,-6.94,2.44
14.3074609041214,2,3,3,0,-6.45,-0.03,-0.25,9.119999999999999,-1.2,2.09
14.31746089458466,2,3,3,0,-6.22,0.23,-0.99,7.76,0.1,1.4
14.32746088504791,2,3,3,0,-5.7,0.36,-1.3,6.78,1.6,0.53
14.33746087551117,2,3,3,0,-5.03,0.62,-1.04,6.78,1.6,0.53
14.34746086597443,2,3,3,0,-6.68,0.1,-0.45,3.74,8.26,-3.45
14.35746085643768,2,3,3,0,-9.81,-1.55,-0.63,3.74,8.26,-3.45
14.36746108531952,2,3,3,0,-11.49,-2.83,-0.72,1.98,9.359999999999999,-6.17
14.37746107578278,2,3,3,0,-11.96,-3.56,-0.49,2.43,7.53,-5.16
14.38746106624603,2,3,3,0,-10.32,-3.87,-0.76,2.43,7.53,-5.16
14.39746105670929,2,3,3,0,-9.32,-3.34,-0.78,3.93,6.43,-3.99
14.40746104717255,2,3,3,0,-8.789999999999999,-2.47,-0.62,6.39,7.67,-1.74
14.4174610376358,2,3,3,0,-7.9,-0.92,-0.35,6.94,8.4,-0.79
14.42746102809906,2,3,3,0,-7.34,-0.53,-0.42,6.67,8.300000000000001,-0.01
14.43746101856232,2,3,3,0,-6.83,-0.25,-0.38,6.67,8.300000000000001,-0.01
14.44746100902557,2,3,3,0,-6.61,-0.14,-0.59,4.61,7.43,-0.13
14.45746099948883,2,3,3,0,-6.65,-0.23,-0.9,3.46,7.3,-0.55
14.46746098995209,2,3,3,0,-6.99,-0.4,-1.05,2.96,7.8,-1.3
14.47746098041534,2,3,3,0,-7.85,-0.58,-1.26,3.04,8.84,-2.34
14.4874609708786,2,3,3,0,-8.83,-0.79,-1.35,3.04,8.84,-2.34
14.49746096134186,2,3,3,0,-9.92,-1.58,-1.56,3.52,9.81,-3.52
14.50746095180511,2,3,3,0,-9.9,-1.94,-1.56,5.41,10.35,-4.41
14.51746094226837,2,3,3,0,-9.81,-2.14,-1.41,6.48,9.6,-3.92
14.52746093273163,2,3,3,0,-9.74,-2.08,-1.31,7.4,8.5,-3.4
14.53746092319489,2,3,3,0,-9.09,-1.39,-1.45,7.4,8.5,-3.4
14.54746091365814,2,3,3,0,-8.699999999999999,-1.08,-1.4,9.380000000000001,6.88,-3.13
14.5574609041214,2,3,3,0,-8.07,-0.76,-1.38,10.31,7.16,-3.49
14.56746089458466,2,3,3,0,-7.97,-0.75,-1.43,11.15,7.73,-4.22
14.57746088504791,2,3,3,0,-9.02,-0.86,-1.79,11.79,8.24,-5.08
14.58746087551117,2,3,3,0,-9.6,-0.96,-1.97,11.79,8.24,-5.08
14.59746086597443,2,3,3,0,-9.98,-0.92,-2.35,12.05,8.220000000000001,-6.09
14.60746085643768,2,3,3,0,-10.19,-0.25,-2.26,12,7.56,-6.78
14.61746108531952,2,3,3,0,-9.890000000000001,0,-2.1,11.7,6.44,-6.98
14.62746107578278,2,3,3,0,-9.619999999999999,0.36,-1.99,10.31,3.18,-6.11
14.63746106624603,2,3,3,0,-9.380000000000001,0.55,-1.65,10.31,3.18,-6.11
14.64746105670929,2,3,3,0,-8.9,0.87,-1.49,9.380000000000001,1.74,-5.41
14.65746104717255,2,3,3,0,-8.890000000000001,1.03,-1.17,7.65,0.6,-4.43
14.6674610376358,2,3,3,0,-9.130000000000001,1.04,-0.9399999999999999,7.04,0.46,-4.12
14.67746102809906,2,3,3,0,-9.17,1.14,-1.1,6.32,0.61,-4.05
14.68746101856232,2,3,3,0,-9.52,0.96,-1.39,6.32,0.61,-4.05
14.69746100902557,2,3,3,0,-9.58,0.66,-1.43,5.71,0.92,-4.2
14.70746099948883,2,3,3,0,-9.470000000000001,0.4,-1.36,5.28,1.27,-4.48
14.71746098995209,2,3,3,0,-9.27,0.16,-1.17,5.41,2.2,-5.2
14.72746098041534,2,3,3,0,-9.02,-0.57,-1.3,6.03,2.67,-5.44
14.7374609708786,2,3,3,0,-8.92,-0.75,-1.49,6.03,2.67,-5.44
14.74746096134186,2,3,3,0,-8.99,-0.8100000000000001,-1.66,7.71,3.34,-5.51
14.75746095180511,2,3,3,0,-9.16,-0.62,-1.61,7.8,3.42,-5.15
14.76746094226837,2,3,3,0,-9.5,0.13,-1.29,7.01,3.13,-4.7
14.77746093273163,2,3,3,0,-9.51,0.1,-0.9399999999999999,6.13,2.72,-3.91
14.78746092319489,2,3,3,0,-9.57,-0.19,-0.85,6.13,2.72,-3.91
14.79746091365814,2,3,3,0,-10.31,-0.72,-1.39,5.93,2.87,-2.97
14.8074609041214,2,3,3,0,-10.92,-0.98,-1.62,7.97,4.09,-1.13
14.81746089458466,2,3,3,0,-11.35,-1.22,-1.46,9.470000000000001,4.2,-0.24
14.82746088504791,2,3,3,0,-11.43,-1.33,-1.33,10.69,3.81,0.66
14.83746087551117,2,3,3,0,-11.31,-1.22,-1.83,10.69,3.81,0.66
14.84746086597443,2,3,3,0,-11.28,-1.15,-2.43,10.1,3.08,1.48
14.85746085643768,2,3,3,0,-11.23,-0.88,-2.29,4.12,1.2,3.18
14.86746108531952,2,3,3,0,-10.82,-1.08,-1.22,0.26,1.59,3.92
14.87746107578278,2,3,3,0,-10.76,-2.84,-1.63,-4,3.68,4.73
14.88746106624603,2,3,3,0,-11.27,-3.3,-3.16,-4,3.68,4.73
14.94746100902557,2,3,3,0,-11.17,-5.17,-1.01,-2.7,0.97,9.199999999999999
14.95746099948883,2,3,3,0,-9.18,-4.72,-0.9399999999999999,2.18,-4.89,11.53
14.96746098995209,2,3,3,0,-9.07,-4.19,-1.27,4.8,-6.48,12.26
14.97746098041534,2,3,3,0,-9.210000000000001,-3.71,-1.03,7.93,-7.53,12.97
14.9874609708786,2,3,3,0,-9.81,-2.54,-0.02,7.93,-7.53,12.97
14.99746096134186,2,3,3,0,-10.35,-1.73,0.3,9.75,-8.380000000000001,13.67
15.00746095180511,2,3,3,0,-10.81,-0.52,0.61,6.43,-8.74,13.61
15.01746094226837,2,3,3,0,-11.65,0.6899999999999999,0.29,6.43,-8.74,13.61
15.02746093273163,2,3,3,0,-12.2,1.52,-1.15,-3.04,-8.08,10.87
15.03746092319489,2,3,3,0,-11.61,0.91,-1.35,-3.04,-8.08,10.87
15.04746091365814,2,3,3,0,-10.78,0.26,-1.39,-6.74,-7.86,8.630000000000001
15.0574609041214,2,3,3,0,-9.859999999999999,-0.22,-1.45,-12.9,-7.07,4.72
15.06746089458466,2,3,3,0,-8.289999999999999,-0.83,-1.39,-14.99,-6.69,3.6
15.07746088504791,2,3,3,0,-7.93,-0.96,-1,-16.66,-6.44,2.64
15.08746087551117,2,3,3,0,-7.77,-0.96,-1.17,-16.66,-6.44,2.64
15.09746086597443,2,3,3,0,-8.119999999999999,-1.02,-1.28,-17.75,-6.27,1.79
15.10746085643768,2,3,3,0,-7.85,-0.84,-1.03,-17.32,-7.85,1.45
15.11746108531952,2,3,3,0,-7.73,-0.59,-0.8100000000000001,-16.14,-8.720000000000001,1.76
15.12846100330353,2,3,3,0,-7.71,-0.35,-0.4,-14.84,-9.17,1.92
15.13846099376678,2,3,3,0,-7.73,-0.28,0.25,-14.84,-9.17,1.92
15.14846098423004,2,3,3,0,-7.91,-0.61,1.53,-13.65,-9.27,1.65
15.16846096515656,2,3,3,0,-7.95,-1.09,0.72,-13,-7.25,0.27
15.17846095561981,2,3,3,0,-8.23,-1,0.28,-12.47,-6.39,-0.02
15.18846094608307,2,3,3,0,-8.35,-1.04,-0.03,-12.47,-6.39,-0.02
15.19846093654633,2,3,3,0,-8.449999999999999,-1.02,-0.09,-10.97,-5.23,-0.29
15.20846092700958,2,3,3,0,-8.57,-0.86,-0.64,-9.68,-3.32,-1.91
15.21846091747284,2,3,3,0,-9.1,-0.38,-0.43,-8.699999999999999,-2.86,-2.57
15.2284609079361,2,3,3,0,-9.42,-0.19,-0.27,-7.85,-2.59,-3.05
15.23846089839935,2,3,3,0,-9.550000000000001,-0.15,-0.38,-7.85,-2.59,-3.05
15.24846088886261,2,3,3,0,-9.4,-0.2,-0.35,-7.73,-2.96,-3.63
15.25846087932587,2,3,3,0,-8.619999999999999,-1.19,0.27,-6.79,-3.24,-3.84
15.26846086978912,2,3,3,0,-8.17,-1.58,0.47,-6.79,-3.24,-3.84
15.27846086025238,2,3,3,0,-7.78,-1.66,0.58,-4.65,-2.09,-2.58
15.28846108913422,2,3,3,0,-7.51,-1.39,0.86,-4.65,-2.09,-2.58
15.29846107959747,2,3,3,0,-7.8,-0.72,1.43,-3.32,-1.16,-1.6
15.30846107006073,2,3,3,0,-8.18,-0.5,1.23,-1.75,0.63,0.03
15.31846106052399,2,3,3,0,-8.52,-0.32,1,-0.78,0.78,0.6899999999999999
15.32846105098724,2,3,3,0,-8.859999999999999,-0.15,0.68,0.95,0.82,1.35
15.3384610414505,2,3,3,0,-9.69,0.07000000000000001,0.49,0.95,0.82,1.35
15.34846103191376,2,3,3,0,-10.05,0.31,0.66,2.98,1.02,1.93
15.35846102237701,2,3,3,0,-10.34,0.62,1.36,5.48,1.88,2.48
15.36846101284027,2,3,3,0,-10.38,1,2.44,5.39,2.57,2.52
15.37846100330353,2,3,3,0,-9.720000000000001,1.27,1.68,4.31,2.21,2.47
15.38846099376678,2,3,3,0,-8.99,1.57,1.14,4.31,2.21,2.47
15.39846098423004,2,3,3,0,-8.44,1.68,1.28,3.42,1.73,2.22
15.4084609746933,2,3,3,0,-8.470000000000001,1.88,1.42,0.9,2.84,0.73
15.41846096515656,2,3,3,0,-8.58,1.92,0.67,0.9,2.84,0.73
15.42846095561981,2,3,3,0,-8.59,1.74,0.8,-1.82,3.36,-0.85
15.43846094608307,2,3,3,0,-8.92,1.57,1.09,-1.82,3.36,-0.85
15.44846093654633,2,3,3,0,-9.789999999999999,1.23,1.01,-4.36,4.35,-2.1
15.45846092700958,2,3,3,0,-10.31,1.17,1.02,-8.44,3.9,-3.1
15.46846091747284,2,3,3,0,-10.7,1.11,1.6,-8.710000000000001,2.8,-2.78
15.4784609079361,2,3,3,0,-11.12,1.34,1.95,-8.84,1.4,-2.17
15.48846089839935,2,3,3,0,-11.05,1.97,1.65,-8.84,1.4,-2.17
15.49846088886261,2,3,3,0,-10.87,2.09,1.97,-8.02,-0.2,-1.29
15.50846087932587,2,3,3,0,-10.69,1.97,1.99,-6.52,-2.6,0.74
15.51846086978912,2,3,3,0,-10.48,1.53,2.05,-7.2,-3.37,1.41
15.52846086025238,2,3,3,0,-11.39,-0.38,1.59,-9.960000000000001,-4.09,1.36
15.53846108913422,2,3,3,0,-11.84,-0.68,1.71,-9.960000000000001,-4.09,1.36
15.54846107959747,2,3,3,0,-12.79,-1.18,1.61,-12.91,-5.71,0.85
15.55846107006073,2,3,3,0,-14.41,-3.57,-0.35,-11.36,-6.97,0.58
15.56846106052399,2,3,3,0,-16.12,-3.8,-1.28,-11.11,-5.85,-0.49
15.57846105098724,2,3,3,0,-17.87,-4.11,-1.2,-8.9,-5.9,-1.52
15.5884610414505,2,3,3,0,-18.33,-4.35,-0.5,-8.9,-5.9,-1.52
15.59846103191376,2,3,3,0,-15.48,-3.33,0.11,-5.43,-7.08,-2.36
15.60846102237701,2,3,3,0,-12.86,-2.37,0.92,2.05,-9.34,-2.63
15.61846101284027,2,3,3,0,-10.23,-1.73,0.68,4.1,-9.18,-1.87
15.62846100330353,2,3,3,1,-7.83,-1.23,0.25,5.13,-7.89,-0.76
15.63846099376678,2,3,3,1,-5.6,-0.85,0.96,5.13,-7.89,-0.76
15.64846098423004,2,3,3,1,-5.51,-0.72,0.86,5.56,-5.48,0.37
15.6584609746933,2,3,3,1,-5.93,-0.4,0.24,3.29,-1.17,1.91
15.66846096515656,2,3,3,1,-6.42,-0.21,-0.47,1.93,-0.24,2.4
15.67846095561981,2,3,3,1,-7.3,-0.36,-1.72,0.64,0.65,2.55
15.69846093654633,2,3,3,1,-9.31,-0.72,-2.46,-1.12,1.84,2.01
15.70846092700958,2,3,3,1,-10.84,-1.03,-2.92,-4,4.57,-1.33
15.71846091747284,2,3,3,1,-12.67,-2.36,-3.04,-4.42,4.53,-3.08
15.7284609079361,2,3,3,1,-12.28,-2.92,-2.74,-4.22,3.25,-4.05
15.73846089839935,2,3,3,1,-11.18,-3.41,-2.42,-4.22,3.25,-4.05
15.74846088886261,2,3,3,1,-9.800000000000001,-3.74,-2.14,-3.07,1.83,-4.18
15.75846087932587,2,3,3,1,-7.77,-3.48,-1.67,0.87,1.93,-3.19
15.76846086978912,2,3,3,1,-7.39,-3.3,-1.14,3.14,3.12,-2.83
15.77846086025238,2,3,3,1,-7.29,-3.05,-0.8,5.29,4.06,-2.52
15.78846108913422,2,3,3,1,-7.63,-2.5,-0.99,5.29,4.06,-2.52
15.79846107959747,2,3,3,1,-7.72,-2.2,-1.09,7.03,4.61,-2.09
15.80846107006073,2,3,3,1,-7.93,-1.87,-1.16,9.380000000000001,4.83,-0.72
15.81846106052399,2,3,3,1,-8.300000000000001,-1.7,-1.12,9.76,4.87,0.16
15.82846105098724,2,3,3,1,-8.76,-1.28,-0.97,10,5.05,0.88
15.8384610414505,2,3,3,1,-9.210000000000001,-1.07,-1,10,5.05,0.88
15.84846103191376,2,3,3,1,-9.6,-0.84,-1.19,9.92,5.31,1.37
15.85846102237701,2,3,3,1,-9.859999999999999,-0.66,-1.12,8.57,5.11,1.54
15.86846101284027,2,3,3,1,-10.39,-0.43,-1.01,7.27,4.92,1.14
15.87846100330353,2,3,3,2,-10.45,-0.38,-1.04,5.8,4.63,0.45
15.88846099376678,2,3,3,2,-10.42,-0.37,-1.05,5.8,4.63,0.45
15.89846098423004,2,3,3,2,-10.22,-0.39,-1.23,4.2,4.37,-0.47
15.9084609746933,2,3,3,2,-9.65,-0.61,-1.2,1.49,3.72,-2.26
15.91846096515656,2,3,3,2,-9.359999999999999,-0.84,-1.15,0.85,3.49,-2.76
15.92846095561981,2,3,3,2,-9.210000000000001,-1.08,-0.97,0.71,3.34,-2.95
15.93846094608307,2,3,3,2,-9.210000000000001,-1.26,-0.8,0.71,3.34,-2.95
15.94946086406708,2,3,3,2,-9.199999999999999,-1.22,-1.26,0.82,3.18,-2.94
15.95846092700958,2,3,3,2,-9.390000000000001,-1.19,-1.15,1.71,2.83,-2.17
15.96846091747284,2,3,3,2,-9.44,-1.21,-1.17,2.15,2.7,-1.66
15.9784609079361,2,3,3,2,-9.85,-1.16,-0.97,2.58,2.61,-1.05
15.98846089839935,2,3,3,2,-9.99,-1.12,-1.06,2.58,2.61,-1.05
15.99846088886261,2,3,3,2,-10.01,-1.07,-1.18,3.14,2.4,-0.45
16.00846087932587,2,3,3,2,-10,-1.17,-1.04,4.95,1.76,0.61
16.01846086978912,2,3,3,2,-9.98,-1.05,-0.86,5.67,1.4,1.01
16.02846086025238,2,3,3,3,-9.949999999999999,-0.8100000000000001,-0.98,6.49,1.09,1.35
16.03846108913422,2,3,3,3,-10.01,-0.57,-0.85,6.49,1.09,1.35
16.04846107959747,2,3,3,3,-10.07,-0.4,-0.87,7.27,0.76,1.64
16.05846107006073,2,3,3,3,-10.04,-0.26,-1.14,8.42,0.09,1.82
16.06846106052399,2,3,3,3,-10.12,-0.3,-1.05,9.039999999999999,-0.16,1.65
16.07846105098724,2,3,3,3,-10.19,-0.28,-1.02,9.51,-0.39,1.33
16.0884610414505,2,3,3,3,-10.26,-0.2,-0.9399999999999999,9.51,-0.39,1.33
16.09846103191376,2,3,3,3,-10.05,0.2,-1.05,9.57,-0.76,0.84
16.10846102237701,2,3,3,3,-9.800000000000001,0.5600000000000001,-1.42,6.91,-1.5,-0.53
16.11846101284027,2,3,3,3,-9.779999999999999,0.51,-1.23,6.43,-1.71,-0.75
16.12846100330353,2,3,3,3,-9.81,0.12,-0.64,5.73,-2.05,-0.8100000000000001
16.13846099376678,2,3,3,3,-9.710000000000001,-0.58,0.07000000000000001,5.73,-2.05,-0.8100000000000001
16.14946091175079,2,3,3,3,-9.470000000000001,-0.57,-0.06,4.57,-2.3,-0.64
16.15946090221405,2,3,3,3,-9.18,-0.5,-0.04,3.16,-2.12,0.25
16.16946089267731,2,3,3,3,-8.57,-0.43,0.26,3.11,-1.55,0.82
16.17946088314056,2,3,3,3,-8.42,-0.4,0.49,3.31,-0.42,1.27
16.18946087360382,2,3,3,3,-8.630000000000001,-0.31,0.49,3.31,-0.42,1.27
16.19946086406708,2,3,3,3,-9.07,0,-0.27,3.31,1.39,1.4
16.20946109294891,2,3,3,3,-9.869999999999999,0.43,-0.89,2.94,4.08,0.87
16.21946108341217,2,3,3,3,-9.970000000000001,0.36,-1.01,2.35,4.57,0.2
16.22946107387543,2,3,3,3,-9.960000000000001,0.16,-1.08,1.55,4.66,-0.5600000000000001
16.23946106433868,2,3,3,3,-9.9,0.04,-1.13,1.55,4.66,-0.5600000000000001
16.24946105480194,2,3,3,3,-9.77,-0.45,-0.93,0.97,4.35,-1.38
16.2594610452652,2,3,3,3,-9.74,-0.71,-0.79,0.44,3.42,-2.75
16.26946103572845,2,3,3,3,-9.859999999999999,-1,-0.58,0.59,2.92,-3.24
16.27946102619171,2,3,3,3,-9.779999999999999,-1.32,-0.6,0.82,2.54,-3.61
16.28946101665497,2,3,3,3,-9.789999999999999,-1.81,-0.6899999999999999,0.82,2.54,-3.61
16.29946100711823,2,3,3,3,-9.779999999999999,-2.01,-0.82,1.09,2.18,-3.85
16.30946099758148,2,3,3,3,-9.779999999999999,-2.13,-0.82,1.62,1.72,-3.84
16.31946098804474,2,3,3,3,-9.789999999999999,-2.18,-0.8,1.82,1.43,-3.59
16.329460978508,2,3,3,3,-9.75,-1.96,-0.72,1.86,1.18,-3.27
16.33946096897125,2,3,3,3,-9.67,-1.76,-0.74,1.86,1.18,-3.27
16.34946095943451,2,3,3,3,-9.56,-1.54,-0.7,1.71,0.87,-2.93
16.35946094989777,2,3,3,3,-9.4,-1.16,-0.53,0.48,0.25,-2.43
16.36946094036102,2,3,3,3,-9.32,-1.13,-0.62,-0.45,-0.25,-2.02
16.37946093082428,2,3,3,3,-9.369999999999999,-1.17,-0.65,-1.52,-0.86,-1.47
16.38946092128754,2,3,3,3,-9.44,-1.28,-0.52,-1.52,-0.86,-1.47
16.39946091175079,2,3,3,3,-9.69,-1.65,-0.53,-2.46,-1.29,-0.84
16.40946090221405,2,3,3,3,-9.9,-1.81,-0.4,-2.88,-1.35,0.47
16.41946089267731,2,3,3,3,-10.14,-1.85,-0.22,-2.6,-1.08,0.98
16.42946088314056,2,3,3,3,-10.18,-1.92,-0.22,-1.94,-0.62,1.2
16.45946109294891,2,3,3,3,-9.91,-1.56,-0.68,0.91,0.68,0.41
16.46946108341217,2,3,3,3,-9.76,-1.42,-0.58,1.97,0.8100000000000001,0.06
16.47946107387543,2,3,3,3,-9.550000000000001,-1.11,-0.45,2.85,0.63,-0.15
16.48946106433868,2,3,3,3,-9.48,-1.03,-0.51,2.85,0.63,-0.15
16.49946105480194,2,3,3,3,-9.42,-0.99,-0.51,3.41,0.34,-0.3
16.5094610452652,2,3,3,3,-9.449999999999999,-0.85,-0.24,3.49,-0.13,-0.5
16.51946103572845,2,3,3,3,-9.4,-0.72,-0.24,3.37,-0.11,-0.5600000000000001
16.52946102619171,2,3,3,3,-9.41,-0.77,-0.36,2.76,-0.1,-0.64
16.53946101665497,2,3,3,3,-9.56,-0.77,-0.35,1.88,-0.01,-0.73
16.54946100711823,2,3,3,3,-9.65,-0.79,-0.52,1.02,0.17,-0.73
16.55946099758148,2,3,3,3,-9.91,-1.02,-0.5600000000000001,0.22,0.3,-0.75
16.56946098804474,2,3,3,3,-10.06,-1.13,-0.43,-0.33,0.36,-0.76
16.579460978508,2,3,3,3,-10.12,-1.22,-0.36,-0.49,0.4,-0.66
16.58946096897125,2,3,3,3,-10.25,-1.44,-0.36,-0.45,0.32,-0.58
16.60946094989777,2,3,3,3,-10,-1.51,-0.42,0.06,-0.11,-0.39
16.61946094036102,2,3,3,3,-9.92,-1.53,-0.23,0.23,-0.39,-0.3
16.62946093082428,2,3,3,3,-9.529999999999999,-1.44,-0.1,0.39,-0.55,-0.21
16.63946092128754,2,3,3,3,-9.42,-1.41,-0.46,0.39,-0.55,-0.21
16.64946091175079,2,3,3,3,-9.449999999999999,-1.37,-0.65,0.43,-0.48,-0.19
16.65946090221405,2,3,3,3,-9.48,-1.31,-0.67,0.93,-0.4,0.06
16.66946089267731,2,3,3,3,-9.619999999999999,-1.23,-0.13,1.23,-0.33,0.19
16.67946088314056,2,3,3,3,-9.76,-1.18,0.38,1.15,-0.41,0.26
16.68946087360382,2,3,3,3,-9.65,-1.17,-0.01,1.15,-0.41,0.26
16.69946086406708,2,3,3,3,-9.56,-1.12,-0.7,0.5600000000000001,-0.6899999999999999,0.25
16.70946109294891,2,3,3,3,-9.56,-1.05,-0.79,0.32,-0.68,0.17
16.71946108341217,2,3,3,3,-9.630000000000001,-1.1,-0.5600000000000001,0.54,-0.49,0.11
16.72946107387543,2,3,3,3,-9.73,-1.1,-0.35,0.55,-0.4,0.04
16.73946106433868,2,3,3,3,-9.76,-1.14,-0.51,0.55,-0.4,0.04
16.74946105480194,2,3,3,3,-9.949999999999999,-1.21,-0.78,0.73,-0.26,-0.03
16.7594610452652,2,3,3,3,-10.02,-1.19,-0.55,1.21,-0.17,-0.2
16.76946103572845,2,3,3,3,-10.05,-1.14,-0.34,1.18,-0.31,-0.27
16.78946101665497,2,3,3,3,-9.73,-0.98,-0.5,1.26,-0.38,-0.27
16.79946100711823,2,3,3,3,-9.789999999999999,-1.01,-0.06,1.29,-0.34,-0.29
16.80946099758148,2,3,3,3,-9.67,-0.91,-0.27,0.8,-0.15,-0.4
16.81946098804474,2,3,3,3,-9.59,-0.93,-0.65,0.73,-0.07000000000000001,-0.35
16.829460978508,2,3,3,3,-9.59,-0.96,-0.67,0.79,0,-0.32
16.83946096897125,2,3,3,3,-9.68,-0.99,-0.58,0.79,0,-0.32
16.84946095943451,2,3,3,3,-9.76,-1.01,-0.44,0.95,0.07000000000000001,-0.25
16.85946094989777,2,3,3,3,-9.67,-0.85,-0.6,1,-0.1,0
16.86946094036102,2,3,3,3,-9.67,-0.83,-0.6,0.97,-0.11,0.08
16.87946093082428,2,3,3,3,-9.65,-0.8,-0.51,0.9399999999999999,-0.06,0.11
16.88946092128754,2,3,3,3,-9.67,-0.76,-0.36,0.9399999999999999,-0.06,0.11
16.89946091175079,2,3,3,3,-9.75,-0.66,-0.5600000000000001,0.79,-0.1,0.12
16.90946090221405,2,3,3,3,-9.81,-0.62,-0.57,0.61,-0.05,0.09
16.91946089267731,2,3,3,3,-9.85,-0.63,-0.43,0.43,-0.04,0
16.92946088314056,2,3,3,3,-9.960000000000001,-0.66,-0.05,0.15,-0.14,-0.12
16.93946087360382,2,3,3,3,-9.710000000000001,-0.65,-0.31,-0.21,-0.18,-0.2
16.94946086406708,2,3,3,3,-9.68,-0.65,-0.52,-0.53,-0.19,-0.21
16.95946109294891,2,3,3,3,-9.710000000000001,-0.67,-0.52,-0.64,-0.15,-0.29
16.96946108341217,2,3,3,3,-9.75,-0.76,-0.39,-0.65,-0.08,-0.38
16.97946107387543,2,3,3,3,-9.720000000000001,-0.78,-0.34,-0.75,-0.12,-0.37
16.98946106433868,2,3,3,3,-9.69,-0.8100000000000001,-0.46,-0.75,-0.12,-0.37
16.99946105480194,2,3,3,3,-9.69,-0.86,-0.67,-0.75,-0.15,-0.36
17.0094610452652,2,3,3,3,-9.65,-0.82,-0.53,-0.6,-0.08,-0.25
17.01946103572845,2,3,3,3,-9.66,-0.83,-0.47,-0.51,-0.02,-0.24
17.02946102619171,2,3,3,3,-9.73,-0.78,-0.46,-0.54,0.02,-0.17
17.03946101665497,2,3,3,3,-9.81,-0.75,-0.29,-0.54,0.02,-0.17
17.04946100711823,2,3,3,3,-9.779999999999999,-0.88,-0.62,-0.57,0.02,-0.22
17.05946099758148,2,3,3,3,-9.789999999999999,-0.88,-0.6,-0.6899999999999999,0.04,-0.13
17.06946098804474,2,3,3,3,-9.81,-0.91,-0.48,-0.63,0.03,-0.06
17.079460978508,2,3,3,3,-9.81,-0.95,-0.45,-0.55,0.03,-0.01
17.090460896492,2,3,3,3,-9.720000000000001,-0.98,-0.41,-0.55,0.03,-0.01
17.09946095943451,2,3,3,3,-9.69,-0.93,-0.54,-0.5600000000000001,-0.03,-0.04
17.10946094989777,2,3,3,3,-9.67,-0.96,-0.49,-0.6,0.14,-0.17
17.12046086788177,2,3,3,3,-9.66,-0.95,-0.39,-0.59,0.2,-0.27
17.12946093082428,2,3,3,3,-9.609999999999999,-0.99,-0.46,-0.53,0.33,-0.32
17.13946092128754,2,3,3,3,-9.67,-0.99,-0.46,-0.53,0.33,-0.32
17.15046107769012,2,3,3,3,-9.75,-0.96,-0.31,-0.46,0.36,-0.27
17.15946090221405,2,3,3,3,-9.82,-0.9399999999999999,-0.52,-0.36,0.28,-0.15
17.17046105861664,2,3,3,3,-9.869999999999999,-0.97,-0.37,-0.38,0.16,-0.15
17.1804610490799,2,3,3,3,-9.84,-0.97,-0.54,-0.45,0.08,-0.15
17.19046103954315,2,3,3,3,-9.73,-0.97,-0.61,-0.45,0.08,-0.15
17.20046103000641,2,3,3,3,-9.66,-0.99,-0.6899999999999999,-0.35,0.02,-0.07000000000000001
17.21046102046967,2,3,3,3,-9.630000000000001,-0.98,-0.63,-0.03,0.09,-0.04
17.22046101093292,2,3,3,3,-9.65,-1,-0.5600000000000001,0.16,0.17,-0.05
17.23046100139618,2,3,3,3,-9.69,-1.07,-0.37,0.31,0.19,-0.07000000000000001
17.24046099185944,2,3,3,3,-9.74,-1.05,-0.12,0.31,0.19,-0.07000000000000001
17.25046098232269,2,3,3,3,-9.77,-1.06,-0.17,0.24,0.19,-0.1
17.26046097278595,2,3,3,3,-9.73,-1.02,-0.34,-0.26,0.1,-0.09
17.27046096324921,2,3,3,3,-9.720000000000001,-1.04,-0.42,-0.46,0.12,-0.1
17.28046095371246,2,3,3,3,-9.73,-1.02,-0.47,-0.52,0.13,-0.06
17.29046094417572,2,3,3,3,-9.76,-1.06,-0.4,-0.52,0.13,-0.06
17.30046093463898,2,3,3,3,-9.75,-1.05,-0.55,-0.49,0.14,-0.04
17.31046092510223,2,3,3,3,-9.74,-1.09,-0.62,-0.2,-0.05,0.29
17.32046091556549,2,3,3,3,-9.75,-1.13,-0.46,0.12,-0.05,0.36
17.33046090602875,2,3,3,3,-9.74,-1.14,-0.39,0.32,-0.05,0.4
17.340460896492,2,3,3,3,-9.710000000000001,-1.16,-0.41,0.32,-0.05,0.4
17.35046088695526,2,3,3,3,-9.73,-1.18,-0.36,0.5,-0.06,0.36
17.36046087741852,2,3,3,3,-9.73,-1.21,-0.42,0.54,-0.27,0.31
17.37046086788177,2,3,3,3,-9.699999999999999,-1.19,-0.46,0.61,-0.29,0.24
17.38046085834503,2,3,3,3,-9.699999999999999,-1.19,-0.47,0.73,-0.23,0.2
17.39046108722687,2,3,3,3,-9.77,-1.2,-0.29,0.73,-0.23,0.2
17.42046105861664,2,3,3,3,-9.68,-1.2,-0.5,0.52,-0.06,0.12
17.4304610490799,2,3,3,3,-9.69,-1.18,-0.34,0.57,-0.04,0.16
17.44046103954315,2,3,3,3,-9.68,-1.18,-0.37,0.57,-0.04,0.16
17.45046103000641,2,3,3,3,-9.65,-1.14,-0.45,0.66,-0.12,0.33
17.46046102046967,2,3,3,3,-9.67,-1.12,-0.53,1.07,-0.45,0.83
17.47046101093292,2,3,3,3,-9.81,-1.11,-0.38,1.24,-0.45,0.9
17.48046100139618,2,3,3,3,-9.81,-1.11,-0.38,1.38,-0.39,0.92
17.49046099185944,2,3,3,3,-9.82,-0.98,-0.19,1.38,-0.39,0.92
17.50046098232269,2,3,3,3,-9.76,-0.91,-0.32,1.6,-0.42,0.89
17.51046097278595,2,3,3,3,-9.73,-0.87,0.08,1.96,-0.35,0.64
17.52046096324921,2,3,3,3,-9.699999999999999,-0.84,0.02,1.64,-0.36,0.49
17.53046095371246,2,3,3,3,-9.710000000000001,-0.82,-0.08,1.35,-0.26,0.33
17.54046094417572,2,3,3,3,-9.720000000000001,-0.82,-0.17,1.35,-0.26,0.33
17.55046093463898,2,3,3,3,-9.779999999999999,-0.83,-0.31,1.16,-0.16,0.2
17.56046092510223,2,3,3,3,-9.74,-0.82,-0.33,1.14,0.01,0.02
17.57046091556549,2,3,3,3,-9.84,-0.71,-0.18,1.13,0.05,0.01
17.58046090602875,2,3,3,3,-9.84,-0.71,-0.18,1.17,0.03,0.06
17.590460896492,2,3,3,3,-9.77,-0.6899999999999999,-0.48,1.17,0.03,0.06
17.60046088695526,2,3,3,3,-9.720000000000001,-0.71,-0.46,1.16,0.04,0.06
17.61046087741852,2,3,3,3,-9.77,-0.68,-0.25,0.87,-0.15,0.14
17.62046086788177,2,3,3,3,-9.720000000000001,-0.57,-0.23,0.64,-0.28,0.18
17.63046085834503,2,3,3,3,-9.699999999999999,-0.55,-0.32,0.47,-0.37,0.17
17.64046108722687,2,3,3,3,-9.699999999999999,-0.57,-0.35,0.47,-0.37,0.17
17.65046107769012,2,3,3,3,-9.75,-0.55,-0.2,0.39,-0.31,0.11
17.66046106815338,2,3,3,3,-9.699999999999999,-0.57,-0.38,-0.05,-0.23,0.04
17.67046105861664,2,3,3,3,-9.779999999999999,-0.55,-0.33,-0.09,-0.2,-0.02
17.6804610490799,2,3,3,3,-9.77,-0.59,-0.29,-0.12,-0.11,-0.09
17.69046103954315,2,3,3,3,-9.74,-0.6,-0.45,-0.03,-0.09,-0.07000000000000001
17.70046103000641,2,3,3,3,-9.73,-0.62,-0.36,-0.05,-0.1,-0.05
17.71046102046967,2,3,3,3,-9.699999999999999,-0.6,-0.43,-0.09,-0.14,-0.03
17.72046101093292,2,3,3,3,-9.67,-0.62,-0.38,-0.11,-0.16,-0.04
17.73046100139618,2,3,3,3,-9.68,-0.6,-0.38,-0.09,-0.09,-0.07000000000000001
17.74046099185944,2,3,3,3,-9.720000000000001,-0.64,-0.31,-0.08,-0.1,-0.09
17.75046098232269,2,3,3,3,-9.76,-0.67,-0.53,-0.16,-0.11,-0.17
17.76046097278595,2,3,3,3,-9.800000000000001,-0.67,-0.3,-0.27,-0.06,-0.21
17.77046096324921,2,3,3,3,-9.75,-0.6899999999999999,-0.12,-0.55,-0.04,-0.28
17.78046095371246,2,3,3,3,-9.75,-0.6899999999999999,-0.12,-0.87,0.02,-0.34
17.79046094417572,2,3,3,3,-9.720000000000001,-0.67,-0.27,-0.87,0.02,-0.34
17.80046093463898,2,3,3,3,-9.67,-0.71,-0.44,-1.14,0.08,-0.42
17.81046092510223,2,3,3,3,-9.720000000000001,-0.8100000000000001,-0.22,-1.27,0.26,-0.5
17.82046091556549,2,3,3,3,-9.74,-0.8,-0.17,-1.32,0.18,-0.48
17.83046090602875,2,3,3,3,-9.74,-0.89,-0.17,-1.22,0.02,-0.36
17.840460896492,2,3,3,3,-9.779999999999999,-0.9,-0.11,-1.22,0.02,-0.36
17.85046088695526,2,3,3,3,-9.789999999999999,-0.89,-0.59,-1.1,-0.13,-0.22
17.86046087741852,2,3,3,3,-9.73,-0.9399999999999999,-0.49,-0.67,-0.14,-0.14
17.87046086788177,2,3,3,3,-9.67,-0.95,-0.45,-0.5,-0.02,-0.07000000000000001
17.88046085834503,2,3,3,3,-9.619999999999999,-0.96,-0.42,-0.26,0.06,-0.03
17.89046108722687,2,3,3,3,-9.720000000000001,-0.99,-0.2,-0.26,0.06,-0.03
17.90046107769012,2,3,3,3,-9.77,-0.98,-0.16,-0.09,0.14,-0.03
17.91046106815338,2,3,3,3,-9.800000000000001,-0.9399999999999999,-0.17,-0.24,0.01,-0.05
17.92046105861664,2,3,3,3,-9.77,-0.92,-0.29,-0.15,0.03,-0.09
17.9304610490799,2,3,3,3,-9.75,-0.91,-0.33,-0.16,0,-0.18
17.94046103954315,2,3,3,3,-9.73,-0.87,-0.41,-0.13,0.07000000000000001,-0.22
17.95046103000641,2,3,3,3,-9.68,-0.87,-0.47,-0.08,0.15,-0.28
17.96046102046967,2,3,3,3,-9.75,-0.86,-0.21,-0.09,0.22,-0.32
17.97046101093292,2,3,3,3,-9.720000000000001,-0.9,-0.08,-0.09,0.22,-0.32
17.98046100139618,2,3,3,3,-9.720000000000001,-0.9,-0.08,-0.57,0.33,-0.42
17.99046099185944,2,3,3,3,-9.699999999999999,-0.93,-0.19,-0.57,0.33,-0.42
18.00046098232269,2,3,3,3,-9.779999999999999,-0.9399999999999999,-0.4,-0.83,0.2,-0.46
18.01046097278595,2,3,3,3,-9.779999999999999,-0.96,-0.26,-0.88,0.19,-0.5
18.02046096324921,2,3,3,3,-9.789999999999999,-0.95,-0.07000000000000001,-0.86,0.15,-0.48
18.03046095371246,2,3,3,3,-9.710000000000001,-0.99,-0.14,-0.72,0.13,-0.5
18.04046094417572,2,3,3,3,-9.710000000000001,-1.09,0.02,-0.72,0.13,-0.5
18.05046093463898,2,3,3,3,-9.609999999999999,-1.09,-0.27,-0.73,0.16,-0.47
18.06046092510223,2,3,3,3,-9.58,-1.09,-0.37,-0.76,0.24,-0.44
18.07046091556549,2,3,3,3,-9.65,-1.09,-0.22,-0.6,0.25,-0.39
18.08046090602875,2,3,3,3,-9.65,-1.09,-0.22,-0.6,0.25,-0.39
18.090460896492,2,3,3,3,-9.68,-1.09,-0.33,-0.5,0.24,-0.32
18.10046088695526,2,3,3,3,-9.800000000000001,-1.16,-0.03,-0.3,0.16,-0.26
18.11046087741852,2,3,3,3,-9.800000000000001,-1.17,-0.17,-0.33,0.11,-0.23
18.12046086788177,2,3,3,3,-9.800000000000001,-1.22,-0.07000000000000001,-0.53,0,-0.17
18.13046085834503,2,3,3,3,-9.800000000000001,-1.22,-0.07000000000000001,-0.78,-0.07000000000000001,-0.24
18.14046108722687,2,3,3,3,-9.68,-1.2,-0.26,-0.78,-0.07000000000000001,-0.24
18.15046107769012,2,3,3,3,-9.710000000000001,-1.21,-0.15,-0.8,-0.07000000000000001,-0.28
18.16046106815338,2,3,3,3,-9.67,-1.3,-0.11,-0.83,-0.18,-0.32
18.17046105861664,2,3,3,3,-9.67,-1.31,-0.29,-0.91,-0.32,-0.33
18.1804610490799,2,3,3,3,-9.67,-1.31,-0.29,-0.37,-0.31,-0.25
18.19046103954315,2,3,3,3,-9.720000000000001,-1.37,-0.34,-0.37,-0.31,-0.25
18.20146095752716,2,3,3,3,-9.85,-1.4,0.02,0.04,-0.33,-0.15
18.21146094799042,2,3,3,3,-9.75,-1.42,0.01,0.6899999999999999,-0.34,-0.15
18.22146093845367,2,3,3,3,-9.75,-1.53,0.25,0.66,-0.44,-0.14
18.23146092891693,2,3,3,3,-9.75,-1.53,0.25,0.77,-0.52,-0.06
18.24146091938019,2,3,3,3,-9.52,-1.39,-0.22,0.77,-0.52,-0.06
18.25146090984344,2,3,3,3,-9.52,-1.36,-0.25,1.19,-0.46,-0.01
18.2614609003067,2,3,3,3,-9.619999999999999,-1.41,-0.03,1.69,-0.32,0.02
18.27146089076996,2,3,3,3,-9.65,-1.43,-0.23,2.05,-0.24,0.06
18.28146088123322,2,3,3,3,-9.65,-1.43,-0.23,2.06,-0.22,0.09
18.29146087169647,2,3,3,3,-9.76,-1.45,-0.41,2.06,-0.22,0.09
18.30146086215973,2,3,3,3,-9.85,-1.48,-0.31,2.26,-0.25,0.15
18.31146109104156,2,3,3,3,-9.77,-1.31,-0.4,2.36,-0.31,0.16
18.32146108150482,2,3,3,3,-9.65,-1.33,-0.57,2.47,-0.35,0.25
18.33146107196808,2,3,3,3,-9.65,-1.33,-0.57,2.47,-0.35,0.25
18.34146106243134,2,3,3,3,-9.640000000000001,-1.34,-0.32,2.99,-0.27,0.51
18.35146105289459,2,3,3,3,-9.42,-1.42,-0.66,2.98,-0.27,0.5600000000000001
18.36146104335785,2,3,3,3,-9.5,-1.35,-0.66,3.37,-0.17,0.73
18.37146103382111,2,3,3,3,-9.5,-1.34,-0.83,3.37,-0.17,0.73
18.38146102428436,2,3,3,3,-9.5,-1.34,-0.83,3.37,-0.17,0.73
18.39146101474762,2,3,3,3,-9.67,-1.39,-0.82,4.23,-0.19,0.82
18.40146100521088,2,3,3,3,-9.699999999999999,-1.42,-1.05,4.75,-0.19,0.93
18.41146099567413,2,3,3,3,-9.710000000000001,-1.35,-1.01,5.22,-0.18,0.96
18.42146098613739,2,3,3,3,-9.720000000000001,-1.27,-1.23,5.62,-0.1,0.9
18.43146097660065,2,3,3,3,-9.720000000000001,-1.27,-1.23,5.62,-0.1,0.9
18.4414609670639,2,3,3,3,-9.68,-1.34,-1.36,6.33,-0.25,0.45
18.45146095752716,2,3,3,3,-9.81,-1.2,-1.29,6.67,-0.31,0.19
18.46146094799042,2,3,3,3,-10.11,-1.17,-1.22,6.88,-0.46,-0.09
18.47146093845367,2,3,3,3,-10.09,-1.1,-1.2,7.09,-0.77,-0.37
18.48146092891693,2,3,3,3,-10.09,-1.1,-1.2,7.09,-0.77,-0.37
18.49146091938019,2,3,3,3,-10.14,-0.95,-1.26,6.76,-0.89,-0.83
18.50146090984344,2,3,3,3,-10.03,-1,-1.23,6.64,-0.75,-1.01
18.5114609003067,2,3,3,3,-10.03,-1.06,-1.17,6.6,-0.24,-1.14
18.52146089076996,2,3,3,3,-10.06,-1.09,-1.1,6.6,-0.24,-1.14
18.53146088123322,2,3,3,3,-10.06,-1.09,-1.1,6.6,-0.24,-1.14
18.54146087169647,2,3,3,3,-10.01,-1.2,-1.17,7.39,0.3,-0.95
18.55146086215973,2,3,3,3,-9.800000000000001,-1.38,-1.4,7.97,0.61,-0.73
18.56146109104156,2,3,3,3,-9.890000000000001,-1.36,-1.43,8.380000000000001,1.04,-0.44
18.57146108150482,2,3,3,3,-9.890000000000001,-1.69,-1.35,9,1.51,-0.16
18.58146107196808,2,3,3,3,-9.890000000000001,-1.69,-1.35,9,1.51,-0.16
18.59146106243134,2,3,3,3,-9.85,-1.72,-1.34,11.05,1.85,0.48
18.60146105289459,2,3,3,3,-9.65,-1.9,-1.48,12.37,1.92,0.8100000000000001
18.61146104335785,2,3,3,3,-9.449999999999999,-1.69,-1.43,13.74,1.9,1.14
18.62146103382111,2,3,3,3,-9.449999999999999,-1.69,-1.43,15.01,1.87,1.33
18.63146102428436,2,3,3,3,-9.460000000000001,-1.53,-1.45,15.01,1.87,1.33
18.64146101474762,2,3,3,3,-9.5,-1.46,-1.29,15.97,1.79,1.43
18.65146100521088,2,3,3,3,-9.51,-1.28,-1.22,17.32,1.76,1.34
18.66146099567413,2,3,3,3,-9.75,-1.16,-1.36,17.59,1.63,1.17
18.67146098613739,2,3,3,3,-9.83,-1.2,-1.34,17.71,1.42,1
18.68146097660065,2,3,3,3,-9.800000000000001,-1.32,-1.4,17.71,1.42,1
18.6914609670639,2,3,3,3,-9.720000000000001,-1.18,-1.55,17.99,0.98,0.77
18.70146095752716,2,3,3,3,-9.68,-0.91,-1.89,18.2,0.92,0.68
18.71146094799042,2,3,3,3,-9.699999999999999,-0.74,-1.9,18.4,0.9,0.66
18.72146093845367,2,3,3,3,-9.710000000000001,-0.68,-1.79,18.62,0.89,0.68
18.73146092891693,2,3,3,3,-9.76,-0.68,-1.68,18.62,0.89,0.68
18.74146091938019,2,3,3,3,-9.83,-0.7,-1.41,19.31,0.61,0.88
18.75146090984344,2,3,3,3,-9.82,-0.54,-1.46,19.62,0.31,0.98
18.7614609003067,2,3,3,3,-9.779999999999999,-0.31,-1.61,19.67,0.08,1.07
18.77146089076996,2,3,3,3,-9.710000000000001,-0.09,-1.36,19.54,0.03,1.08
18.78146088123322,2,3,3,3,-9.539999999999999,0.35,-1.02,19.54,0.03,1.08
18.79146087169647,2,3,3,3,-9.49,0.62,-0.85,17.85,-0.3,0.88
18.80146086215973,2,3,3,3,-9.48,0.85,-0.89,16.51,-0.4,0.7
18.82146108150482,2,3,3,3,-9.699999999999999,0.91,-1.24,13.35,-0.55,0.03
18.83146107196808,2,3,3,3,-9.890000000000001,0.68,-1.12,13.35,-0.55,0.03
18.84146106243134,2,3,3,3,-10.02,0.5,-0.9399999999999999,10.45,-0.64,-0.83
18.85146105289459,2,3,3,3,-10.27,0.01,-0.82,9.02,-0.7,-1.39
18.86146104335785,2,3,3,3,-10.23,-0.47,-0.66,7.85,-0.8,-1.73
18.87146103382111,2,3,3,3,-10,-0.91,-0.68,7.19,-0.72,-1.9
18.88146102428436,2,3,3,3,-9.789999999999999,-1.18,-0.64,7.19,-0.72,-1.9
18.89146101474762,2,3,3,3,-9.48,-1.32,-0.58,7.02,-0.47,-1.84
18.90146100521088,2,3,3,3,-9.460000000000001,-1.17,-0.71,6.79,0.36,-1.49
18.91146099567413,2,3,3,3,-9.56,-1.16,-0.68,6.34,0.75,-1.32
18.92146098613739,2,3,3,3,-9.68,-1.4,-0.3,5.9,0.79,-1.31
18.9414609670639,2,3,3,3,-9.81,-2.43,-0.5,5.56,0.65,-1.53
18.95146095752716,2,3,3,3,-9.9,-2.8,-0.54,6.32,0.28,-2.03
18.96146094799042,2,3,3,3,-9.970000000000001,-3.11,-0.66,7.32,0.03,-2.18
18.97146093845367,2,3,3,3,-9.75,-3.6,-0.49,8.720000000000001,-0.35,-2.22
18.98146092891693,2,3,3,3,-9.51,-3.54,-0.55,8.720000000000001,-0.35,-2.22
18.99146091938019,2,3,3,3,-9.27,-3.23,-0.7,11.64,-0.8,-2.17
19.00146090984344,2,3,3,3,-9,-2.81,-0.66,12.92,-0.71,-2.08
19.0114609003067,2,3,3,3,-8.98,-2.6,-0.58,14.53,-0.26,-1.79
19.02146089076996,2,3,3,3,-9.09,-2.42,-0.12,16.59,0.23,-1.35
