timestamp,magCalib,accCalib,gyrCalib,sysCalib,accX,accY,accZ,gyrX,gyrY,gyrZ
0.04546105861663818,2,3,3,3,-9.470000000000001,1.72,0.89,0.49,0.61,0.15
0.05546104907989502,2,3,3,3,-9.550000000000001,1.72,0.97,0.51,0.58,0.12
0.06546103954315186,2,3,3,3,-9.85,1.79,0.83,0.41,0.34,0.09
0.07546103000640869,2,3,3,3,-9.859999999999999,1.8,0.77,0.26,0.11,0.12
0.08546102046966553,2,3,3,3,-9.74,1.82,0.64,0.1,-0.01,0.12
0.09546101093292236,2,3,3,3,-9.58,1.83,0.72,-0.07000000000000001,-0.05,0.07000000000000001
0.1054610013961792,2,3,3,3,-9.42,1.9,0.8100000000000001,-0.25,-0.05,0.05
0.115460991859436,2,3,3,3,-9.49,1.87,0.78,-0.39,0.05,0.07000000000000001
0.1254609823226929,2,3,3,3,-9.550000000000001,1.86,0.8100000000000001,-0.46,0.06,0.07000000000000001
0.1354609727859497,2,3,3,3,-9.529999999999999,1.79,0.65,-0.49,0.11,0.11
0.1454609632492065,2,3,3,3,-9.52,1.75,0.74,-0.54,0.17,0.12
0.1554609537124634,2,3,3,3,-9.529999999999999,1.73,0.79,-0.57,0.22,0.13
0.1654609441757202,2,3,3,3,-9.550000000000001,1.67,0.88,-0.54,0.17,0.16
0.1754609346389771,2,3,3,3,-9.59,1.66,0.79,-0.51,0.13,0.18
0.1854609251022339,2,3,3,3,-9.619999999999999,1.67,0.68,-0.46,0.12,0.2
0.1954609155654907,2,3,3,3,-9.619999999999999,1.67,0.76,-0.45,0.11,0.21
0.2054609060287476,2,3,3,3,-9.619999999999999,1.64,0.76,-0.34,0.12,0.22
0.2154608964920044,2,3,3,3,-9.619999999999999,1.64,0.76,-0.28,0.12,0.18
0.2254608869552612,2,3,3,3,-9.59,1.67,0.87,-0.24,0.19,0.19
0.2354608774185181,2,3,3,3,-9.56,1.7,0.75,-0.18,0.17,0.15
0.2454608678817749,2,3,3,3,-9.529999999999999,1.69,0.77,-0.16,0.15,0.13
0.2554608583450317,2,3,3,3,-9.57,1.67,0.89,-0.17,0.17,0.11
0.2654610872268677,2,3,3,3,-9.57,1.67,0.89,-0.19,0.14,0.07000000000000001
0.2754610776901245,2,3,3,3,-9.58,1.7,0.77,-0.25,0.11,0.07000000000000001
0.2854610681533813,2,3,3,3,-9.640000000000001,1.73,0.58,-0.3,0.05,0.06
0.2954610586166382,2,3,3,3,-9.630000000000001,1.72,0.64,-0.32,0.06,0.01
0.305461049079895,2,3,3,3,-9.619999999999999,1.72,0.6899999999999999,-0.33,0,-0.02
0.3154610395431519,2,3,3,3,-9.619999999999999,1.72,0.6899999999999999,-0.33,0,-0.02
0.3254610300064087,2,3,3,3,-9.6,1.71,0.73,-0.33,-0.06,0
0.3354610204696655,2,3,3,3,-9.529999999999999,1.64,0.73,-0.25,0.01,-0.02
0.3454610109329224,2,3,3,3,-9.56,1.63,0.79,-0.18,-0.02,-0.01
0.3554610013961792,2,3,3,3,-9.56,1.6,0.78,-0.16,-0.01,0.04
0.365460991859436,2,3,3,3,-9.56,1.6,0.78,-0.16,-0.01,0.04
0.3754609823226929,2,3,3,3,-9.59,1.63,0.76,-0.04,0.06,0.11
0.3854609727859497,2,3,3,3,-9.6,1.64,0.71,-0.05,0.07000000000000001,0.14
0.3954609632492065,2,3,3,3,-9.6,1.65,0.62,0.05,0.03,0.11
0.4054609537124634,2,3,3,3,-9.57,1.65,0.66,0.02,0.04,0.11
0.4154609441757202,2,3,3,3,-9.58,1.7,0.68,-0.03,0.05,0.12
0.4254609346389771,2,3,3,3,-9.56,1.72,0.73,-0.07000000000000001,0.03,0.07000000000000001
0.4454609155654907,2,3,3,3,-9.58,1.74,0.6899999999999999,-0.11,0.04,0.04
0.4554609060287476,2,3,3,3,-9.57,1.72,0.76,-0.09,0.08,0
0.4654608964920044,2,3,3,3,-9.550000000000001,1.73,0.78,-0.09,0.08,0
0.4754608869552612,2,3,3,3,-9.57,1.72,0.76,0.07000000000000001,0.06,0.04
0.4854608774185181,2,3,3,3,-9.6,1.68,0.72,0.04,0.04,0.05
0.4954608678817749,2,3,3,3,-9.59,1.67,0.7,0,0.02,0.04
0.5054608583450317,2,3,3,3,-9.59,1.7,0.75,-0.11,-0.01,0.05
0.5154610872268677,2,3,3,3,-9.58,1.71,0.75,-0.11,-0.01,0.05
0.5254610776901245,2,3,3,3,-9.57,1.68,0.79,-0.21,0.07000000000000001,0.1
0.5354610681533813,2,3,3,3,-9.57,1.63,0.78,-0.22,0.12,0.14
0.5454610586166382,2,3,3,3,-9.57,1.64,0.6899999999999999,-0.17,0.21,0.2
0.555461049079895,2,3,3,3,-9.58,1.67,0.68,-0.11,0.23,0.24
0.5654610395431519,2,3,3,3,-9.6,1.71,0.71,-0.11,0.23,0.24
0.5764609575271606,2,3,3,3,-9.609999999999999,1.72,0.7,-0.12,0.16,0.17
0.5864609479904175,2,3,3,3,-9.619999999999999,1.75,0.76,-0.06,0.08,0.1
0.5964609384536743,2,3,3,3,-9.65,1.73,0.64,-0.1,0,0.06
0.6064609289169312,2,3,3,3,-9.58,1.74,0.66,-0.11,-0.06,0.01
0.616460919380188,2,3,3,3,-9.539999999999999,1.75,0.66,-0.11,-0.06,0.01
0.6264609098434448,2,3,3,3,-9.51,1.74,0.73,-0.02,-0.08,-0.11
0.6364609003067017,2,3,3,3,-9.58,1.75,0.6899999999999999,-0.04,-0.12,-0.14
0.6464608907699585,2,3,3,3,-9.57,1.75,0.65,-0.04,-0.17,-0.17
0.6564608812332153,2,3,3,3,-9.58,1.75,0.65,-0.06,-0.16,-0.15
0.6664608716964722,2,3,3,3,-9.56,1.73,0.73,-0.06,-0.16,-0.15
0.676460862159729,2,3,3,3,-9.539999999999999,1.75,0.8,-0.09,-0.08,-0.15
0.6864610910415649,2,3,3,3,-9.539999999999999,1.73,0.79,-0.06,-0.08,-0.16
0.6964610815048218,2,3,3,3,-9.550000000000001,1.72,0.65,-0.02,-0.06,-0.19
0.7064610719680786,2,3,3,3,-9.59,1.77,0.64,0.01,-0.02,-0.16
0.7164610624313354,2,3,3,3,-9.640000000000001,1.79,0.72,0.01,-0.02,-0.16
0.7264610528945923,2,3,3,3,-9.619999999999999,1.74,0.78,-0.13,0,-0.13
0.7364610433578491,2,3,3,3,-9.6,1.74,0.76,-0.15,0.01,-0.08
0.746461033821106,2,3,3,3,-9.58,1.73,0.61,-0.2,-0.01,-0.08
0.7564610242843628,2,3,3,3,-9.529999999999999,1.73,0.63,-0.25,-0.01,-0.09
0.7764610052108765,2,3,3,3,-9.59,1.69,0.73,-0.29,0.04,-0.07000000000000001
0.7864609956741333,2,3,3,3,-9.6,1.72,0.72,-0.31,-0.03,-0.07000000000000001
0.7964609861373901,2,3,3,3,-9.6,1.71,0.6899999999999999,-0.28,-0.05,-0.04
0.806460976600647,2,3,3,3,-9.59,1.71,0.7,-0.28,-0.08,-0.05
0.8164609670639038,2,3,3,3,-9.57,1.68,0.74,-0.28,-0.08,-0.05
0.8264609575271606,2,3,3,3,-9.529999999999999,1.7,0.78,-0.27,-0.06,-0.06
0.8364609479904175,2,3,3,3,-9.52,1.72,0.74,-0.2,0.03,0
0.8464609384536743,2,3,3,3,-9.5,1.71,0.64,-0.22,0.05,0.01
0.8564609289169312,2,3,3,3,-9.52,1.7,0.63,-0.22,0.08,0.01
0.866460919380188,2,3,3,3,-9.619999999999999,1.67,0.73,-0.22,0.08,0.01
0.8764609098434448,2,3,3,3,-9.640000000000001,1.66,0.78,-0.15,0.04,0.04
0.8864609003067017,2,3,3,3,-9.6,1.66,0.8,-0.06,0.01,0.06
0.8964608907699585,2,3,3,3,-9.56,1.69,0.71,-0.03,-0.01,0.09
0.9064608812332153,2,3,3,3,-9.529999999999999,1.68,0.65,0,0.05,0.11
0.9164608716964722,2,3,3,3,-9.5,1.72,0.7,0.01,0.04,0.07000000000000001
0.926460862159729,2,3,3,3,-9.5,1.73,0.74,0.03,0.05,0.04
0.9364610910415649,2,3,3,3,-9.52,1.69,0.73,0.02,0.1,0.02
0.9464610815048218,2,3,3,3,-9.539999999999999,1.69,0.67,0.04,0.14,0.04
0.9564610719680786,2,3,3,3,-9.539999999999999,1.67,0.66,0.07000000000000001,0.1,0.05
0.9664610624313354,2,3,3,3,-9.550000000000001,1.67,0.72,0.21,0.08,0.07000000000000001
0.9764610528945923,2,3,3,3,-9.58,1.69,0.76,0.24,0.07000000000000001,0.07000000000000001
0.9864610433578491,2,3,3,3,-9.609999999999999,1.7,0.7,0.29,0.03,0.08
0.996461033821106,2,3,3,3,-9.609999999999999,1.7,0.59,0.35,-0.02,0.06
1.006461024284363,2,3,3,3,-9.66,1.7,0.59,0.37,0.03,0.05
1.01646101474762,2,3,3,3,-9.640000000000001,1.77,0.66,0.25,0.03,0.03
1.026461005210876,2,3,3,3,-9.640000000000001,1.77,0.64,0.14,-0.02,0.01
1.036460995674133,2,3,3,3,-9.619999999999999,1.73,0.6899999999999999,0.05,0.03,-0.03
1.04646098613739,2,3,3,3,-9.6,1.74,0.61,0.02,-0.02,-0.07000000000000001
1.056460976600647,2,3,3,3,-9.539999999999999,1.63,0.73,0.04,-0.02,-0.1
1.076460957527161,2,3,3,3,-9.56,1.6,0.82,0.24,-0.07000000000000001,-0.11
1.086460947990417,2,3,3,3,-9.58,1.62,0.83,0.36,-0.05,-0.08
1.096460938453674,2,3,3,3,-9.609999999999999,1.6,0.61,0.44,-0.04,-0.03
1.106460928916931,2,3,3,3,-9.609999999999999,1.66,0.63,0.43,-0.02,0.03
1.116460919380188,2,3,3,3,-9.58,1.68,0.68,0.44,0.01,0.07000000000000001
1.126460909843445,2,3,3,3,-9.539999999999999,1.73,0.74,0.47,0,0.1
1.136460900306702,2,3,3,3,-9.56,1.75,0.7,0.44,0.03,0.1
1.146460890769958,2,3,3,3,-9.59,1.75,0.61,0.36,0.08,0.12
1.156460881233215,2,3,3,3,-9.619999999999999,1.74,0.64,0.34,0.08,0.14
1.166460871696472,2,3,3,3,-9.6,1.74,0.6899999999999999,0.25,0.04,0.13
1.176460862159729,2,3,3,3,-9.57,1.74,0.72,0.23,-0.01,0.11
1.186461091041565,2,3,3,3,-9.539999999999999,1.7,0.6899999999999999,0.2,0.01,0.1
1.196461081504822,2,3,3,3,-9.52,1.7,0.5600000000000001,0.36,0.02,0.14
1.206461071968079,2,3,3,3,-9.48,1.71,0.68,0.42,0.04,0.14
1.216461062431335,2,3,3,3,-9.52,1.76,0.65,0.38,0.07000000000000001,0.16
1.226461052894592,2,3,3,3,-9.539999999999999,1.8,0.6899999999999999,0.38,0.08,0.14
1.236461043357849,2,3,3,3,-9.550000000000001,1.8,0.72,0.44,0.04,0.13
1.246461033821106,2,3,3,3,-9.56,1.75,0.8100000000000001,0.44,0.03,0.13
1.256461024284363,2,3,3,3,-9.539999999999999,1.78,0.66,0.43,-0.05,0.12
1.26646101474762,2,3,3,3,-9.56,1.77,0.57,0.58,-0.11,0.14
1.276461005210876,2,3,3,3,-9.539999999999999,1.79,0.67,0.63,-0.18,0.15
1.286460995674133,2,3,3,3,-9.51,1.78,0.65,0.83,-0.25,0.23
1.29646098613739,2,3,3,3,-9.52,1.78,0.6,1.14,-0.29,0.23
1.306460976600647,2,3,3,3,-9.49,1.82,0.59,1.27,-0.35,0.26
1.316460967063904,2,3,3,3,-9.52,1.81,0.65,1.5,-0.39,0.28
1.326460957527161,2,3,3,3,-9.609999999999999,1.95,0.82,1.6,-0.43,0.31
1.336460947990417,2,3,3,3,-9.56,2.04,0.82,1.82,-0.8100000000000001,0.43
1.346460938453674,2,3,3,3,-9.44,1.99,0.52,2.5,-1.15,0.68
1.356460928916931,2,3,3,3,-9.57,1.82,0.62,2.72,-1.13,0.75
1.366460919380188,2,3,3,3,-9.630000000000001,1.77,0.64,2.28,-1.08,0.64
1.376460909843445,2,3,3,3,-9.74,1.79,0.66,1.6,-1.01,0.48
1.386460900306702,2,3,3,3,-9.75,1.77,0.67,0.9399999999999999,-0.96,0.27
1.396460890769958,2,3,3,3,-9.699999999999999,1.64,0.59,0.54,-0.83,0.11
1.406460881233215,2,3,3,3,-9.630000000000001,1.64,0.73,0.23,-0.7,0.04
1.416460871696472,2,3,3,3,-9.619999999999999,1.68,0.95,0.04,-0.64,-0.06
1.426460862159729,2,3,3,3,-9.43,1.73,0.92,0.21,-0.74,-0.05
1.436461091041565,2,3,3,3,-9.369999999999999,1.67,0.76,0.7,-0.77,0.03
1.446461081504822,2,3,3,3,-9.369999999999999,1.67,0.62,0.84,-0.64,0.09
1.456461071968079,2,3,3,3,-9.369999999999999,1.76,0.67,0.8100000000000001,-0.46,0.1
1.466461062431335,2,3,3,3,-9.24,1.91,0.62,0.91,-0.38,0.11
1.476461052894592,2,3,3,3,-9.16,1.97,0.54,1.02,-0.26,0.18
1.486461043357849,2,3,3,3,-9.15,2.08,0.53,1.05,-0.14,0.24
1.496461033821106,2,3,3,3,-9.18,2.09,0.47,0.99,-0.12,0.26
1.506461024284363,2,3,3,3,-9.43,1.99,0.42,0.82,-0.25,0.25
1.51646101474762,2,3,3,3,-9.640000000000001,2.07,0.46,0.59,-0.51,0.17
1.526461005210876,2,3,3,3,-9.85,2.18,0.46,0.24,-0.73,0.07000000000000001
1.536460995674133,2,3,3,3,-9.970000000000001,2.27,0.46,-0.14,-0.9,-0.05
1.54646098613739,2,3,3,3,-9.83,2.56,0.44,-0.6,-1.03,-0.3
1.556460976600647,2,3,3,3,-9.779999999999999,2.51,0.54,-0.85,-1.06,-0.5600000000000001
1.566460967063904,2,3,3,3,-9.640000000000001,2.38,0.84,-1.11,-1.17,-0.77
1.576460957527161,2,3,3,3,-9.65,2.24,0.96,-1.55,-1.23,-0.89
1.586460947990417,2,3,3,3,-9.51,1.86,1.09,-1.98,-1.35,-0.88
1.597460865974426,2,3,3,3,-9.4,1.67,0.86,-2.55,-1.39,-0.77
1.607460856437683,2,3,3,3,-9.300000000000001,1.5,1.05,-3.01,-1.14,-0.64
1.617461085319519,2,3,3,3,-9.31,1.22,1.54,-3.3,-0.88,-0.6
1.627461075782776,2,3,3,3,-9.35,1.07,1.49,-3.19,-0.6,-0.58
1.637461066246033,2,3,3,3,-9.4,1.01,1.26,-2.97,-0.41,-0.49
1.64746105670929,2,3,3,3,-9.49,1,1.06,-2.55,-0.14,-0.23
1.657461047172546,2,3,3,3,-9.67,1.07,1.07,-1.99,0.27,0.06
1.667461037635803,2,3,3,3,-9.789999999999999,1.21,1.08,-1.4,0.62,0.35
1.67746102809906,2,3,3,3,-9.779999999999999,1.42,1.14,-0.86,0.77,0.55
1.687461018562317,2,3,3,3,-9.74,1.65,1.19,-0.49,0.96,0.68
1.697461009025574,2,3,3,3,-9.890000000000001,1.85,0.99,-0.34,1.27,0.76
1.707460999488831,2,3,3,3,-9.94,1.89,0.95,-0.62,1.44,0.89
1.717460989952087,2,3,3,3,-9.94,1.91,0.93,-0.97,1.49,1.03
1.727460980415344,2,3,3,3,-9.84,2.03,0.92,-1.33,1.54,1.19
1.737460970878601,2,3,3,3,-9.800000000000001,2.02,0.9399999999999999,-1.58,1.66,1.3
1.747460961341858,2,3,3,3,-9.880000000000001,1.99,0.91,-1.75,1.71,1.34
1.757460951805115,2,3,3,3,-9.960000000000001,1.88,0.92,-1.77,1.64,1.34
1.767460942268372,2,3,3,3,-9.800000000000001,1.71,0.87,-1.71,1.41,1.25
1.777460932731628,2,3,3,3,-9.720000000000001,1.66,0.98,-1.62,1.13,1.15
1.787460923194885,2,3,3,3,-9.630000000000001,1.6,0.95,-1.49,0.96,1.01
1.797460913658142,2,3,3,3,-9.56,1.55,0.76,-1.33,0.83,0.82
1.807460904121399,2,3,3,3,-9.34,1.51,0.7,-1.26,0.59,0.66
1.817460894584656,2,3,3,3,-9.31,1.54,0.72,-1.06,0.46,0.5
1.827460885047913,2,3,3,3,-9.26,1.58,0.72,-0.82,0.43,0.33
1.837460875511169,2,3,3,3,-9.26,1.63,0.7,-0.62,0.36,0.2
1.847460865974426,2,3,3,3,-9.26,1.72,0.59,-0.42,0.3,0.06
1.857460856437683,2,3,3,3,-9.210000000000001,1.83,0.67,-0.21,0.24,-0.05
1.867461085319519,2,3,3,3,-9.199999999999999,1.91,0.75,-0.08,0.17,-0.19
1.877461075782776,2,3,3,3,-9.210000000000001,1.94,0.83,-0.18,0.11,-0.22
1.887461066246033,2,3,3,3,-9.380000000000001,2.03,0.76,-0.42,0.11,-0.22
1.89746105670929,2,3,3,3,-9.49,2.07,0.74,-0.71,0.13,-0.17
1.907461047172546,2,3,3,3,-9.68,2.13,0.83,-0.98,0.21,-0.08
1.917461037635803,2,3,3,3,-9.91,2.01,0.93,-1.1,0.24,0.06
1.92746102809906,2,3,3,3,-9.92,1.94,0.92,-1.13,0.14,0.2
1.937461018562317,2,3,3,3,-9.92,1.94,0.85,-1.24,0.13,0.3
1.947461009025574,2,3,3,3,-9.84,1.9,0.73,-1.27,0.16,0.38
1.957460999488831,2,3,3,3,-9.58,1.89,0.72,-1.18,0.2,0.37
1.967460989952087,2,3,3,3,-9.49,1.87,0.72,-1,0.17,0.26
1.977460980415344,2,3,3,3,-9.460000000000001,1.86,0.73,-0.76,0.16,0.17
1.987460970878601,2,3,3,3,-9.42,1.88,0.6899999999999999,-0.52,0.17,0.1
1.997460961341858,2,3,3,3,-9.529999999999999,1.8,0.6,-0.32,0.18,0.06
2.007460951805115,2,3,3,3,-9.57,1.81,0.67,-0.22,0.1,-0.04
2.017460942268372,2,3,3,3,-9.56,1.86,0.6899999999999999,-0.08,-0.03,-0.11
2.027460932731628,2,3,3,3,-9.52,1.87,0.6899999999999999,0.03,-0.18,-0.17
2.037460923194885,2,3,3,3,-9.41,1.91,0.74,0.06,-0.31,-0.25
2.047460913658142,2,3,3,3,-9.35,1.92,0.68,0,-0.27,-0.26
2.057460904121399,2,3,3,3,-9.369999999999999,1.94,0.73,-0.15,-0.19,-0.3
2.067460894584656,2,3,3,3,-9.44,1.99,0.78,-0.3,-0.09,-0.21
2.097460865974426,2,3,3,3,-9.77,1.93,0.66,-0.42,0.13,0.04
2.107460856437683,2,3,3,3,-9.73,1.97,0.68,-0.42,0.13,0.14
2.117461085319519,2,3,3,3,-9.69,1.97,0.67,-0.33,0.15,0.23
2.127461075782776,2,3,3,3,-9.6,2.01,0.68,-0.27,0.16,0.3
2.137461066246033,2,3,3,3,-9.43,2.01,0.7,-0.23,0.16,0.32
2.14746105670929,2,3,3,3,-9.34,2.04,0.57,-0.17,0.25,0.39
2.157461047172546,2,3,3,3,-9.380000000000001,2.06,0.66,-0.16,0.36,0.38
2.167461037635803,2,3,3,3,-9.460000000000001,2.03,0.64,-0.19,0.39,0.39
2.187461018562317,2,3,3,3,-9.630000000000001,1.95,0.66,-0.31,0.31,0.23
2.197461009025574,2,3,3,3,-9.619999999999999,1.95,0.65,-0.39,0.23,0.12
2.207460999488831,2,3,3,3,-9.51,1.96,0.7,-0.48,0.11,0.04
2.217460989952087,2,3,3,3,-9.42,1.94,0.72,-0.51,0.13,-0.07000000000000001
2.227460980415344,2,3,3,3,-9.33,1.91,0.78,-0.5,0.09,-0.16
2.237460970878601,2,3,3,3,-9.41,1.85,0.76,-0.45,0.12,-0.21
2.247460961341858,2,3,3,3,-9.550000000000001,1.84,0.6899999999999999,-0.54,0.2,-0.21
2.257460951805115,2,3,3,3,-9.710000000000001,1.81,0.83,-0.6,0.18,-0.25
2.267460942268372,2,3,3,3,-9.66,1.85,0.88,-0.54,0.02,-0.22
2.277460932731628,2,3,3,3,-9.6,1.81,0.89,-0.45,-0.11,-0.2
2.287460923194885,2,3,3,3,-9.56,1.79,0.86,-0.37,-0.18,-0.22
2.297460913658142,2,3,3,3,-9.460000000000001,1.8,0.74,-0.25,-0.19,-0.18
2.307460904121399,2,3,3,3,-9.390000000000001,1.8,0.8,-0.11,-0.12,-0.19
2.317460894584656,2,3,3,3,-9.369999999999999,1.8,0.79,0.06,0.04,-0.18
2.327460885047913,2,3,3,3,-9.41,1.79,0.82,0.15,0.2,-0.19
2.337460875511169,2,3,3,3,-9.56,1.84,0.89,0.18,0.26,-0.14
2.347460865974426,2,3,3,3,-9.65,1.84,0.87,0.18,0.24,-0.11
2.357460856437683,2,3,3,3,-9.699999999999999,1.85,0.9,0.1,0.15,-0.07000000000000001
2.367461085319519,2,3,3,3,-9.720000000000001,1.86,0.89,0.1,0.08,0.02
2.377461075782776,2,3,3,3,-9.550000000000001,1.88,0.9,0.13,0.02,0.16
2.387461066246033,2,3,3,3,-9.449999999999999,1.87,0.89,0.17,0.05,0.25
2.39746105670929,2,3,3,3,-9.42,1.86,0.79,0.19,0.11,0.27
2.407461047172546,2,3,3,3,-9.44,1.9,0.76,0.22,0.2,0.3
2.417461037635803,2,3,3,3,-9.52,1.88,0.82,0.26,0.25,0.27
2.42746102809906,2,3,3,3,-9.58,1.89,0.89,0.3,0.21,0.25
2.437461018562317,2,3,3,3,-9.6,1.87,0.87,0.44,0.19,0.24
2.447461009025574,2,3,3,3,-9.619999999999999,1.81,0.7,0.53,0.05,0.23
2.457460999488831,2,3,3,3,-9.6,1.8,0.8100000000000001,0.5600000000000001,-0.06,0.22
2.467460989952087,2,3,3,3,-9.52,1.79,0.92,0.5600000000000001,-0.1,0.22
2.477460980415344,2,3,3,3,-9.48,1.79,0.87,0.63,0,0.22
2.487460970878601,2,3,3,3,-9.41,1.82,0.89,0.72,0.1,0.23
2.517460942268372,2,3,3,3,-9.59,1.83,0.79,0.96,0.08,0.35
2.527460932731628,2,3,3,3,-9.67,1.83,0.84,0.84,0.07000000000000001,0.39
2.537460923194885,2,3,3,3,-9.69,1.82,0.85,0.76,0.09,0.42
2.547460913658142,2,3,3,3,-9.640000000000001,1.85,0.74,0.65,0.07000000000000001,0.45
2.557460904121399,2,3,3,3,-9.630000000000001,1.89,0.71,0.65,0.03,0.42
2.567460894584656,2,3,3,3,-9.56,1.93,0.79,0.67,0,0.38
2.577460885047913,2,3,3,3,-9.56,1.94,0.72,0.74,-0.02,0.35
2.587460875511169,2,3,3,3,-9.5,1.95,0.65,0.92,0.02,0.32
2.597460865974426,2,3,3,3,-9.42,2,0.47,0.98,-0.04,0.24
2.607460856437683,2,3,3,3,-9.48,2.05,0.51,0.91,-0.07000000000000001,0.18
2.617461085319519,2,3,3,3,-9.48,2.08,0.6,0.78,-0.04,0.09
2.628461003303528,2,3,3,3,-9.49,2.1,0.72,0.68,-0.08,0.03
2.638460993766785,2,3,3,3,-9.49,2.1,0.52,0.53,-0.13,-0.05
2.648460984230042,2,3,3,3,-9.460000000000001,2.11,0.45,0.44,-0.25,-0.06
2.658460974693298,2,3,3,3,-9.48,2.12,0.51,0.35,-0.35,-0.11
2.668460965156555,2,3,3,3,-9.48,2.1,0.6,0.25,-0.36,-0.15
2.678460955619812,2,3,3,3,-9.5,2.1,0.5,0.04,-0.25,-0.11
2.688460946083069,2,3,3,3,-9.49,2.07,0.53,0.04,-0.25,-0.11
2.698460936546326,2,3,3,3,-9.539999999999999,2.05,0.48,-0.15,-0.15,-0.09
2.708460927009583,2,3,3,3,-9.630000000000001,1.94,0.53,-0.74,0.13,-0.04
2.718460917472839,2,3,3,3,-9.69,1.91,0.57,-0.86,0.21,0.02
2.728460907936096,2,3,3,3,-9.710000000000001,1.9,0.64,-0.75,0.19,0.06
2.738460898399353,2,3,3,3,-9.67,1.81,0.66,-0.58,0.24,0.09
2.74846088886261,2,3,3,3,-9.57,1.77,0.64,-0.48,0.27,0.18
2.758460879325867,2,3,3,3,-9.52,1.75,0.65,-0.32,0.3,0.21
2.768460869789124,2,3,3,3,-9.48,1.78,0.66,-0.19,0.3,0.23
2.77846086025238,2,3,3,3,-9.48,1.78,0.66,0.01,0.34,0.25
2.788461089134216,2,3,3,3,-9.49,1.85,0.8,0.2,0.31,0.28
2.798461079597473,2,3,3,3,-9.43,1.89,0.75,0.28,0.22,0.22
2.80846107006073,2,3,3,3,-9.42,1.95,0.71,0.27,0.1,0.24
2.818461060523987,2,3,3,3,-9.43,1.95,0.71,0.17,0.06,0.21
2.828461050987244,2,3,3,3,-9.44,2,0.74,-0.06,0.04,0.17
2.8384610414505,2,3,3,3,-9.49,2.02,0.6899999999999999,-0.38,0.06,0.12
2.848461031913757,2,3,3,3,-9.51,2.03,0.64,-0.72,0.09,0.08
2.858461022377014,2,3,3,3,-9.550000000000001,2.02,0.68,-0.98,0.08,0.04
2.868461012840271,2,3,3,3,-9.609999999999999,2.02,0.74,-1.15,0.07000000000000001,0.07000000000000001
2.878461003303528,2,3,3,3,-9.609999999999999,2.02,0.74,-1.15,0.07000000000000001,0.07000000000000001
2.888460993766785,2,3,3,3,-9.630000000000001,2,0.79,-1.24,0.11,0.05
2.898460984230042,2,3,3,3,-9.550000000000001,1.83,0.71,-1.39,-0.04,0.09
2.908460974693298,2,3,3,3,-9.51,1.81,0.75,-1.36,-0.08,0.04
2.918460965156555,2,3,3,3,-9.539999999999999,1.78,0.72,-1.23,-0.06,0.05
2.928460955619812,2,3,3,3,-9.539999999999999,1.78,0.72,-1.23,-0.06,0.05
2.938460946083069,2,3,3,3,-9.59,1.72,0.79,-1.02,-0.07000000000000001,0.1
2.948460936546326,2,3,3,3,-9.59,1.63,0.72,-0.83,-0.21,0.09
2.958460927009583,2,3,3,3,-9.56,1.64,0.7,-0.75,-0.21,0.05
2.968460917472839,2,3,3,3,-9.52,1.67,0.74,-0.65,-0.24,-0.04
2.978460907936096,2,3,3,3,-9.49,1.67,0.83,-0.65,-0.24,-0.04
2.988460898399353,2,3,3,3,-9.44,1.77,1,-0.41,-0.28,-0.07000000000000001
2.99846088886261,2,3,3,3,-9.390000000000001,1.8,0.95,0.38,-0.66,0.06
3.008460879325867,2,3,3,3,-9.34,1.82,0.68,0.6899999999999999,-0.58,0.06
3.018460869789124,2,3,3,3,-9.26,1.76,0.64,0.64,-0.36,0.01
3.02846086025238,2,3,3,3,-9.31,1.79,0.5600000000000001,0.64,-0.36,0.01
3.038461089134216,2,3,3,3,-9.41,1.79,0.55,0.55,-0.18,-0.05
3.048461079597473,2,3,3,3,-9.539999999999999,1.81,0.59,0.58,-0.05,-0.1
3.05846107006073,2,3,3,3,-9.69,1.88,0.62,0.45,-0.07000000000000001,-0.1
3.068461060523987,2,3,3,3,-9.81,1.92,0.71,0.26,-0.07000000000000001,-0.08
3.078461050987244,2,3,3,3,-9.85,1.95,0.77,-0.01,-0.06,-0.1
3.0884610414505,2,3,3,3,-9.81,1.99,0.74,-0.46,-0.14,-0.2
3.098461031913757,2,3,3,3,-9.77,1.91,0.73,-0.84,-0.29,-0.29
3.108461022377014,2,3,3,3,-9.720000000000001,1.87,0.71,-1.01,-0.26,-0.32
3.118461012840271,2,3,3,3,-9.69,1.85,0.75,-0.99,-0.18,-0.26
3.128461003303528,2,3,3,3,-9.6,1.79,0.85,-0.99,-0.18,-0.26
3.138460993766785,2,3,3,3,-9.6,1.73,1.01,-0.9399999999999999,-0.08,-0.22
3.148460984230042,2,3,3,3,-9.56,1.76,0.92,-0.82,0.06,0.01
3.158460974693298,2,3,3,3,-9.57,1.67,0.77,-0.92,0.14,0.12
3.168460965156555,2,3,3,3,-9.58,1.64,0.87,-1.07,0.21,0.13
3.178460955619812,2,3,3,3,-9.52,1.66,0.86,-1.07,0.21,0.13
3.188460946083069,2,3,3,3,-9.49,1.64,0.9,-1.03,0.2,0.11
3.198460936546326,2,3,3,3,-9.460000000000001,1.63,0.9399999999999999,-0.67,0.25,0.05
3.208460927009583,2,3,3,3,-9.43,1.61,0.85,-0.51,0.27,0.03
3.218460917472839,2,3,3,3,-9.390000000000001,1.56,0.95,-0.22,0.26,0.08
3.228460907936096,2,3,3,3,-9.369999999999999,1.65,0.97,-0.22,0.26,0.08
3.238460898399353,2,3,3,3,-9.380000000000001,1.67,0.76,0.16,0.31,0.18
3.24846088886261,2,3,3,3,-9.460000000000001,1.85,0.66,0.6,0.41,0.36
3.258460879325867,2,3,3,3,-9.51,1.88,0.63,0.67,0.46,0.47
3.268460869789124,2,3,3,3,-9.550000000000001,1.93,0.6,0.75,0.48,0.5
3.27846086025238,2,3,3,3,-9.57,1.99,0.62,0.75,0.48,0.5
3.288461089134216,2,3,3,3,-9.51,2.1,0.64,0.76,0.53,0.57
3.298461079597473,2,3,3,3,-9.48,2.13,0.59,0.68,0.49,0.6
3.30846107006073,2,3,3,3,-9.51,2.15,0.49,0.5600000000000001,0.4,0.6
3.318461060523987,2,3,3,3,-9.529999999999999,2.19,0.5,0.45,0.29,0.58
3.328461050987244,2,3,3,3,-9.5,2.19,0.78,0.45,0.29,0.58
3.3384610414505,2,3,3,3,-9.49,2.22,0.73,0.43,0.11,0.54
3.348461031913757,2,3,3,3,-9.52,2.24,0.65,0.9399999999999999,-0.34,0.54
3.358461022377014,2,3,3,3,-9.529999999999999,2.16,0.46,0.91,-0.29,0.45
3.368461012840271,2,3,3,3,-9.44,2.06,0.42,0.79,-0.25,0.34
3.378461003303528,2,3,3,3,-9.449999999999999,2.14,0.49,0.79,-0.25,0.34
3.388460993766785,2,3,3,3,-9.380000000000001,2.16,0.5,0.9399999999999999,-0.24,0.28
3.398460984230042,2,3,3,3,-9.460000000000001,2.43,0.75,1.09,-0.36,0.19
3.408460974693298,2,3,3,3,-9.31,2.45,0.41,2.65,-1,0.55
3.418460965156555,2,3,3,3,-9.16,2.21,0.31,2.45,-0.65,0.5
3.428460955619812,2,3,3,3,-9.140000000000001,2.17,0.31,2.45,-0.65,0.5
3.438460946083069,2,3,3,3,-9.08,2.32,0.31,2,-0.21,0.33
3.448460936546326,2,3,3,3,-9.07,2.41,0.24,1.58,0.03,0.18
3.458460927009583,2,3,3,3,-9.08,2.46,0.1,1.2,0.12,0.03
3.468460917472839,2,3,3,3,-9.16,2.46,0.08,0.77,0.2,-0.03
3.478460907936096,2,3,3,3,-9.25,2.61,-0.16,0.28,0.08,-0.16
3.488460898399353,2,3,3,3,-9.25,2.68,-0.13,-0.07000000000000001,-0.16,-0.24
3.49846088886261,2,3,3,3,-9.23,2.72,0.07000000000000001,-0.36,-0.5,-0.4
3.508460879325867,2,3,3,3,-9.119999999999999,2.83,0.08,-0.78,-0.86,-0.6
3.518460869789124,2,3,3,3,-8.74,2.91,-0.03,-1.42,-1.06,-0.92
3.52846086025238,2,3,3,3,-8.57,2.91,-0.09,-1.93,-1,-1.4
3.538461089134216,2,3,3,3,-8.26,2.93,-0.01,-2.15,-0.79,-1.87
3.548461079597473,2,3,3,3,-7.5,2.86,-0.01,-2.36,-0.42,-2.33
3.55846107006073,2,3,3,3,-7.16,2.73,0.13,-2.4,-0.03,-2.63
3.568461060523987,2,3,3,3,-6.72,2.58,0.34,-2.47,0.21,-2.74
3.578461050987244,2,3,3,3,-6.35,2.38,0.49,-2.71,0.47,-2.68
3.5884610414505,2,3,3,3,-5.83,2.2,0.42,-2.99,0.68,-2.41
3.598461031913757,2,3,3,3,-5.75,1.97,0.22,-3,0.9,-1.89
3.608461022377014,2,3,3,3,-5.73,1.87,-0.02,-2.68,0.87,-1.37
3.618461012840271,2,3,3,3,-5.64,1.84,0.03,-1.92,0.77,-0.76
3.628461003303528,2,3,3,3,-5.74,1.55,0.05,-0.87,0.78,-0.15
3.638460993766785,2,3,3,3,-6.42,1.4,0.43,-0.48,0.84,0.18
3.649460911750793,2,3,3,3,-6.85,1.36,0.47,-1.11,0.2,0.39
3.65946090221405,2,3,3,3,-7.24,1.36,0.35,-1.82,-0.21,0.45
3.669460892677307,2,3,3,3,-7.98,1.61,0.43,-2.19,-0.19,0.48
3.679460883140564,2,3,3,3,-8.449999999999999,1.3,0.6,-2.13,0.27,0.46
3.689460873603821,2,3,3,3,-8.75,1,0.71,-1.87,0.36,0.46
3.699460864067078,2,3,3,3,-8.84,0.83,0.95,-1.37,0.19,0.61
3.709461092948914,2,3,3,3,-8.34,1.35,0.77,-0.63,0.07000000000000001,0.79
3.71946108341217,2,3,3,3,-8.08,1.87,0.72,-0.13,0.08,0.95
3.729461073875427,2,3,3,3,-7.95,2.24,0.5600000000000001,-0.49,0.28,0.97
3.739461064338684,2,3,3,3,-8.720000000000001,2.01,1.26,-1.68,0.38,0.86
3.749461054801941,2,3,3,3,-9.470000000000001,1.53,1.47,-3.25,0.54,0.42
3.759461045265198,2,3,3,3,-10.17,0.97,1.66,-4.37,-0.12,-0.23
3.769461035728455,2,3,3,3,-10.56,0.3,2.02,-4.51,-1.38,-0.86
3.779461026191711,2,3,3,3,-11.69,0.1,2.05,-4.03,-2.03,-1.22
3.789461016654968,2,3,3,3,-11.88,0.29,1.75,-3.32,-2.72,-1.37
3.799461007118225,2,3,3,3,-11.78,0.58,1.55,-2.1,-3.22,-1.24
3.809460997581482,2,3,3,3,-11.4,0.88,1.23,-0.44,-3.3,-0.76
3.819460988044739,2,3,3,3,-10.51,1.05,1.2,0.74,-3.12,-0.31
3.829460978507996,2,3,3,3,-10.27,0.99,1.45,1.36,-3.27,-0.19
3.839460968971252,2,3,3,3,-10.11,0.92,1.71,1.5,-3.43,-0.31
3.849460959434509,2,3,3,3,-10.21,0.9399999999999999,1.71,0.65,-3.14,-0.5
3.859460949897766,2,3,3,3,-11.55,0.88,2.02,-0.44,-2.71,-0.73
3.869460940361023,2,3,3,3,-11.97,0.75,2.47,-1.74,-2.39,-1.09
3.87946093082428,2,3,3,3,-12.67,0.62,2.56,-2.96,-1.64,-1.55
3.889460921287537,2,3,3,3,-13.3,0.55,2.58,-3.57,-1.19,-2.02
3.899460911750793,2,3,3,3,-13.38,0.54,2.69,-3.49,-1.08,-2.44
3.90946090221405,2,3,3,3,-13.2,0.59,2.88,-2.89,-0.97,-2.59
3.919460892677307,2,3,3,3,-13.21,0.6,2.83,-2.02,-0.9,-2.53
3.929460883140564,2,3,3,3,-13.57,0.5600000000000001,2.89,-1.17,-1.48,-2.53
3.939460873603821,2,3,3,3,-13.87,0.82,2.9,-0.99,-1.8,-2.58
3.949460864067078,2,3,3,3,-14.46,1.04,2.96,-1,-1.62,-2.46
3.959461092948914,2,3,3,3,-15.15,1.28,3.02,-1.1,-0.99,-2.14
3.96946108341217,2,3,3,3,-17.18,1.12,3.97,-1.28,-0.31,-1.53
3.979461073875427,2,3,3,3,-17.69,1.28,4.1,-1.72,-0.13,-0.88
3.989461064338684,2,3,3,3,-17.81,1.47,4.14,-1.99,0.1,-0.27
3.999461054801941,2,3,3,3,-17.92,1.3,4.32,-1.55,0.57,0.37
4.009461045265198,2,3,3,3,-17.95,1.22,3.93,-0.97,1.15,0.76
4.019461035728455,2,3,3,3,-18.38,1.19,3.84,0.21,1.48,0.9399999999999999
4.029461026191711,2,3,3,3,-19.36,1.06,4.1,1.46,1.54,1.09
4.039461016654968,2,3,3,3,-20.38,1.33,4.19,2.21,1.3,1.18
4.049461007118225,2,3,3,3,-21.17,1.17,4.69,2.68,1.58,1.32
4.059460997581482,2,3,3,3,-21.83,1.22,5.11,2.68,1.53,1.41
4.069460988044739,2,3,3,3,-21.89,1.33,5.45,2.17,0.92,1.47
4.079460978507996,2,3,3,3,-21.71,1.2,4.89,1.3,0.46,1.4
4.089460968971252,2,3,3,3,-21.39,1.23,4.54,0.25,0.4,1.08
4.099460959434509,2,3,3,3,-19.17,1.17,3.96,-0.21,0.99,0.57
4.109460949897766,2,3,3,3,-17.9,1.95,2.85,0.14,2.96,0.06
4.119460940361023,2,3,3,3,-16.5,3.22,0.5600000000000001,1.71,4.42,0.28
4.12946093082428,2,3,3,3,-11.56,3.41,0.18,4.97,4.81,0.65
4.139460921287537,2,3,3,3,-11.58,4.62,-0.78,6.92,6.32,1.8
4.149460911750793,2,3,3,3,-5.73,3.08,-1.53,9.539999999999999,6.86,3.09
4.15946090221405,2,3,3,3,-7.61,4.44,-2.36,10.33,8.76,3.73
4.169460892677307,2,3,3,3,-5.72,4.11,-2.03,11.8,8,4.55
4.179460883140564,2,3,3,3,-5.66,3.49,-1.79,12.81,7.49,4.83
4.189460873603821,2,3,3,3,-6.26,3.31,-1.44,11.42,6.08,4.38
4.199460864067078,2,3,3,3,-3.82,3.09,-1.52,8.24,3.47,4.1
4.209461092948914,2,3,3,3,-1.77,3.54,-1.79,5.07,0.71,4.63
4.21946108341217,2,3,3,3,0.52,3.8,-2.29,1.33,-1.59,5.61
4.229461073875427,2,3,3,3,1.81,3.16,-4.16,-1.15,-2.83,6.56
4.239461064338684,2,3,3,3,0.92,3.03,-4.27,-1.84,-3.44,6.93
4.249461054801941,2,3,3,3,3.77,2.36,-3.06,-1.21,-3.66,6.05
4.259461045265198,2,3,3,3,4.29,2.02,-2.59,-1.15,-2.84,5.98
4.269461035728455,2,3,3,3,5.13,0.26,-0.98,-1.69,-0.39,5.29
4.279461026191711,2,3,3,3,3.01,-0.05,-0.97,-2.32,2.2,4.04
4.289461016654968,2,3,3,3,1.09,0.8100000000000001,-1.1,-1.31,1.67,2.59
4.299461007118225,2,3,3,3,1.93,0.7,0.09,0.54,0.77,0.44
4.309460997581482,2,3,3,3,0.9,0.5,-0.14,-0.3,0.59,-2.27
4.319460988044739,2,3,3,3,-0.53,0.9,0.04,-0.98,1.13,-3.64
4.329460978507996,2,3,3,3,-0.84,0.67,0.2,-1.48,0.95,-5.05
4.339460968971252,2,3,3,3,-1.25,0.33,0.11,-2.65,0.06,-5.98
4.349460959434509,2,3,3,3,-2.76,-0.59,-0.16,-3.94,-0.6,-6.52
4.359460949897766,2,3,3,3,-3.15,-0.89,0,-4.73,-1.15,-6.94
4.369460940361023,2,3,3,3,-2.7,-0.82,0.32,-5.08,-2.33,-7.02
4.37946093082428,2,3,3,3,-0.09,-0.76,0.58,-4.76,-3.02,-6.39
4.389460921287537,2,3,3,3,0.36,-0.87,0.52,-3.32,-3.25,-5.6
4.399460911750793,2,3,3,3,-0.26,-0.96,0.18,-2.11,-3.1,-4.52
4.40946090221405,2,3,3,3,-0.54,-1.03,0.07000000000000001,-0.85,-2.88,-3.33
4.419460892677307,2,3,3,3,-0.23,-0.21,0.73,0.48,-2.18,-2.31
4.429460883140564,2,3,3,3,-0.42,0.53,0.52,1.82,-2.73,-1.23
4.439460873603821,2,3,3,3,0.11,0.65,-0.49,4.23,-4.71,0.27
4.449460864067078,2,3,3,3,0.32,0.62,-1.17,6.64,-5.07,1.5
4.459461092948914,2,3,3,3,-0.51,0.73,-1.47,6.5,-4.36,1.68
4.46946108341217,2,3,3,3,0.23,0.65,-1.58,5.48,-3.14,1.63
4.479461073875427,2,3,3,3,0.66,0.5,-1.34,4.95,-0.91,1.72
4.489461064338684,2,3,3,3,0.4,0.07000000000000001,-0.83,4.1,0.9,1.91
4.499461054801941,2,3,3,3,-2.28,0.52,-0.36,2.97,2.52,1.72
4.509461045265198,2,3,3,3,-3.04,1.2,0.42,2.06,0.23,0.83
4.519461035728455,2,3,3,3,-3.21,1.7,-1.46,4.59,-3.15,0.43
4.529461026191711,2,3,3,3,-6.92,5.97,-2.03,9.44,-5.55,-1.08
4.539461016654968,2,3,3,3,-7.95,6.08,-5.31,10.4,-10.89,-3.65
4.549461007118225,2,3,3,3,-14.68,18.9,-0.58,7.61,-10.18,-8.33
4.559460997581482,2,3,3,3,-30.37,33.42,-8.859999999999999,-8.470000000000001,-10.12,-14.72
4.569460988044739,2,3,3,3,-39.2,-15.26,32.78,-10.68,-11.61,-18.2
4.579460978507996,2,3,3,3,-36.69,-6.28,6.28,-11.49,1.1,-8.640000000000001
4.589460968971252,2,3,3,3,-30.61,-6.58,3.18,-2.71,-8.98,-5.87
4.599460959434509,2,3,3,3,-25.43,-2.87,2.71,-6.62,-8.41,-6.42
4.609460949897766,2,3,3,3,-24.23,-0.48,3.24,-8.52,-4.77,-3.11
4.620460867881775,2,3,3,3,-21.75,1.45,4.96,-3.74,-4.84,-5.55
4.62946093082428,2,3,3,3,-16.98,0.27,4.09,-3.53,-6.51,-8.34
4.639460921287537,2,3,3,3,-12.44,-0.9399999999999999,5.3,-1.34,-7.88,-10.22
4.649460911750793,2,3,3,3,-8.35,-2.31,4.35,1.41,-6.37,-9.43
4.65946090221405,2,3,3,3,-9.01,-2.73,3.71,3.44,-2.55,-5.54
4.670461058616638,2,3,3,3,-11.32,-1.28,3.42,3.19,2.08,-0.12
4.680461049079895,2,3,3,3,-15.34,1.37,3.67,2.5,3.89,4.28
4.690461039543152,2,3,3,3,-15.49,0.82,3.75,3.3,2.5,6.33
4.700461030006409,2,3,3,3,-16.2,0.29,3.63,3.71,2.04,6.93
4.710461020469666,2,3,3,3,-16.63,0.58,2.81,4.21,2.4,7.2
4.720461010932922,2,3,3,3,-13.33,2.2,1.61,3.71,2.53,7.16
4.730461001396179,2,3,3,3,-11.25,2.3,1.38,2.25,2.57,6.34
4.740460991859436,2,3,3,3,-9.869999999999999,2.23,0.72,-0.21,3.68,4.76
4.750460982322693,2,3,3,3,-10.03,2.43,0.45,-1.89,5.49,2.85
4.76046097278595,2,3,3,3,-10.12,2.89,0.64,-2.77,6.23,1.15
4.770460963249207,2,3,3,3,-9.49,2.76,0.41,-3.71,5.51,-0.15
4.780460953712463,2,3,3,3,-8.99,1.99,0.25,-4.33,4.1,-1.19
4.79046094417572,2,3,3,3,-8.4,1.58,0.26,-4.54,2.73,-1.8
4.800460934638977,2,3,3,3,-7.69,0.8100000000000001,0.42,-4.4,1.6,-2.08
4.820460915565491,2,3,3,3,-6.11,0.54,0.9,-3.24,0.16,-1.44
4.830460906028748,2,3,3,3,-5.61,0.18,0.42,-1.34,0.36,0.04
4.840460896492004,2,3,3,3,-5.21,-0.35,0.4,0.67,1.22,1.48
4.850460886955261,2,3,3,3,-5.41,0.11,0.51,1.96,1.96,1.92
4.860460877418518,2,3,3,3,-6.34,0.33,0.36,3.52,2.36,2.24
4.870460867881775,2,3,3,3,-6.2,0.4,0.98,5.33,2.56,2.98
4.880460858345032,2,3,3,3,-6.16,0.8,1.18,5.47,2.22,2.87
4.890461087226868,2,3,3,3,-6.11,1.53,1.45,5.24,1.74,2.56
4.900461077690125,2,3,3,3,-5.99,1.93,1.24,4.65,1.22,2.19
4.910461068153381,2,3,3,3,-6.89,2.53,0.48,4.12,1.37,1.59
4.940461039543152,2,3,3,3,-9.93,2.11,0.31,2.01,1.48,0.41
4.950461030006409,2,3,3,3,-11.42,1.11,0.74,0.29,0.9399999999999999,-0.13
4.970461010932922,2,3,3,3,-11.74,1.1,1.31,-2.86,-1.22,-0.88
4.980461001396179,2,3,3,3,-11.12,1.38,1.49,-3.39,-1.48,-0.5600000000000001
4.990460991859436,2,3,3,3,-9.85,1.49,2.14,-3.33,-0.96,-0.06
5.000460982322693,2,3,3,3,-9.51,1.45,2.32,-2.88,-0.91,0.3
5.01046097278595,2,3,3,3,-9.01,1.27,2.03,-2.36,-0.86,0.75
5.020460963249207,2,3,3,3,-9,0.6899999999999999,2.27,-1.02,-0.33,1.22
5.030460953712463,2,3,3,3,-9.02,0.58,2.21,0.1,0.4,1.56
5.04046094417572,2,3,3,3,-9.18,0.59,1.84,0.9399999999999999,0.57,1.79
5.050460934638977,2,3,3,3,-9.039999999999999,0.71,1.63,1.63,0.21,1.85
5.060460925102234,2,3,3,3,-8.800000000000001,1.2,1.24,2.06,0.21,1.88
5.070460915565491,2,3,3,3,-8.869999999999999,1.42,1.21,2.48,0.64,2.02
5.080460906028748,2,3,3,3,-8.58,1.5,1.15,2.36,1.24,2.17
5.090460896492004,2,3,3,3,-8.24,1.65,1.08,1.86,2.35,2.49
5.100460886955261,2,3,3,3,-9.07,2.02,0.62,1.41,3.68,2.89
5.110460877418518,2,3,3,3,-9.359999999999999,2.14,0.67,0.86,4.27,3
5.120460867881775,2,3,3,3,-9.44,2.17,0.76,0.25,3.66,2.71
5.130460858345032,2,3,3,3,-9.18,1.99,1.03,-0.35,2.7,2.36
5.140461087226868,2,3,3,3,-8.98,1.83,0.95,-0.86,2.02,2.11
5.150461077690125,2,3,3,3,-9.029999999999999,1.87,0.89,-0.87,2,2.03
5.160461068153381,2,3,3,3,-9.039999999999999,1.89,0.76,-0.84,1.67,1.88
5.170461058616638,2,3,3,3,-9.08,2.08,0.8100000000000001,-0.98,1.36,1.65
5.180461049079895,2,3,3,3,-8.77,2.28,0.8,-1.02,1.08,1.44
5.190461039543152,2,3,3,3,-8.630000000000001,2.49,0.73,-1.06,1.01,1.24
5.200461030006409,2,3,3,3,-8.52,2.6,0.68,-1.07,1.24,1.07
5.210461020469666,2,3,3,3,-8.75,2.51,0.5,-1.13,1.51,0.85
5.220461010932922,2,3,3,3,-8.99,2.38,0.58,-1.33,1.71,0.53
5.230461001396179,2,3,3,3,-9.19,2.16,0.6899999999999999,-1.74,1.66,0.15
5.240460991859436,2,3,3,3,-9.26,1.93,0.75,-2.12,1.3,-0.2
5.250460982322693,2,3,3,3,-9.51,1.78,0.74,-2.24,0.84,-0.42
5.26046097278595,2,3,3,3,-9.44,1.73,0.54,-2.2,0.45,-0.49
5.270460963249207,2,3,3,3,-9.41,1.8,0.47,-1.83,0.04,-0.43
5.280460953712463,2,3,3,3,-9.27,1.89,0.45,-1.39,-0.17,-0.41
5.29046094417572,2,3,3,3,-8.800000000000001,2.01,0.51,-0.93,-0.31,-0.3
5.300460934638977,2,3,3,3,-8.539999999999999,2.11,0.46,-0.55,-0.23,-0.19
5.310460925102234,2,3,3,3,-8.27,2.17,0.37,-0.27,-0.21,-0.13
5.320460915565491,2,3,3,3,-8.19,2.4,0.34,-0.29,-0.24,-0.18
5.330460906028748,2,3,3,3,-7.94,2.68,-0.14,-0.63,-0.25,-0.23
5.340460896492004,2,3,3,3,-7.94,2.68,-0.14,-0.92,-0.19,-0.37
5.350460886955261,2,3,3,3,-7.77,2.5,-0.11,-1.04,0,-0.47
5.360460877418518,2,3,3,3,-7.49,2.1,0.33,-1.48,-0.04,-0.55
5.370460867881775,2,3,3,3,-7.48,2.11,0.31,-1.85,-0.16,-0.79
5.380460858345032,2,3,3,3,-7.54,2.07,0.38,-2.12,-0.24,-1.16
5.390461087226868,2,3,3,3,-7.54,2.07,0.38,-2.19,-0.4,-1.52
5.400461077690125,2,3,3,3,-7.41,1.9,0.43,-2.02,-0.39,-1.72
5.410461068153381,2,3,3,3,-7.27,1.36,0.33,-1.83,-0.42,-1.65
5.420461058616638,2,3,3,3,-7.02,1.33,0.41,-1.75,-0.65,-1.54
5.430461049079895,2,3,3,3,-6.81,1.42,0.52,-1.45,-0.75,-1.26
5.440461039543152,2,3,3,3,-6.81,1.42,0.52,-1.45,-0.75,-1.26
5.450461030006409,2,3,3,3,-6.99,1.76,0.48,-0.85,-0.04,-0.5600000000000001
5.460461020469666,2,3,3,3,-7.01,1.56,0.34,-0.97,0.19,-0.3
5.470461010932922,2,3,3,3,-7.44,1.23,0.57,-1.98,1.32,0.62
5.480461001396179,2,3,3,3,-7.94,1.18,1.21,-2.63,1.47,0.95
5.490460991859436,2,3,3,3,-7.94,1.18,1.21,-2.63,1.47,0.95
5.500460982322693,2,3,3,3,-7.95,1.57,0.95,-2.97,1.3,1.24
5.51046097278595,2,3,3,3,-8,1.81,0.55,-2.17,0.47,1.35
5.520460963249207,2,3,3,3,-8.34,1.13,0.26,-1.58,-0.24,1.2
5.530460953712463,2,3,3,3,-8.449999999999999,0.51,0.24,-0.84,-0.55,1.29
5.54046094417572,2,3,3,3,-8.550000000000001,0.17,0.41,-0.84,-0.55,1.29
5.550460934638977,2,3,3,3,-8.699999999999999,-0.08,0.9,0.1,-0.66,1.32
5.560460925102234,2,3,3,3,-8.69,0.25,1.08,1.1,-2.02,0.68
5.570460915565491,2,3,3,3,-8.550000000000001,0.6,0.99,0.26,-1.79,0.17
5.580460906028748,2,3,3,3,-8.460000000000001,1.01,1.14,-0.96,-1.05,-0.41
5.590460896492004,2,3,3,3,-8.539999999999999,1.28,1.2,-0.96,-1.05,-0.41
5.600460886955261,2,3,3,3,-9.289999999999999,1.73,2.01,-2.2,-0.8100000000000001,-0.95
5.610460877418518,2,3,3,3,-9.66,1.68,2.11,-2.57,-1.3,-1.54
5.620460867881775,2,3,3,3,-10,1.39,1.95,-2.13,-1.68,-1.37
5.630460858345032,2,3,3,3,-10.19,0.77,1.89,-1.81,-2.07,-1.18
5.640461087226868,2,3,3,3,-11.43,-0.15,1.96,-1.81,-2.07,-1.18
5.650461077690125,2,3,3,3,-11.85,-0.39,2.09,-1.64,-2.49,-1.15
5.660461068153381,2,3,3,3,-12.36,-0.36,2.15,-1.23,-3.9,-1.47
5.670461058616638,2,3,3,3,-12.67,-0.18,2.22,-1.49,-3.79,-1.76
5.680461049079895,2,3,3,3,-12.84,0.46,2.29,-1.85,-3.42,-2.04
5.690461039543152,2,3,3,3,-12.98,0.84,2.49,-1.85,-3.42,-2.04
5.701460957527161,2,3,3,3,-12.95,1.01,2.72,-2.41,-2.77,-2.34
5.711460947990417,2,3,3,3,-13.17,1.01,2.84,-3.06,-0.9399999999999999,-2.49
5.721460938453674,2,3,3,3,-13.29,0.95,2.86,-3.19,-0.66,-2.45
5.731460928916931,2,3,3,3,-13.43,0.87,2.8,-3.1,-0.88,-2.36
5.741460919380188,2,3,3,3,-13.64,0.79,2.72,-3.1,-0.88,-2.36
5.751460909843445,2,3,3,3,-15.13,0.47,3.1,-2.8,-0.52,-2.07
5.761460900306702,2,3,3,3,-15.89,0.63,3.13,-1.55,-0.3,-1.33
5.771460890769958,2,3,3,3,-16.73,0.75,3.01,-0.35,-0.19,-0.91
5.781460881233215,2,3,3,3,-17.83,0.73,3.07,-0.1,-0.41,-0.7
5.791460871696472,2,3,3,3,-18.76,1.6,3.32,-0.1,-0.41,-0.7
5.801460862159729,2,3,3,3,-19.05,2.08,3.56,-0.16,0.14,-0.76
5.811461091041565,2,3,3,3,-19.15,2.34,3.89,0.11,1.08,-1.25
5.821461081504822,2,3,3,3,-19.2,2.27,3.98,-0.39,0.8100000000000001,-1.29
5.831461071968079,2,3,3,3,-19.18,1.51,4.79,-0.86,0.62,-1.19
5.841461062431335,2,3,3,3,-19.48,0.77,5.43,-0.86,0.62,-1.19
5.851461052894592,2,3,3,3,-20.2,-0.24,6.02,-0.8,0.28,-0.9399999999999999
5.861461043357849,2,3,3,3,-20.58,-1.75,6.21,-1.68,-0.59,-1.04
5.871461033821106,2,3,3,3,-20.88,-2.15,6.16,-1.86,-0.97,-1.35
5.881461024284363,2,3,3,3,-20.96,-2.53,5.86,-1.88,-1.12,-1.84
5.89146101474762,2,3,3,3,-20.64,-2.94,5.8,-1.88,-1.12,-1.84
5.901461005210876,2,3,3,3,-20.09,-2.69,5.33,-0.85,-0.55,-1.91
5.911460995674133,2,3,3,3,-19.96,-2.11,5.65,3.56,1.56,-1.32
5.92146098613739,2,3,3,3,-20.41,-1.07,5.59,5.19,1.53,0.2
5.931460976600647,2,3,3,3,-20.21,0.06,4.92,7.14,2.28,2.09
5.941460967063904,2,3,3,3,-18.19,2.03,2.25,7.14,2.28,2.09
5.951460957527161,2,3,3,3,-16.37,3.37,0.96,8.41,3.9,4.26
5.961460947990417,2,3,3,3,-14.47,4.32,-0.57,10.17,5.52,7.92
5.971460938453674,2,3,3,3,-12.32,5.29,-2.14,9.970000000000001,6.58,8.67
5.981460928916931,2,3,3,3,-8.24,5.84,-4.38,10.03,8.24,8.529999999999999
5.991460919380188,2,3,3,3,-5.97,5.51,-4.15,10.03,8.24,8.529999999999999
6.001460909843445,2,3,3,3,-3.86,5.13,-3.31,9.93,9.48,8.35
6.011460900306702,2,3,3,3,-1.14,6.16,-2.4,9.06,8.609999999999999,8.390000000000001
6.021460890769958,2,3,3,3,-0.27,6.89,-3.01,7.02,7.04,8.119999999999999
6.031460881233215,2,3,3,3,0.88,7.75,-3.97,3.61,4.48,7.7
6.041460871696472,2,3,3,3,2.2,8.35,-5.51,0.09,2.3,6.95
6.051460862159729,2,3,3,3,1.7,5.49,-5.21,-2.07,2.22,5.51
6.061461091041565,2,3,3,3,1.14,3.87,-3.14,-3.76,1.87,4.42
6.071461081504822,2,3,3,3,1.88,2.51,-1.37,-4.04,0.34,4.14
6.081461071968079,2,3,3,3,2.97,1.17,-1,-3.55,-0.9,3.16
6.091461062431335,2,3,3,3,2.31,-0.09,0.07000000000000001,-3.49,-1.93,1.69
6.101461052894592,2,3,3,3,1.73,-0.75,0.14,-3.25,-3.73,-0.15
6.111461043357849,2,3,3,3,1.44,-1.09,0.17,-2.08,-5.16,-2.68
6.121461033821106,2,3,3,3,0.76,-1.33,-0.14,-0.3,-5,-5.92
6.131461024284363,2,3,3,3,0.66,-1.16,0,1.05,-3.32,-8.859999999999999
6.14146101474762,2,3,3,3,0.46,-0.83,0.14,1.55,-1.93,-10.01
6.151461005210876,2,3,3,3,0.01,-0.49,0.98,1.38,-2.62,-10.5
6.161460995674133,2,3,3,3,-0.44,-0.3,1.35,0.71,-4.32,-10.34
6.17146098613739,2,3,3,3,-0.38,-0.89,0.57,-0.02,-5.6,-9.300000000000001
6.181460976600647,2,3,3,3,-1.05,-1.13,0.2,-1.31,-4.81,-7.45
6.191460967063904,2,3,3,3,-1.83,-0.95,0.02,-2.78,-2.77,-4.83
6.201460957527161,2,3,3,3,-2.74,-1.11,-0.1,-3.02,-0.87,-2.06
6.211460947990417,2,3,3,3,-2.43,-1,-0.35,-2.08,0.61,0.43
6.221460938453674,2,3,3,3,-1.8,-0.89,-0.8,-0.54,1.59,2.52
6.231460928916931,2,3,3,3,-1.19,-0.63,-1.18,0.86,2.05,4.05
6.241460919380188,2,3,3,3,-0.23,-0.35,-0.97,1.82,2.66,5
6.251460909843445,2,3,3,3,0.04,-0.03,-0.8,2.36,3.4,5.52
6.261460900306702,2,3,3,3,0.28,0.17,-0.71,2.77,3.34,5.68
6.271460890769958,2,3,3,3,0.45,0.16,-0.62,3.2,2.5,5.52
6.281460881233215,2,3,3,3,0.31,0.25,-0.53,3.33,1.36,5.21
6.291460871696472,2,3,3,3,0.31,0.46,-0.68,3.4,0.18,4.67
6.301460862159729,2,3,3,3,0.39,0.77,-0.63,3.63,-0.43,4
6.311461091041565,2,3,3,3,0.45,1.1,-0.5,4.01,-1.48,3.43
6.321461081504822,2,3,3,3,0.4,1.76,-1.04,4.78,-3.09,2.83
6.331461071968079,2,3,3,3,-0.35,1.99,-0.06,4.87,-4.25,1.76
6.341461062431335,2,3,3,3,-0.78,2.42,-1.48,4.6,-6.27,0.05
6.351461052894592,2,3,3,3,-1.17,3.48,-1.16,4.62,-7.2,-1.8
6.361461043357849,2,3,3,3,-1.78,3.44,-0.93,3.41,-6.68,-3.7
6.371461033821106,2,3,3,3,-3.56,3.49,-0.61,3.19,-6.81,-6.06
6.381461024284363,2,3,3,3,-6.33,5.05,-1.4,3.2,-8.970000000000001,-8.720000000000001
6.39146101474762,2,3,3,3,-11.7,7.65,0.47,4.89,-14.71,-11.38
6.401461005210876,2,3,3,3,-15.81,9.65,-0.65,2.4,-16.32,-14.6
6.411460995674133,2,3,3,3,-23.35,9.130000000000001,1.15,-1.01,-11.92,-16.16
6.42146098613739,2,3,3,3,-30.02,0.9,8,-6.99,-6.57,-12.88
6.431460976600647,2,3,3,3,-26.48,-3.49,7.34,-6.28,-1.47,-1.84
6.441460967063904,2,3,3,3,-19.27,-4.12,4.25,-6.06,-3,1.69
6.451460957527161,2,3,3,3,-23.81,-1.38,5.25,-9.1,2.52,0.02
6.461460947990417,2,3,3,3,-24.25,3.27,2.44,-12.21,3.6,-2.09
6.471460938453674,2,3,3,3,-20.29,6.01,7.05,-16.21,5.1,-6.37
6.481460928916931,2,3,3,3,-18.37,2.96,9.99,-15.19,3.39,-9.880000000000001
6.491460919380188,2,3,3,3,-17.23,0.29,7.15,-9.84,-0.52,-11.4
6.501460909843445,2,3,3,3,-18.89,-0.6,1.75,-4.4,-2.1,-10.51
6.511460900306702,2,3,3,3,-20.57,-0.85,2.45,1.94,-2.13,-6.27
6.521460890769958,2,3,3,3,-20.46,-1.52,1.4,4.86,-1.82,-0.72
6.531460881233215,2,3,3,3,-18.77,-2.71,0.52,2.78,-1.41,2.94
6.541460871696472,2,3,3,3,-15.43,-2.58,2.81,-0.01,-2.13,4.31
6.551460862159729,2,3,3,3,-14.02,-1.79,2.66,-2.04,-3.43,4.11
6.561461091041565,2,3,3,3,-13.52,-0.99,3.09,-3.78,-3.28,2.73
6.571461081504822,2,3,3,3,-13.25,-0.28,3.3,-3.89,-1.95,1.47
6.581461071968079,2,3,3,3,-12.23,-0.17,3.06,-1.79,-0.7,0.71
6.591461062431335,2,3,3,3,-11.68,0.44,2.6,0.7,0.4,0.27
6.601461052894592,2,3,3,3,-11.3,1.18,2.59,2.47,0.9,-0.06
6.611461043357849,2,3,3,3,-10.98,1.7,2.82,3.49,0.89,-0.3
6.621461033821106,2,3,3,3,-10.37,1.59,3.29,4.67,0.88,-0.39
6.631461024284363,2,3,3,3,-10.31,1.53,3.26,6.01,1.21,-0.01
6.64146101474762,2,3,3,3,-10.49,1.94,2.98,7.01,1.9,0.86
6.651461005210876,2,3,3,3,-10.99,2.73,2.07,6.87,2.92,1.65
6.661460995674133,2,3,3,3,-11.18,2.88,1.84,5.61,4.11,1.83
6.67146098613739,2,3,3,3,-11.41,2.84,1.63,3.22,5.06,1.74
6.681460976600647,2,3,3,3,-11.57,2.7,1.42,0.48,4.98,1.63
6.691460967063904,2,3,3,3,-10.59,2.41,1.32,-1.97,4.18,1.63
6.701460957527161,2,3,3,3,-9.76,2.07,1.33,-4.32,3.56,1.86
6.711460947990417,2,3,3,3,-9.050000000000001,1.6,1.33,-5.96,3.21,2.12
6.722460865974426,2,3,3,3,-8.380000000000001,1.13,1.16,-6.73,2.88,2.35
6.732460856437683,2,3,3,3,-8.17,-0.06,1.39,-6.62,2.67,2.39
6.742461085319519,2,3,3,3,-8.4,-0.24,1.34,-5.69,2.56,2.21
6.752461075782776,2,3,3,3,-8.460000000000001,-0.27,1.33,-4.49,2.46,2.09
6.762461066246033,2,3,3,3,-8.44,-0.22,1.28,-3.02,2.7,1.94
6.77246105670929,2,3,3,3,-8.390000000000001,0.2,0.92,-1.37,2.75,1.83
6.782461047172546,2,3,3,3,-8.42,0.37,0.84,0.35,2.3,1.61
6.792461037635803,2,3,3,3,-8.51,0.6,0.9399999999999999,1.79,1.93,1.42
6.80246102809906,2,3,3,3,-8.48,0.85,0.96,2.78,1.7,1.37
6.812461018562317,2,3,3,3,-8.48,1.6,0.78,3.36,1.67,1.46
6.822461009025574,2,3,3,3,-8.42,1.73,0.75,3.17,1.6,1.56
6.832460999488831,2,3,3,3,-8.31,1.75,0.82,2.39,1.64,1.66
6.842460989952087,2,3,3,3,-8.02,1.89,1.08,1.57,1.63,1.9
6.852460980415344,2,3,3,3,-7.98,1.92,1.06,1.04,1.73,2.25
6.862460970878601,2,3,3,3,-7.9,1.9,1.05,0.46,1.92,2.68
6.872460961341858,2,3,3,3,-7.75,1.91,0.83,-0.17,2.03,3.14
6.882460951805115,2,3,3,3,-7.22,1.72,0.88,-0.59,2,3.63
6.892460942268372,2,3,3,3,-7.09,1.85,0.78,-0.84,1.91,3.96
6.902460932731628,2,3,3,3,-7.03,1.79,0.45,-0.18,1.82,4.07
6.912460923194885,2,3,3,3,-7.1,1.8,0.19,0.15,1.86,3.8
6.922460913658142,2,3,3,3,-7.17,1.71,-0.22,0.17,1.83,3.29
6.932460904121399,2,3,3,3,-7.42,1.68,-0.18,0.07000000000000001,1.53,2.66
6.942460894584656,2,3,3,3,-7.45,1.62,-0.1,0.04,0.98,1.85
6.952460885047913,2,3,3,3,-7.34,1.58,0.09,0.14,0.18,1.1
6.962460875511169,2,3,3,3,-7.06,1.63,0.41,0.22,-0.5600000000000001,0.5
6.972460865974426,2,3,3,3,-6.89,1.72,0.34,0.27,-1.21,-0.01
6.982460856437683,2,3,3,3,-6.8,1.81,0.36,0.09,-1.54,-0.31
6.992461085319519,2,3,3,3,-6.66,1.95,0.31,-0.17,-1.34,-0.36
7.002461075782776,2,3,3,3,-6.56,1.96,0.09,-0.55,-0.79,-0.27
7.012461066246033,2,3,3,3,-6.79,1.74,0.1,-0.91,-0.19,-0.11
7.02246105670929,2,3,3,3,-6.95,1.64,0.09,-0.99,-0.01,-0.01
7.042461037635803,2,3,3,3,-7.17,1.44,0.3,-1.19,-0.51,-0.25
7.05246102809906,2,3,3,3,-7.14,1.18,0.51,-1.17,-0.89,-0.38
7.062461018562317,2,3,3,3,-7.27,0.91,0.97,-1.13,-1.44,-0.5
7.072461009025574,2,3,3,3,-7.7,0.8100000000000001,0.85,-1.18,-1.61,-0.63
7.082460999488831,2,3,3,3,-7.45,0.87,0.79,-1.05,-1.56,-0.68
7.092460989952087,2,3,3,3,-7.34,0.82,0.76,-0.85,-1.1,-0.55
7.102460980415344,2,3,3,3,-7.3,0.66,0.98,-0.3,-0.53,-0.08
7.112460970878601,2,3,3,3,-7.17,0.52,0.99,0.45,-0.27,0.55
7.122460961341858,2,3,3,3,-7.06,0.86,0.87,1.02,-0.18,1
7.132460951805115,2,3,3,3,-7.3,0.8100000000000001,1.27,0.61,0.22,1.28
7.142460942268372,2,3,3,3,-8.15,0.53,2.11,-0.39,0.04,1.25
7.152460932731628,2,3,3,3,-8.630000000000001,0.55,2.17,-1.3,-0.8,0.9399999999999999
7.162460923194885,2,3,3,3,-8.83,0.74,1.83,-2.25,-1.63,0.55
7.172460913658142,2,3,3,3,-9.369999999999999,0.7,1.59,-2.8,-1.7,0.31
7.182460904121399,2,3,3,3,-10.02,0.83,1.32,-2.93,-1.35,0.14
7.192460894584656,2,3,3,3,-10.11,1.01,0.96,-2.64,-0.45,0.06
7.202460885047913,2,3,3,3,-10.21,1.06,0.97,-2.33,0.62,0.01
7.212460875511169,2,3,3,3,-10.6,1.02,1.25,-2.3,1.25,0.11
7.222460865974426,2,3,3,3,-11.42,0.83,2.22,-2.33,1.24,0.36
7.232460856437683,2,3,3,3,-12.53,0.85,2.53,-2.32,0.95,0.59
7.242461085319519,2,3,3,3,-13.4,0.6899999999999999,2.79,-2.57,-0.07000000000000001,0.5
7.252461075782776,2,3,3,3,-14.07,0.28,3.32,-2.83,-1.48,0.37
7.262461066246033,2,3,3,3,-14.38,-0.29,3.04,-3.09,-2.37,-0.29
7.27246105670929,2,3,3,3,-14.72,-0.3,2.7,-2.96,-2.34,-0.83
7.282461047172546,2,3,3,3,-15.15,0.06,2.51,-2.34,-0.97,-1.26
7.292461037635803,2,3,3,3,-15.31,1.18,2.61,-0.98,-0.12,-1.62
7.30246102809906,2,3,3,3,-16.22,1.48,3.23,0.76,0.39,-1.81
7.312461018562317,2,3,3,3,-16.71,1.49,3.57,1.08,-0.49,-1.77
7.322461009025574,2,3,3,3,-17.4,1.33,3.54,0.38,-1.58,-1.53
7.332460999488831,2,3,3,3,-19.23,1.32,3.77,-0.09,-1.36,-0.9
7.342460989952087,2,3,3,3,-19.28,1.38,3.83,0.45,-0.65,-0.06
7.352460980415344,2,3,3,3,-19.3,1.45,3.91,0.82,-0.23,0.47
7.362460970878601,2,3,3,3,-19.44,1.14,4.16,0.45,-0.08,0.58
7.372460961341858,2,3,3,3,-19.39,0.8,4.15,0.11,0.07000000000000001,0.28
7.382460951805115,2,3,3,3,-20.39,0.53,5.2,0.6,1.17,-0.03
7.392460942268372,2,3,3,3,-21.78,0.02,6.68,1.06,1.91,-0.3
7.402460932731628,2,3,3,3,-22.02,-0.44,7.32,0.72,-0.22,-0.99
7.412460923194885,2,3,3,3,-21.26,-1.65,7.11,-0.38,-3.14,-1.96
7.422460913658142,2,3,3,3,-21.12,-1.67,7.19,-1.87,-3.88,-3.11
7.432460904121399,2,3,3,3,-20.32,-2.15,6.41,-2.06,-3.19,-3.95
7.442460894584656,2,3,3,3,-20.55,-2.84,6.71,-1.74,-1.51,-4.14
7.452460885047913,2,3,3,3,-18.97,-3.41,5.95,-2.18,-0.52,-4.25
7.462460875511169,2,3,3,3,-19.52,-3.83,5.96,-2.51,1.2,-3.86
7.472460865974426,2,3,3,3,-19.67,-3.32,6.14,-2.09,1.66,-3.45
7.482460856437683,2,3,3,3,-19.82,-1.71,4.5,-0.11,0.4,-2.76
7.492461085319519,2,3,3,3,-19.45,-0.45,3.52,3.49,0.03,-1.38
7.502461075782776,2,3,3,3,-19.11,0.82,2.53,7.26,2.71,0.02
7.512461066246033,2,3,3,3,-17.36,3.28,0.92,11.65,5.03,1.17
7.52246105670929,2,3,3,3,-12.7,7.45,-2.4,14.47,6.47,3.51
7.532461047172546,2,3,3,3,-9.859999999999999,6.7,-3.53,14.28,7.88,6.66
7.542461037635803,2,3,3,3,-7.38,6.57,-3.69,11.26,8.26,9.130000000000001
7.55246102809906,2,3,3,3,-4.35,6.6,-3.49,8.800000000000001,8.98,10.41
7.562461018562317,2,3,3,3,0.68,9.91,-4.93,6.3,10.49,10.9
7.572461009025574,2,3,3,3,3.12,10.81,-8.49,5.01,11.82,11.74
7.582460999488831,2,3,3,3,4.45,11.51,-11.38,4.48,12.3,12.27
7.592460989952087,2,3,3,3,5.03,10.77,-10.73,4.55,8.109999999999999,11.38
7.602460980415344,2,3,3,3,4.38,6.55,-3.31,2.88,-0.7,9.880000000000001
7.612460970878601,2,3,3,3,1.75,3.66,-0.93,-0.59,-4.99,8.880000000000001
7.622460961341858,2,3,3,3,-0.26,2.68,-0.83,-1.53,-4,4.28
7.632460951805115,2,3,3,3,-0.26,0.9399999999999999,0.03,-0.43,-2.2,-1.83
7.642460942268372,2,3,3,3,0.63,-0.35,1.27,0.41,-2.21,-6.5
7.652460932731628,2,3,3,3,1.31,-2.32,1.82,-0.18,-2.26,-11.05
7.662460923194885,2,3,3,3,1.19,-2.84,2.09,-1.72,-4.83,-13.62
7.672460913658142,2,3,3,3,3.29,-3.1,-0.07000000000000001,-3.17,-7.69,-15.1
7.682460904121399,2,3,3,3,2.37,-1.67,-0.83,-4.96,-9.789999999999999,-14.82
7.692460894584656,2,3,3,3,1.41,-1.28,-1.11,-5.1,-8.779999999999999,-12.91
7.702460885047913,2,3,3,3,-0.36,-0.96,-0.96,-3.93,-5.65,-10.25
7.712460875511169,2,3,3,3,-2.42,-2.68,0.09,-1.56,-2.47,-6.89
7.722460865974426,2,3,3,3,-3.13,-1.86,-0.57,1.06,0.46,-2.55
7.732460856437683,2,3,3,3,-3.76,-0.76,-0.85,3.42,3.71,2.06
7.742461085319519,2,3,3,3,-4.04,0.16,-1.13,4.35,6.16,5.78
7.753461003303528,2,3,3,3,-2.56,0.93,-1.2,4.71,6.49,7.71
7.763460993766785,2,3,3,3,-1.4,1.85,-1.23,4.44,4.79,7.54
7.773460984230042,2,3,3,3,-0.54,2.17,-1.03,3.46,2.68,6.24
7.783460974693298,2,3,3,3,0.6,1.42,-0.89,2.08,1.46,4.83
7.793460965156555,2,3,3,3,0.88,0.9399999999999999,-0.43,0.79,1.32,3.95
7.803460955619812,2,3,3,3,0.98,0.49,0.05,-0.13,1.67,3.58
7.813460946083069,2,3,3,3,1.17,0.07000000000000001,0.03,-0.29,1.71,3.53
7.823460936546326,2,3,3,3,1.44,-0.53,0.05,0.46,0.85,3.53
7.833460927009583,2,3,3,3,1.51,-0.21,0.1,1.16,-0.05,3.25
7.843460917472839,2,3,3,3,1.63,0.08,0.12,1.19,-0.34,2.61
7.853460907936096,2,3,3,3,1.63,0.3,0.45,0.9,-0.47,1.64
7.863460898399353,2,3,3,3,1.12,0.51,0.92,0.58,-0.63,0.52
7.87346088886261,2,3,3,3,0.82,0.37,1.12,0.3,-1.24,-0.71
7.883460879325867,2,3,3,3,0.08,0.34,1.43,-0.04,-1.72,-2.09
7.893460869789124,2,3,3,3,-0.1,0.15,1.18,-0.21,-2.83,-3.22
7.90346086025238,2,3,3,3,-0.1,0.15,1.18,1.39,-4.86,-3.64
7.913461089134216,2,3,3,3,0.18,-0.04,0.05,3.02,-5.84,-3.75
7.923461079597473,2,3,3,3,-0.44,-0.14,-0.45,4.03,-6.04,-4.13
7.93346107006073,2,3,3,3,-1.33,0.29,-0.98,4.8,-6.15,-4.55
7.943461060523987,2,3,3,3,-2.52,2.07,0.4,5.44,-7.54,-5.14
7.953461050987244,2,3,3,3,-2.52,2.07,0.4,4.66,-8.460000000000001,-5.01
7.9634610414505,2,3,3,3,-3.74,2.55,-0.82,5.33,-9.27,-4.56
7.973461031913757,2,3,3,3,-13.09,8.06,-1.44,7.05,-11.28,-4.76
7.983461022377014,2,3,3,3,-18.98,9.029999999999999,2.25,6.83,-13.11,-5.67
7.993461012840271,2,3,3,3,-25.24,8.630000000000001,1.43,0.42,-13.28,-7.87
8.003461003303528,2,3,3,3,-25.24,8.630000000000001,1.43,0.42,-13.28,-7.87
8.013460993766785,2,3,3,3,-30.37,4.25,5.28,-2.89,-9.31,-8.050000000000001
8.023460984230042,2,3,3,3,-22.63,3.9,5.37,-10.34,-0.45,4.2
8.033460974693298,2,3,3,3,-28.89,3.29,5.26,-11.27,0.02,2.41
8.043460965156555,2,3,3,3,-32.78,2.31,5.2,-9.539999999999999,1.65,-2.27
8.053460955619812,2,3,3,3,-32.78,2.31,5.2,-9.539999999999999,1.65,-2.27
8.063460946083069,2,3,3,3,-25.54,1.69,6.15,-3.19,2.11,-1.45
8.073460936546326,2,3,3,3,-22.85,-0.05,4.35,-1.38,-1.72,-2.9
8.083460927009583,2,3,3,3,-23.3,-1.26,4.29,-6.46,-2.02,-5.84
8.093460917472839,2,3,3,3,-23.8,-1.9,4.66,-8.17,-2.31,-7.13
8.103460907936096,2,3,3,3,-20.54,-1.08,4.76,-8.17,-2.31,-7.13
8.113460898399353,2,3,3,3,-18.69,-0.9399999999999999,4.45,-7.15,-2.66,-6.28
8.12346088886261,2,3,3,3,-17.05,-1.33,4.32,-4.25,-2.84,-2.49
8.133460879325867,2,3,3,3,-15.34,-0.57,4.03,-3.48,-2.42,-0.88
8.143460869789124,2,3,3,3,-15.27,-0.31,3.6,-1.75,-2.39,0.07000000000000001
8.15346086025238,2,3,3,3,-14.91,-0.23,3.82,-1.75,-2.39,0.07000000000000001
8.163461089134216,2,3,3,3,-14.21,-0.19,3.82,0.36,-2.26,1.02
8.173461079597473,2,3,3,3,-13.09,0.43,3.38,3.13,-0.29,3.88
8.18346107006073,2,3,3,3,-12.99,0.95,3.02,3.94,1.29,5.22
8.193461060523987,2,3,3,3,-12.88,1.52,2.77,4.71,2.77,5.91
8.203461050987244,2,3,3,3,-12.61,2.2,2.43,4.71,2.77,5.91
8.2134610414505,2,3,3,3,-11.43,2.59,1.94,4.03,5.06,5.35
8.223461031913757,2,3,3,3,-11,2.7,1.76,2.39,5.7,4.5
8.233461022377014,2,3,3,3,-10.58,2.84,1.53,-1.29,6.4,3.09
8.243461012840271,2,3,3,3,-9.82,2.78,1.51,-2.76,6.67,3.16
8.253461003303528,2,3,3,3,-7.94,2.37,1.41,-2.76,6.67,3.16
8.263460993766785,2,3,3,3,-7.23,1.99,1.26,-4.1,6.37,3.6
8.273460984230042,2,3,3,3,-6.6,1.51,1.11,-5.89,4.79,4.71
8.283460974693298,2,3,3,3,-5.88,0.72,1.03,-5.74,4.11,4.96
8.293460965156555,2,3,3,3,-5.82,0.43,1.08,-5.01,3.75,4.78
8.303460955619812,2,3,3,3,-5.98,0.28,0.91,-5.01,3.75,4.78
8.313460946083069,2,3,3,3,-6.04,0.21,0.63,-3.79,3.47,4.56
8.323460936546326,2,3,3,3,-5.64,0.15,0.5,-1.62,3.27,4.09
8.333460927009583,2,3,3,3,-5.57,0.2,0.4,-0.47,3,3.69
8.343460917472839,2,3,3,3,-5.61,0.24,0.43,0.63,2.64,3.36
8.353460907936096,2,3,3,3,-5.59,0.35,0.45,0.63,2.64,3.36
8.363460898399353,2,3,3,3,-6.35,1.13,0.85,1.43,2.38,2.85
8.37346088886261,2,3,3,3,-6.69,1.31,1.05,0.91,1.67,1.84
8.383460879325867,2,3,3,3,-7.18,1.45,1.18,-0.11,1.62,1.62
8.393460869789124,2,3,3,3,-7.6,1.56,1.24,-0.93,2.14,1.66
8.40346086025238,2,3,3,3,-8.039999999999999,1.6,1.21,-0.93,2.14,1.66
8.413461089134216,2,3,3,3,-8.08,1.73,0.99,-1.58,3.21,1.79
8.423461079597473,2,3,3,3,-8.1,1.81,0.8,-1.86,4.49,1.76
8.43346107006073,2,3,3,3,-8.289999999999999,1.71,0.66,-1.35,4.51,1.39
8.443461060523987,2,3,3,3,-8.69,1.86,1.62,0.14,4.32,0.88
8.453461050987244,2,3,3,3,-9.18,1.99,1.6,0.14,4.32,0.88
8.4634610414505,2,3,3,3,-9.76,1.79,1.72,2.47,2.39,0.36
8.473461031913757,2,3,3,3,-10.09,1.51,1.43,4.51,-0.74,-0.03
8.483461022377014,2,3,3,3,-10.28,1.39,1.61,5,-1.53,0.2
8.493461012840271,2,3,3,3,-10.49,1.37,1.41,4.36,-2.61,0.01
8.503461003303528,2,3,3,3,-10.06,1.35,1.15,4.36,-2.61,0.01
8.513460993766785,2,3,3,3,-8.859999999999999,1.3,1.33,2.72,-2.64,-0.36
8.523460984230042,2,3,3,3,-8.619999999999999,1.33,1.35,3.6,-0.51,-0.03
8.533460974693298,2,3,3,3,-8.369999999999999,1.06,0.82,3.69,0.08,0.29
8.543460965156555,2,3,3,3,-8.4,1.24,0.9,4.02,0.61,0.39
8.553460955619812,2,3,3,3,-9.41,1.62,0.84,4.02,0.61,0.39
8.563460946083069,2,3,3,3,-9.4,1.85,1,3.65,-0.09,-0.1
8.573460936546326,2,3,3,3,-9.710000000000001,2,1.1,2.91,-0.6,-0.8
8.583460927009583,2,3,3,3,-9.94,2.06,0.92,1.96,-1.54,-1.35
8.593460917472839,2,3,3,3,-9.52,1.94,0.96,1.13,-2.06,-1.56
8.603460907936096,2,3,3,3,-9.619999999999999,1.92,1.37,0.25,-2.46,-1.54
8.613460898399353,2,3,3,3,-9.75,2.12,1.63,-0.95,-3.03,-1.36
8.62346088886261,2,3,3,3,-8.93,2.02,1.43,-2.05,-3.18,-1.27
8.633460879325867,2,3,3,3,-9.380000000000001,1.92,1.21,-2.93,-2.98,-1.26
8.643460869789124,2,3,3,3,-9.4,1.81,1.21,-3.78,-3.07,-1.41
8.65346086025238,2,3,3,3,-9.42,1.78,1.16,-4.63,-2.76,-1.48
8.663461089134216,2,3,3,3,-9.710000000000001,1.4,1.14,-4.99,-2.21,-1.56
8.673461079597473,2,3,3,3,-9.49,1.23,1.1,-4.93,-1.62,-1.56
8.68346107006073,2,3,3,3,-9.26,1.09,1.09,-4.09,-0.84,-1.38
8.693461060523987,2,3,3,3,-9.27,0.95,1.22,-2.83,0.1,-1.12
8.703461050987244,2,3,3,3,-9.69,0.99,1.67,-1.23,0.74,-0.78
8.7134610414505,2,3,3,3,-9.94,1.09,1.64,0.26,1.16,-0.39
8.723461031913757,2,3,3,3,-10.05,1.13,1.51,1.53,1.09,-0.03
8.733461022377014,2,3,3,3,-9.970000000000001,1.18,1.3,2.66,0.88,0.19
8.743461012840271,2,3,3,3,-9.43,1.11,1.24,3.51,0.53,0.26
8.753461003303528,2,3,3,3,-9.1,1.1,1.22,4.14,0.27,0.24
8.763460993766785,2,3,3,3,-8.949999999999999,1.08,1.23,4.72,0.34,0.21
8.774460911750793,2,3,3,3,-8.84,1.25,0.87,5.14,0.42,0.12
8.78446090221405,2,3,3,3,-8.789999999999999,1.42,0.87,5.54,0.5600000000000001,0.15
8.794460892677307,2,3,3,3,-8.880000000000001,1.6,1.05,5.71,0.75,0.19
8.804460883140564,2,3,3,3,-9,1.79,1.2,5.42,0.79,0.17
8.814460873603821,2,3,3,3,-9.359999999999999,2.14,1.47,5.01,0.76,0.11
8.824460864067078,2,3,3,3,-9.470000000000001,2.21,1.35,4.44,0.63,0.09
8.834461092948914,2,3,3,3,-9.51,2.31,1.05,3.83,0.41,0.05
8.84446108341217,2,3,3,3,-9.51,2.4,1.03,3.29,0.5,0.1
8.854461073875427,2,3,3,3,-9.49,2.36,0.9399999999999999,2.76,0.71,0.17
8.864461064338684,2,3,3,3,-9.539999999999999,2.23,0.87,2.32,0.82,0.26
8.874461054801941,2,3,3,3,-9.65,2.08,0.76,1.97,0.92,0.32
8.884461045265198,2,3,3,3,-9.789999999999999,1.97,0.5,1.8,1,0.34
8.894461035728455,2,3,3,3,-10.01,2.15,0.48,1.76,0.97,0.29
8.904461026191711,2,3,3,3,-9.99,2.16,0.5600000000000001,1.58,0.71,0.21
8.914461016654968,2,3,3,3,-9.92,2.1,0.84,1.39,0.5,0.06
8.924461007118225,2,3,3,3,-9.82,2.01,0.93,1.41,0.38,-0.1
8.934460997581482,2,3,3,3,-9.67,1.92,0.8,1.66,0.2,-0.34
8.944460988044739,2,3,3,3,-9.630000000000001,1.99,0.98,2,0.17,-0.54
8.954460978507996,2,3,3,3,-9.6,2.07,1.08,2.35,0.11,-0.64
8.964460968971252,2,3,3,3,-9.43,2.11,1.21,2.76,-0.04,-0.65
8.974460959434509,2,3,3,3,-9.24,2.1,1.11,3.06,-0.25,-0.61
8.984460949897766,2,3,3,3,-9.050000000000001,2.12,0.96,3.24,-0.17,-0.55
8.994460940361023,2,3,3,3,-8.99,2.15,0.8,3.27,-0.01,-0.51
9.00446093082428,2,3,3,3,-9.1,2.25,0.85,3.24,0.13,-0.47
9.014460921287537,2,3,3,3,-9.289999999999999,2.24,0.8100000000000001,3,0.33,-0.47
9.024460911750793,2,3,3,3,-9.56,2.2,0.74,2.57,0.34,-0.45
9.03446090221405,2,3,3,3,-9.720000000000001,2.42,0.74,1.74,0.24,-0.43
9.044460892677307,2,3,3,3,-10.02,2.25,0.98,0.99,0.22,-0.28
9.054460883140564,2,3,3,3,-9.94,2.22,1.03,0.41,0.12,-0.08
9.064460873603821,2,3,3,3,-9.84,2.2,1.12,0.04,0.18,0.16
9.074460864067078,2,3,3,3,-9.65,2.14,1.07,-0.26,0.23,0.39
9.084461092948914,2,3,3,3,-9.279999999999999,2.19,1,-0.82,0.27,0.47
9.09446108341217,2,3,3,3,-9.34,2.1,1.1,-1.24,0.35,0.46
9.104461073875427,2,3,3,3,-9.49,2.05,0.95,-1.48,0.44,0.32
9.114461064338684,2,3,3,3,-9.880000000000001,2.02,0.96,-1.5,0.58,0.24
9.124461054801941,2,3,3,3,-9.890000000000001,1.94,0.92,-1.37,0.59,0.28
9.134461045265198,2,3,3,3,-9.800000000000001,1.8,0.91,-1.24,0.5,0.38
9.144461035728455,2,3,3,3,-9.6,1.67,1.01,-0.86,0.36,0.45
9.154461026191711,2,3,3,3,-9.16,1.53,0.84,-0.45,0.31,0.49
9.164461016654968,2,3,3,3,-8.970000000000001,1.6,0.7,-0.14,0.22,0.41
9.174461007118225,2,3,3,3,-9.01,1.77,0.6899999999999999,0.24,0.29,0.31
9.184460997581482,2,3,3,3,-9.279999999999999,1.84,0.6899999999999999,0.92,0.54,0.29
9.194460988044739,2,3,3,3,-9.43,1.96,0.59,1.24,0.36,0.25
9.204460978507996,2,3,3,3,-9.34,2.06,0.6899999999999999,1.31,0.21,0.22
9.214460968971252,2,3,3,3,-9.35,1.97,0.68,1.4,0.32,0.2
9.224460959434509,2,3,3,3,-9.27,1.95,0.64,1.14,0.14,0.11
9.234460949897766,2,3,3,3,-9.300000000000001,1.96,0.8,0.84,0.07000000000000001,0
9.244460940361023,2,3,3,3,-9.49,1.92,0.79,0.5600000000000001,0.04,-0.01
9.25446093082428,2,3,3,3,-9.67,1.9,0.79,0,-0.14,-0.03
9.264460921287537,2,3,3,3,-9.75,1.88,1.09,-0.49,-0.19,0.03
9.274460911750793,2,3,3,3,-9.73,1.87,1.07,-0.8100000000000001,-0.24,0.07000000000000001
9.28446090221405,2,3,3,3,-9.66,1.85,0.91,-1.03,-0.26,0.04
9.294460892677307,2,3,3,3,-9.6,1.74,1.03,-0.88,-0.12,0.07000000000000001
9.304460883140564,2,3,3,3,-9.44,1.52,0.78,-0.41,0.06,0.1
9.314460873603821,2,3,3,3,-9.5,1.46,0.6899999999999999,-0.29,0.27,0.16
9.324460864067078,2,3,3,3,-9.58,1.48,0.64,-0.41,0.49,0.18
9.334461092948914,2,3,3,3,-9.6,1.56,0.5600000000000001,-0.5,0.6,0.17
9.34446108341217,2,3,3,3,-9.75,1.72,0.66,-0.5600000000000001,0.62,0.25
9.354461073875427,2,3,3,3,-9.779999999999999,1.8,0.72,-0.6899999999999999,0.65,0.32
9.364461064338684,2,3,3,3,-9.83,1.85,1.01,-0.5,0.75,0.48
9.374461054801941,2,3,3,3,-9.77,1.71,0.6,0.06,0.6,0.58
9.384461045265198,2,3,3,3,-9.529999999999999,1.61,0.4,0.01,0.48,0.51
9.394461035728455,2,3,3,3,-9.49,1.57,0.53,-0.1,0.5,0.46
9.404461026191711,2,3,3,3,-9.49,1.58,0.62,-0.11,0.44,0.4
9.414461016654968,2,3,3,3,-9.48,1.52,0.63,-0.11,0.38,0.35
9.424461007118225,2,3,3,3,-9.48,1.56,0.6,-0.01,0.32,0.3
9.434460997581482,2,3,3,3,-9.470000000000001,1.51,0.59,0.45,0.29,0.24
9.444460988044739,2,3,3,3,-9.48,1.53,0.59,0.89,0.22,0.13
9.454460978507996,2,3,3,3,-9.470000000000001,1.5,0.55,1.29,0,0.05
9.464460968971252,2,3,3,3,-9.44,1.59,0.65,1.38,-0.18,-0.07000000000000001
9.474460959434509,2,3,3,3,-9.48,1.66,0.7,1.43,-0.28,-0.11
9.484460949897766,2,3,3,3,-9.550000000000001,1.7,0.61,1.46,-0.38,-0.17
9.494460940361023,2,3,3,3,-9.57,1.8,0.51,1.32,-0.42,-0.26
9.50446093082428,2,3,3,3,-9.640000000000001,1.76,0.53,0.91,-0.27,-0.29
9.514460921287537,2,3,3,3,-9.640000000000001,1.79,0.62,0.45,-0.03,-0.3
9.524460911750793,2,3,3,3,-9.619999999999999,1.84,0.96,0.01,0.18,-0.28
9.53446090221405,2,3,3,3,-9.609999999999999,1.79,0.75,-0.34,0.22,-0.27
9.544460892677307,2,3,3,3,-9.630000000000001,1.72,0.78,-0.58,0.28,-0.22
9.554460883140564,2,3,3,3,-9.619999999999999,1.67,0.87,-0.79,0.29,-0.2
9.564460873603821,2,3,3,3,-9.57,1.6,0.84,-1.05,0.25,-0.22
9.574460864067078,2,3,3,3,-9.31,1.58,0.72,-1.06,0.13,-0.3
9.584461092948914,2,3,3,3,-9.199999999999999,1.58,0.49,-0.93,0.14,-0.46
9.59446108341217,2,3,3,3,-9.210000000000001,1.52,0.41,-0.8,0.21,-0.61
9.604461073875427,2,3,3,3,-9.449999999999999,1.44,0.54,-0.61,0.41,-0.75
9.614461064338684,2,3,3,3,-9.699999999999999,1.44,0.58,-0.36,0.63,-0.84
9.624461054801941,2,3,3,3,-9.77,1.32,0.34,0.02,0.5,-0.88
9.634461045265198,2,3,3,3,-9.779999999999999,1.28,0.24,0.29,0.42,-0.89
9.644461035728455,2,3,3,3,-9.800000000000001,1.31,0.37,0.43,0.48,-0.9
9.654461026191711,2,3,3,3,-9.6,1.35,0.42,0.43,0.45,-1.03
9.664461016654968,2,3,3,3,-9.470000000000001,1.38,0.4,0.17,0.7,-1.16
9.674461007118225,2,3,3,3,-9.380000000000001,1.38,0.36,-0.26,1.16,-1.25
9.684460997581482,2,3,3,3,-9.51,1.14,0.12,-0.85,1.54,-1.28
9.694460988044739,2,3,3,3,-9.640000000000001,0.89,-0.05,-1.02,1.84,-1.25
9.704460978507996,2,3,3,3,-9.880000000000001,0.63,-0.04,-0.64,2.02,-1.1
9.714460968971252,2,3,3,3,-10.2,0.49,-0.14,0.15,2.05,-0.88
9.724460959434509,2,3,3,3,-10.34,0.61,0,1.28,1.97,-0.76
9.734460949897766,2,3,3,3,-10.27,0.89,0.09,2.35,1.8,-0.75
9.744460940361023,2,3,3,3,-10,1.16,0.19,2.75,1.55,-0.79
9.75446093082428,2,3,3,3,-9.58,1.51,0.49,2.61,1.45,-0.96
9.764460921287537,2,3,3,3,-9.550000000000001,1.58,0.42,2.17,1.62,-1.2
9.774460911750793,2,3,3,3,-9.52,1.53,0.39,1.21,1.81,-1.51
9.78446090221405,2,3,3,3,-9.539999999999999,1.58,0.28,0.06,2.06,-1.74
9.795461058616638,2,3,3,3,-9.83,1.59,0.08,-1.2,2.35,-1.78
9.805461049079895,2,3,3,3,-9.84,1.59,0.17,-2.41,2.43,-1.71
9.815461039543152,2,3,3,3,-9.859999999999999,1.4,0.12,-3.29,2.45,-1.53
9.825461030006409,2,3,3,3,-9.83,1.4,0.08,-3.81,2.35,-1.44
9.835461020469666,2,3,3,3,-9.52,1.34,0.03,-4.14,2.17,-1.35
9.845461010932922,2,3,3,3,-9.49,1.31,0.08,-4.26,1.97,-1.37
9.855461001396179,2,3,3,3,-9.5,1.4,0.11,-4.33,1.75,-1.41
9.865460991859436,2,3,3,3,-9.529999999999999,1.21,0.3,-4.51,1.47,-1.42
9.875460982322693,2,3,3,3,-9.6,1.03,0.23,-4.83,1.36,-1.34
9.88546097278595,2,3,3,3,-9.640000000000001,0.87,0.33,-5.28,1.22,-1.1
9.895460963249207,2,3,3,3,-9.609999999999999,0.67,0.46,-5.79,1.12,-0.84
9.905460953712463,2,3,3,3,-9.77,0.49,0.5,-6.12,1.06,-0.48
9.91546094417572,2,3,3,3,-9.800000000000001,0.34,0.52,-6.27,1.1,-0.14
9.925460934638977,2,3,3,3,-9.82,0.26,0.53,-6.16,1.19,0.29
9.935460925102234,2,3,3,3,-9.83,0.26,0.42,-5.75,1.37,0.72
9.945460915565491,2,3,3,3,-9.710000000000001,0.43,0.9,-5.3,1.35,1.02
9.955460906028748,2,3,3,3,-9.529999999999999,0.46,0.89,-4.71,1.36,1.21
9.965460896492004,2,3,3,3,-9.5,0.37,0.68,-3.9,1.43,1.26
9.975460886955261,2,3,3,3,-9.52,0.39,0.72,-3.49,1.53,1.13
9.985460877418518,2,3,3,3,-9.85,0.46,0.46,-3.26,1.6,0.96
9.995460867881775,2,3,3,3,-9.859999999999999,0.58,0.54,-3.1,1.59,0.83
10.00546085834503,2,3,3,3,-9.77,0.66,0.6,-2.95,1.48,0.72
10.01546108722687,2,3,3,3,-9.699999999999999,0.76,0.58,-2.72,1.26,0.74
10.02546107769012,2,3,3,3,-9.24,0.88,0.4,-2.41,0.9,0.83
10.03546106815338,2,3,3,3,-9.18,0.92,0.43,-2.15,0.8,0.88
10.04546105861664,2,3,3,3,-9.199999999999999,0.97,0.35,-2.01,1.03,0.93
10.0554610490799,2,3,3,3,-9.199999999999999,1,0.31,-2.06,1.29,1.03
10.06546103954315,2,3,3,3,-9.19,1.2,-0.25,-2.4,1.63,1.24
10.07546103000641,2,3,3,3,-9.220000000000001,1.22,-0.12,-2.82,1.97,1.51
10.08546102046967,2,3,3,3,-9.199999999999999,1.17,0.09,-3.26,2.07,1.75
10.09546101093292,2,3,3,3,-9.32,0.89,0.53,-3.95,1.86,1.82
10.10546100139618,2,3,3,3,-9.77,0.63,0.77,-4.78,1.42,1.72
10.11546099185944,2,3,3,3,-10.16,0.23,0.75,-5.62,0.79,1.55
10.12546098232269,2,3,3,3,-10.26,-0.23,0.68,-6.27,0.27,1.38
10.13546097278595,2,3,3,3,-9.630000000000001,-1.01,0.65,-6.72,0.11,1.25
10.14546096324921,2,3,3,3,-9.18,-1.13,0.63,-6.91,0.26,1.15
10.15546095371246,2,3,3,3,-8.859999999999999,-1.21,0.5,-6.7,0.5600000000000001,1
10.16546094417572,2,3,3,3,-8.890000000000001,-1.17,0.53,-5.9,1.02,0.95
10.17546093463898,2,3,3,3,-9.359999999999999,-0.89,0.36,-4.69,1.48,1.1
10.18546092510223,2,3,3,3,-9.58,-0.63,0.22,-3.48,1.91,1.28
10.19546091556549,2,3,3,3,-9.800000000000001,-0.35,0.23,-2.42,2.2,1.48
10.20546090602875,2,3,3,3,-9.82,-0.02,0.16,-1.84,2.43,1.6
10.215460896492,2,3,3,3,-9.82,0.28,0.2,-1.73,2.67,1.71
10.22546088695526,2,3,3,3,-9.76,0.28,0.17,-2.1,2.91,1.78
10.23546087741852,2,3,3,3,-9.779999999999999,0.21,0.02,-2.77,3.04,1.87
10.24546086788177,2,3,3,3,-9.91,0.23,-0.1,-3.48,2.95,1.96
10.25546085834503,2,3,3,3,-9.93,0.19,0.03,-4.02,2.79,2.08
10.26546108722687,2,3,3,3,-9.94,0.14,-0.07000000000000001,-4.66,2.64,2.25
10.27546107769012,2,3,3,3,-10.05,-0.03,-0.1,-5.26,2.76,2.2
10.28546106815338,2,3,3,3,-10.29,-0.32,-0.13,-5.71,2.86,2
10.29546105861664,2,3,3,3,-10.46,-0.57,-0.08,-5.96,2.63,1.67
10.3054610490799,2,3,3,3,-10.63,-0.61,-0.15,-6.15,2.2,1.2
10.31546103954315,2,3,3,3,-10.86,-0.51,-0.23,-5.96,1.86,0.65
10.32546103000641,2,3,3,3,-11.12,-0.31,-0.31,-5.46,1.49,0.19
10.33546102046967,2,3,3,3,-11.21,-0.24,-0.36,-5.07,1.22,-0.17
10.34546101093292,2,3,3,3,-11.37,-0.14,-0.11,-4.67,1.21,-0.35
10.35546100139618,2,3,3,3,-11.61,-0.09,0.01,-4.32,1.26,-0.41
10.36546099185944,2,3,3,3,-12.41,-0.09,0.16,-3.77,1.31,-0.6
10.37546098232269,2,3,3,3,-12.61,-0.2,0.24,-2.84,1.28,-1.02
10.38546097278595,2,3,3,3,-12.62,-0.71,0.07000000000000001,-1.35,0.88,-1.4
10.39546096324921,2,3,3,3,-12.65,-1.41,-0.52,0.34,0.28,-1.78
10.40546095371246,2,3,3,3,-12.54,-1.12,-0.39,2.13,-0.2,-2.19
10.41546094417572,2,3,3,3,-12.27,-0.46,-0.22,3.81,-0.77,-2.59
10.42546093463898,2,3,3,3,-12.27,-0.46,-0.22,4.99,-1.47,-2.73
10.43546092510223,2,3,3,3,-12.18,1.22,0.08,5.9,-2.22,-2.75
10.44546091556549,2,3,3,3,-12,1.49,0.19,6.55,-3.25,-2.67
10.45546090602875,2,3,3,3,-11.68,1.9,0.23,6.3,-4.95,-2.58
10.465460896492,2,3,3,3,-11.68,1.9,0.23,5.55,-6.37,-2.5
10.47546088695526,2,3,3,3,-11.33,2.5,0.48,5.3,-7.42,-2.46
10.48546087741852,2,3,3,3,-9.949999999999999,3.57,0.54,5.05,-8.109999999999999,-2.38
10.49546086788177,2,3,3,3,-9.32,3.32,0.41,5.05,-8.279999999999999,-2.36
10.50546085834503,2,3,3,3,-8.68,2.84,0.2,5.19,-7.67,-2.33
10.51546108722687,2,3,3,3,-8.68,2.84,0.2,5.48,-6.51,-2.41
10.52546107769012,2,3,3,3,-8.06,1.67,0.58,5.34,-5.46,-2.59
10.53546106815338,2,3,3,3,-8.460000000000001,1.18,0.89,5.14,-5.19,-2.82
10.54546105861664,2,3,3,3,-8.49,1.41,1.12,5.71,-5.69,-2.9
10.5554610490799,2,3,3,3,-8.56,1.61,0.91,6.6,-6.27,-2.67
10.56546103954315,2,3,3,3,-8.56,1.61,0.91,6.6,-6.27,-2.67
10.57546103000641,2,3,3,3,-8.970000000000001,2.01,1.27,7.5,-6.28,-2.31
10.58546102046967,2,3,3,3,-9.42,2.95,1.06,7.68,-6.77,-1.82
10.59546101093292,2,3,3,3,-9.26,3.08,0.76,7.69,-7.44,-1.68
10.60546100139618,2,3,3,3,-9.1,3.05,0.67,7.58,-7.64,-1.67
10.61546099185944,2,3,3,3,-9.1,3.05,0.67,7.58,-7.64,-1.67
10.62546098232269,2,3,3,3,-8.949999999999999,2.85,0.57,7.18,-7.49,-1.71
10.63546097278595,2,3,3,3,-9.01,2.21,0.87,6.27,-6.95,-1.9
10.64546096324921,2,3,3,3,-9.029999999999999,2.01,0.99,6.14,-7.3,-1.98
10.65546095371246,2,3,3,3,-8.789999999999999,1.78,0.9399999999999999,6.9,-7.34,-1.78
10.66546094417572,2,3,3,2,-8.869999999999999,1.59,0.84,6.9,-7.34,-1.78
10.67546093463898,2,3,3,2,-8.49,1.63,1.1,7.33,-7.22,-1.67
10.68546092510223,2,3,3,2,-8.359999999999999,1.77,1.13,7.13,-7.6,-1.52
10.69546091556549,2,3,3,2,-8.17,1.86,1.15,7.07,-7.87,-1.41
10.70546090602875,2,3,3,2,-8.029999999999999,1.94,1.17,7.17,-8.07,-1.19
10.715460896492,2,3,3,2,-7.78,1.7,1.01,7.17,-8.07,-1.19
10.72546088695526,2,3,3,2,-7.82,1.5,0.84,7.49,-8.01,-0.9
10.73546087741852,2,3,3,2,-7.93,1.33,0.93,8.99,-7.22,-0.29
10.74546086788177,2,3,3,2,-8.41,1.37,1.51,9.82,-6.85,0.13
10.75546085834503,2,3,3,2,-8.789999999999999,1.56,1.91,10.72,-6.78,0.51
10.76546108722687,2,3,3,2,-8.82,1.77,2.21,10.72,-6.78,0.51
10.77546107769012,2,3,3,2,-8.77,1.93,2.24,11.16,-6.7,0.74
10.78546106815338,2,3,3,2,-8.789999999999999,2.17,2.73,10.43,-5.67,0.55
10.79546105861664,2,3,3,2,-8.49,2.27,2.42,9.9,-4.95,0.32
10.8054610490799,2,3,3,2,-8.27,2.12,2.34,9.119999999999999,-4.33,0.16
10.81546103954315,2,3,3,2,-8.050000000000001,1.97,2.32,9.119999999999999,-4.33,0.16
10.82646095752716,2,3,3,2,-7.85,1.36,2.5,7.74,-3.51,0.18
10.83646094799042,2,3,3,2,-7.82,1,2.59,4.91,-1.93,0.61
10.84646093845367,2,3,3,2,-7.96,0.6899999999999999,2.78,3.76,-1.23,0.9399999999999999
10.85646092891693,2,3,3,2,-8.029999999999999,0.46,3.08,3.01,-0.5600000000000001,1.15
10.86646091938019,2,3,3,2,-8.16,0.05,3.37,3.01,-0.5600000000000001,1.15
10.87646090984344,2,3,3,2,-8.15,-0.01,3.47,2.87,0.06,1.21
10.8864609003067,2,3,3,2,-8.16,-0.15,3.4,3.12,0.57,0.88
10.89646089076996,2,3,3,2,-8.08,-0.24,3.26,3.47,0.54,0.75
10.90646088123322,2,3,3,2,-7.96,-0.45,3.26,3.85,0.5600000000000001,0.67
10.91646087169647,2,3,3,2,-8.130000000000001,-0.47,3.37,3.85,0.5600000000000001,0.67
10.92646086215973,2,3,3,2,-8.359999999999999,-0.42,3.48,5.88,-0.08,0.45
10.93646109104156,2,3,3,2,-8.49,-0.68,2.91,7.08,-0.37,0.36
10.94646108150482,2,3,3,2,-8.67,-0.39,2.69,7.89,-0.37,0.23
10.95646107196808,2,3,3,2,-8.69,0.03,2.53,9.050000000000001,-0.34,0.13
10.96646106243134,2,3,3,2,-8.859999999999999,0.53,2.26,9.050000000000001,-0.34,0.13
10.97646105289459,2,3,3,2,-9.460000000000001,1.43,2.31,11.26,0.66,-0.36
10.98646104335785,2,3,3,2,-9.93,1.71,2.63,11.3,1.03,-0.7
10.99646103382111,2,3,3,2,-10.52,1.59,3.01,9.67,1.07,-1.28
11.00646102428436,2,3,3,2,-10.97,1.45,3.64,9.02,1.42,-1.29
11.01646101474762,2,3,3,2,-11.34,0.66,5.12,9.02,1.42,-1.29
11.02646100521088,2,3,3,1,-12,0.05,5.84,9.07,1.7,-1.44
11.03646099567413,2,3,3,1,-12.74,-0.19,6.2,5.58,-2.81,-2.18
11.04646098613739,2,3,3,1,-13.01,-0.27,6.21,4.99,-5.41,-2.02
11.05646097660065,2,3,3,1,-11.27,0.83,4.63,6.03,-6.58,-1.4
11.0664609670639,2,3,3,1,-11,1.65,4.55,6.03,-6.58,-1.4
11.07646095752716,2,3,3,1,-11.75,2.92,4.21,6.62,-8.470000000000001,-0.51
11.08646094799042,2,3,3,1,-12.18,4.84,3.07,5.19,-8.119999999999999,1.24
11.09646093845367,2,3,3,1,-12.54,5.1,3.16,3.47,-6.15,2.14
11.10646092891693,2,3,3,1,-13.36,4.82,3.17,0.54,-4.09,2.93
11.11646091938019,2,3,3,1,-13.38,4.36,3.01,0.54,-4.09,2.93
11.12646090984344,2,3,3,1,-12.96,4.56,3.87,-1.91,-2.28,3.28
11.1364609003067,2,3,3,1,-11.94,5.12,3.67,-3.78,-1.47,2.87
11.14646089076996,2,3,3,1,-10.88,5.48,3.81,-6.17,-1.37,1.86
11.15646088123322,2,3,3,1,-9.49,5.19,3.39,-8.880000000000001,-1.87,0.73
11.16646087169647,2,3,3,1,-7.45,3.54,2.36,-10.83,-1.91,-0.5600000000000001
11.17646086215973,2,3,3,1,-7.16,2.86,1.43,-12.15,-0.83,-1.73
11.18646109104156,2,3,3,1,-7.22,2.69,0.54,-13.49,0.88,-2.55
11.19646108150482,2,3,3,1,-7.44,2.43,-0.05,-13.58,2.19,-2.86
11.20646107196808,2,3,3,1,-8.34,1.66,-0.51,-12.71,2.95,-2.6
11.21646106243134,2,3,3,1,-8.869999999999999,1.29,-0.99,-11.11,3.5,-1.93
11.22646105289459,2,3,3,1,-9.460000000000001,1.22,-1.01,-8.970000000000001,3.89,-0.92
11.23646104335785,2,3,3,1,-9.710000000000001,1.48,-0.62,-6.57,3.98,0.12
11.24646103382111,2,3,3,1,-9.67,1.77,-0.26,-4.2,3.98,0.76
11.25646102428436,2,3,3,1,-9.51,2.17,0.23,-2.2,3.83,1.24
11.26646101474762,2,3,3,1,-9.23,2.68,0.5600000000000001,-1.17,3.4,1.35
11.27646100521088,2,3,3,0,-8.26,3.29,0.95,-1.07,3.13,1.23
11.28646099567413,2,3,3,0,-7.56,3.5,0.73,-1.93,3.16,0.91
11.29646098613739,2,3,3,0,-7.31,3.51,0.89,-3.17,3.52,0.52
11.30646097660065,2,3,3,0,-7.19,3.33,0.5600000000000001,-5.04,3.72,0.08
11.3164609670639,2,3,3,0,-6.81,2.97,0.48,-6.63,3.83,-0.26
11.32646095752716,2,3,3,0,-6.6,2.9,0.41,-8.109999999999999,4.23,-0.54
11.33646094799042,2,3,3,0,-6.65,2.84,0.34,-9.220000000000001,4.95,-0.62
11.34646093845367,2,3,3,0,-6.89,2.64,0.27,-10.16,5.77,-0.53
11.35646092891693,2,3,3,0,-7.71,2.72,0.16,-11.34,6.42,-0.26
11.36646091938019,2,3,3,0,-8.289999999999999,2.71,0.21,-12.67,6.9,0.08
11.37646090984344,2,3,3,0,-8.869999999999999,2.73,0.21,-13.84,7.11,0.28
11.3864609003067,2,3,3,0,-9.380000000000001,2.39,0.29,-14.63,7.09,0.35
11.39646089076996,2,3,3,0,-9.369999999999999,1.72,0.21,-15.05,6.77,0.44
11.40646088123322,2,3,3,0,-8.949999999999999,1.24,0.22,-15.12,6.44,0.53
11.41646087169647,2,3,3,0,-8.529999999999999,0.96,0.31,-14.79,6.43,0.6899999999999999
11.42646086215973,2,3,3,0,-8.65,0.71,0.36,-14.41,6.41,0.8100000000000001
11.43646109104156,2,3,3,0,-9.09,0.77,0.6,-13.99,6.22,0.79
11.44646108150482,2,3,3,0,-9.550000000000001,0.78,0.55,-13.94,5.91,0.83
11.45646107196808,2,3,3,0,-9.9,0.85,0.75,-14.18,5.55,1.13
11.46646106243134,2,3,3,0,-10.21,0.6,1.09,-14.2,5.25,1.61
11.47646105289459,2,3,3,0,-10.04,0.22,1.04,-13.82,4.84,2.14
11.48646104335785,2,3,3,0,-9.619999999999999,-0.16,1.41,-13.19,4.52,2.46
11.49646103382111,2,3,3,0,-9.24,-0.43,1.36,-12.26,4.33,2.72
11.50646102428436,2,3,3,0,-8.83,-0.89,1.47,-10.87,4.06,2.97
11.51646101474762,2,3,3,0,-8.68,-0.86,1.45,-9.220000000000001,3.81,3.14
11.52646100521088,2,3,3,0,-8.74,-0.9,1.4,-7.31,3.41,3.36
11.53646099567413,2,3,3,0,-8.800000000000001,-0.73,1.48,-5.17,3.07,3.56
11.54646098613739,2,3,3,0,-8.99,-0.31,1.64,-3.4,2.88,3.75
11.55646097660065,2,3,3,0,-9.02,-0.17,1.63,-1.99,2.59,3.91
11.5664609670639,2,3,3,0,-9.050000000000001,-0.25,1.53,-0.84,2.31,4.08
11.57646095752716,2,3,3,0,-9.57,-0.34,1.34,-0.19,2,4.34
11.58646094799042,2,3,3,0,-9.859999999999999,-0.44,1.19,0.24,1.54,4.81
11.59646093845367,2,3,3,0,-10.11,-0.45,1.03,0.49,0.98,5.35
11.60646092891693,2,3,3,0,-10.21,-0.43,1.01,0.64,0.42,5.86
11.61646091938019,2,3,3,0,-9.49,0.18,1.04,0.4,0.08,6.2
11.62646090984344,2,3,3,0,-9.08,0.52,0.83,-0.19,-0.05,6.53
11.6364609003067,2,3,3,0,-8.83,0.86,0.8100000000000001,-1.41,0.1,6.69
11.64646089076996,2,3,3,0,-8.699999999999999,1.23,0.79,-3.28,0.45,6.67
11.65646088123322,2,3,3,0,-8.52,1.95,0.65,-5.8,1.14,6.48
11.66646087169647,2,3,3,0,-8.630000000000001,1.7,0.21,-8.51,1.77,6.07
11.67646086215973,2,3,3,0,-8.94,1.13,0,-10.66,2.24,5.37
11.68646109104156,2,3,3,0,-9.51,0.5600000000000001,0.13,-11.87,2.21,4.38
11.69646108150482,2,3,3,0,-10.73,-0.57,1.08,-12,1.88,3.14
11.70646107196808,2,3,3,0,-11.33,-0.77,1.47,-11.35,1.5,1.84
11.71646106243134,2,3,3,0,-11.84,-0.77,1.51,-10.16,1.16,0.83
11.72646105289459,2,3,3,0,-12.14,-0.37,1.56,-9.300000000000001,1.34,0.16
11.73646104335785,2,3,3,0,-12.18,0.03,1.83,-9.140000000000001,1.9,-0.04
11.74646103382111,2,3,3,0,-12.1,0.34,2.15,-10.02,2.48,-0.03
11.75646102428436,2,3,3,0,-12.09,0.26,1.66,-10.76,3.24,-0.11
11.76646101474762,2,3,3,0,-12.5,-0.47,0.93,-9.800000000000001,4.14,-0.28
11.77646100521088,2,3,3,0,-12.61,-0.57,0.92,-7.36,4.93,-0.48
11.78646099567413,2,3,3,0,-12.61,-0.42,1.11,-4.23,5.42,-0.8100000000000001
11.79646098613739,2,3,3,0,-12.66,-0.28,1.15,-0.42,5.34,-1.33
11.80646097660065,2,3,3,0,-12.17,0.54,0.42,4.7,5,-2.53
11.81746089458466,2,3,3,0,-11.73,1.32,-0.14,9.4,5.05,-4.3
11.82646095752716,2,3,3,0,-11.51,2.07,-0.7,12.51,5.34,-6.22
11.83646094799042,2,3,3,0,-11.29,2.99,-0.71,14,5.58,-7.9
11.84746086597443,2,3,3,0,-11,4.01,-0.6899999999999999,14.41,5.32,-9.300000000000001
11.85746085643768,2,3,3,0,-10.79,4.21,-0.64,13.95,3.79,-10.51
11.86746108531952,2,3,3,0,-10.23,4.55,-0.23,12.04,1.45,-11.28
11.87746107578278,2,3,3,0,-9.859999999999999,4.62,0.22,8.9,-0.47,-11.6
11.88746106624603,2,3,3,0,-9.94,4.33,1.11,5.52,-2.43,-11.5
11.89746105670929,2,3,3,0,-9.81,4.08,1.21,2.49,-4.12,-11.05
11.90746104717255,2,3,3,0,-9.880000000000001,3.59,1.2,0.54,-4.57,-10.14
11.9174610376358,2,3,3,0,-10.81,1.96,1.2,0.14,-4.29,-8.880000000000001
11.92746102809906,2,3,3,0,-11.33,1.11,1.39,0.76,-4.17,-7.38
11.93746101856232,2,3,3,0,-11.53,0.57,1.52,2.13,-4.36,-5.54
11.94746100902557,2,3,3,0,-11.2,0.29,1.44,3.83,-4.91,-3.76
11.95746099948883,2,3,3,0,-10.03,0.55,0.99,5.56,-5.34,-2.54
11.96746098995209,2,3,3,0,-9.43,0.92,0.74,7.13,-5.6,-1.85
11.97746098041534,2,3,3,0,-9.210000000000001,1.42,0.52,8.699999999999999,-5.54,-1.28
11.9874609708786,2,3,3,0,-8.960000000000001,1.78,0.48,9.710000000000001,-5.54,-0.53
11.99746096134186,2,3,3,0,-9.01,2.07,0.28,10.01,-5.64,0.27
12.00746095180511,2,3,3,0,-9.01,1.9,0.46,9.960000000000001,-6.34,0.7
12.01746094226837,2,3,3,0,-9.15,1.7,0.75,9.800000000000001,-7.52,0.67
12.02746093273163,2,3,3,0,-9.23,1.55,1.04,9.710000000000001,-9.09,0.43
12.03746092319489,2,3,3,0,-8.69,1.02,1.3,9.81,-10.63,0.16
12.04746091365814,2,3,3,0,-8.25,0.76,1.46,10.17,-11.38,-0.03
12.0574609041214,2,3,3,0,-7.92,0.62,1.62,10.52,-11.41,-0.23
12.06746089458466,2,3,3,0,-7.57,0.49,1.8,10.91,-11.12,-0.48
12.07746088504791,2,3,3,0,-7.19,0.57,1.86,11.04,-10.83,-0.65
12.08746087551117,2,3,3,0,-6.78,0.54,1.75,11.17,-10.39,-0.68
12.09746086597443,2,3,3,0,-6.75,0.77,1.76,11.38,-9.57,-0.45
12.10746085643768,2,3,3,0,-6.8,0.75,1.88,11.68,-8.81,-0.05
12.11746108531952,2,3,3,0,-6.89,0.78,2.04,12.1,-7.85,0.37
12.12746107578278,2,3,3,0,-7.2,0.79,2.21,12.38,-6.57,0.88
12.13746106624603,2,3,3,0,-7.4,0.87,2.29,12.43,-5.26,1.42
12.14746105670929,2,3,3,0,-7.46,0.9,2.14,12.59,-3.76,2.11
12.15746104717255,2,3,3,0,-7.39,0.99,2.26,12.52,-1.99,2.8
12.1674610376358,2,3,3,0,-7.27,1.1,2.43,11.67,-0.35,3.22
12.17746102809906,2,3,3,0,-7.14,1.17,2.71,10.3,0.88,3.24
12.18746101856232,2,3,3,0,-6.86,0.84,2.99,8.67,1.59,2.83
12.19746100902557,2,3,3,0,-6.72,0.5600000000000001,3.03,7.56,1.93,2.06
12.20746099948883,2,3,3,0,-6.74,0.24,3.14,6.72,2.09,1.23
12.21746098995209,2,3,3,0,-7.02,-0.44,3.51,6,2.39,0.43
12.22746098041534,2,3,3,0,-7.3,-0.63,3.68,5.58,2.68,-0.32
12.2374609708786,2,3,3,0,-7.58,-0.54,3.77,5.35,2.67,-0.9
12.24746096134186,2,3,3,0,-8.09,-0.24,3.46,6.08,2.35,-1.3
12.25746095180511,2,3,3,0,-9.15,0.03,3.07,7.99,1.04,-1.65
12.26746094226837,2,3,3,0,-8.9,0.38,2.14,9.640000000000001,-0.76,-2.05
12.27746093273163,2,3,3,0,-8.15,1.11,1.06,11.4,-1.78,-2.28
12.28746092319489,2,3,3,0,-8.199999999999999,2.11,0.06,13.31,0.35,-1.83
12.29746091365814,2,3,3,0,-12.67,2.27,0.82,14.3,3.21,-1.12
12.3074609041214,2,3,3,0,-14.71,1.73,2.9,12.31,2.91,-0.66
12.31746089458466,2,3,3,0,-15.6,1.23,5.27,8.67,1.27,-0.48
12.32746088504791,2,3,3,0,-16.05,0.42,6.49,6.89,-0.15,-0.52
12.33746087551117,2,3,3,0,-14.37,-0.44,5.19,6.38,-3.19,-0.75
12.34746086597443,2,3,3,0,-13.41,-0.28,4.61,6.19,-5.43,-0.84
12.35746085643768,2,3,3,0,-12.65,-0.49,4.45,7.55,-8.01,-0.74
12.36746108531952,2,3,3,0,-11.67,-0.99,4.93,9.33,-11.15,-1
12.37746107578278,2,3,3,0,-10.33,0.93,5.25,10.62,-14.34,-1.67
12.38746106624603,2,3,3,0,-10.63,2.19,4.66,11.53,-15.95,-1.75
12.39746105670929,2,3,3,0,-10.68,2.73,4.88,10.73,-15.02,-1.07
12.40746104717255,2,3,3,0,-12.66,3.55,4.46,9.06,-11.8,-0.03
12.4174610376358,2,3,3,0,-12.98,3.59,4.45,6.8,-8.630000000000001,1.14
12.42746102809906,2,3,3,0,-12.01,4.08,3.62,3.54,-6.66,2.05
12.43746101856232,2,3,3,0,-10.86,4.84,3.45,0.72,-4.75,2.32
12.44746100902557,2,3,3,0,-9.789999999999999,5.33,2.67,-1.5,-3.78,1.71
12.45746099948883,2,3,3,0,-8.56,4.8,1.78,-4.12,-4.56,0.47
12.46746098995209,2,3,3,0,-7.81,4.49,0.6899999999999999,-5.53,-4.78,-0.84
12.47746098041534,2,3,3,0,-7.85,4.08,-0.19,-5.18,-3.69,-1.44
12.4874609708786,2,3,3,0,-8.050000000000001,3.2,-1.52,-5.34,-2.17,-1.33
12.49746096134186,2,3,3,0,-8.369999999999999,2.9,-1.7,-6.08,0.13,-0.86
12.50746095180511,2,3,3,0,-8.720000000000001,2.72,-1.65,-5.74,2.65,-0.22
12.51746094226837,2,3,3,0,-9.26,2.68,-1.5,-5.03,4.35,0.48
12.52746093273163,2,3,3,0,-9.220000000000001,3.48,-0.79,-4.14,5.01,1.13
12.53746092319489,2,3,3,0,-9.23,4.09,-0.28,-3.64,5.46,1.25
12.54746091365814,2,3,3,0,-9.4,4.52,0.33,-3.34,5.86,1.28
12.5574609041214,2,3,3,0,-8.84,4.86,0.74,-4.3,6.13,1.26
12.56746089458466,2,3,3,0,-8.449999999999999,4.73,0.57,-6.29,7.04,1.08
12.57746088504791,2,3,3,0,-8.300000000000001,4.22,0.49,-8.220000000000001,8.4,0.96
12.58746087551117,2,3,3,0,-8.35,3.76,0.28,-10.17,9.5,0.6899999999999999
12.59746086597443,2,3,3,0,-8.43,2.73,-0.04,-12.41,9.73,0.14
12.60746085643768,2,3,3,0,-8.26,2.21,-0.1,-14.09,9.390000000000001,-0.44
12.61746108531952,2,3,3,0,-7.83,1.75,-0.17,-15.06,8.65,-0.8
12.62746107578278,2,3,3,0,-7.13,1.44,-0.04,-15.42,7.99,-0.95
12.63746106624603,2,3,3,0,-6.73,1.22,0.1,-15.39,7.79,-0.8
12.64746105670929,2,3,3,0,-6.98,1.41,0.21,-15.3,7.74,-0.37
12.65746104717255,2,3,3,0,-7.43,1.54,0.28,-15.19,8.01,0.39
12.6674610376358,2,3,3,0,-8.02,1.71,0.43,-15.38,8.25,1.29
12.67746102809906,2,3,3,1,-8.140000000000001,1.61,0.53,-15.87,8.17,1.9
12.68746101856232,2,3,3,1,-7.97,1.53,0.49,-16.33,8.15,2.25
12.69746100902557,2,3,3,1,-8,1.46,0.76,-16.77,8.1,2.47
12.70746099948883,2,3,3,1,-8.33,1.19,0.51,-16.97,7.87,2.65
12.71746098995209,2,3,3,1,-8.65,1.14,0.48,-16.76,7.61,3.01
12.72746098041534,2,3,3,1,-8.800000000000001,1.16,0.55,-16.49,7.31,3.53
12.7374609708786,2,3,3,1,-9.01,1.05,0.31,-16.21,7.18,3.95
12.74746096134186,2,3,3,1,-9.94,0.85,0.57,-15.44,6.78,4.38
12.75746095180511,2,3,3,1,-10.21,0.44,0.62,-14.7,6.07,4.83
12.76746094226837,2,3,3,1,-10.95,-0.03,0.83,-13.91,5.6,5.35
12.77846086025238,2,3,3,2,-10.55,-0.58,1.16,-13.1,4.27,5.63
12.78746092319489,2,3,3,2,-9.16,-1.77,1.44,-12.25,2.91,5.79
12.79746091365814,2,3,3,2,-8.81,-2.22,1.55,-10.76,2.02,5.88
12.80846107006073,2,3,3,2,-8.710000000000001,-2.27,1.66,-8.6,1.25,5.92
12.81746089458466,2,3,3,2,-8.94,-2.06,1.78,-6.06,0.5600000000000001,5.91
12.82746088504791,2,3,3,2,-9.960000000000001,-1.44,1.73,-3.36,-0.2,5.69
12.8384610414505,2,3,3,2,-9.890000000000001,-1.08,1.74,-0.93,-1.17,5.16
12.84746086597443,2,3,3,2,-9.529999999999999,-0.72,1.35,0.98,-1.81,4.7
12.85746085643768,2,3,3,2,-9.1,-0.51,1.34,2.16,-1.74,4.61
12.86746108531952,2,3,3,2,-8.41,0,1.49,2.19,-1.21,4.78
12.87846100330353,2,3,3,3,-8.41,0,1.49,1.04,-0.47,5.16
12.88846099376678,2,3,3,3,-8.630000000000001,1.12,1.63,-1.04,0.29,5.7
12.89846098423004,2,3,3,3,-9.18,1.61,0.44,-4.06,1.2,6.38
12.9084609746933,2,3,3,3,-9.24,1.16,0.11,-7.39,2.02,6.92
12.91846096515656,2,3,3,3,-9.5,0.47,0.19,-9.73,2.65,6.94
12.92846095561981,2,3,3,3,-10.13,-0.42,0.42,-10.36,2.94,6.44
12.93846094608307,2,3,3,3,-10.13,-0.42,0.42,-9.65,2.62,5.38
12.94846093654633,2,3,3,3,-11.37,-0.04,2.13,-8.27,2.05,3.91
12.95846092700958,2,3,3,3,-11.68,0.72,2.26,-6.72,2.06,2.17
12.96846091747284,2,3,3,3,-12.09,1.45,2.54,-6.07,2.62,0.35
12.9784609079361,2,3,3,3,-12.09,1.45,2.54,-6.94,3.41,-0.95
12.98846089839935,2,3,3,3,-12.76,2.25,2.01,-8.539999999999999,4.26,-1.8
12.99846088886261,2,3,3,3,-12.82,1.57,1.79,-9.869999999999999,5.12,-2.55
13.00846087932587,2,3,3,3,-12.8,0.75,1.54,-9.529999999999999,5.76,-3.21
13.01846086978912,2,3,3,3,-12.12,-0.88,1.03,-6.56,6.17,-3.82
13.03846108913422,2,3,3,3,-11.96,-1.43,0.54,-2.5,6.73,-4.45
13.04846107959747,2,3,3,3,-11.36,0.61,-0.44,5.61,6.97,-5.81
13.07846105098724,2,3,3,3,-10.68,3.17,0.19,10.85,6.36,-7.6
13.0884610414505,2,3,3,3,-10.4,4,0.05,12.31,5.48,-8.85
13.09846103191376,2,3,3,3,-10.79,5.36,0.6,11.56,1.97,-11.44
13.10846102237701,2,3,3,3,-11.2,5.23,1.05,8.19,-1.09,-12.15
13.11846101284027,2,3,3,3,-11.55,4.8,1.21,4.28,-3.47,-12.37
13.12846100330353,2,3,3,3,-11.55,4.8,1.21,4.28,-3.47,-12.37
13.13846099376678,2,3,3,3,-12.35,3.9,1.26,-0.42,-5.04,-10.2
13.14846098423004,2,3,3,3,-13.37,2.25,1.72,-0.89,-4.68,-8.050000000000001
13.1584609746933,2,3,3,3,-13.28,1.31,1.83,-0.48,-4.6,-5.9
13.16846096515656,2,3,3,3,-13.28,1.31,1.83,0.6,-5.03,-4.11
13.17846095561981,2,3,3,3,-11.42,0.58,1.75,0.6,-5.03,-4.11
13.18846094608307,2,3,3,3,-10.31,0.66,1.49,2.02,-5.6,-2.9
13.19846093654633,2,3,3,3,-8.859999999999999,1.3,1.35,4.39,-5.27,-1.42
13.20846092700958,2,3,3,3,-8.859999999999999,1.3,1.35,4.79,-5.22,-0.9
13.21846091747284,2,3,3,3,-8.949999999999999,1.33,1.14,4.89,-5.3,-0.21
13.2284609079361,2,3,3,3,-9.109999999999999,1.36,1.03,4.89,-5.3,-0.21
13.23846089839935,2,3,3,3,-9.109999999999999,1.34,0.92,5.27,-5.62,0.46
13.24846088886261,2,3,3,3,-9.08,1.14,1.01,6.68,-7.4,1.09
13.25846087932587,2,3,3,3,-8.81,0.96,1.08,7.44,-8.73,1.04
13.26846086978912,2,3,3,3,-8.359999999999999,0.51,1.12,8.460000000000001,-9.83,0.77
13.27846086025238,2,3,3,2,-7.8,0.14,1.24,8.460000000000001,-9.83,0.77
13.28846108913422,2,3,3,2,-6.79,-0.24,1.57,9.710000000000001,-10.33,0.63
13.29846107959747,2,3,3,2,-6.15,-0.16,1.76,12.5,-9.82,0.8100000000000001
13.30846107006073,2,3,3,2,-5.7,0.15,1.78,13.34,-9.06,0.8
13.31846106052399,2,3,3,2,-5.32,0.51,1.78,14.02,-8.35,0.7
13.32846105098724,2,3,3,2,-4.95,1,1.7,14.02,-8.35,0.7
13.3384610414505,2,3,3,2,-5,1,1.66,14.31,-7.85,0.66
13.34846103191376,2,3,3,2,-5.01,1,1.39,14.99,-6.06,0.82
13.35846102237701,2,3,3,2,-5.07,1,1.41,14.92,-4.83,1.22
13.36846101284027,2,3,3,2,-5.29,1.02,1.6,14.81,-3.33,1.77
13.37846100330353,2,3,3,1,-5.33,1.32,2.14,14.81,-3.33,1.77
13.38846099376678,2,3,3,1,-5.56,1.64,2.55,14.35,-1.42,2.36
13.39846098423004,2,3,3,1,-6.25,2.18,2.99,11.42,2.02,2.72
13.4084609746933,2,3,3,1,-6.46,2.14,2.97,9.800000000000001,2.81,2.16
13.41846096515656,2,3,3,1,-6.51,2.05,3.12,8.34,3.08,1.27
13.42846095561981,2,3,3,1,-6.63,1.92,3.1,8.34,3.08,1.27
13.43846094608307,2,3,3,1,-7.44,1.14,3.12,7.16,3.02,0.06
13.44846093654633,2,3,3,1,-8.039999999999999,0.72,3.26,5.14,2.18,-2.7
13.45846092700958,2,3,3,1,-8.550000000000001,0.43,3.47,4.29,1.69,-3.79
13.46846091747284,2,3,3,1,-8.94,0.25,3.74,3.59,1.59,-4.41
13.4784609079361,2,3,3,1,-10.19,0.13,3.59,3.59,1.59,-4.41
13.48846089839935,2,3,3,1,-10.71,0.23,3.06,3.34,1.48,-4.54
13.49846088886261,2,3,3,1,-11.15,0.35,2.5,4.35,1.62,-3.49
13.50846087932587,2,3,3,1,-11.54,0.55,2.01,5.57,2.07,-2.5
13.51846086978912,2,3,3,1,-12.56,0.79,2.52,6.52,1.93,-1.38
13.52846086025238,2,3,3,1,-13.12,0.27,3.56,6.52,1.93,-1.38
13.53846108913422,2,3,3,1,-13.43,-0.67,5.26,6.64,1.2,-0.39
13.54846107959747,2,3,3,1,-13,-2.83,5.89,5.54,0.32,0.57
13.55846107006073,2,3,3,1,-12.79,-3.59,5.33,5.55,-1.89,0.55
13.56846106052399,2,3,3,1,-12.04,-3.32,4.94,6.08,-4.7,0.37
13.57846105098724,2,3,3,1,-11.84,-2.33,5.97,6.08,-4.7,0.37
13.5884610414505,2,3,3,1,-11.01,0.57,5.13,8.039999999999999,-7.33,0.27
13.59846103191376,2,3,3,1,-11.33,2.74,3.38,11.18,-14.46,-0.98
13.60846102237701,2,3,3,1,-11.33,4.38,3.44,10.33,-15.03,-1.46
13.61846101284027,2,3,3,1,-10.72,5.76,1.79,8.09,-9.369999999999999,-1
13.62846100330353,2,3,3,1,-15.71,9.380000000000001,-0.63,8.09,-9.369999999999999,-1
13.63846099376678,2,3,3,0,-20.11,9.119999999999999,-0.08,3.87,-3.19,0.3
13.64846098423004,2,3,3,0,-21.58,8.449999999999999,0.49,-3.12,0.41,5.26
13.6584609746933,2,3,3,0,-18.75,8.6,1.05,-4.79,-5.32,5.42
13.66846096515656,2,3,3,0,-10.43,6.83,0.62,-4.79,-5.32,5.42
13.67846095561981,2,3,3,0,-6.7,5.76,-0.09,-7.03,-11.13,4.07
13.68846094608307,2,3,3,0,-4.42,5.11,0.04,-12.96,-7.54,0.86
13.69846093654633,2,3,3,0,-4.8,3.37,1.07,-12.96,-7.54,0.86
13.70846092700958,2,3,3,0,-5.03,2.38,0.15,-14.5,-2.8,0.21
13.71846091747284,2,3,3,0,-5.34,1.62,-0.02,-15.01,0.5,-0.04
13.7284609079361,2,3,3,0,-6.02,1.26,-0.2,-12.35,4.07,0.22
13.73846089839935,2,3,3,0,-7.43,1.45,-0.67,-10.4,4.98,0.14
13.74846088886261,2,3,3,0,-8.390000000000001,1.95,-0.3,-10.4,4.98,0.14
13.75846087932587,2,3,3,0,-9.859999999999999,2.5,0.24,-8.17,5.9,0.33
13.76846086978912,2,3,3,0,-11.19,3.19,0.61,-6.24,6,2.79
13.77846086025238,2,3,3,0,-11.36,4.09,0.53,-7.4,6.07,3.34
13.78846108913422,2,3,3,0,-10.12,3.94,0.51,-9.49,6.73,2.8
13.79846107959747,2,3,3,0,-8.699999999999999,3.72,0.9399999999999999,-11.6,7.4,1.73
13.80846107006073,2,3,3,0,-7.73,3.02,1.14,-14.05,7.23,0.78
13.81846106052399,2,3,3,0,-6.19,1.4,0.77,-16.42,6.35,0.01
13.82846105098724,2,3,3,0,-5.54,0.59,0.47,-17.47,5.61,-0.39
13.8384610414505,2,3,3,0,-5.05,0.11,0.17,-17.12,5.22,-0.37
13.84846103191376,2,3,3,0,-5.08,-0.18,-0.1,-15.89,5.55,-0.05
13.85846102237701,2,3,3,0,-6.87,0.77,-0.13,-14.13,6.34,0.55
13.86846101284027,2,3,3,0,-8.16,1.48,-0.17,-12.56,7.24,1.28
13.87846100330353,2,3,3,0,-9.23,1.89,0.11,-11.47,7.86,1.88
13.88846099376678,2,3,3,1,-9.859999999999999,2.17,0.46,-11.08,7.94,2.39
13.89946091175079,2,3,3,1,-9.41,1.98,0.51,-11.2,7.89,2.6
13.90946090221405,2,3,3,1,-8.98,1.84,0.53,-11.61,7.69,2.48
13.91946089267731,2,3,3,1,-8.539999999999999,1.71,0.8,-12.34,7.37,2.14
13.92946088314056,2,3,3,1,-8.699999999999999,1.21,0.98,-12.92,6.67,1.84
13.93946087360382,2,3,3,1,-8.68,0.79,1.04,-13.05,5.68,1.68
13.94946086406708,2,3,3,1,-8.460000000000001,0.72,0.99,-12.96,5.1,1.79
13.95946109294891,2,3,3,1,-8.52,0.43,1.2,-13.05,5.23,2.41
13.96946108341217,2,3,3,1,-9.720000000000001,-0.48,1.48,-13.19,5.63,3.52
13.97946107387543,2,3,3,1,-10.26,-0.89,1.67,-12.83,5.49,4.72
13.98946106433868,2,3,3,1,-10.22,-1.24,1.89,-11.92,4.72,5.85
13.99946105480194,2,3,3,1,-9.880000000000001,-1.47,1.82,-10.2,4.11,6.69
14.0094610452652,2,3,3,1,-9.1,-1.03,2.05,-8.17,3.68,7.03
14.01946103572845,2,3,3,1,-8.800000000000001,-0.7,2.19,-6.07,3.42,6.9
14.02946102619171,2,3,3,1,-8.85,-0.47,1.87,-3.66,3.31,6.46
14.03946101665497,2,3,3,2,-9.460000000000001,-0.1,2.03,-1.25,2.86,5.86
14.04946100711823,2,3,3,2,-9.49,0.16,1.87,0.67,2.15,5.32
14.05946099758148,2,3,3,2,-9.470000000000001,0.28,1.63,2,1.59,5.06
14.06946098804474,2,3,3,2,-9.41,0.31,1.38,2.5,1.19,5.06
14.079460978508,2,3,3,2,-9.300000000000001,-0.01,1.2,2.37,0.83,5.19
14.08946096897125,2,3,3,2,-9.529999999999999,-0.11,1.12,1.62,0.59,5.44
14.09946095943451,2,3,3,2,-9.66,0.05,1.08,0.68,0.37,5.73
14.10946094989777,2,3,3,2,-9.68,0.35,1.09,-0.48,0.27,6.02
14.11946094036102,2,3,3,2,-9,1.32,0.72,-2.02,0.48,6.32
14.12946093082428,2,3,3,2,-8.630000000000001,1.51,0.35,-3.97,1.02,6.65
14.13946092128754,2,3,3,2,-8.460000000000001,1.47,0.11,-5.67,1.85,6.76
14.14946091175079,2,3,3,2,-8.56,0.82,0.1,-5.93,2.17,6.38
14.15946090221405,2,3,3,2,-9.529999999999999,-0.66,1.22,-4.73,1.57,5.52
14.16946089267731,2,3,3,2,-9.68,-0.47,2.38,-3.18,0.68,4.15
14.17946088314056,2,3,3,2,-9.869999999999999,0.07000000000000001,3.16,-2.79,0.4,2.57
14.18946087360382,2,3,3,2,-10.76,0.77,2.51,-3.55,1.06,1.13
14.19946086406708,2,3,3,2,-11.32,1.45,2.32,-5.21,2.46,0.33
14.20946109294891,2,3,3,2,-11.68,2.05,2.45,-7.85,3.81,0.23
14.21946108341217,2,3,3,2,-12.01,2.07,2.24,-10.73,4.81,0.3
14.23946106433868,2,3,3,2,-12.44,0.75,0.14,-8.81,6.56,-0.46
14.24946105480194,2,3,3,2,-12.5,0.54,0.46,-5.42,6.95,-0.61
14.2594610452652,2,3,3,2,-12.58,0.19,0.23,-0.86,6.58,-0.72
14.26946103572845,2,3,3,2,-12.32,0.65,-0.06,4.43,6.33,-1.57
14.27946102619171,2,3,3,2,-12.24,0.88,-0.58,9.800000000000001,6.52,-3.54
14.28946101665497,2,3,3,2,-12.32,1.45,-0.84,13.11,6.79,-6.12
14.29946100711823,2,3,3,2,-12.32,2.11,-1.05,14.07,6.7,-8.619999999999999
14.30946099758148,2,3,3,2,-12.19,3.52,-0.28,13.22,5.63,-10.6
14.31946098804474,2,3,3,2,-11.63,4.33,0.13,10.91,3.05,-11.81
14.329460978508,2,3,3,2,-10.89,4.53,0.26,8.49,0.55,-12.37
14.33946096897125,2,3,3,2,-10.44,4.67,0.82,5.57,-1.73,-12.26
14.34946095943451,2,3,3,2,-10.25,4.73,1.81,2.92,-3.65,-11.74
14.35946094989777,2,3,3,2,-10.57,4.42,1.73,0.75,-5.56,-11.04
14.36946094036102,2,3,3,2,-10.96,3.77,1.19,-0.65,-7.08,-10.18
14.37946093082428,2,3,3,2,-11.21,2.16,0.54,-0.61,-7.43,-8.98
14.38946092128754,2,3,3,2,-11.45,1.15,0.64,0.29,-7.14,-7.34
14.39946091175079,2,3,3,2,-11.46,0.29,0.63,1.5,-7.17,-5.52
14.40946090221405,2,3,3,2,-10.99,-0.21,0.53,3.3,-7.47,-4.1
14.41946089267731,2,3,3,2,-9.83,0.78,0.67,5.01,-7.3,-3.39
14.42946088314056,2,3,3,2,-9.5,1.57,0.45,6.15,-6.79,-3.04
14.43946087360382,2,3,3,2,-9.31,2.07,0.26,6.79,-6.22,-2.74
14.44946086406708,2,3,3,2,-9.06,2.58,0.36,6.79,-5.91,-2.25
14.45946109294891,2,3,3,2,-8.92,2.84,0.76,6.33,-5.76,-1.7
14.46946108341217,2,3,3,2,-8.970000000000001,2.75,1.21,5.47,-6.18,-1.24
14.47946107387543,2,3,3,2,-9.119999999999999,2.53,1.5,4.4,-7.33,-1.04
14.48946106433868,2,3,3,3,-8.949999999999999,2.08,1.45,4.17,-8.960000000000001,-0.83
14.49946105480194,2,3,3,3,-7.79,0.65,1.79,4.2,-10.02,-0.59
14.5094610452652,2,3,3,3,-7.47,0.06,2.08,4.07,-10.02,-0.3
14.51946103572845,2,3,3,3,-7.38,-0.28,2.43,4.49,-9.44,0.02
14.52946102619171,2,3,3,3,-7.24,-0.6,2.25,5.64,-8.960000000000001,0.2
14.53946101665497,2,3,3,3,-7.3,-0.59,1.94,7.32,-8.539999999999999,0.03
14.54946100711823,2,3,3,3,-7.21,-0.47,1.75,9.02,-8.16,-0.34
14.55946099758148,2,3,3,3,-7.03,-0.13,1.55,10.69,-7.81,-0.74
14.56946098804474,2,3,3,3,-6.98,0.32,1.54,12.14,-7.45,-0.97
14.579460978508,2,3,3,3,-6.87,0.58,1.5,13.15,-6.91,-1.02
14.58946096897125,2,3,3,3,-6.72,0.66,1.48,14.05,-6.1,-0.8100000000000001
14.59946095943451,2,3,3,3,-6.65,0.82,1.62,15.05,-4.98,-0.33
14.60946094989777,2,3,3,3,-6.58,1.04,1.9,15.43,-3.5,0.4
14.61946094036102,2,3,3,3,-6.63,1.15,2.14,15.12,-1.79,1.2
14.62946093082428,2,3,3,3,-6.81,1.33,2.45,14.42,-0.17,1.9
14.63946092128754,2,3,3,3,-7.01,1.4,2.63,13.11,1.21,2.34
14.64946091175079,2,3,3,3,-7.1,1.61,2.87,12.09,2.69,2.41
14.65946090221405,2,3,3,3,-7.43,1.59,2.57,11.28,4.26,2.05
14.66946089267731,2,3,3,3,-7.76,1.36,2.71,10.33,4.41,1.56
14.67946088314056,2,3,3,3,-7.66,0.84,2.8,9.279999999999999,3.52,0.89
14.68946087360382,2,3,3,3,-7.83,0.76,2.88,7.79,3.17,-0.04
14.69946086406708,2,3,3,3,-8.07,0.73,3.25,6.55,3.33,-0.9
14.70946109294891,2,3,3,3,-8.33,0.85,3.26,5.64,3.47,-1.51
14.71946108341217,2,3,3,3,-9.449999999999999,0.85,3.14,5.28,2.8,-2.08
14.72946107387543,2,3,3,3,-9.5,0.68,2.81,5.18,0.96,-2.49
14.73946106433868,2,3,3,3,-9.369999999999999,0.71,2.3,4.72,-0.06,-2.77
14.74946105480194,2,3,3,3,-9.26,0.87,1.81,5.07,0.43,-2.69
14.7594610452652,2,3,3,3,-9.949999999999999,1.66,0.63,6.05,1.63,-2.16
14.76946103572845,2,3,3,3,-11.17,1.56,1.04,6.98,2,-1.41
14.77946102619171,2,3,3,3,-12.25,0.92,2.45,6.37,1.32,-0.66
14.78946101665497,2,3,3,3,-13,0.05,4.45,5.05,0.84,-0.09
14.79946100711823,2,3,3,3,-12.75,-1.94,5.41,3.99,0.74,0.27
14.80946099758148,2,3,3,3,-12.17,-2.32,5.24,3.86,-0.03,0.49
14.81946098804474,2,3,3,3,-12.14,-2.18,5.17,5.5,-1.51,0.6
14.829460978508,2,3,3,3,-12.2,-1.77,4.99,7.75,-5.34,0.45
14.83946096897125,2,3,3,3,-10.38,-0.22,3.09,9.56,-9.470000000000001,0.01
14.84946095943451,2,3,3,3,-10.58,0.82,3.37,11.53,-12.45,-0.6
14.85946094989777,2,3,3,3,-11.46,2.46,2.99,12.27,-14.67,-1.36
14.86946094036102,2,3,3,3,-12.7,5.49,2.09,11.83,-14.15,-1.59
14.87946093082428,2,3,3,3,-14.44,6.72,1.19,10.35,-9.98,-0.63
14.88946092128754,2,3,3,3,-17.9,6.56,0.87,7.35,-4.23,1.49
14.89946091175079,2,3,3,3,-19.76,5.74,1.29,3.97,-1.3,4.38
14.90946090221405,2,3,3,3,-14.14,5.57,2.12,1.02,-2.96,5.99
14.92046105861664,2,3,3,3,-10.76,4.87,2.45,-1.08,-6.55,5.44
14.9304610490799,2,3,3,3,-7.49,4.61,0.88,-4.18,-8.720000000000001,3.7
14.94046103954315,2,3,3,3,-5.8,4,-0.02,-6.67,-6.98,1.85
14.95046103000641,2,3,3,3,-6.11,3.11,-0.23,-7.16,-4.23,0.29
14.96046102046967,2,3,3,3,-6.13,2.38,-0.64,-6.82,-2.54,-0.85
14.97046101093292,2,3,3,3,-5.87,1.97,-1.17,-6.14,-0.92,-1.71
14.98046100139618,2,3,3,3,-6.26,1.66,-1.16,-4.11,1.18,-2.14
14.99046099185944,2,3,3,3,-7.44,1.48,-0.85,-1.63,2.5,-2.26
15.00046098232269,2,3,3,3,-8.26,1.87,-0.8100000000000001,0.26,3.07,-2.15
15.01046097278595,2,3,3,3,-9.220000000000001,2.65,-1.04,1.48,3.79,-1.73
15.02046096324921,2,3,3,3,-11.78,4.52,-0.22,2.5,4.48,-0.82
15.03046095371246,2,3,3,3,-12.43,5.29,0.14,2.85,4.39,0.2
15.04046094417572,2,3,3,3,-11.93,5.84,0.36,1.32,3.81,0.8
15.05046093463898,2,3,3,3,-10.56,5.88,0.44,-1.59,3.67,0.73
15.06046092510223,2,3,3,3,-7.96,4.61,0.62,-5.27,4.31,0.02
15.07046091556549,2,3,3,3,-7.92,4.08,0.91,-8.73,5.42,-0.73
15.08046090602875,2,3,3,3,-8.02,3.58,1.19,-11.75,5.69,-1.45
15.090460896492,2,3,3,3,-7.97,3.03,1.16,-14.56,4.83,-2.04
15.10046088695526,2,3,3,3,-7.63,1.74,0.92,-16.44,3.67,-2.44
15.11046087741852,2,3,3,3,-7.71,1.27,1.01,-17.17,2.9,-2.36
15.12046086788177,2,3,3,3,-7.75,0.86,0.97,-17.44,2.48,-1.91
15.13046085834503,2,3,3,3,-7.85,0.64,0.98,-17.46,2.44,-1.07
15.14046108722687,2,3,3,3,-8.67,0.52,1.28,-17.15,2.81,0.07000000000000001
15.15046107769012,2,3,3,3,-9.130000000000001,0.35,1.11,-16.21,2.99,1.44
15.16046106815338,2,3,3,3,-9.130000000000001,0.05,0.65,-14.71,3.08,2.61
15.17046105861664,2,3,3,3,-9.18,-0.27,0.83,-12.76,3.69,3.47
15.1804610490799,2,3,3,3,-8.859999999999999,-0.29,0.98,-10.39,4.38,4.05
15.19046103954315,2,3,3,3,-8.32,-0.13,0.95,-8.48,4.61,4.27
15.20046103000641,2,3,3,3,-7.79,0.18,0.95,-6.84,4.78,4.19
15.21046102046967,2,3,3,3,-7.22,1.2,0.71,-5.03,5.05,3.96
15.22046101093292,2,3,3,3,-7.62,1.83,0.71,-3.62,5.42,3.66
15.23046100139618,2,3,3,3,-8.390000000000001,2.3,0.71,-2.58,5.74,3.53
15.24046099185944,2,3,3,3,-9.300000000000001,2.49,0.74,-2.73,5.87,3.63
15.25046098232269,2,3,3,3,-10.35,2.18,1.03,-4.21,5.53,3.69
15.26046097278595,2,3,3,3,-10.37,1.76,1.08,-6.32,4.68,3.66
15.27046096324921,2,3,3,3,-10.32,1.2,1.26,-8.09,3.64,3.55
15.28046095371246,2,3,3,3,-10.38,0.41,1.55,-9.199999999999999,2.97,3.51
15.29046094417572,2,3,3,3,-10.2,-0.9399999999999999,1.6,-9.4,2.26,3.3
15.30046093463898,2,3,3,3,-9.44,-1.25,1.6,-8.85,1.53,2.86
15.31046092510223,2,3,3,3,-8.57,-1.26,1.53,-7.47,0.96,2.41
15.32046091556549,2,3,3,3,-8.02,-1.19,1.56,-5.53,0.92,2.06
15.33046090602875,2,3,3,3,-8.550000000000001,-0.63,1.65,-3.42,1.16,1.98
15.340460896492,2,3,3,3,-9.210000000000001,-0.39,1.6,-1.43,1.31,1.96
15.35046088695526,2,3,3,3,-9.77,-0.14,1.47,0.62,1.1,1.83
15.36046087741852,2,3,3,3,-9.85,0.42,1.22,2.36,0.7,1.67
15.37046086788177,2,3,3,3,-9.69,0.53,1.35,3.43,0.6,1.63
15.38046085834503,2,3,3,3,-9.710000000000001,0.57,1.2,3.73,0.78,1.73
15.39046108722687,2,3,3,3,-9.75,0.53,1.1,3.51,0.9399999999999999,1.93
15.40046107769012,2,3,3,3,-9.699999999999999,0.68,1.54,3.01,0.92,2.36
15.41046106815338,2,3,3,3,-9.529999999999999,0.82,1.54,2.12,0.85,2.99
15.42046105861664,2,3,3,3,-9.380000000000001,1,1.41,1.1,0.91,3.65
15.4304610490799,2,3,3,3,-9.26,1.18,1.46,0.11,0.89,4.15
15.44046103954315,2,3,3,3,-8.85,1.79,1.67,-1.09,0.83,4.65
15.45046103000641,2,3,3,3,-8.9,1.89,1.43,-2.99,0.85,5.08
15.46046102046967,2,3,3,3,-9.07,1.82,1.18,-5.18,0.96,5.46
15.50046098232269,2,3,3,3,-9.42,0.61,0.82,-9.07,1.51,5.29
15.51046097278595,2,3,3,3,-9.5,0.32,1.12,-8.69,1.66,4.91
15.590460896492,2,3,3,3,-11.38,1.51,0.61,-2.53,5.15,0.36
15.60046088695526,2,3,3,3,-11.86,1.93,0.6,-1.27,5.27,-0.75
15.61046087741852,2,3,3,3,-12.56,2.02,-0.08,0.63,5.11,-2.15
15.62046086788177,2,3,3,3,-12.76,2.27,0.27,2.97,4.87,-3.84
15.63046085834503,2,3,3,3,-13.16,3.2,0.11,4.9,4.57,-5.5
15.64046108722687,2,3,3,3,-13.16,3.2,0.11,4.9,4.57,-5.5
15.65046107769012,2,3,3,3,-13.2,3.43,0.24,6.37,4.07,-7.05
15.66046106815338,2,3,3,3,-12.38,3.81,-0.15,5.94,2.17,-8.41
15.67046105861664,2,3,3,3,-11.4,4.51,0.47,4.12,1.08,-8.5
15.6804610490799,2,3,3,3,-10.84,4.84,1,1.78,-0.05,-8.18
15.69046103954315,2,3,3,3,-10.84,4.84,1,1.78,-0.05,-8.18
15.70046103000641,2,3,3,3,-10.45,5.18,1.67,-0.35,-1.1,-7.42
15.71046102046967,2,3,3,3,-9.380000000000001,5.6,2.01,-4.21,-2.47,-5.51
15.72046101093292,2,3,3,3,-9.380000000000001,5.6,2.01,-5.7,-3.09,-5
15.73046100139618,2,3,3,3,-9.08,5.08,2.14,-6.73,-3.81,-4.58
15.74046099185944,2,3,3,3,-8.630000000000001,4.28,2.22,-6.73,-3.81,-4.58
15.75046098232269,2,3,3,3,-7.8,2.57,2.21,-7.33,-4.12,-4.24
15.76046097278595,2,3,3,3,-7.72,1.88,1.9,-5.64,-3.78,-3.85
15.77046096324921,2,3,3,3,-7.77,1.23,1.62,-2.86,-3.25,-3.62
15.78046095371246,2,3,3,3,-8.26,0.7,1.5,0.58,-2.74,-3.15
15.79046094417572,2,3,3,3,-9.17,1.03,1.32,0.58,-2.74,-3.15
15.80046093463898,2,3,3,3,-9.380000000000001,1.3,0.5,4.38,-2.54,-2.5
15.81146109104156,2,3,3,3,-9.449999999999999,1.67,0.22,10.32,-2.32,-0.64
15.82046091556549,2,3,3,3,-9.609999999999999,2.13,0,11.7,-2.41,0.16
15.83046090602875,2,3,3,3,-9.42,2.97,0.71,12.47,-2.42,0.61
15.840460896492,2,3,3,3,-9.51,3.14,0.79,12.47,-2.42,0.61
15.85046088695526,2,3,3,3,-9.6,3.14,0.6,12.61,-2.54,0.82
15.86046087741852,2,3,3,3,-9.48,3.1,0.8100000000000001,10.57,-3.09,0.72
15.87046086788177,2,3,3,3,-9.33,3.19,0.88,9.18,-3.49,0.61
15.88046085834503,2,3,3,3,-9.09,3.2,1.28,7.93,-3.68,0.5
15.89046108722687,2,3,3,3,-8.720000000000001,3.3,1.32,7.93,-3.68,0.5
15.90046107769012,2,3,3,3,-7.86,3.12,1.55,7.06,-3.76,0.33
15.91046106815338,2,3,3,3,-7.56,3.08,1.7,5.69,-3.22,-0.17
15.92046105861664,2,3,3,3,-7.52,2.9,1.73,4.63,-2.87,-0.38
15.9304610490799,2,3,3,3,-7.47,2.75,1.78,3.2,-2.22,-0.51
15.94046103954315,2,3,3,3,-8.300000000000001,2.48,1.71,3.2,-2.22,-0.51
15.95146095752716,2,3,3,3,-8.789999999999999,2.13,1.74,2.2,-1.61,-0.42
15.96146094799042,2,3,3,3,-9.18,1.86,1.9,0.65,-1.64,0.12
15.97146093845367,2,3,3,3,-9.35,1.69,1.67,0.11,-1.7,0.33
15.98146092891693,2,3,3,3,-9.09,1.37,2.12,0.07000000000000001,-1.7,0.27
15.99146091938019,2,3,3,3,-8.880000000000001,1.21,2.15,0.07000000000000001,-1.7,0.27
16.00146090984344,2,3,3,3,-8.800000000000001,1.07,2.23,0.4,-1.73,0
16.0114609003067,2,3,3,3,-8.960000000000001,1.11,2,0.78,-1.42,-0.96
16.02146089076996,2,3,3,3,-9.17,1.22,1.88,0.58,-1.26,-1.52
16.03146088123322,2,3,3,3,-9.050000000000001,1.33,1.73,1.32,-1.09,-2.05
16.04146087169647,2,3,3,3,-8.970000000000001,1.23,1.78,1.32,-1.09,-2.05
16.05146086215973,2,3,3,3,-8.640000000000001,1.1,1.8,2.74,-0.98,-2.41
16.06146109104156,2,3,3,3,-8.44,1.18,1.66,5.05,-0.33,-2.88
16.07146108150482,2,3,3,3,-8.380000000000001,1.19,1.59,5.42,0.1,-3.13
16.08146107196808,2,3,3,3,-8.359999999999999,1.3,1.64,5.37,0.3,-3.36
16.09146106243134,2,3,3,3,-7.77,1.57,1.6,5.37,0.3,-3.36
16.10146105289459,2,3,3,3,-7.76,1.54,1.54,5.45,0.76,-3.5
16.11146104335785,2,3,3,3,-7.85,1.43,1.66,5.74,2.09,-3.78
16.12146103382111,2,3,3,3,-7.88,1.41,1.76,5.64,2.62,-3.87
16.13146102428436,2,3,3,3,-8.51,1.85,2.53,5.52,2.76,-4.06
16.14146101474762,2,3,3,3,-8.84,2.27,2.47,5.52,2.76,-4.06
16.15146100521088,2,3,3,3,-9.34,2.63,2.15,4.64,1.82,-4.31
16.16146099567413,2,3,3,3,-9.949999999999999,2.76,1.46,1.93,-1.47,-4.84
16.17146098613739,2,3,3,3,-10.36,1.73,0.5,1.36,-0.96,-4.65
16.18146097660065,2,3,3,3,-11.46,1.04,0.87,1.45,0.79,-4.13
16.1914609670639,2,3,3,3,-12.9,0.8100000000000001,1.23,1.45,0.79,-4.13
16.20146095752716,2,3,3,3,-14.45,1.11,1.95,0.93,1.29,-3.49
16.21146094799042,2,3,3,3,-14.17,1.05,1.97,0.59,0.57,-2.49
16.22146093845367,2,3,3,3,-12.93,1.31,1.92,0.92,-0.55,-1.24
16.23146092891693,2,3,3,3,-11.25,1.89,2.24,1.04,-1.39,0.1
16.24146091938019,2,3,3,3,-9.279999999999999,2.27,2.3,1.43,-1.27,1.42
16.25146090984344,2,3,3,3,-8.710000000000001,2.22,2.24,1.65,-0.83,2.39
16.2614609003067,2,3,3,3,-8.34,2.19,2,1.48,-0.5,3.1
16.27146089076996,2,3,3,3,-7.91,2.03,1.66,1.03,-0.22,3.73
16.28146088123322,2,3,3,3,-7.28,1.62,1.35,0.52,-0.1,4.33
16.29146087169647,2,3,3,3,-7.33,1.48,1.31,0.42,0.55,4.95
16.30146086215973,2,3,3,3,-7.73,1.46,1.07,0.44,1.66,5.43
16.31146109104156,2,3,3,3,-8.279999999999999,1.64,0.71,0.67,2.52,5.73
16.32146108150482,2,3,3,3,-8.970000000000001,1.85,0.38,0.87,2.92,5.75
16.33146107196808,2,3,3,3,-9.07,2.01,0.31,1.13,3.25,5.66
16.34146106243134,2,3,3,3,-9.130000000000001,2.23,0.23,1.14,3.42,5.41
16.35146105289459,2,3,3,3,-9.18,2.59,0.27,1.12,3.37,5.07
16.37146103382111,2,3,3,3,-9.41,2.95,0.08,0.98,2.76,3.97
16.38146102428436,2,3,3,3,-9.550000000000001,3.13,0.19,0.77,2.17,3.37
16.40146100521088,2,3,3,3,-10,2.91,0.83,-0.57,0.61,1.9
16.41146099567413,2,3,3,3,-10.21,2.63,0.93,-2.09,-0.12,1.02
16.42146098613739,2,3,3,3,-10.29,2.26,0.9,-3.43,-0.68,0.21
16.43146097660065,2,3,3,3,-10.27,1.34,1.23,-4.42,-0.92,-0.53
16.4414609670639,2,3,3,3,-10.17,0.83,1.63,-5.02,-0.85,-1.14
16.45146095752716,2,3,3,3,-10.09,0.37,1.64,-3.89,-0.3,-1.62
16.46146094799042,2,3,3,3,-9.890000000000001,0.18,1.44,-3.89,-0.3,-1.62
16.47146093845367,2,3,3,3,-9.800000000000001,0.03,1.46,-2.67,-0.11,-1.57
16.48146092891693,2,3,3,3,-9.67,0.08,1.59,-1.04,0.11,-1.18
16.49146091938019,2,3,3,3,-9.49,0.33,1.45,0.52,0.2,-0.65
16.50146090984344,2,3,3,3,-8.869999999999999,1.03,1.13,3.06,0.1,0.38
16.5114609003067,2,3,3,3,-8.75,1.34,1.06,3.82,0.19,0.75
16.52146089076996,2,3,3,3,-8.789999999999999,1.58,0.86,4.04,0.34,1.02
16.53146088123322,2,3,3,3,-8.92,1.79,0.72,3.97,0.45,1.28
16.54146087169647,2,3,3,3,-9.57,2.16,0.76,3.73,0.55,1.42
16.55146086215973,2,3,3,3,-9.710000000000001,2.32,0.86,3.15,0.47,1.39
16.56146109104156,2,3,3,3,-9.789999999999999,2.38,0.91,2.32,0.4,1.22
16.57146108150482,2,3,3,3,-9.82,2.43,0.91,1.38,0.35,0.98
16.58146107196808,2,3,3,3,-9.789999999999999,2.32,0.95,0.33,0.29,0.68
16.59146106243134,2,3,3,3,-9.720000000000001,2.14,0.91,-0.5600000000000001,0.23,0.41
16.60146105289459,2,3,3,3,-9.69,1.89,0.91,-1.23,0.24,0.14
16.61146104335785,2,3,3,3,-9.66,1.74,0.9,-1.47,0.26,-0.07000000000000001
16.62146103382111,2,3,3,3,-9.630000000000001,1.47,0.85,-1.37,0.21,-0.19
16.63146102428436,2,3,3,3,-9.59,1.43,1.01,-1.14,0.18,-0.27
16.64146101474762,2,3,3,3,-9.609999999999999,1.34,1.07,-0.71,0.14,-0.29
16.65146100521088,2,3,3,3,-9.65,1.26,1.11,-0.23,0.1,-0.28
16.66146099567413,2,3,3,3,-9.6,1.31,1.11,0.29,0.11,-0.27
16.67146098613739,2,3,3,3,-9.51,1.35,1.1,0.67,0.17,-0.25
16.68146097660065,2,3,3,3,-9.52,1.37,1.1,1,0.18,-0.24
16.6914609670639,2,3,3,3,-9.57,1.39,1.13,1.21,0.2,-0.2
16.70146095752716,2,3,3,3,-9.67,1.3,1.08,1.43,0.23,-0.15
16.71146094799042,2,3,3,3,-9.720000000000001,1.26,1.17,1.58,0.12,-0.17
16.72146093845367,2,3,3,3,-9.630000000000001,1.41,1.22,1.6,0.09,-0.17
16.73146092891693,2,3,3,3,-9.49,1.6,1.18,1.62,0.11,-0.13
16.79146087169647,2,3,3,3,-9.59,1.58,1.1,1.64,0.02,-0.01
16.80146086215973,2,3,3,3,-9.630000000000001,1.65,1.13,1.52,0.1,-0.03
16.82146108150482,2,3,3,3,-9.630000000000001,1.71,1.04,1.27,0.23,-0.08
16.83146107196808,2,3,3,3,-9.710000000000001,1.64,1.08,1.17,0.3,-0.11
16.84146106243134,2,3,3,3,-9.640000000000001,1.74,1.21,1.14,0.31,-0.14
16.85146105289459,2,3,3,3,-9.67,1.78,1.17,1.06,0.3,-0.13
16.86146104335785,2,3,3,3,-9.630000000000001,1.75,1.14,1.04,0.24,-0.11
16.87146103382111,2,3,3,3,-9.59,1.7,1.03,1.07,0.23,-0.06
16.88146102428436,2,3,3,3,-9.470000000000001,1.73,1.19,1,0.17,-0.07000000000000001
16.89146101474762,2,3,3,3,-9.4,1.76,1.14,0.9,0.13,-0.07000000000000001
16.90146100521088,2,3,3,3,-9.41,1.76,1.15,0.87,0.12,-0.1
16.91146099567413,2,3,3,3,-9.449999999999999,1.78,1.2,0.73,0.16,-0.09
16.92146098613739,2,3,3,3,-9.58,1.79,1.14,0.59,0.11,-0.06
16.93146097660065,2,3,3,3,-9.529999999999999,1.83,1.2,0.45,0.06,-0.07000000000000001
16.9414609670639,2,3,3,3,-9.51,1.89,1.18,0.27,0.09,-0.06
16.95146095752716,2,3,3,3,-9.51,1.87,1.18,0.12,0.11,-0.08
16.96146094799042,2,3,3,3,-9.619999999999999,1.73,1.21,-0.02,0.12,-0.04
16.97246086597443,2,3,3,3,-9.59,1.79,1.18,-0.15,0.17,-0.05
16.98246085643768,2,3,3,3,-9.57,1.76,1.22,-0.3,0.15,0.03
16.99246108531952,2,3,3,3,-9.59,1.6,1.19,-0.33,0.14,0.09
17.00246107578278,2,3,3,3,-9.49,1.59,1.21,-0.39,0.17,0.16
17.01246106624603,2,3,3,3,-9.460000000000001,1.62,1.22,-0.41,0.24,0.23
17.02246105670929,2,3,3,3,-9.41,1.65,1.13,-0.5,0.24,0.22
17.03246104717255,2,3,3,3,-9.460000000000001,1.68,1.17,-0.59,0.23,0.19
17.0424610376358,2,3,3,3,-9.539999999999999,1.64,1.21,-0.61,0.23,0.12
17.05246102809906,2,3,3,3,-9.65,1.61,1.29,-0.63,0.16,0.06
17.06246101856232,2,3,3,3,-9.75,1.56,1.36,-0.73,-0.01,0.06
17.07246100902557,2,3,3,3,-9.74,1.51,1.31,-0.88,-0.07000000000000001,0.01
17.08246099948883,2,3,3,3,-9.630000000000001,1.5,1.33,-0.98,-0.1,-0.03
17.09246098995209,2,3,3,3,-9.57,1.45,1.38,-1.02,-0.14,-0.11
17.10246098041534,2,3,3,3,-9.49,1.36,1.43,-1.05,-0.11,-0.18
17.1124609708786,2,3,3,3,-9.48,1.28,1.4,-0.97,0.04,-0.14
17.12246096134186,2,3,3,3,-9.44,1.29,1.26,-0.8,0.18,-0.06
17.13246095180511,2,3,3,3,-9.44,1.3,1.28,-0.64,0.21,-0.03
17.14246094226837,2,3,3,3,-9.470000000000001,1.33,1.26,-0.53,0.2,0.04
17.15246093273163,2,3,3,3,-9.529999999999999,1.38,1.27,-0.38,0.26,0.08
17.16246092319489,2,3,3,3,-9.59,1.4,1.29,-0.3,0.29,0.15
17.17246091365814,2,3,3,3,-9.65,1.41,1.19,-0.23,0.26,0.17
17.1824609041214,2,3,3,3,-9.699999999999999,1.5,1.24,-0.19,0.2,0.15
17.19246089458466,2,3,3,3,-9.66,1.52,1.3,-0.17,0.12,0.14
17.20246088504791,2,3,3,3,-9.66,1.5,1.28,-0.25,0.16,0.14
17.21246087551117,2,3,3,3,-9.67,1.47,1.37,-0.39,0.1,0.04
17.22246086597443,2,3,3,3,-9.619999999999999,1.4,1.27,-0.49,0.02,0
17.23246085643768,2,3,3,3,-9.609999999999999,1.45,1.25,-0.47,-0.01,-0.01
17.24246108531952,2,3,3,3,-9.529999999999999,1.45,1.23,-0.39,0.01,0.03
17.25246107578278,2,3,3,3,-9.4,1.45,1.21,-0.36,0.02,0.03
17.26246106624603,2,3,3,3,-9.44,1.38,1.13,-0.35,0.07000000000000001,-0.03
17.27246105670929,2,3,3,3,-9.51,1.37,1.09,-0.3,0.14,-0.06
17.30246102809906,2,3,3,3,-9.75,1.42,1.24,-0.14,-0.02,-0.04
17.31246101856232,2,3,3,3,-9.699999999999999,1.4,1.26,-0.19,-0.1,-0.14
17.32246100902557,2,3,3,3,-9.65,1.36,1.18,-0.21,-0.1,-0.18
17.33246099948883,2,3,3,3,-9.56,1.32,1.24,-0.2,0,-0.2
17.34246098995209,2,3,3,3,-9.550000000000001,1.28,1.22,-0.15,0.03,-0.26
17.35246098041534,2,3,3,3,-9.56,1.28,1.23,-0.08,0.02,-0.25
17.3624609708786,2,3,3,3,-9.58,1.26,1.2,0.03,-0.05,-0.3
17.37246096134186,2,3,3,3,-9.67,1.22,1.07,0.08,-0.1,-0.28
17.38246095180511,2,3,3,3,-9.67,1.23,1.17,0.2,-0.16,-0.23
17.39246094226837,2,3,3,3,-9.59,1.27,1.21,0.32,-0.14,-0.21
17.40246093273163,2,3,3,3,-9.529999999999999,1.32,1.19,0.41,-0.14,-0.2
17.41246092319489,2,3,3,3,-9.5,1.36,1.12,0.5600000000000001,-0.1,-0.18
17.42246091365814,2,3,3,3,-9.6,1.36,1.03,0.67,-0.05,-0.16
17.4324609041214,2,3,3,3,-9.630000000000001,1.34,1.07,0.8,-0.03,-0.19
17.44246089458466,2,3,3,3,-9.65,1.39,1.1,0.8,-0.04,-0.2
17.45246088504791,2,3,3,3,-9.699999999999999,1.39,1.1,0.84,-0.06,-0.19
17.46246087551117,2,3,3,3,-9.699999999999999,1.35,1.13,0.91,-0.1,-0.19
17.47246086597443,2,3,3,3,-9.65,1.37,1.04,0.92,-0.13,-0.17
17.48246085643768,2,3,3,3,-9.58,1.34,1.09,0.95,-0.14,-0.2
17.49246108531952,2,3,3,3,-9.57,1.31,1.11,0.99,-0.17,-0.25
17.50246107578278,2,3,3,3,-9.550000000000001,1.24,1.17,1.09,-0.18,-0.25
17.51246106624603,2,3,3,3,-9.6,1.23,1.17,1.22,-0.17,-0.3
17.52246105670929,2,3,3,3,-9.57,1.26,1.08,1.47,-0.14,-0.27
17.53246104717255,2,3,3,3,-9.550000000000001,1.23,1.11,1.55,-0.14,-0.22
17.5424610376358,2,3,3,3,-9.59,1.22,1.14,1.58,-0.1,-0.17
17.55246102809906,2,3,3,3,-9.58,1.28,1.2,1.73,-0.02,-0.1
17.56246101856232,2,3,3,3,-9.640000000000001,1.36,1.13,1.81,-0.03,-0.04
17.57246100902557,2,3,3,3,-9.65,1.39,1.04,1.85,-0.06,0
17.58246099948883,2,3,3,3,-9.609999999999999,1.43,1.11,1.8,-0.08,0.03
17.59246098995209,2,3,3,3,-9.66,1.45,1.14,1.71,-0.08,0.06
17.60246098041534,2,3,3,3,-9.5,1.53,1.21,1.63,-0.08,0.06
17.6124609708786,2,3,3,3,-9.48,1.55,1.21,1.55,-0.05,0.04
17.62246096134186,2,3,3,3,-9.470000000000001,1.55,1.08,1.36,-0.05,-0.02
17.63246095180511,2,3,3,3,-9.51,1.53,1.15,1.19,0.01,-0.06
17.64246094226837,2,3,3,3,-9.58,1.55,1.22,0.9399999999999999,0.01,-0.12
17.65246093273163,2,3,3,3,-9.59,1.57,1.27,0.68,-0.07000000000000001,-0.15
17.66246092319489,2,3,3,3,-9.619999999999999,1.57,1.28,0.43,-0.11,-0.18
17.67246091365814,2,3,3,3,-9.67,1.54,1.12,0.26,-0.15,-0.15
17.6824609041214,2,3,3,3,-9.6,1.55,1.22,0.21,-0.15,-0.06
17.69246089458466,2,3,3,3,-9.539999999999999,1.52,1.28,0.14,-0.14,-0.04
17.70246088504791,2,3,3,3,-9.56,1.47,1.26,0.15,-0.09,-0.03
17.71246087551117,2,3,3,3,-9.57,1.48,1.32,0.12,-0.12,0.03
17.72246086597443,2,3,3,3,-9.57,1.43,1.21,0.03,-0.1,0.1
17.73246085643768,2,3,3,3,-9.529999999999999,1.47,1.27,-0.06,-0.07000000000000001,0.12
17.74246108531952,2,3,3,3,-9.49,1.52,1.32,-0.21,-0.02,0.14
17.75246107578278,2,3,3,3,-9.49,1.49,1.29,-0.41,-0.04,0.15
17.76246106624603,2,3,3,3,-9.52,1.46,1.29,-0.5,0.01,0.13
17.77246105670929,2,3,3,3,-9.539999999999999,1.5,1.28,-0.62,0.04,0.19
17.78246104717255,2,3,3,3,-9.52,1.46,1.32,-0.71,0.07000000000000001,0.15
17.7924610376358,2,3,3,3,-9.59,1.46,1.27,-0.74,0.04,0.2
17.80246102809906,2,3,3,3,-9.57,1.47,1.31,-0.87,0,0.17
17.81246101856232,2,3,3,3,-9.550000000000001,1.47,1.34,-0.96,0.05,0.19
17.82246100902557,2,3,3,3,-9.529999999999999,1.41,1.15,-1.04,0.06,0.21
17.83246099948883,2,3,3,3,-9.550000000000001,1.42,1.21,-1.02,0.09,0.21
17.84246098995209,2,3,3,3,-9.59,1.36,1.2,-0.9399999999999999,0.06,0.24
17.85246098041534,2,3,3,3,-9.58,1.35,1.25,-0.95,-0.03,0.19
17.8624609708786,2,3,3,3,-9.69,1.34,1.2,-0.93,-0.06,0.18
17.87246096134186,2,3,3,3,-9.69,1.36,1.23,-0.82,-0.11,0.16
17.88246095180511,2,3,3,3,-9.68,1.33,1.28,-0.8,-0.04,0.18
17.89246094226837,2,3,3,3,-9.67,1.31,1.26,-0.78,-0.01,0.25
17.90246093273163,2,3,3,3,-9.49,1.28,1.25,-0.75,-0.02,0.23
17.91246092319489,2,3,3,3,-9.449999999999999,1.27,1.22,-0.7,-0.08,0.16
17.92246091365814,2,3,3,3,-9.49,1.22,1.12,-0.57,-0.08,0.12
17.9324609041214,2,3,3,3,-9.56,1.21,1.17,-0.39,-0.06,0.1
17.94246089458466,2,3,3,3,-9.609999999999999,1.3,1.32,-0.31,-0.11,0.11
17.95246088504791,2,3,3,3,-9.609999999999999,1.33,1.32,-0.21,-0.14,0.14
17.96246087551117,2,3,3,3,-9.65,1.33,1.28,-0.16,-0.14,0.2
17.97246086597443,2,3,3,3,-9.529999999999999,1.39,1.18,-0.23,-0.1,0.22
17.98246085643768,2,3,3,3,-9.48,1.34,1.21,-0.32,-0.06,0.24
17.99246108531952,2,3,3,3,-9.42,1.35,1.24,-0.39,-0.04,0.21
18.00346100330353,2,3,3,3,-9.48,1.36,1.22,-0.41,-0.02,0.16
18.01346099376678,2,3,3,3,-9.57,1.31,1.32,-0.36,0.01,0.2
18.02346098423004,2,3,3,3,-9.6,1.27,1.26,-0.45,0.11,0.25
18.0334609746933,2,3,3,3,-9.65,1.24,1.27,-0.48,0.16,0.29
18.04346096515656,2,3,3,3,-9.640000000000001,1.22,1.3,-0.39,0.15,0.34
18.05346095561981,2,3,3,3,-9.57,1.22,1.26,-0.3,0.13,0.32
18.06346094608307,2,3,3,3,-9.539999999999999,1.23,1.02,-0.21,0.2,0.32
18.07346093654633,2,3,3,3,-9.59,1.25,0.9,-0.1,0.37,0.38
18.08346092700958,2,3,3,3,-9.51,1.27,0.98,-0.06,0.35,0.4
18.09346091747284,2,3,3,3,-9.640000000000001,1.25,1.11,-0.01,0.41,0.4
18.1034609079361,2,3,3,3,-9.640000000000001,1.25,1.11,0.04,0.47,0.43
18.11346089839935,2,3,3,3,-9.68,1.29,1.15,0.04,0.37,0.45
18.12346088886261,2,3,3,3,-9.66,1.16,1.03,0.09,0.35,0.42
18.13346087932587,2,3,3,3,-9.609999999999999,1.17,1.05,0.24,0.31,0.38
18.14346086978912,2,3,3,3,-9.630000000000001,1.14,1.1,0.24,0.36,0.38
18.15346086025238,2,3,3,3,-9.630000000000001,1.14,1.1,0.34,0.45,0.39
18.16346108913422,2,3,3,3,-9.68,1.11,1.18,0.5,0.48,0.39
18.17346107959747,2,3,3,3,-9.69,1.11,0.95,0.64,0.45,0.31
18.18346107006073,2,3,3,3,-9.640000000000001,1.06,0.87,0.82,0.27,0.26
18.19346106052399,2,3,3,3,-9.58,1.04,1.03,0.99,0.16,0.24
18.20346105098724,2,3,3,3,-9.58,1.04,1.03,0.99,0.16,0.24
18.2134610414505,2,3,3,3,-9.66,0.93,1.06,1.17,0.28,0.3
18.22346103191376,2,3,3,3,-9.6,0.93,1.04,1.73,0.22,0.24
18.23346102237701,2,3,3,3,-9.710000000000001,0.85,0.96,2.05,0.2,0.17
18.24346101284027,2,3,3,3,-9.77,0.8,0.88,2.28,0,0.11
18.25346100330353,2,3,3,3,-9.77,0.8,0.88,2.28,0,0.11
18.26346099376678,2,3,3,3,-9.75,0.88,0.98,2.6,-0.09,0.12
18.27346098423004,2,3,3,3,-9.619999999999999,0.99,0.91,3.19,-0.1,0.18
18.2834609746933,2,3,3,3,-9.619999999999999,0.99,0.91,3.6,-0.11,0.15
18.29346096515656,2,3,3,3,-9.44,1.01,0.93,3.95,0.02,0.15
18.30346095561981,2,3,3,3,-9.48,1.12,1.06,3.95,0.02,0.15
18.31346094608307,2,3,3,3,-9.529999999999999,1.2,1.08,4.29,0.12,0.14
18.32346093654633,2,3,3,3,-9.710000000000001,1.34,0.91,4.59,0.06,0.02
18.33346092700958,2,3,3,3,-9.779999999999999,1.31,0.78,4.67,0.01,-0.06
18.34346091747284,2,3,3,3,-9.75,1.32,0.96,4.79,0.07000000000000001,-0.14
18.3534609079361,2,3,3,3,-9.69,1.44,1.21,4.79,0.07000000000000001,-0.14
18.36346089839935,2,3,3,3,-9.74,1.46,1.18,5.02,0.11,-0.26
18.37346088886261,2,3,3,3,-9.779999999999999,1.46,1.11,5.98,-0.55,-0.47
18.38346087932587,2,3,3,3,-9.65,1.59,1.02,6.63,-0.77,-0.52
18.39346086978912,2,3,3,3,-9.57,1.61,0.95,7.02,-0.88,-0.55
18.40346086025238,2,3,3,3,-9.51,1.89,1.04,7.02,-0.88,-0.55
18.41346108913422,2,3,3,3,-9.380000000000001,2.06,1.1,7.35,-0.88,-0.61
18.42346107959747,2,3,3,3,-9.289999999999999,2.14,0.96,8.6,-1.09,-0.76
18.43346107006073,2,3,3,3,-9.199999999999999,2.37,1.1,9.720000000000001,-1.55,-0.82
18.44346106052399,2,3,3,3,-8.880000000000001,2.52,1.44,10.98,-1.89,-0.88
18.45346105098724,2,3,3,3,-8.710000000000001,2.57,1.38,10.98,-1.89,-0.88
18.4634610414505,2,3,3,3,-8.41,2.42,0.72,11.86,-2.33,-0.9
18.47346103191376,2,3,3,3,-8.5,2.18,0.99,11.93,-2.22,-1.15
18.48346102237701,2,3,3,3,-8.75,2.03,1.3,11.84,-1.87,-1.27
18.49346101284027,2,3,3,3,-9.09,1.89,1.65,11.69,-1.61,-1.34
18.50346100330353,2,3,3,3,-9.279999999999999,1.81,1.67,11.69,-1.61,-1.34
18.51346099376678,2,3,3,3,-10.07,1.75,2.33,11.34,-1.56,-1.48
18.52346098423004,2,3,3,3,-10.61,1.65,2.11,9.59,-2.27,-1.77
18.5334609746933,2,3,3,3,-10.42,1.47,2.09,8.68,-2.53,-1.91
18.54346096515656,2,3,3,3,-10.58,1.14,1.96,8.130000000000001,-2.18,-2.01
18.55346095561981,2,3,3,3,-11.22,0.85,2.57,8.130000000000001,-2.18,-2.01
18.56346094608307,2,3,3,3,-11.44,0.63,2.66,7.91,-1.91,-2.01
18.57346093654633,2,3,3,3,-11.46,0.5600000000000001,2.62,8.43,-2.5,-1.93
18.58346092700958,2,3,3,3,-11.29,0.6,2.67,9.17,-2.66,-1.82
18.59346091747284,2,3,3,3,-10.94,0.45,2.54,9.890000000000001,-3.04,-1.91
18.6034609079361,2,3,3,3,-10.54,0.45,2.45,9.890000000000001,-3.04,-1.91
18.61346089839935,2,3,3,3,-10.25,0.31,2.39,10.7,-3.69,-2.18
18.62346088886261,2,3,3,3,-9.460000000000001,0.16,2.12,12.78,-4.02,-2.66
18.63346087932587,2,3,3,3,-9.33,0.01,1.9,13.88,-3.96,-2.83
18.64346086978912,2,3,3,3,-9.15,0.09,1.94,14.59,-3.98,-2.91
18.65346086025238,2,3,3,3,-8.92,0.23,1.94,14.59,-3.98,-2.91
18.66346108913422,2,3,3,3,-8.84,0.2,1.93,15.58,-3.81,-2.94
18.67346107959747,2,3,3,3,-8.800000000000001,0.45,1.55,17.09,-3.44,-2.83
18.68346107006073,2,3,3,3,-8.81,0.46,1.31,17.26,-3.28,-2.67
18.69346106052399,2,3,3,3,-8.77,0.6,1.35,17.18,-2.89,-2.47
18.70346105098724,2,3,3,3,-8.84,1.01,0.93,17.18,-2.89,-2.47
18.7134610414505,2,3,3,3,-8.880000000000001,1.4,1.01,17.15,-2.62,-2.31
18.72346103191376,2,3,3,3,-8.970000000000001,1.55,0.98,17.25,-2.28,-2.26
18.73346102237701,2,3,3,3,-8.960000000000001,1.69,1.01,17.19,-2.32,-2.45
18.74346101284027,2,3,3,3,-9.01,1.75,1.02,17.02,-2.45,-2.69
18.75346100330353,2,3,3,3,-9.08,1.73,0.83,17.02,-2.45,-2.69
18.76346099376678,2,3,3,3,-9.06,1.71,0.73,16.65,-2.67,-3.06
18.77346098423004,2,3,3,3,-8.949999999999999,1.88,0.54,15.84,-2.73,-3.63
18.7834609746933,2,3,3,3,-8.81,2.29,0.54,15.84,-2.73,-3.63
18.79346096515656,2,3,3,3,-8.6,2.32,0.61,15.38,-2.52,-3.67
18.80346095561981,2,3,3,3,-8.4,2.38,0.6,15.25,-1.93,-3.49
18.81346094608307,2,3,3,3,-8.380000000000001,2.63,0.58,14.75,-1.1,-3.14
18.83346092700958,2,3,3,3,-8.65,3.2,1.1,12.48,1.42,-2.12
18.84346091747284,2,3,3,3,-8.81,3.55,1.21,10.69,2.54,-1.73
18.8534609079361,2,3,3,3,-9.539999999999999,3.89,1.06,8.81,3.31,-1.39
18.86346089839935,2,3,3,3,-10.07,3.97,0.99,7.29,3.6,-0.99
18.87346088886261,2,3,3,3,-10.64,3.81,1.13,6.24,3.23,-0.5
18.88346087932587,2,3,3,3,-10.99,3.43,0.65,5.75,2.48,-0.03
18.89346086978912,2,3,3,3,-11.37,2.86,0.49,5.54,1.99,0.54
18.90346086025238,2,3,3,3,-11.62,2.76,0.71,5.63,2.37,1.26
18.91346108913422,2,3,3,3,-11.65,2.72,1,5.62,2.57,1.94
18.92346107959747,2,3,3,3,-11.66,2.67,1.89,5.58,2.6,2.36
18.93346107006073,2,3,3,3,-10.37,2.08,0.9399999999999999,6.25,2.26,2.57
18.94346106052399,2,3,3,3,-9.6,1.66,0.66,6.92,1.39,2.51
18.95346105098724,2,3,3,3,-8.81,1.4,0.42,7.05,0.86,2.55
18.9634610414505,2,3,3,3,-8.369999999999999,0.65,0.64,7.32,0.39,2.55
18.97346103191376,2,3,3,3,-8.640000000000001,0.41,0.73,8.390000000000001,-0.08,2.63
18.98346102237701,2,3,3,3,-8.81,0.06,0,9.98,-1.16,2.62
18.99346101284027,2,3,3,3,-8.76,-0.39,-0.27,11.89,-2.35,2.55
19.00346100330353,2,3,3,3,-9.050000000000001,-0.31,-0.04,13.09,-2.71,2.3
19.01346099376678,2,3,3,3,-9.49,0.01,0.41,14.27,-2.41,2
19.02446091175079,2,3,3,3,-9.82,0.14,0.07000000000000001,15.43,-2.56,1.59
19.03446090221405,2,3,3,3,-9.720000000000001,-0.17,-0.3,17.07,-3.55,1.26
19.04446089267731,2,3,3,3,-9.91,-0.25,-0.61,17.63,-3.88,0.78
19.05446088314056,2,3,3,3,-9.960000000000001,-0.4,-0.59,18.02,-3.73,0.25
19.06446087360382,2,3,3,3,-10.09,-0.35,-0.59,18.54,-3.59,-0.26
19.07446086406708,2,3,3,3,-10.23,-0.23,-0.39,19.14,-3.52,-0.71
19.08446109294891,2,3,3,3,-10.12,0,-0.48,19.92,-3.71,-1.2
19.09446108341217,2,3,3,3,-10.18,0.04,-0.36,20.56,-3.55,-1.72
19.10446107387543,2,3,3,3,-10.16,0.18,-0.08,20.86,-3.5,-2.17
19.11446106433868,2,3,3,3,-9.890000000000001,0.43,0.01,20.93,-3.45,-2.62
19.12446105480194,2,3,3,3,-9.949999999999999,0.46,0.07000000000000001,20.99,-3.32,-2.81
19.1344610452652,2,3,3,3,-9.94,0.62,0,21.09,-3.1,-2.91
19.14446103572845,2,3,3,3,-9.779999999999999,0.63,-0.09,20.84,-3.12,-3.07
19.15446102619171,2,3,3,3,-9.789999999999999,0.8,-0.15,20.57,-3.02,-3.31
19.16446101665497,2,3,3,3,-9.84,0.88,-0.26,20.26,-2.99,-3.63
19.17446100711823,2,3,3,3,-9.83,0.97,-0.24,19.98,-3.11,-3.85
19.18446099758148,2,3,3,3,-9.82,0.97,-0.3,19.68,-3.23,-3.91
19.19446098804474,2,3,3,3,-9.67,1.02,-0.27,19.45,-3.32,-3.87
19.204460978508,2,3,3,3,-9.68,1,-0.2,19.09,-3.23,-3.73
19.21446096897125,2,3,3,3,-9.550000000000001,1.07,-0.2,18.25,-3.16,-3.31
19.22446095943451,2,3,3,3,-9.33,1.13,-0.02,18.25,-3.16,-3.31
19.23446094989777,2,3,3,3,-9.359999999999999,1.26,-0.14,17.39,-3.02,-2.96
19.24446094036102,2,3,3,3,-9.51,1.14,-0.14,16.53,-2.83,-2.6
19.25446093082428,2,3,3,3,-9.69,0.96,-0.06,15.36,-2.69,-1.91
19.28446090221405,2,3,3,3,-9.949999999999999,0.57,-0.45,15.37,-2.81,-1.41
19.29446089267731,2,3,3,3,-10.05,0.54,-0.35,15.45,-2.42,-0.97
19.30446088314056,2,3,3,3,-10.22,0.78,-0.04,15.48,-2.27,-0.84
19.31446087360382,2,3,3,3,-10.12,0.98,0.25,15.39,-2.21,-0.67
19.32446086406708,2,3,3,3,-10.05,1.02,0.25,15.59,-1.92,-0.5600000000000001
19.33446109294891,2,3,3,3,-9.92,0.91,-0.14,15.84,-1.92,-0.52
19.34446108341217,2,3,3,3,-9.42,0.91,-0.52,15.9,-1.97,-0.51
19.35446107387543,2,3,3,3,-9.289999999999999,0.89,-0.49,15.94,-1.71,-0.59
19.36446106433868,2,3,3,3,-9.4,0.87,-0.42,16.02,-1.42,-0.62
19.37446105480194,2,3,3,3,-9.56,0.89,-0.36,16.08,-1.32,-0.64
19.3844610452652,2,3,3,3,-9.74,1.09,-0.37,16.23,-1.23,-0.54
19.39446103572845,2,3,3,3,-9.85,1.22,-0.09,16.19,-1.24,-0.34
19.40446102619171,2,3,3,3,-9.9,1.31,-0.18,16.15,-1.46,-0.18
19.41446101665497,2,3,3,3,-9.880000000000001,1.19,-0.25,16.09,-1.57,-0.03
19.42446100711823,2,3,3,3,-9.83,1.2,-0.48,15.82,-1.68,0.08
19.43446099758148,2,3,3,3,-9.789999999999999,1.18,-0.52,15.65,-1.77,0.13
