timestamp,magCalib,accCalib,gyrCalib,sysCalib,accX,accY,accZ,gyrX,gyrY,gyrZ
0.0644608736038208,3,3,3,3,-9.73,0.75,-1.33,-0.18,0.1,-0.29
0.07446086406707764,3,3,3,3,-9.699999999999999,0.84,-1.49,-0.14,0.03,-0.25
0.08446109294891357,3,3,3,3,-9.710000000000001,0.77,-1.45,-0.16,-0.18,-0.23
0.09446108341217041,3,3,3,3,-9.66,0.76,-1.39,-0.16,-0.18,-0.23
0.1044610738754272,3,3,3,3,-9.65,0.72,-1.48,-0.06,-0.21,-0.16
0.1144610643386841,3,3,3,3,-9.68,0.73,-1.46,0,-0.24,-0.05
0.1244610548019409,3,3,3,3,-9.69,0.8,-1.49,0.14,-0.03,-0.11
0.1344610452651978,3,3,3,3,-9.710000000000001,0.85,-1.56,0.2,-0.13,-0.17
0.1444610357284546,3,3,3,3,-9.6,0.9399999999999999,-1.33,0.2,-0.13,-0.17
0.1544610261917114,3,3,3,3,-9.6,0.91,-1.38,-0.24,-0.16,-0.04
0.1644610166549683,3,3,3,3,-9.640000000000001,0.88,-1.41,-0.31,-0.16,-0.08
0.1744610071182251,3,3,3,3,-9.710000000000001,0.85,-1.48,-0.47,-0.12,-0.09
0.1844609975814819,3,3,3,3,-9.67,0.8100000000000001,-1.5,-0.42,0.06,-0.17
0.1944609880447388,3,3,3,3,-9.720000000000001,0.85,-1.43,-0.42,0.06,-0.17
0.2044609785079956,3,3,3,3,-9.67,0.82,-1.42,-0.44,-0.13,-0.16
0.2144609689712524,3,3,3,3,-9.67,0.8100000000000001,-1.38,-0.38,-0.25,-0.15
0.2244609594345093,3,3,3,3,-9.65,0.85,-1.49,-0.34,-0.11,-0.18
0.2344609498977661,3,3,3,3,-9.69,0.79,-1.52,-0.36,-0.1,-0.15
0.2444609403610229,3,3,3,3,-9.73,0.73,-1.43,-0.36,-0.1,-0.15
0.2544609308242798,3,3,3,3,-9.67,0.66,-1.36,-0.41,-0.08,-0.08
0.2644609212875366,3,3,3,3,-9.640000000000001,0.64,-1.52,-0.27,0.12,-0.05
0.2744609117507935,3,3,3,3,-9.699999999999999,0.66,-1.49,0.04,-0.01,-0.07000000000000001
0.2844609022140503,3,3,3,3,-9.619999999999999,0.65,-1.42,0.03,-0.05,-0.07000000000000001
0.2944608926773071,3,3,3,3,-9.68,0.63,-1.44,0.03,-0.05,-0.07000000000000001
0.304460883140564,3,3,3,3,-9.710000000000001,0.72,-1.34,0.03,-0.09,-0.1
0.3154610395431519,3,3,3,3,-9.720000000000001,0.74,-1.42,0.04,-0.01,-0.1
0.3254610300064087,3,3,3,3,-9.699999999999999,0.8100000000000001,-1.47,-0.11,-0.02,-0.1
0.3354610204696655,3,3,3,3,-9.59,0.85,-1.47,-0.05,0.17,-0.08
0.3454610109329224,3,3,3,3,-9.699999999999999,0.87,-1.53,-0.05,0.17,-0.08
0.3554610013961792,3,3,3,3,-9.67,0.84,-1.39,-0.21,0.02,-0.04
0.365460991859436,3,3,3,3,-9.710000000000001,0.79,-1.49,-0.17,-0.07000000000000001,-0.06
0.3754609823226929,3,3,3,3,-9.68,0.8100000000000001,-1.56,-0.16,0.04,-0.04
0.3854609727859497,3,3,3,3,-9.69,0.75,-1.49,-0.15,0.05,-0.02
0.3954609632492065,3,3,3,3,-9.66,0.78,-1.46,-0.15,0.05,-0.02
0.4054609537124634,3,3,3,3,-9.640000000000001,0.78,-1.39,-0.05,0.15,0.01
0.4154609441757202,3,3,3,3,-9.640000000000001,0.77,-1.42,0.04,0.23,-0.01
0.4254609346389771,3,3,3,3,-9.66,0.75,-1.49,0,0.05,0.04
0.4354609251022339,3,3,3,3,-9.65,0.73,-1.45,-0.01,0.1,0.07000000000000001
0.4454609155654907,3,3,3,3,-9.68,0.66,-1.49,-0.01,0.1,0.07000000000000001
0.4554609060287476,3,3,3,3,-9.66,0.64,-1.4,0.06,-0.11,0.09
0.4654608964920044,3,3,3,3,-9.68,0.66,-1.4,0.09,-0.03,0.07000000000000001
0.4754608869552612,3,3,3,3,-9.67,0.7,-1.4,0.07000000000000001,-0.08,0.1
0.4854608774185181,3,3,3,3,-9.630000000000001,0.6899999999999999,-1.45,0.04,-0.03,0.12
0.4954608678817749,3,3,3,3,-9.65,0.82,-1.39,0.04,-0.03,0.12
0.5054608583450317,3,3,3,3,-9.73,0.85,-1.39,0.12,0.12,0.04
0.5154610872268677,3,3,3,3,-9.73,0.82,-1.44,0.03,-0.05,0.1
0.5254610776901245,3,3,3,3,-9.69,0.83,-1.51,-0.04,-0.08,0.13
0.5354610681533813,3,3,3,3,-9.609999999999999,0.88,-1.48,-0.17,-0.02,0.14
0.5454610586166382,3,3,3,3,-9.630000000000001,0.8,-1.47,-0.17,-0.02,0.14
0.555461049079895,3,3,3,3,-9.66,0.78,-1.47,-0.16,0.09,0.26
0.5654610395431519,3,3,3,3,-9.630000000000001,0.75,-1.46,-0.19,0.14,0.28
0.5754610300064087,3,3,3,3,-9.68,0.71,-1.54,-0.03,0.26,0.25
0.5854610204696655,3,3,3,3,-9.67,0.72,-1.47,0.11,0.14,0.33
0.5954610109329224,3,3,3,3,-9.65,0.66,-1.43,0.11,0.14,0.33
0.6054610013961792,3,3,3,3,-9.710000000000001,0.72,-1.36,0.15,0.1,0.42
0.615460991859436,3,3,3,3,-9.67,0.7,-1.4,0.03,0.05,0.39
0.6254609823226929,3,3,3,3,-9.67,0.7,-1.46,0.04,0.18,0.41
0.6354609727859497,3,3,3,3,-9.69,0.68,-1.46,0.14,0.05,0.43
0.6454609632492065,3,3,3,3,-9.619999999999999,0.6899999999999999,-1.45,0.14,0.05,0.43
0.6554609537124634,3,3,3,3,-9.66,0.76,-1.32,0.2,0.02,0.41
0.6654609441757202,3,3,3,3,-9.710000000000001,0.8100000000000001,-1.36,0.16,0.16,0.4
0.6754609346389771,3,3,3,3,-9.699999999999999,0.8100000000000001,-1.59,0.25,0.14,0.33
0.6854609251022339,3,3,3,3,-9.710000000000001,0.88,-1.54,0.24,0.1,0.32
0.6954609155654907,3,3,3,3,-9.58,0.85,-1.49,0.24,0.1,0.32
0.7054609060287476,3,3,3,3,-9.630000000000001,0.91,-1.44,0.14,0.23,0.35
0.7154608964920044,3,3,3,3,-9.65,0.99,-1.43,-0.09,0.22,0.33
0.7254608869552612,3,3,3,3,-9.69,0.91,-1.5,-0.17,0.2,0.34
0.7354608774185181,3,3,3,3,-9.66,0.79,-1.45,-0.17,0.2,0.38
0.7454608678817749,3,3,3,3,-9.59,0.76,-1.47,-0.17,0.2,0.38
0.7554608583450317,3,3,3,3,-9.699999999999999,0.77,-1.54,-0.07000000000000001,0.33,0.45
0.7654610872268677,3,3,3,3,-9.68,0.83,-1.38,-0.07000000000000001,0.12,0.35
0.7754610776901245,3,3,3,3,-9.640000000000001,0.89,-1.56,0,0.15,0.38
0.7854610681533813,3,3,3,3,-9.59,0.88,-1.5,-0.12,0.18,0.41
0.7954610586166382,3,3,3,3,-9.57,0.96,-1.49,-0.12,0.18,0.41
0.805461049079895,3,3,3,3,-9.59,1,-1.39,-0.17,0.25,0.47
0.8154610395431519,3,3,3,3,-9.720000000000001,0.96,-1.55,-0.42,0.44,0.55
0.8254610300064087,3,3,3,3,-9.67,0.95,-1.49,-0.5,0.46,0.58
0.8354610204696655,3,3,3,3,-9.65,0.84,-1.6,-0.45,0.53,0.54
0.8454610109329224,3,3,3,3,-9.779999999999999,0.83,-1.5,-0.45,0.53,0.54
0.8554610013961792,3,3,3,3,-9.77,0.86,-1.48,-0.28,0.53,0.4
0.865460991859436,3,3,3,3,-9.6,0.91,-1.56,-0.07000000000000001,0.28,0.18
0.8754609823226929,3,3,3,3,-9.67,0.96,-1.66,-0.13,0.32,0.17
0.8854609727859497,3,3,3,3,-9.73,0.97,-1.64,-0.18,0.07000000000000001,0.23
0.8954609632492065,3,3,3,3,-9.73,0.97,-1.64,-0.11,-0.06,0.19
0.9054609537124634,3,3,3,3,-9.68,0.92,-1.39,-0.12,0.06,0.08
0.9154609441757202,3,3,3,3,-9.58,0.8,-1.78,-0.16,0.14,0.04
0.9254609346389771,3,3,3,3,-9.65,0.83,-1.5,-0.08,0.03,0.1
0.9354609251022339,3,3,3,3,-9.65,0.83,-1.33,0.03,-0.2,0.06
0.9454609155654907,3,3,3,3,-9.65,0.83,-1.33,0,-0.12,0.01
0.9554609060287476,3,3,3,3,-9.76,0.89,-1.42,0.28,0.02,-0.15
0.9654608964920044,3,3,3,3,-9.609999999999999,0.95,-1.46,0.25,-0.08,-0.3
0.9754608869552612,3,3,3,3,-9.49,0.97,-1.51,-0.06,-0.04,-0.28
0.9854608774185181,3,3,3,3,-9.460000000000001,0.92,-1.5,0.07000000000000001,0.03,-0.11
0.9954608678817749,3,3,3,3,-9.66,0.87,-1.34,0.17,-0.04,0.08
1.005460858345032,3,3,3,3,-9.68,0.88,-1.4,0.11,-0.07000000000000001,0.13
1.015461087226868,3,3,3,3,-9.710000000000001,0.8,-1.58,0.03,-0.02,0.2
1.025461077690125,3,3,3,3,-9.74,0.8100000000000001,-1.56,0.1,0.11,0.19
1.035461068153381,3,3,3,3,-9.59,0.84,-1.48,0.08,0.1,0.18
1.045461058616638,3,3,3,3,-9.59,0.84,-1.48,0.08,0.1,0.18
1.055461049079895,3,3,3,3,-9.65,0.8,-1.61,0.12,0.21,0.26
1.065461039543152,3,3,3,3,-9.630000000000001,0.97,-1.53,0.07000000000000001,-0.01,0.17
1.075461030006409,3,3,3,3,-9.65,0.98,-1.57,0.07000000000000001,0.14,0.18
1.085461020469666,3,3,3,3,-9.65,0.97,-1.49,0.12,0.26,0.18
1.095461010932922,3,3,3,3,-9.699999999999999,0.92,-1.6,0.02,0.16,0.19
1.105461001396179,3,3,3,3,-9.710000000000001,0.97,-1.5,-0.02,0.03,0.2
1.115460991859436,3,3,3,3,-9.51,1.01,-1.58,0.06,-0.07000000000000001,0.25
1.125460982322693,3,3,3,3,-9.529999999999999,0.9399999999999999,-1.62,0.04,0.1,0.33
1.13546097278595,3,3,3,3,-9.58,0.9,-1.53,-0.03,0.27,0.4
1.145460963249207,3,3,3,3,-9.58,0.9,-1.53,-0.11,0.25,0.47
1.155460953712463,3,3,3,3,-9.75,0.82,-1.59,-0.19,0.18,0.37
1.16546094417572,3,3,3,3,-9.800000000000001,0.86,-1.57,-0.06,-0.07000000000000001,0.13
1.175460934638977,3,3,3,3,-9.609999999999999,0.87,-1.59,-0.06,-0.17,-0.02
1.185460925102234,3,3,3,3,-9.609999999999999,0.9,-1.64,-0.05,0,-0.02
1.195460915565491,3,3,3,3,-9.66,0.97,-1.51,0.09,0.17,-0.06
1.205460906028748,3,3,3,3,-9.65,1.06,-1.39,0.19,0.02,-0.07000000000000001
1.215460896492004,3,3,3,3,-9.58,1.03,-1.65,0.09,-0.06,-0.03
1.225460886955261,3,3,3,3,-9.720000000000001,1.09,-1.4,0.19,-0.04,-0.03
1.235460877418518,3,3,3,3,-9.58,1.08,-1.4,0.18,-0.24,-0.1
1.245460867881775,3,3,3,3,-9.59,0.97,-1.59,0,-0.25,-0.06
1.255460858345032,3,3,3,3,-9.609999999999999,0.89,-1.57,0.08,-0.06,-0.05
1.265461087226868,3,3,3,3,-9.52,0.91,-1.59,0.08,-0.13,-0.02
1.275461077690125,3,3,3,3,-9.550000000000001,0.92,-1.48,0.17,-0.01,-0.03
1.285461068153381,3,3,3,3,-9.65,0.8100000000000001,-1.61,0.25,0.27,0
1.295461058616638,3,3,3,3,-9.699999999999999,0.78,-1.48,0.27,0.16,-0.04
1.305461049079895,3,3,3,3,-9.75,0.55,-1.57,0.26,-0.15,-0.02
1.315461039543152,3,3,3,3,-9.76,0.51,-1.37,0.54,-0.48,-0.1
1.325461030006409,3,3,3,3,-9.69,0.37,-1.19,0.41,-0.64,-0.36
1.335461020469666,3,3,3,3,-9.539999999999999,0.2,-1.22,0.32,-0.75,-0.45
1.346460938453674,3,3,3,3,-9.66,-0.13,-0.82,0.73,-0.66,-0.49
1.356460928916931,3,3,3,3,-9.609999999999999,-0.27,-1.05,0.77,-0.93,-0.55
1.366460919380188,3,3,3,3,-9.640000000000001,-0.17,-1.25,1.12,-1.38,-0.5
1.376460909843445,3,3,3,3,-9.82,0.04,-1.05,1.75,-1.39,-0.53
1.386460900306702,3,3,3,3,-9.949999999999999,0.39,-1.4,1.81,-1.58,-0.59
1.396460890769958,3,3,3,3,-9.98,0.55,-1.51,1.99,-1.59,-0.6
1.406460881233215,3,3,3,3,-9.869999999999999,0.91,-1.35,1.81,-1.55,-0.7
1.416460871696472,3,3,3,3,-9.59,1.16,-1.43,1.28,-1.49,-0.79
1.426460862159729,3,3,3,3,-9.35,1.39,-1.71,1.42,-0.96,-0.71
1.436461091041565,3,3,3,3,-9.460000000000001,1.36,-1.73,1.46,-0.67,-0.54
1.446461081504822,3,3,3,3,-9.529999999999999,1.4,-1.49,1.45,-0.96,-0.3
1.456461071968079,3,3,3,3,-9.630000000000001,1.21,-1.43,1.35,-1.08,-0.12
1.466461062431335,3,3,3,3,-9.75,0.58,-1.3,1.14,-1.27,-0.14
1.476461052894592,3,3,3,3,-9.710000000000001,0.17,-0.98,1.01,-1.34,-0.32
1.486461043357849,3,3,3,3,-9.57,-0.32,-0.82,0.8100000000000001,-1.41,-0.53
1.496461033821106,3,3,3,3,-9.52,-0.87,-0.57,0.8100000000000001,-1.4,-0.77
1.506461024284363,3,3,3,3,-9.49,-1.18,-0.32,0.66,-1.58,-1.08
1.51646101474762,3,3,3,3,-9.460000000000001,-0.77,-0.36,0.8100000000000001,-1.78,-1.42
1.526461005210876,3,3,3,3,-9.630000000000001,-0.5,-0.61,1.28,-1.57,-1.59
1.536460995674133,3,3,3,3,-9.93,-0.08,-0.67,1.64,-1.51,-1.63
1.54646098613739,3,3,3,3,-9.9,0,-0.6,2.05,-1.69,-1.5
1.556460976600647,3,3,3,3,-9.83,-0.18,-0.6,2.42,-1.78,-1.24
1.566460967063904,3,3,3,3,-9.74,-0.46,-0.54,2.57,-2.05,-1.09
1.576460957527161,3,3,3,3,-10.09,-0.57,-1.35,2.1,-2.53,-1.25
1.586460947990417,3,3,3,3,-10.22,0.13,-1.04,1.03,-2.92,-1.74
1.596460938453674,3,3,3,3,-10.21,0.97,-1.23,1.91,-3.25,-2.07
1.606460928916931,3,3,3,3,-10.21,1.93,-1.84,0.7,-2.94,-2.66
1.616460919380188,3,3,3,3,-9.56,3.68,-1.72,0.46,-2.15,-2.88
1.626460909843445,3,3,3,3,-9.449999999999999,3.72,-1.9,-0.54,-1.57,-2.51
1.636460900306702,3,3,3,3,-9.42,4.12,-1.35,-0.7,-1.09,-1.91
1.646460890769958,3,3,3,3,-9.359999999999999,4.24,-1.45,-1.75,-1.15,-1.3
1.656460881233215,3,3,3,3,-9.42,3.23,-1.71,-3,-1.12,-0.83
1.666460871696472,3,3,3,3,-9.699999999999999,2.31,-2.04,-3.74,-0.88,-0.52
1.676460862159729,3,3,3,3,-10.04,1.76,-1.98,-4.16,-0.71,-0.34
1.686461091041565,3,3,3,3,-10.13,1.64,-1.78,-3.61,-0.59,-0.18
1.696461081504822,3,3,3,3,-9.890000000000001,1.51,-1.94,-3.22,-0.2,-0.14
1.706461071968079,3,3,3,3,-9.720000000000001,1.28,-1.84,-2.32,0.28,-0.29
1.716461062431335,3,3,3,3,-9.640000000000001,0.9399999999999999,-1.71,-1.39,0.55,-0.4
1.726461052894592,3,3,3,3,-9.640000000000001,0.65,-1.34,-0.54,0.59,-0.09
1.736461043357849,3,3,3,3,-9.92,-0.19,-1.03,-0.13,0.55,0.42
1.746461033821106,3,3,3,3,-10.24,-0.5,-1.07,0.33,0.54,0.83
1.756461024284363,3,3,3,3,-10.47,-0.52,-1.27,0.73,0.5600000000000001,0.8100000000000001
1.76646101474762,3,3,3,3,-10.41,-0.22,-1.23,1.2,0.48,0.44
1.776461005210876,3,3,3,3,-9.94,0.71,-1.23,1.29,0.6,0.13
1.786460995674133,3,3,3,3,-9.640000000000001,1.08,-1.06,1.45,0.86,0.04
1.79646098613739,3,3,3,3,-9.51,1.16,-1.12,1.18,0.89,-0.02
1.806460976600647,3,3,3,3,-9.56,1.28,-1.01,0.64,0.73,0.1
1.816460967063904,3,3,3,3,-9.609999999999999,1.15,-1.09,-0.03,0.44,0.3
1.826460957527161,3,3,3,3,-9.58,1.14,-1.1,-0.62,0.29,0.51
1.836460947990417,3,3,3,3,-9.56,1.15,-1,-1.03,0.36,0.48
1.846460938453674,3,3,3,3,-9.49,1.08,-0.97,-1.53,0.43,0.48
1.856460928916931,3,3,3,3,-9.43,0.93,-1.22,-2.16,0.67,0.52
1.866460919380188,3,3,3,3,-9.48,0.86,-1.15,-2.46,0.72,0.5600000000000001
1.876460909843445,3,3,3,3,-9.49,0.68,-1.08,-2.79,0.57,0.61
1.886460900306702,3,3,3,3,-9.460000000000001,0.21,-0.82,-2.82,0.42,0.51
1.896460890769958,3,3,3,3,-9.49,0.12,-0.77,-2.74,0.42,0.39
1.906460881233215,3,3,3,3,-9.59,0.12,-0.88,-2.61,0.6899999999999999,0.44
1.916460871696472,3,3,3,3,-9.710000000000001,0.08,-1.07,-1.97,0.77,0.63
1.926460862159729,3,3,3,3,-10.04,-0.31,-0.97,-1.33,0.71,0.71
1.936461091041565,3,3,3,3,-10.18,-0.58,-1.12,-0.92,0.67,0.7
1.946461081504822,3,3,3,3,-10.32,-0.35,-1.08,-0.51,0.72,0.5600000000000001
1.956461071968079,3,3,3,3,-10.19,0,-1,-0.17,0.63,0.34
1.966461062431335,3,3,3,3,-9.58,0.49,-1.25,0.3,0.49,0.28
1.976461052894592,3,3,3,3,-9.470000000000001,0.7,-1.17,0.77,0.5600000000000001,0.29
1.986461043357849,3,3,3,3,-9.449999999999999,0.92,-0.96,1.08,0.33,0.26
1.996461033821106,3,3,3,3,-9.51,0.9399999999999999,-1.01,0.79,0.37,0.45
2.006461024284363,3,3,3,3,-9.83,0.9,-1.39,0.58,0.6,0.61
2.01646101474762,3,3,3,3,-9.98,0.96,-1.58,0.37,0.64,0.65
2.026461005210876,3,3,3,3,-10.02,1.29,-1.39,-0.03,0.47,0.5
2.036460995674133,3,3,3,3,-9.869999999999999,1.53,-1.17,-0.48,0.39,0.4
2.04646098613739,3,3,3,3,-9.48,1.41,-1.39,-0.72,0.64,0.35
2.056460976600647,3,3,3,3,-9.5,1.33,-1.32,-0.95,0.85,0.31
2.066460967063904,3,3,3,3,-9.4,1.29,-1.19,-0.96,0.65,0.33
2.076460957527161,3,3,3,3,-9.35,1.09,-1.31,-1.05,0.63,0.57
2.086460947990417,3,3,3,3,-9.69,0.97,-1.18,-0.93,0.89,0.85
2.096460938453674,3,3,3,3,-9.869999999999999,0.8,-1.13,-0.83,0.9399999999999999,0.96
2.106460928916931,3,3,3,3,-9.98,0.48,-1.23,-0.93,0.82,0.99
2.116460919380188,3,3,3,3,-10.2,0.46,-1.27,-1.19,0.95,0.85
2.126460909843445,3,3,3,3,-9.82,0.43,-1.12,-1.18,0.6899999999999999,0.73
2.136460900306702,3,3,3,3,-9.630000000000001,0.39,-1.28,-0.74,0.83,0.61
2.146460890769958,3,3,3,3,-9.539999999999999,0.52,-1.09,-0.18,0.8,0.43
2.156460881233215,3,3,3,3,-9.460000000000001,0.57,-0.99,-0.21,0.58,0.39
2.166460871696472,3,3,3,3,-9.56,0.63,-1.19,-0.3,0.59,0.5
2.176460862159729,3,3,3,3,-9.69,0.5600000000000001,-1.26,-0.33,0.73,0.55
2.186461091041565,3,3,3,3,-9.82,0.41,-1.3,-0.39,0.68,0.5600000000000001
2.196461081504822,3,3,3,3,-9.91,0.59,-1.23,-0.21,0.54,0.47
2.206461071968079,3,3,3,3,-9.81,0.6899999999999999,-1.17,-0.07000000000000001,0.31,0.36
2.216461062431335,3,3,3,3,-9.710000000000001,0.75,-1.19,-0.26,0.26,0.22
2.226461052894592,3,3,3,3,-9.58,0.76,-1.24,-0.41,0.22,0.07000000000000001
2.236461043357849,3,3,3,3,-9.42,0.9399999999999999,-1.06,-0.44,0.27,-0.04
2.246461033821106,3,3,3,3,-9.42,0.88,-1.06,-0.59,0.31,0.04
2.256461024284363,3,3,3,3,-9.52,0.78,-1.19,-0.6899999999999999,0.51,0.22
2.26646101474762,3,3,3,3,-9.710000000000001,0.67,-1.41,-0.68,0.67,0.32
2.276461005210876,3,3,3,3,-9.94,0.91,-1.27,-0.61,0.55,0.32
2.286460995674133,3,3,3,3,-9.99,0.9,-1.51,-0.74,0.37,0.27
2.29646098613739,3,3,3,3,-9.949999999999999,1.04,-1.28,-0.68,0.28,0.1
2.306460976600647,3,3,3,3,-9.81,1.11,-1.2,-0.65,0.12,-0.16
2.316460967063904,3,3,3,3,-9.34,0.95,-1.31,-0.67,0.04,-0.18
2.326460957527161,3,3,3,3,-9.33,0.87,-1.29,-0.58,0.42,0.06
2.336460947990417,3,3,3,3,-9.42,0.73,-1.34,-0.57,0.63,0.36
2.346460938453674,3,3,3,3,-9.58,0.64,-1.5,-0.45,0.6,0.52
2.356460928916931,3,3,3,3,-10.03,0.89,-1.33,-0.06,0.63,0.47
2.367461085319519,3,3,3,3,-9.83,1.06,-1.28,0.05,0.4,0.29
2.377461075782776,3,3,3,3,-9.640000000000001,1.1,-1.38,0.15,0.5,0.29
2.387461066246033,3,3,3,3,-9.640000000000001,1.15,-1.48,0.44,1,0.28
2.39746105670929,3,3,3,3,-9.65,1.38,-1.21,0.44,1.06,0.37
2.407461047172546,3,3,3,3,-9.5,1.39,-1.29,0.16,0.86,0.5600000000000001
2.417461037635803,3,3,3,3,-9.44,1.34,-1.37,-0.07000000000000001,0.97,0.72
2.42746102809906,3,3,3,3,-9.49,1.16,-1.38,-0.33,1.23,0.8100000000000001
2.437461018562317,3,3,3,3,-9.869999999999999,0.83,-1.67,-0.42,1.27,0.82
2.447461009025574,3,3,3,3,-9.960000000000001,0.92,-1.34,-0.1,0.9,0.6899999999999999
2.457460999488831,3,3,3,3,-9.9,0.89,-1.37,-0.08,0.7,0.53
2.467460989952087,3,3,3,3,-9.800000000000001,0.95,-1.48,0.03,0.76,0.38
2.477460980415344,3,3,3,3,-9.73,1.09,-1.45,0.21,0.63,0.31
2.487460970878601,3,3,3,3,-9.6,1.19,-1.24,0.23,0.52,0.26
2.497460961341858,3,3,3,3,-9.4,1.18,-1.24,-0.04,0.5,0.37
2.507460951805115,3,3,3,3,-9.300000000000001,1.15,-1.28,-0.17,0.92,0.52
2.517460942268372,3,3,3,3,-9.52,1.04,-1.53,-0.23,1.17,0.75
2.527460932731628,3,3,3,3,-9.550000000000001,1.01,-1.54,-0.21,1.09,1.09
2.537460923194885,3,3,3,3,-9.66,0.93,-1.42,-0.02,1.27,1.38
2.547460913658142,3,3,3,3,-9.869999999999999,0.73,-1.56,0.12,1.36,1.49
2.557460904121399,3,3,3,3,-9.98,0.85,-1.57,0.43,1.17,1.36
2.567460894584656,3,3,3,3,-9.85,1.03,-1.67,0.42,0.88,1.05
2.577460885047913,3,3,3,3,-9.69,1.09,-1.7,0.61,0.76,0.8
2.587460875511169,3,3,3,3,-9.57,1.12,-1.44,0.74,0.9399999999999999,0.65
2.597460865974426,3,3,3,3,-9.43,1.06,-1.39,0.5600000000000001,0.93,0.78
2.607460856437683,3,3,3,3,-9.41,1.08,-1.4,0.41,1.03,0.99
2.617461085319519,3,3,3,3,-9.470000000000001,1.13,-1.45,0.25,1.18,1.15
2.627461075782776,3,3,3,3,-9.460000000000001,0.92,-1.48,0.03,1.19,1.3
2.637461066246033,3,3,3,3,-9.66,0.62,-1.77,0,1.38,1.46
2.64746105670929,3,3,3,3,-9.960000000000001,0.52,-1.77,0.18,1.32,1.38
2.657461047172546,3,3,3,3,-10.06,0.71,-1.49,0.43,0.92,0.86
2.667461037635803,3,3,3,3,-9.75,0.73,-1.55,0.61,0.52,0.32
2.67746102809906,3,3,3,3,-9.57,0.76,-1.2,1.09,0.37,-0.03
2.687461018562317,3,3,3,3,-9.4,0.64,-1.31,0.72,0.37,-0.01
2.697461009025574,3,3,3,3,-9.380000000000001,0.68,-1.39,0.67,0.34,0.17
2.707460999488831,3,3,3,3,-9.529999999999999,0.85,-1.38,0.57,0.26,0.28
2.717460989952087,3,3,3,3,-9.5,0.86,-1.56,0.3,0.18,0.51
2.727460980415344,3,3,3,3,-9.529999999999999,0.93,-1.59,0.1,0.36,0.74
2.737460970878601,3,3,3,3,-9.619999999999999,1.12,-1.54,-0.3,0.45,0.95
2.747460961341858,3,3,3,3,-9.66,0.8100000000000001,-1.66,-0.72,0.4,1.13
2.757460951805115,3,3,3,3,-9.779999999999999,0.63,-1.73,-0.92,0.57,1.2
2.767460942268372,3,3,3,3,-9.83,0.49,-2.18,-1.04,0.39,1.02
2.777460932731628,3,3,3,3,-10.04,0.58,-2.11,-0.43,0.17,0.37
2.787460923194885,3,3,3,3,-9.65,1.3,-1.27,0.06,-0.38,-0.61
2.797460913658142,3,3,3,3,-9.359999999999999,1.3,-1.48,-0.05,-0.3,-1.09
2.807460904121399,3,3,3,3,-9.380000000000001,1.21,-1.6,-0.13,0.46,-0.96
2.817460894584656,3,3,3,3,-9.31,1.15,-1.7,-0.39,0.11,-0.4
2.827460885047913,3,3,3,3,-9.41,1.36,-1.6,-0.78,-0.25,0.08
2.837460875511169,3,3,3,3,-9.539999999999999,1.43,-1.58,-0.8,-0.23,0.37
2.847460865974426,3,3,3,3,-9.6,1.37,-1.6,-0.8,0.06,0.55
2.857460856437683,3,3,3,3,-9.59,1.29,-1.62,-0.73,0.37,0.64
2.867461085319519,3,3,3,3,-9.67,0.92,-1.91,-0.71,0.41,0.72
2.887461066246033,3,3,3,3,-9.970000000000001,0.79,-1.38,-0.6,0.44,0.07000000000000001
2.917461037635803,3,3,3,3,-9.550000000000001,0.6,-1.65,0.02,0.27,-0.21
2.92746102809906,3,3,3,3,-9.6,0.77,-1.47,-0.18,-0.13,-0.2
2.937461018562317,3,3,3,3,-9.57,0.86,-1.48,-0.35,-0.33,-0.16
2.947461009025574,3,3,3,3,-9.75,0.75,-1.81,-0.23,-0.26,-0.09
2.957460999488831,3,3,3,3,-9.970000000000001,1,-1.66,0.15,-0.26,-0.36
2.967460989952087,3,3,3,3,-10.11,1.13,-1.95,0.23,-0.71,-0.83
2.977460980415344,3,3,3,3,-9.82,1.4,-1.47,0.76,-1.03,-1.43
2.987460970878601,3,3,3,3,-9.51,1.43,-1.52,0.42,-0.67,-1.95
2.997460961341858,3,3,3,3,-8.99,1.24,-1.71,-0.01,-1,-1.58
3.007460951805115,3,3,3,3,-8.949999999999999,0.95,-1.58,0,-0.6,-0.6899999999999999
3.017460942268372,3,3,3,3,-9.300000000000001,0.67,-1.66,-0.06,-0.5600000000000001,0.04
3.027460932731628,3,3,3,3,-9.59,0.5600000000000001,-1.56,0.16,-0.52,0.37
3.037460923194885,3,3,3,3,-9.81,0.47,-1.2,0.43,-0.33,0.32
3.047460913658142,3,3,3,3,-9.859999999999999,0.17,-1.34,0.57,-0.36,0.11
3.057460904121399,3,3,3,3,-10.09,0.17,-1.08,1.24,-0.17,-0.51
3.067460894584656,3,3,3,3,-9.84,0.35,-1.19,1.44,-0.53,-1.2
3.077460885047913,3,3,3,3,-9.51,0.4,-1.31,1.48,-1.1,-1.28
3.087460875511169,3,3,3,3,-9.470000000000001,0.52,-1.3,1.69,-0.85,-0.88
3.097460865974426,3,3,3,3,-9.640000000000001,0.54,-1.5,1.5,-0.91,-0.43
3.107460856437683,3,3,3,3,-9.890000000000001,0.28,-1.84,1.29,-0.97,-0.3
3.117461085319519,3,3,3,3,-10.18,0.39,-1.8,1.47,-1.24,-0.72
3.127461075782776,3,3,3,3,-10.12,0.83,-1.17,1.15,-1.82,-1.32
3.137461066246033,3,3,3,3,-9.32,1.24,-1.27,0.8100000000000001,-1.82,-1.32
3.14746105670929,3,3,3,3,-9.369999999999999,1.39,-1.29,0.8100000000000001,-0.96,-1.05
3.157461047172546,3,3,3,3,-9.57,1.48,-1.49,0.31,-0.82,-0.76
3.167461037635803,3,3,3,3,-9.710000000000001,1.83,-1.58,-0.25,-0.96,-0.49
3.17746102809906,3,3,3,3,-10.06,1.89,-2.34,-0.85,-1.16,-0.45
3.187461018562317,3,3,3,3,-10,2.24,-1.65,-0.82,-1.59,-0.79
3.197461009025574,3,3,3,3,-9.52,2.21,-1.49,-1.42,-1.81,-0.9
3.207460999488831,3,3,3,3,-9.09,1.97,-1.67,-1.72,-1.05,-0.57
3.217460989952087,3,3,3,3,-9.27,1.65,-1.84,-1.57,-0.11,-0.15
3.227460980415344,3,3,3,3,-9.42,1.47,-2.01,-1.59,0.01,0.21
3.237460970878601,3,3,3,3,-9.59,1.48,-1.85,-1.2,0.13,0.45
3.247460961341858,3,3,3,3,-9.58,1.36,-1.7,-1.05,0.25,0.54
3.257460951805115,3,3,3,3,-9.59,1.2,-1.73,-0.84,0.5600000000000001,0.55
3.267460942268372,3,3,3,3,-9.66,1.09,-1.68,-0.5600000000000001,0.97,0.6
3.277460932731628,3,3,3,3,-9.609999999999999,0.92,-1.81,-0.35,0.8,0.71
3.287460923194885,3,3,3,3,-9.76,0.85,-1.69,0.29,0.86,0.7
3.297460913658142,3,3,3,3,-9.74,0.89,-1.55,0.61,0.66,0.49
3.307460904121399,3,3,3,3,-9.65,0.95,-1.39,0.71,0.38,0.41
3.317460894584656,3,3,3,3,-9.48,0.98,-1.36,0.79,0.33,0.41
3.327460885047913,3,3,3,3,-9.539999999999999,0.78,-1.6,0.77,0.42,0.52
3.337460875511169,3,3,3,3,-9.76,0.89,-1.43,1.02,0.35,0.5
3.347460865974426,3,3,3,3,-9.800000000000001,1.1,-1.25,0.6,-0.03,0.27
3.357460856437683,3,3,3,3,-9.67,1.2,-1.22,0.3,-0.27,0.2
3.367461085319519,3,3,3,3,-9.69,1.19,-1.42,0.45,-0.01,0.16
3.377461075782776,3,3,3,3,-9.539999999999999,1.19,-1.25,0.27,-0.03,0.13
3.387461066246033,3,3,3,3,-9.300000000000001,1.01,-1.45,-0.1,-0.21,0.36
3.398460984230042,3,3,3,2,-9.460000000000001,0.85,-1.69,0.17,0.02,0.49
3.408460974693298,3,3,3,2,-9.529999999999999,0.82,-1.33,0.18,-0.21,0.38
3.418460965156555,3,3,3,2,-9.56,0.43,-1.69,-0.1,-0.48,0.4
3.428460955619812,3,3,3,2,-9.699999999999999,0.37,-1.12,0.35,-0.39,0.17
3.438460946083069,3,3,3,2,-9.6,0.05,-0.73,0.31,-0.77,0.02
3.448460936546326,3,3,3,2,-9.35,-1.29,-0.53,0.49,-0.97,0.08
3.458460927009583,3,3,3,2,-9.51,-1.84,-0.23,0.93,-1.17,0.03
3.468460917472839,3,3,3,2,-9.640000000000001,-2.33,-0.13,1.48,-1.78,-0.11
3.478460907936096,3,3,3,2,-9.91,-2.81,-0.06,2.14,-2.35,-0.59
3.488460898399353,3,3,3,2,-10.1,-3.1,0.59,2.55,-3.07,-1.46
3.49846088886261,3,3,3,2,-9.85,-2.91,0.95,2.6,-3.68,-2.29
3.508460879325867,3,3,3,2,-9.5,-3.1,0.48,2.53,-3.76,-2.89
3.518460869789124,3,3,3,2,-9.42,-2.66,0.27,2.52,-3.1,-3.55
3.52846086025238,3,3,3,2,-9.57,-1.53,-0.08,2.25,-3.12,-3.97
3.538461089134216,3,3,3,2,-9.449999999999999,-1.08,-0.15,1.07,-3.41,-4.39
3.548461079597473,3,3,3,2,-9.16,-0.6899999999999999,0,0.68,-3.53,-4.41
3.55846107006073,3,3,3,2,-8.92,-0.86,0.06,0.03,-3.97,-4.42
3.568461060523987,3,3,3,2,-9.029999999999999,-2,0,-1.21,-4.61,-4.67
3.578461050987244,3,3,3,2,-8.9,-2.34,0.18,-2.24,-6.16,-5
3.5884610414505,3,3,3,2,-8.710000000000001,-1.88,1.61,-3.98,-6.68,-5.57
3.598461031913757,3,3,3,2,-8.31,-1.78,1.57,-5.61,-5.94,-6.29
3.608461022377014,3,3,3,2,-7.65,-1.54,1.1,-5.66,-4.22,-6.85
3.618461012840271,3,3,3,2,-7.41,-1.77,0.89,-5.57,-3.29,-7.1
3.628461003303528,3,3,3,2,-7.66,-2.33,0.47,-6.7,-3.52,-6.84
3.638460993766785,3,3,3,2,-9.220000000000001,-1.6,0,-7.55,-5.19,-6.53
3.648460984230042,3,3,3,2,-9.99,-0.8100000000000001,-1.47,-7.88,-5.71,-6.94
3.658460974693298,3,3,3,2,-10.19,1.1,-1.71,-5.25,-4.68,-7.85
3.668460965156555,3,3,3,2,-10.13,3.13,-1.06,-4.34,-2,-9.039999999999999
3.678460955619812,3,3,3,2,-9.59,4.3,-1.29,-4.26,0.49,-9.74
3.688460946083069,3,3,3,2,-8.98,4.08,-1.03,-5.32,0.58,-9.57
3.698460936546326,3,3,3,2,-8.69,3.28,-0.66,-7.59,0.21,-8.75
3.708460927009583,3,3,3,2,-8.58,2.02,-0.75,-9.369999999999999,0.12,-8.25
3.718460917472839,3,3,3,2,-8.609999999999999,-1.72,-0.96,-9.960000000000001,-0.24,-8.119999999999999
3.728460907936096,3,3,3,2,-9.06,-3.27,-0.79,-9.26,-0.74,-8.16
3.738460898399353,3,3,3,2,-9.460000000000001,-3.46,-0.6,-5.78,-2,-7.91
3.74846088886261,3,3,3,2,-9.84,-2.63,-0.97,-1.66,-2.54,-8.09
3.758460879325867,3,3,3,2,-9.6,-0.55,-1.87,3.17,-6.17,-9.68
3.768460869789124,3,3,3,2,-10.44,2.06,-2.41,5.94,-5.69,-9.32
3.77846086025238,3,3,3,2,-10.44,3.72,-2.26,7.55,-4.77,-9.74
3.788461089134216,3,3,3,2,-10.02,4.31,-1.93,8.25,-3.43,-9.25
3.798461079597473,3,3,3,2,-8.949999999999999,3.39,-1.76,5.22,-0.72,-7.22
3.80846107006073,3,3,3,2,-8.619999999999999,1.9,-1,1.92,-0.39,-5.69
3.818461060523987,3,3,3,2,-8.869999999999999,-0.2,-0.74,-0.93,-0.48,-5.69
3.828461050987244,3,3,3,2,-9.82,-2.16,-0.3,-2.77,-0.88,-6.36
3.8384610414505,3,3,3,2,-12.57,-5.36,-0.13,-3.65,-1.8,-6.65
3.848461031913757,3,3,3,2,-13.18,-4.69,0.42,-1.2,-3.44,-7.43
3.858461022377014,3,3,3,2,-13.7,-2.93,0.51,2.8,-3.82,-8.35
3.868461012840271,3,3,3,2,-12.48,-0.86,0.49,4.84,-3.09,-7.79
3.878461003303528,3,3,3,2,-10.32,2.36,0.25,4.2,-1.21,-6.78
3.888460993766785,3,3,3,2,-9.44,2.89,-0.04,1.23,0.4,-5.57
3.898460984230042,3,3,3,2,-9.16,2.55,-0.37,-1.82,0.83,-4.3
3.908460974693298,3,3,3,2,-8.84,1.75,-0.57,-5.07,-0.08,-3.22
3.918460965156555,3,3,3,2,-10.14,-0.52,-0.95,-7.2,-0.64,-2.26
3.928460955619812,3,3,3,2,-11.01,-1.79,-1.06,-7.43,-1.85,-1.73
3.938460946083069,3,3,3,2,-11.9,-2.45,-1.14,-6.67,-1.91,-1.22
3.948460936546326,3,3,3,2,-12.47,-1.16,-0.71,-4.81,-1.1,-0.67
3.958460927009583,3,3,3,2,-12.58,-0.05,-0.86,-3.11,0.64,0.14
3.968460917472839,3,3,3,2,-12.71,1.34,-0.9399999999999999,-2.21,2.2,1.12
3.978460907936096,3,3,3,2,-12.81,2.36,-1.06,-1.55,2.69,2.05
3.988460898399353,3,3,3,2,-13.07,3.37,-1.29,-1.61,1.93,2.84
3.99846088886261,3,3,3,2,-13.58,3.68,-1.1,-2.76,1,3.28
4.008460879325867,3,3,3,2,-14.19,3.44,-0.9399999999999999,-4.12,0.19,3.28
4.018460869789124,3,3,3,2,-14.91,3.06,-1.22,-5.19,-0.38,3.26
4.02846086025238,3,3,3,2,-16.42,1.95,-0.74,-5.62,-0.99,3.73
4.038461089134216,3,3,3,2,-17.85,2.21,-1.05,-4.48,-1.01,4.5
4.048461079597473,3,3,3,2,-18.48,2.84,-1.01,-2.9,-1.46,4.98
4.05846107006073,3,3,3,2,-19.17,3.98,-1.13,-1.43,-1.73,5.61
4.068461060523987,3,3,3,2,-19.39,5.72,-2.03,-0.93,-1.91,6.45
4.078461050987244,3,3,3,2,-19.14,6.27,-2.58,-1.55,-2.4,7.47
4.0884610414505,3,3,3,2,-19.14,6.31,-2.61,-1.99,-2.22,8.619999999999999
4.098461031913757,3,3,3,2,-19.43,6.05,-2.05,1.3,-1.79,10.94
4.108461022377014,3,3,3,2,-21.81,6.38,-2.48,2.31,-0.88,12.77
4.118461012840271,3,3,3,2,-22.58,5.92,-2.8,3.83,2.03,13.46
4.128461003303528,3,3,3,2,-22.13,4.84,-2.55,6.25,3.16,15.1
4.138460993766785,3,3,3,2,-21.21,2.37,-2.1,5.87,3.06,16.28
4.148460984230042,3,3,3,2,-19.71,-4.69,0.21,7.22,4.25,16.01
4.158460974693298,3,3,3,2,-19.08,-8.539999999999999,0.67,7.68,7.49,15.2
4.168460965156555,3,3,3,2,-17.5,-11.15,0.86,7.3,9.6,14.04
4.178460955619812,3,3,3,2,-14.91,-11.65,1.28,8.529999999999999,11.04,12.23
4.188460946083069,3,3,3,2,-8.85,-8.710000000000001,2.55,11.38,13.39,9.75
4.198460936546326,3,3,3,2,-6.56,-6.47,2.45,12.57,14.69,6.66
4.208460927009583,3,3,3,2,-4.89,-5.21,1.11,10.76,14.66,3.65
4.218460917472839,3,3,3,2,-3.93,-3.82,1.42,7.88,15.1,1.39
4.228460907936096,3,3,3,2,-2.16,-4.84,3.72,3.36,12.45,0.18
4.238460898399353,3,3,3,2,-1.15,-7.96,6.18,1.23,8.82,0.15
4.24846088886261,3,3,3,2,-0.24,-12.15,7.09,-1.68,5.07,0.6
4.258460879325867,3,3,3,2,-0.08,-15.22,5.46,-2.42,2.06,0.66
4.268460869789124,3,3,3,2,-1.74,-8.73,2.04,-1.22,-1.19,0.28
4.27846086025238,3,3,3,2,-0.95,-3.47,0.2,-1.59,-5.7,0.28
4.288461089134216,3,3,3,2,0.21,0.79,-1.41,-1.94,-5.86,-0.17
4.298461079597473,3,3,3,2,0.36,2.56,-1.8,-0.34,-2.63,0.66
4.30846107006073,3,3,3,2,-0.5,0.36,0.07000000000000001,1.8,-0.5,0.79
4.318461060523987,3,3,3,2,-1.19,-1.41,0.07000000000000001,0.97,0.1,0.27
4.328461050987244,3,3,3,2,-1.04,-2.19,-0.79,0.01,-0.86,-0.79
4.3384610414505,3,3,3,2,-0.59,-1.04,-0.4,1.16,-2.12,-1.25
4.348461031913757,3,3,3,2,-0.34,-0.04,-0.32,1.91,-2.74,-1.71
4.358461022377014,3,3,3,2,0.17,0.72,-0.29,1.85,-3.29,-1.58
4.368461012840271,3,3,3,2,0.3,1.38,-0.05,1.28,-2.77,-0.91
4.378461003303528,3,3,3,2,0.22,1.21,0.24,-0.39,-1.69,-0.5
4.388460993766785,3,3,3,2,0.06,0.65,0.01,-2.18,-1.05,0.1
4.398460984230042,3,3,3,2,-0.04,0.13,-0.13,-3.55,-0.8100000000000001,0.41
4.408460974693298,3,3,3,2,-0.08,-0.15,-0.2,-4.18,-0.96,0.64
4.419460892677307,3,3,3,2,0.32,-1.23,-1.32,-2.36,-0.48,0.75
4.429460883140564,3,3,3,2,0.28,-1.53,-1.54,-2.36,-0.48,0.75
4.439460873603821,3,3,3,2,0.12,-1.59,-1.57,1.2,-0.84,0.55
4.449460864067078,3,3,3,2,0.1,-1.48,-1.53,5.94,-1.74,0.03
4.459461092948914,3,3,3,2,0.2,1.01,0.64,8.32,-2.04,-0.49
4.46946108341217,3,3,3,2,0.63,0.91,0.46,6.83,-1.98,-0.29
4.479461073875427,3,3,3,2,0.64,-0.5,-0.09,9,-0.35,1.2
4.489461064338684,3,3,3,2,-0.13,-1.45,0.38,9,-0.35,1.2
4.499461054801941,3,3,3,2,-1.47,-0.52,2.51,9.75,-1.18,1.28
4.509461045265198,3,3,3,2,-1.57,-0.73,1.64,5.93,-2.75,-0.85
4.519461035728455,3,3,3,2,-2.55,-3.47,4.74,5.93,-2.75,-0.85
4.529461026191711,3,3,3,2,-1.93,-9.210000000000001,10.54,-10.52,-3.29,-2.3
4.539461016654968,3,3,3,2,-6.12,-21.66,-13.2,-18.18,7.36,-2.2
4.549461007118225,3,3,3,2,-14.46,3.33,-12.79,9.789999999999999,0.41,0.5
4.559460997581482,3,3,3,2,-19.29,13.17,15.16,-33.67,-21.9,-12.91
4.569460988044739,3,3,3,2,-23.7,-9.44,6.69,-26.37,16.39,-25.78
4.579460978507996,3,3,3,2,-39.27,-39.11,-4.3,-0.68,-7.33,-5.96
4.589460968971252,3,3,3,2,-35.75,-33.46,-4.67,-0.68,-7.33,-5.96
4.599460959434509,3,3,3,2,-8.550000000000001,0.42,1.03,32.19,-24.31,-5.12
4.609460949897766,3,3,3,2,-10.64,36.13,-11,25.62,13.4,-28.93
4.619460940361023,3,3,3,2,-13.63,39.2,-0.92,8.9,14.64,-12.6
4.62946093082428,3,3,3,2,-20.08,39.32,-8.18,-63.55,3.06,0.18
4.65946090221405,3,3,3,2,-3.26,-8.390000000000001,-10.24,-43.71,-6.86,5.15
4.669460892677307,3,3,3,2,-5.62,-18.66,-8.17,-14.05,1.85,5.42
4.679460883140564,3,3,3,2,-13.71,-21.06,-7.97,14.11,2.52,-2.62
4.689460873603821,3,3,3,2,-34.03,4.38,-7.83,14.11,2.52,-2.62
4.699460864067078,3,3,3,2,-37.02,9.44,-7.29,14.97,-0.64,-0.08
4.709461092948914,3,3,3,2,-21.98,-0.97,-1.99,9.58,-1.64,1.15
4.71946108341217,3,3,3,2,-5.94,-5.82,0.08,10.67,2.8,-2.26
4.729461073875427,3,3,3,2,-10.5,-3.49,-1.38,15.2,1.26,0.28
4.739461064338684,3,3,3,2,-12.8,-0.87,-2.32,15.2,1.26,0.28
4.749461054801941,3,3,3,2,-13.31,2.77,-2.49,19.51,-0.04,4.7
4.759461045265198,3,3,3,2,-12.1,6.11,-1.84,16.28,0.34,8.68
4.769461035728455,3,3,3,2,-10.02,8.77,-1.61,11.46,3.03,7.61
4.779461026191711,3,3,3,2,-9.69,7.1,-2.68,7.18,4.2,6.83
4.789461016654968,3,3,3,2,-9.23,5.41,-3.01,7.18,4.2,6.83
4.799461007118225,3,3,3,2,-8.84,3.58,-2.57,3.72,4.15,6.52
4.809460997581482,3,3,3,2,-7.6,1.13,-2.3,0.19,3.73,4.32
4.819460988044739,3,3,3,2,-6.95,1.1,-2.27,-0.98,3.15,2.88
4.829460978507996,3,3,3,2,-6.48,0.27,-2.02,-0.79,2.07,2.79
4.839460968971252,3,3,3,2,-6.59,-0.25,-1.65,-0.79,2.07,2.79
4.869460940361023,3,3,3,2,-10.24,-2.85,0.19,1.62,2.61,3.32
4.87946093082428,3,3,3,2,-9.890000000000001,-3.25,0.54,1.58,2.49,3.07
4.889460921287537,3,3,3,2,-8.460000000000001,-2.8,1.5,1.58,2.49,3.07
4.899460911750793,3,3,3,2,-7.82,-2.45,1.72,1.58,2.45,3.43
4.90946090221405,3,3,3,2,-7.45,-2.36,1.87,-0.65,1.78,3.78
4.919460892677307,3,3,3,2,-7.57,-2.42,2.02,-3.27,1.22,3.14
4.929460883140564,3,3,3,2,-8.59,-2.7,1.59,-4.84,1.32,2.02
4.939460873603821,3,3,3,2,-9.16,-2.59,1.6,-4.84,1.32,2.02
4.949460864067078,3,3,3,2,-9.199999999999999,-2.85,0.48,-5.87,1.29,0.63
4.959461092948914,3,3,3,2,-8.81,-3.44,0,-2.17,1.6,-1.16
4.96946108341217,3,3,3,2,-8.16,-4.91,-1.11,1.51,2.18,-1.01
4.979461073875427,3,3,3,2,-8.630000000000001,-5.03,-1.35,5.75,2.45,-0.57
4.989461064338684,3,3,3,2,-9.33,-4.51,-1.5,5.75,2.45,-0.57
4.999461054801941,3,3,3,2,-9.77,-3.27,-1.55,9.369999999999999,2.57,0.59
5.009461045265198,3,3,3,2,-10.21,-0.47,-1.73,11.84,2.18,2.71
5.019461035728455,3,3,3,2,-10.01,0.54,-1.69,11.11,2.32,3.07
5.029461026191711,3,3,3,2,-10.14,1.68,-1.48,9.52,1.92,3.2
5.039461016654968,3,3,3,2,-10.53,2.99,-1.62,9.52,1.92,3.2
5.049461007118225,3,3,3,2,-10.29,3.56,-1.03,7.82,1.98,3.03
5.059460997581482,3,3,3,2,-10.05,3.51,-0.78,3.42,2.73,2.46
5.069460988044739,3,3,3,2,-9.640000000000001,3.11,-0.58,0.71,1.81,2.19
5.079460978507996,3,3,3,2,-9.1,2.45,-0.16,-2.12,1.03,1.87
5.089460968971252,3,3,3,2,-9.4,1.81,-0.13,-2.12,1.03,1.87
5.099460959434509,3,3,3,2,-9.640000000000001,1.17,-0.14,-4.65,0.48,1.69
5.109460949897766,3,3,3,2,-9.76,0.64,-0.3,-7.54,0.08,1.71
5.119460940361023,3,3,3,2,-9.58,-0.41,-0.37,-8.19,0.23,1.73
5.12946093082428,3,3,3,2,-9.51,-1.24,-0.44,-7.89,0.33,1.81
5.139460921287537,3,3,3,2,-9.529999999999999,-2.01,-0.66,-7.89,0.33,1.81
5.149460911750793,3,3,3,2,-9.51,-2.47,-0.57,-6.33,0.38,1.68
5.15946090221405,3,3,3,2,-9.380000000000001,-2.74,-0.52,-2,0.83,0.78
5.169460892677307,3,3,3,2,-9.26,-2.76,-0.5600000000000001,-0.1,1.36,0.65
5.179460883140564,3,3,3,2,-9.32,-2.78,-0.35,1.58,1.25,0.8
5.189460873603821,3,3,3,2,-9.42,-2.6,-0.25,1.58,1.25,0.8
5.199460864067078,3,3,3,2,-9.19,-2.69,-0.17,2.69,0.8,1.14
5.209461092948914,3,3,3,2,-9.31,-2.81,-0.05,3.47,0.11,1.26
5.21946108341217,3,3,3,2,-9.380000000000001,-2.99,-0.14,3.71,-0.23,0.8
5.229461073875427,3,3,3,2,-9.42,-2.94,-0.07000000000000001,3.51,-0.59,-0.01
5.239461064338684,3,3,3,2,-9.630000000000001,-2.29,-0.24,3.51,-0.59,-0.01
5.249461054801941,3,3,3,2,-9.720000000000001,-1.51,-0.05,3.45,-0.85,-0.86
5.259461045265198,3,3,3,2,-9.84,-0.77,-0.04,2.13,-1.62,-1.66
5.269461035728455,3,3,3,2,-9.699999999999999,-0.12,-0.33,1.69,-1.47,-1.71
5.279461026191711,3,3,3,2,-9.33,0.37,-0.08,1.35,-1.59,-1.63
5.289461016654968,3,3,3,2,-9.34,-0.02,-0.07000000000000001,1.35,-1.59,-1.63
5.299461007118225,3,3,3,2,-9.31,-0.49,0.34,0.96,-2.1,-1.16
5.319460988044739,3,3,3,2,-9.58,-1.47,-0.44,-2.11,-4.66,-2.22
5.329460978507996,3,3,3,2,-9.27,-1.4,0.52,-2.91,-4.15,-2.98
5.339460968971252,3,3,3,2,-9,-1.91,1.02,-2.91,-4.15,-2.98
5.349460959434509,3,3,3,2,-8.880000000000001,-2.6,1.04,-2.67,-4.05,-3.25
5.359460949897766,3,3,3,2,-8.56,-3.38,1.34,-4.18,-4.73,-3.52
5.369460940361023,3,3,3,2,-8.52,-3.21,0.52,-4.05,-4.11,-4.17
5.37946093082428,3,3,3,2,-8.76,-1.94,0.19,-3.75,-3.32,-5.21
5.389460921287537,3,3,3,2,-8.640000000000001,0.14,-0.11,-3.75,-3.32,-5.21
5.399460911750793,3,3,3,2,-8.460000000000001,-0.45,-0.03,-3.48,-2.55,-5.97
5.40946090221405,3,3,3,2,-8.4,-1.32,0.07000000000000001,-4.89,-3.58,-5.26
5.419460892677307,3,3,3,2,-8.56,-2.02,-0.31,-4.23,-4.45,-5.2
5.429460883140564,3,3,3,2,-8.77,-1.04,-0.25,-4.03,-3.72,-5.29
5.440461039543152,3,3,3,2,-8.869999999999999,-0.95,-0.36,-4.03,-3.72,-5.29
5.450461030006409,3,3,3,2,-9,-0.95,-0.77,-3.62,-2.6,-5.42
5.460461020469666,3,3,3,2,-8.630000000000001,0.01,-0.37,-4.28,-3.26,-5.43
5.470461010932922,3,3,3,2,-8.449999999999999,-0.05,-0.37,-4.53,-3.4,-5.37
5.480461001396179,3,3,3,2,-8.779999999999999,-0.59,-1.08,-4.46,-2.85,-5.67
5.490460991859436,3,3,3,2,-8.779999999999999,-0.59,-1.08,-4.46,-2.85,-5.67
5.500460982322693,3,3,3,2,-9.220000000000001,-0.34,-1.42,-3.7,-2.69,-6.06
5.51046097278595,3,3,3,2,-8.92,-0.3,-0.53,-3.8,-3.36,-6.24
5.520460963249207,3,3,3,2,-8.640000000000001,-1.24,-0.12,-4.58,-3.64,-6.3
5.530460953712463,3,3,3,2,-9.039999999999999,-2.16,-0.4,-3.71,-2.88,-6.16
5.54046094417572,3,3,3,2,-9.039999999999999,-2.16,-0.4,-3.71,-2.88,-6.16
5.550460934638977,3,3,3,2,-9.92,-1.07,-0.1,-1.58,-1.48,-6.48
5.560460925102234,3,3,3,2,-10.4,-0.13,-0.99,-0.6,-1.92,-7.38
5.570460915565491,3,3,3,2,-9.109999999999999,0.14,-0.24,-0.7,-3.81,-7.23
5.580460906028748,3,3,3,2,-8.720000000000001,0.26,0.02,-0.9,-1.1,-7.03
5.590460896492004,3,3,3,2,-8.720000000000001,0.26,0.02,-1.76,-1.42,-7.39
5.600460886955261,3,3,3,2,-8.75,0.12,0.12,-1.76,-1.42,-7.39
5.610460877418518,3,3,3,2,-9.039999999999999,-0.46,-0.7,-4.2,-1.81,-7.19
5.620460867881775,3,3,3,2,-10.63,-1.06,-0.77,-4.82,-1.57,-7.09
5.630460858345032,3,3,3,2,-10.93,-2.33,-1.04,-5.16,-1.26,-7.11
5.640461087226868,3,3,3,2,-10.93,-2.33,-1.04,-5.16,-1.26,-7.11
5.650461077690125,3,3,3,2,-11.51,-2.84,-0.74,-2.11,-0.44,-6.59
5.660461068153381,3,3,3,2,-10.82,-1.27,-0.08,-0.18,-0.18,-6.25
5.670461058616638,3,3,3,2,-10.5,-0.43,-0.21,0.8,1.22,-5.65
5.680461049079895,3,3,3,2,-9.949999999999999,0.05,-0.43,0.42,2.2,-4.85
5.690461039543152,3,3,3,2,-9.949999999999999,0.05,-0.43,0.42,2.2,-4.85
5.700461030006409,3,3,3,2,-9.789999999999999,0.6899999999999999,-0.37,-0.79,2.99,-3.88
5.710461020469666,3,3,3,2,-10.13,1.42,-1.3,-3.03,0.92,-3.14
5.720461010932922,3,3,3,2,-10.39,1.05,-1.41,-4.24,0.51,-2.58
5.730461001396179,3,3,3,2,-11.6,-0.79,-1.52,-5.54,0,-1.85
5.740460991859436,3,3,3,2,-11.6,-0.79,-1.52,-6.4,-0.8100000000000001,-0.98
5.750460982322693,3,3,3,2,-12.34,-2.14,-1.44,-6.4,-0.8100000000000001,-0.98
5.76046097278595,3,3,3,2,-13.39,-1.8,-1.52,-3.76,-0.07000000000000001,-0.27
5.770460963249207,3,3,3,2,-13.46,0.71,-1.64,-2.1,1.07,0.22
5.780460953712463,3,3,3,2,-13.49,1.8,-1.49,-1.01,1.96,1
5.79046094417572,3,3,3,2,-13.49,1.8,-1.49,-1.01,1.96,1
5.800460934638977,3,3,3,2,-13.48,2.53,-1.33,-1.68,1.36,1.77
5.810460925102234,3,3,3,2,-14.38,3.36,-1.74,-2.42,0.91,2.53
5.820460915565491,3,3,3,2,-14.74,3.13,-1.98,-2.93,0.5,3.51
5.830460906028748,3,3,3,2,-15.58,2.94,-1.89,-3.61,-0.39,4.07
5.840460896492004,3,3,3,2,-15.58,2.94,-1.89,-3.56,-1.65,3.86
5.850460886955261,3,3,3,2,-16.43,2.32,-1.48,-2.72,-3.7,2.9
5.860460877418518,3,3,3,2,-17.07,2.55,-0.07000000000000001,-2.72,-3.7,2.9
5.870460867881775,3,3,3,2,-17.63,3.13,0.15,-0.9,-1.26,5.66
5.880460858345032,3,3,3,2,-17.92,4.23,0.65,-0.7,-2.42,7.97
5.890461087226868,3,3,3,2,-17.92,4.23,0.65,-1.03,-3.25,9.800000000000001
5.900461077690125,3,3,3,2,-18.63,6.16,0.38,-1.03,-3.25,9.800000000000001
5.910461068153381,3,3,3,2,-20.27,7.6,-1.36,-1.56,-4.18,11.46
5.920461058616638,3,3,3,2,-21.86,7.8,-2.86,-2.31,-3.4,13.92
5.930461049079895,3,3,3,2,-25.45,7.41,-6.04,-0.53,-2.81,15.26
5.940461039543152,3,3,3,2,-25.45,7.41,-6.04,1.5,0.8100000000000001,14.19
5.950461030006409,3,3,3,2,-28.5,5.38,-6.89,1.5,0.8100000000000001,14.19
5.960461020469666,3,3,3,2,-26,1.75,-6.16,4.32,2.45,14.59
5.970461010932922,3,3,3,2,-21.36,-7.08,-2.62,5.97,3.68,17.49
5.980461001396179,3,3,3,2,-19.82,-11.01,-0.41,5.85,7.69,18.63
5.990460991859436,3,3,3,2,-19.82,-11.01,-0.41,5.88,15.72,18.24
6.000460982322693,3,3,3,2,-17.35,-12.41,0.68,5.88,15.72,18.24
6.01046097278595,3,3,3,2,-6.58,-8.15,0.08,6.16,20.26,18.15
6.020460963249207,3,3,3,2,-3.44,-6.77,1.97,4.97,21.34,15.42
6.030460953712463,3,3,3,2,-1.33,-10.42,6.56,0.59,18.96,10.83
6.04046094417572,3,3,3,2,0.14,-16.14,13.7,-5.28,7.98,5.8
6.050460934638977,3,3,3,2,-3.06,-38.56,14.01,-5.28,7.98,5.8
6.060460925102234,3,3,3,2,-4.56,-34.68,6.28,-3.11,3.02,4.6
6.070460915565491,3,3,3,2,-3.32,-10.94,4.3,9.300000000000001,-2.14,2.21
6.080460906028748,3,3,3,2,0.36,12.29,0.4,15.6,-9.66,-2.69
6.090460896492004,3,3,3,2,-1.65,11.02,-1.8,6.22,-11.63,-8.34
6.100460886955261,3,3,3,2,-3.4,5.51,-2.27,-3.43,-0.6899999999999999,-7.79
6.110460877418518,3,3,3,2,-2.79,3.66,-1.98,-3.23,4.61,-3.64
6.120460867881775,3,3,3,2,1.31,0.58,-5.27,-3.89,-2.71,-2.8
6.130460858345032,3,3,3,2,2.48,0.87,-4.78,-5.65,-8.08,-4.19
6.140461087226868,3,3,3,2,2.9,1.8,-4.15,0.88,-6.33,-4.06
6.150461077690125,3,3,3,2,2.83,2.78,-3.14,5.74,-3.86,-3.11
6.160461068153381,3,3,3,2,-0.35,3.98,-0.59,7.46,-2.06,-1.1
6.170461058616638,3,3,3,2,-1.04,3.34,-0.1,7.49,-0.88,-0.65
6.180461049079895,3,3,3,2,-1.13,2.33,-0.12,4.41,-3.14,-0.15
6.190461039543152,3,3,3,2,-1.13,0.65,-0.47,0.8,-3.71,-0.36
6.200461030006409,3,3,3,2,0.16,-0.07000000000000001,-0.03,-1.59,-2.93,-0.93
6.210461020469666,3,3,3,2,0.75,0.07000000000000001,0.11,-1.6,-1.89,-1.21
6.220461010932922,3,3,3,2,1.2,0.18,-0.01,-0.63,-0.2,-1.52
6.230461001396179,3,3,3,2,1.43,0,0.08,1.09,1.09,-2.13
6.240460991859436,3,3,3,2,0.6899999999999999,-0.98,-0.14,2.54,1.95,-2.81
6.250460982322693,3,3,3,2,0.4,-2,-0.54,3.16,2.52,-2.43
6.26046097278595,3,3,3,2,0.2,-2.46,-1.05,3.76,2.11,-1.33
6.270460963249207,3,3,3,2,-0.18,-1.66,-0.34,4.98,1.63,-0.7
6.280460953712463,3,3,3,2,-0.21,0.36,0.22,6.78,0.9399999999999999,-0.42
6.29046094417572,3,3,3,2,-0.3,0.4,0.12,7.34,-0.14,0.04
6.300460934638977,3,3,3,2,-0.66,0.42,0.23,7.38,-0.01,-0.01
6.310460925102234,3,3,3,2,-0.84,-0.33,0.13,7.29,0.45,-0.78
6.320460915565491,3,3,3,2,-0.5,-1.96,0.42,6.81,0.37,-1.75
6.330460906028748,3,3,3,2,-0.5,-2.94,0.58,6.85,1.11,-2.46
6.340460896492004,3,3,3,2,-0.64,-4.05,1.09,6.56,2.17,-2.53
6.350460886955261,3,3,3,2,-1.33,-5.37,3.68,7.06,2.41,-1.84
6.360460877418518,3,3,3,2,-3.99,-21.49,7.54,7.58,-0.52,-0.77
6.370460867881775,3,3,3,2,-5.88,-33.9,-9.199999999999999,-1.24,-8.27,-1.44
6.380460858345032,3,3,3,2,-13.16,-19.47,-9.33,-4.93,3.34,-2.62
6.390461087226868,3,3,3,2,-11.96,12.5,5.67,8.84,-6.22,3.32
6.400461077690125,3,3,3,2,-10.39,5.24,4.27,-10.44,-39.16,3.85
6.410461068153381,3,3,3,2,-32.76,-10.01,-0.21,-30.67,-24.49,-5.8
6.420461058616638,3,3,3,2,-39.27,-11.34,0.23,-10.83,5.72,-16.16
6.430461049079895,3,3,3,2,-21.93,-13.16,-3.43,-0.99,3.83,-20.23
6.440461039543152,3,3,3,2,-15.46,-4.19,3.01,-17.38,3.14,-6.83
6.450461030006409,3,3,3,2,-11.87,5.7,0.77,-13.82,-2.92,-7.79
6.460461020469666,3,3,3,2,-13.58,15.18,-4.15,-3.83,-1.25,-17.61
6.471460938453674,3,3,3,2,-13.5,26.85,-7.28,1.83,1.59,-17.21
6.481460928916931,3,3,3,2,-11.67,25.71,-10.67,-1.77,2.43,-8.31
6.491460919380188,3,3,3,3,-9.93,20.96,-12.45,-7.71,2.7,-1.83
6.501460909843445,3,3,3,3,-9.33,12.98,-12.81,-10.92,1.16,1.88
6.511460900306702,3,3,3,3,-13.8,-7.38,-3.79,-12.75,0.6,5.41
6.521460890769958,3,3,3,3,-23.05,-21.28,0.91,-14.84,2.91,5.21
6.531460881233215,3,3,3,3,-37.86,-37.46,1.08,-20.28,9.77,-1.49
6.541460871696472,3,3,3,3,-39.27,-38.95,-1.24,-13.49,8.529999999999999,-17.56
6.551460862159729,3,3,3,3,-15.76,4.1,4.1,17.81,-9.609999999999999,-14.02
6.561461091041565,3,3,3,3,-0.14,20.65,4.95,43.44,-6.9,11.16
6.571461081504822,3,3,3,3,0.45,26.15,3.17,50.89,11.65,0.05
6.581461071968079,3,3,3,3,-1.46,28.37,3.05,34.76,13.85,-6.05
6.591461062431335,3,3,3,3,-7.67,19.47,-1.41,14.85,4.49,-8.26
6.601461052894592,3,3,3,3,-8.52,14.24,-2.71,-3.74,-1.28,-7.23
6.611461043357849,3,3,3,3,-9.68,8.58,-3.74,-19.68,-4.54,-3.31
6.621461033821106,3,3,3,3,-9.6,3.08,-4.23,-29.01,-6.57,3.18
6.631461024284363,3,3,3,3,-9.960000000000001,-6.51,-5.76,-30.16,-6.41,8.960000000000001
6.64146101474762,3,3,3,3,-9.93,-8.970000000000001,-5.67,-25.61,-4.6,10.61
6.651461005210876,3,3,3,3,-11.92,-9.75,-4.72,-16.98,-3.91,8.130000000000001
6.661460995674133,3,3,3,3,-15.7,-9.390000000000001,-3.28,-8.07,-2.27,3.38
6.67146098613739,3,3,3,3,-20.18,-5.55,-2.66,-1.04,-2.12,-1.85
6.681460976600647,3,3,3,3,-18.75,-2.34,-1.84,4.52,-3.29,-2.31
6.691460967063904,3,3,3,3,-14.09,-0.12,-0.91,7.55,-2.98,2.29
6.701460957527161,3,3,3,3,-8.77,1.4,-0.33,8.73,-0.9,5.11
6.711460947990417,3,3,3,3,-5.42,4.85,-0.18,9.18,1.78,4.57
6.721460938453674,3,3,3,3,-5.33,4.25,-0.5,5.99,3.71,2.96
6.731460928916931,3,3,3,3,-5.82,2.92,-0.61,1.72,2.79,1.36
6.741460919380188,3,3,3,3,-7.05,1.49,-0.75,-2.39,1.49,0.23
6.751460909843445,3,3,3,3,-9.619999999999999,-1.05,-1.22,-4.84,0.85,0.16
6.761460900306702,3,3,3,3,-10.57,-2.26,-1.23,-5.23,0.6,1.27
6.771460890769958,3,3,3,3,-11.05,-3.36,-0.9,-3.92,0.24,2.73
6.781460881233215,3,3,3,3,-10.77,-4.42,-0.52,-1.88,0.08,3.81
6.791460871696472,3,3,3,3,-10.3,-4.17,-0.31,1.14,0.24,4.59
6.801460862159729,3,3,3,3,-9.6,-3.68,-0.37,4.31,0.27,4.63
6.811461091041565,3,3,3,3,-8.85,-2.76,-0.39,6.92,0.13,3.74
6.821461081504822,3,3,3,3,-7.87,-1.28,0.3,8.859999999999999,0.13,2.43
6.831461071968079,3,3,3,3,-7.9,-1.21,0.63,9.300000000000001,0.18,1.42
6.841461062431335,3,3,3,3,-8.140000000000001,-0.96,0.99,8.68,0.02,1.02
6.851461052894592,3,3,3,3,-8.67,-0.74,1.12,7.44,-0.39,1.44
6.861461043357849,3,3,3,3,-9.76,-0.12,0.99,5.75,-0.89,2.11
6.871461033821106,3,3,3,3,-9.869999999999999,-0.07000000000000001,0.71,4.14,-0.41,2.11
6.881461024284363,3,3,3,3,-9.449999999999999,-0.19,0.64,2.87,0.3,1.96
6.89146101474762,3,3,3,3,-8.91,-0.44,0.5600000000000001,1.84,1.04,1.64
6.901461005210876,3,3,3,3,-7.94,-1.28,0.31,0.66,1.6,0.92
6.911460995674133,3,3,3,3,-7.87,-1.79,0.31,-0.68,1.39,0
6.92146098613739,3,3,3,3,-7.98,-2.54,0.63,-2.16,1.01,-0.62
6.931460976600647,3,3,3,3,-8.09,-3.45,0.74,-3.57,0.68,-0.75
6.941460967063904,3,3,3,3,-8.19,-5.06,0.43,-4.69,0.54,-0.68
6.951460957527161,3,3,3,3,-7.88,-5.53,0.32,-4.83,0.44,-0.78
6.961460947990417,3,3,3,3,-7.56,-5.52,0.15,-4.02,-0.2,-0.7
6.971460938453674,3,3,3,3,-7.5,-5.1,0.06,-2.85,-0.37,-0.85
6.981460928916931,3,3,3,3,-7.58,-3.84,0.4,-1.76,-0.54,-1.49
6.991460919380188,3,3,3,3,-7.73,-3.24,0.51,-0.95,-0.65,-2.19
7.001460909843445,3,3,3,3,-7.89,-2.84,0.46,-0.59,-0.9399999999999999,-2.72
7.021460890769958,3,3,3,3,-8.390000000000001,-2.58,-0.04,-1.23,-0.66,-3.39
7.061461091041565,3,3,3,3,-8.24,-2.54,-0.35,-0.86,-1.66,-5.23
7.071461081504822,3,3,3,3,-8.529999999999999,-2.53,-0.62,-0.99,-0.93,-5.56
7.081461071968079,3,3,3,3,-8.58,-2.06,-0.85,-0.8100000000000001,-1.38,-5.62
7.091461062431335,3,3,3,3,-8.67,-1.53,-0.54,-0.38,-1.41,-5.32
7.101461052894592,3,3,3,3,-8.859999999999999,-2.09,-0.64,-0.42,-0.79,-5.2
7.111461043357849,3,3,3,3,-9.16,-2.52,-0.89,-0.78,-0.12,-5.31
7.121461033821106,3,3,3,3,-8.869999999999999,-2.99,-0.52,-0.65,-0.79,-5.45
7.131461024284363,3,3,3,3,-8.550000000000001,-2.55,-1.05,-0.48,-1.74,-5.67
7.14146101474762,3,3,3,3,-8.41,-2.38,-1.11,0.6899999999999999,-0.5,-6.49
7.151461005210876,3,3,3,3,-8.300000000000001,-1.97,-0.93,1.65,0,-7.54
7.161460995674133,3,3,3,3,-8.68,-1.37,-0.6899999999999999,2.5,-0.6,-7.78
7.17146098613739,3,3,3,3,-9.16,-0.55,-0.11,2.54,-1.6,-7.3
7.181460976600647,3,3,3,3,-10.24,-0.92,0.25,1.31,-1.32,-6.58
7.191460967063904,3,3,3,3,-10.77,-1.72,0.12,-0.36,0.39,-5.86
7.201460957527161,3,3,3,3,-11.93,-1.74,0.05,-1.32,0.51,-5.19
7.211460947990417,3,3,3,3,-11.52,-1.22,0.4,-0.46,-0.19,-5.58
7.221460938453674,3,3,3,3,-10.86,-1.56,0.44,0,-0.35,-6.19
7.231460928916931,3,3,3,3,-10.39,-2.06,0.53,-0.46,-0.32,-6.83
7.241460919380188,3,3,3,3,-10.7,-1.68,0.25,-1.19,-0.07000000000000001,-7.29
7.251460909843445,3,3,3,3,-11.11,0.11,-0.64,-0.79,-0.14,-7.31
7.261460900306702,3,3,3,3,-11.11,0.85,-1.03,-1.4,-1.21,-7.17
7.271460890769958,3,3,3,3,-10.82,1.59,-0.9399999999999999,-2.2,-1.02,-6.19
7.281460881233215,3,3,3,3,-10.58,1.82,-0.75,-2.84,0,-4.8
7.291460871696472,3,3,3,3,-10.54,0.76,-0.84,-4.13,1.2,-3.56
7.301460862159729,3,3,3,3,-10.88,-0.5600000000000001,-0.93,-5.56,1.09,-2.67
7.311461091041565,3,3,3,3,-11.74,-1.94,-1.32,-6.8,-0.16,-2.09
7.321461081504822,3,3,3,3,-12.83,-2.45,-1.73,-6.96,-1.35,-1.72
7.331461071968079,3,3,3,3,-14.25,-0.15,-2.11,-4.52,-1.48,-1.52
7.341461062431335,3,3,3,3,-14.58,1.57,-2.5,-1.16,-0.41,-1.13
7.351461052894592,3,3,3,3,-14.71,2.18,-2.59,0.7,0.66,0.34
7.361461043357849,3,3,3,3,-14.8,2.3,-2.81,0.79,0.92,1.8
7.371461033821106,3,3,3,3,-14.98,0.37,-2.6,-0.21,0.48,2.33
7.381461024284363,3,3,3,3,-15.3,0,-1.91,-1.13,-0.4,2.39
7.39146101474762,3,3,3,3,-15.73,0.64,-1.55,-1.15,-0.79,2.5
7.401461005210876,3,3,3,3,-16.06,1.54,-1.38,-0.89,-0.72,3
7.411460995674133,3,3,3,3,-15.34,2.87,-1.08,-0.84,-0.64,3.46
7.422460913658142,3,3,3,3,-15.1,3.76,-0.6,-1.39,-0.33,4.75
7.431460976600647,3,3,3,3,-14.98,4.08,-0.13,-1.94,0,7.23
7.441460967063904,3,3,3,3,-15.31,4.2,-0.11,-3.16,-1.03,10.04
7.452460885047913,3,3,3,3,-18.2,4.08,-0.41,-3.92,-2.39,11.74
7.461460947990417,3,3,3,3,-22.24,4.72,-1.1,-4.91,-4.11,11.88
7.471460938453674,3,3,3,3,-23.55,4.59,-1.38,-4.55,-7.33,10.31
7.482460856437683,3,3,3,3,-22.09,4.97,-2.1,-2.28,-9.380000000000001,10.73
7.492461085319519,3,3,3,3,-24.9,8.609999999999999,-4.83,0.64,-2.31,14.22
7.502461075782776,3,3,3,3,-25.22,10.52,-6.4,3.14,-3.25,16.97
7.512461066246033,3,3,3,3,-26.84,9.960000000000001,-7.51,4.21,-2.31,18.97
7.52246105670929,3,3,3,3,-29.55,4.18,-7.55,5.46,-0.78,20.24
7.532461047172546,3,3,3,3,-28.61,-1.54,-6.26,7.55,3.63,18.35
7.542461037635803,3,3,3,3,-25.84,-7.82,-2.15,6.18,10.19,18.15
7.55246102809906,3,3,3,3,-22.5,-9.640000000000001,-1.29,-0.23,15.06,21.03
7.562461018562317,3,3,3,3,-12.74,-5.9,-1.49,-3.93,17.97,22.48
7.572461009025574,3,3,3,3,-6.44,-4.51,1.09,-2.12,19.33,23.01
7.582460999488831,3,3,3,3,-1.47,-11.27,11.75,-7.66,21.48,22.81
7.592460989952087,3,3,3,3,0.15,-29.94,17.95,-26.97,21.28,19.54
7.602460980415344,3,3,3,3,-3.99,-39.08,17.34,-32.44,13.35,11.79
7.612460970878601,3,3,3,3,-0.11,-34.59,12.28,-8.9,2.5,12.18
7.622460961341858,3,3,3,3,-6.72,1.61,6.7,30.84,-5.65,6.97
7.632460951805115,3,3,3,3,-5.72,20.97,5.79,24.94,-13.13,-14.84
7.642460942268372,3,3,3,3,-2.23,13.65,-0.16,-1.39,-9.59,-24.55
7.652460932731628,3,3,3,3,-8.449999999999999,3.72,3.18,9.66,10.08,-17.78
7.662460923194885,3,3,3,3,-3.7,-0.6899999999999999,-4.06,-6.18,6.9,-1.3
7.672460913658142,3,3,3,3,3.02,-5.73,-13.57,-25.28,-22.18,0.01
7.682460904121399,3,3,3,3,1.55,-1.28,-4.5,-11.59,-18.28,-3.51
7.692460894584656,3,3,3,3,1.63,2.8,-2.54,11.17,-6.61,-4.58
7.702460885047913,3,3,3,3,2.32,4,-4.45,18.75,-7.56,-2.01
7.712460875511169,3,3,3,3,1.02,7.15,-3.42,20.58,-2.36,1.75
7.722460865974426,3,3,3,3,-0.64,6.86,-0.05,19.87,2.89,2.13
7.732460856437683,3,3,3,3,1.55,3.27,-0.93,6.3,-1.09,0.5
7.742461085319519,3,3,3,3,2.52,0.62,-0.31,1.73,-0.85,-0.26
7.752461075782776,3,3,3,3,2.6,-1.22,-0.37,-0.8100000000000001,0.27,-1.6
7.762461066246033,3,3,3,3,0.13,-0.26,0.3,-0.29,-2.03,-1.76
7.77246105670929,3,3,3,3,-0.64,0.6899999999999999,0.4,0.85,-3.62,-2.17
7.782461047172546,3,3,3,3,-0.92,0.68,0.16,0.96,-4.37,-3.2
7.792461037635803,3,3,3,3,-1.17,0.42,0.11,0.98,-4.16,-4.49
7.80246102809906,3,3,3,3,-1.31,-1.51,-0.53,1.74,-2.84,-5.06
7.812461018562317,3,3,3,3,-1.09,-2.27,-1.43,3.39,-1.26,-4.54
7.822461009025574,3,3,3,3,-1.09,-2.18,-2.16,6.89,0.12,-3.13
7.832460999488831,3,3,3,3,-1.21,-1.25,-2.09,9.06,1.01,-2.05
7.842460989952087,3,3,3,3,0.09,1.92,-1.91,10.77,0.97,-1.29
7.852460980415344,3,3,3,3,1.16,2.56,-2.22,11.58,1.05,-0.84
7.862460970878601,3,3,3,3,1.86,3.11,-2.4,11.76,2.38,-1.25
7.872460961341858,3,3,3,3,1.99,3.05,-1.39,10.64,3.08,-2.34
7.882460951805115,3,3,3,3,1.66,2.46,-1.05,8.27,1.75,-3.01
7.892460942268372,3,3,3,3,0.88,1.57,-0.5600000000000001,4.72,0.22,-3.42
7.902460932731628,3,3,3,3,0.19,0.41,0.15,2.26,-0.58,-3.05
7.912460923194885,3,3,3,3,-0.55,-1.67,0.98,1.87,-1.35,-1.89
7.922460913658142,3,3,3,3,-0.77,-2.6,0.89,3.16,-1.02,-0.64
7.932460904121399,3,3,3,3,-1.05,-3.45,0.92,3.44,0.28,0.15
7.942460894584656,3,3,3,3,-1.27,-4.11,0.77,2.61,0.75,0.25
7.952460885047913,3,3,3,3,-4.52,-8.890000000000001,9.640000000000001,1.16,-0.58,-0.6
7.962460875511169,3,3,3,3,-3.08,-21.64,6.89,-4.65,-7.53,-2.82
7.972460865974426,3,3,3,3,-5.18,-32.32,2.95,-18.15,-11.32,-6.3
7.982460856437683,3,3,3,3,-10.73,-12.86,9.449999999999999,-7.28,-3.74,-2.67
7.992461085319519,3,3,3,3,-11.83,11.04,6.29,-3.86,-18.51,6.94
8.002461075782776,3,3,3,3,-29.15,3.49,6.24,-17.34,-24.54,1.98
8.012461066246033,3,3,3,3,-39.27,-7.36,-0.37,-23.58,-12.56,-7.77
8.02246105670929,3,3,3,3,-38.79,-0.17,-9.23,-2.35,9.449999999999999,-21.31
8.032461047172546,3,3,3,3,-9.49,10.37,-7.82,-5.99,10.72,-13.99
8.042461037635803,3,3,3,3,-5.24,11.87,-10.55,-12.56,-3.78,-2.61
8.05246102809906,3,3,3,3,-8.630000000000001,5.51,-10.93,-11.02,-1.13,-6.91
8.062461018562317,3,3,3,3,-17.29,-2.05,-8.609999999999999,-7.47,7.22,-6.52
8.072461009025574,3,3,3,3,-39.06,-18.5,-3.7,-7.81,9.699999999999999,-2.93
8.082460999488831,3,3,3,3,-39.27,-19.54,-4.34,-7.39,6.29,-5.52
8.092460989952087,3,3,3,3,-35.33,-11.36,0.8100000000000001,10.29,1.6,-13.88
8.102460980415344,3,3,3,3,-18.48,0.79,5.54,23.18,-11.29,-2.4
8.112460970878601,3,3,3,3,-10.86,24.84,4.83,29.77,0.39,4.32
8.122460961341858,3,3,3,3,-10.96,24.14,5.05,24.5,9.029999999999999,-1.65
8.132460951805115,3,3,3,3,-13.95,17.14,2.92,8.380000000000001,3.85,-7.96
8.142460942268372,3,3,3,3,-16.66,12.68,1.98,-4.39,0.98,-5.46
8.152460932731628,3,3,3,3,-15.66,7.82,0.02,-12.49,-1.27,-0.99
8.162460923194885,3,3,3,3,-15.12,5.16,-1.09,-16.38,-1.48,0.98
8.172460913658142,3,3,3,3,-15.67,2.86,-1.65,-17.59,-1.58,0.93
8.182460904121399,3,3,3,3,-16.09,1,-2.49,-16.24,-0.02,0.14
8.192460894584656,3,3,3,3,-13.31,-0.38,-3.48,-10.96,0.06,-0.08
8.202460885047913,3,3,3,3,-11.45,0.45,-3.68,-4.64,-0.72,0.85
8.212460875511169,3,3,3,3,-10.34,1.7,-3.74,0.07000000000000001,-1.18,2.69
8.222460865974426,3,3,3,3,-10.65,2.28,-3.38,2.65,-1.07,4.19
8.232460856437683,3,3,3,3,-10.96,1.43,-3.21,3.25,-0.61,4.89
8.242461085319519,3,3,3,3,-11.07,0.95,-2.9,3.03,-0.52,5.51
8.252461075782776,3,3,3,3,-10.83,0.07000000000000001,-2.7,2.46,-0.4,6.26
8.262461066246033,3,3,3,3,-9.67,-0.31,-2.48,2.8,-0.06,7
8.27246105670929,3,3,3,3,-9.01,-0.11,-2.21,4.01,0.86,7.68
8.282461047172546,3,3,3,3,-8.199999999999999,0.28,-2.09,5.14,1.63,7.64
8.292461037635803,3,3,3,3,-7.6,0.67,-1.9,5.03,2.23,6.59
8.30246102809906,3,3,3,3,-7.23,0.8,-1.26,4.23,2.82,5.12
8.312461018562317,3,3,3,3,-7.38,0.19,-0.89,3.62,3.6,4.14
8.322461009025574,3,3,3,3,-7.41,-0.39,-0.52,3.32,4.01,3.85
8.332460999488831,3,3,3,3,-7.5,-1.09,-0.29,2.99,4.07,4.3
8.342460989952087,3,3,3,3,-7.64,-2.08,0.14,2.78,3.98,4.86
8.352460980415344,3,3,3,3,-7.53,-2.54,0.36,3.1,3.75,5.02
8.362460970878601,3,3,3,3,-7.33,-3.01,0.11,3.93,3.74,5.15
8.372460961341858,3,3,3,3,-7.41,-3.56,0.23,4.95,3.45,5.56
8.382460951805115,3,3,3,3,-8.1,-3.23,0.82,5.98,2.81,5.4
8.392460942268372,3,3,3,3,-8.220000000000001,-2.96,0.97,6.92,1.78,4.92
8.402460932731628,3,3,3,3,-8.41,-2.19,1.25,8.18,0.68,4.61
8.412460923194885,3,3,3,3,-8.710000000000001,-1.07,1.22,9.57,0.74,4.17
8.422460913658142,3,3,3,3,-9.24,-0.16,0.64,9.27,1.57,3.62
8.432460904121399,3,3,3,3,-9.48,0.44,1.18,7.67,2.79,3.29
8.442460894584656,3,3,3,3,-9.359999999999999,0.68,1.69,4.98,3.57,2.84
8.452460885047913,3,3,3,3,-9.08,-0.14,0.88,1.56,2.75,2.17
8.462460875511169,3,3,3,3,-9.15,-1.58,-0.5600000000000001,-0.78,1.99,1.13
8.472460865974426,3,3,3,3,-9.58,-1.98,-1.36,-2.36,1.78,1.13
8.482460856437683,3,3,3,3,-10.16,-2.43,-1.97,-2.03,1.74,2
8.492461085319519,3,3,3,3,-10.68,-2.51,-1.59,-0.27,2.01,2.86
8.502461075782776,3,3,3,3,-10.32,-2.56,-1.07,1.72,2.39,3.04
8.512461066246033,3,3,3,3,-9.640000000000001,-2.59,-0.84,3.77,2.59,2.7
8.523460984230042,3,3,3,3,-9.15,-2.89,-0.36,5,2.97,2.29
8.533460974693298,3,3,3,3,-8.699999999999999,-3.19,0.82,7.73,2.3,2.3
8.543460965156555,3,3,3,3,-8.44,-2.54,2.01,10.06,1.8,2.36
8.553460955619812,3,3,3,3,-8.699999999999999,-2.57,1.71,9.4,1.25,2.84
8.563460946083069,3,3,3,3,-9.210000000000001,-2.68,1.82,9.27,1.03,3.79
8.573460936546326,3,3,3,3,-9.949999999999999,-2.48,1.53,8.779999999999999,1.46,4.31
8.583460927009583,3,3,3,3,-10.46,-1.01,1,7.35,1.04,3.79
8.593460917472839,3,3,3,3,-10.34,-0.17,0.97,6.4,1.55,2.6
8.603460907936096,3,3,3,3,-10.1,0.35,1.04,6.89,2.53,1.25
8.613460898399353,3,3,3,3,-9.65,0.64,2.04,6.96,3.17,0.15
8.62346088886261,3,3,3,3,-9.35,0.91,0.95,4.28,3,-0.23
8.633460879325867,3,3,3,3,-9.23,1.53,-0.59,0.9,2.51,0.15
8.643460869789124,3,3,3,3,-9.56,2.18,-1.32,-0.72,3.1,0.59
8.65346086025238,3,3,3,3,-10.27,1.68,-1.64,-2.58,3.12,0.82
8.663461089134216,3,3,3,3,-10.35,1.3,-1.86,-4.7,1.72,0.99
8.673461079597473,3,3,3,3,-10.17,1.16,-1.96,-6.24,0.96,1.01
8.68346107006073,3,3,3,3,-9.84,1.07,-1.9,-6.87,0.79,1.29
8.693461060523987,3,3,3,3,-9.220000000000001,0.59,-1.9,-7.57,0.37,1.62
8.703461050987244,3,3,3,3,-9.18,0.47,-1.78,-7.51,0.34,1.63
8.7134610414505,3,3,3,3,-9.369999999999999,0.27,-1.79,-6.17,0.9,1.43
8.723461031913757,3,3,3,3,-9.630000000000001,0.25,-1.69,-4.6,1.22,1.48
8.733461022377014,3,3,3,3,-10.27,0.46,-1.18,-3.17,1.76,1.81
8.743461012840271,3,3,3,3,-10.14,0.38,-1.19,-1.76,2.62,2.04
8.753461003303528,3,3,3,3,-9.800000000000001,0.13,-1.36,-0.7,3.34,2
8.763460993766785,3,3,3,3,-9.44,0.16,-1.45,1.08,3.83,2.01
8.773460984230042,3,3,3,3,-9.33,0,-1.95,2.99,3.68,2.29
8.783460974693298,3,3,3,3,-9.67,0.3,-1.81,4.01,3.59,2.55
8.793460965156555,3,3,3,3,-9.68,0.98,-0.83,4.77,3.3,2.39
8.803460955619812,3,3,3,3,-9.289999999999999,1.1,-0.83,4.68,2.97,2.53
8.813460946083069,3,3,3,3,-9.18,0.88,-1.37,4.3,3.46,2.8
8.823460936546326,3,3,3,3,-9.42,0.71,-1.3,4.29,3.67,2.98
8.833460927009583,3,3,3,3,-9.710000000000001,0.49,-1.63,3.47,2.52,3.08
8.843460917472839,3,3,3,3,-9.93,0.73,-1.18,3.07,1.46,2.62
8.853460907936096,3,3,3,3,-9.83,0.8100000000000001,-0.89,2.04,1.35,1.99
8.863460898399353,3,3,3,3,-9.640000000000001,0.53,-1.24,1.25,1.32,1.76
8.87346088886261,3,3,3,3,-9.640000000000001,0.36,-1.05,0.57,1.56,1.62
8.883460879325867,3,3,3,3,-9.56,0.28,-1.01,-0.12,1.08,1.68
8.893460869789124,3,3,3,3,-9.869999999999999,-0.06,-1.37,-0.62,0.53,1.65
8.90346086025238,3,3,3,3,-10.07,0.08,-1.04,-0.82,0.5,1.27
8.913461089134216,3,3,3,3,-9.85,0.05,-1.19,-1.03,0.36,0.93
8.923461079597473,3,3,3,3,-9.68,-0.09,-1.52,-0.76,0.68,0.92
8.93346107006073,3,3,3,3,-9.859999999999999,0.08,-1.89,0,0.84,0.9
8.943461060523987,3,3,3,3,-9.800000000000001,0.5600000000000001,-1.5,1.01,0.28,0.79
8.953461050987244,3,3,3,3,-9.59,0.9399999999999999,-1.54,1.62,0.14,0.66
8.9634610414505,3,3,3,3,-9.789999999999999,1.48,-1.57,2.21,0.75,0.46
8.973461031913757,3,3,3,3,-9.619999999999999,1.66,-1.56,2.51,1.11,0.36
8.983461022377014,3,3,3,3,-9.380000000000001,1.69,-1.95,2.25,0.89,0.64
8.993461012840271,3,3,3,3,-9.460000000000001,1.76,-1.93,2.35,1.16,0.83
9.003461003303528,3,3,3,3,-9.369999999999999,1.83,-1.72,2.51,0.99,0.77
9.013460993766785,3,3,3,3,-9.289999999999999,1.88,-1.54,2.44,0.95,0.54
9.023460984230042,3,3,3,3,-9.210000000000001,1.76,-1.78,2.12,1.3,0.44
9.033460974693298,3,3,3,3,-9.25,1.59,-1.8,1.93,1.34,0.66
9.043460965156555,3,3,3,3,-9.49,1.6,-1.61,1.72,1.41,0.88
9.053460955619812,3,3,3,3,-9.57,1.53,-1.78,1.4,1.29,1.2
9.063460946083069,3,3,3,3,-9.789999999999999,1.44,-1.85,1.45,1.6,1.41
9.073460936546326,3,3,3,3,-9.91,1.42,-1.73,1.25,1.73,1.43
9.083460927009583,3,3,3,3,-9.56,1.31,-1.68,0.82,1.47,1.61
9.093460917472839,3,3,3,3,-9.51,1.22,-1.99,0.37,1.37,1.84
9.103460907936096,3,3,3,3,-9.619999999999999,1.43,-1.73,-0.11,1.64,1.35
9.113460898399353,3,3,3,3,-9.640000000000001,1.53,-1.6,-0.72,1.58,1.3
9.12346088886261,3,3,3,3,-9.59,1.43,-1.74,-1.26,2.01,1.35
9.133460879325867,3,3,3,3,-9.800000000000001,1.33,-1.79,-1.26,2.01,1.35
9.143460869789124,3,3,3,3,-9.779999999999999,1.39,-1.76,-1.84,2.16,1.5
9.15346086025238,3,3,3,3,-9.470000000000001,1.39,-1.78,-2.48,1.99,1.78
9.163461089134216,3,3,3,3,-9.25,1.14,-2.51,-2.51,1.91,2.18
9.173461079597473,3,3,3,3,-9.66,0.8100000000000001,-3.2,-0.18,1.21,1.62
9.18346107006073,3,3,3,3,-10.08,1.2,-2.37,-0.18,1.21,1.62
9.193461060523987,3,3,3,3,-10.03,1.5,-1.42,1.38,0.93,0.28
9.203461050987244,3,3,3,3,-9.43,1.19,-2.4,1.05,2.2,-1.22
9.2134610414505,3,3,3,3,-9.359999999999999,0.89,-2.4,1.5,1.97,-1.19
9.223461031913757,3,3,3,3,-9.07,0.9,-1.67,0.92,1.32,-0.85
9.233461022377014,3,3,3,3,-8.720000000000001,0.8,-1.8,0.92,1.32,-0.85
9.243461012840271,3,3,3,3,-9.51,0.28,-2.04,1.54,1.47,-0.57
9.253461003303528,3,3,3,3,-9.74,0.7,-1.38,1.56,0.96,-1.19
9.263460993766785,3,3,3,3,-9.51,1.12,-1.77,1.52,1.43,-0.88
9.273460984230042,3,3,3,3,-9.630000000000001,1.29,-2.3,1.63,1.51,-0.77
9.283460974693298,3,3,3,3,-9.81,1.36,-1.87,1.63,1.51,-0.77
9.293460965156555,3,3,3,3,-9.25,1.51,-1.85,1.4,0.86,-0.74
9.303460955619812,3,3,3,3,-8.949999999999999,1.47,-2.06,0.58,1.59,0.42
9.313460946083069,3,3,3,3,-9.19,1.25,-2.26,-0.06,1.6,0.9399999999999999
9.323460936546326,3,3,3,3,-9.550000000000001,0.91,-2.78,0.28,1.31,1.12
9.333460927009583,3,3,3,3,-9.84,0.8,-2.45,0.28,1.31,1.12
9.343460917472839,3,3,3,3,-9.859999999999999,0.96,-1.62,1.02,1.35,0.52
9.353460907936096,3,3,3,3,-9.449999999999999,1.13,-2.18,0.16,1.91,-0.02
9.363460898399353,3,3,3,3,-9.5,1.07,-2.24,-0.48,1.7,0.42
9.37346088886261,3,3,3,3,-9.44,1.11,-2.19,-1.16,1.28,0.82
9.383460879325867,3,3,3,3,-9.359999999999999,0.99,-2.39,-1.16,1.28,0.82
9.393460869789124,3,3,3,3,-9.869999999999999,0.72,-2.49,-0.98,1.41,0.78
9.40346086025238,3,3,3,3,-9.699999999999999,0.98,-1.99,-0.07000000000000001,1.3,-0.18
9.413461089134216,3,3,3,3,-9.289999999999999,1.17,-2.38,0.4,1.57,-0.35
9.423461079597473,3,3,3,3,-9.26,1.29,-2.75,0.88,1.57,-0.26
9.43346107006073,3,3,3,3,-9.199999999999999,1.43,-2.35,0.88,1.57,-0.26
9.443461060523987,3,3,3,3,-9.07,1.33,-2.58,0.33,1.31,-0.03
9.453461050987244,3,3,3,3,-9.23,1.15,-2.73,0.43,1.08,0.6
9.4634610414505,3,3,3,3,-9.380000000000001,0.93,-2.89,0.9399999999999999,1.02,0.41
9.473461031913757,3,3,3,3,-9.6,0.55,-2.5,1.26,1.15,-0.31
9.483461022377014,3,3,3,3,-9.640000000000001,0.4,-2.74,1.26,1.15,-0.31
9.493461012840271,3,3,3,3,-9.6,0.37,-2.54,2.18,1.31,-1.13
9.503461003303528,3,3,3,3,-9.48,0.38,-2.51,2.84,1.11,-1.45
9.513460993766785,3,3,3,3,-9.279999999999999,0.77,-2.49,2.83,1.16,-1.02
9.523460984230042,3,3,3,3,-9.16,0.83,-2.4,2.54,1.05,-0.49
9.533460974693298,3,3,3,3,-9.109999999999999,0.93,-2.41,2.54,1.05,-0.49
9.544460892677307,3,3,3,3,-9.140000000000001,1.29,-2.25,2.37,1.05,-0.11
9.554460883140564,3,3,3,3,-9.51,1.74,-2.99,1.05,0.83,0.42
9.564460873603821,3,3,3,3,-9.68,1.67,-2.78,0.57,0.8100000000000001,0.34
9.574460864067078,3,3,3,3,-9.68,1.2,-2.74,-0.07000000000000001,0.89,0.08
9.584461092948914,3,3,3,3,-9.48,0.8,-2.86,-0.07000000000000001,0.89,0.08
9.59446108341217,3,3,3,3,-9.23,0.58,-3.01,0.43,1.11,-0.17
9.604461073875427,3,3,3,3,-9.19,0.71,-2.66,1.98,0.97,-0.66
9.614461064338684,3,3,3,3,-9.17,0.8100000000000001,-2.41,2.19,1.06,-0.63
9.624461054801941,3,3,3,3,-9.029999999999999,1.04,-2.44,2.24,1.16,-0.26
9.634461045265198,3,3,3,3,-9.1,1.87,-2.33,2.24,1.16,-0.26
9.644461035728455,3,3,3,3,-9.359999999999999,2.09,-2.31,1.86,1.07,0.27
9.654461026191711,3,3,3,3,-9.539999999999999,1.88,-2.55,0.32,0.92,0.85
9.664461016654968,3,3,3,3,-9.69,1.41,-2.85,0.05,0.6899999999999999,0.6899999999999999
9.674461007118225,3,3,3,3,-9.41,0.21,-3.27,0.5600000000000001,0.82,0.4
9.684460997581482,3,3,3,3,-9.27,0.08,-3.01,0.5600000000000001,0.82,0.4
9.694460988044739,3,3,3,3,-9.07,0.13,-3.28,1.34,0.87,0.17
9.704460978507996,3,3,3,3,-9.16,0.82,-3.08,2.81,0.85,0.12
9.714460968971252,3,3,3,3,-9.23,1.26,-3.11,2.51,0.65,0.45
9.724460959434509,3,3,3,3,-9.380000000000001,1.26,-3.39,2.24,0.55,0.74
9.734460949897766,3,3,3,3,-9.58,1.24,-3.2,2.24,0.55,0.74
9.744460940361023,3,3,3,3,-9.51,0.86,-3.43,1.58,0.53,1.03
9.75446093082428,3,3,3,3,-9.34,0.55,-3.67,0.85,0.59,1.29
9.764460921287537,3,3,3,3,-9.34,0.13,-4.05,1,0.71,1.03
9.774460911750793,3,3,3,3,-9.369999999999999,0.04,-3.74,1.33,0.93,0.73
9.78446090221405,3,3,3,3,-9.27,0.17,-3.83,1.33,0.93,0.73
9.794460892677307,3,3,3,3,-9.33,0.21,-3.61,1.31,0.98,0.54
9.804460883140564,3,3,3,3,-9.41,0.6,-2.98,1.49,0.87,-0.02
9.814460873603821,3,3,3,3,-9.449999999999999,0.9399999999999999,-3.2,1.41,0.66,-0.16
9.824460864067078,3,3,3,3,-9.35,1.18,-2.64,0.6899999999999999,0.63,0.09
9.834461092948914,3,3,3,3,-9.41,0.9399999999999999,-2.85,0.6899999999999999,0.63,0.09
9.84446108341217,3,3,3,3,-9.4,0.74,-2.78,0.21,0.19,0.47
9.854461073875427,3,3,3,3,-9.369999999999999,0.68,-2.53,-0.9,0.08,0.68
9.864461064338684,3,3,3,3,-9.34,0.22,-3,-1.25,0.1,0.33
9.874461054801941,3,3,3,3,-9.52,0.36,-2.63,-1.57,0.31,-0.28
9.884461045265198,3,3,3,3,-9.6,0.59,-2.43,-1.57,0.31,-0.28
9.894461035728455,3,3,3,3,-9.48,0.6,-2.74,-2.18,0.32,-0.6
9.904461026191711,3,3,3,3,-9.140000000000001,1.05,-2.18,-2.87,0.22,-0.52
9.914461016654968,3,3,3,3,-8.880000000000001,1.3,-2.72,-3.28,0.23,-0.15
9.924461007118225,3,3,3,3,-8.83,1.52,-3.06,-3.1,0.45,0.19
9.934460997581482,3,3,3,3,-9.039999999999999,1.78,-2.94,-3.1,0.45,0.19
9.944460988044739,3,3,3,3,-9.49,1.92,-3.08,-3.25,0.54,0.7
9.954460978507996,3,3,3,3,-9.390000000000001,1.56,-3.01,-3.77,0.75,1.74
9.964460968971252,3,3,3,3,-9.24,0.99,-3.01,-3.86,0.84,2.17
9.974460959434509,3,3,3,3,-9.380000000000001,-0.84,-2.97,-3.71,0.98,2.3
9.984460949897766,3,3,3,3,-9.380000000000001,-0.84,-2.97,-3.71,0.98,2.3
9.994460940361023,3,3,3,3,-9.710000000000001,-0.42,-2.53,-2.5,0.93,2.03
10.00446093082428,3,3,3,3,-9.91,0.5600000000000001,-2.99,-1.22,0.77,0.79
10.01446092128754,3,3,3,3,-9.640000000000001,1.03,-3,-1.06,0.83,0.06
10.02446091175079,3,3,3,3,-9.34,0.76,-3.28,-1.57,0.25,-0.28
10.03446090221405,3,3,3,3,-9.34,0.76,-3.28,-1.57,0.25,-0.28
10.04446089267731,3,3,3,3,-9.380000000000001,0.63,-2.77,-0.83,-0.19,-0.61
10.05446088314056,3,3,3,3,-8.74,0.19,-2.72,-0.11,-0.8100000000000001,-0.58
10.06446087360382,3,3,3,3,-8.92,0.8,-2.51,0.1,-0.95,-0.1
10.07446086406708,3,3,3,3,-9.029999999999999,1.07,-2.15,-0.26,-0.98,0.2
10.08446109294891,3,3,3,2,-9.029999999999999,1.07,-2.15,-0.26,-0.98,0.2
10.09446108341217,3,3,3,2,-9.02,-0.66,-1.16,-2.51,-1.18,0.29
10.10446107387543,3,3,3,2,-8.779999999999999,-1.77,-0.93,-3.92,-1.59,0.5
10.11446106433868,3,3,3,2,-8.9,-0.78,-1.79,-4.05,-1.94,0.51
10.12446105480194,3,3,3,2,-9.779999999999999,2.44,-3.25,-3.51,-1.44,0.13
10.1344610452652,3,3,3,2,-9.779999999999999,2.44,-3.25,-3.55,-1.02,0
10.14446103572845,3,3,3,2,-9.76,3.07,-3.48,-3.45,-0.41,0.6
10.15446102619171,3,3,3,2,-9.02,2.58,-4.14,-4.7,0.21,1.96
10.16446101665497,3,3,3,2,-8.4,1.96,-3.87,-4.59,0.04,3.21
10.17446100711823,3,3,3,2,-8.92,1.42,-3.8,-4.71,0.49,4.09
10.18446099758148,3,3,3,2,-8.92,1.42,-3.8,-4.39,0.52,4.7
10.19446098804474,3,3,3,2,-9.24,1.07,-3.5,-3.94,0.42,5.01
10.204460978508,3,3,3,2,-9.630000000000001,0.16,-2.85,-3.8,0.54,5.11
10.21446096897125,3,3,3,2,-9.289999999999999,0.1,-2.72,-3.64,0.76,5.33
10.22446095943451,3,3,3,2,-9.06,0.1,-2.44,-3.44,0.73,5.69
10.23446094989777,3,3,3,2,-9.06,0.1,-2.44,-3.55,0.88,5.93
10.24446094036102,3,3,3,2,-9.1,0.08,-2.23,-3.75,0.73,6.28
10.25446093082428,3,3,3,2,-9.33,0.08,-2.45,-4.15,0.82,6.45
10.26446092128754,3,3,3,2,-9.49,0.12,-2.08,-4.64,0.95,6.79
10.27446091175079,3,3,3,2,-9.57,0.1,-2.08,-5.57,0.92,7.41
10.28446090221405,3,3,3,2,-9.57,0.1,-2.08,-7.02,0.14,7.96
10.29446089267731,3,3,3,2,-10.26,0.18,-2.04,-10.24,-3.46,8.42
10.30446088314056,3,3,3,2,-10.32,-0.6899999999999999,-2.02,-7.4,-0.14,8.77
10.31446087360382,3,3,3,2,-10.61,-1.32,-2.11,-8.43,-0.71,8.630000000000001
10.32446086406708,3,3,3,2,-10.95,-1.73,-1.51,-7.79,-0.27,8.81
10.33446109294891,3,3,3,2,-10.95,-1.73,-1.51,-6.91,0.36,9.19
10.34446108341217,3,3,3,2,-11.36,-1.92,-1.32,-7.49,-1.44,9.539999999999999
10.35446107387543,3,3,3,2,-10.99,-1.96,-1.53,-6.94,-2.75,9.56
10.36446106433868,3,3,3,2,-11.4,-1.68,-1.39,-6.54,-3.16,8.91
10.37446105480194,3,3,3,2,-11.85,-1.43,-1.5,-6.12,-3.98,8.24
10.3844610452652,3,3,3,2,-11.85,-1.43,-1.5,-5.18,-4.38,7.41
10.39446103572845,3,3,3,2,-12.47,-1.34,-1.4,-4.08,-4.24,6.26
10.40446102619171,3,3,3,2,-13.27,-0.54,-0.93,-3.85,-5.06,4.85
10.41446101665497,3,3,3,2,-12.6,-0.54,-1,-2.9,-5.77,3.05
10.42446100711823,3,3,3,2,-12.6,-0.6,-1.04,-2.16,-6.1,1.04
10.43446099758148,3,3,3,2,-12.41,-2.15,-1.29,-1.94,-6.7,-0.75
10.44446098804474,3,3,3,2,-12.39,-3.62,-1.45,-2.29,-7.42,-1.88
10.454460978508,3,3,3,2,-12.35,-4.68,-1.52,-2.58,-7.44,-2.76
10.46446096897125,3,3,3,2,-12.88,-3.78,-0.51,-1.51,-6.81,-3.38
10.47446095943451,3,3,3,2,-11.94,-1.34,0.74,-1.69,-8.140000000000001,-2.79
10.48446094989777,3,3,3,2,-12.45,-2.58,0.17,-2.79,-8.18,-1.61
10.49446094036102,3,3,3,2,-12.61,-2.4,-0.08,-4.15,-7.44,-2.44
10.50446093082428,3,3,3,2,-12,-2.74,-0.85,-6.51,-5.81,-4.48
10.51446092128754,3,3,3,2,-10.88,-3.69,-2.63,-6,-4.49,-4.71
10.52446091175079,3,3,3,2,-10.69,-2.85,-2.33,-4.15,-3.37,-5.9
10.53446090221405,3,3,3,2,-10.56,-0.49,-1.29,-1.91,-3.86,-7.49
10.54446089267731,3,3,3,2,-10.07,1.64,-0.86,0.21,-5.91,-8.550000000000001
10.55446088314056,3,3,3,2,-10.12,5.7,-0.11,2.53,-6.21,-9.16
10.56546103954315,3,3,3,2,-10.43,6.13,0.41,0.95,-5.73,-10.21
10.57546103000641,3,3,3,2,-10.75,4.92,-0.34,-4.45,-4.05,-11.44
10.58546102046967,3,3,3,2,-11.46,4.65,-2.18,-7.9,-1.2,-12.05
10.59546101093292,3,3,3,2,-11.05,6.36,-4.15,-7.84,0.36,-11.53
10.60546100139618,3,3,3,2,-10.26,5.21,-3.76,-7.18,0.54,-11.02
10.61546099185944,3,3,3,2,-9.609999999999999,3.45,-3.82,-7.15,0.28,-11.99
10.62546098232269,3,3,3,2,-9.710000000000001,2.04,-3.82,-6.15,0.5600000000000001,-13.77
10.63546097278595,3,3,3,2,-10.23,1.46,-3.45,-3.71,0.19,-15.21
10.64546096324921,3,3,3,2,-10.1,1.77,-3.34,-0.65,-0.75,-15.9
10.65546095371246,3,3,3,2,-10,2.32,-3.37,2.54,-1.86,-16.39
10.66546094417572,3,3,3,2,-9.27,2.93,-3.05,4.77,-2.24,-16.47
10.67546093463898,3,3,3,2,-9.210000000000001,3.09,-2.75,5.98,-0.63,-16.08
10.68546092510223,3,3,3,2,-9.140000000000001,2.84,-2.7,7.99,0.06,-15.78
10.69546091556549,3,3,3,2,-9.289999999999999,2.66,-2.89,10,0.52,-16.13
10.70546090602875,3,3,3,2,-9.1,2.78,-2.95,11.78,-0.08,-17.27
10.715460896492,3,3,3,2,-9.08,3.6,-2.54,13.72,-0.8,-18.28
10.72546088695526,3,3,3,2,-8.949999999999999,4.32,-2.33,15.25,-1.89,-18.89
10.73546087741852,3,3,3,2,-9.029999999999999,4.83,-2.35,14.98,-2.29,-19.11
10.74546086788177,3,3,3,2,-9.17,4.96,-2.37,14,-2.54,-19.01
10.75546085834503,3,3,3,2,-9.44,4.11,-2.55,13.86,-2.21,-18.43
10.76546108722687,3,3,3,2,-9.470000000000001,3.73,-2.63,14.63,-1.33,-17.8
10.77546107769012,3,3,3,2,-9.210000000000001,3.52,-2.7,15.35,-0.92,-17.63
10.78546106815338,3,3,3,2,-8.4,4.09,-2.02,15.92,-1.46,-17.82
10.79546105861664,3,3,3,2,-8.01,4.5,-1.66,16.89,-1.86,-18.09
10.8054610490799,3,3,3,2,-7.63,4.88,-1.5,17.08,-1.55,-18.07
10.81546103954315,3,3,3,2,-7.41,5.2,-1.37,15.43,-0.53,-17.88
10.82546103000641,3,3,3,2,-6.87,4.78,-1.18,12.69,0.41,-17.32
10.83546102046967,3,3,3,2,-6.58,4.13,-1.22,10.1,1.83,-16.43
10.84546101093292,3,3,3,2,-6.28,3.37,-1.27,8.4,3.33,-15.4
10.85546100139618,3,3,3,2,-6.14,2.63,-1.39,7.85,5.22,-14.1
10.86546099185944,3,3,3,2,-6.13,1.68,-1.42,8.220000000000001,7.18,-12.46
10.87546098232269,3,3,3,2,-6.26,1.28,-1.38,8.32,8.65,-10.75
10.88546097278595,3,3,3,2,-6.43,0.87,-1.41,7.82,9.470000000000001,-9.18
10.89546096324921,3,3,3,2,-6.7,0.41,-1.53,6.82,9.83,-7.48
10.90546095371246,3,3,3,2,-7.61,-0.47,-1.54,5.75,10.06,-5.67
10.91546094417572,3,3,3,2,-8.08,-1.26,-1.05,4.9,9.83,-3.93
10.92546093463898,3,3,3,2,-8.49,-2.22,-0.27,4.74,8.9,-2.55
10.93546092510223,3,3,3,2,-8.99,-3.52,0.35,5.51,7.63,-1.64
10.94546091556549,3,3,3,2,-10,-5.92,2.61,9.279999999999999,5.31,-0.39
10.95546090602875,3,3,3,2,-11.03,-7.03,4.08,15.57,2.34,0.38
10.965460896492,3,3,3,2,-12.43,-7.84,5.1,20.37,-0.28,-1.73
10.97546088695526,3,3,3,2,-12.62,-8.73,5.51,22.56,-3.18,-4.73
10.98546087741852,3,3,3,2,-13.51,-11.59,2.85,20.9,-7.38,-7.96
10.99546086788177,3,3,3,2,-12.83,-12.19,1.05,18.69,-14.11,-10.37
11.00546085834503,3,3,3,2,-11.19,-11.31,0.49,16.75,-19.11,-10.32
11.01546108722687,3,3,3,2,-10.46,-8.98,1.17,12.75,-16.15,-10.35
11.02546107769012,3,3,3,2,-9.19,-2.66,1.85,8.69,-9.92,-11.03
11.03546106815338,3,3,3,2,-8.06,-0.29,1.59,7.65,-6.35,-10.48
11.04546105861664,3,3,3,2,-7.33,1.28,0.45,7.67,-3.42,-10.09
11.0554610490799,3,3,3,2,-7.94,0.36,-2.22,6.31,0.62,-11.65
11.06546103954315,3,3,3,2,-9.15,3.82,-4.07,3.45,4.15,-13.87
11.07546103000641,3,3,3,2,-10.09,5.88,1.17,-8.390000000000001,-8.17,-3.85
11.08546102046967,3,3,3,2,-6.44,4.87,8.67,-17.29,-31.26,9.140000000000001
11.09546101093292,3,3,3,2,-5.88,-3.55,4.97,-18.05,-27.18,14.23
11.10546100139618,3,3,3,2,-18.49,-18.6,2.61,-4.95,-2.87,11.77
11.11546099185944,3,3,3,2,-23.33,-15.13,4.09,2.75,4.75,8.81
11.12546098232269,3,3,3,2,-17.64,-5.01,1.59,6.78,3.27,8.710000000000001
11.13546097278595,3,3,3,2,-5.68,9.800000000000001,-4.72,10.55,1.39,6.33
11.14546096324921,3,3,3,2,-5.34,12.34,-4.97,9.98,2.92,2.45
11.15546095371246,3,3,3,2,-7.63,10.24,-6.21,6.65,11.39,2.22
11.16546094417572,3,3,3,2,-9.58,5.32,-5.7,5.86,13.21,5.17
11.17546093463898,3,3,3,2,-10.76,-2.71,-5.27,3.33,12.34,8.800000000000001
11.18546092510223,3,3,3,2,-10.05,-2.92,-3.74,6.43,10.2,11.68
11.19546091556549,3,3,3,2,-9.720000000000001,-2.2,-2.72,8.73,7.3,13.86
11.20546090602875,3,3,3,2,-9.75,0.22,-2.98,9.59,5.92,15.8
11.215460896492,3,3,3,2,-10.67,5.76,-1.58,10.53,7.38,15.49
11.22546088695526,3,3,3,2,-10.75,5.65,-1.09,8.02,8.48,12.78
11.23546087741852,3,3,3,2,-10.62,4.56,-0.42,5.81,8.76,9.91
11.24546086788177,3,3,3,2,-10.79,3.83,0.17,3.96,9.49,9.119999999999999
11.25546085834503,3,3,3,2,-10.88,2.67,0.49,1.3,9.51,10.67
11.26546108722687,3,3,3,2,-10.7,2.67,-0.11,-1.79,9.300000000000001,12.14
11.27546107769012,3,3,3,2,-10.02,2.88,-0.84,-4.2,9.25,11.92
11.28546106815338,3,3,3,1,-9.68,1.78,-1.37,-6.75,9.289999999999999,10.9
11.29546105861664,3,3,3,1,-9.789999999999999,-0.48,-2.69,-7.47,10.36,10.06
11.3054610490799,3,3,3,1,-9.609999999999999,-1.07,-2.5,-6.67,10.48,10.38
11.31546103954315,3,3,3,1,-9.130000000000001,-1.88,-2.77,-6.67,10.13,10.59
11.32546103000641,3,3,3,1,-9.09,-2.34,-3.15,-4.86,10.65,10.79
11.33546102046967,3,3,3,1,-9.119999999999999,-0.59,-2.32,-2.6,11.21,10.76
11.34546101093292,3,3,3,1,-8.960000000000001,-0.5,-2.63,-3.22,10.8,11.11
11.35546100139618,3,3,3,1,-9.050000000000001,-0.73,-2.67,-3.18,10.7,11.22
11.36546099185944,3,3,3,1,-9.51,-0.83,-1.98,-2.81,11.06,10.81
11.37546098232269,3,3,3,1,-9.15,-1.6,-2.07,-4.66,10.32,10.93
11.38546097278595,3,3,3,1,-8.98,-1.77,-2.12,-6.83,9.949999999999999,11.68
11.39546096324921,3,3,3,1,-9.039999999999999,-2.05,-1.92,-8.460000000000001,10.39,12.28
11.40546095371246,3,3,3,1,-9.220000000000001,-2.77,-2.46,-10.24,10.72,12.59
11.41546094417572,3,3,3,1,-9.85,-3.02,-2.24,-10.74,10.75,12.38
11.42546093463898,3,3,3,1,-9.92,-3.2,-1.95,-11.43,10.32,11.75
11.43546092510223,3,3,3,1,-9.779999999999999,-3.56,-1.78,-12.04,10.06,11.3
11.44546091556549,3,3,3,1,-9.66,-3.85,-1.74,-11.85,9.699999999999999,11.3
11.45546090602875,3,3,3,1,-9.619999999999999,-3.26,-2.3,-11.23,8.23,11.28
11.465460896492,3,3,3,1,-9.76,-2.06,-1.88,-9.16,5.83,10.53
11.47546088695526,3,3,3,1,-9.880000000000001,-0.82,-1.5,-8.19,4.59,8.859999999999999
11.48546087741852,3,3,3,1,-9.880000000000001,0.72,-2.17,-8.77,4.67,7.16
11.49546086788177,3,3,3,1,-9.41,1.14,-2.53,-9.699999999999999,4.1,6.42
11.50546085834503,3,3,3,1,-8.99,1.18,-2.61,-11,2.94,6.87
11.51546108722687,3,3,3,1,-8.85,0.8100000000000001,-2.4,-11.75,2.34,7.99
11.52546107769012,3,3,3,1,-9.06,0.02,-2.61,-12.07,2.53,8.99
11.53546106815338,3,3,3,0,-8.98,0.06,-2.56,-11.84,3.19,9.609999999999999
11.54546105861664,3,3,3,0,-8.800000000000001,0.28,-2.64,-11.59,3.99,10.27
11.5554610490799,3,3,3,0,-8.58,0.67,-3.03,-11.09,5.03,11.08
11.56546103954315,3,3,3,0,-8.83,2.59,-3.7,-9.66,6.03,11.51
11.57546103000641,3,3,3,0,-9.380000000000001,3.04,-3.99,-9.73,5.77,10.57
11.58546102046967,3,3,3,0,-9.619999999999999,3.27,-3.14,-8.699999999999999,4.53,9.07
11.59646093845367,3,3,3,0,-9.789999999999999,2.64,-3.01,-8.4,4.26,8.029999999999999
11.60646092891693,3,3,3,0,-9.890000000000001,1.76,-2.01,-7.75,4.19,7.92
11.61646091938019,3,3,3,0,-9.57,1.34,-1.87,-8,3.5,8.35
11.62646090984344,3,3,3,0,-9.48,0.88,-1.86,-8.98,3.29,8.960000000000001
11.6364609003067,3,3,3,0,-9.43,0.32,-1.95,-9.81,3.04,9.32
11.64646089076996,3,3,3,0,-9.23,-0.42,-2.14,-10.33,2.97,9.17
11.65646088123322,3,3,3,0,-9.18,-0.7,-2.38,-10.74,3.09,8.9
11.66646087169647,3,3,3,0,-9.19,-0.74,-2.58,-10.63,3.05,8.98
11.67646086215973,3,3,3,0,-9.19,-0.58,-2.5,-9.99,2.8,9.27
11.68646109104156,3,3,3,0,-9.34,-0.42,-2.6,-9.26,2.52,9.640000000000001
11.69646108150482,3,3,3,0,-9.550000000000001,-0.16,-2.81,-8.4,2.35,9.640000000000001
11.70646107196808,3,3,3,0,-9.970000000000001,-0.08,-2.97,-7.92,2.15,9.24
11.71646106243134,3,3,3,0,-10.53,-0.01,-3.05,-7.27,1.74,8.619999999999999
11.72646105289459,3,3,3,0,-11.41,0.52,-2.99,-6.65,1.18,7.75
11.73646104335785,3,3,3,0,-11.55,1.15,-2.79,-6.53,-0.29,6.83
11.74646103382111,3,3,3,0,-11.29,1.12,-2.75,-8.06,-1.12,6.07
11.75646102428436,3,3,3,0,-11.19,0.53,-2.92,-9.699999999999999,-1.09,5.96
11.76646101474762,3,3,3,0,-12.6,-1.16,-2.13,-10.28,-0.55,5.88
11.77646100521088,3,3,3,0,-13.55,-2.11,-1.49,-10.16,-0.6,5.18
11.78646099567413,3,3,3,0,-14.31,-2.85,-1.01,-9.699999999999999,-1.68,4.13
11.79646098613739,3,3,3,0,-13.95,-4.33,-0.58,-9.74,-3.71,2.71
11.80646097660065,3,3,3,0,-15.02,-6.15,0.1,-9.029999999999999,-3.59,1
11.8164609670639,3,3,3,0,-14.98,-7.17,0.51,-8.07,-5.78,-0.83
11.82646095752716,3,3,3,0,-15.17,-8.210000000000001,0.67,-6.92,-7.86,-3.04
11.83646094799042,3,3,3,0,-14.36,-7.98,1.75,-3.91,-10.59,-5.2
11.84646093845367,3,3,3,0,-13.67,-6.14,2.92,0.43,-13.62,-7.19
11.85646092891693,3,3,3,0,-13.17,-5.78,2.67,0.5600000000000001,-14.33,-9.279999999999999
11.86646091938019,3,3,3,0,-12.92,-5.81,3.77,-4.68,-12.6,-11.21
11.87646090984344,3,3,3,0,-11.9,-6.86,-3.24,-12.45,-9.83,-13.03
11.8864609003067,3,3,3,0,-12.34,-4.74,-4.86,-9.56,-7.14,-13.66
11.89646089076996,3,3,3,0,-13.25,-1.87,-4.11,-4.2,-7.33,-15.02
11.90646088123322,3,3,3,0,-13.01,1.87,-2.92,0.35,-8.619999999999999,-15.92
11.91646087169647,3,3,3,0,-13.77,5.45,-1.02,1.15,-7.29,-15.73
11.92646086215973,3,3,3,0,-14.51,5.54,-2.14,-0.9399999999999999,-5.25,-15.04
11.93646109104156,3,3,3,0,-15.41,5.44,-3.11,-1.53,-3.27,-14.72
11.94646108150482,3,3,3,0,-15.86,6.28,-2.79,-0.93,-4.03,-14.15
11.95646107196808,3,3,3,0,-13.67,6.01,-2.85,-2.63,-4.59,-13.89
11.96646106243134,3,3,3,0,-12.78,5.99,-2.93,-2.59,-4.58,-15.17
11.97646105289459,3,3,3,0,-12.67,6.27,-2.4,-0.92,-6.43,-16.65
11.98646104335785,3,3,3,0,-10.67,6.61,-2.6,-2.83,-2.71,-17.86
11.99646103382111,3,3,3,0,-11.48,5.68,-3.76,-1.54,-2.98,-19.55
12.00646102428436,3,3,3,0,-11.36,5.22,-4.05,-1.48,-4.78,-20.97
12.01646101474762,3,3,3,0,-10.85,5.15,-4.17,0.49,-4.67,-22.09
12.02646100521088,3,3,3,0,-9.73,5.29,-4.2,2.15,-3.14,-23.02
12.03646099567413,3,3,3,0,-8.369999999999999,5.44,-3.79,5.06,-3.86,-23.09
12.04646098613739,3,3,3,0,-8.6,5.49,-4.16,5.48,-2.49,-23.02
12.05646097660065,3,3,3,0,-8.4,5.56,-4.25,6.55,-2.9,-23.43
12.0664609670639,3,3,3,0,-7.78,5.48,-4.02,6.9,-2.42,-23.63
12.07646095752716,3,3,3,0,-8.51,5.39,-3.92,7.7,-1.25,-23.28
12.08646094799042,3,3,3,0,-8.359999999999999,5.64,-3.89,9.91,-2.82,-22.88
12.09646093845367,3,3,3,0,-7.91,5.76,-3.76,11.75,-3.9,-22.41
12.10646092891693,3,3,3,0,-7.56,5.88,-3.65,13.41,-3.99,-22.08
12.11646091938019,3,3,3,0,-6.29,6.11,-3.29,14.42,-4.41,-22.09
12.12646090984344,3,3,3,0,-5.94,6.09,-3.09,14.97,-4.26,-22.13
12.1364609003067,3,3,3,0,-5.84,6.14,-3,15.31,-3.96,-21.61
12.14646089076996,3,3,3,0,-5.68,6.23,-2.92,16.17,-3.34,-20.21
12.15646088123322,3,3,3,0,-5.13,6.56,-2.91,17.3,-2.08,-18.51
12.16646087169647,3,3,3,0,-4.8,6.47,-2.69,17.33,-0.73,-16.7
12.17646086215973,3,3,3,0,-4.39,6.62,-2.5,16.48,0.5600000000000001,-14.7
12.18646109104156,3,3,3,0,-3.59,6.92,-2.27,15.09,2.21,-12.49
12.19646108150482,3,3,3,0,-3.19,7.02,-2.41,13.95,4.08,-10.53
12.20646107196808,3,3,3,0,-2.84,6.84,-2.58,12.07,6.25,-9.300000000000001
12.21646106243134,3,3,3,0,-2.65,6.27,-2.64,8.609999999999999,8.6,-8.210000000000001
12.22646105289459,3,3,3,0,-3.13,4.13,-3.66,3.41,11.16,-6.48
12.23646104335785,3,3,3,0,-3.96,2.2,-4.38,-1.09,13.85,-4.33
12.24646103382111,3,3,3,0,-5.49,0.36,-3.95,-0.39,15.53,-3.01
12.25646102428436,3,3,3,0,-7.64,-1.55,-2.2,3.61,14.79,-3.11
12.26646101474762,3,3,3,0,-12.58,-7.08,2.56,6.56,11.09,-3.3
12.27646100521088,3,3,3,0,-14.18,-9.640000000000001,5.07,9.34,7.22,-2.95
12.28646099567413,3,3,3,0,-15.75,-12.37,7.37,13.53,8.130000000000001,-4.13
12.29646098613739,3,3,3,0,-16.55,-15.39,8.81,17.04,8.609999999999999,-7.13
12.30646097660065,3,3,3,0,-17.84,-21.51,4.59,14.13,-3.69,-7.77
12.3164609670639,3,3,3,0,-15.55,-22.8,3.96,5.13,-25.47,-8.31
12.36646091938019,3,3,3,0,-5.76,-0.9,-3.4,15.38,8.67,-12.47
12.37646090984344,3,3,3,0,-7.27,-3.24,-6.9,19.76,13.23,-9.91
12.3864609003067,3,3,3,1,-12.47,-3.57,-0.7,16.39,0.17,-0.67
12.39646089076996,3,3,3,1,-12.12,-5.52,8.51,10.72,-33.03,12.66
12.40646088123322,3,3,3,1,-8.529999999999999,-15.41,1.33,-0.13,-35.54,15.26
12.41646087169647,3,3,3,1,-10.42,-17.04,4.63,13.36,-8.56,12.42
12.42646086215973,3,3,3,1,-16.04,-3.18,-0.36,10.58,3.16,11.24
12.43646109104156,3,3,3,1,-10.66,6.35,-2.45,17.19,-0.15,10.68
12.44646108150482,3,3,3,1,-8.119999999999999,11.58,-4.06,18.36,7.21,5.49
12.45646107196808,3,3,3,1,-7.28,15.75,-5.67,17.17,16.41,1.86
12.46646106243134,3,3,3,1,-6.23,13.74,-8.970000000000001,12.53,14.45,3.36
12.47646105289459,3,3,3,1,-6.38,9.029999999999999,-8.43,8.470000000000001,12.89,7.06
12.48646104335785,3,3,3,1,-8.890000000000001,5.37,-4.84,7.92,16.61,11.38
12.49646103382111,3,3,3,1,-11.43,3.87,-2.25,3.31,12.7,15.07
12.50646102428436,3,3,3,1,-10.17,1.51,-5.39,-0.8,3.54,17.43
12.51646101474762,3,3,3,1,-10.81,2.89,-4.23,3.1,6.46,17.18
12.52646100521088,3,3,3,1,-12.85,4.46,-2.98,4.45,11.12,13.01
12.53646099567413,3,3,3,1,-11.42,3.04,-1.68,3.37,9.27,8.93
12.54646098613739,3,3,3,1,-11.12,1.45,-1.47,1.29,9.75,8.68
12.55646097660065,3,3,3,1,-11.52,1.29,-1.69,0.01,11.16,11.11
12.5664609670639,3,3,3,1,-11.57,1.72,-1.99,-0.5,10.05,13.99
12.57646095752716,3,3,3,1,-10.57,3.75,-3.05,-0.54,9.859999999999999,14.41
12.58646094799042,3,3,3,1,-9.19,3.56,-4.04,-1.63,9.75,13.54
12.59646093845367,3,3,3,1,-8.98,2.35,-5.03,-2.81,9.369999999999999,13.16
12.60646092891693,3,3,3,1,-9.15,1.09,-5.29,-2.38,10.7,12.05
12.61746108531952,3,3,3,1,-9.9,-1.2,-4.39,-1.86,11.41,11.6
12.62746107578278,3,3,3,1,-9.9,-1.5,-3.65,-0.61,11.63,11.43
12.63746106624603,3,3,3,1,-9.69,-0.92,-2.7,0.91,12,11.5
12.64746105670929,3,3,3,1,-9.220000000000001,0.07000000000000001,-2.12,0.49,11.43,12.28
12.65746104717255,3,3,3,1,-9.529999999999999,1.46,-1.21,-0.91,11.66,12.79
12.6674610376358,3,3,3,1,-9.890000000000001,1.34,-0.92,-2.75,12.45,12.53
12.67746102809906,3,3,3,1,-9.539999999999999,1.06,-0.87,-5.47,12.68,12.85
12.68746101856232,3,3,3,1,-9.140000000000001,1.07,-0.82,-8.48,12.64,13.94
12.69746100902557,3,3,3,1,-8.82,0.6899999999999999,-1.37,-13.28,12.35,15.22
12.70746099948883,3,3,3,1,-9.09,0,-1.15,-19.56,12.42,16.39
12.71746098995209,3,3,3,1,-9.43,-1.09,-1.89,-26,12.91,17.02
12.72746098041534,3,3,3,1,-9.699999999999999,-2.76,-2.9,-26.88,13.41,17.04
12.7374609708786,3,3,3,1,-10.32,-5.59,-3.36,-21.73,11.9,16.55
12.74746096134186,3,3,3,1,-9.800000000000001,-5.58,-2.22,-16.24,8.220000000000001,15.79
12.75746095180511,3,3,3,1,-9.24,-4.71,-1.79,-12.49,6.8,13.73
12.76746094226837,3,3,3,1,-10.1,-3.1,-1.47,-9.5,7.59,9.539999999999999
12.77746093273163,3,3,3,1,-11.84,-1.99,-2.54,-7.46,7.11,5.06
12.78746092319489,3,3,3,1,-11.01,-1.52,-2.11,-7.31,4.96,3.63
12.79746091365814,3,3,3,1,-9.43,-0.79,-1.73,-9.01,2.15,5.29
12.8074609041214,3,3,3,1,-8.619999999999999,-0.17,-1.5,-9.9,1.42,7.54
12.81746089458466,3,3,3,1,-8.960000000000001,-0.21,-1.73,-10.14,1.79,9.029999999999999
12.82746088504791,3,3,3,1,-9.300000000000001,0.13,-1.95,-9.99,2.35,9.91
12.83746087551117,3,3,3,1,-9.300000000000001,0.95,-1.98,-10.06,2.69,10.41
12.84746086597443,3,3,3,1,-9.06,2.01,-2.08,-10.79,3.38,10.79
12.85746085643768,3,3,3,1,-8.960000000000001,2.98,-3.09,-12.38,4.63,11.25
12.86746108531952,3,3,3,1,-9.24,2.58,-3.63,-13.72,5.73,11.63
12.87746107578278,3,3,3,1,-9.460000000000001,2.08,-4.07,-12.45,5.16,11.58
12.88746106624603,3,3,3,1,-9.27,1.32,-3.33,-11.63,4.15,10.45
12.89746105670929,3,3,3,1,-9.34,0.36,-3.14,-12.02,3.72,8.98
12.90746104717255,3,3,3,1,-9.369999999999999,-0.66,-2.87,-11.44,3.95,8.5
12.9174610376358,3,3,3,1,-9.5,-0.98,-2.65,-10.62,4.08,9.140000000000001
12.92746102809906,3,3,3,1,-10.02,-1.08,-2.12,-10.43,3.41,10.06
12.93746101856232,3,3,3,1,-10.19,-1.52,-2.21,-10.29,2.5,10.34
12.94746100902557,3,3,3,1,-10.34,-2.11,-2.37,-10.11,1.54,9.98
12.95746099948883,3,3,3,1,-10.72,-2.39,-2.55,-9.15,0.72,9.44
12.96746098995209,3,3,3,1,-11.67,-2.05,-2.49,-7.85,0.31,9.08
12.97746098041534,3,3,3,1,-11.83,-1.46,-2.4,-6.58,0.22,8.66
12.9874609708786,3,3,3,1,-12.41,-1.09,-2.97,-6.23,-0.21,7.99
12.99746096134186,3,3,3,1,-12.53,-0.51,-2.46,-7.99,-2.22,6.67
13.00746095180511,3,3,3,1,-13.23,-2.51,-2.12,-10.61,-1.61,5.33
13.01746094226837,3,3,3,1,-14.04,-4.32,-1.54,-10.93,-3.27,4.38
13.02746093273163,3,3,3,1,-13.74,-5.26,0.01,-10.91,-5.68,2.62
13.0574609041214,3,3,3,2,-15.17,-8.02,2.83,-9.84,-8.31,-6.64
13.06746089458466,3,3,3,2,-14.98,-7.37,4.05,-9.98,-9.550000000000001,-9.460000000000001
13.07746088504791,3,3,3,2,-14.7,-6.89,4.52,-11.46,-9.76,-10.59
13.08746087551117,3,3,3,2,-13.69,-5.8,3.96,-13.96,-9.08,-10.26
13.09746086597443,3,3,3,2,-12.6,-6.84,0.76,-18.49,-8.1,-10.98
13.10746085643768,3,3,3,2,-12.24,-7.12,-2.26,-17.39,-6.2,-12.38
13.11746108531952,3,3,3,2,-12.91,-4.54,-2.63,-11.42,-6.41,-14.37
13.12746107578278,3,3,3,2,-14.24,2.63,-2.08,-6.95,-8.66,-16.85
13.13746106624603,3,3,3,2,-14.86,5.28,-1.75,-4.3,-6.73,-18.31
13.14746105670929,3,3,3,2,-15.6,6.52,-1.29,-5.39,-4.2,-17.76
13.15746104717255,3,3,3,2,-16.2,6.19,-1.79,-7.81,-2.65,-16.64
13.1674610376358,3,3,3,2,-17.28,6.24,-1.56,-7.2,-1.85,-15.96
13.17746102809906,3,3,3,2,-16.64,6.64,-0.99,-7.55,-2.64,-15.39
13.18746101856232,3,3,3,2,-15.67,6.49,-1.47,-7.35,-3.78,-16.11
13.19746100902557,3,3,3,2,-13.98,7.04,-1.32,-6.59,-3.37,-18.09
13.20746099948883,3,3,3,2,-12.28,7.46,-2.44,-6.27,-3.37,-20.53
13.21746098995209,3,3,3,2,-11.23,6.63,-2.26,-5.77,-5.17,-21.82
13.22746098041534,3,3,3,2,-11.12,6.39,-3.15,-5.39,-1.81,-22.4
13.2374609708786,3,3,3,2,-11.56,6.58,-3.64,-2.79,-2.82,-23.56
13.24746096134186,3,3,3,2,-10.22,6.08,-3.66,-0.8,-4.67,-24.17
13.25746095180511,3,3,3,2,-9.460000000000001,6.08,-3.8,1.15,-4.98,-24.19
13.26746094226837,3,3,3,2,-7.69,6.8,-3.55,1.93,-2.93,-24.84
13.27746093273163,3,3,3,2,-6.81,6.17,-4.08,2.71,0.43,-24.8
13.28746092319489,3,3,3,2,-7.08,5.6,-4.24,5.3,0.98,-24.5
13.29746091365814,3,3,3,2,-7.31,5.08,-4.6,7.43,-1.1,-23.68
13.3074609041214,3,3,3,2,-6.61,5.56,-4.41,8.94,-3.06,-22.91
13.31746089458466,3,3,3,2,-5.9,5.77,-3.76,9.81,-3.22,-22.72
13.32746088504791,3,3,3,2,-5.5,5.72,-3.41,11.76,-3.6,-22.8
13.33746087551117,3,3,3,2,-5.19,5.57,-3.31,12.87,-3.42,-23.08
13.34746086597443,3,3,3,2,-5,5.62,-3.55,12.49,-2.8,-23.07
13.35746085643768,3,3,3,2,-5,5.69,-3.79,12.07,-2.33,-22.22
13.36746108531952,3,3,3,2,-4.83,5.76,-3.44,13.84,-1.31,-20.66
13.37746107578278,3,3,3,2,-4.44,5.66,-3.33,15.01,0.38,-18.81
13.38746106624603,3,3,3,1,-3.94,5.37,-3.02,14.84,2.06,-17.03
13.39746105670929,3,3,3,1,-2.98,4.95,-2.61,14.32,3.85,-14.99
13.40746104717255,3,3,3,1,-2.71,4.82,-2.54,13.88,5.73,-13.42
13.4174610376358,3,3,3,1,-2.5,4.81,-2.48,12.72,7.48,-12.39
13.42746102809906,3,3,3,1,-2.51,4.81,-2.44,9.83,9.43,-10.99
13.43746101856232,3,3,3,1,-3.22,4.89,-3.33,5.47,11.54,-9.08
13.44746100902557,3,3,3,1,-3.78,4.47,-4.3,2.08,13.2,-6.89
13.45746099948883,3,3,3,1,-4.92,3.46,-4.74,2.08,13.2,-6.89
13.46746098995209,3,3,3,1,-6.6,2.21,-4.21,7.56,14.01,-4.27
13.47746098041534,3,3,3,1,-11.67,-0.49,-0.4,7.56,14.01,-4.27
13.4874609708786,3,3,3,0,-13.72,-2.88,2.29,11.28,9.380000000000001,-7.49
13.49746096134186,3,3,3,0,-14.62,-5.55,4.77,11.28,9.380000000000001,-7.49
13.50746095180511,3,3,3,0,-14.96,-8.52,5.6,11.39,10.36,-10.13
13.51746094226837,3,3,3,0,-14.94,-15.07,4.17,10.19,8.289999999999999,-12.57
13.52746093273163,3,3,3,0,-14.67,-18.69,4.37,0.76,-12.44,-9.06
13.53746092319489,3,3,3,0,-12.95,-21.76,6.34,-5.73,-20.41,-7.09
13.54746091365814,3,3,3,0,-11.36,-20.9,6.37,-5.73,-20.41,-7.09
13.5574609041214,3,3,3,0,-9.65,-6.11,1.54,-1.33,-5.37,-8.369999999999999
13.56746089458466,3,3,3,0,-8.43,0.29,-0.08,17.37,7.45,-15.68
13.57746088504791,3,3,3,0,-7.83,1.99,-2.53,17.37,7.45,-15.68
13.58746087551117,3,3,3,0,-8.49,-0.6899999999999999,-8.09,26.31,9.82,-14.44
13.59746086597443,3,3,3,0,-9.94,7.27,5.6,26.31,9.82,-14.44
13.60746085643768,3,3,3,0,-3.69,4.01,-5.6,6.46,-16.56,-4.53
13.61746108531952,3,3,3,0,-0.18,-3.55,-4.42,-9.949999999999999,-43.98,14.8
13.62746107578278,3,3,3,0,-25.2,-19.69,22.15,19.7,-20.85,20.55
13.63746106624603,3,3,3,0,-30.53,-23,9.99,3.78,-3.78,13.38
13.64846098423004,3,3,3,0,-27.08,-14.86,-6.74,3.78,-3.78,13.38
13.6584609746933,3,3,3,0,-19.66,6.41,0.03,15.57,4.03,10.43
13.66846096515656,3,3,3,0,-6.95,22.65,-6.67,9.710000000000001,1.79,0.02
13.67846095561981,3,3,3,0,-5.51,25.05,-12.36,9.710000000000001,1.79,0.02
13.68846094608307,3,3,3,0,-3.64,19.1,-12.59,17.26,4.73,-2.53
13.69846093654633,3,3,3,0,-4.22,11.35,-8.630000000000001,-6.57,22.58,12.29
13.70846092700958,3,3,3,0,-11.83,5.99,-2.62,-2.63,20.9,16.62
13.71846091747284,3,3,3,0,-10.37,0.9,-6.72,-15.2,-2.44,18.72
13.7284609079361,3,3,3,0,-7.77,-5.05,-10.46,-15.2,-2.44,18.72
13.73846089839935,3,3,3,0,-8.890000000000001,-5.22,-6.19,-9.609999999999999,-4.83,16.35
13.74846088886261,3,3,3,0,-13.63,1.27,-0.34,3.34,10.75,9.19
13.75846087932587,3,3,3,0,-10.95,2.21,-1.9,0.4,3.46,12.3
13.76846086978912,3,3,3,0,-11,2.71,-0.57,2.66,9.710000000000001,15.78
13.77846086025238,3,3,3,0,-13.71,2.09,0.52,2.66,9.710000000000001,15.78
13.78846108913422,3,3,3,0,-9.710000000000001,3.03,-2.74,0.01,12.88,16.31
13.79846107959747,3,3,3,0,-7.51,3.5,-2.74,0.92,11.52,9.800000000000001
13.80846107006073,3,3,3,0,-7.43,2.17,-3.13,-1.61,13.2,10.18
13.81846106052399,3,3,3,0,-7.98,-0.13,-3.89,-3.25,12.37,12.73
13.82846105098724,3,3,3,0,-8.08,-2.23,-4.49,-3.25,12.37,12.73
13.8384610414505,3,3,3,0,-8.380000000000001,-1.8,-4.01,-3.05,11.4,13.86
13.84846103191376,3,3,3,0,-8.94,-0.95,-2.87,-1.31,10.44,12.95
13.85846102237701,3,3,3,0,-9.35,0.52,-2.01,-3.48,9.92,13.45
13.86846101284027,3,3,3,0,-10.18,-0.83,-1.39,-6.44,10.29,13.88
13.87846100330353,3,3,3,0,-10.13,-1.09,-0.95,-6.44,10.29,13.88
13.88846099376678,3,3,3,0,-9.48,-1.89,-1.39,-8.369999999999999,11.47,13.9
13.89846098423004,3,3,3,0,-8.9,-2.73,-2.02,-13.27,9.609999999999999,15.84
13.9084609746933,3,3,3,0,-9.07,-3.96,-1.98,-14.64,9.75,15.64
13.91846096515656,3,3,3,0,-9.130000000000001,-4.81,-2.25,-15.12,9.869999999999999,15.4
13.92846095561981,3,3,3,1,-9.08,-5.33,-2.36,-15.12,9.869999999999999,15.4
13.93846094608307,3,3,3,1,-9.1,-5.21,-2.59,-14.42,9.890000000000001,15.27
13.94846093654633,3,3,3,1,-9.66,-2.83,-2.54,-11.08,7.22,13.76
13.95846092700958,3,3,3,1,-10.01,-0.79,-2.08,-9.32,5.16,11.31
13.96846091747284,3,3,3,1,-10.44,0.42,-2.07,-9.66,4.44,7.77
13.9784609079361,3,3,3,1,-10.32,0.45,-2.63,-9.66,4.44,7.77
13.98846089839935,3,3,3,1,-9.029999999999999,-0.5,-2.87,-10.06,4.17,5.63
13.99846088886261,3,3,3,1,-8.57,-0.1,-2.54,-7.69,3.59,8.029999999999999
14.00846087932587,3,3,3,1,-8.720000000000001,0.85,-2.27,-6.61,4.09,10.02
14.01846086978912,3,3,3,1,-9.73,2.33,-1.93,-7.34,4.52,11.04
14.02846086025238,3,3,3,1,-9.56,2.58,-2.01,-7.34,4.52,11.04
14.03846108913422,3,3,3,1,-9.050000000000001,2.54,-2.65,-9.380000000000001,4.62,11.01
14.07846105098724,3,3,3,2,-9.74,0.22,-3.06,-13.45,4.58,10.99
14.0884610414505,3,3,3,2,-9.619999999999999,0.39,-3.07,-11.91,4.41,10.67
14.09846103191376,3,3,3,2,-9.779999999999999,1.19,-2.5,-8.42,4.22,9.050000000000001
14.10846102237701,3,3,3,2,-9.869999999999999,1.53,-2.45,-8.77,4.06,8.31
14.11846101284027,3,3,3,2,-9.85,1.5,-2.36,-9.789999999999999,3.59,8.119999999999999
14.12846100330353,3,3,3,2,-9.630000000000001,1.33,-2.25,-9.789999999999999,3.59,8.119999999999999
14.13846099376678,3,3,3,2,-9.289999999999999,0.06,-2.03,-10.87,2.97,8.4
14.14846098423004,3,3,3,2,-9.26,-0.54,-1.92,-11.27,1.71,8.880000000000001
14.1584609746933,3,3,3,2,-9.09,-0.75,-2.02,-10.26,1.1,9.029999999999999
14.16846096515656,3,3,3,2,-8.81,-0.8100000000000001,-2.29,-9.1,0.44,9.130000000000001
14.17846095561981,3,3,3,3,-9.26,-0.8100000000000001,-2.73,-9.1,0.44,9.130000000000001
14.18846094608307,3,3,3,3,-10,-0.33,-2.95,-7.79,0.03,9.1
14.19846093654633,3,3,3,3,-10.71,0.49,-2.91,-5.45,-0.03,8.43
14.20846092700958,3,3,3,3,-11.02,1.27,-2.89,-6.06,0.01,7.7
14.21846091747284,3,3,3,3,-10.49,1.68,-3.16,-7.93,0.27,7.12
14.2284609079361,3,3,3,3,-11.2,0.86,-3.63,-7.93,0.27,7.12
14.23846089839935,3,3,3,3,-11.96,-0.25,-2.83,-9.85,0.2,6.85
14.24846088886261,3,3,3,3,-13.18,-1.95,-1.66,-12.38,-0.64,6.19
14.25846087932587,3,3,3,3,-14.56,-5.03,-0.62,-11.63,-1.59,5.07
14.26846086978912,3,3,3,3,-14.54,-5.83,0.09,-10.91,-2.47,2.8
14.27846086025238,3,3,3,3,-14.53,-7.11,0.93,-10.91,-2.47,2.8
14.28846108913422,3,3,3,3,-15.08,-8.17,1.32,-11.64,-4.57,0
14.29846107959747,3,3,3,3,-15.48,-9.449999999999999,1.55,-9.279999999999999,-10.09,-6.32
14.30846107006073,3,3,3,3,-14.87,-7.87,2.09,-3.44,-14.4,-8.73
14.31846106052399,3,3,3,3,-14.06,-6.1,3.34,-2.27,-15.75,-10.4
14.32846105098724,3,3,3,3,-13.57,-5.91,3.22,-2.27,-15.75,-10.4
14.3384610414505,3,3,3,3,-12.19,-6.31,1.1,-6.68,-14.49,-11.98
14.34846103191376,3,3,3,3,-12.44,-6.14,-3.93,-10.68,-9.300000000000001,-14.42
14.35846102237701,3,3,3,3,-13.08,-4.1,-5.81,-3.56,-8.789999999999999,-14.99
14.36846101284027,3,3,3,3,-13.8,2.39,-3.13,2.13,-9.050000000000001,-15.33
14.37846100330353,3,3,3,3,-13.86,4.8,-2.37,2.13,-9.050000000000001,-15.33
14.38846099376678,3,3,3,3,-14.02,5.64,-1.73,3.23,-7.86,-15.21
14.39846098423004,3,3,3,3,-14.8,5.02,-1.95,2.18,-4.02,-14.53
14.4084609746933,3,3,3,3,-16.4,6.19,-1.53,1.68,-3.54,-14.03
14.41846096515656,3,3,3,3,-15.42,7.61,-1.32,-0.76,-5.07,-12.98
14.42846095561981,3,3,3,3,-14.22,7.84,-1.14,-0.76,-5.07,-12.98
14.43846094608307,3,3,3,3,-12.81,8.539999999999999,-1.15,-2.48,-5.51,-13.05
14.44846093654633,3,3,3,3,-10.86,8.57,-2.51,-4.57,-4.58,-16.41
14.45846092700958,3,3,3,3,-11.3,7.61,-3.2,-5.77,-4.21,-18.37
14.46846091747284,3,3,3,3,-10.73,6.1,-3.56,-6.54,-6.74,-19.51
14.4784609079361,3,3,3,2,-10.62,5.65,-4.07,-6.54,-6.74,-19.51
14.48846089839935,3,3,3,2,-9.76,4.94,-4.41,-5.24,-6.37,-20.28
14.49846088886261,3,3,3,2,-8.99,4.75,-4.19,-1.13,-5.01,-20.91
14.50846087932587,3,3,3,2,-8.390000000000001,4.68,-4.25,1.22,-2.56,-21.34
14.51846086978912,3,3,3,2,-8.65,4.41,-3.94,3.74,-1.9,-21.56
14.52846086025238,3,3,3,2,-8.18,4.35,-3.74,3.74,-1.9,-21.56
14.53846108913422,3,3,3,2,-7.92,4.39,-3.89,5.92,-1.62,-22.32
14.54846107959747,3,3,3,2,-6.99,4.77,-3.84,9.699999999999999,-4.58,-22.08
14.55846107006073,3,3,3,2,-6.71,5.53,-3.98,10.78,-4.73,-22.06
14.56846106052399,3,3,3,2,-6.81,5.35,-3.59,10.4,-4.72,-22.07
14.57846105098724,3,3,3,2,-6.81,5.35,-3.59,10.4,-4.72,-22.07
14.5884610414505,3,3,3,2,-6.77,5.49,-3.18,10.98,-4.78,-21.76
14.59846103191376,3,3,3,2,-5.8,6.04,-3.19,13.22,-4.48,-21.16
14.60846102237701,3,3,3,2,-5.45,6.45,-2.79,13.03,-3.74,-20.21
14.61846101284027,3,3,3,2,-5.01,6.53,-2.25,13.84,-3.56,-19.28
14.62946093082428,3,3,3,2,-5.01,6.53,-2.25,14.11,-3.25,-18.25
14.63846099376678,3,3,3,2,-4.63,6,-1.83,14.11,-3.25,-18.25
14.64846098423004,3,3,3,2,-4.41,5.2,-2.43,11.76,0.84,-14.93
14.6584609746933,3,3,3,2,-4.13,4.99,-2.61,10.56,3.65,-13.37
14.66946089267731,3,3,3,2,-3.88,4.49,-2.86,9.720000000000001,6.69,-12.08
14.67946088314056,3,3,3,2,-3.88,4.49,-2.86,9.720000000000001,6.69,-12.08
14.68946087360382,3,3,3,2,-4.44,3.54,-3.34,6.41,10.98,-8.02
14.69946086406708,3,3,3,2,-5.51,2.88,-4.27,4.41,10.7,-6.68
14.70946109294891,3,3,3,2,-7.94,2.46,-3.1,4.06,10.92,-6.51
14.71946108341217,3,3,3,2,-8.98,1.36,-1.51,5.85,10.96,-6.87
14.72946107387543,3,3,3,2,-8.98,1.36,-1.51,5.85,10.96,-6.87
14.73946106433868,3,3,3,2,-10.17,-1.39,0.3,7.94,9.029999999999999,-6.84
14.74946105480194,3,3,3,2,-13.45,-10.75,2.86,9.73,7.87,-6.65
14.7594610452652,3,3,3,2,-14.64,-12.88,4.65,11.8,8.25,-6.3
14.76946103572845,3,3,3,2,-14.7,-15.21,6.23,13.34,2.09,-5.29
14.77946102619171,3,3,3,2,-14.7,-15.21,6.23,13.34,2.09,-5.29
14.78946101665497,3,3,3,2,-13.75,-18.3,6.51,2.78,-19.59,-6.19
14.79946100711823,3,3,3,2,-11.13,-9.49,2.02,2.56,-9.640000000000001,-9.890000000000001
14.80946099758148,3,3,3,2,-9.27,-0.32,1.32,9.199999999999999,0.96,-13.72
14.81946098804474,3,3,3,2,-7.5,5.15,0.4,13.6,3.78,-15.97
14.829460978508,3,3,3,2,-7.5,5.15,0.4,13.6,3.78,-15.97
14.83946096897125,3,3,3,2,-5.67,1.53,-6.66,13.3,6.34,-16
14.84946095943451,3,3,3,2,-9.73,3.17,3.47,18.62,10.52,-10.51
14.85946094989777,3,3,3,2,-7.47,0.95,1.25,0.22,-17.95,4.03
14.86946094036102,3,3,3,2,-9.32,-15.59,7.55,-3.33,-38.56,18.1
14.87946093082428,3,3,3,2,-9.32,-15.59,7.55,-3.33,-38.56,18.1
14.88946092128754,3,3,3,2,-28.4,-24.52,9.460000000000001,14.87,-0.07000000000000001,12.52
14.89946091175079,3,3,3,2,-23.14,-14.01,-4.59,1.28,-4.69,9.279999999999999
14.90946090221405,3,3,3,2,-10.94,13.2,1,16.22,5.71,12.94
14.91946089267731,3,3,3,2,-6.58,17.27,-0.17,18.09,6.68,4.58
14.92946088314056,3,3,3,2,-5.16,19.07,-6.3,15.53,7.13,-4.87
14.93946087360382,3,3,3,2,-4.18,16.72,-10.66,16.92,13.07,-3.25
14.94946086406708,3,3,3,2,-5.34,6.65,-6.35,6.19,11.87,4.32
14.95946109294891,3,3,3,2,-8.33,4.61,-3.82,-3.37,18.49,10.69
14.96946108341217,3,3,3,2,-9.76,0.5600000000000001,-5.03,-4.06,12.66,14.55
14.97946107387543,3,3,3,2,-9.050000000000001,-3.55,-7.57,-10.29,-1.22,16.83
14.98946106433868,3,3,3,2,-11.7,-0.3,-2.26,-1.45,-0.57,15.67
14.99946105480194,3,3,3,2,-13.39,0.9399999999999999,-1.87,5.92,6.6,10.84
15.0094610452652,3,3,3,2,-12.62,1.24,-3.49,2.76,5.8,7.07
15.01946103572845,3,3,3,2,-11.91,1.06,-2.63,2.18,4.81,7.73
15.02946102619171,3,3,3,2,-12.02,1.17,0.17,4.55,8.09,10.35
15.03946101665497,3,3,3,2,-11.76,2.24,-0.38,3.57,8.550000000000001,12.14
15.04946100711823,3,3,3,2,-10.79,3.91,-0.66,2.77,9.210000000000001,12.11
15.05946099758148,3,3,3,2,-8.19,3.75,-2.16,1.75,8.99,9.539999999999999
15.06946098804474,3,3,3,2,-8.18,1.81,-2.95,-1.28,8.279999999999999,7.57
15.079460978508,3,3,3,2,-8.91,0.58,-2.68,-2.59,8.9,7.9
15.08946096897125,3,3,3,2,-9.6,0.28,-2.48,-2.08,9.119999999999999,9.07
15.09946095943451,3,3,3,2,-10.54,0.73,-3.18,-2.62,8.1,9.619999999999999
15.10946094989777,3,3,3,2,-10.41,1.75,-3.1,-2.9,7.91,9.630000000000001
15.11946094036102,3,3,3,2,-10.07,1.77,-2.6,-2.67,8.24,9.52
15.12946093082428,3,3,3,2,-9.67,1.36,-2.83,-3.68,8.57,9.43
15.13946092128754,3,3,3,2,-9.59,1.73,-1.95,-3.79,9.279999999999999,9.1
15.14946091175079,3,3,3,2,-9.380000000000001,2.29,-1.95,-3.68,9.56,9.470000000000001
15.15946090221405,3,3,3,2,-9.300000000000001,2.71,-2.16,-4.56,9.4,10.59
15.16946089267731,3,3,3,2,-9.640000000000001,2.86,-1.89,-5.68,9.94,11.69
15.17946088314056,3,3,3,2,-9.630000000000001,1.13,-2.43,-7.5,9.82,12.57
15.18946087360382,3,3,3,2,-9.5,-0.16,-3.07,-10.7,9.74,13.26
15.19946086406708,3,3,3,2,-9.34,-1.66,-3.11,-12.97,10.89,13.7
15.20946109294891,3,3,3,2,-9.07,-3.09,-2.57,-15,11.3,14.45
15.21946108341217,3,3,3,2,-8.890000000000001,-6.16,-2.26,-16.89,11.06,15.12
15.22946107387543,3,3,3,2,-9.359999999999999,-7.52,-1.74,-16.7,11.36,15.57
15.23946106433868,3,3,3,2,-9.77,-8.720000000000001,-1.12,-14.46,11.17,15.72
15.24946105480194,3,3,3,2,-10.02,-8.98,-0.44,-12.25,9.789999999999999,15.43
15.2594610452652,3,3,3,2,-10.44,-6.31,-2.27,-10.5,8.390000000000001,14.66
15.26946103572845,3,3,3,2,-11.95,-2.47,-2.3,-6.68,7.3,13.06
15.27946102619171,3,3,3,2,-12.62,0.85,-1.21,-1.35,3.79,9.17
15.28946101665497,3,3,3,2,-12.16,1.73,-1.36,-0.39,0.41,3.6
15.29946100711823,3,3,3,2,-9.91,1.22,-2.29,-1.75,1.15,0.9
15.30946099758148,3,3,3,2,-8.08,1.3,-2.18,-4.71,-0.09,1.65
15.31946098804474,3,3,3,2,-6.8,1.34,-2.01,-6.83,-2.15,4.36
15.329460978508,3,3,3,2,-6.63,0.75,-2.08,-7.09,-1.41,7
15.33946096897125,3,3,3,2,-8.449999999999999,0.42,-2.85,-6.8,0.86,8.279999999999999
15.34946095943451,3,3,3,2,-8.970000000000001,1.28,-2.84,-6.48,2.21,8.58
15.35946094989777,3,3,3,2,-9.220000000000001,2.16,-2.86,-7.15,2.62,8.710000000000001
15.36946094036102,3,3,3,2,-9.52,2.68,-3.03,-9.029999999999999,2.98,9.09
15.37946093082428,3,3,3,2,-9.609999999999999,1.85,-3.68,-10.98,3.25,9.390000000000001
15.38946092128754,3,3,3,2,-9.48,1.08,-3.86,-11.74,3.38,9.49
15.39946091175079,3,3,3,2,-9.4,0.52,-3.73,-10.54,3.08,9.380000000000001
15.40946090221405,3,3,3,2,-9.34,0.93,-2.68,-7.71,2.49,9.16
15.41946089267731,3,3,3,2,-9.43,1.28,-2.4,-5,2.25,8.529999999999999
15.42946088314056,3,3,3,2,-9.41,1.54,-2.1,-3.7,2.16,7.92
15.43946087360382,3,3,3,2,-9.300000000000001,1.68,-1.75,-3.4,1.81,7.45
15.44946086406708,3,3,3,2,-9.359999999999999,1.65,-1.87,-3.52,1.4,7.2
15.45946109294891,3,3,3,2,-9.35,1.71,-2.06,-4.13,1.15,7.18
15.46946108341217,3,3,3,2,-9.34,1.64,-2.14,-4.82,0.97,7.32
15.47946107387543,3,3,3,2,-9.26,1.57,-2.31,-5.44,0.93,7.48
15.48946106433868,3,3,3,2,-9.289999999999999,1.51,-2.86,-5.62,1.23,7.65
15.49946105480194,3,3,3,2,-9.24,1.44,-3.04,-5.65,1.49,7.62
15.51946103572845,3,3,3,2,-9.199999999999999,1.58,-3.44,-5.13,1.21,7.03
15.52946102619171,3,3,3,2,-9.16,1.27,-3.11,-5.02,0.53,6.42
15.53946101665497,3,3,3,2,-9.15,1.34,-3.1,-5.04,0.08,5.8
15.54946100711823,3,3,3,2,-9.210000000000001,1.58,-3.41,-4.97,0.19,5.57
15.55946099758148,3,3,3,2,-9.380000000000001,1.83,-3.48,-5.29,0.12,5.69
15.56946098804474,3,3,3,2,-10.47,1.37,-3.2,-5.79,0.14,6.05
15.579460978508,3,3,3,2,-11.4,0.59,-2.71,-6.14,0.35,6.36
15.58946096897125,3,3,3,2,-11.93,0,-2.55,-6.02,0.37,6.26
15.59946095943451,3,3,3,2,-11.98,-0.23,-2.48,-5.36,-0.2,5.83
15.60946094989777,3,3,3,2,-12,-1.46,-1.15,-4.96,-1.46,4.89
15.61946094036102,3,3,3,2,-12.59,-2.45,-0.82,-5.97,-3.55,3.09
15.62946093082428,3,3,3,2,-13.17,-2.7,-0.78,-3.93,-2.73,1.76
15.63946092128754,3,3,3,2,-13.37,-3.1,-0.8100000000000001,-2.12,-4.33,0.23
15.64946091175079,3,3,3,2,-13.08,-3.86,0.27,0.35,-5.9,-1.23
15.65946090221405,3,3,3,2,-13.03,-3.94,0.92,2.49,-7.16,-2.93
15.66946089267731,3,3,3,2,-12.72,-2.28,2.77,3.33,-8.49,-4.77
15.67946088314056,3,3,3,3,-12.59,0.12,3.73,1.36,-9.109999999999999,-6.6
15.69046103954315,3,3,3,3,-11.14,1.09,0.6899999999999999,-4.86,-9.869999999999999,-6.54
15.70046103000641,3,3,3,3,-10.91,1.56,0.62,-8.31,-9.41,-5.89
15.71046102046967,3,3,3,3,-10.73,1.87,-0.18,-10.11,-8.4,-6.88
15.72046101093292,3,3,3,3,-10.76,1.66,-0.71,-11.42,-7.92,-8.94
15.73046100139618,3,3,3,3,-11.02,1.4,-1.78,-12.09,-8.529999999999999,-10.19
15.74046099185944,3,3,3,3,-11.03,1.94,-2.04,-10.66,-9.09,-10.45
15.75046098232269,3,3,3,3,-10.71,2.9,-2.11,-8.779999999999999,-9.06,-10.38
15.76046097278595,3,3,3,3,-10.23,3.76,-2.02,-7.65,-8.130000000000001,-10.01
15.77046096324921,3,3,3,3,-9.699999999999999,5.42,-2.18,-7.37,-5.96,-9.48
15.78046095371246,3,3,3,3,-9.67,6.39,-2.16,-6.89,-4.31,-8.85
15.79046094417572,3,3,3,3,-9.85,7.6,-2.06,-6.46,-3.63,-8.4
15.80046093463898,3,3,3,3,-9.74,8.33,-1.65,-6.7,-3.62,-8.640000000000001
15.81046092510223,3,3,3,3,-9.56,8.1,-2.12,-7.69,-3.33,-9.32
15.82046091556549,3,3,3,3,-9.65,8.67,-1.64,-7.8,-2.52,-9.859999999999999
15.83046090602875,3,3,3,3,-9.32,8.99,-1.15,-7.02,-2.62,-9.949999999999999
15.840460896492,3,3,3,3,-7.77,7.68,-2.18,-7.37,-3.07,-10.17
15.85046088695526,3,3,3,3,-7.7,7.01,-2.67,-7.82,-2.16,-10.63
15.86046087741852,3,3,3,3,-8.199999999999999,7.01,-2.5,-7.53,-0.8100000000000001,-11.1
15.87046086788177,3,3,3,3,-8.27,6.57,-2.16,-6.3,-0.57,-11.3
15.88046085834503,3,3,3,3,-8.18,6.49,-1.75,-4.73,-0.12,-10.9
15.89046108722687,3,3,3,3,-8.07,6.25,-1.74,-3.15,-0.11,-10.89
15.90046107769012,3,3,3,3,-7.63,6.07,-1.94,-1.49,-0.02,-11.32
15.91046106815338,3,3,3,3,-7.72,6.04,-1.83,0.57,0.02,-11.75
15.92046105861664,3,3,3,3,-7.19,5.6,-1.85,2.85,-0.3,-12.25
15.9304610490799,3,3,3,3,-7.26,5.41,-1.85,4.8,-0.35,-12.45
15.94046103954315,3,3,3,3,-7.38,5.39,-1.73,6.74,-0.9,-12.3
15.95046103000641,3,3,3,3,-7.65,5.27,-1.51,8.24,-1.86,-11.98
15.96046102046967,3,3,3,3,-8.01,5.55,-1.57,9.25,-2.56,-11.56
15.97046101093292,3,3,3,3,-8.039999999999999,5.98,-1.58,9.640000000000001,-2.91,-11.08
15.98046100139618,3,3,3,3,-8.01,6.29,-1.45,9.98,-2.66,-10.64
15.99046099185944,3,3,3,3,-7.81,6.36,-1.43,9.84,-2.02,-10.09
16.00046098232269,3,3,3,3,-7.28,4.93,-1.56,7.96,-0.97,-9.65
16.01046097278595,3,3,3,3,-7.18,3.93,-1.6,6.02,0.45,-9.220000000000001
16.02046096324921,3,3,3,3,-7.31,3.12,-2.06,5.49,2.06,-8.59
16.03046095371246,3,3,3,3,-7.71,2.43,-2.44,6.15,3.79,-7.93
16.04046094417572,3,3,3,3,-9.289999999999999,1.31,-1.84,7.96,4.52,-7.69
16.05046093463898,3,3,3,3,-9.74,1.77,-1.5,10.45,3.78,-8.050000000000001
16.06046092510223,3,3,3,3,-9.550000000000001,2.36,-0.73,13.29,1.64,-8.68
16.07046091556549,3,3,3,3,-9.119999999999999,2.41,-0.19,15.44,0.91,-8.75
16.08046090602875,3,3,3,3,-8.529999999999999,1.51,-0.73,15.87,1.22,-8.039999999999999
16.090460896492,3,3,3,3,-8.18,0.76,-1.27,16.07,1.14,-6.82
16.10046088695526,3,3,3,3,-8.92,0.11,-1.45,17.29,0.5,-4.87
16.12046086788177,3,3,3,3,-9.26,2.52,-1.16,16.84,-1.46,-5.66
16.13046085834503,3,3,3,3,-8.449999999999999,3.1,-0.7,14.46,-2.5,-5.86
16.14046108722687,3,3,3,3,-7.72,3.29,-0.02,9.85,-1.91,-5.32
16.15046107769012,3,3,3,3,-7.6,-0.76,-0.32,3.79,-0.31,-4.25
16.16046106815338,3,3,3,3,-9.23,-5.57,1.08,-0.13,0.89,-3.31
16.17046105861664,3,3,3,3,-12.28,-10.55,2.6,-4.09,1.23,-3.87
16.1804610490799,3,3,3,3,-15.77,-12.67,2.54,-8.380000000000001,-3.93,-3.67
16.19046103954315,3,3,3,3,-12.42,11.08,2.94,-0.75,-11.38,0.07000000000000001
16.20046103000641,3,3,3,3,-10.77,18.96,0.24,8.56,-7.48,5.31
16.21046102046967,3,3,3,3,-9.289999999999999,17.05,-0.38,6.67,-1.32,5.58
16.22046101093292,3,3,3,3,-10.21,10.96,3.12,3.84,5.44,2.76
16.23046100139618,3,3,3,2,-12.25,-3.68,-3.69,-9.74,10.06,1.63
16.24046099185944,3,3,3,2,-10.15,-3.7,-3.82,-11.7,6.13,3.76
16.25046098232269,3,3,3,2,-7.97,-1.2,-1.9,1.07,3.36,6.64
16.26046097278595,3,3,3,2,-7.06,0.03,-3.2,2.42,1.59,7.01
16.27046096324921,3,3,3,2,-11.04,4.2,-4.58,0.92,4.13,6.74
16.28046095371246,3,3,3,2,-11.34,4.92,-3.49,4.07,8.59,5.27
16.29046094417572,3,3,3,2,-10.06,3.59,-3.51,3.29,7.84,3.61
16.30046093463898,3,3,3,2,-9.16,1.56,-2.63,3.04,6.09,3.76
16.31046092510223,3,3,3,2,-8.69,0.68,0.03,4.18,5.54,4.99
16.32046091556549,3,3,3,2,-8.890000000000001,0.8100000000000001,0.16,4.27,3.79,6.1
16.33046090602875,3,3,3,2,-9.720000000000001,0.75,0.63,3.88,3.68,6.92
16.340460896492,3,3,3,2,-10.53,0.1,0.95,2.34,4.39,7.24
16.35046088695526,3,3,3,2,-10.43,-1.85,0.87,-0.17,4.48,6.63
16.36046087741852,3,3,3,2,-9.789999999999999,-2.6,0.95,-0.44,5.11,5.26
16.37046086788177,3,3,3,2,-9.42,-3.61,0.5600000000000001,0,5.29,4.3
16.38046085834503,3,3,3,2,-9.58,-4.51,0.27,0.41,4.2,3.88
16.39046108722687,3,3,3,2,-10.41,-5.34,0.29,0.98,2.42,3.23
16.40046107769012,3,3,3,2,-10.48,-4.91,-0.37,1.21,1.06,1.99
16.41046106815338,3,3,3,2,-10.19,-4,-0.86,2.21,0.26,0.66
16.42046105861664,3,3,3,2,-9.9,-2.87,-0.95,2.77,-0.48,0.14
16.4304610490799,3,3,3,2,-9.640000000000001,-0.51,-1.28,2.18,-1.34,0.18
16.44046103954315,3,3,3,2,-9.93,0.33,-1.71,1.49,-1,0.23
16.45046103000641,3,3,3,2,-9.99,1.13,-1.93,0.52,-0.58,0.29
16.46046102046967,3,3,3,2,-9.83,1.72,-1.85,-0.17,-0.45,0.48
16.47046101093292,3,3,3,2,-9.41,2.13,-1.71,-0.77,0.15,0.77
16.48046100139618,3,3,3,2,-9.369999999999999,1.97,-1.71,-0.99,0.73,1.23
16.49046099185944,3,3,3,2,-9.59,1.8,-1.69,-1.05,1.22,1.71
16.50046098232269,3,3,3,2,-9.800000000000001,1.63,-1.5,-0.92,1.48,1.92
16.51046097278595,3,3,3,2,-9.56,1.5,-1.34,-0.8100000000000001,1.4,1.84
16.52046096324921,3,3,3,2,-9.289999999999999,1.12,-1.52,-0.72,1.45,1.71
16.53046095371246,3,3,3,2,-9.109999999999999,0.72,-1.52,-0.38,1.54,1.67
16.54046094417572,3,3,3,2,-9.43,0.12,-1.85,0.28,1.52,1.78
16.55046093463898,3,3,3,2,-9.73,0.01,-1.83,0.99,1.52,1.95
16.56046092510223,3,3,3,2,-9.880000000000001,0,-1.85,1.89,1.59,1.94
16.57046091556549,3,3,3,2,-9.93,-0.12,-1.98,2.64,1.8,1.9
16.58046090602875,3,3,3,3,-9.6,0.16,-1.68,3.28,1.97,1.93
16.590460896492,3,3,3,3,-9.609999999999999,0.1,-1.76,3.48,1.94,2.05
16.60046088695526,3,3,3,3,-9.6,0.38,-1.92,3.1,1.65,2.11
16.61046087741852,3,3,3,3,-9.85,0.66,-1.57,3.03,1.67,1.95
16.62046086788177,3,3,3,3,-9.84,1.09,-1.35,2.42,1.35,1.55
16.63046085834503,3,3,3,3,-9.720000000000001,1.24,-1.24,1.29,0.9,1.03
16.64046108722687,3,3,3,3,-9.69,1.22,-1.3,0.21,0.87,0.82
16.65046107769012,3,3,3,3,-9.630000000000001,1.11,-1.66,-0.84,0.83,0.64
16.66146099567413,3,3,3,3,-9.81,0.87,-1.95,-1.5,0.47,0.65
16.67046105861664,3,3,3,3,-9.84,0.92,-1.74,-1.68,0.06,0.5600000000000001
16.6804610490799,3,3,3,3,-9.81,0.77,-2.02,-2.04,0.08,0.2
16.6914609670639,3,3,3,3,-9.640000000000001,0.6899999999999999,-2.11,-1.72,0.1,-0.14
16.70046103000641,3,3,3,3,-9.48,0.48,-2,-1.19,0.25,-0.17
16.71046102046967,3,3,3,3,-9.4,0.37,-2.01,-0.57,0.2,0.14
16.72146093845367,3,3,3,3,-9.42,0.44,-1.93,0.21,0.18,0.43
16.73146092891693,3,3,3,3,-9.5,0.61,-1.83,0.92,0.32,0.5
16.74146091938019,3,3,3,3,-9.73,0.75,-1.74,1.49,0.34,0.51
16.75146090984344,3,3,3,3,-9.779999999999999,0.78,-1.71,1.97,0.5600000000000001,0.42
16.7614609003067,3,3,3,3,-9.630000000000001,0.79,-1.61,2.13,0.64,0.51
16.77146089076996,3,3,3,3,-9.44,0.78,-1.71,1.97,0.47,0.66
16.78146088123322,3,3,3,3,-9.609999999999999,0.91,-1.45,2.16,0.35,0.8100000000000001
16.79146087169647,3,3,3,3,-9.73,0.85,-1.62,2.14,0.32,0.71
16.80146086215973,3,3,3,3,-9.859999999999999,0.8100000000000001,-1.82,1.71,0.29,0.43
16.81146109104156,3,3,3,3,-9.83,0.9399999999999999,-1.62,1.34,0.05,0.2
16.84146106243134,3,3,3,3,-9.59,0.85,-1.69,0.14,-0.28,0.05
16.85146105289459,3,3,3,3,-9.57,0.78,-1.9,-0.23,-0.51,0.07000000000000001
16.86146104335785,3,3,3,3,-9.81,0.67,-1.91,-0.26,-0.36,0.09
16.87146103382111,3,3,3,3,-9.94,0.67,-1.67,-0.24,-0.36,-0.05
16.88146102428436,3,3,3,3,-9.77,0.72,-1.52,-0.29,-0.44,-0.17
16.89146101474762,3,3,3,3,-9.460000000000001,0.71,-1.89,-0.32,-0.31,-0.19
16.90146100521088,3,3,3,3,-9.52,0.8100000000000001,-1.83,-0.04,-0.29,-0.11
16.91146099567413,3,3,3,3,-9.539999999999999,0.96,-1.5,0.4,-0.51,-0.09
16.92146098613739,3,3,3,3,-9.58,0.99,-1.62,0.32,-0.37,-0.14
16.93146097660065,3,3,3,3,-9.6,1.1,-1.66,0.46,-0.21,-0.16
16.9414609670639,3,3,3,3,-9.640000000000001,1.05,-1.91,0.38,-0.13,-0.05
16.95146095752716,3,3,3,3,-9.73,1.14,-1.89,0.44,-0.21,-0.02
16.96146094799042,3,3,3,3,-9.779999999999999,1.17,-1.7,0.53,-0.13,-0.14
16.97146093845367,3,3,3,3,-9.640000000000001,0.93,-1.76,0.32,-0.17,-0.25
16.98146092891693,3,3,3,3,-9.539999999999999,0.92,-1.56,0.33,-0.15,-0.21
16.99146091938019,3,3,3,3,-9.49,0.83,-1.6,0.14,-0.19,-0.2
17.00146090984344,3,3,3,3,-9.58,0.71,-1.68,-0.1,-0.14,-0.18
17.0114609003067,3,3,3,3,-9.789999999999999,0.58,-1.53,-0.24,-0.15,-0.28
17.02146089076996,3,3,3,3,-9.77,0.52,-1.42,-0.41,-0.28,-0.41
17.03146088123322,3,3,3,3,-9.699999999999999,0.43,-1.39,-0.62,-0.38,-0.62
17.04146087169647,3,3,3,3,-9.67,0.34,-1.36,-0.75,-0.5,-0.73
17.05146086215973,3,3,3,3,-9.529999999999999,0.36,-1.37,-0.66,-0.59,-0.77
17.06146109104156,3,3,3,3,-9.550000000000001,0.42,-1.49,-0.83,-0.54,-0.74
17.07146108150482,3,3,3,3,-9.66,0.52,-1.6,-0.73,-0.59,-0.71
17.08146107196808,3,3,3,3,-9.869999999999999,0.65,-1.65,-0.7,-0.58,-0.68
17.09146106243134,3,3,3,3,-9.98,0.9,-1.73,-0.68,-0.45,-0.76
17.10146105289459,3,3,3,3,-9.800000000000001,0.93,-1.8,-0.57,-0.39,-0.82
17.11146104335785,3,3,3,3,-9.59,0.89,-1.76,-0.41,-0.3,-0.82
17.12146103382111,3,3,3,3,-9.449999999999999,0.95,-1.6,-0.18,-0.25,-0.65
17.13146102428436,3,3,3,3,-9.41,0.9399999999999999,-1.52,-0.2,-0.31,-0.45
17.14146101474762,3,3,3,3,-9.6,0.87,-1.58,-0.36,-0.25,-0.3
17.15146100521088,3,3,3,3,-9.69,0.9,-1.62,-0.26,-0.17,-0.3
17.16146099567413,3,3,3,3,-9.710000000000001,0.85,-1.54,-0.38,0.04,-0.32
17.17146098613739,3,3,3,3,-9.75,0.54,-1.79,-0.43,0.34,-0.27
17.18146097660065,3,3,3,3,-9.75,0.59,-1.62,-0.25,0.2,-0.18
17.1914609670639,3,3,3,3,-9.630000000000001,0.62,-1.51,0.12,-0.09,-0.16
17.20146095752716,3,3,3,3,-9.68,0.48,-1.63,0.18,-0.06,-0.1
17.21146094799042,3,3,3,3,-9.81,0.6,-1.37,0.37,0.06,-0.18
17.22146093845367,3,3,3,3,-9.76,0.57,-1.49,0.2,0.01,-0.19
17.23146092891693,3,3,3,3,-9.74,0.47,-1.6,0.12,0.17,-0.16
17.24146091938019,3,3,3,3,-9.75,0.57,-1.41,0.3,0.33,-0.2
17.25146090984344,3,3,3,3,-9.640000000000001,0.51,-1.63,0.2,0.09,-0.23
17.2614609003067,3,3,3,3,-9.6,0.49,-1.53,0.15,-0.01,-0.27
17.27146089076996,3,3,3,3,-9.58,0.53,-1.44,0.05,-0.02,-0.27
17.28146088123322,3,3,3,3,-9.539999999999999,0.42,-1.53,-0.16,-0.13,-0.21
17.29146087169647,3,3,3,3,-9.640000000000001,0.42,-1.53,-0.13,0.05,-0.21
17.30146086215973,3,3,3,3,-9.75,0.43,-1.62,-0.21,0.12,-0.23
17.31146109104156,3,3,3,3,-9.82,0.54,-1.64,-0.26,0.13,-0.22
17.32146108150482,3,3,3,3,-9.81,0.55,-1.61,-0.24,0.1,-0.26
17.33146107196808,3,3,3,3,-9.75,0.53,-1.6,-0.01,0.08,-0.34
17.34146106243134,3,3,3,3,-9.619999999999999,0.53,-1.63,0.04,0.04,-0.33
17.35146105289459,3,3,3,3,-9.550000000000001,0.5,-1.66,0.11,-0.01,-0.2
17.36146104335785,3,3,3,3,-9.69,0.44,-1.64,0.16,0.12,-0.09
17.37146103382111,3,3,3,3,-9.73,0.45,-1.53,0.28,0.19,-0.1
17.38146102428436,3,3,3,3,-9.75,0.44,-1.48,0.45,0.18,-0.1
17.39146101474762,3,3,3,3,-9.77,0.41,-1.64,0.41,0.14,-0.11
17.40146100521088,3,3,3,3,-9.65,0.61,-1.62,0.5600000000000001,0.16,-0.1
17.41146099567413,3,3,3,3,-9.619999999999999,0.6,-1.7,0.3,0.09,-0.14
17.42146098613739,3,3,3,3,-9.69,0.62,-1.56,0.3,0,-0.19
17.43146097660065,3,3,3,3,-9.67,0.58,-1.57,0.12,-0.02,-0.2
17.4414609670639,3,3,3,3,-9.59,0.52,-1.66,-0.04,-0.08,-0.21
17.45146095752716,3,3,3,3,-9.640000000000001,0.48,-1.77,-0.04,-0.1,-0.2
17.46146094799042,3,3,3,3,-9.75,0.4,-1.66,-0.02,-0.08,-0.19
17.47146093845367,3,3,3,3,-9.77,0.45,-1.62,0.1,-0.06,-0.19
17.48146092891693,3,3,3,3,-9.67,0.55,-1.59,0.02,-0.14,-0.22
17.49146091938019,3,3,3,3,-9.66,0.5600000000000001,-1.67,0.1,-0.04,-0.21
17.50146090984344,3,3,3,3,-9.68,0.48,-1.71,0.21,0.05,-0.23
17.5114609003067,3,3,3,3,-9.720000000000001,0.47,-1.76,0.28,-0.1,-0.17
17.52146089076996,3,3,3,3,-9.65,0.47,-1.69,0.45,-0.15,-0.23
17.53146088123322,3,3,3,3,-9.65,0.51,-1.62,0.46,-0.18,-0.22
17.54146087169647,3,3,3,3,-9.640000000000001,0.59,-1.64,0.61,-0.22,-0.23
17.55146086215973,3,3,3,3,-9.609999999999999,0.65,-1.73,0.63,-0.18,-0.17
17.56146109104156,3,3,3,3,-9.609999999999999,0.67,-1.74,0.71,-0.02,-0.1
17.57146108150482,3,3,3,3,-9.65,0.58,-1.73,0.64,0.04,-0.05
17.58146107196808,3,3,3,3,-9.710000000000001,0.51,-1.57,0.72,0.1,0
17.59146106243134,3,3,3,3,-9.73,0.43,-1.68,0.74,0.04,0.13
17.60146105289459,3,3,3,3,-9.720000000000001,0.43,-1.69,0.75,-0.11,0.09
17.61146104335785,3,3,3,3,-9.710000000000001,0.39,-1.51,0.67,-0.3,0.05
17.62146103382111,3,3,3,3,-9.69,0.35,-1.51,0.55,-0.33,-0.03
17.63146102428436,3,3,3,3,-9.619999999999999,0.44,-1.47,0.51,-0.31,-0.07000000000000001
17.64146101474762,3,3,3,3,-9.640000000000001,0.42,-1.48,0.37,-0.2,-0.1
17.65146100521088,3,3,3,3,-9.640000000000001,0.42,-1.59,0.3,-0.2,-0.16
17.66146099567413,3,3,3,3,-9.65,0.41,-1.52,0.22,-0.33,-0.14
17.67146098613739,3,3,3,3,-9.73,0.46,-1.52,0.15,-0.36,-0.15
17.68146097660065,3,3,3,3,-9.710000000000001,0.54,-1.47,0.1,-0.44,-0.17
17.6914609670639,3,3,3,3,-9.69,0.57,-1.42,0.14,-0.29,-0.17
17.70146095752716,3,3,3,3,-9.66,0.52,-1.58,0,-0.39,-0.11
17.71246087551117,3,3,3,3,-9.67,0.57,-1.54,0,-0.41,-0.03
17.72146093845367,3,3,3,3,-9.75,0.52,-1.5,0,-0.31,-0.09
17.73146092891693,3,3,3,3,-9.76,0.54,-1.47,-0.02,-0.34,-0.15
17.74246108531952,3,3,3,3,-9.720000000000001,0.62,-1.45,-0.13,-0.39,-0.19
17.77246105670929,3,3,3,3,-9.619999999999999,0.59,-1.47,-0.46,-0.36,-0.16
17.78246104717255,3,3,3,3,-9.65,0.5600000000000001,-1.49,-0.64,-0.5,-0.1
17.7924610376358,3,3,3,3,-9.76,0.5,-1.53,-0.74,-0.46,-0.08
17.80246102809906,3,3,3,3,-9.77,0.51,-1.55,-0.71,-0.42,-0.1
17.81246101856232,3,3,3,3,-9.699999999999999,0.5,-1.52,-0.8,-0.43,-0.23
17.82246100902557,3,3,3,3,-9.640000000000001,0.51,-1.44,-0.76,-0.25,-0.29
17.83246099948883,3,3,3,3,-9.699999999999999,0.5,-1.42,-0.75,-0.19,-0.28
17.84246098995209,3,3,3,3,-9.69,0.61,-1.39,-0.76,-0.27,-0.22
17.85246098041534,3,3,3,3,-9.68,0.54,-1.53,-0.73,-0.28,-0.16
17.8624609708786,3,3,3,3,-9.69,0.41,-1.52,-0.68,-0.29,-0.15
17.87246096134186,3,3,3,3,-9.65,0.33,-1.43,-0.55,-0.28,-0.13
17.88246095180511,3,3,3,3,-9.699999999999999,0.33,-1.44,-0.51,-0.29,-0.07000000000000001
17.89246094226837,3,3,3,3,-9.76,0.36,-1.38,-0.39,-0.26,-0.05
17.90246093273163,3,3,3,3,-9.75,0.4,-1.44,-0.43,-0.28,-0.04
17.91246092319489,3,3,3,3,-9.699999999999999,0.43,-1.47,-0.42,-0.14,-0.02
17.92246091365814,3,3,3,3,-9.699999999999999,0.42,-1.59,-0.42,-0.1,-0.01
17.9324609041214,3,3,3,3,-9.69,0.46,-1.45,-0.24,-0.21,0
17.94246089458466,3,3,3,3,-9.59,0.41,-1.49,-0.21,-0.3,0
17.95246088504791,3,3,3,3,-9.67,0.38,-1.61,-0.22,-0.24,0
17.98246085643768,3,3,3,3,-9.699999999999999,0.48,-1.38,-0.38,-0.14,-0.01
17.99246108531952,3,3,3,3,-9.699999999999999,0.48,-1.34,-0.38,-0.12,0
18.00246107578278,3,3,3,3,-9.67,0.45,-1.46,-0.45,-0.26,0.07000000000000001
18.01246106624603,3,3,3,3,-9.640000000000001,0.42,-1.43,-0.43,-0.36,0.12
18.02246105670929,3,3,3,3,-9.640000000000001,0.31,-1.35,-0.4,-0.31,0.08
18.03246104717255,3,3,3,3,-9.76,0.32,-1.38,-0.47,-0.31,0.04
18.0424610376358,3,3,3,3,-9.77,0.39,-1.34,-0.54,-0.41,0.03
18.05246102809906,3,3,3,3,-9.73,0.47,-1.47,-0.5600000000000001,-0.43,0.02
18.06246101856232,3,3,3,3,-9.69,0.52,-1.47,-0.54,-0.39,-0.03
18.07246100902557,3,3,3,3,-9.66,0.54,-1.38,-0.45,-0.42,0
18.08246099948883,3,3,3,3,-9.640000000000001,0.55,-1.43,-0.51,-0.5,0.14
18.09246098995209,3,3,3,3,-9.66,0.6,-1.45,-0.55,-0.53,0.13
18.10246098041534,3,3,3,3,-9.73,0.46,-1.56,-0.62,-0.43,0.17
18.1124609708786,3,3,3,3,-9.76,0.42,-1.54,-0.71,-0.36,0.15
18.12246096134186,3,3,3,3,-9.74,0.43,-1.51,-0.72,-0.37,0.15
18.13246095180511,3,3,3,3,-9.67,0.46,-1.41,-0.65,-0.39,0.19
18.14246094226837,3,3,3,3,-9.640000000000001,0.32,-1.54,-0.65,-0.41,0.21
18.15246093273163,3,3,3,3,-9.69,0.32,-1.41,-0.44,-0.5600000000000001,0.29
18.16246092319489,3,3,3,3,-9.69,0.26,-1.41,-0.43,-0.63,0.33
18.17246091365814,3,3,3,3,-9.69,0.23,-1.41,-0.44,-0.76,0.37
18.1824609041214,3,3,3,3,-9.74,0.16,-1.25,-0.46,-0.76,0.46
18.19246089458466,3,3,3,3,-9.720000000000001,0.16,-1.35,-0.37,-0.75,0.5
18.20246088504791,3,3,3,3,-9.75,0.18,-1.49,-0.19,-0.62,0.47
18.21246087551117,3,3,3,3,-9.75,0.21,-1.44,0,-0.65,0.5
18.22246086597443,3,3,3,3,-9.67,0.09,-1.41,0.22,-0.63,0.5600000000000001
18.23246085643768,3,3,3,3,-9.69,0.09,-1.39,0.46,-0.64,0.6899999999999999
18.24246108531952,3,3,3,3,-9.640000000000001,0.13,-1.34,0.62,-0.63,0.8
18.28246104717255,3,3,3,3,-9.789999999999999,0.15,-1.27,1.44,-0.93,1.27
18.2924610376358,3,3,3,3,-9.69,0.18,-1.29,1.69,-0.8,1.25
18.30246102809906,3,3,3,3,-9.6,0.14,-1.34,1.8,-0.63,1.28
18.31246101856232,3,3,3,3,-9.529999999999999,0.1,-1.22,2.06,-0.64,1.41
18.32246100902557,3,3,3,3,-9.550000000000001,0,-1.11,2.21,-0.66,1.6
18.33246099948883,3,3,3,3,-9.619999999999999,-0.05,-0.84,2.37,-0.6899999999999999,1.8
18.34246098995209,3,3,3,3,-9.609999999999999,-0.15,-0.76,2.71,-0.29,2.37
18.35246098041534,3,3,3,3,-9.57,-0.24,-0.71,2.71,-0.29,2.37
18.3624609708786,3,3,3,3,-9.48,-0.37,-0.64,2.59,0.07000000000000001,2.71
18.37246096134186,3,3,3,3,-9.51,-0.79,-0.23,2.39,0.5600000000000001,3.08
18.38246095180511,3,3,3,3,-9.640000000000001,-1.35,-0.07000000000000001,2.14,0.95,3.45
18.39246094226837,3,3,3,3,-9.76,-2.2,0.14,2.66,1.2,4.25
18.40246093273163,3,3,3,3,-9.9,-3.08,0.37,3.71,1.56,4.51
18.41246092319489,3,3,3,3,-10.27,-3.78,0.64,4.54,1.28,4.42
18.42246091365814,3,3,3,3,-10.42,-3.87,0.61,4.54,1.28,4.42
18.4324609041214,3,3,3,3,-10.45,-3.87,0.58,4.93,0.02,3.63
18.44246089458466,3,3,3,3,-10.51,-3.8,0.54,5.16,-2,0.21
18.45246088504791,3,3,3,3,-10.6,-4.14,-0.15,5.47,-2.97,-1.94
18.46246087551117,3,3,3,3,-10.79,-4.48,-1.16,7.17,-4.62,-4.46
18.47246086597443,3,3,3,3,-11.27,-5.11,-2.02,7.17,-4.62,-4.46
18.48246085643768,3,3,3,3,-11.99,-5.64,-2.16,10.5,-5.61,-7.97
18.49246108531952,3,3,3,3,-11.17,-5.26,-2.31,15.51,-11.11,-9.65
18.50246107578278,3,3,3,3,-10.15,-3.67,-1.86,15.63,-13.5,-6.79
18.51246106624603,3,3,3,3,-9.48,-1.38,-0.77,13.65,-12.45,-4.2
18.52246105670929,3,3,3,3,-9.01,0.14,-0.32,13.65,-12.45,-4.2
18.53246104717255,3,3,3,3,-10.14,2.7,-1.4,11.47,-9.19,-2.58
18.5424610376358,3,3,3,3,-10.87,2.85,-2.94,11.64,-3.08,-2.52
18.55246102809906,3,3,3,3,-11.73,3.09,-3.67,13.21,-2.11,-3.23
18.56246101856232,3,3,3,3,-12.1,3.32,-3.56,15.05,-2.66,-3.32
18.57246100902557,3,3,3,3,-10.63,3.68,-3.85,15.05,-2.66,-3.32
18.58246099948883,3,3,3,3,-9.949999999999999,3.27,-4.23,17.56,-2.57,-2.88
18.59246098995209,3,3,3,3,-9.630000000000001,2.45,-4.44,21.75,-2.39,-1.87
18.60246098041534,3,3,3,3,-9.470000000000001,1.67,-4.78,23.36,-2.69,-1.43
18.6124609708786,3,3,3,3,-9.5,1.41,-4.56,25.34,-2.83,-0.91
18.62246096134186,3,3,3,3,-9.390000000000001,1.56,-4.23,25.34,-2.83,-0.91
18.63246095180511,3,3,3,3,-9,1.94,-3.88,27.37,-2.78,-0.33
18.64246094226837,3,3,3,3,-8.390000000000001,2.49,-2.98,29.64,-1.73,0.89
18.65246093273163,3,3,3,3,-8.42,2.6,-2.64,29.77,-0.76,1.32
18.66246092319489,3,3,3,3,-8.52,2.45,-2.3,29.74,0.24,1.66
18.67246091365814,3,3,3,3,-8.699999999999999,2.08,-2.08,29.74,0.24,1.66
18.6824609041214,3,3,3,3,-9.119999999999999,1.44,-1.47,29.94,0.77,1.92
18.69246089458466,3,3,3,3,-9.470000000000001,1.5,-1.02,33.14,-0.5,2.55
18.70246088504791,3,3,3,3,-9.779999999999999,1.79,-0.65,35.55,-2.04,2.43
18.71246087551117,3,3,3,3,-9.94,2.14,-0.13,37.21,-2.99,1.8
18.72246086597443,3,3,3,3,-10.16,2.9,0.5,37.21,-2.99,1.8
18.73246085643768,3,3,3,3,-9.85,3.37,0.57,38.44,-3.12,1.01
18.74246108531952,3,3,3,3,-9.140000000000001,3.77,0.4,37.59,-0.84,0.08
18.75246107578278,3,3,3,3,-8.460000000000001,4.15,0,34.73,1.96,0.12
18.76246106624603,3,3,3,3,-8.09,3.36,-1.37,31.95,4.24,0.02
18.77346098423004,3,3,3,3,-8.51,2.79,-1.8,31.95,4.24,0.02
18.7834609746933,3,3,3,3,-9.48,2.42,-1.93,27.26,4.64,-0.49
18.79346096515656,3,3,3,3,-10,3.27,-1.52,16.64,-3.1,-0.93
18.80346095561981,3,3,3,3,-9.35,1.95,0.08,12.2,-6.9,-0.75
18.81346094608307,3,3,3,3,-8.73,1.04,-0.03,9.67,-4.71,-0.34
18.82346093654633,3,3,3,3,-9.31,2.77,0.26,9.67,-4.71,-0.34
18.83346092700958,3,3,3,3,-9.199999999999999,5.42,1.4,6.38,-3.48,1.52
18.84346091747284,3,3,3,3,-7.88,9.35,-2.02,-2.75,1.98,2.56
18.8534609079361,3,3,3,3,-7.76,10.46,-2.18,-4.44,5.71,1.25
