timestamp,magCalib,accCalib,gyrCalib,sysCalib,accX,accY,accZ,gyrX,gyrY,gyrZ
-0.3005391359329224,3,3,3,3,-9.65,-0.97,-1.47,-0.38,0.28,0.14
-0.2705389261245728,3,3,3,3,-9.68,-0.82,-1.55,-0.12,0.21,0.07000000000000001
-0.2605389356613159,3,3,3,3,-9.720000000000001,-0.8,-1.54,-0.17,0.2,0.17
-0.2505389451980591,3,3,3,3,-9.699999999999999,-0.68,-1.48,-0.12,0.12,0.18
-0.2405389547348022,3,3,3,3,-9.69,-0.8100000000000001,-1.43,-0.25,0.12,0.16
-0.2305389642715454,3,3,3,3,-9.630000000000001,-0.84,-1.47,-0.19,0.12,0.2
-0.2205389738082886,3,3,3,3,-9.59,-0.88,-1.52,-0.16,0.22,0.22
-0.1805390119552612,3,3,3,3,-9.69,-0.77,-1.43,-0.28,0.01,0.06
-0.1705390214920044,3,3,3,3,-9.699999999999999,-0.6899999999999999,-1.47,-0.26,0.03,0.01
-0.1605390310287476,3,3,3,3,-9.69,-0.77,-1.61,-0.32,0.08,-0.03
-0.1505390405654907,3,3,3,3,-9.67,-0.79,-1.55,-0.39,0.04,-0.06
-0.1405390501022339,3,3,3,3,-9.67,-0.88,-1.6,-0.43,0.01,0.01
-0.1305390596389771,3,3,3,3,-9.640000000000001,-0.83,-1.53,-0.31,0.01,0.04
-0.1205390691757202,3,3,3,3,-9.640000000000001,-0.79,-1.63,-0.14,0.05,0.08
-0.1105390787124634,3,3,3,3,-9.699999999999999,-0.93,-1.6,-0.07000000000000001,0.13,0.1
-0.1005390882492065,3,3,3,3,-9.69,-0.9399999999999999,-1.53,0,0.09,0.14
-0.09053909778594971,3,3,3,3,-9.68,-0.85,-1.55,0.15,0.06,0.11
-0.08053910732269287,3,3,3,3,-9.619999999999999,-0.8,-1.52,0.2,-0.02,0.09
-0.07053911685943604,3,3,3,3,-9.640000000000001,-0.79,-1.54,0.11,0.06,0.09
-0.0605391263961792,3,3,3,3,-9.66,-0.79,-1.53,-0.01,0.1,0.04
-0.05053913593292236,3,3,3,3,-9.619999999999999,-0.65,-1.46,-0.01,0.02,-0.01
-0.04053890705108643,3,3,3,3,-9.69,-0.74,-1.49,-0.06,0.06,-0.1
-0.03053891658782959,3,3,3,3,-9.720000000000001,-0.78,-1.49,-0.29,0.09,-0.05
-0.02053892612457275,3,3,3,3,-9.73,-0.75,-1.55,-0.28,0.11,0.02
-0.009539008140563965,3,3,3,3,-9.630000000000001,-0.72,-1.49,-0.28,0.11,-0.01
0.0004609823226928711,3,3,3,3,-9.640000000000001,-0.71,-1.51,-0.33,0.12,-0.03
0.01046097278594971,3,3,3,3,-9.68,-0.7,-1.47,-0.28,0.05,-0.04
0.02046096324920654,3,3,3,3,-9.67,-0.74,-1.43,-0.2,0.02,-0.06
0.03046095371246338,3,3,3,3,-9.68,-0.87,-1.55,-0.22,-0.05,-0.05
0.04046094417572021,3,3,3,3,-9.67,-0.83,-1.53,-0.27,0.01,-0.02
0.05046093463897705,3,3,3,3,-9.619999999999999,-0.77,-1.56,-0.18,0,0.05
0.06046092510223389,3,3,3,3,-9.66,-0.79,-1.47,-0.1,0.03,0.03
0.07046091556549072,3,3,3,3,-9.68,-0.85,-1.52,-0.2,-0.07000000000000001,0.07000000000000001
0.08046090602874756,3,3,3,3,-9.65,-0.85,-1.58,-0.33,-0.03,0.05
0.09046089649200439,3,3,3,3,-9.66,-0.88,-1.57,-0.28,-0.02,0.04
0.1004608869552612,3,3,3,3,-9.67,-0.89,-1.52,-0.2,-0.01,-0.01
0.1104608774185181,3,3,3,3,-9.710000000000001,-0.84,-1.53,-0.11,-0.06,-0.04
0.1204608678817749,3,3,3,3,-9.69,-0.89,-1.5,-0.08,-0.08,-0.04
0.1304608583450317,3,3,3,3,-9.69,-0.98,-1.59,-0.16,0,-0.03
0.1404610872268677,3,3,3,3,-9.619999999999999,-0.93,-1.6,-0.1,0.06,0.02
0.1504610776901245,3,3,3,3,-9.630000000000001,-0.87,-1.5,0.03,-0.01,-0.01
0.1604610681533813,3,3,3,3,-9.66,-0.86,-1.48,0.05,0.04,-0.03
0.1704610586166382,3,3,3,3,-9.68,-0.84,-1.5,0.09,0.02,-0.06
0.180461049079895,3,3,3,3,-9.710000000000001,-0.82,-1.57,0.1,-0.05,-0.02
0.1904610395431519,3,3,3,3,-9.67,-0.8100000000000001,-1.51,0.19,0,-0.08
0.2004610300064087,3,3,3,3,-9.69,-0.79,-1.47,0.18,-0.03,-0.07000000000000001
0.2104610204696655,3,3,3,3,-9.66,-0.77,-1.52,0.14,0,-0.06
0.2204610109329224,3,3,3,3,-9.69,-0.83,-1.47,0.1,-0.05,-0.07000000000000001
0.2304610013961792,3,3,3,3,-9.67,-0.9,-1.62,0.03,-0.06,0.01
0.240460991859436,3,3,3,3,-9.640000000000001,-0.86,-1.54,-0.03,-0.04,0.02
0.2504609823226929,3,3,3,3,-9.67,-0.91,-1.49,0.08,-0.05,0.01
0.2604609727859497,3,3,3,3,-9.65,-0.88,-1.51,0.08,-0.08,0.01
0.2704609632492065,3,3,3,3,-9.66,-0.78,-1.51,0.18,-0.07000000000000001,0
0.2804609537124634,3,3,3,3,-9.68,-0.76,-1.57,0.21,-0.09,-0.1
0.2904609441757202,3,3,3,3,-9.69,-0.74,-1.55,0.32,-0.12,-0.1
0.3004609346389771,3,3,3,3,-9.710000000000001,-0.77,-1.49,0.23,-0.13,-0.07000000000000001
0.3104609251022339,3,3,3,3,-9.630000000000001,-0.72,-1.44,0.2,-0.16,-0.09
0.3204609155654907,3,3,3,3,-9.67,-0.77,-1.44,0.19,-0.1,-0.13
0.3304609060287476,3,3,3,3,-9.67,-0.74,-1.55,0.32,-0.08,-0.12
0.3404608964920044,3,3,3,3,-9.640000000000001,-0.66,-1.52,0.37,-0.14,-0.15
0.3504608869552612,3,3,3,3,-9.640000000000001,-0.71,-1.4,0.39,-0.13,-0.24
0.3604608774185181,3,3,3,3,-9.699999999999999,-0.78,-1.42,0.32,-0.02,-0.17
0.3704608678817749,3,3,3,3,-9.67,-0.6899999999999999,-1.43,0.43,-0.1,-0.1
0.3804608583450317,3,3,3,3,-9.640000000000001,-0.64,-1.47,0.36,-0.12,-0.1
0.3904610872268677,3,3,3,3,-9.619999999999999,-0.75,-1.42,0.25,-0.11,-0.06
0.4004610776901245,3,3,3,3,-9.67,-0.77,-1.43,0.34,-0.1,-0.04
0.4104610681533813,3,3,3,3,-9.699999999999999,-0.79,-1.43,0.38,-0.18,-0.08
0.4204610586166382,3,3,3,3,-9.68,-0.8100000000000001,-1.44,0.46,-0.24,-0.1
0.430461049079895,3,3,3,3,-9.710000000000001,-0.85,-1.56,0.5600000000000001,-0.26,-0.16
0.4404610395431519,3,3,3,3,-9.69,-0.79,-1.55,0.57,-0.24,-0.23
0.4504610300064087,3,3,3,3,-9.65,-0.74,-1.44,0.61,-0.27,-0.27
0.4604610204696655,3,3,3,3,-9.619999999999999,-0.79,-1.37,0.55,-0.23,-0.26
0.4704610109329224,3,3,3,3,-9.65,-0.6899999999999999,-1.46,0.57,-0.17,-0.23
0.4804610013961792,3,3,3,3,-9.68,-0.76,-1.45,0.53,-0.05,-0.26
0.490460991859436,3,3,3,3,-9.66,-0.8100000000000001,-1.45,0.53,-0.03,-0.28
0.5004609823226929,3,3,3,3,-9.69,-0.8100000000000001,-1.45,0.58,-0.05,-0.32
0.5104609727859497,3,3,3,3,-9.66,-0.77,-1.39,0.64,-0.22,-0.41
0.5204609632492065,3,3,3,3,-9.66,-0.85,-1.34,0.79,-0.24,-0.45
0.5304609537124634,3,3,3,3,-9.66,-0.87,-1.52,0.96,-0.34,-0.49
0.5404609441757202,3,3,3,3,-9.640000000000001,-0.8100000000000001,-1.53,1.12,-0.38,-0.5
0.5504609346389771,3,3,3,3,-9.73,-0.92,-1.44,0.91,-0.34,-0.51
0.5604609251022339,3,3,3,3,-9.710000000000001,-0.9399999999999999,-1.44,0.57,-0.38,-0.38
0.5704609155654907,3,3,3,3,-9.699999999999999,-0.91,-1.43,0.53,-0.46,-0.3
0.5804609060287476,3,3,3,3,-9.66,-0.92,-1.53,0.5,-0.6,-0.32
0.5904608964920044,3,3,3,3,-9.65,-1.01,-1.37,0.41,-0.6,-0.28
0.6004608869552612,3,3,3,3,-9.619999999999999,-1,-1.42,0.52,-0.51,-0.22
0.6104608774185181,3,3,3,3,-9.619999999999999,-0.99,-1.36,0.64,-0.51,-0.29
0.6204608678817749,3,3,3,3,-9.59,-0.9,-1.4,0.6899999999999999,-0.54,-0.33
0.6304608583450317,3,3,3,3,-9.699999999999999,-0.91,-1.51,0.44,-0.32,-0.32
0.6404610872268677,3,3,3,3,-9.73,-0.95,-1.35,0,-0.06,-0.2
0.6504610776901245,3,3,3,3,-9.699999999999999,-1.04,-1.34,-0.16,0.08,-0.02
0.6604610681533813,3,3,3,3,-9.720000000000001,-1.03,-1.43,-0.13,0.14,0.05
0.6704610586166382,3,3,3,3,-9.6,-0.9399999999999999,-1.42,0.05,0.02,-0.01
0.680461049079895,3,3,3,3,-9.67,-1.01,-1.49,0.05,-0.06,-0.18
0.6904610395431519,3,3,3,3,-9.68,-1.02,-1.42,-0.17,0.01,-0.17
0.7004610300064087,3,3,3,3,-9.66,-0.97,-1.41,-0.24,0.1,-0.11
0.7104610204696655,3,3,3,3,-9.67,-0.92,-1.41,-0.28,0.28,0.01
0.7204610109329224,3,3,3,3,-9.65,-0.95,-1.33,-0.41,0.29,0.04
0.7304610013961792,3,3,3,3,-9.619999999999999,-0.92,-1.48,-0.25,0.23,0.13
0.740460991859436,3,3,3,3,-9.68,-0.8100000000000001,-1.39,-0.13,0.1,0.03
0.7504609823226929,3,3,3,3,-9.69,-0.91,-1.32,-0.16,0.05,0
0.7604609727859497,3,3,3,3,-9.69,-0.89,-1.35,-0.11,-0.1,-0.04
0.7704609632492065,3,3,3,3,-9.699999999999999,-0.8100000000000001,-1.33,0.15,-0.14,-0.08
0.7804609537124634,3,3,3,3,-9.67,-0.76,-1.44,0.11,-0.24,-0.21
0.8104609251022339,3,3,3,3,-9.710000000000001,-0.88,-1.24,-0.44,0.06,-0.12
0.8404608964920044,3,3,3,3,-9.65,-1,-1.42,0.06,0.06,0.12
0.8504608869552612,3,3,3,3,-9.58,-0.96,-1.45,0.38,-0.17,-0.02
0.8604608774185181,3,3,3,3,-9.699999999999999,-0.99,-1.38,0.5600000000000001,-0.28,-0.13
0.8704608678817749,3,3,3,3,-9.66,-0.97,-1.43,0.48,-0.39,-0.18
0.8804608583450317,3,3,3,3,-9.65,-0.95,-1.48,0.49,-0.39,-0.17
0.8904610872268677,3,3,3,3,-9.699999999999999,-0.96,-1.41,0.43,-0.24,-0.18
0.9004610776901245,3,3,3,3,-9.67,-1.01,-1.3,0.26,-0.17,-0.16
0.9104610681533813,3,3,3,3,-9.699999999999999,-1,-1.33,0.32,-0.15,-0.13
0.9204610586166382,3,3,3,3,-9.640000000000001,-0.97,-1.36,0.45,-0.07000000000000001,-0.16
0.930461049079895,3,3,3,3,-9.65,-0.96,-1.44,0.58,-0.15,-0.2
0.9504610300064087,3,3,3,3,-9.710000000000001,-0.92,-1.32,0.26,-0.02,-0.26
0.9804610013961792,3,3,3,3,-9.66,-0.9,-1.41,-0.01,0.04,-0.12
1.021460890769958,3,3,3,3,-9.77,-0.93,-1.35,0,0.12,-0.2
1.031460881233215,3,3,3,3,-9.710000000000001,-0.9,-1.41,-0.3,0.25,-0.14
1.041460871696472,3,3,3,3,-9.68,-0.83,-1.42,-0.25,0.09,-0.06
1.051460862159729,3,3,3,3,-9.699999999999999,-0.8,-1.32,-0.41,0.08,-0.02
1.061461091041565,3,3,3,3,-9.65,-0.91,-1.23,-0.45,0.17,0.08
1.071461081504822,3,3,3,3,-9.619999999999999,-0.79,-1.29,-0.36,0.07000000000000001,0.12
1.081461071968079,3,3,3,3,-9.6,-0.67,-1.37,-0.14,0.01,-0.04
1.091461062431335,3,3,3,3,-9.56,-0.57,-1.34,-0.25,-0.07000000000000001,-0.13
1.101461052894592,3,3,3,3,-9.550000000000001,-0.39,-1.28,-0.6,0.02,-0.15
1.111461043357849,3,3,3,3,-9.69,-0.43,-1.29,-1.04,0.19,-0.07000000000000001
1.121461033821106,3,3,3,3,-9.779999999999999,-0.54,-1.2,-1.81,0.54,0.22
1.131461024284363,3,3,3,3,-9.65,-0.59,-1.32,-1.88,0.37,0.51
1.14146101474762,3,3,3,3,-9.69,-0.44,-1.33,-1.69,0.35,0.5600000000000001
1.151461005210876,3,3,3,3,-9.609999999999999,-0.38,-1.29,-1.52,0.18,0.45
1.161460995674133,3,3,3,3,-9.6,-0.28,-1.2,-1.25,-0.05,0.46
1.17146098613739,3,3,3,3,-9.619999999999999,-0.15,-1.2,-1.17,-0.17,0.54
1.181460976600647,3,3,3,3,-9.83,-0.14,-1.12,-1.52,-0.09,0.65
1.191460967063904,3,3,3,3,-9.77,-0.2,-1.08,-2,0.01,0.86
1.201460957527161,3,3,3,3,-9.67,-0.06,-1.15,-1.92,0.02,1.22
1.211460947990417,3,3,3,3,-9.59,0,-1.16,-1.79,0.06,1.41
1.221460938453674,3,3,3,3,-9.359999999999999,0.3,-0.97,-1.81,-0.02,1.58
1.231460928916931,3,3,3,3,-9.279999999999999,0.77,-0.95,-1.51,-0.4,1.77
1.241460919380188,3,3,3,3,-9.31,1.33,-0.84,-1.2,-0.58,1.82
1.251460909843445,3,3,3,3,-9.529999999999999,1.85,-0.7,-1.45,-0.73,2.27
1.261460900306702,3,3,3,3,-9.470000000000001,1.82,-0.5600000000000001,-2.2,-1.08,3.19
1.271460890769958,3,3,3,3,-9.630000000000001,1.06,-0.6,-3.22,-1.04,3.93
1.281460881233215,3,3,3,3,-9.800000000000001,0.51,-1,-3.68,-0.97,3.89
1.291460871696472,3,3,3,3,-9.960000000000001,0.28,-1.17,-3.34,-1.46,3.76
1.301460862159729,3,3,3,3,-9.98,-0.9399999999999999,-1.39,-2.84,-1.63,3.86
1.311461091041565,3,3,3,3,-9.82,-1.49,-1.46,-2.38,-1.8,3.94
1.321461081504822,3,3,3,3,-9.75,-1.46,-1.46,-1.18,-2.44,3.62
1.331461071968079,3,3,3,3,-9.81,-1.44,-1.45,0.3,-2.65,3.13
1.341461062431335,3,3,3,3,-9.859999999999999,-1.02,-1.45,1.56,-2.89,2.81
1.351461052894592,3,3,3,3,-9.880000000000001,-1.03,-1.47,2.64,-2.93,2.65
1.361461043357849,3,3,3,3,-9.85,-1.28,-1.39,2.47,-2.63,2.6
1.371461033821106,3,3,3,3,-9.880000000000001,-2.03,-1.47,1.83,-2.07,2.61
1.381461024284363,3,3,3,3,-9.81,-2.43,-2.16,1.05,-1.44,2.54
1.39146101474762,3,3,3,3,-9.82,-2.39,-2.16,0.82,-1.27,2.35
1.401461005210876,3,3,3,3,-9.800000000000001,-2.52,-1.99,1.06,-1,1.94
1.411460995674133,3,3,3,3,-9.83,-2.39,-1.94,1.7,-0.97,1.33
1.42146098613739,3,3,3,3,-9.99,-1.92,-1.95,2.1,-0.7,0.71
1.431460976600647,3,3,3,3,-9.93,-1.82,-2.09,1.66,-0.44,0.28
1.441460967063904,3,3,3,3,-9.85,-1.48,-2.08,0.86,-0.39,-0.03
1.451460957527161,3,3,3,3,-9.880000000000001,-1.16,-1.93,0.36,-0.03,-0.19
1.461460947990417,3,3,3,3,-9.84,-1.08,-1.56,-0.21,0.26,-0.28
1.471460938453674,3,3,3,3,-9.92,-0.95,-1.36,-0.78,0.39,-0.5
1.481460928916931,3,3,3,3,-10.04,-0.68,-1.25,-0.71,0.47,-0.77
1.491460919380188,3,3,3,3,-10.18,-0.4,-1.09,-0.54,0.5,-1.03
1.501460909843445,3,3,3,3,-10.21,-0.26,-0.8100000000000001,-0.37,0.41,-1.09
1.511460900306702,3,3,3,3,-10.1,-0.27,-0.73,-0.21,0.27,-1.02
1.521460890769958,3,3,3,3,-9.98,-0.45,-0.7,-0.05,0.35,-0.98
1.531460881233215,3,3,3,3,-9.84,-0.67,-0.86,0.04,0.29,-0.88
1.561461091041565,3,3,3,3,-9.67,-0.38,-1.25,0.9,0.43,-0.75
1.571461081504822,3,3,3,3,-9.58,-0.25,-1.2,0.92,0.53,-0.8100000000000001
1.581461071968079,3,3,3,3,-9.49,-0.35,-1.57,0.86,0.76,-0.97
1.591461062431335,3,3,3,3,-9.51,-0.43,-1.6,0.61,0.82,-1.02
1.601461052894592,3,3,3,3,-9.550000000000001,-0.27,-1.66,0.58,0.75,-1
1.611461043357849,3,3,3,3,-9.630000000000001,-0.6899999999999999,-1.3,0.34,0.55,-0.99
1.621461033821106,3,3,3,3,-9.49,-0.65,-1.21,0.13,0.45,-0.8
1.631461024284363,3,3,3,3,-9.42,-0.35,-1.27,0.61,0.66,-0.87
1.64146101474762,3,3,3,3,-9.460000000000001,-0.16,-1.25,0.6899999999999999,0.7,-0.96
1.651461005210876,3,3,3,3,-9.59,-0.01,-1.03,0.6899999999999999,0.7,-0.96
1.661460995674133,3,3,3,3,-9.65,0.2,-0.89,0.44,0.57,-1.08
1.67146098613739,3,3,3,3,-9.82,0.31,-0.72,-0.07000000000000001,0.48,-1.2
1.681460976600647,3,3,3,3,-9.98,0.35,-0.75,-0.2,0.42,-1.13
1.691460967063904,3,3,3,3,-10.18,0.45,-0.92,-0.06,0.49,-0.9399999999999999
1.701460957527161,3,3,3,3,-10.07,0.41,-1.05,-0.06,0.49,-0.9399999999999999
1.711460947990417,3,3,3,3,-10,-0.05,-0.95,-0.49,0.52,-0.7
1.721460938453674,3,3,3,3,-9.779999999999999,-0.47,-0.89,-1.14,0.52,-0.35
1.731460928916931,3,3,3,3,-9.630000000000001,-0.71,-1.42,-1.05,0.59,-0.4
1.741460919380188,3,3,3,3,-9.69,-0.96,-1.41,-0.98,0.6,-0.48
1.751460909843445,3,3,3,3,-9.609999999999999,-1.04,-1.47,-0.98,0.6,-0.48
1.761460900306702,3,3,3,3,-9.550000000000001,-0.97,-1.65,-0.33,0.58,-0.75
1.771460890769958,3,3,3,3,-9.720000000000001,-1.07,-1.78,-0.63,0.58,-0.76
1.781460881233215,3,3,3,3,-9.66,-1.4,-1.7,-0.2,0.57,-0.6
1.791460871696472,3,3,3,3,-9.59,-1.37,-1.69,0.17,0.6899999999999999,-0.67
1.801460862159729,3,3,3,3,-9.619999999999999,-1.27,-1.63,0.17,0.6899999999999999,-0.67
1.811461091041565,3,3,3,3,-9.65,-1.19,-1.38,0.52,0.62,-0.8
1.821461081504822,3,3,3,3,-9.68,-1.04,-1.38,0.86,0.6,-0.95
1.831461071968079,3,3,3,3,-9.720000000000001,-0.93,-1.37,1.12,0.55,-1.23
1.841461062431335,3,3,3,3,-9.73,-0.79,-1.26,0.85,0.6,-1.2
1.851461052894592,3,3,3,3,-9.85,-0.5,-1.23,0.85,0.6,-1.2
1.861461043357849,3,3,3,3,-9.880000000000001,-0.5,-1.17,0.78,0.6,-1.1
1.871461033821106,3,3,3,3,-9.81,-0.42,-1.26,0.51,0.5600000000000001,-1.19
1.881461024284363,3,3,3,3,-9.76,-0.28,-1.41,0.01,0.45,-1.23
1.89146101474762,3,3,3,3,-9.779999999999999,-0.51,-1.24,-0.04,0.44,-1.28
1.901461005210876,3,3,3,3,-9.73,-0.58,-1.17,-0.04,0.44,-1.28
1.911460995674133,3,3,3,3,-9.720000000000001,-0.53,-1.22,0.02,0.51,-1.3
1.92146098613739,3,3,3,3,-9.73,-0.47,-1.25,-0.31,0.44,-1.14
1.931460976600647,3,3,3,3,-9.75,-0.58,-1.53,-0.52,0.46,-0.95
1.941460967063904,3,3,3,3,-9.73,-0.78,-1.44,-0.42,0.53,-0.86
1.951460957527161,3,3,3,3,-9.67,-0.95,-1.42,-0.42,0.53,-0.86
1.961460947990417,3,3,3,3,-9.619999999999999,-0.96,-1.52,-0.24,0.59,-0.8
1.971460938453674,3,3,3,3,-9.65,-0.9,-1.58,-0.25,0.36,-0.9
1.981460928916931,3,3,3,3,-9.68,-1.02,-1.54,0.07000000000000001,0.34,-0.93
1.991460919380188,3,3,3,3,-9.67,-1.07,-1.41,0.57,0.38,-1
2.001460909843445,3,3,3,3,-9.619999999999999,-1.07,-1.4,0.57,0.38,-1
2.011460900306702,3,3,3,3,-9.66,-0.87,-1.51,0.92,0.31,-1.14
2.021460890769958,3,3,3,3,-9.699999999999999,-0.85,-1.52,0.53,0.27,-1.11
2.042461037635803,3,3,3,3,-9.74,-0.97,-1.5,0.7,0.19,-1.2
2.05246102809906,3,3,3,3,-9.640000000000001,-0.8,-1.44,0.7,0.19,-1.2
2.062461018562317,3,3,3,3,-9.66,-0.84,-1.48,0.66,0.19,-1.3
2.072461009025574,3,3,3,3,-9.630000000000001,-0.78,-1.57,0.4,0.22,-1.31
2.082460999488831,3,3,3,3,-9.65,-0.9,-1.62,0.42,0.06,-1.2
2.092460989952087,3,3,3,3,-9.58,-1,-1.45,1.02,0.14,-1.39
2.102460980415344,3,3,3,3,-9.59,-0.98,-1.47,1.02,0.14,-1.39
2.112460970878601,3,3,3,3,-9.65,-0.93,-1.48,1.3,0.03,-1.6
2.122460961341858,3,3,3,3,-9.699999999999999,-0.9,-1.47,1.28,-0.15,-1.65
2.132460951805115,3,3,3,3,-9.68,-0.79,-1.56,0.67,-0.07000000000000001,-1.37
2.142460942268372,3,3,3,3,-9.68,-0.74,-1.49,0.54,-0.07000000000000001,-1.14
2.152460932731628,3,3,3,3,-9.69,-0.9,-1.27,0.54,-0.07000000000000001,-1.14
2.162460923194885,3,3,3,3,-9.619999999999999,-0.96,-1.22,0.96,-0.17,-1.04
2.172460913658142,3,3,3,3,-9.609999999999999,-0.73,-1.43,1.1,-0.01,-1.05
2.182460904121399,3,3,3,3,-9.77,-0.88,-1.44,1.42,-0.28,-1.05
2.192460894584656,3,3,3,3,-9.68,-0.93,-1.39,1.66,-0.28,-1.19
2.202460885047913,3,3,3,3,-9.609999999999999,-0.85,-1.41,1.66,-0.28,-1.19
2.212460875511169,3,3,3,3,-9.59,-0.63,-1.42,1.37,-0.14,-1.11
2.222460865974426,3,3,3,3,-9.6,-0.74,-1.35,0.96,-0.13,-0.9
2.232460856437683,3,3,3,3,-9.609999999999999,-0.66,-1.47,0.13,0.13,-0.59
2.242461085319519,3,3,3,3,-9.65,-0.59,-1.46,-0.22,0.26,-0.42
2.252461075782776,3,3,3,3,-9.720000000000001,-0.79,-1.24,-0.22,0.26,-0.42
2.262461066246033,3,3,3,3,-9.640000000000001,-0.85,-1.24,-0.09,0.21,-0.31
2.27246105670929,3,3,3,3,-9.68,-0.92,-1.29,0.47,-0.19,-0.53
2.282461047172546,3,3,3,3,-9.720000000000001,-0.99,-1.34,1.06,-0.46,-0.72
2.292461037635803,3,3,3,3,-9.65,-0.89,-1.4,1.05,-0.49,-0.93
2.30246102809906,3,3,3,3,-9.619999999999999,-0.8100000000000001,-1.41,1.05,-0.49,-0.93
2.312461018562317,3,3,3,3,-9.66,-0.74,-1.37,0.8100000000000001,-0.31,-0.76
2.322461009025574,3,3,3,3,-9.720000000000001,-0.85,-1.25,0.71,-0.2,-0.53
2.332460999488831,3,3,3,3,-9.66,-0.83,-1.46,0.2,0.34,-0.21
2.342460989952087,3,3,3,3,-9.720000000000001,-0.92,-1.3,0.36,0.13,-0.07000000000000001
2.352460980415344,3,3,3,3,-9.76,-1.03,-1.29,0.36,0.13,-0.07000000000000001
2.362460970878601,3,3,3,3,-9.6,-0.99,-1.27,0.75,-0.09,-0.18
2.372460961341858,3,3,3,3,-9.539999999999999,-0.9399999999999999,-1.32,0.93,-0.34,-0.44
2.382460951805115,3,3,3,3,-9.5,-0.85,-1.41,-0.11,-0.28,-0.74
2.392460942268372,3,3,3,3,-9.640000000000001,-0.76,-1.41,-0.85,-0.08,-0.37
2.402460932731628,3,3,3,3,-9.68,-0.73,-1.27,-0.85,-0.08,-0.37
2.412460923194885,3,3,3,3,-9.720000000000001,-0.92,-1.18,-1.15,0.33,0.02
2.422460913658142,3,3,3,3,-9.69,-0.95,-1.2,-1.35,0.58,0.33
2.432460904121399,3,3,3,3,-9.75,-1.03,-1.34,-0.82,0.1,0.41
2.442460894584656,3,3,3,3,-9.6,-0.98,-1.32,-0.5,-0.16,0.09
2.452460885047913,3,3,3,3,-9.609999999999999,-0.99,-1.32,-0.5,-0.16,0.09
2.462460875511169,3,3,3,3,-9.59,-1.01,-1.33,-0.25,-0.47,-0.11
2.472460865974426,3,3,3,3,-9.630000000000001,-1.02,-1.34,-0.32,-0.48,-0.26
2.482460856437683,3,3,3,3,-9.73,-1.05,-1.4,-0.25,-0.39,-0.36
2.492461085319519,3,3,3,3,-9.74,-1.1,-1.36,-0.23,-0.35,-0.29
2.502461075782776,3,3,3,3,-9.710000000000001,-1.17,-1.33,-0.23,-0.35,-0.29
2.512461066246033,3,3,3,3,-9.74,-1.23,-1.27,-0.32,-0.11,-0.19
2.52246105670929,3,3,3,3,-9.73,-1.3,-1.31,0.28,-0.29,0.01
2.532461047172546,3,3,3,3,-9.6,-1.27,-1.39,0.37,-0.13,-0.2
2.542461037635803,3,3,3,3,-9.51,-1.11,-1.43,-0.04,0.14,-0.13
2.55246102809906,3,3,3,3,-9.57,-1.05,-1.42,-0.04,0.14,-0.13
2.562461018562317,3,3,3,3,-9.640000000000001,-1.15,-1.3,-0.21,0.24,0.07000000000000001
2.572461009025574,3,3,3,3,-9.619999999999999,-1.07,-1.38,0.18,0.1,-0.16
2.582460999488831,3,3,3,3,-9.630000000000001,-1.07,-1.47,0.36,-0.21,-0.31
2.592460989952087,3,3,3,3,-9.630000000000001,-1.08,-1.44,0.52,-0.35,-0.54
2.602460980415344,3,3,3,3,-9.630000000000001,-0.96,-1.34,0.52,-0.35,-0.54
2.612460970878601,3,3,3,3,-9.640000000000001,-0.85,-1.31,0.67,-0.45,-0.7
2.622460961341858,3,3,3,3,-9.699999999999999,-0.78,-1.26,0.27,-0.49,-0.76
2.632460951805115,3,3,3,3,-9.68,-0.6899999999999999,-1.33,-0.46,-0.06,-0.55
2.642460942268372,3,3,3,3,-9.699999999999999,-0.48,-1.3,-1.39,0.36,-0.15
2.652460932731628,3,3,3,3,-9.82,-0.71,-1.14,-1.39,0.36,-0.15
2.662460923194885,3,3,3,3,-9.74,-0.85,-1.02,-1.38,0.37,0.19
2.672460913658142,3,3,3,3,-9.630000000000001,-0.85,-1.18,-0.92,0.22,-0.15
2.682460904121399,3,3,3,3,-9.57,-0.84,-1.39,-0.82,-0.09,-0.26
2.692460894584656,3,3,3,3,-9.6,-0.8100000000000001,-1.37,-1.23,-0.11,-0.2
2.702460885047913,3,3,3,3,-9.59,-0.84,-1.34,-1.23,-0.11,-0.2
2.712460875511169,3,3,3,3,-9.66,-0.98,-1.29,-1.61,0.15,0.1
2.722460865974426,3,3,3,3,-9.69,-1.06,-1.37,-1.67,0.67,0.53
2.732460856437683,3,3,3,3,-9.69,-1.09,-1.46,-1.29,0.6899999999999999,0.57
2.742461085319519,3,3,3,3,-9.699999999999999,-1.09,-1.37,-0.92,0.42,0.55
2.752461075782776,3,3,3,3,-9.69,-1.12,-1.3,-0.92,0.42,0.55
2.762461066246033,3,3,3,3,-9.539999999999999,-0.99,-1.19,-0.34,0.05,0.3
2.77246105670929,3,3,3,3,-9.529999999999999,-0.85,-1.16,0.31,-0.34,-0.13
2.782461047172546,3,3,3,3,-9.470000000000001,-0.55,-1.27,-0.41,-0.13,0.11
2.822461009025574,3,3,3,3,-9.73,-0.5,-1.29,-2.31,0.64,1.21
2.832460999488831,3,3,3,3,-9.84,-0.85,-1.45,-1.82,0.17,1.01
2.842460989952087,3,3,3,3,-9.640000000000001,-0.99,-1.56,-1.29,-0.04,0.71
2.852460980415344,3,3,3,3,-9.619999999999999,-0.96,-1.56,-1.29,-0.04,0.71
2.862460970878601,3,3,3,3,-9.66,-1.04,-1.52,-1.06,-0.24,0.55
2.872460961341858,3,3,3,3,-9.65,-1.03,-1.56,-1.85,0.05,0.85
2.882460951805115,3,3,3,3,-9.890000000000001,-1.35,-1.51,-1.74,-0.05,1.15
2.892460942268372,3,3,3,3,-9.84,-1.64,-1.33,-1.01,-0.05,0.92
2.902460932731628,3,3,3,3,-9.82,-1.72,-1.44,-1.01,-0.05,0.92
2.912460923194885,3,3,3,3,-9.800000000000001,-1.79,-1.55,-0.04,-0.24,0.53
2.922460913658142,3,3,3,3,-9.74,-1.8,-1.73,1.07,-0.54,0.13
2.932460904121399,3,3,3,3,-9.640000000000001,-1.59,-1.94,0.7,-0.3,0.1
2.942460894584656,3,3,3,3,-9.67,-1.65,-1.78,0.65,-0.16,0.17
2.952460885047913,3,3,3,3,-9.609999999999999,-1.8,-1.58,0.65,-0.16,0.17
2.962460875511169,3,3,3,3,-9.539999999999999,-1.64,-1.56,0.84,-0.06,0.02
2.972460865974426,3,3,3,3,-9.609999999999999,-1.55,-1.57,1.14,0,-0.45
2.982460856437683,3,3,3,3,-9.59,-1.51,-1.63,1.15,0.1,-0.65
2.992461085319519,3,3,3,3,-9.59,-1.42,-1.69,1,0.06,-0.76
3.002461075782776,3,3,3,3,-9.67,-1.4,-1.54,1,0.06,-0.76
3.012461066246033,3,3,3,3,-9.65,-1.53,-1.48,0.89,-0.02,-0.82
3.02246105670929,3,3,3,3,-9.6,-1.46,-1.55,0.35,0.31,-0.83
3.032461047172546,3,3,3,3,-9.619999999999999,-1.23,-1.69,0.38,0.18,-0.83
3.042461037635803,3,3,3,3,-9.51,-1.28,-1.36,0.72,0.06,-0.92
3.05246102809906,3,3,3,3,-9.42,-1.19,-1.35,0.72,0.06,-0.92
3.063460946083069,3,3,3,3,-9.449999999999999,-1.06,-1.36,0.88,-0.02,-1.05
3.073460936546326,3,3,3,3,-9.52,-0.93,-1.33,0.96,-0.11,-1
3.083460927009583,3,3,3,3,-9.67,-0.89,-1.39,0.95,-0.14,-0.91
3.093460917472839,3,3,3,3,-9.67,-0.83,-1.37,0.58,0.14,-0.72
3.103460907936096,3,3,3,3,-9.74,-0.72,-1.39,0.58,0.14,-0.72
3.12346088886261,3,3,3,3,-9.779999999999999,-1.05,-1.07,0.03,0.53,0.15
3.133460879325867,3,3,3,3,-9.67,-0.9,-1.3,0.4,0.32,0.05
3.143460869789124,3,3,3,3,-9.619999999999999,-0.66,-1.29,0.55,-0.06,-0.06
3.15346086025238,3,3,3,3,-9.51,-0.52,-1.2,0.55,-0.06,-0.06
3.163461089134216,3,3,3,3,-9.49,-0.11,-1.04,0.62,-0.24,-0.2
3.173461079597473,3,3,3,3,-9.51,0.02,-0.96,0.06,-0.31,-0.04
3.18346107006073,3,3,3,3,-9.5,0.18,-0.98,-0.51,-0.15,0.29
3.193461060523987,3,3,3,3,-9.359999999999999,0.82,-0.85,-1.48,0.07000000000000001,0.93
3.203461050987244,3,3,3,3,-9.300000000000001,1.13,-0.61,-1.48,0.07000000000000001,0.93
3.2134610414505,3,3,3,3,-9.25,1.34,-0.3,-2.37,0.03,1.81
3.223461031913757,3,3,3,3,-9.050000000000001,1.86,-0.07000000000000001,-2.42,-0.92,3.15
3.233461022377014,3,3,3,3,-8.869999999999999,3.3,-0.27,-3.47,-1.06,3.77
3.243461012840271,3,3,3,3,-9.19,3.56,-0.37,-4.84,-0.98,4.44
3.253461003303528,3,3,3,3,-9.75,3.27,-0.49,-4.84,-0.98,4.44
3.263460993766785,3,3,3,3,-10.23,2.76,-0.66,-5.89,-1.26,4.96
3.273460984230042,3,3,3,3,-10.22,0.83,-0.88,-5.39,-2.22,5.49
3.283460974693298,3,3,3,3,-9.619999999999999,0.06,-0.82,-2.65,-2.47,5.11
3.293460965156555,3,3,3,3,-8.99,0.05,-1.09,-1.18,-2.62,4.81
3.303460955619812,3,3,3,3,-8.74,0.33,-1.09,-1.18,-2.62,4.81
3.313460946083069,3,3,3,3,-8.57,1.01,-0.32,-0.58,-3.26,4.87
3.323460936546326,3,3,3,3,-8.51,1.35,0.08,0.07000000000000001,-4.02,5.98
3.333460927009583,3,3,3,3,-8.25,2.05,0.17,0.05,-4.09,6.73
3.343460917472839,3,3,3,3,-7.82,2.51,0.45,0.92,-4.3,7.4
3.353460907936096,3,3,3,3,-6.83,2.65,1.14,0.92,-4.3,7.4
3.363460898399353,3,3,3,3,-6.82,3.33,0.7,2.75,-4.41,7.88
3.37346088886261,3,3,3,3,-7.13,3.43,0.37,1.72,-4.74,8.880000000000001
3.383460879325867,3,3,3,3,-8.289999999999999,2.09,0.5600000000000001,0.79,-4.42,9.49
3.393460869789124,3,3,3,3,-10.52,0,-0.09,0.77,-3.75,9.6
3.40346086025238,3,3,3,3,-11.15,-0.8100000000000001,-0.62,0.77,-3.75,9.6
3.413461089134216,3,3,3,3,-10.93,-1.86,-1.02,1.65,-4.1,9.35
3.423461079597473,3,3,3,3,-10.07,-3.48,-0.85,2.98,-3.69,8.48
3.43346107006073,3,3,3,3,-8.01,-3.91,-1.78,3.11,-2.98,8.48
3.443461060523987,3,3,3,3,-7.48,-3.99,-1.68,3.87,-2.22,8.369999999999999
3.453461050987244,3,3,3,3,-7.35,-4.21,-1.74,3.87,-2.22,8.369999999999999
3.4634610414505,3,3,3,3,-7.32,-3.72,-2.13,6.57,-2.38,8.039999999999999
3.473461031913757,3,3,3,3,-8.24,1.13,-0.68,14.88,-3.97,7.55
3.483461022377014,3,3,3,3,-9.550000000000001,4.79,-0.1,14.51,-3.85,8.1
3.493461012840271,3,3,3,3,-11.19,7.57,0.06,7.6,-4.16,9
3.503461003303528,3,3,3,3,-12.66,8.76,0.11,7.6,-4.16,9
3.513460993766785,3,3,3,3,-11.48,3.28,-0.68,-3.63,-4.52,9.69
3.523460984230042,3,3,3,3,-9.949999999999999,-0.67,-1.95,-12.59,-3.06,9.369999999999999
3.533460974693298,3,3,3,3,-8.470000000000001,-3.99,-2.72,-7.49,-2.73,8.49
3.543460965156555,3,3,3,3,-7.55,-6.03,-2.68,0.17,-2.48,7.66
3.553460955619812,3,3,3,3,-8,-3.55,-2.07,0.17,-2.48,7.66
3.563460946083069,3,3,3,3,-8.529999999999999,-0.25,-1.52,6.59,-3.23,7.51
3.573460936546326,3,3,3,3,-9.68,2.33,-1.37,9.279999999999999,-3.37,5.79
3.583460927009583,3,3,3,3,-10.76,3.69,-1.29,5.81,-2.68,5.19
3.593460917472839,3,3,3,3,-11.88,2.6,-1.96,1.26,-1.98,4.82
3.603460907936096,3,3,3,3,-11.79,1.33,-2.31,1.26,-1.98,4.82
3.613460898399353,3,3,3,3,-11.54,-0.27,-2.31,-1.34,-0.73,4.33
3.62346088886261,3,3,3,3,-11.51,-0.22,-2.28,-0.04,1.63,4.08
3.633460879325867,3,3,3,3,-11.29,1.46,-1.31,1.68,1.87,4.34
3.643460869789124,3,3,3,3,-11.33,2.99,-0.8,1.05,2.33,4.18
3.65346086025238,3,3,3,3,-11.61,3.33,-0.61,1.05,2.33,4.18
3.663461089134216,3,3,3,3,-11.8,2.54,-0.45,-0.92,2.79,3.68
3.673461079597473,3,3,3,3,-11.75,0.17,-0.59,-2.84,4.39,1.96
3.68346107006073,3,3,3,3,-12.02,-0.43,-0.61,-3.06,4.05,0.83
3.693461060523987,3,3,3,3,-12.33,-1.24,-0.41,-2.71,3.34,-0.11
3.703461050987244,3,3,3,3,-12.66,-1.76,-0.19,-2.71,3.34,-0.11
3.7134610414505,3,3,3,3,-13.51,-1.91,-0.14,-1.48,2.86,-0.8
3.723461031913757,3,3,3,3,-14.11,-1.9,-0.32,1.16,1.61,-2.36
3.733461022377014,3,3,3,3,-14.93,-1.8,-0.58,2.06,0.96,-3.08
3.743461012840271,3,3,3,3,-15.75,-1.96,-0.7,2.16,0.44,-3.7
3.753461003303528,3,3,3,3,-16.75,-2.42,-0.57,2.16,0.44,-3.7
3.763460993766785,3,3,3,3,-16.86,-2.36,-0.34,2.05,-0.09,-4.15
3.773460984230042,3,3,3,3,-17.08,-2.68,-0.23,0.89,-1.07,-4.96
3.783460974693298,3,3,3,3,-17.39,-2.95,-0.72,-0.3,-1.79,-5.72
3.793460965156555,3,3,3,3,-18.37,-4.12,-1.42,-1.49,-2.6,-6.85
3.803460955619812,3,3,3,3,-18.94,-4.5,-1.63,-1.49,-2.6,-6.85
3.813460946083069,3,3,3,3,-19.39,-4.85,-2.08,-2.35,-3.37,-7.63
3.823460936546326,3,3,3,3,-19.65,-5.91,-2.9,-1.59,-2.53,-9.93
3.833460927009583,3,3,3,3,-20.74,-6.91,-3.09,-2.39,-1.82,-11.82
3.843460917472839,3,3,3,3,-20.97,-7.38,-4.88,-1.7,-0.51,-13.4
3.853460907936096,3,3,3,2,-21.73,-6.75,-4.65,-1.7,-0.51,-13.4
3.863460898399353,3,3,3,2,-21.77,-6.56,-5.29,-3.58,0.83,-15.01
3.87346088886261,3,3,3,2,-21.09,-2.68,-5.82,2.93,2.71,-17
3.883460879325867,3,3,3,2,-20.93,1.45,-5.62,3.54,2.77,-17.42
3.893460869789124,3,3,3,2,-20.3,5.13,-4.41,4.15,3.96,-16.43
3.90346086025238,3,3,3,2,-18.83,8.23,-3.48,4.15,3.96,-16.43
3.913461089134216,3,3,3,2,-12.94,11.14,-1.84,2.47,6.6,-15.18
3.923461079597473,3,3,3,2,-10.31,10.29,-0.6,-2.11,10.01,-12.45
3.93346107006073,3,3,3,2,-7.97,8.35,0.14,-2.68,9.449999999999999,-10.82
3.943461060523987,3,3,3,2,-5.43,5.58,1.09,1.41,9.390000000000001,-8.82
3.953461050987244,3,3,3,2,-2.32,2.29,3.3,1.41,9.390000000000001,-8.82
3.983461022377014,3,3,3,2,0.43,16.31,9.6,5.33,1.69,-1.44
3.993461012840271,3,3,3,2,0.1,23,4.47,-3.14,1.85,-0.5600000000000001
4.003461003303528,3,3,3,2,0.2,14.07,1.41,-3.14,1.85,-0.5600000000000001
4.013460993766785,3,3,3,2,0.78,4.14,-0.72,-7.95,1.45,2.56
4.023460984230042,3,3,3,2,-0.57,-4.24,-1.97,-3.34,-1.85,3.73
4.033460974693298,3,3,3,2,-0.38,-2.51,-1.73,0.68,-5.93,1.5
4.043460965156555,3,3,3,2,0,0.7,-0.99,1.49,-6.13,0.4
4.054460883140564,3,3,3,2,-0.3,2.58,-0.51,1.49,-6.13,0.4
4.063460946083069,3,3,3,2,-1.74,2.22,-1.14,-2.69,-4.5,0.2
4.073460936546326,3,3,3,2,-2.16,0.07000000000000001,-0.59,-8.800000000000001,-2.06,1.8
4.084461092948914,3,3,3,2,-1.59,-1.9,-0.31,-7.15,-0.99,1.77
4.114461064338684,3,3,3,2,-0.61,-1.31,0.2,1.76,0.39,2.36
4.124461054801941,3,3,3,2,-0.33,-0.09,0.48,7.58,-0.83,3.44
4.134461045265198,3,3,3,2,0.16,1.1,0.55,7.95,-1.24,3.31
4.144461035728455,3,3,3,2,1.17,2.23,0.47,7.46,-1.38,2.71
4.154461026191711,3,3,3,2,1.41,2.57,0.3,7.46,-1.38,2.71
4.164461016654968,3,3,3,2,1.41,2.97,0.27,6.03,-0.86,2.24
4.174461007118225,3,3,3,2,1.28,3.41,0.28,0.44,-0.18,2.47
4.184460997581482,3,3,3,2,0.23,3.77,0.51,-3.45,-0.04,2.67
4.194460988044739,3,3,3,2,-0.53,3.04,0.68,-6.4,-0.3,2.79
4.204460978507996,3,3,3,2,-1.19,2.04,0.83,-6.4,-0.3,2.79
4.214460968971252,3,3,3,2,-1.79,0.96,1.29,-8.039999999999999,-1.13,2.7
4.224460959434509,3,3,3,2,-2.24,-0.86,1.47,-6.69,-2.11,2.05
4.234460949897766,3,3,3,2,-2.04,-0.9399999999999999,0.87,-4.3,-1.88,2.44
4.244460940361023,3,3,3,2,-1.54,-0.41,-0.08,-5.08,0.31,3.47
4.25446093082428,3,3,3,2,-1.58,0.25,-0.5600000000000001,-5.08,0.31,3.47
4.264460921287537,3,3,3,2,0.16,8.24,1.31,2.03,-0.28,6.01
4.274460911750793,3,3,3,2,-0.96,7.33,-6.63,-8.970000000000001,10.71,3.77
4.28446090221405,3,3,3,2,-5.1,-5.53,-14.34,-31.11,-2.73,2.27
4.294460892677307,3,3,3,2,-12.38,-23.22,-6.62,17.81,-18.83,5.87
4.304460883140564,3,3,3,2,-39.1,5.36,15.4,17.81,-18.83,5.87
4.314460873603821,3,3,3,2,-39.23,38.7,-2.27,115.54,-13.62,20.75
4.324460864067078,3,3,3,2,-23.67,38.7,24.83,-91.73,15.04,-32.41
4.334461092948914,3,3,3,2,7.91,0.91,-10.19,-117.75,0.87,28.93
4.34446108341217,3,3,3,2,18.33,-39.74,-19.06,-67.76000000000001,26.23,45.55
4.354461073875427,3,3,3,2,-10.29,-39.6,-13.14,-67.76000000000001,26.23,45.55
4.364461064338684,3,3,3,2,-28.57,-39.74,-17.24,-18.98,5.31,45.04
4.374461054801941,3,3,3,2,-11.67,-34.9,-17.26,94.33,-47.59,1.16
4.384461045265198,3,3,3,2,-15.1,8.949999999999999,-20.85,118.08,-27.6,-24.32
4.394461035728455,3,3,3,2,-21.78,25.05,-6.24,81.36,-11.71,-34.67
4.404461026191711,3,3,3,2,-25.84,27.44,2.87,81.36,-11.71,-34.67
4.414461016654968,3,3,3,2,-32.7,27.07,-1.93,16.79,-2.8,-2.93
4.424461007118225,3,3,3,2,-12.95,-0.55,-10.97,-46.97,6.58,4.17
4.434460997581482,3,3,3,2,-8.4,-8.869999999999999,-7.38,-33.03,6.84,-14.46
4.444460988044739,3,3,3,2,-8.08,-8.779999999999999,-3.89,-18.74,2.8,-17.34
4.454460978507996,3,3,3,2,-8.69,-3.56,-0.86,-18.74,2.8,-17.34
4.464460968971252,3,3,3,2,-13.94,0.66,0.25,-12.72,0.65,-9.32
4.474460959434509,3,3,3,2,-17.17,-2.81,-0.82,-17.13,1.62,3.9
4.484460949897766,3,3,3,2,-17.17,-2.81,-0.82,-16.1,3.16,-1.5
4.494460940361023,3,3,3,2,-16.34,-3.96,-0.23,-12.34,4.44,-10.05
4.50446093082428,3,3,3,2,-11.59,-4.26,-0.95,-12.34,4.44,-10.05
4.514460921287537,3,3,3,2,-9.82,-4.68,-1.78,-8.210000000000001,4.78,-12.56
4.524460911750793,3,3,3,2,-8.44,-5.35,-2.04,0.19,4,-6
4.53446090221405,3,3,3,2,-7.46,-0.42,-2.11,4.75,3.15,-3.77
4.544460892677307,3,3,3,2,-7.46,-0.42,-2.11,7.67,2.22,-3.49
4.554460883140564,3,3,3,2,-7.95,1.41,-1.53,7.67,2.22,-3.49
4.564460873603821,3,3,3,2,-8.48,2.6,-1.03,7.98,1.83,-3.81
4.574460864067078,3,3,3,2,-9.109999999999999,3.21,-0.84,3.51,2.15,-4.73
4.584461092948914,3,3,3,2,-9.82,3.49,-0.34,0.5,2.68,-5.42
4.59446108341217,3,3,3,2,-9.59,3.1,0,-2.15,3.45,-6.03
4.604461073875427,3,3,3,2,-9.02,2.44,0.23,-2.15,3.45,-6.03
4.614461064338684,3,3,3,2,-8.119999999999999,2.06,0.52,-3.38,3.73,-5.83
4.624461054801941,3,3,3,2,-6.83,2.27,0.99,-3.39,3.26,-3.51
4.634461045265198,3,3,3,2,-6.83,2.27,0.99,-3.07,2.82,-3.27
4.644461035728455,3,3,3,2,-7.12,1.83,0.97,-1.9,2.83,-3.55
4.654461026191711,3,3,3,2,-7.59,1.6,0.8100000000000001,-1.9,2.83,-3.55
4.664461016654968,3,3,3,2,-8.67,2.11,-0.27,-0.12,2.81,-3.26
4.674461007118225,3,3,3,2,-8.83,2.36,-0.58,2.35,1.37,-1.92
4.684460997581482,3,3,3,2,-8.76,3.06,-0.9399999999999999,2.68,0.95,-1.35
4.694460988044739,3,3,3,2,-8.76,3.06,-0.9399999999999999,1.97,0.85,-1.03
4.704460978507996,3,3,3,2,-8.52,3.7,-0.82,1.97,0.85,-1.03
4.714460968971252,3,3,3,2,-8.82,3.94,-0.73,-2.53,2.35,-1.16
4.724460959434509,3,3,3,2,-9.19,4.01,-0.73,-5.72,2.75,-1.47
4.734460949897766,3,3,3,2,-9.42,3.83,-0.76,-8.619999999999999,3.3,-1.87
4.744460940361023,3,3,3,2,-9.619999999999999,0.33,-0.8100000000000001,-10.35,3.68,-2.08
4.75446093082428,3,3,3,2,-9.619999999999999,0.33,-0.8100000000000001,-10.35,3.68,-2.08
4.764460921287537,3,3,3,2,-9.6,-0.22,-0.8100000000000001,-9.67,3.5,-2.05
4.774460911750793,3,3,3,2,-9.77,-0.67,-0.87,-5.58,2.7,-2.29
4.78446090221405,3,3,3,2,-10.06,-1.67,-1,-3.31,2.36,-2.3
4.794460892677307,3,3,3,2,-10.27,-2.01,-0.9399999999999999,-0.54,1.79,-2.09
4.804460883140564,3,3,3,2,-10.29,-1.83,-1.2,-0.54,1.79,-2.09
4.814460873603821,3,3,3,2,-9.68,-1,-1.39,2.04,1.16,-1.94
4.824460864067078,3,3,3,2,-9.48,-0.5600000000000001,-1.55,4.63,0.25,-1.8
4.834461092948914,3,3,3,2,-9.41,-0.06,-1.59,5.67,-0.02,-1.89
4.84446108341217,3,3,3,2,-9.44,0.62,-1.61,5.87,0.01,-2.26
4.854461073875427,3,3,3,2,-9.460000000000001,1.48,-1.23,5.87,0.01,-2.26
4.864461064338684,3,3,3,2,-9.44,1.84,-1.16,5.3,0.13,-2.41
4.914461016654968,3,3,3,2,-9.300000000000001,1.25,-0.84,-1.64,1.43,-1.8
4.944460988044739,3,3,3,2,-9.33,2.98,-0.35,-1.69,0.13,-1.87
5.014460921287537,3,3,3,2,-9.289999999999999,0.87,-0.13,-4.07,-0.68,2.09
5.024460911750793,3,3,3,2,-9.220000000000001,0.66,-0.59,-1.36,-1.82,2.38
5.03446090221405,3,3,3,2,-9.18,0.83,-0.57,-0.06,-2.39,2.6
5.044460892677307,3,3,3,2,-9.130000000000001,0.95,-0.33,0.99,-2.58,2.89
5.054460883140564,3,3,3,2,-9.130000000000001,0.95,-0.33,0.99,-2.58,2.89
5.064460873603821,3,3,3,2,-8.970000000000001,1.15,-0.38,1.36,-2.65,3.23
5.074460864067078,3,3,3,2,-9,2.33,-0.19,3.03,-3.4,3.59
5.084461092948914,3,3,3,2,-9.17,2.62,-0.35,3.54,-3.79,3.63
5.09446108341217,3,3,3,2,-9.199999999999999,2.31,-0.31,2.84,-3.94,3.78
5.105461001396179,3,3,3,3,-9.199999999999999,2.31,-0.31,2.84,-3.94,3.78
5.115460991859436,3,3,3,3,-9.039999999999999,1.84,-0.3,1.36,-3.77,4.02
5.125460982322693,3,3,3,3,-8.529999999999999,0.68,-0.96,-0.97,-2.24,4.85
5.13546097278595,3,3,3,3,-8.41,1.37,-0.85,0.44,-2.11,4.77
5.145460963249207,3,3,3,3,-8.34,1.52,-0.61,1.7,-2.8,4.77
5.155460953712463,3,3,3,3,-8.34,1.52,-0.61,1.7,-2.8,4.77
5.16546094417572,3,3,3,3,-7.96,1.91,-0.79,1.55,-3.83,4.91
5.175460934638977,3,3,3,3,-7.87,0.8,-0.12,-0.68,-3.66,5.61
5.185460925102234,3,3,3,3,-8.16,1.11,-0.13,0,-3.58,5.63
5.195460915565491,3,3,3,3,-9.07,1.44,-0.22,1.96,-3.06,5.47
5.205460906028748,3,3,3,3,-9.07,1.44,-0.22,1.96,-3.06,5.47
5.215460896492004,3,3,3,3,-10.03,3.37,-0.3,4.52,-4.17,5.35
5.225460886955261,3,3,3,3,-9.76,2.89,-0.87,3.68,-4.39,5.65
5.235460877418518,3,3,3,3,-8.81,2.55,-0.52,1.93,-4.21,5.96
5.245460867881775,3,3,3,3,-8.19,1.49,-0.2,0.78,-2.78,6.62
5.255460858345032,3,3,3,3,-8.19,1.49,-0.2,0.78,-2.78,6.62
5.265461087226868,3,3,3,3,-8.08,1.39,-0.5600000000000001,0.99,-1.73,7.42
5.275461077690125,3,3,3,3,-8.210000000000001,0.59,-1,0.14,-3.65,9.029999999999999
5.285461068153381,3,3,3,3,-8.960000000000001,-2.92,-1.39,-1.83,-3.18,9.140000000000001
5.295461058616638,3,3,3,3,-8.720000000000001,-3.9,-2.05,-2.84,-2.4,8.25
5.305461049079895,3,3,3,3,-8.720000000000001,-3.9,-2.05,-2.84,-2.4,8.25
5.315461039543152,3,3,3,3,-8.16,-3.34,-1.87,-0.04,-1.99,6.88
5.325461030006409,3,3,3,3,-9.85,3.94,-0.79,8.48,-2.31,6.07
5.335461020469666,3,3,3,3,-11.23,5.93,-0.95,10.93,-2.85,6.88
5.345461010932922,3,3,3,3,-11.93,5.69,-0.97,8.67,-2.25,7.19
5.355461001396179,3,3,3,3,-11.93,5.69,-0.97,8.67,-2.25,7.19
5.365460991859436,3,3,3,3,-11.54,4.72,-0.72,5.11,-1.61,7.19
5.375460982322693,3,3,3,3,-9.02,1.94,-1.31,-0.11,-0.21,7.56
5.38546097278595,3,3,3,3,-9.279999999999999,0.46,-1.55,-1.3,-0.2,7.69
5.395460963249207,3,3,3,3,-9.390000000000001,-0.33,-1.28,-1.62,-0.87,7.51
5.405460953712463,3,3,3,3,-9.390000000000001,-0.33,-1.28,-1.62,-0.87,7.51
5.41546094417572,3,3,3,3,-10.14,-0.49,-1.44,-0.66,0.07000000000000001,7.08
5.425460934638977,3,3,3,3,-10.76,1.46,-0.9,3.18,0.95,5.09
5.435460925102234,3,3,3,3,-10.95,2.15,-0.87,3.54,1.27,4.52
5.445460915565491,3,3,3,3,-11.01,2.09,-0.68,2.87,1.44,4.21
5.455460906028748,3,3,3,3,-11.01,2.09,-0.68,2.87,1.44,4.21
5.465460896492004,3,3,3,3,-11.27,1.75,-1.12,1.12,2.17,3.81
5.475460886955261,3,3,3,3,-11.18,0.52,-2.47,-1.01,2.69,1.83
5.485460877418518,3,3,3,3,-12.19,1.07,-2.4,-0.68,2.35,0.86
5.495460867881775,3,3,3,3,-12.78,1.17,-2.21,-0.38,1.77,-0.1
5.505460858345032,3,3,3,3,-12.78,1.17,-2.21,-0.38,1.77,-0.1
5.515461087226868,3,3,3,3,-13.24,0.73,-1.87,-0.25,1.85,-0.6
5.525461077690125,3,3,3,3,-14.73,-0.88,-1.29,-0.32,2.75,-1.14
5.535461068153381,3,3,3,3,-14.97,-0.97,-0.78,0.16,3.03,-1.76
5.545461058616638,3,3,3,3,-15.36,-1.04,-0.78,0.37,2.92,-2.62
5.555461049079895,3,3,3,3,-15.36,-1.04,-0.78,0.19,2.14,-3.51
5.565461039543152,3,3,3,3,-15.83,-1.12,-0.74,0.19,2.14,-3.51
5.575461030006409,3,3,3,3,-17.75,-1.68,-0.4,0.64,-0.12,-5.44
5.585461020469666,3,3,3,3,-18.43,-2.01,0.02,0.57,-1.22,-6.31
5.595461010932922,3,3,3,3,-18.67,-3.15,0.68,0.16,-1.64,-6.59
5.605461001396179,3,3,3,2,-18.67,-3.15,0.68,0.16,-1.64,-6.59
5.615460991859436,3,3,3,2,-18.32,-4.04,0.44,-1.89,-2.64,-8.26
5.625460982322693,3,3,3,2,-18.86,-5.85,-0.2,-2.86,-3.65,-9.6
5.63546097278595,3,3,3,2,-21.28,-6.87,-1.48,-2.91,-4.59,-10.94
5.645460963249207,3,3,3,2,-22.53,-7.64,-2.77,-1.98,-5.3,-12.43
5.655460953712463,3,3,3,2,-22.53,-7.64,-2.77,-1.98,-5.3,-12.43
5.66546094417572,3,3,3,2,-23.47,-8.19,-4.03,-0.26,-4.82,-13.63
5.675460934638977,3,3,3,2,-23.92,-6.98,-7.67,5.32,-1.84,-15.36
5.685460925102234,3,3,3,2,-24.2,-4.93,-8.25,8.1,0.22,-16.84
5.695460915565491,3,3,3,2,-23.91,-2.89,-10.05,8.48,1.64,-18.56
5.705460906028748,3,3,3,2,-23.91,-2.89,-10.05,8.48,1.64,-18.56
5.715460896492004,3,3,3,2,-23.36,-0.8,-11.22,9.18,2.61,-19.86
5.725460886955261,3,3,3,2,-16.11,11.78,-7.03,17.51,3.04,-19.25
5.735460877418518,3,3,3,2,-13.03,14.32,-5.15,17.52,4.84,-18.94
5.745460867881775,3,3,3,2,-9.800000000000001,13.9,-2.75,10.5,7.39,-19.34
5.755460858345032,3,3,3,2,-9.800000000000001,13.9,-2.75,10.5,7.39,-19.34
5.765461087226868,3,3,3,2,-4.27,8.199999999999999,4.13,9.119999999999999,9.43,-18.21
5.775461077690125,3,3,3,2,0.7,22.76,16.47,23.74,5.03,-16.95
5.785461068153381,3,3,3,2,1.24,38.7,19.88,22.37,2.59,-12.14
5.795461058616638,3,3,3,2,4.59,28.25,7.65,-4.42,4.08,-5.62
5.805461049079895,3,3,3,2,4.59,28.25,7.65,-4.42,4.08,-5.62
5.815461039543152,3,3,3,2,4.04,3.36,-1.78,-44.04,6.95,5
5.825461030006409,3,3,3,2,-5.57,-10.82,-5.22,-29.49,6.13,10.44
5.835461020469666,3,3,3,2,-4.59,-5.84,-0.3,-12.16,-3.78,8
5.845461010932922,3,3,3,2,-3.89,-5.3,-2.96,4.38,-6.46,4.29
5.855461001396179,3,3,3,2,-3.89,-5.3,-2.96,8.27,-8.449999999999999,4.73
5.865460991859436,3,3,3,2,-1.39,-3.04,-4.44,4.59,-10.04,6.97
5.875460982322693,3,3,3,2,0.7,-6.04,-4.71,0.52,-7.72,8.33
5.88546097278595,3,3,3,2,0.35,-5.1,-3.46,0.21,-4.66,6.26
5.895460963249207,3,3,3,2,-0.49,-4.24,-2.02,0.28,-3.8,2.34
5.905460953712463,3,3,3,2,-0.49,-4.24,-2.02,3.82,-4.11,-0.09
5.91546094417572,3,3,3,2,-0.31,-1.17,-0.84,6.5,-4.79,-0.11
5.925460934638977,3,3,3,2,1,-0.26,-0.21,7.11,-4.56,0.91
5.935460925102234,3,3,3,2,2.03,0.49,0.59,4.64,-3.14,1.72
5.946461081504822,3,3,3,2,2.21,1.02,1.07,1.85,-1.82,2.34
5.955460906028748,3,3,3,2,2.21,1.02,1.07,0.74,-0.12,2.22
5.965460896492004,3,3,3,2,0.73,1.51,2.32,-0.59,0.5600000000000001,2.11
5.975460886955261,3,3,3,2,0,2.83,2.02,-2.53,0.89,2.85
5.985460877418518,3,3,3,2,-0.53,3.48,1.48,-3.1,1.8,3.44
5.995460867881775,3,3,3,2,-0.68,3.29,-0.5,-4.62,2.6,3.15
6.005460858345032,3,3,3,2,-0.68,3.29,-0.5,-7,3.21,2.84
6.015461087226868,3,3,3,2,-0.61,1.69,-0.68,-7.66,3.22,2.59
6.025461077690125,3,3,3,2,-0.22,-1.11,-0.85,-7.21,2.91,2.19
6.035461068153381,3,3,3,2,-0.24,0.14,-0.01,-5.73,2.64,1.69
6.045461058616638,3,3,3,2,-0.18,1.07,0.67,-3.56,1.53,1.56
6.055461049079895,3,3,3,2,-0.18,1.07,0.67,-3.56,1.53,1.56
6.065461039543152,3,3,3,2,-0.23,1.34,0.99,-1.02,-0.13,1.63
6.075461030006409,3,3,3,2,-0.34,2.35,0.52,0.82,-0.96,1.58
6.085461020469666,3,3,3,2,-0.97,3.16,0.68,1.64,-1.56,1.37
6.095461010932922,3,3,3,2,-2.91,6.12,5.08,0.8,-2.52,1.56
6.105461001396179,3,3,3,2,-2.91,6.12,5.08,0.8,-2.52,1.56
6.115460991859436,3,3,3,2,-11.87,15.95,-9.76,16.58,-2.83,6.28
6.125460982322693,3,3,3,2,-13.48,-13.12,-5.38,-29.01,2.58,0.77
6.136460900306702,3,3,3,2,-16.52,-19.18,2.47,-36.18,-10.25,0.24
6.176460862159729,3,3,3,2,-12.3,-6.6,-1.9,-1.82,0.59,9.91
6.186461091041565,3,3,3,2,-10.37,-15.83,-4.41,-12.38,-1.02,7.53
6.196461081504822,3,3,3,2,-21.06,-20.93,-7.91,-18.57,5.62,6.81
6.206461071968079,3,3,3,2,-21.06,-20.93,-7.91,-7.22,5.31,3.67
6.216461062431335,3,3,3,2,-25.53,6.75,5.14,25.06,-0.03,0.53
6.226461052894592,3,3,3,2,-36.32,38.37,6.78,81.56999999999999,-3.11,4.4
6.236461043357849,3,3,3,2,-27.6,34.18,6.16,41.39,-3.57,24.67
6.246461033821106,3,3,3,2,-6.81,-0.75,-10.09,-45.5,6.26,12.37
6.256461024284363,3,3,3,2,-6.81,-0.75,-10.09,-79.76000000000001,8.76,-5.07
6.26646101474762,3,3,3,2,-1.1,-30.37,-9.94,-59.33,12.2,2.08
6.276461005210876,3,3,3,2,-20.1,-33.04,-11.25,-25.1,8.529999999999999,11.04
6.286460995674133,3,3,3,2,-9.460000000000001,-16.01,-8.119999999999999,0.85,-4.03,16.1
6.29646098613739,3,3,3,2,-8.949999999999999,-10.08,-6.88,23.38,-15.19,7.72
6.306460976600647,3,3,3,2,-11.43,-3.25,-4.79,39.07,-12.08,0.67
6.316460967063904,3,3,3,2,-15.03,5.06,-1.47,45.06,-6.32,-7.06
6.326460957527161,3,3,3,2,-15.67,4.33,-1.81,37.81,-3.55,-11.23
6.336460947990417,3,3,3,2,-16.75,2.73,-2.85,27.13,-1.98,-7.53
6.346460938453674,3,3,3,2,-16.95,3.21,-3.23,15.51,0.4,2.75
6.356460928916931,3,3,3,2,-13.91,8.199999999999999,-2.21,9.42,0.21,6.93
6.366460919380188,3,3,3,2,-13.93,10.24,-1.07,7.3,-0.18,1.82
6.376460909843445,3,3,3,2,-13.56,9.359999999999999,-0.71,0.44,0.09,-3.06
6.386460900306702,3,3,3,2,-11.45,5.54,-0.96,-9.130000000000001,1.09,-5.17
6.396460890769958,3,3,3,2,-8.470000000000001,-2.35,-1.36,-16.02,1.82,-3.48
6.406460881233215,3,3,3,2,-8.470000000000001,-2.35,-1.36,-16.02,1.82,-3.48
6.416460871696472,3,3,3,2,-8.75,-5.79,-1.62,-17.04,1.77,-1.28
6.426460862159729,3,3,3,2,-10.3,-2.85,-1.71,-11.56,0.87,-2
6.436461091041565,3,3,3,2,-11.62,-1.23,-1.69,-5.98,0.22,-2.42
6.446461081504822,3,3,3,2,-12.85,-0.48,-1.59,-2.14,0.13,-3.18
6.456461071968079,3,3,3,2,-12.85,-0.48,-1.59,-0.05,0.31,-4.81
6.466461062431335,3,3,3,2,-12.57,0.05,-1.17,0.79,0.43,-5.88
6.476461052894592,3,3,3,2,-7.76,1.21,-1.34,0.65,0.87,-5.5
6.486461043357849,3,3,3,2,-7.6,1.33,-1.45,0.17,1.07,-4.26
6.496461033821106,3,3,3,2,-8.210000000000001,1.53,-1.59,-0.13,1.15,-3.15
6.506461024284363,3,3,3,1,-8.210000000000001,1.53,-1.59,-0.24,1.25,-2.9
6.51646101474762,3,3,3,1,-9.699999999999999,2.03,-1.17,-0.05,1.29,-3.3
6.526461005210876,3,3,3,1,-9.609999999999999,1.94,-0.85,0.33,1.19,-3.65
6.536460995674133,3,3,3,1,-9.279999999999999,1.82,-0.47,0.5,1.33,-3.58
6.54646098613739,3,3,3,1,-8.119999999999999,1.86,-0.13,0.52,1.61,-2.88
6.556460976600647,3,3,3,1,-7.64,1.98,-0.03,0.65,1.8,-2.04
6.566460967063904,3,3,3,1,-7.63,2.2,0.05,0.64,1.63,-1.65
6.576460957527161,3,3,3,1,-7.93,2.56,0,0.7,1.22,-1.5
6.586460947990417,3,3,3,1,-8.800000000000001,2.65,-0.06,0.6,0.85,-1.64
6.596460938453674,3,3,3,1,-8.970000000000001,2.51,-0.09,0.35,0.6,-1.99
6.606460928916931,3,3,3,1,-8.970000000000001,2.51,-0.09,0.35,0.6,-1.99
6.616460919380188,3,3,3,1,-8.85,2.46,-0.08,0.24,0.18,-2.35
6.626460909843445,3,3,3,1,-8.289999999999999,3.03,-0.29,0.42,0.06,-1.96
6.636460900306702,3,3,3,1,-8.1,3.45,-0.16,0.47,-0.02,-1.32
6.646460890769958,3,3,3,1,-7.98,3.94,0.13,0.53,-0.25,-0.66
6.656460881233215,3,3,3,1,-7.98,3.94,0.13,0.24,-0.45,-0.23
6.666460871696472,3,3,3,1,-7.98,4.35,0.35,-0.41,-0.5,-0.27
6.676460862159729,3,3,3,1,-8.039999999999999,3.98,0.5600000000000001,-2,-0.33,-0.41
6.686461091041565,3,3,3,1,-8.039999999999999,3.39,0.58,-3.89,0.01,-0.19
6.696461081504822,3,3,3,1,-8.06,2.75,0.51,-4.97,0.38,0.5
6.706461071968079,3,3,3,1,-8,1.67,0.77,-5,-0.05,1.29
6.716461062431335,3,3,3,1,-8.19,1.51,0.73,-3.91,-0.41,1.97
6.726461052894592,3,3,3,1,-8.31,1.64,0.46,-2.13,-0.66,2.5
6.736461043357849,3,3,3,1,-8.210000000000001,1.89,0.42,-0.31,-1.24,2.76
6.746461033821106,3,3,3,1,-7.9,2.8,0.58,1.59,-2.06,3.03
6.756461024284363,3,3,3,1,-7.74,3.28,0.32,3.04,-2.44,3.45
6.76646101474762,3,3,3,1,-7.52,3.44,-0.22,3.97,-2.41,3.97
6.776461005210876,3,3,3,1,-7.42,2.88,-0.53,3.34,-2.19,4.56
6.786460995674133,3,3,3,1,-7.73,1.56,-0.72,1.03,-1.96,5.18
6.806460976600647,3,3,3,1,-7.86,2.1,-0.26,2.73,-2.56,5.61
6.816460967063904,3,3,3,1,-8.16,2.68,-0.13,3.83,-2.57,5.28
6.836460947990417,3,3,3,1,-8.460000000000001,3.62,-0.54,2.72,-2.33,5.6
6.846460938453674,3,3,3,1,-8.109999999999999,3.44,-0.93,1.48,-1.9,6.18
6.856460928916931,3,3,3,2,-8.109999999999999,3.44,-0.93,0.46,-1.31,6.41
6.866460919380188,3,3,3,2,-8.01,3.21,-1.11,-0.43,-0.43,6.29
6.876460909843445,3,3,3,2,-8.050000000000001,1.94,-2,-1.12,-0.21,6.4
6.886460900306702,3,3,3,2,-8.17,1.79,-1.85,-2.03,0.09,6.73
6.956461071968079,3,3,3,2,-10.75,1.88,-1.35,-3.19,0.66,6.54
6.966461062431335,3,3,3,2,-10.92,2.26,-1.12,-2.38,0.77,6.37
6.976461052894592,3,3,3,2,-11.19,2.21,-0.74,-2,1.26,6.16
6.986461043357849,3,3,3,2,-11.21,1.37,0.04,-1.88,1.86,6.48
6.996461033821106,3,3,3,2,-11.33,0.87,0.07000000000000001,-1.81,2.24,6.89
7.006461024284363,3,3,3,2,-11.33,0.87,0.07000000000000001,-1.91,2.95,6.46
7.01646101474762,3,3,3,2,-11.09,0.06,-0.04,-1.41,3.37,5.67
7.026461005210876,3,3,3,2,-11.11,-1.64,-1.12,-1.25,3.01,4.36
7.036460995674133,3,3,3,2,-11.23,-0.74,-1.4,0.49,2.6,3.63
7.04646098613739,3,3,3,2,-12.43,0.32,-1.2,2.63,2.88,2.49
7.056460976600647,3,3,3,2,-12.43,0.32,-1.2,3.55,2.12,1.49
7.066460967063904,3,3,3,2,-13.61,0.97,-0.96,3.32,1.17,0.49
7.076460957527161,3,3,3,2,-15.71,1.66,-1.16,2.96,0.73,-0.65
7.086460947990417,3,3,3,2,-16.36,1.68,-0.49,2.25,0.46,-1.3
7.096460938453674,3,3,3,2,-16.44,1.01,0.19,1.06,0.54,-0.85
7.106460928916931,3,3,3,2,-15.88,-2.17,0.5600000000000001,-0.88,1.76,-1.07
7.116460919380188,3,3,3,2,-15.66,-3.14,0.39,-1.97,2.89,-1.94
7.126460909843445,3,3,3,2,-15.99,-3.99,0.14,-1.42,2.73,-3.37
7.136460900306702,3,3,3,2,-16.56,-4.02,0.09,-0.17,1.25,-5.04
7.146460890769958,3,3,3,2,-18.6,-3.52,0.73,1.31,-0.8100000000000001,-6.33
7.156460881233215,3,3,3,2,-19.2,-3.04,1.01,3.09,-3.68,-8.49
7.167461037635803,3,3,3,2,-19.44,-2.48,1.48,3.09,-3.68,-8.49
7.17746102809906,3,3,3,2,-19.64,-2.5,1.38,2.33,-4.32,-9.800000000000001
7.187461018562317,3,3,3,2,-20.35,-4.05,0.27,0.9,-5.05,-11.17
7.197461009025574,3,3,3,2,-21.06,-5.42,-0.97,-1.65,-6.05,-13.83
7.207460999488831,3,3,3,2,-21.06,-5.42,-0.97,-1.67,-5.72,-15.18
7.217460989952087,3,3,3,2,-21.74,-6.97,-3.25,-1.67,-5.72,-15.18
7.227460980415344,3,3,3,2,-24.93,-9.720000000000001,-10.25,-0.24,-4.56,-16.57
7.237460970878601,3,3,3,2,-25.98,-9.59,-11.82,4.41,1.44,-18.53
7.247460961341858,3,3,3,2,-26.45,-8.029999999999999,-12.44,7.69,4.12,-20.35
7.257460951805115,3,3,3,2,-26.45,-8.029999999999999,-12.44,12.87,5.53,-22.86
7.267460942268372,3,3,3,2,-24.84,1.26,-12.19,12.87,5.53,-22.86
7.277460932731628,3,3,3,2,-23.07,7.51,-9.859999999999999,25.88,6.25,-23.25
7.287460923194885,3,3,3,2,-19.71,12.56,-9.119999999999999,22.68,5.81,-24.15
7.297460913658142,3,3,3,2,-9.630000000000001,7.83,-4.58,18.86,8.98,-24.75
7.307460904121399,3,3,3,1,-7.69,6.73,1.04,31.31,11.43,-22.91
7.317460894584656,3,3,3,1,-4.04,25.5,15.17,57.5,4.8,-21.14
7.327460885047913,3,3,3,1,-4.03,38.7,28.36,35.19,6.48,-14.52
7.337460875511169,3,3,3,1,14.01,34.59,12.04,-33.59,7.22,-15.43
7.347460865974426,3,3,3,1,-0.95,-12.34,-5.19,-66.86,3.31,3.23
7.357460856437683,3,3,3,1,-5.22,-36.15,-2.6,-34.61,2.27,21.18
7.367461085319519,3,3,3,1,-9.32,-24.54,-1.35,7.68,-3.25,11.05
7.377461075782776,3,3,3,1,-0.47,-10.37,-3.77,33.88,-11.1,6.73
7.387461066246033,3,3,3,1,0.34,-4.23,-5.26,35.24,-16.26,9.109999999999999
7.39746105670929,3,3,3,1,3.43,3.67,-7.01,28.22,-19.55,7.86
7.407461047172546,3,3,3,1,3.43,3.67,-7.01,10.91,-14.83,7.32
7.417461037635803,3,3,3,1,4.29,8.1,-6.15,-5.41,-7.6,5.32
7.42746102809906,3,3,3,1,1.25,1.03,-1.77,-16.69,0.25,1.16
7.437461018562317,3,3,3,1,-0.79,-3.14,-1.68,-21.28,3.26,-0.06
7.447461009025574,3,3,3,1,-1.98,-5.84,-1.19,-21.38,0.5600000000000001,1.58
7.457460999488831,3,3,3,1,-2.12,-6.11,0.01,-15.94,-2.38,3.62
7.467460989952087,3,3,3,1,-1.65,-4.5,-0.04,-9.35,-2.3,3.59
7.477460980415344,3,3,3,1,-0.5,-2.84,-0.03,-4.92,-0.83,2.26
7.487460970878601,3,3,3,1,0.63,-2.28,0.36,-3.77,0.42,1.76
7.497460961341858,3,3,3,1,0.93,-1.99,-0.09,-3.33,0.92,2.19
7.507460951805115,3,3,3,1,0.15,-0.65,-0.58,-2.12,1.09,2.51
7.517460942268372,3,3,3,1,-0.75,1.63,-0.98,-1.16,1.4,2.08
7.527460932731628,3,3,3,1,-0.91,3.89,-1.03,-2.05,1.96,1.56
7.537460923194885,3,3,3,1,1.19,5.59,-1.87,-6.59,2.48,1.67
7.547460913658142,3,3,3,1,1.79,5.2,-1.67,-13.94,3.86,2.82
7.557460904121399,3,3,3,1,1.58,3.19,-0.98,-18.02,4.97,4.15
7.567460894584656,3,3,3,1,1.41,1.27,-0.86,-18.99,5.26,4.4
7.577460885047913,3,3,3,1,-0.54,-1.68,-1,-19.81,4.64,3.98
7.587460875511169,3,3,3,1,-2.08,-3.62,-0.33,-18.5,1.69,3.67
7.597460865974426,3,3,3,1,-3.16,-4.61,0.51,-12.12,-1.48,3.37
7.607460856437683,3,3,3,1,-3.49,-4.44,0.96,-4.49,-1.99,2.49
7.617461085319519,3,3,3,1,-1.9,-2.92,-0.19,3.75,-1.47,1.87
7.627461075782776,3,3,3,1,-0.19,-1.89,-0.7,9.699999999999999,-1.56,2.09
7.637461066246033,3,3,3,1,1.05,-0.48,-0.84,13.9,-1.56,2.7
7.64746105670929,3,3,3,1,1.35,1.01,-0.36,15.5,-1.91,3.11
7.657461047172546,3,3,3,1,1.03,3.31,1.56,14.4,-2.65,3.57
7.667461037635803,3,3,3,1,0.35,4.13,2.3,12.63,-2.84,4.53
7.67746102809906,3,3,3,1,-0.71,4.84,3.29,10.43,-2.85,5.42
7.687461018562317,3,3,3,1,-2,5.14,4.65,8.19,-4.26,5.96
7.697461009025574,3,3,3,1,-1.42,19.27,9.23,22.97,-7.47,7.62
7.707460999488831,3,3,3,1,-5.94,38.7,-2.45,18.79,4.12,9.41
7.717460989952087,3,3,3,1,-10.04,29.01,-8.09,-45.2,8.869999999999999,2.56
7.727460980415344,3,3,3,1,-9.09,-16.77,-9.99,-56.93,-2.4,-2.87
7.737460970878601,3,3,3,1,-19.35,-20.59,0.87,-6.3,-14.77,0.42
7.747460961341858,3,3,3,1,-37.16,5.06,-7.15,24.72,7.65,11.58
7.757460951805115,3,3,3,1,-36.86,13.62,-11.58,11.2,4.84,12.46
7.767460942268372,3,3,3,1,-16,17.01,-0.34,20.56,-5.19,7.96
7.777460932731628,3,3,3,1,-15.81,8.08,-4.94,6.51,6.1,13.12
7.787460923194885,3,3,3,1,-28.63,20.19,-0.33,14.53,0,17.79
7.797460913658142,3,3,3,1,-39.23,30.96,3.05,7.7,-1.91,19.81
7.807460904121399,3,3,3,1,-38.87,28.52,5.14,-27.18,0.95,12.96
7.817460894584656,3,3,3,1,-13.02,-22.08,-8.16,-49.16,4.45,5.3
7.827460885047913,3,3,3,1,-17.14,-39.37,-9.460000000000001,-43.38,12.59,2.31
7.837460875511169,3,3,3,1,-23.51,-39.74,-5.96,-20.08,12.08,5.1
7.847460865974426,3,3,3,1,-19.76,-31.72,-5.17,10.3,0.33,3.1
7.857460856437683,3,3,3,2,-7.94,-4.09,-3.28,30.43,-7.1,-0.72
7.867461085319519,3,3,3,2,-13.03,0.39,-1.02,37.08,-4.54,-2.22
7.877461075782776,3,3,3,2,-18.19,3.46,0.27,34.27,-4.12,-1.42
7.887461066246033,3,3,3,2,-22.97,5.71,0.54,21.57,-1.92,2.55
7.89746105670929,3,3,3,2,-24.07,5.35,-0.65,4.09,0.84,5.46
7.907461047172546,3,3,3,2,-17.67,2.68,-0.4,-9.51,2.72,0.66
7.917461037635803,3,3,3,2,-10.91,0.41,-0.71,-15.11,3.41,-6.39
7.947461009025574,3,3,3,2,-13.08,-3.56,-1.58,-11.38,1.06,-4.77
7.957460999488831,3,3,3,2,-13.64,-3.21,-1.68,-9.109999999999999,1.23,-5.88
7.967460989952087,3,3,3,2,-13.22,-3.11,-2.13,-7.88,2.03,-7.14
7.977460980415344,3,3,3,2,-10.48,-3.32,-3.33,-6.16,2.63,-8.199999999999999
7.987460970878601,3,3,3,2,-8.66,-3.08,-3.79,-3.84,2.6,-8.94
7.997460961341858,3,3,3,2,-7.4,-3,-3.92,-1.03,2.36,-8.59
8.007460951805115,3,3,3,2,-7.18,-2.7,-4.13,2.11,2.09,-6.97
8.017460942268372,3,3,3,2,-7.58,-0.37,-3.7,4.53,1.59,-5.66
8.027460932731628,3,3,3,2,-7.89,1.54,-3.45,5.15,1.53,-5.4
8.037460923194885,3,3,3,2,-8.4,3.22,-2.87,3.78,1.95,-5.8
8.047460913658142,3,3,3,2,-8.880000000000001,4.02,-2.04,0.26,2.89,-6.34
8.057460904121399,3,3,3,1,-8.460000000000001,3.02,-1.31,-5.3,3.84,-6.99
8.067460894584656,3,3,3,1,-8.050000000000001,2.28,-0.57,-8.6,5.22,-7.19
8.077460885047913,3,3,3,1,-7.48,1.81,-0.28,-9.630000000000001,5.79,-7.66
8.087460875511169,3,3,3,1,-7.38,2.11,1.3,-9.44,5.35,-8.26
8.097460865974426,3,3,3,1,-8.050000000000001,2.87,1.98,-8.44,4.39,-8.210000000000001
8.107460856437683,3,3,3,1,-8.800000000000001,3.34,2.19,-8.77,3.73,-7.91
8.117461085319519,3,3,3,1,-9.44,3.21,1.95,-10.08,3.58,-7.22
8.127461075782776,3,3,3,1,-9.41,0.31,1.34,-11.71,4.04,-6.1
8.137461066246033,3,3,3,1,-8.77,-1.03,0.98,-10.67,4.68,-4.91
8.14746105670929,3,3,3,1,-8.109999999999999,-1.2,0.02,-6.4,4.69,-4.08
8.157461047172546,3,3,3,1,-7.68,-0.85,-0.2,-2.06,4.06,-3.77
8.167461037635803,3,3,3,1,-8.42,0.71,-0.75,1.04,3.38,-3.47
8.17746102809906,3,3,3,1,-8.880000000000001,2.45,-0.91,2.94,2.84,-3.59
8.188460946083069,3,3,3,1,-9.26,3.95,-1.13,3.32,2.89,-4.38
8.198460936546326,3,3,3,1,-9.24,4.49,-1.06,1.51,3.15,-5.4
8.208460927009583,3,3,3,1,-8.58,3.76,-1.18,-0.86,3.63,-5.84
8.218460917472839,3,3,3,1,-8.24,3.49,-1.33,-2.76,3.71,-5.41
8.228460907936096,3,3,3,1,-8.470000000000001,2.3,-1.27,-5,3.55,-4.58
8.24846088886261,3,3,3,1,-10.05,-0.4,-0.88,-4.06,2.71,-3.7
8.27846086025238,3,3,3,1,-9.960000000000001,-0.39,-0.98,3.08,1.18,-4.97
8.288461089134216,3,3,3,1,-9.390000000000001,-0.42,-1.04,5.29,0.68,-5.52
8.298461079597473,3,3,3,1,-9.27,-0.29,-1.15,7.72,0.09,-6.11
8.30846107006073,3,3,3,1,-9.34,0.13,-1.28,10.1,-0.55,-6.49
8.318461060523987,3,3,3,1,-9.550000000000001,0.64,-1.52,11.32,-1.12,-6.78
8.328461050987244,3,3,3,1,-9.17,2.54,-2.42,9.83,-1.82,-7.26
8.3384610414505,3,3,3,1,-9.58,2.16,-1.77,4.51,-0.86,-6.88
8.348461031913757,3,3,3,1,-9.779999999999999,0.76,-0.98,1,-0.09,-5.4
8.358461022377014,3,3,3,1,-9.52,0.17,-0.73,1.47,0.78,-4.62
8.368461012840271,3,3,3,1,-9.32,0.28,-1.15,2.33,1.14,-5.15
8.378461003303528,3,3,3,1,-9.35,0.67,-1.31,2.57,0.47,-5.78
8.388460993766785,3,3,3,1,-9.56,1.29,-1.15,2.58,-0.13,-5.7
8.398460984230042,3,3,3,1,-9.67,1.66,-0.95,2.58,-0.59,-5.25
8.408460974693298,3,3,3,1,-9.67,1.83,-1.11,2.42,-0.8100000000000001,-4.83
8.418460965156555,3,3,3,1,-9.67,1.47,-1.47,1.27,-0.74,-4.25
8.428460955619812,3,3,3,1,-10.03,0.6,-1.49,-0.37,-0.55,-2.73
8.438460946083069,3,3,3,1,-10.4,-0.19,-1.3,-1.04,-0.51,-0.49
8.448460936546326,3,3,3,1,-10.15,-0.67,-1.21,-1.19,-0.21,1.16
8.458460927009583,3,3,3,1,-9.539999999999999,-1.09,-1.03,-0.46,-0.37,1.48
8.488460898399353,3,3,3,1,-9.41,-1.54,-1.58,3.17,-0.97,-0.72
8.49846088886261,3,3,3,1,-9.449999999999999,-1.35,-1.6,4.09,-1.32,-1.15
8.508460879325867,3,3,3,1,-9.380000000000001,-1.39,-1.62,5.02,-1.34,-1.36
8.518460869789124,3,3,3,1,-9.300000000000001,-1.46,-1.73,5.66,-1.1,-1.35
8.52846086025238,3,3,3,1,-9.619999999999999,-1.89,-2.12,5.14,-0.33,-0.96
8.538461089134216,3,3,3,1,-10.04,-2.09,-2.07,4.02,-0.07000000000000001,-0.08
8.548461079597473,3,3,3,1,-9.960000000000001,-2,-2.02,3.32,-0.29,0.73
8.55846107006073,3,3,3,2,-9.779999999999999,-1.95,-1.85,2.74,-0.03,0.91
8.568461060523987,3,3,3,2,-9.470000000000001,-2.05,-1.92,2.16,-0.24,0.55
8.578461050987244,3,3,3,2,-9.380000000000001,-1.94,-1.8,1.47,-0.53,0.09
8.5884610414505,3,3,3,2,-9.34,-1.77,-1.52,0.89,-0.7,-0.32
8.598461031913757,3,3,3,2,-9.359999999999999,-1.65,-1.33,0.51,-0.7,-0.66
8.608461022377014,3,3,3,2,-9.5,-1.65,-1.18,0.61,-0.46,-0.98
8.618461012840271,3,3,3,2,-9.529999999999999,-1.5,-1.27,1.12,-0.32,-1.18
8.628461003303528,3,3,3,2,-9.51,-1.43,-1.44,1.41,-0.04,-1.27
8.638460993766785,3,3,3,2,-9.789999999999999,-1.38,-1.49,1.28,0.12,-0.98
8.648460984230042,3,3,3,2,-9.970000000000001,-1.27,-1.45,1.29,-0.23,-0.45
8.658460974693298,3,3,3,2,-9.880000000000001,-1.07,-1.53,1.79,-0.3,-0.16
8.668460965156555,3,3,3,2,-9.720000000000001,-1.02,-1.62,2.21,-0.38,-0.16
8.678460955619812,3,3,3,2,-9.640000000000001,-1.01,-1.74,2.39,-0.6,-0.32
8.688460946083069,3,3,3,2,-9.470000000000001,-0.86,-1.58,2.51,-0.8,-0.45
8.698460936546326,3,3,3,2,-9.44,-0.8,-1.54,2.49,-0.85,-0.45
8.708460927009583,3,3,3,2,-9.41,-0.76,-1.41,1.99,-0.45,-0.28
8.728460907936096,3,3,3,2,-9.84,-0.96,-1.24,0.97,-0.52,1.29
8.738460898399353,3,3,3,2,-9.68,-0.98,-1.29,0.92,-0.62,1.74
8.74846088886261,3,3,3,2,-9.609999999999999,-1.03,-1.38,0.82,-0.66,1.58
8.758460879325867,3,3,3,2,-9.58,-1.26,-1.47,0.61,-0.76,1.04
8.768460869789124,3,3,3,2,-9.609999999999999,-1.67,-1.52,0.6899999999999999,-1.1,0.39
8.77846086025238,3,3,3,2,-9.5,-1.69,-1.71,1.03,-1.46,-0.28
8.788461089134216,3,3,3,2,-9.390000000000001,-1.7,-1.69,1.23,-1.33,-0.83
8.798461079597473,3,3,3,2,-9.5,-1.82,-1.61,1.02,-0.99,-1.04
8.80846107006073,3,3,3,2,-9.83,-1.76,-1.76,0.5600000000000001,-0.45,-0.62
8.818461060523987,3,3,3,2,-9.960000000000001,-1.65,-1.67,-0.09,-0.51,0.24
8.828461050987244,3,3,3,2,-10,-1.62,-1.52,-0.75,-0.6899999999999999,1.13
8.8384610414505,3,3,3,2,-9.69,-1.14,-1.48,-0.58,-0.89,1.62
8.848461031913757,3,3,3,2,-9.43,-0.87,-1.49,-0.02,-0.95,1.39
8.858461022377014,3,3,3,2,-9.369999999999999,-0.73,-1.4,0.15,-1.14,0.92
8.868461012840271,3,3,3,2,-9.460000000000001,-0.78,-1.15,-0.18,-1.33,0.64
8.878461003303528,3,3,3,2,-9.789999999999999,-0.67,-1.15,-0.44,-1.21,0.57
8.888460993766785,3,3,3,2,-9.949999999999999,-0.63,-1.12,-0.76,-0.74,0.74
8.898460984230042,3,3,3,2,-9.949999999999999,-0.7,-1.12,-1.19,-0.66,1.27
8.908460974693298,3,3,3,2,-9.93,-0.75,-1.04,-1.54,-0.59,2.06
8.918460965156555,3,3,3,2,-9.779999999999999,-0.72,-1.13,-2.22,-0.26,2.87
8.938460946083069,3,3,3,2,-9.470000000000001,-0.58,-1.2,-2.71,0.53,3.08
8.948460936546326,3,3,3,2,-9.470000000000001,-0.93,-1.03,-3.01,0.66,2.86
8.958460927009583,3,3,3,2,-9.35,-1.15,-1.12,-2.78,0.24,2.4
8.968460917472839,3,3,3,2,-9.26,-1.14,-1.09,-2.31,-0.34,1.75
8.978460907936096,3,3,3,2,-9.390000000000001,-1.18,-1.15,-1.9,-0.7,1.22
8.988460898399353,3,3,3,2,-9.449999999999999,-1.22,-1.2,-1.46,-0.9399999999999999,0.96
8.99846088886261,3,3,3,2,-9.720000000000001,-1.38,-1.34,-1.24,-1.17,0.87
9.008460879325867,3,3,3,2,-9.9,-1.5,-1.29,-1.33,-1.08,0.92
9.018460869789124,3,3,3,2,-9.779999999999999,-1.43,-1.29,-0.65,-1.27,0.76
9.02846086025238,3,3,3,2,-9.65,-1.26,-1.53,-0.17,-1.38,0.18
9.038461089134216,3,3,3,2,-9.619999999999999,-0.96,-1.37,0.08,-1.56,-0.36
9.048461079597473,3,3,3,2,-9.82,-0.86,-1.29,-0.09,-1.53,-0.6899999999999999
9.05846107006073,3,3,3,2,-9.960000000000001,-0.76,-1.23,-0.44,-1.4,-0.8100000000000001
9.068461060523987,3,3,3,2,-9.99,-0.75,-1.02,-0.95,-1.26,-0.71
9.078461050987244,3,3,3,2,-9.859999999999999,-0.97,-0.93,-1.34,-0.96,-0.43
9.0884610414505,3,3,3,2,-9.77,-0.91,-0.9,-0.9,-0.71,-0.24
9.098461031913757,3,3,3,2,-9.619999999999999,-0.79,-0.85,-0.44,-0.82,-0.33
9.108461022377014,3,3,3,2,-9.539999999999999,-0.71,-0.91,-0.33,-1.15,-0.47
9.118461012840271,3,3,3,2,-9.73,-0.68,-0.87,-0.43,-1.21,-0.5
9.128461003303528,3,3,3,2,-9.73,-0.8100000000000001,-0.84,-0.37,-1.3,-0.26
9.138460993766785,3,3,3,2,-9.789999999999999,-0.76,-0.83,-0.16,-1.42,0.02
9.148460984230042,3,3,3,2,-9.720000000000001,-0.58,-0.8100000000000001,0.13,-1.42,0.13
9.158460974693298,3,3,3,2,-9.75,-0.88,-0.5600000000000001,0.05,-1.07,0.36
9.168460965156555,3,3,3,2,-9.57,-0.8,-0.71,0.62,-0.95,0.63
9.178460955619812,3,3,3,2,-9.52,-0.74,-0.87,0.85,-1.02,0.8100000000000001
9.188460946083069,3,3,3,2,-9.56,-0.66,-0.68,1.18,-1.25,0.85
9.198460936546326,3,3,3,2,-9.5,-0.74,-0.67,1.37,-1.47,0.76
9.209461092948914,3,3,3,2,-9.68,-1.08,-0.74,1.08,-1.56,0.59
9.21946108341217,3,3,3,2,-10,-1.4,-0.77,0.68,-1.44,0.44
9.229461073875427,3,3,3,2,-10.11,-1.44,-0.92,0.7,-1.53,0.29
9.239461064338684,3,3,3,2,-9.800000000000001,-1.28,-1.07,0.91,-1.61,0.01
9.249461054801941,3,3,3,2,-9.710000000000001,-1.4,-0.93,0.9399999999999999,-1.5,-0.31
9.259461045265198,3,3,3,2,-9.6,-1.26,-0.87,1.04,-1.58,-0.68
9.269461035728455,3,3,3,2,-9.539999999999999,-0.93,-0.84,1.02,-1.74,-1.01
9.279461026191711,3,3,3,2,-9.73,-0.51,-0.63,0.72,-1.72,-1.19
9.289461016654968,3,3,3,2,-9.789999999999999,-0.35,-0.47,0.57,-1.74,-1.21
9.299461007118225,3,3,3,2,-9.85,-0.17,-0.32,0.65,-1.7,-1.27
9.309460997581482,3,3,3,2,-9.880000000000001,-0.05,-0.17,0.78,-1.73,-1.26
9.319460988044739,3,3,3,2,-9.91,0.18,0.04,1.13,-1.89,-1.35
9.329460978507996,3,3,3,2,-9.91,0.41,0.16,1.71,-2.27,-1.44
9.339460968971252,3,3,3,2,-9.880000000000001,0.84,0.37,2.45,-2.71,-1.47
9.349460959434509,3,3,3,2,-9.94,1.22,0.5600000000000001,3.04,-3.09,-1.36
9.359460949897766,3,3,3,2,-9.960000000000001,2.52,0.14,3.17,-3.06,-1.18
9.369460940361023,3,3,3,2,-10.13,3.03,0.05,1.34,-2.41,-0.45
9.37946093082428,3,3,3,2,-10.55,2.86,0.4,-1.51,-1.53,1.2
9.389460921287537,3,3,3,2,-10.67,2.56,0.74,-4.05,-1.49,3.39
9.399460911750793,3,3,3,2,-10.68,2.47,0.84,-5.49,-1.69,5.15
9.40946090221405,3,3,3,2,-10.64,2.62,1.17,-5.46,-2.54,6.32
9.419460892677307,3,3,3,2,-10.31,3.08,1.43,-4.43,-3.78,6.67
9.429460883140564,3,3,3,2,-9.949999999999999,3.67,1.35,-3.37,-4.78,6.03
9.439460873603821,3,3,3,2,-10.16,4.53,1,-2.67,-5.3,5.81
9.449460864067078,3,3,3,2,-10.74,4.42,0.98,-3.31,-5.77,6.6
9.459461092948914,3,3,3,2,-11.13,3.37,1.2,-5,-6.21,7.57
9.46946108341217,3,3,3,2,-11.27,1.58,1.38,-5.98,-6.32,8
9.479461073875427,3,3,3,2,-11.19,-2.75,0.59,-4.86,-5.43,8
9.489461064338684,3,3,3,2,-10.9,-3.9,-0.2,-2.53,-4.01,7.66
9.499461054801941,3,3,3,2,-10.69,-4.12,-1.15,-0.08,-2.44,7.11
9.509461045265198,3,3,3,2,-10.68,-4.09,-1.91,1.94,-1.18,6.75
9.519461035728455,3,3,3,2,-10.37,-2.99,-2.45,3.4,-1.02,6.55
9.529461026191711,3,3,3,2,-10.29,-2.18,-2.4,4.52,-1.82,6.79
9.539461016654968,3,3,3,2,-10.44,-1.51,-2.36,5.38,-2.36,6.76
9.549461007118225,3,3,3,2,-10.3,-0.71,-2.17,6.21,-2.42,6.7
9.559460997581482,3,3,3,2,-10.08,0.8100000000000001,-1.28,5.95,-2.18,7.33
9.569460988044739,3,3,3,2,-10.07,1.36,-0.84,4.38,-1.82,8.050000000000001
9.579460978507996,3,3,3,2,-10.05,1.58,-0.58,1.75,-1.39,8.5
9.589460968971252,3,3,3,2,-9.789999999999999,0.9,-0.09,-1.18,-0.91,8.539999999999999
9.599460959434509,3,3,3,2,-9.449999999999999,0.42,0.02,-3.76,-0.38,8.34
9.609460949897766,3,3,3,2,-9.26,0.3,0.07000000000000001,-5.41,0.1,8.199999999999999
9.619460940361023,3,3,3,2,-9.17,0.38,0.05,-6.5,0.58,8.300000000000001
9.62946093082428,3,3,3,2,-9.300000000000001,0.39,-0.28,-7.84,0.95,8.5
9.639460921287537,3,3,3,2,-9.279999999999999,0.19,-0.21,-9.4,0.88,8.73
9.649460911750793,3,3,3,2,-9.109999999999999,0.06,-0.13,-10.42,0.45,8.77
9.65946090221405,3,3,3,2,-8.94,0.19,-0.04,-10.59,0.17,8.56
9.689460873603821,3,3,3,2,-9.289999999999999,1.13,-0.06,-10.64,0.71,7.6
9.699460864067078,3,3,3,2,-9.449999999999999,1.26,-0.13,-11.1,0.79,7.1
9.709461092948914,3,3,3,2,-9.859999999999999,1.73,-0.55,-13.04,0.63,6.67
9.71946108341217,3,3,3,2,-10.38,1.34,-0.37,-16.05,0.47,6.93
9.729461073875427,3,3,3,2,-10.52,0.91,-0.23,-16.82,-0.82,7.77
9.739461064338684,3,3,3,2,-10.27,0.42,0.51,-16.01,-1.9,8.369999999999999
9.749461054801941,3,3,3,2,-9.869999999999999,0.93,0.68,-13.88,-1.18,8.380000000000001
9.759461045265198,3,3,3,1,-9.699999999999999,0.96,0.82,-11.28,-1,7.78
9.769461035728455,3,3,3,1,-9.460000000000001,0.95,1.65,-9.16,-2.15,7.03
9.779461026191711,3,3,3,1,-9.199999999999999,1.49,1.99,-6.81,-3.1,6.31
9.789461016654968,3,3,3,1,-8.91,2.85,1.77,-5.26,-2.82,6.25
9.799461007118225,3,3,3,1,-9.140000000000001,3.52,1.28,-5.09,-1.9,6.66
9.809460997581482,3,3,3,1,-9.390000000000001,3.35,1.07,-6.21,-1.15,7.44
9.819460988044739,3,3,3,1,-9.32,2.73,1.09,-7.1,-0.77,8.19
9.829460978507996,3,3,3,1,-8.470000000000001,2.5,1.14,-7.05,-0.91,8
9.839460968971252,3,3,3,1,-8.33,3.12,1.54,-5.19,-1.29,7.04
9.849460959434509,3,3,3,1,-8.300000000000001,3.58,1.76,-3.95,-1.31,5.93
9.859460949897766,3,3,3,1,-8.369999999999999,3.53,1.92,-3.4,-0.77,5.52
9.869460940361023,3,3,3,1,-8.220000000000001,2.89,1.8,-2.89,-0.01,5.45
9.87946093082428,3,3,3,1,-8.199999999999999,2.95,1.52,-2.01,0.4,5.24
9.889460921287537,3,3,3,1,-8.529999999999999,3.04,1.59,-0.91,0.61,4.89
9.899460911750793,3,3,3,1,-8.880000000000001,3.11,1.75,0.45,0.5600000000000001,4.44
9.90946090221405,3,3,3,1,-8.6,4.18,1.67,2.1,0.43,3.84
9.919460892677307,3,3,3,1,-8.289999999999999,4.42,1.59,3.45,0.64,3.07
9.929460883140564,3,3,3,1,-8.050000000000001,4.34,1.39,4.06,0.85,2.36
9.939460873603821,3,3,3,1,-8.02,4.28,1.18,3.86,0.9399999999999999,1.63
9.949460864067078,3,3,3,1,-8.51,3.89,1.09,2.95,1.16,0.91
9.959461092948914,3,3,3,1,-8.74,3.46,1.11,1.95,1.47,0.63
9.96946108341217,3,3,3,1,-8.640000000000001,3.36,1.11,1.67,1.46,0.62
9.989461064338684,3,3,3,1,-8.44,3.37,0.97,1.58,2.18,-0.19
10.04946100711823,3,3,3,1,-8.82,1.14,0.85,-2.84,2.65,0.02
10.05946099758148,3,3,3,1,-8.5,1.29,0.73,-1.79,3.21,-1.82
10.06946098804474,3,3,3,1,-10.06,2.5,-0.08,-0.6899999999999999,4.2,-3.65
10.079460978508,3,3,3,1,-11.48,2.51,1,-2.64,2.95,-4.62
10.08946096897125,3,3,3,1,-12.27,2.82,3.1,-5.64,-0.5600000000000001,-4.28
10.09946095943451,3,3,3,1,-12.12,4.8,4.76,-5.43,-2.33,-3.78
10.10946094989777,3,3,3,1,-12.45,10.63,4.51,-3.37,0.2,-3.33
10.11946094036102,3,3,3,1,-12.22,10.58,3.44,-4.18,3.28,-3.09
10.12946093082428,3,3,3,1,-10.96,8.65,1.54,-7.49,4.6,-3.67
10.13946092128754,3,3,3,1,-9.92,4.1,-0.74,-12.62,7.61,-3.82
10.14946091175079,3,3,3,1,-8.279999999999999,-8.07,-3.29,-16.67,10.26,-1.95
10.16946089267731,3,3,3,0,-6.85,-8.380000000000001,-3.36,-6.89,6.05,0.37
10.19946086406708,3,3,3,0,-11.99,1.76,-2.28,3.63,5.18,-8.699999999999999
10.20946109294891,3,3,3,0,-11.02,1.12,-1.86,1.78,4.53,-10.53
10.21946108341217,3,3,3,0,-10.09,-0.25,-1.42,0.51,5.04,-10.43
10.22946107387543,3,3,3,0,-10.23,-2.49,-0.67,-0.32,6.67,-9.109999999999999
10.24046099185944,3,3,3,0,-10.8,-1.21,-0.39,1.56,7.32,-7.7
10.25046098232269,3,3,3,0,-11.65,-0.34,-0.35,3.27,7.78,-6.99
10.26046097278595,3,3,3,0,-11.73,-0.72,-0.52,3.17,8.26,-7.04
10.27046096324921,3,3,3,0,-9.880000000000001,-2.11,-2.22,3.89,8.449999999999999,-7.35
10.28046095371246,3,3,3,0,-9.609999999999999,-2.41,-3.23,5.29,8.380000000000001,-7.28
10.29046094417572,3,3,3,0,-9.57,-2.46,-3.67,7.29,7.84,-7.41
10.30046093463898,3,3,3,0,-9.369999999999999,-1.96,-3.59,9.83,7.11,-8.539999999999999
10.31046092510223,3,3,3,0,-9.67,0.22,-3.53,12.05,6.84,-9.74
10.32046091556549,3,3,3,0,-10.02,0.85,-3.11,12.75,6.94,-9.869999999999999
10.33046090602875,3,3,3,0,-10.28,1.14,-2.93,12.28,7.2,-9.369999999999999
10.340460896492,3,3,3,0,-10.16,0.95,-2.66,10.97,7.37,-8.76
10.35046088695526,3,3,3,0,-9.75,0.34,-2.46,9.94,7.44,-8.67
10.36046087741852,3,3,3,0,-9.73,0.21,-2.44,9.130000000000001,7.43,-9.1
10.37046086788177,3,3,3,0,-9.66,0,-2.38,8.550000000000001,7.19,-9.67
10.38046085834503,3,3,3,0,-9.390000000000001,-0.35,-2.46,8.34,6.95,-10.3
10.39046108722687,3,3,3,0,-9.1,-1.14,-2.88,9.539999999999999,6.68,-10.93
10.40046107769012,3,3,3,0,-9.199999999999999,-1.14,-2.96,12.74,6.29,-11.67
10.41046106815338,3,3,3,0,-9.529999999999999,-0.51,-2.92,17.24,5.63,-12.79
10.42046105861664,3,3,3,0,-9.74,1.27,-2.35,19.98,3.89,-14.06
10.4304610490799,3,3,3,0,-9.23,2.52,-2.23,20,1.97,-14.85
10.44046103954315,3,3,3,0,-8.93,3.67,-2.08,18.61,1.71,-15.12
10.45046103000641,3,3,3,0,-8.84,3.87,-1.24,15.41,3.39,-14.6
10.46046102046967,3,3,3,0,-8.18,3.97,-0.1,14.09,4.39,-13.35
10.47046101093292,3,3,3,0,-10.07,3.19,-2.22,11.97,6.82,-11.24
10.48046100139618,3,3,3,0,-10.97,3.79,-2.46,7.53,8.35,-8.06
10.49046099185944,3,3,3,0,-9.98,3.73,-2.03,4.95,3.67,-4.7
10.50046098232269,3,3,3,0,-9.779999999999999,0.36,-1.99,0.78,3.21,-3.6
10.51046097278595,3,3,3,0,-9.6,-1.23,-2.26,-0.39,2.36,-3.72
10.52046096324921,3,3,3,0,-9.49,-1.56,-2.2,0.39,1.45,-4.51
10.53046095371246,3,3,3,0,-9.199999999999999,-1.14,-2.35,1.98,0.64,-5.33
10.54046094417572,3,3,3,0,-8.699999999999999,-0.47,-2.57,3.31,0.85,-5.9
10.55046093463898,3,3,3,0,-8.52,-0.48,-2.51,4.06,1.66,-6.12
10.56046092510223,3,3,3,0,-8.619999999999999,-0.73,-2.47,4.05,2.62,-6.25
10.57046091556549,3,3,3,0,-8.960000000000001,-1.05,-2.57,3.24,3.4,-5.87
10.58046090602875,3,3,3,0,-9.390000000000001,-1,-2.67,2.26,3.39,-5.09
10.590460896492,3,3,3,0,-9.43,-1.14,-2.45,1.49,3.12,-4.42
10.60046088695526,3,3,3,0,-9.279999999999999,-1.19,-2.46,1.31,2.47,-4.39
10.61046087741852,3,3,3,0,-9.220000000000001,-1.34,-2.51,1.49,1.83,-4.91
10.62046086788177,3,3,3,0,-9.390000000000001,-2.12,-2.54,1.52,1.3,-5.52
10.63046085834503,3,3,3,0,-8.69,-1.65,-2.02,3.26,0.4,-6.01
10.64046108722687,3,3,3,0,-9.210000000000001,-1.76,-2.4,2.69,1.88,-6.65
10.65046107769012,3,3,3,0,-9.210000000000001,-2.05,-2.43,4.17,1.94,-7.08
10.66046106815338,3,3,3,0,-9.19,-2.09,-2.15,5.96,1.61,-7.34
10.67046105861664,3,3,3,0,-9.6,-2.51,-2.44,6.24,2.25,-7.61
10.6804610490799,3,3,3,0,-9.4,-1.9,-1.86,8.34,1.59,-7.52
10.69046103954315,3,3,3,0,-9.5,-1.64,-2.1,9.300000000000001,1.38,-7.55
10.70046103000641,3,3,3,0,-9.199999999999999,0.26,-1.55,10.03,1.37,-7.48
10.71046102046967,3,3,3,0,-9.779999999999999,0.1,-1.78,9.41,2.18,-7.44
10.72046101093292,3,3,3,0,-9.84,0.59,-1.52,9.210000000000001,2.69,-7.21
10.73046100139618,3,3,3,0,-9.130000000000001,1.24,-1.52,9.779999999999999,1.95,-6.81
10.74046099185944,3,3,3,0,-9.73,0.48,-2.07,7.75,3.09,-7.01
10.75046098232269,3,3,3,0,-9.609999999999999,0.44,-2.23,8.52,2.24,-6.5
10.76046097278595,3,3,3,0,-10.33,-0.62,-3.33,7.07,2.63,-6.4
10.77046096324921,3,3,3,0,-9.970000000000001,-0.14,-1.69,7.99,1.8,-6.05
10.78046095371246,3,3,3,0,-10.18,-0.04,-1.41,7.74,1.53,-5.86
10.79046094417572,3,3,3,0,-11,-1,-3.23,9.470000000000001,0.13,-5.73
10.80046093463898,3,3,3,0,-11.03,-0.52,-2.34,9.289999999999999,1.21,-5.46
10.81046092510223,3,3,3,0,-11.54,-0.13,-2.6,10.88,0.6899999999999999,-5.09
10.82046091556549,3,3,3,0,-13.3,1.09,-2.2,11.3,1.53,-5.05
10.83046090602875,3,3,3,0,-13.3,2.74,-1.87,11.84,1.09,-4.98
10.840460896492,3,3,3,0,-13.29,3.37,-1.78,9.19,0.73,-5.45
10.85046088695526,3,3,3,0,-13.55,4.72,-0.74,6.92,0.68,-4.92
10.86046087741852,3,3,3,0,-13.47,5.28,0.14,3.62,0.37,-4.06
10.87046086788177,3,3,3,0,-13.42,5.74,0.53,1.15,-0.99,-2.49
10.88046085834503,3,3,3,0,-13.65,5.22,0.44,-2.26,-2.18,-0.32
10.89046108722687,3,3,3,0,-13.7,5.19,1.02,-3.99,-3.26,2.03
10.90046107769012,3,3,3,0,-13.99,3.92,1.82,-6.73,-4.16,3.61
10.91046106815338,3,3,3,0,-13.93,2.66,2.28,-8.99,-5.71,5.18
10.92046105861664,3,3,3,0,-13.78,1.72,2.72,-10.9,-7.7,6.67
10.9304610490799,3,3,3,0,-13.39,1.41,2.74,-8.199999999999999,-9.56,8.69
10.94046103954315,3,3,3,0,-12.1,2.45,1.38,-1.19,-11.04,10.82
10.95046103000641,3,3,3,0,-10.61,3.73,-0.9,8.109999999999999,-11.66,11.81
10.96046102046967,3,3,3,0,-10.34,3.03,-1.59,11.42,-11.03,11.92
10.97046101093292,3,3,3,0,-10.18,1.13,-2.02,9.869999999999999,-10.37,12.74
10.98046100139618,3,3,3,0,-12.64,-1.96,-1.8,6.82,-9.77,14.05
10.99046099185944,3,3,3,0,-13.69,-2.25,-1.49,5.13,-9.42,15.24
11.00046098232269,3,3,3,0,-13.56,-2.5,-1.21,4.66,-9.699999999999999,15.16
11.01046097278595,3,3,3,0,-12.88,-2.73,-1.28,4.99,-8.4,15.11
11.02046096324921,3,3,3,0,-12.53,-2.98,-1.61,5.33,-6.94,14.56
11.03046095371246,3,3,3,0,-11.99,-2.7,-1.94,6.26,-6.47,13.62
11.04046094417572,3,3,3,0,-12.09,-3.6,-1.83,5.76,-5.07,13.92
11.05046093463898,3,3,3,0,-11.71,-4.84,-1.83,3.09,-4.71,14.31
11.06046092510223,3,3,3,0,-11.53,-3.76,-2.63,3.16,-5.17,15.65
11.07046091556549,3,3,3,0,-11.59,-3.35,-2.89,3.47,-4.64,17.65
11.08046090602875,3,3,3,0,-11.43,-4.03,-3.28,2.58,-3.91,19.19
11.090460896492,3,3,3,0,-11.18,-4.06,-3.59,1.59,-3.09,20.04
11.10046088695526,3,3,3,0,-9.93,-3.08,-3.53,0.61,-3.79,20.47
11.11046087741852,3,3,3,0,-9.17,-3.14,-3.52,-0.82,-3.54,20.85
11.12046086788177,3,3,3,0,-9.31,-2.89,-3.39,-2.39,-2.66,20.75
11.13046085834503,3,3,3,0,-8.699999999999999,-3.14,-3.82,-3.16,-2.46,20.83
11.14046108722687,3,3,3,0,-7.33,-3.7,-3.81,-5.04,-2.11,20.9
11.15046107769012,3,3,3,0,-7.94,-2.93,-3.56,-5.91,-1.47,20.12
11.16046106815338,3,3,3,0,-9.02,-2.16,-4.05,-7.56,-0.68,19.82
11.17046105861664,3,3,3,0,-8.130000000000001,-3.51,-3.85,-11.32,-1.24,20.17
11.1804610490799,3,3,3,0,-9.69,-2.4,-3.41,-10.16,1.34,19.23
11.19046103954315,3,3,3,0,-8.84,-3.56,-2.91,-14.21,0.21,18.97
11.20046103000641,3,3,3,0,-8.77,-3.05,-2.34,-15.23,-0.42,18.91
11.21046102046967,3,3,3,0,-8.43,-3.55,-2.05,-16.98,-0.27,18.96
11.22046101093292,3,3,3,0,-8.23,-4.06,-2.01,-18.51,-0.8100000000000001,18.73
11.23046100139618,3,3,3,0,-8.01,-4.44,-2.11,-19.36,-0.66,18.24
11.24046099185944,3,3,3,0,-7.92,-4.69,-2.28,-19.59,-0.17,17.27
11.25046098232269,3,3,3,0,-7.82,-5.25,-2.06,-19.55,0.27,16.04
11.2614609003067,3,3,3,0,-7.49,-5.6,-1.97,-19.68,0.33,14.62
11.27146089076996,3,3,3,0,-7.05,-6.06,-1.78,-18.95,0.34,13.21
11.28146088123322,3,3,3,0,-6.7,-6.22,-1.66,-17.01,0.51,11.84
11.29146087169647,3,3,3,0,-5.9,-6.58,-1.13,-14.69,0.55,10.7
11.31146109104156,3,3,3,0,-5.36,-5.77,-0.5600000000000001,-10.3,0.29,8.550000000000001
11.34146106243134,3,3,3,0,-5.88,-2.96,-0.15,-2.19,1.32,3.17
11.35146105289459,3,3,3,0,-6.27,-1.3,0.57,0.86,3.01,0.99
11.36146104335785,3,3,3,0,-6.64,0.64,1.3,2.04,5.45,-1.8
11.37146103382111,3,3,3,0,-7.95,5.94,2.42,3.13,8.68,-3.98
11.38146102428436,3,3,3,0,-9.16,9.779999999999999,2.81,6.9,14.58,-4.97
11.39146101474762,3,3,3,0,-11.52,13.4,2.84,9.710000000000001,24.74,-4.67
11.40146100521088,3,3,3,0,-12.92,15.32,3.08,6.27,30.25,-2.01
11.41146099567413,3,3,3,0,-16.7,19.34,-0.5,0.45,24.07,2.28
11.42146098613739,3,3,3,0,-15.16,22.94,1.33,-6.28,1.16,6.32
11.43146097660065,3,3,3,0,-12.7,21.86,1.93,-11.13,-21.57,7.14
11.4414609670639,3,3,3,0,-12.16,15.43,2.1,-10.88,-15.71,8.779999999999999
11.45146095752716,3,3,3,0,-9.74,0.78,1.69,-11.18,-4.42,12.25
11.46146094799042,3,3,3,0,-8.130000000000001,-2.97,0.54,-14.72,-1.97,12.91
11.47146093845367,3,3,3,0,-7.05,-3.52,-0.73,-14,-2.58,12.74
11.48146092891693,3,3,3,0,-7.4,-2.15,-1.45,-9.09,-1.51,12.36
11.49146091938019,3,3,3,0,-9.73,2.73,-4.08,-7.55,-1.53,11.45
11.50146090984344,3,3,3,0,-13.16,5.02,-2.64,-11.69,-0.32,9.49
11.5114609003067,3,3,3,0,-16.72,5.29,4.27,-14.92,1.8,6.61
11.52146089076996,3,3,3,0,-15.02,6.94,11.34,-12.86,-11.07,-1.38
11.53146088123322,3,3,3,0,-10.82,8.949999999999999,1.54,-8.279999999999999,-18.7,-8.720000000000001
11.54146087169647,3,3,3,0,-12,2.64,-2.27,-11.84,-2.11,-9.539999999999999
11.55146086215973,3,3,3,0,-10.52,-4.01,-4.8,-15.13,9.76,-6.6
11.56146109104156,3,3,3,0,-9.58,-10.24,-8.42,-17.33,9.609999999999999,-3.94
11.57146108150482,3,3,3,0,-8.66,-14.04,-9.44,-16.9,9.359999999999999,-1.86
11.58146107196808,3,3,3,0,-7.94,-9.99,-7.18,-9.18,8.23,-3.77
11.59146106243134,3,3,3,0,-9.710000000000001,-4.36,-5.04,1.01,7.87,-7.97
11.60146105289459,3,3,3,0,-12.67,-1.27,-3.96,3.87,7.73,-12.07
11.61146104335785,3,3,3,0,-11.62,-2.72,-4.91,-0.96,6.82,-17.01
11.62146103382111,3,3,3,0,-9.67,-3.86,-4.33,-4.28,6.53,-17.54
11.63146102428436,3,3,3,0,-9.76,-3.82,-3.52,-4.25,8.51,-14.32
11.64146101474762,3,3,3,0,-10.21,-3.39,-2.87,-3.09,10.3,-12.58
11.65146100521088,3,3,3,0,-11.17,-1.75,-0.9399999999999999,-1.08,9.970000000000001,-12.98
11.67146098613739,3,3,3,0,-11.33,0.57,-0.08,1.22,11.32,-14.72
11.68146097660065,3,3,3,0,-10.07,0.51,-0.21,0.5600000000000001,12.23,-13.38
11.70146095752716,3,3,3,0,-8.199999999999999,-0.18,-2.66,-0.25,12.12,-11.96
11.71146094799042,3,3,3,0,-8.33,-0.04,-3.18,0.73,11.67,-12.55
11.72146093845367,3,3,3,0,-8.720000000000001,0.48,-3.56,2.45,10.86,-13.49
11.73146092891693,3,3,3,0,-9.84,1.18,-3.21,4.04,10.71,-13.68
11.74146091938019,3,3,3,0,-9.44,1.26,-3.17,4.99,10.84,-12.97
11.75146090984344,3,3,3,0,-9.26,0.5,-2.88,5.98,10.51,-12.22
11.7614609003067,3,3,3,0,-9.300000000000001,-0.01,-2.26,6.68,9.76,-12.15
11.77146089076996,3,3,3,0,-9.48,0.73,-1.62,7.97,8.699999999999999,-12.2
11.78146088123322,3,3,3,0,-9.52,1.04,-1.43,9.4,7.51,-12.5
11.79146087169647,3,3,3,0,-9.43,1.27,-1.4,10.47,6.93,-12.83
11.80146086215973,3,3,3,0,-9.35,1.3,-1.48,11.88,6.57,-13.05
11.81146109104156,3,3,3,0,-9.470000000000001,1.54,-2.25,13.55,6.26,-13.45
11.82146108150482,3,3,3,0,-9.380000000000001,1.91,-2.43,15.22,5.77,-13.93
11.83146107196808,3,3,3,0,-8.84,2.61,-2.2,16.4,4.77,-14.14
11.84146106243134,3,3,3,0,-8.859999999999999,3.2,-2.36,15.93,4.77,-13.64
11.85146105289459,3,3,3,0,-8.66,3.78,-1.71,15.13,5.68,-13.58
11.86146104335785,3,3,3,0,-8.869999999999999,2.88,-1.61,15.33,4.71,-13.48
11.87146103382111,3,3,3,0,-9.199999999999999,1.96,-1.65,14.61,6.46,-13.17
11.88146102428436,3,3,3,0,-9.550000000000001,1.18,-2.3,15.52,6.88,-12.1
11.89146101474762,3,3,3,0,-9.869999999999999,0.47,-3.2,15.46,6.64,-10.5
11.90146100521088,3,3,3,0,-10.13,-0.07000000000000001,-3.23,13.44,5.46,-8.93
11.91146099567413,3,3,3,0,-10.05,-0.4,-2.93,10.35,3.34,-7.4
11.92146098613739,3,3,3,0,-9.859999999999999,-0.38,-2.49,8.4,2.36,-6.62
11.93146097660065,3,3,3,0,-9.029999999999999,-1.03,-2.05,8.1,2.27,-6.9
11.9414609670639,3,3,3,0,-8.92,-1.28,-1.96,8.51,2.82,-7.48
11.95146095752716,3,3,3,0,-9.01,-1.36,-1.92,9.48,3.53,-7.82
11.96146094799042,3,3,3,0,-9.210000000000001,-1.18,-2.31,10.49,3.68,-7.73
11.97146093845367,3,3,3,0,-9.31,-1.06,-2.43,11.53,3.55,-7.47
11.98146092891693,3,3,3,0,-9.24,-0.6,-2.62,12.27,2.89,-7.38
11.99146091938019,3,3,3,0,-9.07,-0.58,-3.13,12.63,2.31,-7.65
12.00146090984344,3,3,3,0,-9.24,-0.17,-2.32,12.8,2.32,-8.050000000000001
12.0114609003067,3,3,3,0,-9.380000000000001,-0.1,-2.2,12.87,2.01,-8.43
12.02146089076996,3,3,3,0,-9.699999999999999,-0.1,-1.96,11.97,2.58,-8.73
12.03146088123322,3,3,3,0,-9.69,0,-1.68,11.97,2.26,-8.869999999999999
12.04146087169647,3,3,3,0,-9.42,0.32,-1.45,11.86,2.15,-8.710000000000001
12.05146086215973,3,3,3,0,-9.33,0.2,-1.5,11.6,2.05,-8.630000000000001
12.06146109104156,3,3,3,0,-9.6,0.27,-1.88,11.26,2.14,-8.550000000000001
12.07146108150482,3,3,3,0,-9.69,0.73,-1.77,11.81,1.48,-8.26
12.08146107196808,3,3,3,0,-10.91,0.96,-2.27,10.84,1.24,-7.75
12.09146106243134,3,3,3,0,-11.48,0.83,-2.43,9.710000000000001,1.16,-7.12
12.10146105289459,3,3,3,0,-11.69,0.39,-2.56,8.93,0.91,-6.4
12.11146104335785,3,3,3,0,-11.51,0.31,-2.88,9.44,0.39,-5.86
12.12146103382111,3,3,3,0,-12.6,1.56,-2.65,11.02,0.14,-5.32
12.13146102428436,3,3,3,0,-12.6,2.64,-2.08,12.17,-0.12,-4.85
12.14146101474762,3,3,3,0,-12.41,3.77,-1.15,11.66,-0.84,-4.85
12.15146100521088,3,3,3,0,-12.67,3.89,-1.17,9.42,-0.39,-5.47
12.16146099567413,3,3,3,0,-13.39,6.11,1.34,7.96,-0.48,-4.75
12.17146098613739,3,3,3,0,-13.83,6.16,1.78,7.68,-1.61,-2.98
12.18146097660065,3,3,3,0,-14.84,5.98,3.07,4.06,-2.38,-1.41
12.1914609670639,3,3,3,0,-15.66,6.06,4.36,2.69,-4.3,1.62
12.20146095752716,3,3,3,0,-15.94,4.24,4.94,0.95,-6.4,4.12
12.21146094799042,3,3,3,0,-14.93,4.37,5.18,-1.64,-8.550000000000001,5.44
12.22146093845367,3,3,3,0,-14.51,4.57,4.88,2.66,-11.54,8.23
12.23146092891693,3,3,3,0,-12.62,4.89,2.97,8.69,-13.5,11.31
12.24146091938019,3,3,3,0,-9.880000000000001,5.08,-2.74,14.11,-13.88,12.64
12.25146090984344,3,3,3,0,-11.38,2.71,-2.2,13.29,-12.43,13.76
12.2614609003067,3,3,3,0,-13.18,-0.07000000000000001,-2.12,9.52,-10.68,15.98
12.27146089076996,3,3,3,0,-14.2,-2.07,-2.38,6.75,-9.66,15.86
12.28146088123322,3,3,3,0,-16.59,-1.91,-1.63,5.64,-8.210000000000001,16.03
12.2924610376358,3,3,3,0,-17.11,-2.2,-1.2,4.72,-7.16,17.09
12.30246102809906,3,3,3,0,-16.97,-2.59,-0.95,4.42,-6.48,16.21
12.31246101856232,3,3,3,0,-16.62,-3.31,-1.08,5.58,-5.81,15.09
12.32246100902557,3,3,3,0,-14.78,-7.17,-1.97,4.02,-4.93,14.88
12.33246099948883,3,3,3,0,-13.24,-6.47,-2.59,0.93,-5.99,16.24
12.34246098995209,3,3,3,0,-14.26,-4.87,-3.52,2,-6.4,18.58
12.35246098041534,3,3,3,0,-13.79,-4.3,-3.75,2.54,-6.25,21.12
12.3624609708786,3,3,3,0,-12.61,-4.65,-4.16,0.93,-5.64,22.58
12.37246096134186,3,3,3,0,-11.69,-3.46,-4.54,-0.74,-4.88,23.44
12.38246095180511,3,3,3,0,-9.949999999999999,-3.4,-4.17,-3.67,-6.16,24.41
12.39246094226837,3,3,3,0,-9.779999999999999,-2.97,-3.75,-7.49,-6.75,24.1
12.40246093273163,3,3,3,0,-7.52,-4.94,-3.72,-9.949999999999999,-5.33,24.96
12.41246092319489,3,3,3,0,-7.99,-6.17,-4.39,-11.58,-2.78,25.22
12.42246091365814,3,3,3,0,-9.199999999999999,-4.83,-4.26,-11.58,-2.78,25.22
12.4324609041214,3,3,3,0,-9.539999999999999,-5.87,-4.41,-11.95,-3.11,25.16
12.44246089458466,3,3,3,0,-7.11,-5.71,-3.15,-12.95,-4.42,24.03
12.45246088504791,3,3,3,0,-8.01,-4.34,-3.37,-9.34,-0.48,22.9
12.46246087551117,3,3,3,0,-7.54,-4.4,-2.99,-14.17,-2.96,21.85
12.47246086597443,3,3,3,0,-7.06,-4.63,-2.71,-14.17,-2.96,21.85
12.48246085643768,3,3,3,0,-6.03,-5.79,-3.09,-15.72,-2.98,21.93
12.49246108531952,3,3,3,0,-5.71,-6.12,-2.8,-18.92,-1.93,20.03
12.50246107578278,3,3,3,0,-5.24,-6.67,-2.53,-21.36,-1.51,18.24
12.51246106624603,3,3,3,0,-4.68,-7.18,-2.72,-21.88,-1.08,16.72
12.52246105670929,3,3,3,0,-4.38,-7.01,-3.29,-21.88,-1.08,16.72
12.53246104717255,3,3,3,0,-4.5,-6.91,-3.49,-17.15,0.34,13.53
12.5424610376358,3,3,3,0,-4.62,-6.7,-3.3,-13.77,0.48,11.51
12.55246102809906,3,3,3,0,-4.64,-6.6,-2.85,-10.87,0.08,9.640000000000001
12.56246101856232,3,3,3,0,-4.16,-7.4,-2.48,-7.7,-0.31,7.94
12.57246100902557,3,3,3,0,-4.13,-7.34,-2.37,-3.67,-0.3,6.09
12.58246099948883,3,3,3,0,-4.25,-6.71,-1.96,-0.1,-0.46,3.82
12.59246098995209,3,3,3,0,-4.6,-5.18,-0.95,-0.6899999999999999,-0.38,0.57
12.60246098041534,3,3,3,0,-5.88,-3.55,1.25,-4.62,0.47,-3.18
12.6124609708786,3,3,3,0,-7.08,-2.04,2.94,-6.87,4.54,-6.67
12.62246096134186,3,3,3,0,-8.76,0.95,5.09,-7.07,12.35,-9.23
12.63246095180511,3,3,3,0,-9.970000000000001,5.03,5.88,-3.72,21.29,-8.029999999999999
12.64246094226837,3,3,3,0,-12.81,16.77,6.38,3.11,29.05,-2.46
12.69246089458466,3,3,3,1,-10.84,5.52,2.54,-18.89,10.42,17.38
12.70246088504791,3,3,3,1,-11.33,-1.24,-0.35,-19.32,7.91,16.29
12.71246087551117,3,3,3,1,-9.470000000000001,-5.64,-0.87,-11.35,5.78,15.65
12.72246086597443,3,3,3,1,-12.27,-2.93,-0.38,-5.17,-1.76,13.51
12.73246085643768,3,3,3,1,-12.7,1.53,0.6899999999999999,-7.9,-8.970000000000001,12.06
12.74246108531952,3,3,3,1,-14.18,8.65,2.5,-16.48,-7.75,12.28
12.75246107578278,3,3,3,1,-12.5,14.55,11.97,-14.93,-15.49,4.95
12.76246106624603,3,3,3,1,-5.71,8.73,5.88,-11.67,-9.550000000000001,-8.42
12.77246105670929,3,3,3,1,-6.13,-3.88,-2.95,-18.1,10.04,-12.14
12.78246104717255,3,3,3,1,-6.15,-11.88,-4.82,-13.04,11.1,-6.41
12.7924610376358,3,3,3,1,-9.74,-18.68,-13.11,-10.36,11.61,-3.2
12.81246101856232,3,3,3,1,-8.42,-9.17,-11.1,3.67,4.36,-8.109999999999999
12.82246100902557,3,3,3,1,-9.08,-1.4,-8.24,11.93,3.62,-10.59
12.83246099948883,3,3,3,1,-11.45,3.99,-2.52,4.25,3.62,-13.83
12.84246098995209,3,3,3,1,-11.92,3.61,-3.63,-5.55,5.95,-14.35
12.90246093273163,3,3,3,1,-9.779999999999999,-4.52,-0.48,-5.03,13.94,-11.12
12.91246092319489,3,3,3,1,-9.52,-5.99,-2.4,-1.92,12.98,-10.86
12.92246091365814,3,3,3,1,-9.720000000000001,-4.86,-2.87,2.53,11.76,-11.92
12.9324609041214,3,3,3,1,-9.93,-3.15,-3.8,6.85,10.78,-13.66
12.94246089458466,3,3,3,1,-9.98,-1.56,-4.57,9.69,10.16,-14.83
12.95246088504791,3,3,3,1,-9.84,0.23,-4.46,11.39,9.76,-14.7
12.96246087551117,3,3,3,1,-9.92,0.95,-3.95,12.02,9.880000000000001,-14.34
12.97246086597443,3,3,3,1,-10.14,1.33,-3.32,12.03,10.35,-14.23
12.98246085643768,3,3,3,1,-10.08,1.39,-2.98,11.89,10.66,-13.86
12.99246108531952,3,3,3,1,-10.48,1.3,-2,10.67,10.87,-13.31
13.00246107578278,3,3,3,1,-10.41,0.9399999999999999,-1.6,9.51,10.29,-13.28
13.01246106624603,3,3,3,1,-9.81,0.8,-1.65,9.23,9.630000000000001,-13.65
13.02246105670929,3,3,3,1,-9.23,0.62,-1.81,10.4,9.039999999999999,-14.3
13.03246104717255,3,3,3,1,-8.94,0,-2.12,13.39,7.79,-15.2
13.0424610376358,3,3,3,1,-9.199999999999999,0.25,-2.38,17.71,6.68,-16.48
13.05246102809906,3,3,3,1,-9.51,0.73,-2.32,21.17,4.7,-17.58
13.06246101856232,3,3,3,1,-9.5,1.09,-1.99,22.61,2.51,-17.81
13.07246100902557,3,3,3,1,-8.93,3.16,-1.86,22.47,1.57,-17.69
13.08246099948883,3,3,3,1,-8.779999999999999,3.47,-2.51,17.1,4.77,-17.14
13.09246098995209,3,3,3,1,-8.91,2.68,-1.41,15.87,5.83,-16.32
13.10246098041534,3,3,3,1,-7.92,1.67,-0.75,17.54,6.17,-14.53
13.1124609708786,3,3,3,0,-9.279999999999999,1.65,-3.04,16.96,6.97,-11.9
13.12246096134186,3,3,3,0,-9.5,2.68,-3.4,13.25,4.38,-9.550000000000001
13.13246095180511,3,3,3,0,-9.26,3.54,-2.6,8.31,2.66,-8.460000000000001
13.14246094226837,3,3,3,0,-9.35,3.11,-1.94,5.2,2.81,-8.56
13.15246093273163,3,3,3,0,-9.59,1.14,-1.24,4.42,2.84,-9.039999999999999
13.16246092319489,3,3,3,0,-9.619999999999999,0.74,-1.2,5.12,2.8,-9.34
13.17246091365814,3,3,3,0,-9.369999999999999,0.15,-1.23,6.37,2.59,-9.15
13.1824609041214,3,3,3,0,-8.94,-0.79,-1.7,7.57,2.45,-8.779999999999999
13.20246088504791,3,3,3,0,-9.699999999999999,-1.27,-2.3,10.21,2.42,-8.77
13.23246085643768,3,3,3,0,-10.2,-0.51,-1.64,12.84,1.2,-10.27
13.24246108531952,3,3,3,0,-10.64,-0.86,-3.04,11.15,1.7,-10.04
13.25246107578278,3,3,3,0,-10.36,1.27,-1.15,12.03,0.37,-9.85
13.26246106624603,3,3,3,0,-10.28,0.75,-1.9,9.44,1.22,-9.630000000000001
13.27246105670929,3,3,3,0,-9.99,1.66,-1.24,9.1,0.64,-8.67
13.28246104717255,3,3,3,0,-10.04,1.78,-1.47,7.04,1.46,-8.25
13.2924610376358,3,3,3,0,-9.73,1.82,-1.21,6.48,0.9,-7.82
13.30246102809906,3,3,3,0,-10.04,1.43,-1.53,5.14,1.12,-7.15
13.31346094608307,3,3,3,0,-10.81,1.47,-1.02,4.84,0.8,-6.22
13.32346093654633,3,3,3,0,-11.13,1.7,-1.09,5.11,0.6899999999999999,-5.34
13.33346092700958,3,3,3,0,-11.43,1.72,-1.45,5.72,1.09,-4.84
13.34346091747284,3,3,3,0,-11.84,1.93,-1.91,7.8,1.16,-4.07
13.3534609079361,3,3,3,0,-13.19,4.69,-1.1,8.82,1.03,-3.13
13.36346089839935,3,3,3,0,-13.97,6.69,0.1,8.300000000000001,0.18,-1.75
13.37346088886261,3,3,3,0,-14.74,8.039999999999999,1.48,5.57,-1.21,0.18
13.38346087932587,3,3,3,0,-15.54,9.470000000000001,2.9,1.05,-3.49,1.78
13.39346086978912,3,3,3,0,-14.37,7.76,5.17,-0.78,-6.33,4.87
13.40346086025238,3,3,3,0,-14.74,6.75,3.95,0.67,-9.69,9.25
13.41346108913422,3,3,3,0,-14.37,6.25,3.22,6.48,-12.15,11.61
13.42346107959747,3,3,3,0,-14.24,6.38,0.67,12.19,-13.14,13.53
13.43346107006073,3,3,3,0,-13.18,4.42,-3.42,11.07,-13.22,15.44
13.44346106052399,3,3,3,0,-13.42,0.96,-3.39,5.32,-12.84,17.65
13.45346105098724,3,3,3,0,-14.2,-1.59,-3.28,1.4,-11.4,18.62
13.4634610414505,3,3,3,0,-14.76,-1.98,-3.53,-0.19,-9.539999999999999,18.02
13.47346103191376,3,3,3,0,-15.8,-0.85,-3.45,-2.08,-8.06,16.68
13.48346102237701,3,3,3,0,-16.89,-1.75,-2.82,-5.15,-7.88,15.25
13.49346101284027,3,3,3,0,-17.72,-3.29,-2.07,-6.8,-8.43,14.24
13.50346100330353,3,3,3,0,-16.95,-4.28,-2.4,-7.56,-8.18,14.31
13.51346099376678,3,3,3,0,-14.24,-8.800000000000001,-2.52,-11.23,-8.67,14.87
13.52346098423004,3,3,3,0,-13.69,-7.43,-2.78,-12.35,-10.5,15.74
13.5334609746933,3,3,3,0,-11.86,-8.68,-3.35,-9.06,-10.73,15.96
13.54346096515656,3,3,3,0,-11.1,-7.65,-4.16,-3.42,-8.43,17.22
13.55346095561981,3,3,3,0,-10.25,-7.22,-4.5,-1.54,-7.62,19.21
13.56346094608307,3,3,3,0,-10.21,-3.95,-4.58,1.12,-6.35,20.77
13.57346093654633,3,3,3,0,-8.69,-5.23,-4.24,-0.38,-5.91,21.49
13.58346092700958,3,3,3,0,-8.81,-3.09,-4.32,-0.11,-4.1,21.94
13.59346091747284,3,3,3,0,-7.7,-3.66,-3.87,-4.95,-4.81,21.94
13.6034609079361,3,3,3,0,-8.210000000000001,-3.74,-3.57,-6.4,-1.72,21.81
13.61346089839935,3,3,3,0,-9.48,-3.32,-4.8,-11.84,-1.85,22.33
13.62346088886261,3,3,3,0,-8.33,-5.6,-4.13,-11.95,-2.25,21.17
13.63346087932587,3,3,3,0,-9.029999999999999,-3.23,-3.64,-13.66,-1.97,20.62
13.64346086978912,3,3,3,0,-6.88,-5.69,-3.22,-13.62,-0.43,20.56
13.65346086025238,3,3,3,0,-7.91,-4.02,-2.81,-13.21,0.34,20.44
13.66346108913422,3,3,3,0,-7.3,-5.29,-2.82,-17.93,-2.29,20.65
13.67346107959747,3,3,3,0,-7.73,-5.12,-3.02,-18.18,-1.8,20.48
13.68346107006073,3,3,3,0,-7.54,-5.56,-3.35,-19.27,-2.09,19.28
13.69346106052399,3,3,3,0,-7.19,-5.35,-3.15,-19.87,-2.11,17.93
13.70346105098724,3,3,3,0,-6.74,-4.82,-3.48,-20.3,-1.22,16.55
13.7134610414505,3,3,3,0,-6.57,-4.68,-3.02,-20.21,-0.35,15.3
13.72346103191376,3,3,3,0,-6.4,-4.72,-2.88,-21.02,0.08,13.92
13.73346102237701,3,3,3,0,-6.26,-4.79,-2.72,-20.51,-0.19,12.66
13.74346101284027,3,3,3,0,-6.57,-5.76,-1.86,-18.65,-0.49,11.54
13.75346100330353,3,3,3,0,-6.56,-6.42,-1.11,-16.01,-0.96,10.42
13.76346099376678,3,3,3,0,-6.29,-6.84,-0.53,-13.57,-1.12,9.640000000000001
13.77346098423004,3,3,3,0,-5.93,-7.04,-0.24,-10.83,-0.52,8.94
13.7834609746933,3,3,3,0,-5.33,-6.94,-0.25,-7.68,0.45,7.64
13.79346096515656,3,3,3,0,-5.19,-6.89,-0.34,-4.21,1.01,5.61
13.80346095561981,3,3,3,0,-5.27,-6.88,-0.8,0.04,1.64,3.08
13.81346094608307,3,3,3,0,-5.48,-6.7,-1.57,5.16,3.14,0.35
13.82346093654633,3,3,3,0,-6.56,-4.94,-2.35,8.890000000000001,6.39,-2.16
13.83346092700958,3,3,3,0,-7.42,-2.7,-1.86,11.27,10.67,-3.44
13.84346091747284,3,3,3,0,-8.65,0.67,-1.05,13.2,14.23,-3.27
13.8534609079361,3,3,3,0,-9.359999999999999,5.38,-0.39,16.97,16.95,-1.64
13.86346089839935,3,3,3,0,-10.17,17.15,1.76,21.78,24.65,1.63
13.87346088886261,3,3,3,0,-13.14,23.58,4.28,23.34,33.53,4.96
13.88346087932587,3,3,3,0,-18.17,31.26,4.04,15.2,22,4.79
13.89346086978912,3,3,3,0,-18.9,37.63,-0.09,-5.52,-13.29,2.79
13.90346086025238,3,3,3,0,-15.05,25.6,3.56,-4.94,-21.87,7.64
13.91346108913422,3,3,3,1,-14.97,7.44,1.73,-15.21,-0.61,13.8
13.92346107959747,3,3,3,1,-12.59,-6.54,-0.36,-27.5,-0.8100000000000001,17.02
13.93346107006073,3,3,3,1,-6.05,-14.17,-1.78,-22.35,-6.11,16.29
13.94346106052399,3,3,3,1,-4.26,-7.35,-2.09,-9.15,-2,15.3
13.95346105098724,3,3,3,1,-5.93,-2.86,-2.7,-5.45,-2.49,10.3
13.9634610414505,3,3,3,1,-7.86,-1.11,-3.39,-9.42,-5.76,5.19
13.97346103191376,3,3,3,1,-11.13,0.76,-1.23,-14.34,-4.1,-0.91
13.98346102237701,3,3,3,1,-18.12,11.2,12.51,-14.26,-5.81,-6.7
13.99346101284027,3,3,3,1,-17.18,18.89,12.97,-9.33,-16.09,-7.47
14.00346100330353,3,3,3,1,-17.15,21.38,5.78,-12.86,-7.97,-4.86
14.01346099376678,3,3,3,2,-15.71,9.640000000000001,0.88,-19.32,5.98,-4.16
14.02346098423004,3,3,3,2,-7.03,-10.71,-5.91,-16.9,9.550000000000001,-3.08
14.0334609746933,3,3,3,2,-8.73,-14.31,-11.6,-17.01,12.29,1.77
14.04346096515656,3,3,3,2,-9.85,-15.78,-13.63,-11.87,10.74,2.05
14.05346095561981,3,3,3,2,-9.34,-16.15,-12.31,-1.21,8.220000000000001,-4.03
14.06346094608307,3,3,3,2,-7.02,-5.13,-6.5,12.95,4.97,-10.66
14.07346093654633,3,3,3,2,-8.720000000000001,-0.42,-5.54,14.48,2.11,-16.86
14.08346092700958,3,3,3,2,-10.34,2.03,-4.63,8.460000000000001,3.29,-18.91
14.09346091747284,3,3,3,2,-10.13,4.35,-3.4,4.27,3.63,-15.05
14.1034609079361,3,3,3,2,-10.07,2.27,-1.34,-3.8,7.37,-12.2
14.11346089839935,3,3,3,2,-10.54,-0.44,-0.62,-9.140000000000001,9.5,-12.34
14.12346088886261,3,3,3,2,-11.16,-2.36,0.48,-10.42,9.91,-14.13
14.13346087932587,3,3,3,2,-12.32,-2.21,1.01,-8.56,11,-15.62
14.14346086978912,3,3,3,2,-11.04,-0.93,-0.35,-6.06,13.01,-15
14.15346086025238,3,3,3,2,-7.97,-1.51,-1.53,-4.55,13.01,-11.55
14.16346108913422,3,3,3,2,-6.94,-2.01,-2.64,-2.69,12.22,-9.529999999999999
14.17346107959747,3,3,3,2,-7.16,-1.54,-3.46,0.14,11.08,-10.74
14.18346107006073,3,3,3,2,-8.93,0.53,-4.58,2.39,10.2,-12.91
14.19346106052399,3,3,3,2,-9.960000000000001,0.85,-4.34,3.88,9.77,-13.71
14.20346105098724,3,3,3,2,-10.52,0.25,-3.71,4.97,10.04,-13.1
14.2134610414505,3,3,3,2,-10.22,-0.44,-3.11,6.72,9.869999999999999,-12
14.22346103191376,3,3,3,2,-9.94,-1.09,-1.89,8.380000000000001,9.23,-11.54
14.23346102237701,3,3,3,2,-9.81,-1.26,-1.42,9.92,8.15,-12.1
14.24346101284027,3,3,3,2,-9.85,-0.96,-1.22,11.52,7.22,-12.43
14.25346100330353,3,3,3,2,-9.710000000000001,-0.36,-1.23,12.9,6.54,-12.56
14.26346099376678,3,3,3,2,-9.35,1.06,-1.87,14.32,6.16,-12.53
14.27346098423004,3,3,3,2,-9.06,1.67,-2.21,15.46,5.92,-12.78
14.2834609746933,3,3,3,2,-8.960000000000001,1.95,-2.66,16.25,5.91,-13.74
14.29346096515656,3,3,3,2,-9.25,1.35,-3.17,16.37,5.65,-14.82
14.30346095561981,3,3,3,2,-9.35,1.06,-3.05,16.38,4.61,-15.55
14.31446087360382,3,3,3,2,-9.210000000000001,0.9,-2.83,16.1,3.81,-15.87
14.32346093654633,3,3,3,2,-8.58,1.1,-2.04,14.14,4.94,-15.82
14.33446109294891,3,3,3,2,-9.35,0.22,-2.11,12.97,6.86,-15.73
14.34446108341217,3,3,3,2,-9.16,-0.02,-2.23,15.69,4.73,-14.38
14.35446107387543,3,3,3,2,-9.460000000000001,0.35,-2.65,14.9,4.84,-12.52
14.36446106433868,3,3,3,2,-9.67,0.71,-2.54,12.7,4.49,-10.93
14.37446105480194,3,3,3,2,-9.949999999999999,0.54,-2.38,10.74,4.23,-9.77
14.3844610452652,3,3,3,2,-9.92,0.5600000000000001,-2.41,10.04,3.68,-8.93
14.39446103572845,3,3,3,2,-9.779999999999999,0.73,-1.9,9.94,2.93,-8.42
14.40446102619171,3,3,3,2,-9.59,1.06,-1.56,10.42,2.17,-8.130000000000001
14.41446101665497,3,3,3,2,-9.41,2,-1.56,10.83,1.78,-7.8
14.42446100711823,3,3,3,2,-9.359999999999999,1.7,-1.94,10.55,1.79,-7.42
14.43446099758148,3,3,3,2,-9.35,1.02,-2.28,10.01,1.81,-7.04
14.44446098804474,3,3,3,2,-9.460000000000001,0.2,-2.59,9.58,1.87,-6.75
14.454460978508,3,3,3,2,-9.51,-0.87,-2.72,9.69,1.73,-6.8
14.46446096897125,3,3,3,2,-9.539999999999999,-1.02,-2.79,10.13,1.51,-7
14.47446095943451,3,3,3,2,-9.5,-0.99,-2.66,10.4,1.26,-7.42
14.48446094989777,3,3,3,2,-9.44,-0.84,-2.57,10.13,1.09,-7.89
14.49446094036102,3,3,3,2,-9.140000000000001,-0.55,-2.07,9.67,0.99,-8.369999999999999
14.50446093082428,3,3,3,2,-9.029999999999999,-0.42,-1.81,9.140000000000001,1.06,-8.640000000000001
14.51446092128754,3,3,3,2,-9.119999999999999,-0.4,-1.76,8.470000000000001,1.31,-8.720000000000001
14.52446091175079,3,3,3,2,-9.51,-0.5,-2.52,8.99,0.84,-8.640000000000001
14.53446090221405,3,3,3,2,-9.68,-0.07000000000000001,-2.3,8.210000000000001,1.02,-8.42
14.54446089267731,3,3,3,2,-9.68,0.23,-1.75,6.65,1.55,-8.41
14.55446088314056,3,3,3,2,-9.949999999999999,0.26,-1.7,6.18,0.77,-8.109999999999999
14.56446087360382,3,3,3,3,-10.11,0.2,-1.52,5.28,0.83,-7.46
14.57446086406708,3,3,3,3,-10.87,-0.39,-1.54,5.46,0.92,-6.83
14.58446109294891,3,3,3,3,-10.49,-0.27,-2.02,6.7,0.46,-6.58
14.59446108341217,3,3,3,3,-10.84,-0.18,-2.85,8.5,0.74,-6.2
14.60446107387543,3,3,3,3,-10.98,0.75,-2.7,10.7,0.48,-5.64
14.61446106433868,3,3,3,3,-12.16,3.03,-1.64,10.64,0.85,-5.16
14.62446105480194,3,3,3,3,-12.55,3.72,-1.41,9.06,0.29,-4.48
14.6344610452652,3,3,3,3,-12.63,5.22,-0.61,6.6,-0.33,-3.37
14.64446103572845,3,3,3,3,-12.68,5.35,-0.12,3.78,-0.49,-2.08
14.65446102619171,3,3,3,3,-13.34,5,2.43,1.73,-1.34,0
14.66446101665497,3,3,3,3,-15.31,4.78,3.71,-0.76,-3.28,3.73
14.67446100711823,3,3,3,3,-16.02,3.46,4.14,-3.57,-7.01,6.16
14.68446099758148,3,3,3,3,-15.23,3.2,4.68,-1.38,-9.66,8.529999999999999
14.69446098804474,3,3,3,3,-13.56,2.51,3.18,3.4,-11.43,10.44
14.704460978508,3,3,3,3,-12.12,2.47,0.62,9.4,-11.62,11.96
14.71446096897125,3,3,3,3,-10.65,2.95,-2.67,14.22,-11.43,12.81
14.72446095943451,3,3,3,3,-9.48,1.55,-3.33,11.63,-10.94,13.55
14.73446094989777,3,3,3,3,-11.45,-2.79,-3.86,7.6,-10.24,15.1
14.74446094036102,3,3,3,3,-12.6,-3.39,-3.49,5.24,-8.970000000000001,16.27
14.75446093082428,3,3,3,3,-13.65,-2.81,-2.89,5.54,-7.55,17.81
14.76446092128754,3,3,3,3,-14.85,-1.51,-2.39,5.24,-6.06,18
14.77446091175079,3,3,3,3,-15.71,-1.64,-2.16,1.98,-5.69,16.22
14.78446090221405,3,3,3,3,-15.11,-2.75,-2.09,-0.45,-5.4,14.68
14.79446089267731,3,3,3,3,-13.51,-5.48,-1.74,-3.63,-5.04,14.13
14.80446088314056,3,3,3,3,-12.14,-7.59,-1.94,-4.94,-4.71,14.34
14.81446087360382,3,3,3,3,-11.4,-7.65,-2.19,-2.52,-3.9,15.54
14.82446086406708,3,3,3,3,-11.72,-6.49,-2.04,0.78,-3.29,17.02
14.83446109294891,3,3,3,3,-11.41,-6.6,-2.04,1.54,-3.81,17.53
14.84446108341217,3,3,3,3,-11.14,-5.41,-1.94,1.35,-4.8,17.29
14.85446107387543,3,3,3,3,-9.390000000000001,-5.88,-1.29,-0.38,-5.48,18.6
14.86446106433868,3,3,3,3,-8.449999999999999,-5.23,-1.16,-0.09,-4.93,19.61
14.87446105480194,3,3,3,3,-8.75,-3.57,-1.58,-1.25,-4.55,20.03
14.8844610452652,3,3,3,3,-8.31,-4.96,-1.31,-4.2,-4.24,19.96
14.89446103572845,3,3,3,3,-8.74,-4.63,-2.07,-3.29,-2.15,20.06
14.90446102619171,3,3,3,3,-8.51,-5,-2.02,-6.38,-2.21,19.18
14.91446101665497,3,3,3,3,-8.91,-4.88,-2.09,-8.75,-2.11,17.65
14.92446100711823,3,3,3,3,-9.5,-3.82,-2.24,-11.73,-2.53,16.07
14.93446099758148,3,3,3,3,-5.58,-5.88,-2.5,-14.82,-3.44,14.3
14.94446098804474,3,3,3,3,-6.15,-4.21,-1.86,-13.29,-0.51,14.36
14.954460978508,3,3,3,3,-7.89,-2.32,-2.52,-15.45,0.16,14.37
14.96446096897125,3,3,3,3,-7.2,-5.3,-2.55,-15.95,-2.01,15.03
14.97446095943451,3,3,3,3,-8.470000000000001,-5.06,-1.96,-12.4,-1.98,14.59
14.98446094989777,3,3,3,3,-8.130000000000001,-5.32,-1.63,-12.76,-4.14,13.64
14.99446094036102,3,3,3,3,-7.97,-5.24,-1.3,-11.17,-3.61,13.35
15.00446093082428,3,3,3,3,-7.91,-4.75,-1.13,-9.210000000000001,-2.17,13.08
15.01446092128754,3,3,3,3,-8.140000000000001,-2.81,0.09,-7.53,-1.4,12.36
15.02446091175079,3,3,3,3,-7.61,-2.56,0.21,-7.34,-1.56,11.73
15.03446090221405,3,3,3,3,-7.17,-2.62,-0.15,-6.23,-1.03,12.15
15.04446089267731,3,3,3,3,-7.2,-2.18,-0.34,-4.18,0.99,12.59
15.05446088314056,3,3,3,3,-8.25,-1.5,-0.38,-2.17,3.07,11.98
15.06446087360382,3,3,3,3,-8.359999999999999,-1.11,-0.31,-0.21,4.64,10.52
15.07446086406708,3,3,3,3,-8.289999999999999,-0.99,-0.53,0.88,5.69,9.25
15.08446109294891,3,3,3,3,-8.06,-0.78,-0.85,1.14,5.77,8.57
15.09446108341217,3,3,3,3,-8.68,-0.78,-1.89,1.02,5.79,8.33
15.10446107387543,3,3,3,3,-8.81,-0.49,-2.59,1.15,3.68,7.94
15.11446106433868,3,3,3,3,-8.369999999999999,-0.49,-2.47,2.32,0.15,7.72
15.12446105480194,3,3,3,3,-8.33,1.37,-1.58,2.12,-1.24,7.87
15.1344610452652,3,3,3,3,-8.02,2.02,-1.15,1.53,-3.72,6.66
15.14446103572845,3,3,3,3,-7.87,2.5,-0.92,0.9399999999999999,-5.1,5.22
15.15446102619171,3,3,3,3,-7.6,2.77,-0.68,0.98,-4.8,3.62
15.16446101665497,3,3,3,3,-8.16,4.36,-0.12,0.99,-2.62,2.37
15.17446100711823,3,3,3,3,-8.84,5.09,0.58,-0.54,-0.48,1.13
15.18446099758148,3,3,3,3,-9.359999999999999,5.59,1.48,-2.49,-1.14,0.8100000000000001
15.19446098804474,3,3,3,3,-9.9,6,2.53,-4.07,-3.11,1.26
15.204460978508,3,3,3,3,-10.03,7.62,3.09,-4.81,-5.35,2.08
15.21446096897125,3,3,3,3,-9.27,8.529999999999999,2.58,-6,-7.28,2.77
15.22446095943451,3,3,3,3,-9.970000000000001,9.699999999999999,2.41,-7.73,-5.36,3.14
15.23446094989777,3,3,3,3,-10.15,10.04,2.11,-7.92,-4.78,3.86
15.24446094036102,3,3,3,3,-9.08,9.09,1.67,-7.96,-4.8,5.73
15.25446093082428,3,3,3,3,-8.699999999999999,7.06,1.86,-9.94,-2.98,7.24
15.26446092128754,3,3,3,3,-8.880000000000001,5.35,1.24,-12.38,-0.07000000000000001,7.8
15.27446091175079,3,3,3,3,-9.140000000000001,3.23,0.52,-13.97,0.9,7.87
15.28446090221405,3,3,3,3,-8.119999999999999,0.1,-0.37,-14.31,-0.23,8.02
15.29446089267731,3,3,3,3,-8.5,0.39,0.52,-13.89,-1.19,7.65
15.30446088314056,3,3,3,3,-9.58,2.14,-0.9,-13.59,0.6899999999999999,6.36
15.31446087360382,3,3,3,3,-10.62,2.22,-2.6,-16.87,5.33,4.53
15.32446086406708,3,3,3,3,-15.69,2.27,7.4,-12.87,8.09,2.52
15.33546102046967,3,3,3,3,-13.9,6.25,11.75,-4.12,-5.81,-3.78
15.34446108341217,3,3,3,3,-13.32,12.19,8.640000000000001,-3.71,-14.92,-8.880000000000001
15.35446107387543,3,3,3,3,-16.6,12.91,4.09,-8.050000000000001,1.74,-7.05
15.36546099185944,3,3,3,3,-10.31,1.94,-0.68,-13.41,10.58,-4.69
15.37546098232269,3,3,3,3,-8.16,0.66,-2.77,-14.41,8.970000000000001,-1.7
15.38546097278595,3,3,3,3,-8.550000000000001,-2.36,-5.14,-10.99,9.119999999999999,1.32
15.39546096324921,3,3,3,3,-9.529999999999999,-6.56,-7.37,-11.31,8.880000000000001,-0.13
15.40546095371246,3,3,3,3,-7.35,-8.220000000000001,-5.87,-7.74,3.94,-2.64
15.41546094417572,3,3,3,2,-8.01,-6.45,-4.67,-1.46,3.01,-4.83
15.42546093463898,3,3,3,2,-9.69,-4.67,-4.35,2.36,5.08,-7.25
15.43546092510223,3,3,3,2,-10.93,-2.66,-3.83,2.77,5.42,-9.710000000000001
15.44546091556549,3,3,3,2,-9.9,-2.25,-3.39,1.91,4.33,-11.29
15.45546090602875,3,3,3,2,-10.16,-2.67,-2.82,1.5,4.27,-10.09
15.465460896492,3,3,3,2,-10.99,-2.86,-2.24,1.88,5.51,-8.67
15.47546088695526,3,3,3,2,-11.36,-1.98,-1.55,2.7,5.02,-8.84
15.48546087741852,3,3,3,2,-11.48,1.03,-0.95,3.1,5.07,-9.449999999999999
15.49546086788177,3,3,3,2,-10.65,1.19,-1.1,1.73,6.22,-9.77
15.50546085834503,3,3,3,2,-9.75,0.82,-1.07,-0.28,7.37,-9.050000000000001
15.53546106815338,3,3,3,2,-8.92,0.98,-1.95,0.11,6.98,-6.94
15.56546103954315,3,3,3,2,-10.46,1.22,-1.45,1.18,6.57,-6.66
15.57546103000641,3,3,3,2,-10.34,0.91,-1.63,1.09,6.38,-5.89
15.58546102046967,3,3,3,2,-10.02,0.84,-1.74,1.46,6.06,-5.53
15.59546101093292,3,3,3,2,-9.68,1.26,-1.78,1.63,5.96,-5.88
15.60546100139618,3,3,3,2,-9.43,1.68,-1.81,1.27,5.98,-6.24
15.61546099185944,3,3,3,2,-9.449999999999999,0.9399999999999999,-1.66,0.17,5.97,-6.21
15.62546098232269,3,3,3,2,-9.359999999999999,0.29,-1.64,-1.12,5.89,-6.15
15.63546097278595,3,3,3,2,-9.390000000000001,-0.18,-1.55,-1.54,5.8,-6.26
15.64546096324921,3,3,3,2,-9.74,-0.66,-1.5,-0.88,5.61,-6.42
15.65546095371246,3,3,3,2,-9.9,-0.89,-1.33,0.51,4.91,-6.51
15.66546094417572,3,3,3,2,-9.859999999999999,-0.8100000000000001,-1.32,2.17,4.3,-6.6
15.67546093463898,3,3,3,2,-9.84,-0.11,-1.47,4.25,3.88,-6.4
15.68546092510223,3,3,3,2,-9.67,0.76,-1.98,5.72,3.78,-5.65
15.69546091556549,3,3,3,2,-9.390000000000001,1.3,-1.91,6.96,3.38,-4.98
15.70546090602875,3,3,3,2,-9.23,1.51,-1.84,7.71,3.1,-4.8
15.715460896492,3,3,3,2,-9.23,1.9,-1.79,8.279999999999999,3.13,-4.93
15.72546088695526,3,3,3,2,-9.539999999999999,2.64,-1.97,8.44,3.27,-5.05
15.73546087741852,3,3,3,2,-9.630000000000001,2.78,-2.01,7.56,3.43,-4.81
15.74546086788177,3,3,3,2,-9.85,2.61,-1.86,6.11,3.49,-4.26
15.75546085834503,3,3,3,2,-9.9,2.31,-1.78,5.27,3.4,-3.58
15.76546108722687,3,3,3,2,-9.65,1.85,-1.91,4.59,3.56,-3.04
15.77546107769012,3,3,3,2,-9.65,1.51,-1.83,3.87,3.74,-2.7
15.78546106815338,3,3,3,2,-9.699999999999999,1.14,-1.67,3.81,3.77,-2.42
15.79546105861664,3,3,3,2,-9.68,0.98,-1.62,4.32,3.49,-2.3
15.8054610490799,3,3,3,2,-9.800000000000001,1.09,-1.53,5.09,3.33,-2.52
15.81546103954315,3,3,3,2,-9.75,0.9,-1.49,5.52,3.15,-2.72
15.82546103000641,3,3,3,2,-9.779999999999999,0.8,-1.55,5.55,3.1,-2.62
15.83546102046967,3,3,3,2,-9.81,0.88,-1.66,5.87,3.13,-2.23
15.84546101093292,3,3,3,2,-9.619999999999999,1,-2.22,5.73,2.98,-2.1
15.85546100139618,3,3,3,2,-9.710000000000001,1.25,-2.12,5.91,2.61,-1.99
15.86546099185944,3,3,3,2,-9.699999999999999,1.36,-1.98,6.28,2.07,-1.88
15.87546098232269,3,3,3,2,-9.640000000000001,1.15,-1.21,6.3,1.54,-1.7
15.88546097278595,3,3,3,2,-9.529999999999999,0.9399999999999999,-1.12,6.75,1.17,-1.49
15.89546096324921,3,3,3,2,-9.369999999999999,0.57,-1.39,6.57,0.97,-1.34
15.90546095371246,3,3,3,2,-9.68,0.74,-2.09,6.24,0.8100000000000001,-1.37
15.91546094417572,3,3,3,2,-10,1.06,-2.75,5.73,0.67,-1.06
15.92546093463898,3,3,3,2,-9.4,0.95,-2.95,5.19,0.37,-0.9
15.93546092510223,3,3,3,2,-9.01,0.96,-2.97,4.45,0.45,-1.08
15.94546091556549,3,3,3,2,-8.880000000000001,0.53,-2.83,3.05,1.03,-1.23
15.95546090602875,3,3,3,2,-9.32,-0.84,-2.34,2.09,1.58,-1.77
15.965460896492,3,3,3,2,-9.84,-1.18,-2.28,1.76,2.14,-1.98
15.97546088695526,3,3,3,2,-9.960000000000001,-1.36,-2.31,1.82,2.26,-1.94
15.98546087741852,3,3,3,2,-9.6,-1.15,-2.31,2.41,1.75,-2.09
15.99546086788177,3,3,3,2,-9.300000000000001,-0.05,-2.32,2.39,1.53,-2.2
16.00546085834503,3,3,3,2,-9.279999999999999,0.43,-2.49,2.96,0.68,-2.49
16.01546108722687,3,3,3,2,-9.19,0.64,-2.59,1.96,0.5600000000000001,-2.66
16.02546107769012,3,3,3,2,-9.220000000000001,0.34,-2.54,0.73,0.55,-2.82
16.03546106815338,3,3,3,2,-9.619999999999999,-0.44,-2.69,-0.48,0.72,-2.97
16.04546105861664,3,3,3,2,-9.539999999999999,-0.64,-2.46,-0.54,0.67,-2.87
16.0554610490799,3,3,3,2,-9.470000000000001,-0.92,-2.1,-0.17,0.46,-2.82
16.06546103954315,3,3,3,2,-9.529999999999999,-0.91,-1.74,0.39,0.32,-2.81
16.07546103000641,3,3,3,2,-9.550000000000001,-0.45,-1.34,1,0.22,-2.75
16.10546100139618,3,3,3,2,-9.539999999999999,-0.06,-1.11,0.8100000000000001,-0.24,-2.59
16.11546099185944,3,3,3,2,-9.52,-0.09,-1.5,0.45,-0.39,-2.54
16.13546097278595,3,3,3,2,-9.69,-0.45,-2.05,-1,-0.55,-2.11
16.14546096324921,3,3,3,2,-9.619999999999999,-0.41,-2.32,-0.87,-0.66,-1.94
16.15546095371246,3,3,3,2,-9.68,-0.76,-2.53,-1.01,-0.74,-1.91
16.16546094417572,3,3,3,2,-9.67,-0.71,-2.48,-0.92,-0.6,-1.89
16.17546093463898,3,3,3,2,-9.630000000000001,-0.57,-2.54,-0.4,-0.58,-1.8
16.18546092510223,3,3,3,2,-9.6,-0.6,-2.43,-0.11,-0.52,-1.61
16.19546091556549,3,3,3,2,-9.619999999999999,-0.67,-2.11,0.08,-0.25,-1.31
16.20546090602875,3,3,3,2,-9.66,-0.55,-1.81,0.41,-0.13,-1.03
16.215460896492,3,3,3,2,-9.68,-0.5,-1.59,0.79,-0.22,-0.89
16.22546088695526,3,3,3,2,-9.640000000000001,-0.43,-1.54,1.1,-0.3,-0.9399999999999999
16.23546087741852,3,3,3,2,-9.58,-0.39,-1.59,1.31,-0.36,-1.04
16.24546086788177,3,3,3,2,-9.550000000000001,-0.51,-1.65,1.24,-0.3,-1
16.25546085834503,3,3,3,2,-9.58,-0.64,-1.69,1.15,-0.36,-0.85
16.26546108722687,3,3,3,2,-9.539999999999999,-0.75,-1.86,1.15,-0.37,-0.78
16.27546107769012,3,3,3,2,-9.57,-1.02,-2.15,1.14,-0.27,-0.78
16.28546106815338,3,3,3,2,-9.539999999999999,-1.02,-2.29,1.02,-0.41,-0.7
16.29546105861664,3,3,3,2,-9.44,-0.97,-2.3,1.01,-0.41,-0.6899999999999999
16.3054610490799,3,3,3,2,-9.449999999999999,-1.1,-2.27,0.78,-0.34,-0.79
16.31546103954315,3,3,3,2,-9.52,-1.09,-2.34,0.57,-0.34,-0.86
16.32546103000641,3,3,3,2,-9.550000000000001,-0.93,-2.22,0.42,-0.31,-0.98
16.33546102046967,3,3,3,2,-9.66,-0.88,-2.25,0.23,-0.38,-1.11
16.34546101093292,3,3,3,2,-9.69,-0.89,-2.14,0.03,-0.25,-1.15
16.35546100139618,3,3,3,2,-9.710000000000001,-0.85,-1.84,0.1,-0.28,-1.2
16.36546099185944,3,3,3,2,-9.76,-0.83,-1.67,0.16,-0.23,-1.22
16.37546098232269,3,3,3,2,-9.73,-0.86,-1.58,0.44,-0.14,-1.1
16.3864609003067,3,3,3,2,-9.69,-0.89,-1.67,0.96,-0.14,-0.97
16.39646089076996,3,3,3,2,-9.609999999999999,-0.72,-1.56,1.34,-0.17,-0.88
16.40646088123322,3,3,3,2,-9.630000000000001,-0.53,-1.61,1.66,-0.25,-0.6899999999999999
16.41646087169647,3,3,3,2,-9.69,-0.5,-1.61,1.73,-0.33,-0.52
16.42646086215973,3,3,3,2,-9.66,-0.58,-1.64,1.45,-0.35,-0.43
16.43646109104156,3,3,3,2,-9.58,-0.54,-1.93,1.33,-0.43,-0.33
16.44646108150482,3,3,3,2,-9.529999999999999,-0.5600000000000001,-1.9,1.24,-0.36,-0.38
16.45646107196808,3,3,3,2,-9.49,-0.63,-1.95,1.09,-0.36,-0.42
16.46646106243134,3,3,3,2,-9.5,-0.76,-1.97,0.89,-0.24,-0.3
16.47646105289459,3,3,3,2,-9.470000000000001,-0.9,-1.93,0.62,-0.22,-0.28
16.48646104335785,3,3,3,2,-9.43,-0.89,-1.99,0.22,-0.29,-0.33
16.49646103382111,3,3,3,2,-9.5,-0.85,-1.93,-0.07000000000000001,-0.3,-0.39
16.50646102428436,3,3,3,2,-9.56,-0.72,-1.85,-0.37,-0.27,-0.46
16.51646101474762,3,3,3,2,-9.65,-1.03,-1.89,-0.6899999999999999,-0.2,-0.49
16.52646100521088,3,3,3,2,-9.619999999999999,-1.16,-2.04,-1.14,-0.14,-0.48
16.53646099567413,3,3,3,2,-9.6,-1.15,-2.17,-1.04,-0.08,-0.4
16.54646098613739,3,3,3,2,-9.69,-1.01,-2.17,-0.8,-0.05,-0.37
16.55646097660065,3,3,3,2,-9.68,-1.15,-1.98,-0.71,0,-0.41
16.5664609670639,3,3,3,2,-9.640000000000001,-1.11,-2,-0.63,0.01,-0.32
16.57646095752716,3,3,3,2,-9.56,-0.95,-1.97,-0.26,-0.06,-0.28
16.58646094799042,3,3,3,2,-9.59,-0.51,-1.92,0.17,-0.09,-0.32
16.59646093845367,3,3,3,2,-9.529999999999999,-0.52,-1.77,0.35,-0.25,-0.32
16.60646092891693,3,3,3,2,-9.630000000000001,-0.74,-1.68,-0.28,-0.2,-0.21
16.61646091938019,3,3,3,2,-9.630000000000001,-0.64,-1.81,-0.42,-0.09,0.09
16.62646090984344,3,3,3,2,-9.58,-0.28,-1.91,-0.16,-0.19,0.19
16.6364609003067,3,3,3,2,-9.6,-0.3,-2.05,-0.06,-0.27,0.08
16.64646089076996,3,3,3,2,-9.58,-0.34,-1.95,-0.37,-0.23,-0.01
16.65646088123322,3,3,3,2,-9.58,-0.4,-1.92,-0.62,-0.15,0.11
16.66646087169647,3,3,3,2,-9.619999999999999,-0.44,-1.87,-0.68,-0.07000000000000001,0.24
16.67646086215973,3,3,3,2,-9.640000000000001,-0.43,-1.88,-0.63,0.01,0.23
16.68646109104156,3,3,3,2,-9.640000000000001,-0.63,-1.91,-0.64,-0.03,0.13
16.69646108150482,3,3,3,2,-9.609999999999999,-0.86,-1.9,-0.72,0.02,0.05
16.70646107196808,3,3,3,2,-9.630000000000001,-0.78,-1.86,-0.63,0,0.03
16.71646106243134,3,3,3,2,-9.609999999999999,-0.75,-1.76,-0.76,-0.04,0.1
16.72646105289459,3,3,3,2,-9.51,-0.74,-1.76,-0.77,-0.12,0.17
16.73646104335785,3,3,3,2,-9.470000000000001,-0.61,-1.91,-0.67,-0.2,0.04
16.74646103382111,3,3,3,2,-9.67,-0.5600000000000001,-1.88,-0.65,-0.22,-0.1
16.75646102428436,3,3,3,2,-9.710000000000001,-0.57,-1.87,-0.88,-0.23,-0.09
16.76646101474762,3,3,3,2,-9.699999999999999,-0.59,-1.97,-0.88,-0.1,0.01
16.77646100521088,3,3,3,2,-9.630000000000001,-0.51,-1.95,-0.9,-0.08,0.16
16.78646099567413,3,3,3,2,-9.5,-0.35,-2.04,-0.95,-0.14,0.16
16.79646098613739,3,3,3,2,-9.49,-0.29,-1.96,-1.02,-0.06,0.15
16.80646097660065,3,3,3,2,-9.51,-0.4,-1.89,-1.17,-0.03,0.06
16.8164609670639,3,3,3,2,-9.630000000000001,-0.54,-1.9,-1.42,0.01,0.04
16.82646095752716,3,3,3,2,-9.710000000000001,-0.65,-1.92,-1.35,0.12,0.12
16.83646094799042,3,3,3,2,-9.630000000000001,-0.57,-1.96,-1.28,0,0.17
16.84646093845367,3,3,3,2,-9.59,-0.38,-1.92,-1.01,-0.07000000000000001,0.14
16.85646092891693,3,3,3,2,-9.609999999999999,-0.4,-1.88,-0.89,-0.05,0.06
16.86646091938019,3,3,3,2,-9.630000000000001,-0.49,-1.79,-0.93,-0.1,0.09
16.87646090984344,3,3,3,2,-9.57,-0.45,-1.85,-0.77,-0.02,0.28
16.8864609003067,3,3,3,2,-9.52,-0.43,-1.99,-0.51,-0.04,0.3
16.89646089076996,3,3,3,2,-9.59,-0.46,-1.95,-0.44,-0.13,0.29
16.90646088123322,3,3,3,2,-9.630000000000001,-0.4,-1.91,-0.44,-0.05,0.35
16.91646087169647,3,3,3,3,-9.619999999999999,-0.39,-1.86,-0.48,-0.08,0.4
16.92646086215973,3,3,3,3,-9.539999999999999,-0.44,-1.91,-0.46,-0.03,0.44
16.93646109104156,3,3,3,3,-9.550000000000001,-0.47,-1.97,-0.46,-0.03,0.38
16.94646108150482,3,3,3,3,-9.66,-0.65,-1.81,-0.5,-0.13,0.3
16.95646107196808,3,3,3,3,-9.66,-0.7,-1.84,-0.57,-0.13,0.26
16.96646106243134,3,3,3,3,-9.66,-0.62,-1.78,-0.47,-0.03,0.27
16.97646105289459,3,3,3,3,-9.66,-0.67,-1.73,-0.51,-0.18,0.43
16.98646104335785,3,3,3,3,-9.57,-0.44,-1.89,-0.4,-0.18,0.54
16.99646103382111,3,3,3,3,-9.58,-0.43,-1.96,-0.36,-0.21,0.46
17.00646102428436,3,3,3,3,-9.6,-0.43,-1.93,-0.23,-0.19,0.43
17.01646101474762,3,3,3,3,-9.630000000000001,-0.39,-1.97,-0.21,-0.11,0.4
17.02646100521088,3,3,3,3,-9.619999999999999,-0.47,-1.84,-0.15,-0.05,0.52
17.03646099567413,3,3,3,3,-9.56,-0.47,-1.87,-0.16,-0.05,0.63
17.04646098613739,3,3,3,3,-9.550000000000001,-0.46,-1.86,-0.1,-0.07000000000000001,0.6
17.05646097660065,3,3,3,3,-9.609999999999999,-0.52,-1.84,0,-0.05,0.55
17.0664609670639,3,3,3,3,-9.710000000000001,-0.46,-1.73,-0.07000000000000001,-0.26,0.5
17.07646095752716,3,3,3,3,-9.65,-0.45,-1.84,-0.01,-0.4,0.45
17.08646094799042,3,3,3,3,-9.68,-0.52,-1.88,-0.04,-0.35,0.45
17.09646093845367,3,3,3,3,-9.619999999999999,-0.76,-1.87,-0.28,-0.29,0.46
17.12646090984344,3,3,3,3,-9.65,-0.8100000000000001,-1.9,-0.01,-0.05,0.34
17.1364609003067,3,3,3,3,-9.67,-0.7,-1.96,0.18,-0.09,0.39
17.14646089076996,3,3,3,3,-9.609999999999999,-0.59,-1.87,0.36,-0.22,0.39
17.15646088123322,3,3,3,3,-9.619999999999999,-0.59,-1.86,0.31,-0.28,0.42
17.16646087169647,3,3,3,3,-9.619999999999999,-0.66,-1.77,0.23,-0.27,0.47
17.17646086215973,3,3,3,3,-9.630000000000001,-0.74,-1.78,0.11,-0.19,0.63
17.18646109104156,3,3,3,3,-9.57,-0.64,-1.95,0.21,-0.18,0.62
17.19646108150482,3,3,3,3,-9.57,-0.74,-1.82,0.23,-0.22,0.53
17.20646107196808,3,3,3,3,-9.58,-0.61,-1.83,0.32,-0.35,0.52
17.21646106243134,3,3,3,3,-9.59,-0.35,-1.86,0.5,-0.38,0.47
17.22646105289459,3,3,3,3,-9.640000000000001,-0.41,-1.74,0.46,-0.38,0.4
17.23646104335785,3,3,3,3,-9.66,-0.46,-1.88,0.35,-0.39,0.46
17.24646103382111,3,3,3,3,-9.73,-0.63,-1.86,0.3,-0.28,0.44
17.25646102428436,3,3,3,3,-9.73,-0.77,-1.77,0.23,-0.3,0.54
17.26646101474762,3,3,3,3,-9.609999999999999,-0.78,-1.8,0.39,-0.23,0.62
17.27646100521088,3,3,3,3,-9.57,-0.84,-1.86,0.8,-0.23,0.64
17.28646099567413,3,3,3,3,-9.65,-0.86,-1.85,0.99,-0.19,0.58
17.29646098613739,3,3,3,3,-9.6,-0.5,-1.78,1.29,-0.27,0.5600000000000001
17.30646097660065,3,3,3,3,-9.609999999999999,-0.52,-1.73,1.53,-0.27,0.48
17.3164609670639,3,3,3,3,-9.65,-0.54,-1.73,1.55,-0.29,0.38
17.32646095752716,3,3,3,3,-9.68,-0.35,-1.7,1.5,-0.3,0.38
17.33646094799042,3,3,3,3,-9.630000000000001,-0.31,-1.78,1.47,-0.3,0.33
17.36646091938019,3,3,3,3,-9.619999999999999,-0.27,-1.75,0.98,-0.16,0.4
17.39646089076996,3,3,3,3,-9.619999999999999,-0.05,-1.8,0.86,-0.09,0.35
17.40646088123322,3,3,3,3,-9.640000000000001,-0.1,-1.76,0.63,0,0.28
17.4174610376358,3,3,3,3,-9.609999999999999,-0.06,-1.69,0.4,0,0.28
17.42746102809906,3,3,3,3,-9.550000000000001,-0.03,-1.72,0.23,0.02,0.3
17.43746101856232,3,3,3,3,-9.619999999999999,-0.02,-1.71,-0.03,0.04,0.25
17.44746100902557,3,3,3,3,-9.619999999999999,-0.05,-1.67,-0.29,0.07000000000000001,0.17
17.45746099948883,3,3,3,3,-9.640000000000001,-0.3,-1.71,-0.46,0.11,0.14
17.51746094226837,3,3,3,3,-9.59,0.02,-1.79,-0.03,0.02,0
17.52746093273163,3,3,3,3,-9.619999999999999,0,-1.73,-0.17,0.07000000000000001,0.03
17.53746092319489,3,3,3,3,-9.68,-0.07000000000000001,-1.73,-0.39,0.17,0.05
17.54746091365814,3,3,3,3,-9.619999999999999,-0.15,-1.75,-0.63,0.26,0.18
17.5574609041214,3,3,3,3,-9.59,-0.13,-1.72,-0.73,0.33,0.19
17.56746089458466,3,3,3,3,-9.58,-0.17,-1.69,-0.84,0.18,0.12
17.57746088504791,3,3,3,3,-9.59,-0.09,-1.77,-0.84,0.18,0.12
17.58746087551117,3,3,3,3,-9.630000000000001,-0.12,-1.85,-0.97,0.16,0.05
17.60746085643768,3,3,3,3,-9.66,-0.19,-1.73,-1.29,0.29,0.04
17.61746108531952,3,3,3,3,-9.67,-0.35,-1.73,-1.22,0.34,0.13
17.62746107578278,3,3,3,3,-9.65,-0.33,-1.68,-1.22,0.34,0.13
17.63746106624603,3,3,3,3,-9.66,-0.42,-1.73,-1.08,0.31,0.07000000000000001
17.64746105670929,3,3,3,3,-9.68,-0.41,-1.78,-0.78,0.23,-0.07000000000000001
17.65746104717255,3,3,3,3,-9.609999999999999,-0.33,-1.82,-0.6,0.15,-0.04
17.6674610376358,3,3,3,3,-9.59,-0.33,-1.83,-0.46,0.17,-0.11
17.67746102809906,3,3,3,3,-9.59,-0.27,-1.87,-0.32,0.2,-0.08
17.69746100902557,3,3,3,3,-9.67,-0.45,-1.83,-0.33,0.2,-0.03
17.70746099948883,3,3,3,3,-9.619999999999999,-0.38,-1.81,-0.24,0.18,0.03
17.71746098995209,3,3,3,3,-9.619999999999999,-0.33,-1.7,-0.1,0.15,0.08
17.72746098041534,3,3,3,3,-9.6,-0.25,-1.67,-0.04,0.08,0.03
17.7374609708786,3,3,3,3,-9.619999999999999,-0.21,-1.87,-0.13,0.12,-0.02
17.74746096134186,3,3,3,3,-9.630000000000001,-0.18,-1.83,-0.26,0.12,-0.02
17.75746095180511,3,3,3,3,-9.619999999999999,-0.15,-1.82,-0.47,0.22,-0.05
17.76746094226837,3,3,3,3,-9.6,-0.16,-1.76,-0.59,0.18,-0.07000000000000001
17.77746093273163,3,3,3,3,-9.619999999999999,-0.06,-1.82,-0.6,0.31,-0.07000000000000001
17.78746092319489,3,3,3,3,-9.640000000000001,-0.05,-1.75,-0.67,0.31,0
17.79746091365814,3,3,3,3,-9.710000000000001,-0.08,-1.72,-0.65,0.26,0.04
17.8074609041214,3,3,3,3,-9.619999999999999,-0.07000000000000001,-1.71,-0.72,0.29,0.08
17.81746089458466,3,3,3,3,-9.58,-0.05,-1.72,-0.75,0.26,0.12
17.82746088504791,3,3,3,3,-9.6,0.01,-1.64,-0.8100000000000001,0.23,0.22
17.83746087551117,3,3,3,3,-9.6,-0.03,-1.7,-0.85,0.24,0.31
17.84746086597443,3,3,3,3,-9.58,-0.15,-1.69,-1,0.22,0.35
17.85746085643768,3,3,3,3,-9.65,-0.24,-1.68,-0.8,0.28,0.4
17.86746108531952,3,3,3,3,-9.66,-0.29,-1.75,-0.6,0.21,0.43
17.87746107578278,3,3,3,3,-9.67,-0.32,-1.73,-0.31,0.15,0.41
17.88746106624603,3,3,3,3,-9.699999999999999,-0.28,-1.77,-0.12,0.14,0.4
17.89746105670929,3,3,3,3,-9.59,-0.23,-1.78,-0.07000000000000001,0.11,0.41
17.90746104717255,3,3,3,3,-9.59,-0.23,-1.68,-0.12,0.25,0.47
17.9174610376358,3,3,3,3,-9.57,-0.2,-1.61,-0.12,0.15,0.57
17.92746102809906,3,3,3,3,-9.56,-0.12,-1.57,-0.25,0.23,0.5600000000000001
17.93746101856232,3,3,3,3,-9.65,-0.21,-1.64,-0.3,0.24,0.54
17.94746100902557,3,3,3,3,-9.74,-0.42,-1.55,-0.41,0.24,0.65
17.95746099948883,3,3,3,3,-9.77,-0.71,-1.64,-0.35,0.18,0.77
17.96746098995209,3,3,3,3,-9.75,-0.8,-1.62,0.15,0.12,0.79
17.97746098041534,3,3,3,3,-9.68,-0.58,-1.86,0.51,0.1,0.65
17.9874609708786,3,3,3,3,-9.66,-0.57,-2.02,0.61,0.14,0.61
17.99746096134186,3,3,3,3,-9.59,-0.5,-1.89,0.66,0.15,0.61
18.00746095180511,3,3,3,3,-9.52,-0.38,-1.8,0.64,0.25,0.65
18.01746094226837,3,3,3,3,-9.52,-0.25,-1.74,0.42,0.18,0.62
18.02746093273163,3,3,3,3,-9.52,-0.23,-1.75,0.27,0.16,0.61
18.03746092319489,3,3,3,3,-9.619999999999999,-0.14,-1.71,0.14,0.3,0.62
18.04746091365814,3,3,3,3,-9.720000000000001,-0.17,-1.71,-0.05,0.22,0.65
18.0574609041214,3,3,3,3,-9.720000000000001,-0.4,-1.56,-0.14,0.17,0.64
18.06746089458466,3,3,3,3,-9.720000000000001,-0.37,-1.56,0.07000000000000001,0.09,0.66
18.07746088504791,3,3,3,3,-9.73,-0.42,-1.58,0.11,0.02,0.74
18.08746087551117,3,3,3,3,-9.789999999999999,-0.5600000000000001,-1.79,0.37,0,0.82
18.09746086597443,3,3,3,3,-9.69,-0.58,-1.85,0.84,0.08,0.9399999999999999
18.10746085643768,3,3,3,3,-9.48,-0.64,-1.86,0.97,0,0.97
18.11746108531952,3,3,3,3,-9.4,-0.41,-1.92,0.96,-0.13,0.95
18.12746107578278,3,3,3,3,-9.619999999999999,-0.46,-1.84,0.68,-0.16,0.8100000000000001
18.13746106624603,3,3,3,3,-9.68,-0.6,-1.94,0.41,-0.28,0.71
18.14746105670929,3,3,3,3,-9.77,-0.65,-1.8,0.37,-0.39,0.76
18.15746104717255,3,3,3,3,-9.85,-0.93,-1.73,0.49,-0.47,0.8100000000000001
18.1674610376358,3,3,3,3,-9.73,-1.1,-1.97,0.68,-0.37,0.68
18.17746102809906,3,3,3,3,-9.56,-0.86,-2.11,1.35,-0.33,0.62
18.18746101856232,3,3,3,3,-9.42,-0.43,-2.27,1.79,-0.54,0.48
18.19746100902557,3,3,3,3,-9.390000000000001,-0.18,-2.21,1.72,-0.76,0.32
18.20746099948883,3,3,3,3,-9.5,0.58,-2.18,1.46,-0.92,0.29
18.21746098995209,3,3,3,3,-9.52,0.61,-2.24,0.62,-0.99,0.42
18.22746098041534,3,3,3,3,-9.56,0.73,-2.43,0,-1.13,0.59
18.2374609708786,3,3,3,3,-9.630000000000001,0.78,-2.73,-0.43,-1.01,0.8
18.24746096134186,3,3,3,3,-9.800000000000001,0.03,-2.94,-0.82,-0.95,1.18
18.25746095180511,3,3,3,3,-9.710000000000001,-0.25,-2.9,-0.77,-0.86,1.4
18.26746094226837,3,3,3,3,-9.59,-0.39,-2.87,-0.37,-0.93,1.41
18.27746093273163,3,3,3,3,-9.609999999999999,-0.32,-2.74,0.35,-1,1.4
18.29746091365814,3,3,3,3,-9.82,0.11,-2.88,0.99,-1.09,1.22
18.3074609041214,3,3,3,3,-9.859999999999999,0.02,-2.9,1.04,-1.17,1.21
18.31746089458466,3,3,3,3,-9.880000000000001,-0.32,-2.87,1.25,-1.01,1.25
18.32746088504791,3,3,3,3,-9.57,-0.4,-2.86,2.31,-0.93,1.33
18.33746087551117,3,3,3,3,-9.52,-0.13,-2.8,3.57,-1.19,1.21
18.34746086597443,3,3,3,3,-9.640000000000001,-0.18,-2.56,4.3,-1.41,1.16
18.35746085643768,3,3,3,3,-9.76,-0.13,-2.43,5.16,-1.52,1.09
18.36746108531952,3,3,3,3,-9.85,-0.02,-2.31,5.54,-1.49,1.13
18.37746107578278,3,3,3,3,-9.619999999999999,0.15,-2.17,6.26,-1.69,1.26
18.38746106624603,3,3,3,3,-9.44,0.35,-2.14,6.86,-1.85,1.23
18.39746105670929,3,3,3,3,-9.42,0.52,-2.07,6.82,-1.9,1.24
18.40746104717255,3,3,3,3,-9.51,0.45,-1.91,6.64,-1.95,1.46
18.4174610376358,3,3,3,3,-9.56,0.19,-2.02,6.56,-1.86,1.52
18.42746102809906,3,3,3,3,-9.59,0.12,-2.05,6.57,-1.85,1.45
18.43846094608307,3,3,3,3,-9.619999999999999,0,-2.07,6.77,-1.91,1.51
18.44846093654633,3,3,3,3,-9.69,0.01,-1.97,7.27,-1.97,1.59
18.45846092700958,3,3,3,3,-9.76,0.15,-1.91,8,-2.18,1.48
18.46846091747284,3,3,3,3,-9.73,0.37,-1.81,8.640000000000001,-2.37,1.39
18.4784609079361,3,3,3,3,-9.710000000000001,0.48,-1.7,9.27,-2.58,1.51
18.48846089839935,3,3,3,3,-9.619999999999999,0.77,-1.9,9.789999999999999,-2.69,1.67
18.49846088886261,3,3,3,3,-9.619999999999999,0.87,-1.98,10.13,-2.78,1.82
18.50846087932587,3,3,3,3,-9.550000000000001,0.92,-2.04,10.39,-2.98,1.91
18.51846086978912,3,3,3,3,-9.59,0.88,-1.94,10.78,-3.2,2.02
18.52846086025238,3,3,3,3,-9.52,1.11,-1.67,11.21,-3.41,1.94
18.53846108913422,3,3,3,3,-9.48,1.18,-1.7,11.25,-3.57,1.81
18.54846107959747,3,3,3,3,-9.51,1.23,-1.65,11.1,-3.68,1.73
18.55846107006073,3,3,3,3,-9.77,1.07,-1.58,10.53,-3.51,1.83
18.56846106052399,3,3,3,3,-10,0.33,-1.67,10.09,-3.53,1.98
18.57846105098724,3,3,3,3,-9.82,0.1,-1.64,10.27,-3.53,1.81
18.5884610414505,3,3,3,3,-9.720000000000001,0.06,-1.61,10.63,-3.57,1.62
18.59846103191376,3,3,3,3,-9.630000000000001,0.11,-1.6,10.83,-3.6,1.42
18.60846102237701,3,3,3,3,-9.65,0.71,-1.49,11.1,-3.77,1.21
18.61846101284027,3,3,3,3,-9.76,0.83,-1.48,10.92,-3.94,0.95
18.62846100330353,3,3,3,3,-9.91,0.59,-1.47,10.58,-4.03,0.93
18.63846099376678,3,3,3,3,-10.02,0.26,-1.62,10.43,-4.18,0.99
18.64846098423004,3,3,3,3,-9.98,-0.25,-1.58,10.51,-4.29,1.02
18.6584609746933,3,3,3,3,-9.869999999999999,-0.36,-1.57,10.78,-4.41,1.12
18.66846096515656,3,3,3,3,-9.859999999999999,-0.4,-1.54,11.13,-4.3,1.07
18.67846095561981,3,3,3,3,-9.85,-0.59,-1.54,11.24,-4.33,0.95
18.68846094608307,3,3,3,3,-9.880000000000001,-0.53,-1.51,11.52,-4.53,0.8100000000000001
18.69846093654633,3,3,3,3,-9.949999999999999,-0.93,-1.31,11.59,-4.49,0.67
18.70846092700958,3,3,3,3,-10.01,-1.22,-1.29,11.95,-4.55,0.74
18.71846091747284,3,3,3,3,-9.9,-1.3,-1.1,12.78,-5.07,0.73
18.7284609079361,3,3,3,3,-9.99,-1.31,-0.59,13.94,-5.24,0.74
18.73846089839935,3,3,3,3,-10.19,-1.3,-0.55,15,-5.39,0.88
18.74846088886261,3,3,3,3,-10.11,-1.24,-0.58,16.03,-5.69,1.09
18.75846087932587,3,3,3,3,-9.880000000000001,-0.96,-0.43,17.45,-5.8,1.47
18.76846086978912,3,3,3,3,-9.640000000000001,-0.78,0.02,18.88,-5.6,1.91
18.77846086025238,3,3,3,3,-9.77,-0.82,0.31,20.82,-5.71,2.4
18.78846108913422,3,3,3,3,-10,-0.96,0.52,22.87,-6.43,2.71
18.79846107959747,3,3,3,3,-10.19,-1.08,0.47,24.38,-7.15,3.04
18.80846107006073,3,3,3,3,-10.14,-0.73,-0.28,25.72,-7.36,3.61
18.81846106052399,3,3,3,3,-9.99,0.23,-0.33,27.07,-7.46,3.93
18.8384610414505,3,3,3,3,-9.91,1.73,0.43,27.65,-8.369999999999999,3.64
18.84846103191376,3,3,3,3,-10.04,2.45,1.75,27.05,-8.630000000000001,3.11
18.85846102237701,3,3,3,3,-10.17,1.78,2.01,26.81,-7.27,2.62
18.86846101284027,3,3,3,3,-10.12,0.14,1.69,27.28,-4.53,2.67
18.87846100330353,3,3,3,3,-9.9,-1.63,0.74,28.69,-1.79,3.48
18.88846099376678,3,3,3,3,-9.460000000000001,-3.55,-0.9,31.25,-0.26,4.69
18.89846098423004,3,3,3,3,-9.49,-4,-1.19,34.38,-0.06,5.68
18.9084609746933,3,3,3,3,-9.460000000000001,-4.2,-1.27,37.56,-1.12,6.32
18.91846096515656,3,3,3,3,-8.99,-3.28,-1.35,41.02,-1.82,6.49
18.92846095561981,3,3,3,3,-8.77,-2.27,-1.52,44.61,-1.49,6.29
18.93846094608307,3,3,3,3,-8.76,-1.35,-1.64,47.49,-1.02,6.05
18.94846093654633,3,3,3,3,-8.800000000000001,-0.68,-1.5,49.47,-0.6,5.5
18.95846092700958,3,3,3,3,-8.9,0.19,-1.15,50.31,-0.03,4.72
18.96846091747284,3,3,3,3,-8.85,1.09,-1.42,49.96,0.6,4.23
18.9784609079361,3,3,3,3,-9.25,2.65,-2.45,47.18,1.63,4.34
18.98846089839935,3,3,3,3,-10.83,1.97,-2.84,41.46,2.43,7.3
18.99846088886261,3,3,3,3,-8.27,2.01,-1.03,43.77,0.39,9.029999999999999
19.00846087932587,3,3,3,3,-6.8,2.5,-1.83,42.4,-0.25,6.16
19.01846086978912,3,3,3,3,-7.68,1.85,-1.65,40.76,2.21,4.65
19.02846086025238,3,3,3,3,-8.68,2.02,-1.58,40.33,1.86,4.14
19.03846108913422,3,3,3,3,-9.779999999999999,1.95,-1.55,38.88,0.98,3.75
19.04846107959747,3,3,3,3,-9.82,1.49,-1.19,37.67,0.89,3.72
