timestamp,magCalib,accCalib,gyrCalib,sysCalib,accX,accY,accZ,gyrX,gyrY,gyrZ
-0.02828001976013184,3,3,3,3,-9.44,-2.46,0.39,-0.04,-0.01,0.66
-0.018280029296875,3,3,3,3,-9.41,-2.44,0.36,-0.04,-0.02,0.67
-0.008280038833618164,3,3,3,3,-9.43,-2.42,0.43,-0.09,-0.02,0.65
0.001719951629638672,3,3,3,3,-9.44,-2.42,0.44,-0.15,-0.05,0.65
0.01171994209289551,3,3,3,3,-9.529999999999999,-2.38,0.42,-0.19,-0.05,0.64
0.02171993255615234,3,3,3,3,-9.539999999999999,-2.32,0.37,-0.2,-0.04,0.65
0.03171992301940918,3,3,3,3,-9.539999999999999,-2.25,0.43,-0.21,-0.04,0.64
0.04171991348266602,3,3,3,3,-9.5,-2.25,0.47,-0.19,-0.06,0.67
0.05172014236450195,3,3,3,3,-9.5,-2.12,0.57,-0.19,-0.04,0.65
0.06172013282775879,3,3,3,3,-9.529999999999999,-2.13,0.51,-0.11,-0.06,0.63
0.07172012329101562,3,3,3,3,-9.550000000000001,-2.12,0.42,-0.16,-0.09,0.6899999999999999
0.08172011375427246,3,3,3,3,-9.57,-2.15,0.45,-0.2,-0.02,0.7
0.0917201042175293,3,3,3,3,-9.539999999999999,-2.14,0.46,-0.21,-0.06,0.73
0.1017200946807861,3,3,3,3,-9.51,-2.19,0.49,-0.14,-0.04,0.6899999999999999
0.1217200756072998,3,3,3,3,-9.51,-2.18,0.38,-0.01,-0.07000000000000001,0.66
0.1317200660705566,3,3,3,3,-9.51,-2.18,0.47,0.01,-0.07000000000000001,0.65
0.1417200565338135,3,3,3,3,-9.539999999999999,-2.13,0.49,0.05,-0.03,0.63
0.1517200469970703,3,3,3,3,-9.539999999999999,-2.08,0.51,0.01,-0.08,0.62
0.1627199649810791,3,3,3,3,-9.58,-2.12,0.5,-0.06,-0.01,0.58
0.1727199554443359,3,3,3,3,-9.57,-2.03,0.38,-0.05,-0.03,0.55
0.1827199459075928,3,3,3,3,-9.56,-2.06,0.46,-0.11,-0.02,0.61
0.1927199363708496,3,3,3,3,-9.550000000000001,-2.03,0.47,-0.03,-0.08,0.5600000000000001
0.2027199268341064,3,3,3,3,-9.529999999999999,-2.09,0.47,-0.07000000000000001,-0.05,0.5
0.2127199172973633,3,3,3,3,-9.56,-2.07,0.4,-0.03,-0.06,0.48
0.2227201461791992,3,3,3,3,-9.57,-2.09,0.39,-0.06,-0.09,0.5
0.2327201366424561,3,3,3,3,-9.57,-2.1,0.42,-0.02,-0.08,0.45
0.2427201271057129,3,3,3,3,-9.56,-2.08,0.48,-0.04,-0.08,0.44
0.2527201175689697,3,3,3,3,-9.59,-2.05,0.52,-0.05,-0.01,0.4
0.2627201080322266,3,3,3,3,-9.56,-2.05,0.53,0,-0.05,0.39
0.2727200984954834,3,3,3,3,-9.56,-1.98,0.43,-0.05,-0.04,0.4
0.2827200889587402,3,3,3,3,-9.550000000000001,-1.95,0.51,-0.05,0.01,0.36
0.2927200794219971,3,3,3,3,-9.57,-1.94,0.53,-0.1,-0.03,0.36
0.3027200698852539,3,3,3,3,-9.59,-1.97,0.54,-0.17,-0.01,0.37
0.3127200603485107,3,3,3,3,-9.59,-2,0.55,-0.22,0.02,0.39
0.3227200508117676,3,3,3,3,-9.58,-2,0.42,-0.15,0.02,0.36
0.3327200412750244,3,3,3,3,-9.58,-1.95,0.47,-0.08,0.07000000000000001,0.35
0.3427200317382812,3,3,3,3,-9.59,-1.94,0.48,-0.08,0.02,0.38
0.3527200222015381,3,3,3,3,-9.619999999999999,-2.02,0.47,-0.09,0.03,0.34
0.3627200126647949,3,3,3,3,-9.609999999999999,-1.93,0.43,-0.05,0.06,0.35
0.3727200031280518,3,3,3,3,-9.58,-2,0.4,-0.03,0.08,0.32
0.3827199935913086,3,3,3,3,-9.58,-2.02,0.42,0,0.06,0.3
0.3927199840545654,3,3,3,3,-9.58,-2.03,0.46,-0.02,0.07000000000000001,0.28
0.4027199745178223,3,3,3,3,-9.51,-2.04,0.48,0.01,0.1,0.24
0.4127199649810791,3,3,3,3,-9.52,-2.08,0.45,0.02,0.12,0.21
0.4227199554443359,3,3,3,3,-9.56,-2.14,0.37,0.03,0.08,0.19
0.4327199459075928,3,3,3,3,-9.56,-2.13,0.41,0.1,0.05,0.19
0.4427199363708496,3,3,3,3,-9.6,-2.04,0.46,0.09,0.07000000000000001,0.19
0.4527199268341064,3,3,3,3,-9.58,-1.99,0.51,0.13,0.03,0.15
0.4627199172973633,3,3,3,3,-9.59,-1.94,0.5,0.16,0.06,0.16
0.4727201461791992,3,3,3,3,-9.58,-1.94,0.39,0.16,0.02,0.14
0.4827201366424561,3,3,3,3,-9.59,-1.97,0.44,0.08,0.03,0.16
0.4927201271057129,3,3,3,3,-9.59,-1.99,0.47,0.03,0.1,0.14
0.5027201175689697,3,3,3,3,-9.58,-2.01,0.46,0.01,0.11,0.13
0.5127201080322266,3,3,3,3,-9.56,-2.03,0.48,-0.02,0.07000000000000001,0.13
0.5227200984954834,3,3,3,3,-9.56,-2.06,0.39,-0.03,0.05,0.14
0.5327200889587402,3,3,3,3,-9.57,-2.05,0.41,0,0.07000000000000001,0.12
0.5427200794219971,3,3,3,3,-9.58,-2.03,0.45,-0.03,0.05,0.09
0.5527200698852539,3,3,3,3,-9.58,-2.02,0.47,-0.02,0.07000000000000001,0.08
0.5627200603485107,3,3,3,3,-9.58,-2.03,0.39,0.04,0,0.11
0.5727200508117676,3,3,3,3,-9.57,-2.01,0.36,0.08,0.08,0.08
0.5827200412750244,3,3,3,3,-9.59,-2.02,0.4,0.05,0.07000000000000001,0.14
0.5927200317382812,3,3,3,3,-9.57,-2.03,0.4,0.13,0.05,0.12
0.6027200222015381,3,3,3,3,-9.57,-2.01,0.43,0.12,0.05,0.12
0.6127200126647949,3,3,3,3,-9.609999999999999,-2.03,0.44,0.11,0.07000000000000001,0.06
0.6227200031280518,3,3,3,3,-9.6,-1.99,0.37,0.17,0.03,0.08
0.6327199935913086,3,3,3,3,-9.59,-1.91,0.38,0.15,0.02,0.11
0.6427199840545654,3,3,3,3,-9.6,-1.95,0.45,0.07000000000000001,0.02,0.07000000000000001
0.6527199745178223,3,3,3,3,-9.57,-1.96,0.46,0.08,0.02,0.11
0.6627199649810791,3,3,3,3,-9.58,-1.99,0.47,-0.01,0.02,0.15
0.6727199554443359,3,3,3,3,-9.609999999999999,-2.01,0.32,0.01,0.02,0.11
0.6827199459075928,3,3,3,3,-9.59,-2.06,0.44,0.01,0.02,0.11
0.6927199363708496,3,3,3,3,-9.57,-2.09,0.44,-0.01,0.02,0.14
0.7027199268341064,3,3,3,3,-9.58,-2.09,0.44,0.09,0.01,0.17
0.7127199172973633,3,3,3,3,-9.52,-2.07,0.4,0.09,0.01,0.17
0.7227201461791992,3,3,3,3,-9.5,-2.08,0.35,0.05,-0.02,0.17
0.7327201366424561,3,3,3,3,-9.56,-2.08,0.39,0.01,-0.01,0.18
0.7427201271057129,3,3,3,3,-9.57,-2.17,0.41,-0.04,-0.01,0.18
0.7527201175689697,3,3,3,3,-9.59,-2.19,0.44,-0.11,-0.07000000000000001,0.2
0.7627201080322266,3,3,3,3,-9.550000000000001,-2.17,0.37,-0.11,-0.07000000000000001,0.2
0.7727200984954834,3,3,3,3,-9.539999999999999,-2.16,0.27,-0.1,-0.09,0.21
0.7827200889587402,3,3,3,3,-9.550000000000001,-2.24,0.35,-0.09,-0.09,0.22
0.7927200794219971,3,3,3,3,-9.539999999999999,-2.12,0.41,-0.03,-0.03,0.22
0.8027200698852539,3,3,3,3,-9.51,-2.05,0.48,0.03,-0.08,0.24
0.8127200603485107,3,3,3,3,-9.550000000000001,-2.02,0.53,0.05,-0.11,0.21
0.8227200508117676,3,3,3,3,-9.56,-2.03,0.42,-0.03,-0.1,0.23
0.8327200412750244,3,3,3,3,-9.59,-1.98,0.46,-0.04,-0.14,0.23
0.8427200317382812,3,3,3,3,-9.59,-1.99,0.49,-0.13,-0.16,0.32
0.8527200222015381,3,3,3,3,-9.6,-2.05,0.48,-0.23,-0.16,0.3
0.8627200126647949,3,3,3,3,-9.58,-2.11,0.46,-0.35,-0.13,0.31
0.8727200031280518,3,3,3,3,-9.57,-2.04,0.35,-0.29,-0.11,0.32
0.8827199935913086,3,3,3,3,-9.59,-2.02,0.38,-0.25,-0.11,0.28
0.8927199840545654,3,3,3,3,-9.59,-2.01,0.45,-0.19,-0.13,0.29
0.9027199745178223,3,3,3,3,-9.58,-2,0.49,-0.14,-0.11,0.3
0.9127199649810791,3,3,3,3,-9.6,-2.01,0.45,-0.13,-0.12,0.32
0.9227199554443359,3,3,3,3,-9.550000000000001,-1.96,0.38,-0.1,-0.11,0.36
0.9327199459075928,3,3,3,3,-9.56,-1.99,0.43,-0.07000000000000001,-0.11,0.4
0.9427199363708496,3,3,3,3,-9.59,-1.98,0.46,-0.11,-0.09,0.43
0.9527199268341064,3,3,3,3,-9.609999999999999,-1.97,0.5,-0.08,-0.09,0.39
0.9627199172973633,3,3,3,3,-9.6,-1.95,0.49,0.01,-0.14,0.39
0.9727201461791992,3,3,3,3,-9.56,-1.94,0.4,0.04,-0.13,0.39
0.9827201366424561,3,3,3,3,-9.58,-1.91,0.48,0.02,-0.09,0.39
0.9927201271057129,3,3,3,3,-9.59,-1.9,0.5,0.05,-0.09,0.37
1.00272011756897,3,3,3,3,-9.59,-1.91,0.55,-0.02,-0.09,0.38
1.012720108032227,3,3,3,3,-9.619999999999999,-1.91,0.52,-0.04,-0.08,0.38
1.022720098495483,3,3,3,3,-9.59,-1.89,0.42,-0.09,-0.08,0.36
1.03272008895874,3,3,3,3,-9.609999999999999,-1.88,0.47,-0.1,-0.07000000000000001,0.35
1.042720079421997,3,3,3,3,-9.59,-1.9,0.49,-0.13,-0.07000000000000001,0.33
1.052720069885254,3,3,3,3,-9.59,-1.89,0.47,-0.12,-0.08,0.31
1.062720060348511,3,3,3,3,-9.59,-1.83,0.49,-0.09,-0.08,0.31
1.072720050811768,3,3,3,3,-9.609999999999999,-1.83,0.44,-0.05,-0.08,0.26
1.082720041275024,3,3,3,3,-9.609999999999999,-1.77,0.48,-0.05,-0.08,0.26
1.092720031738281,3,3,3,3,-9.640000000000001,-1.81,0.51,-0.04,-0.09,0.23
1.102720022201538,3,3,3,3,-9.609999999999999,-1.82,0.5600000000000001,-0.06,-0.1,0.25
1.112720012664795,3,3,3,3,-9.619999999999999,-1.8,0.53,-0.07000000000000001,-0.06,0.24
1.122720003128052,3,3,3,3,-9.6,-1.85,0.44,-0.08,-0.08,0.21
1.132719993591309,3,3,3,3,-9.609999999999999,-1.87,0.48,-0.07000000000000001,-0.12,0.22
1.142719984054565,3,3,3,3,-9.609999999999999,-1.87,0.54,-0.08,-0.09,0.18
1.152719974517822,3,3,3,3,-9.6,-1.91,0.6,-0.08,-0.13,0.18
1.162719964981079,3,3,3,3,-9.6,-1.9,0.51,-0.09,-0.08,0.15
1.172719955444336,3,3,3,3,-9.609999999999999,-1.94,0.43,-0.07000000000000001,-0.08,0.12
1.183720111846924,3,3,3,3,-9.57,-1.93,0.46,-0.09,-0.1,0.15
1.193720102310181,3,3,3,3,-9.59,-1.91,0.5,-0.02,-0.07000000000000001,0.16
1.203720092773438,3,3,3,3,-9.58,-1.91,0.53,-0.01,-0.05,0.1
1.213720083236694,3,3,3,3,-9.6,-1.91,0.48,0,-0.05,0.11
1.223720073699951,3,3,3,3,-9.59,-1.9,0.43,-0.03,-0.09,0.07000000000000001
1.233720064163208,3,3,3,3,-9.58,-1.87,0.47,-0.02,-0.12,0.07000000000000001
1.243720054626465,3,3,3,3,-9.59,-1.86,0.51,-0.01,-0.1,0.08
1.263720035552979,3,3,3,3,-9.609999999999999,-1.84,0.49,-0.01,-0.05,0.07000000000000001
1.273720026016235,3,3,3,3,-9.630000000000001,-1.86,0.43,0,-0.04,0.03
1.283720016479492,3,3,3,3,-9.609999999999999,-1.88,0.45,-0.03,-0.03,0.05
1.293720006942749,3,3,3,3,-9.609999999999999,-1.92,0.48,-0.09,-0.05,0.04
1.303719997406006,3,3,3,3,-9.58,-1.95,0.55,-0.08,-0.06,0.01
1.313719987869263,3,3,3,3,-9.6,-1.96,0.51,-0.05,-0.06,0.01
1.32371997833252,3,3,3,3,-9.58,-1.95,0.4,0.02,-0.07000000000000001,0.01
1.333719968795776,3,3,3,3,-9.619999999999999,-1.95,0.42,0.06,-0.05,-0.01
1.343719959259033,3,3,3,3,-9.59,-1.91,0.54,0.08,-0.06,0
1.35371994972229,3,3,3,3,-9.57,-1.88,0.5,0.12,-0.07000000000000001,-0.02
1.363719940185547,3,3,3,3,-9.6,-1.86,0.51,0.1,-0.02,0.01
1.373719930648804,3,3,3,3,-9.59,-1.88,0.45,0.07000000000000001,-0.06,0.02
1.383719921112061,3,3,3,3,-9.619999999999999,-1.91,0.45,0.04,-0.03,0.05
1.393720149993896,3,3,3,3,-9.609999999999999,-1.92,0.54,0.05,-0.04,0.01
1.403720140457153,3,3,3,3,-9.57,-1.91,0.49,0.06,-0.07000000000000001,0.04
1.41372013092041,3,3,3,3,-9.58,-1.92,0.48,0.03,-0.04,-0.01
1.423720121383667,3,3,3,3,-9.56,-1.95,0.4,0.02,-0.07000000000000001,0.02
1.433720111846924,3,3,3,3,-9.58,-1.98,0.49,-0.03,-0.05,0.04
1.443720102310181,3,3,3,3,-9.57,-1.94,0.5,-0.01,-0.04,0
1.453720092773438,3,3,3,3,-9.6,-1.95,0.55,-0.03,-0.01,0.02
1.463720083236694,3,3,3,3,-9.6,-1.97,0.52,-0.01,-0.04,0.03
1.473720073699951,3,3,3,3,-9.59,-1.97,0.4,-0.06,-0.08,0.04
1.483720064163208,3,3,3,3,-9.59,-2,0.46,-0.03,-0.06,0.02
1.493720054626465,3,3,3,3,-9.56,-1.97,0.53,-0.04,-0.03,0.02
1.503720045089722,3,3,3,3,-9.56,-1.9,0.54,-0.01,-0.06,0.04
1.513720035552979,3,3,3,3,-9.6,-1.91,0.54,0.04,-0.06,0.01
1.523720026016235,3,3,3,3,-9.59,-1.9,0.43,0.01,-0.03,0.01
1.533720016479492,3,3,3,3,-9.619999999999999,-1.92,0.51,0.04,-0.03,-0.01
1.543720006942749,3,3,3,3,-9.59,-1.89,0.54,0.04,-0.02,0.01
1.553719997406006,3,3,3,3,-9.6,-1.9,0.57,0.05,-0.05,0.02
1.563719987869263,3,3,3,3,-9.56,-1.91,0.58,0.02,-0.05,0.04
1.57371997833252,3,3,3,3,-9.58,-1.97,0.45,0.02,-0.02,0.03
1.583719968795776,3,3,3,3,-9.58,-1.91,0.44,0.01,-0.01,0.06
1.593719959259033,3,3,3,3,-9.609999999999999,-1.93,0.54,0.01,-0.03,0.03
1.60371994972229,3,3,3,3,-9.59,-1.92,0.55,0.03,-0.02,0.03
1.613719940185547,3,3,3,3,-9.630000000000001,-1.91,0.53,0.12,-0.03,0.01
1.623719930648804,3,3,3,3,-9.59,-1.89,0.44,0.09,0.01,0
1.633719921112061,3,3,3,3,-9.58,-1.87,0.49,0.16,-0.03,0.03
1.643720149993896,3,3,3,3,-9.59,-1.93,0.58,0.1,0.01,0.03
1.653720140457153,3,3,3,3,-9.6,-1.87,0.5600000000000001,0.13,0.01,0.02
1.66372013092041,3,3,3,3,-9.609999999999999,-1.91,0.54,0.08,-0.02,0.02
1.673720121383667,3,3,3,3,-9.6,-1.97,0.46,-0.02,0,0.05
1.683720111846924,3,3,3,3,-9.58,-1.94,0.46,-0.07000000000000001,0.01,0.01
1.693720102310181,3,3,3,3,-9.609999999999999,-2.03,0.49,-0.01,0.02,-0.02
1.703720092773438,3,3,3,3,-9.58,-1.99,0.51,-0.02,0.03,-0.04
1.713720083236694,3,3,3,3,-9.56,-1.93,0.57,0.06,0,-0.02
1.723720073699951,3,3,3,3,-9.57,-1.9,0.48,0.07000000000000001,0,-0.02
1.733720064163208,3,3,3,3,-9.630000000000001,-1.87,0.5,0.04,0.03,-0.05
1.743720054626465,3,3,3,3,-9.6,-1.86,0.53,0.03,0.02,-0.02
1.753720045089722,3,3,3,3,-9.59,-1.81,0.5600000000000001,0.01,0.03,0
1.763720035552979,3,3,3,3,-9.619999999999999,-1.83,0.5600000000000001,-0.01,0.04,-0.01
1.773720026016235,3,3,3,3,-9.58,-1.88,0.45,-0.04,0.02,-0.01
1.783720016479492,3,3,3,3,-9.619999999999999,-1.87,0.49,0,0.03,-0.04
1.793720006942749,3,3,3,3,-9.6,-1.88,0.53,0.01,0.01,-0.04
1.803719997406006,3,3,3,3,-9.619999999999999,-1.89,0.55,0.04,0.02,-0.02
1.813719987869263,3,3,3,3,-9.58,-1.88,0.48,0.16,0.01,-0.02
1.82371997833252,3,3,3,3,-9.619999999999999,-1.93,0.41,0.18,0.02,-0.03
1.833719968795776,3,3,3,3,-9.6,-1.88,0.45,0.2,0,-0.05
1.843719959259033,3,3,3,3,-9.58,-1.91,0.54,0.28,0.03,-0.05
1.85371994972229,3,3,3,3,-9.6,-1.92,0.54,0.27,0.04,-0.09
1.863719940185547,3,3,3,3,-9.59,-1.89,0.55,0.31,0.04,-0.1
1.873719930648804,3,3,3,3,-9.609999999999999,-1.89,0.48,0.34,0.01,-0.1
1.883719921112061,3,3,3,3,-9.609999999999999,-1.93,0.5,0.29,-0.01,-0.11
1.893720149993896,3,3,3,3,-9.6,-1.92,0.55,0.27,0.03,-0.09
1.903720140457153,3,3,3,3,-9.59,-1.92,0.53,0.23,0.07000000000000001,-0.09
1.91372013092041,3,3,3,3,-9.58,-1.91,0.51,0.25,0.04,-0.14
1.923720121383667,3,3,3,3,-9.59,-1.91,0.44,0.22,0.03,-0.17
1.933720111846924,3,3,3,3,-9.6,-1.92,0.51,0.14,0.03,-0.19
1.943720102310181,3,3,3,3,-9.6,-1.92,0.5,0.09,0.02,-0.19
1.953720092773438,3,3,3,3,-9.619999999999999,-1.94,0.55,0.06,0.01,-0.22
1.963720083236694,3,3,3,3,-9.6,-1.93,0.45,-0.01,0.02,-0.22
1.983720064163208,3,3,3,3,-9.56,-2.02,0.48,0,0.06,-0.28
1.993720054626465,3,3,3,3,-9.57,-1.97,0.51,0.02,0.05,-0.27
2.003720045089722,3,3,3,3,-9.59,-1.99,0.53,0.02,0.03,-0.29
2.013720035552979,3,3,3,3,-9.59,-1.99,0.53,-0.04,0.02,-0.26
2.023720026016235,3,3,3,3,-9.59,-1.96,0.42,0.04,0.02,-0.3
2.033720016479492,3,3,3,3,-9.630000000000001,-1.91,0.43,0.05,0,-0.33
2.043720006942749,3,3,3,3,-9.609999999999999,-1.99,0.55,0.04,0.02,-0.32
2.053719997406006,3,3,3,3,-9.609999999999999,-1.99,0.54,0.12,0.01,-0.31
2.063719987869263,3,3,3,3,-9.59,-2.05,0.57,0.08,0.03,-0.27
2.07371997833252,3,3,3,3,-9.56,-2.05,0.49,0.1,0.07000000000000001,-0.25
2.083719968795776,3,3,3,3,-9.57,-2.01,0.46,0.16,0.08,-0.27
2.093719959259033,3,3,3,3,-9.6,-2.03,0.52,0.16,0.06,-0.28
2.10371994972229,3,3,3,3,-9.550000000000001,-1.98,0.55,0.14,0.03,-0.27
2.113719940185547,3,3,3,3,-9.58,-1.92,0.5600000000000001,0.21,0.02,-0.24
2.123719930648804,3,3,3,3,-9.58,-1.96,0.43,0.15,0.04,-0.23
2.133719921112061,3,3,3,3,-9.6,-1.96,0.5,0.11,0.05,-0.26
2.143720149993896,3,3,3,3,-9.59,-2.02,0.52,0.1,0.04,-0.23
2.153720140457153,3,3,3,3,-9.65,-2.07,0.52,0.07000000000000001,0.05,-0.21
2.16372013092041,3,3,3,3,-9.56,-2.08,0.5,-0.01,0.02,-0.18
2.173720121383667,3,3,3,3,-9.57,-2.07,0.38,0.06,0.09,-0.19
2.183720111846924,3,3,3,3,-9.51,-2.1,0.47,0,0.08,-0.18
2.193720102310181,3,3,3,3,-9.51,-2.04,0.52,0.11,0.09,-0.22
2.203720092773438,3,3,3,3,-9.529999999999999,-2.03,0.57,0.17,0.06,-0.17
2.214720010757446,3,3,3,3,-9.56,-2,0.55,0.18,0.07000000000000001,-0.15
2.224720001220703,3,3,3,3,-9.58,-1.98,0.44,0.18,0.03,-0.14
2.23471999168396,3,3,3,3,-9.58,-2.03,0.51,0.12,0.02,-0.13
2.244719982147217,3,3,3,3,-9.58,-2.14,0.54,0.07000000000000001,0.04,-0.08
2.254719972610474,3,3,3,3,-9.56,-2.17,0.52,0.06,0.07000000000000001,-0.09
2.26471996307373,3,3,3,3,-9.539999999999999,-2.13,0.52,0.15,0.06,-0.12
2.274719953536987,3,3,3,3,-9.58,-2.05,0.42,0.15,0.05,-0.13
2.284719944000244,3,3,3,3,-9.56,-2.04,0.49,0.14,0.04,-0.11
2.294719934463501,3,3,3,3,-9.58,-2.03,0.51,0.12,0.08,-0.12
2.304719924926758,3,3,3,3,-9.57,-1.99,0.54,0.15,0.05,-0.1
2.314719915390015,3,3,3,3,-9.58,-2.04,0.51,0.09,0,-0.07000000000000001
2.324720144271851,3,3,3,3,-9.57,-2.03,0.43,0.06,0.01,-0.06
2.334720134735107,3,3,3,3,-9.56,-2.03,0.42,0.04,0.01,-0.04
2.344720125198364,3,3,3,3,-9.550000000000001,-2.08,0.47,-0.04,0.04,-0.06
2.354720115661621,3,3,3,3,-9.57,-2.17,0.5,-0.08,0.06,-0.05
2.364720106124878,3,3,3,3,-9.550000000000001,-2.13,0.54,-0.09,0.07000000000000001,-0.05
2.374720096588135,3,3,3,3,-9.56,-2.18,0.43,-0.04,0.07000000000000001,-0.08
2.384720087051392,3,3,3,3,-9.529999999999999,-2.22,0.47,-0.03,0.04,-0.08
2.394720077514648,3,3,3,3,-9.550000000000001,-2.03,0.54,0.1,-0.01,-0.1
2.404720067977905,3,3,3,3,-9.6,-2.02,0.53,0.14,-0.02,-0.11
2.414720058441162,3,3,3,3,-9.56,-2.08,0.57,-0.02,0,-0.08
2.424720048904419,3,3,3,3,-9.539999999999999,-2.03,0.42,0.03,0.02,-0.07000000000000001
2.434720039367676,3,3,3,3,-9.56,-2.07,0.48,0,0.05,-0.05
2.444720029830933,3,3,3,3,-9.58,-2.08,0.48,0,0,-0.06
2.454720020294189,3,3,3,3,-9.550000000000001,-2.15,0.53,-0.03,0.04,-0.02
2.464720010757446,3,3,3,3,-9.529999999999999,-2.13,0.53,0.07000000000000001,0.01,-0.01
2.474720001220703,3,3,3,3,-9.550000000000001,-2.07,0.42,0.12,0.03,0
2.48471999168396,3,3,3,3,-9.56,-2.06,0.49,0.14,0.03,-0.02
2.494719982147217,3,3,3,3,-9.56,-2.08,0.52,0.11,-0.01,-0.03
2.504719972610474,3,3,3,3,-9.550000000000001,-2.09,0.55,0.08,0.02,0.01
2.51471996307373,3,3,3,3,-9.58,-2.12,0.52,0.05,0.03,0.05
2.524719953536987,3,3,3,3,-9.56,-2.14,0.45,0.07000000000000001,0,0.03
2.534719944000244,3,3,3,3,-9.550000000000001,-2.09,0.44,0.14,0.02,0.01
2.544719934463501,3,3,3,3,-9.539999999999999,-2.09,0.49,0.14,0.02,0.01
2.554719924926758,3,3,3,3,-9.550000000000001,-2.07,0.55,0.08,0,0.03
2.564719915390015,3,3,3,3,-9.56,-2.01,0.51,0.01,-0.01,0.06
2.574720144271851,3,3,3,3,-9.57,-2.01,0.41,-0.03,0.02,0.05
2.584720134735107,3,3,3,3,-9.58,-2.03,0.44,-0.09,0.04,0.08
2.594720125198364,3,3,3,3,-9.58,-2.09,0.5,-0.09,0.04,0.08
2.604720115661621,3,3,3,3,-9.57,-2.12,0.52,-0.14,0.03,0.03
2.614720106124878,3,3,3,3,-9.58,-2.14,0.53,-0.06,0.05,0.03
2.624720096588135,3,3,3,3,-9.56,-2.12,0.46,-0.02,-0.01,0.01
2.634720087051392,3,3,3,3,-9.56,-2.11,0.49,-0.06,0,0.05
2.644720077514648,3,3,3,3,-9.56,-2.06,0.53,-0.06,0,0.05
2.654720067977905,3,3,3,3,-9.56,-2.02,0.52,-0.13,0.01,0.06
2.664720058441162,3,3,3,3,-9.59,-2.05,0.48,-0.16,-0.01,0.08
2.674720048904419,3,3,3,3,-9.59,-2.08,0.42,-0.16,0.02,0.09
2.684720039367676,3,3,3,3,-9.56,-2.09,0.48,-0.1,0.03,0.12
2.694720029830933,3,3,3,3,-9.56,-2.11,0.48,-0.1,0.03,0.12
2.704720020294189,3,3,3,3,-9.58,-2.07,0.53,0.02,-0.02,0.1
2.714720010757446,3,3,3,3,-9.529999999999999,-2.05,0.53,-0.01,0,0.13
2.724720001220703,3,3,3,3,-9.52,-2.09,0.42,-0.05,0.02,0.12
2.73471999168396,3,3,3,3,-9.56,-2.1,0.44,-0.05,0.05,0.14
2.744719982147217,3,3,3,3,-9.57,-2.13,0.5,-0.05,0.05,0.14
2.754719972610474,3,3,3,3,-9.56,-2.14,0.52,-0.04,-0.01,0.15
2.76471996307373,3,3,3,3,-9.57,-2.1,0.51,-0.06,-0.02,0.15
2.774719953536987,3,3,3,3,-9.56,-2.1,0.44,-0.06,0.01,0.15
2.784719944000244,3,3,3,3,-9.57,-2.05,0.47,-0.02,-0.01,0.16
2.794719934463501,3,3,3,3,-9.56,-2.06,0.52,-0.02,-0.01,0.16
2.824720144271851,3,3,3,3,-9.58,-2.02,0.44,-0.02,-0.01,0.16
2.834720134735107,3,3,3,3,-9.56,-2.01,0.51,0.03,0,0.14
2.844720125198364,3,3,3,3,-9.57,-2.05,0.51,0.03,0,0.14
2.854720115661621,3,3,3,3,-9.57,-2.14,0.53,0.12,0,0.13
2.864720106124878,3,3,3,3,-9.550000000000001,-2.12,0.44,0.16,-0.08,0.15
2.874720096588135,3,3,3,3,-9.57,-2.09,0.43,0.15,-0.03,0.15
2.884720087051392,3,3,3,3,-9.56,-2.06,0.45,0.16,-0.02,0.14
2.894720077514648,3,3,3,3,-9.56,-1.98,0.49,0.16,-0.02,0.14
2.904720067977905,3,3,3,3,-9.56,-2.03,0.58,0.03,0.02,0.18
2.914720058441162,3,3,3,3,-9.56,-1.98,0.54,0.01,0,0.19
2.924720048904419,3,3,3,3,-9.56,-2.01,0.47,0.02,0.03,0.18
2.944720029830933,3,3,3,3,-9.59,-1.95,0.48,0.1,-0.02,0.19
2.954720020294189,3,3,3,3,-9.550000000000001,-1.98,0.54,0.1,-0.06,0.22
2.964720010757446,3,3,3,3,-9.56,-1.95,0.54,0.02,0.03,0.24
2.974720001220703,3,3,3,3,-9.57,-1.95,0.46,0.01,0.02,0.28
2.98471999168396,3,3,3,3,-9.57,-1.86,0.54,0.06,0.04,0.31
2.994719982147217,3,3,3,3,-9.56,-1.82,0.61,0.06,0.04,0.31
3.004719972610474,3,3,3,3,-9.539999999999999,-1.68,0.61,0.11,0.01,0.34
3.01471996307373,3,3,3,3,-9.59,-1.58,0.65,0.13,0.01,0.47
3.024719953536987,3,3,3,3,-9.57,-1.52,0.44,0,0.01,0.5600000000000001
3.034719944000244,3,3,3,3,-9.630000000000001,-1.64,0.47,-0.14,0.01,0.6
3.044719934463501,3,3,3,3,-9.67,-1.8,0.48,-0.14,0.01,0.6
3.054719924926758,3,3,3,3,-9.67,-1.91,0.47,-0.17,0,0.61
3.064719915390015,3,3,3,3,-9.6,-2.05,0.4,-0.13,0.07000000000000001,0.51
3.074720144271851,3,3,3,3,-9.57,-2.14,0.27,-0.04,0.07000000000000001,0.45
3.094720125198364,3,3,3,3,-9.57,-2.1,0.45,-0.01,0,0.37
3.104720115661621,3,3,3,3,-9.56,-2.04,0.52,0.11,-0.05,0.35
3.114720106124878,3,3,3,3,-9.550000000000001,-1.97,0.57,0.21,0,0.37
3.124720096588135,3,3,3,3,-9.57,-1.89,0.48,0.27,-0.04,0.41
3.134720087051392,3,3,3,3,-9.59,-1.55,0.57,0.38,-0.06,0.42
3.144720077514648,3,3,3,3,-9.630000000000001,-1.38,0.6,0.38,-0.06,0.42
3.154720067977905,3,3,3,3,-9.6,-1.19,0.65,0.39,-0.05,0.5
3.164720058441162,3,3,3,3,-9.59,-1.06,0.68,0.32,0,0.62
3.174720048904419,3,3,3,3,-9.67,-1.05,0.54,0.15,0.11,0.75
3.184720039367676,3,3,3,3,-9.65,-1.14,0.5600000000000001,0.16,0.22,0.87
3.194720029830933,3,3,3,3,-9.67,-1.15,0.57,0.16,0.22,0.87
3.204720020294189,3,3,3,3,-9.699999999999999,-1.34,0.58,0.11,0.27,1.04
3.214720010757446,3,3,3,3,-9.58,-1.53,0.47,0.36,0.39,1.19
3.224720001220703,3,3,3,3,-9.550000000000001,-1.69,0.38,0.59,0.45,1.25
3.235719919204712,3,3,3,3,-9.550000000000001,-1.73,0.39,0.96,0.41,1.3
3.245720148086548,3,3,3,3,-9.58,-1.67,0.44,0.96,0.41,1.3
3.255720138549805,3,3,3,3,-9.6,-1.21,0.58,1.42,0.26,1.37
3.265720129013062,3,3,3,3,-9.609999999999999,-0.86,0.63,2.08,0.21,1.61
3.275720119476318,3,3,3,3,-9.59,-0.59,0.6,2.08,0.35,1.9
3.285720109939575,3,3,3,3,-9.58,-0.5600000000000001,0.66,2.13,0.33,2.25
3.295720100402832,3,3,3,3,-9.6,-0.37,0.72,2.13,0.33,2.25
3.305720090866089,3,3,3,3,-9.57,-0.17,0.8100000000000001,2.27,0.36,2.62
3.315720081329346,3,3,3,3,-9.5,-0.16,0.84,1.89,0.74,3.29
3.325720071792603,3,3,3,3,-9.5,-0.74,0.73,1.51,0.86,3.53
3.335720062255859,3,3,3,3,-9.470000000000001,-1.39,0.63,1.88,0.75,3.65
3.36572003364563,3,3,3,3,-9.49,-0.99,0.79,3.23,0.15,3.82
3.375720024108887,3,3,3,3,-9.470000000000001,-0.4,0.73,3.1,0.06,4.26
3.385720014572144,3,3,3,3,-9.4,-0.28,0.87,2.89,0.08,4.73
3.3957200050354,3,3,3,3,-9.359999999999999,-0.22,0.79,2.89,0.08,4.73
3.405719995498657,3,3,3,3,-9.34,-0.54,0.73,2.16,0,5.09
3.415719985961914,3,3,3,3,-9.449999999999999,-1.31,0.66,1.75,-0.01,5.08
3.425719976425171,3,3,3,3,-9.67,-1.73,0.49,2.26,0.04,4.94
3.455719947814941,3,3,3,3,-9.82,-1.14,0.4,2.49,-0.33,4.39
3.465719938278198,3,3,3,3,-9.67,-0.99,0.31,1.31,-0.14,4
3.475719928741455,3,3,3,3,-9.539999999999999,-1.4,0.44,0.96,0.08,3.9
3.485719919204712,3,3,3,3,-9.6,-0.9399999999999999,0.19,0.54,0.18,3.92
3.495720148086548,3,3,3,3,-9.550000000000001,-1.08,0.51,0.54,0.18,3.92
3.505720138549805,3,3,3,3,-9.44,-0.93,0.49,0.16,0.35,4.07
3.515720129013062,3,3,3,3,-9.33,0.24,0.51,-0.43,-0.03,4.85
3.525720119476318,3,3,3,3,-9.17,1.1,0.73,-0.19,-0.32,5.44
3.535720109939575,3,3,3,3,-8.98,1.67,1.01,0.09,-0.42,6.02
3.545720100402832,3,3,3,3,-8.98,1.67,1.01,0.09,-0.42,6.02
3.555720090866089,3,3,3,3,-8.66,1.82,1.19,-0.36,-0.45,6.67
3.565720081329346,3,3,3,3,-8.01,3.64,0.97,-0.33,-0.4,8.06
3.575720071792603,3,3,3,3,-7.94,4.42,1.29,0.52,-0.19,8.609999999999999
3.585720062255859,3,3,3,3,-7.7,4.8,1.46,1.25,0.07000000000000001,9.42
3.595720052719116,3,3,3,3,-7.7,4.8,1.46,1.25,0.07000000000000001,9.42
3.605720043182373,3,3,3,3,-7.5,3.22,0.77,1.15,0.37,10.48
3.61572003364563,3,3,3,3,-7.37,-0.15,0.03,-0.92,0.41,11.56
3.625720024108887,3,3,3,3,-8.050000000000001,-1,-0.52,0.29,0.47,10.45
3.635720014572144,3,3,3,3,-9.550000000000001,-1.92,-0.15,2.93,0.09,9.35
3.6457200050354,3,3,3,3,-9.550000000000001,-1.92,-0.15,6.28,0.13,8.369999999999999
3.655719995498657,3,3,3,3,-9.300000000000001,-1.39,-0.08,8.279999999999999,0.93,8.109999999999999
3.665719985961914,3,3,3,3,-9.34,0.01,0.31,8.98,1.74,8.369999999999999
3.755720138549805,3,3,3,3,-10.58,0.66,-0.82,3.62,1.82,7.61
3.785720109939575,3,3,3,3,-11.18,-2.14,-0.24,-0.25,2.61,6.89
3.795720100402832,3,3,3,3,-11.18,-2.14,-0.24,-0.25,2.61,6.89
3.805720090866089,3,3,3,3,-11.32,-1.53,0.19,-0.2,2.57,6.07
3.815720081329346,3,3,3,3,-12.17,-0.23,0.67,0.24,1.39,3.67
3.825720071792603,3,3,3,3,-13.18,-0.3,0.95,-0.63,0.34,1.98
3.835720062255859,3,3,3,3,-13.96,-1.03,0.89,-2.24,-0.71,0.31
3.845720052719116,3,3,3,2,-13.96,-1.03,0.89,-2.24,-0.71,0.31
3.855720043182373,3,3,3,2,-14.8,-1.8,0.8100000000000001,-3.16,-1.31,-1.28
3.86572003364563,3,3,3,2,-16.51,-4.22,1.15,-2.75,-2.14,-3.1
3.875720024108887,3,3,3,2,-16.55,-4.57,1.67,-1.72,-2.48,-3.86
3.885720014572144,3,3,3,2,-16.79,-5.55,2.4,-1.15,-3.12,-4.75
3.8957200050354,3,3,3,2,-16.79,-5.55,2.4,-1.15,-3.12,-4.75
3.905719995498657,3,3,3,2,-17.17,-6.28,2.63,-0.41,-4.04,-6.19
3.915719985961914,3,3,3,2,-19.36,-7.73,4.16,1.08,-6.53,-9.880000000000001
3.925719976425171,3,3,3,2,-20.05,-8.24,4.41,2.02,-7.73,-11.74
3.935719966888428,3,3,3,2,-20.81,-9.01,4.39,2.53,-9.119999999999999,-13.75
3.945719957351685,3,3,3,2,-22.2,-11.68,1.96,2.88,-9.85,-15.86
3.955719947814941,3,3,3,2,-23.22,-12.22,-0.25,3.22,-9.74,-18.01
3.965719938278198,3,3,3,2,-24.83,-12.24,-2,3.38,-9.539999999999999,-19.88
3.975719928741455,3,3,3,2,-26.25,-11.12,-3.75,3.24,-9.18,-21.38
3.985719919204712,3,3,3,2,-27.74,-5.28,-5.11,2.51,-7.97,-22.28
3.995720148086548,3,3,3,1,-27.96,-0.15,-4.75,1.7,-6.33,-22.74
4.005720138549805,3,3,3,1,-26.55,4.94,-3.96,-2.05,-5.47,-22.6
4.015720129013062,3,3,3,1,-22.96,6.33,-2.47,-7.89,-3.62,-21.45
4.025720119476318,3,3,3,1,-14.82,3.77,-0.66,-9.73,-1.33,-20.61
4.035720109939575,3,3,3,1,-11.94,-0.35,-0.38,-6.77,1.04,-20
4.045720100402832,3,3,3,1,-8.75,-2.35,-0.58,1.97,1.55,-19.79
4.055720090866089,3,3,3,1,-4.5,0.24,-0.85,14.88,1.44,-20.24
4.065720081329346,3,3,3,1,-5.28,31.34,3.13,23.87,2.89,-19.65
4.075720071792603,3,3,3,1,-4.87,39.23,12.53,16.95,-4.25,-12.67
4.085720062255859,3,3,3,1,-1.66,39.12,16.75,-3.01,-9.039999999999999,-0.44
4.095720052719116,3,3,3,1,3.51,29.81,4.16,-19.14,-1.83,4.7
4.105720043182373,3,3,3,1,0.14,4.73,-3.39,-18.53,8.460000000000001,8.210000000000001
4.11572003364563,3,3,3,1,-2.83,0.74,-3.53,-13.33,9.449999999999999,10.37
4.125720024108887,3,3,3,1,-5.43,-0.45,0.64,-7.62,6.77,8.24
4.135720014572144,3,3,3,1,-4.91,-3.48,4.08,-1.55,3.02,5.74
4.1457200050354,3,3,3,1,-1.52,-6.12,2.52,2.76,2.03,4.62
4.155719995498657,3,3,3,1,-0.84,-8.539999999999999,0.42,1.68,1.7,4.44
4.165719985961914,3,3,3,1,0.36,-9.15,-1.1,0.78,0.96,4.08
4.175719976425171,3,3,3,1,1,-8.800000000000001,-2.45,0.84,1.49,4.93
4.185719966888428,3,3,3,1,-0.38,-4.95,-3.27,2.72,1.46,6.17
4.195719957351685,3,3,3,1,-0.92,-2.8,-2.52,5.84,0.47,6.68
4.205719947814941,3,3,3,1,-0.65,-1.19,-2.26,7.67,-0.49,6.6
4.215719938278198,3,3,3,1,-0.2,-0.37,-2.37,7.74,-1.07,6.34
4.225719928741455,3,3,3,1,0.55,0.51,-1.49,6.76,-1.63,6.17
4.235719919204712,3,3,3,1,0.66,0.25,-0.78,5.22,-2.08,6.13
4.245720148086548,3,3,3,1,0.34,-0.28,-0.22,5.57,-2.02,5.64
4.255720138549805,3,3,3,1,0.15,-0.51,-0.2,7.96,-1.97,5.57
4.266720056533813,3,3,3,1,0.33,0.59,0.26,10.44,-2.06,6.11
4.27672004699707,3,3,3,1,0.43,1.45,0.92,9.880000000000001,-1.79,7.22
4.286720037460327,3,3,3,1,0.38,2.26,1.27,7.43,-1.31,8.529999999999999
4.296720027923584,3,3,3,1,0.46,2.88,0.86,4.59,-0.44,9.52
4.306720018386841,3,3,3,1,-0.08,2.79,1.01,0.82,0.71,9.800000000000001
4.316720008850098,3,3,3,1,-0.65,2.68,1.15,-2.63,1.46,9.210000000000001
4.326719999313354,3,3,3,1,-0.99,2.53,1.2,-5.8,1.9,8.220000000000001
4.336719989776611,3,3,3,1,-1.28,2,0.15,-8.49,2.64,7.26
4.346719980239868,3,3,3,1,-1.31,1.58,-0.66,-10.28,3.24,6.12
4.356719970703125,3,3,3,1,-1.07,0.52,-1.38,-11.51,2.98,4.87
4.366719961166382,3,3,3,1,-0.55,-0.93,-2.04,-11.27,2.3,3.53
4.376719951629639,3,3,3,1,-0.44,-3.07,-2.04,-9.76,1.73,2.12
4.386719942092896,3,3,3,1,-0.11,-3.02,-1.94,-8.140000000000001,0.82,0.96
4.396719932556152,3,3,3,1,-0.03,-1.72,-2.36,-7,0.14,0.35
4.406719923019409,3,3,3,1,-1.67,6.15,-1.58,0.36,-1.9,0.83
4.416719913482666,3,3,3,1,-5.93,17.31,5.34,6.25,-6.01,2.12
4.426720142364502,3,3,3,1,-8.16,1.65,4.82,-9.09,-4.92,-0.24
4.446720123291016,3,3,3,2,-22.79,-12.81,-2.35,-1.05,-2.28,-10.94
4.456720113754272,3,3,3,2,-35.17,8.69,3.23,27,-0.66,-7.43
4.466720104217529,3,3,3,2,-31.4,3.33,-5.97,19.84,7.65,6.17
4.476720094680786,3,3,3,2,-20.42,11.07,-6.52,22.26,10.57,16.47
4.486720085144043,3,3,3,2,-22.75,28.78,-8.34,40.56,7.91,14.88
4.4967200756073,3,3,3,2,-39.33,17.2,19.38,8.48,1.55,19.81
4.506720066070557,3,3,3,2,-32.21,-7.24,10.66,-41.49,3.91,22.86
4.516720056533813,3,3,3,2,-14.98,-23.42,4.02,-57.96,11.48,15.13
4.52672004699707,3,3,3,2,-9.890000000000001,-39.21,-3.51,-49.73,10.67,11.3
4.536720037460327,3,3,3,2,-7.95,-38.34,1.01,6.1,6.36,5.48
4.546720027923584,3,3,3,2,-9.56,-26.65,-0.58,47.23,4.99,3.95
4.556720018386841,3,3,3,2,-7.85,-12.88,-1.94,57.71,2.01,1.16
4.566720008850098,3,3,3,2,-8.359999999999999,-3.84,-1.39,48.13,-2.65,-5.77
4.576719999313354,3,3,3,2,-18.38,18.22,0,35.2,-6.6,-11.77
4.586719989776611,3,3,3,2,-24.25,23.6,5.21,13.47,-9.050000000000001,-12.99
4.596719980239868,3,3,3,2,-27.55,14.26,5.59,-21.25,-7.79,-5.3
4.606719970703125,3,3,3,2,-27.01,0.04,0.58,-42.42,-2.45,3.62
4.616719961166382,3,3,3,2,-10.6,-6.3,-0.54,-40.94,0.23,6.06
4.626719951629639,3,3,3,2,-5.43,-8.68,-1.08,-34.19,0.07000000000000001,4.98
4.636719942092896,3,3,3,2,-4.98,-9.06,-2.16,-23.45,0.83,0.8100000000000001
4.646719932556152,3,3,3,2,-9.69,-6.19,-1.16,-13.43,2.94,-3.28
4.656719923019409,3,3,3,2,-11.02,-3.74,-1.32,-5.45,3.46,-7.13
4.666719913482666,3,3,3,2,-11,-2.68,-1.92,-0.91,2.29,-10.34
4.676720142364502,3,3,3,2,-10.25,-2.64,-2.24,3.13,0.72,-12.54
4.686720132827759,3,3,3,2,-8.76,-2.25,-2.15,7.73,-0.51,-13.31
4.696720123291016,3,3,3,1,-8.49,-1.3,-1.83,11.18,-1.35,-12.52
4.706720113754272,3,3,3,1,-8.369999999999999,0.03,-1.36,12.22,-1.65,-10.79
4.716720104217529,3,3,3,1,-8.69,1.5,-0.95,11.2,-1.03,-8.94
4.726720094680786,3,3,3,1,-9.15,4.04,-0.13,8.460000000000001,-0.41,-7.63
4.736720085144043,3,3,3,1,-8.57,5.22,0.44,4.72,-0.2,-6.76
4.7467200756073,3,3,3,1,-7.7,5.43,1.22,-0.02,0.16,-6.41
4.756720066070557,3,3,3,1,-7.17,5.05,1.7,-4.86,0.79,-6.18
4.766720056533813,3,3,3,1,-6.96,3.96,1.98,-9.02,1.08,-5.95
4.77672004699707,3,3,3,1,-7.09,3.72,2.37,-12,1.33,-5.79
4.786720037460327,3,3,3,1,-7.42,4.02,2.55,-13.53,1.46,-5.54
4.796720027923584,3,3,3,1,-7.86,4.06,2.57,-14.44,1.14,-4.84
4.806720018386841,3,3,3,1,-8.449999999999999,2.93,2.79,-14.58,0.92,-3.78
4.816720008850098,3,3,3,1,-8.67,1.81,2.54,-14.39,0.91,-2.73
4.826719999313354,3,3,3,1,-8.91,1.05,2.41,-13.15,1.01,-2.03
4.836719989776611,3,3,3,1,-9.06,0.53,2.25,-10.65,1.39,-1.55
4.846719980239868,3,3,3,1,-9.15,0.42,1.51,-7.61,1.52,-1.09
4.856719970703125,3,3,3,1,-9.09,0.02,1.17,-5.28,1.4,-0.63
4.866719961166382,3,3,3,1,-9.119999999999999,-0.41,0.54,-3.29,1.39,-0.49
4.876719951629639,3,3,3,1,-9.49,-0.37,-0.09,-1.59,1.26,-0.72
4.886719942092896,3,3,3,1,-10.19,-0.46,-0.44,-0.3,0.99,-1.1
4.896719932556152,3,3,3,1,-10.26,-0.4,-0.51,0.95,0.75,-1.63
4.906719923019409,3,3,3,1,-10.32,-0.3,-0.47,1.77,0.6,-2.18
4.916719913482666,3,3,3,1,-10.33,-0.59,-0.52,1.45,0.45,-2.45
4.926720142364502,3,3,3,1,-10.2,-1.15,-0.32,1.1,0.3,-2.54
4.936720132827759,3,3,3,1,-10.1,-1.5,-0.07000000000000001,0.65,0.19,-2.65
4.946720123291016,3,3,3,1,-10.13,-1.61,0.15,0.67,0.28,-2.83
4.956720113754272,3,3,3,1,-10.05,-1.58,0.34,0.72,0.22,-3
4.966720104217529,3,3,3,1,-9.779999999999999,-1.57,0.61,0.97,0.28,-3.16
4.976720094680786,3,3,3,1,-9.69,-1.57,0.7,1.04,0.31,-3.31
4.986720085144043,3,3,3,1,-9.6,-1.69,0.82,0.99,0.41,-3.49
4.9967200756073,3,3,3,1,-9.59,-1.64,0.7,1.04,0.5600000000000001,-3.71
5.006720066070557,3,3,3,1,-9.539999999999999,-0.88,0.47,1.03,0.4,-3.87
5.016720056533813,3,3,3,1,-9.449999999999999,-0.55,0.33,0.91,0.39,-3.87
5.02672004699707,3,3,3,1,-9.48,-0.29,0.38,0.45,0.39,-3.82
5.036720037460327,3,3,3,1,-9.59,0.07000000000000001,0.35,-0.03,0.32,-3.76
5.046720027923584,3,3,3,1,-9.550000000000001,0.36,0.43,-0.19,0.2,-3.68
5.056720018386841,3,3,3,1,-9.6,0.35,0.49,-0.71,0.16,-3.52
5.066720008850098,3,3,3,1,-9.59,0.08,0.38,-1.3,0.09,-3.37
5.076719999313354,3,3,3,1,-9.74,0,0.5,-1.62,0.03,-3.32
5.086719989776611,3,3,3,1,-9.67,0.03,0.58,-1.68,-0.08,-3.21
5.096719980239868,3,3,3,1,-9.49,0,0.64,-1.68,-0.2,-3.11
5.106719970703125,3,3,3,1,-9.470000000000001,-0.25,0.71,-1.46,-0.19,-3.08
5.116719961166382,3,3,3,1,-9.56,-0.31,0.45,-1.14,-0.24,-2.94
5.126719951629639,3,3,3,1,-9.56,-0.23,0.52,-0.68,-0.25,-2.7
5.136719942092896,3,3,3,1,-9.52,0.03,0.5600000000000001,0.01,-0.27,-2.33
5.146719932556152,3,3,3,1,-9.619999999999999,0.41,0.51,0.33,-0.29,-1.97
5.156719923019409,3,3,3,1,-9.880000000000001,0.15,0.48,-0.25,-0.3,-1.54
5.166719913482666,3,3,3,1,-9.74,-0.26,0.47,-0.7,-0.22,-1.07
5.176720142364502,3,3,3,1,-9.58,-0.52,0.54,-0.47,-0.15,-0.83
5.186720132827759,3,3,3,1,-9.609999999999999,-0.97,0.58,-0.01,-0.03,-0.75
5.196720123291016,3,3,3,1,-9.699999999999999,-1.73,0.65,0.74,0.03,-0.8100000000000001
5.206720113754272,3,3,3,1,-9.69,-1.69,0.53,1.46,-0.07000000000000001,-0.87
5.216720104217529,3,3,3,1,-9.65,-1.69,0.3,1.95,-0.13,-0.85
5.226720094680786,3,3,3,1,-9.65,-1.69,0.24,1.97,-0.13,-0.85
5.236720085144043,3,3,3,1,-9.609999999999999,-1.69,0.3,1.83,-0.12,-0.86
5.2467200756073,3,3,3,1,-9.710000000000001,-1.91,0.47,1.53,0.02,-0.85
5.256720066070557,3,3,3,1,-9.69,-1.97,0.49,1.75,0.06,-0.88
5.266720056533813,3,3,3,1,-9.74,-1.83,0.27,2.09,0.04,-0.95
5.27672004699707,3,3,3,1,-9.789999999999999,-1.69,0.29,2.25,0.06,-0.97
5.287719964981079,3,3,3,1,-9.74,-1.43,0.28,2.04,0,-0.98
5.297719955444336,3,3,3,1,-9.710000000000001,-1.49,0.44,1.28,-0.08,-0.9
5.307719945907593,3,3,3,1,-9.58,-1.44,0.5,1.28,-0.08,-0.9
5.31771993637085,3,3,3,1,-9.630000000000001,-1.1,0.19,0.67,-0.05,-0.85
5.327719926834106,3,3,3,1,-9.67,-1.14,0.27,-0.9399999999999999,0.08,-0.68
5.337719917297363,3,3,3,1,-9.630000000000001,-1.21,0.32,-0.9399999999999999,0.08,-0.68
5.347720146179199,3,3,3,1,-9.609999999999999,-1.12,0.26,-2.09,0.1,-0.5
5.357720136642456,3,3,3,1,-9.640000000000001,-1.65,0.29,-2.09,0.1,-0.5
5.367720127105713,3,3,3,1,-9.529999999999999,-1.89,0.29,-2.75,0.12,-0.31
5.37772011756897,3,3,3,1,-9.56,-2.14,0.36,-2.58,0.14,-0.28
5.387720108032227,3,3,3,1,-9.630000000000001,-2.37,0.33,-2.07,0.2,-0.32
5.397720098495483,3,3,3,2,-9.609999999999999,-2.7,0.43,-0.8100000000000001,-0.07000000000000001,-0.52
5.40772008895874,3,3,3,2,-9.58,-2.63,0.26,-0.8100000000000001,-0.07000000000000001,-0.52
5.417720079421997,3,3,3,2,-9.65,-2.54,0.08,0.09,-0.18,-0.64
5.427720069885254,3,3,3,2,-9.57,-2.63,0.35,0.42,-0.2,-0.65
5.437720060348511,3,3,3,2,-9.470000000000001,-2.28,0.22,0.64,-0.22,-0.62
5.447720050811768,3,3,3,2,-9.539999999999999,-2.39,0.37,1.14,-0.23,-0.58
5.457720041275024,3,3,3,2,-9.460000000000001,-2.24,0.37,1.14,-0.1,-0.54
5.467720031738281,3,3,3,2,-9.720000000000001,-1.76,0.23,1.23,-0.15,-0.46
5.477720022201538,3,3,3,2,-9.800000000000001,-2.02,0.39,1.22,-0.17,-0.41
5.487720012664795,3,3,3,2,-9.49,-2.25,0.65,0.54,-0.28,-0.25
5.497720003128052,3,3,3,2,-9.220000000000001,-1.4,0.37,0.6899999999999999,-0.36,-0.1
5.507719993591309,3,3,3,2,-9.460000000000001,-1.01,0.25,0.82,-0.25,-0.19
5.517719984054565,3,3,3,2,-9.1,-0.77,0.55,-0.57,-0.23,0.03
5.527719974517822,3,3,3,2,-9.06,-0.03,0.51,-0.42,-0.19,0.29
5.537719964981079,3,3,3,2,-9.380000000000001,0.53,0.59,-0.02,0,0.5600000000000001
5.547719955444336,3,3,3,2,-9.710000000000001,1.28,1.17,-0.14,-0.04,1.03
5.557719945907593,3,3,3,2,-9.789999999999999,1.85,1.09,-0.08,-0.18,1.55
5.56771993637085,3,3,3,2,-9.880000000000001,2.27,1.01,-0.15,-0.19,2.12
5.577719926834106,3,3,3,2,-9.82,2.46,0.99,-0.7,-0.09,2.95
5.587719917297363,3,3,3,2,-9.44,1.79,1.14,-1.82,0,3.87
5.597720146179199,3,3,3,2,-9.289999999999999,1.75,1.07,-2.83,0.16,4.63
5.607720136642456,3,3,3,2,-9.25,1.61,1,-3.23,0.31,5.22
5.617720127105713,3,3,3,2,-9.26,1.68,0.98,-3.42,0.33,5.69
5.62772011756897,3,3,3,2,-9.15,1.92,1.33,-2.91,0.21,6.08
5.637720108032227,3,3,3,2,-9.1,2.44,1.37,-2.05,0.07000000000000001,6.67
5.647720098495483,3,3,3,2,-8.91,1.89,1.69,-0.89,-0.12,7.44
5.65772008895874,3,3,3,2,-8.77,0.83,1.79,-0.62,-0.28,8.31
5.667720079421997,3,3,3,2,-8.640000000000001,0.46,1.5,-0.07000000000000001,-0.36,8.699999999999999
5.677720069885254,3,3,3,2,-8.74,-0.51,1.75,0.97,-0.63,8.83
5.687720060348511,3,3,3,2,-8.76,-0.68,1.48,1.97,-0.96,8.9
5.697720050811768,3,3,3,2,-8.710000000000001,-0.57,1.24,3.66,-1.35,8.75
5.707720041275024,3,3,3,2,-8.42,0.1,0.93,5.89,-1.43,8.52
5.717720031738281,3,3,3,2,-8.18,1.24,0.65,7.95,-1.53,8.43
5.727720022201538,3,3,3,2,-8.119999999999999,2.24,0.67,9.140000000000001,-1.33,8.630000000000001
5.737720012664795,3,3,3,2,-7.95,2.4,0.61,9.609999999999999,-0.95,9.18
5.747720003128052,3,3,3,2,-7.64,1.18,-0.08,8.550000000000001,-0.71,10.14
5.757719993591309,3,3,3,2,-7.77,1,-0.05,7.36,-0.59,10.98
5.767719984054565,3,3,3,2,-8.1,0.36,0.11,6.72,-0.31,11.15
5.777719974517822,3,3,3,2,-8.539999999999999,-0.04,-0.19,6.78,0.19,10.72
5.787719964981079,3,3,3,2,-8.83,0.42,-0.66,8.44,0.49,10.13
5.797719955444336,3,3,3,2,-9.06,1.11,0.16,10.37,0.82,9.949999999999999
5.807719945907593,3,3,3,2,-8.85,1.64,0.18,11.14,1.57,9.9
5.81771993637085,3,3,3,2,-8.6,1.57,0.1,10.53,2.43,10.35
5.827719926834106,3,3,3,2,-9.390000000000001,-0.44,0.03,7.74,3.42,11.06
5.837719917297363,3,3,3,2,-9.869999999999999,-0.97,0,4.4,3.92,11.94
5.847720146179199,3,3,3,2,-9.85,-1.48,0.02,2.44,3.49,12.36
5.857720136642456,3,3,3,2,-9.779999999999999,-1.35,-0.47,2.16,3.17,12.28
5.867720127105713,3,3,3,2,-10.22,-0.21,-0.86,2.97,2.92,11.79
5.87772011756897,3,3,3,2,-10.7,0.5,-0.28,3.91,2.5,11.28
5.887720108032227,3,3,3,2,-11.49,0.3,-0.44,2.8,2.72,11.04
5.897720098495483,3,3,3,2,-11.65,0.51,-0.54,0.48,2.97,10.69
5.90772008895874,3,3,3,2,-11.27,0.36,-0.57,-1.04,3.48,10.49
5.917720079421997,3,3,3,2,-10.86,0.77,-0.72,-1.41,3.99,10.56
5.927720069885254,3,3,3,2,-10.83,0.57,-0.14,-0.66,4.19,10.83
5.937720060348511,3,3,3,2,-10.83,-0.67,-0.36,-1.14,4.04,10.77
5.947720050811768,3,3,3,2,-11.09,-0.45,-0.05,-1.39,3.49,10.2
5.957720041275024,3,3,3,2,-11.36,-0.25,-0.09,-0.09,3.11,8.960000000000001
5.967720031738281,3,3,3,2,-11.66,-0.67,-0.3,0.82,2.81,7.49
5.977720022201538,3,3,3,2,-11.78,-1.57,-0.74,0.88,2.19,6.12
5.987720012664795,3,3,3,2,-12.19,-1.6,-0.96,0.79,1.54,4.59
5.997720003128052,3,3,3,2,-12.81,-1.54,-1.13,0.89,1.15,2.92
6.007719993591309,3,3,3,2,-13.5,-1.61,-1.09,0.72,0.57,1.19
6.017719984054565,3,3,3,2,-14.87,-0.49,-0.53,0.32,0.07000000000000001,-0.46
6.027719974517822,3,3,3,2,-15.89,-0.18,0.44,0.05,-0.41,-2.05
6.037719964981079,3,3,3,2,-16.65,-0.62,1.17,-0.26,-0.66,-3.38
6.047719955444336,3,3,3,2,-16.97,-1.27,1.96,-1.21,-0.9,-4.52
6.057719945907593,3,3,3,2,-17.15,-3.15,2.94,-2,-1.36,-5.41
6.06771993637085,3,3,3,2,-17.54,-3.48,3.52,-2.63,-2.12,-6.18
6.077719926834106,3,3,3,2,-17.8,-4.11,4.34,-2.42,-2.97,-7.38
6.087719917297363,3,3,3,2,-17.84,-4.89,5.03,-2.26,-4.22,-8.74
6.097720146179199,3,3,3,2,-18.07,-5.83,6.15,-1.77,-5.41,-10.12
6.107720136642456,3,3,3,2,-18.28,-6.33,6.28,-1.14,-6.78,-11.35
6.117720127105713,3,3,3,2,-18.26,-7.66,5.35,-0.58,-8.56,-12.54
6.12772011756897,3,3,3,2,-18.63,-8.74,3.96,0.35,-10.15,-14.43
6.137720108032227,3,3,3,2,-21.26,-10.95,-0.35,2.21,-10.64,-16.91
6.147720098495483,3,3,3,1,-23.18,-12.24,-2.69,3.05,-11.43,-19.68
6.15772008895874,3,3,3,1,-25.8,-13.11,-4.33,3.5,-11.33,-22.45
6.167720079421997,3,3,3,1,-28.17,-12.97,-6.03,4.18,-10.26,-24.83
6.177720069885254,3,3,3,1,-30.16,-8.76,-8.140000000000001,4.32,-8.609999999999999,-26.02
6.187720060348511,3,3,3,1,-29.26,-2.61,-8.99,4.8,-6.72,-26.69
6.197720050811768,3,3,3,1,-26.56,1.42,-8.31,2.63,-4.81,-27.78
6.207720041275024,3,3,3,1,-23.49,3.15,-6.08,-2.54,-3.11,-28.55
6.217720031738281,3,3,3,1,-18.32,2.57,-2.08,-1.2,-1.26,-29.21
6.227720022201538,3,3,3,1,-13.56,0,-1.54,3.84,-0.35,-29.12
6.237720012664795,3,3,3,1,-8.800000000000001,1.36,0.85,10.56,-0.64,-28.44
6.247720003128052,3,3,3,1,-5.33,39.23,12.61,30.1,-2.78,-29.54
6.257719993591309,3,3,3,1,-2.03,39.11,21.17,27.5,-9.789999999999999,-24.6
6.267719984054565,3,3,3,1,2.46,38.27,8.050000000000001,0.62,-8.69,-6.9
6.277719974517822,3,3,3,1,4.38,17.99,1.57,-20.4,6.57,5.45
6.287719964981079,3,3,3,1,-6.44,-10.73,-0.05,-18.68,12.35,12.81
6.297719955444336,3,3,3,0,-9.08,-5.4,2.22,-11.43,11.12,11.31
6.308720111846924,3,3,3,0,-4.12,-2.69,4.35,3.64,6.94,4.5
6.318720102310181,3,3,3,0,-1.59,-2.84,3.44,9.619999999999999,2.49,5.52
6.328720092773438,3,3,3,0,0.5600000000000001,-1.5,-2.27,9.65,1.44,8.98
6.338720083236694,3,3,3,0,1.17,-2.68,-3.73,5.41,-0.3,11.24
6.348720073699951,3,3,3,0,0.9399999999999999,-3.79,-4.16,-2.63,-2,12.23
6.358720064163208,3,3,3,0,0.34,-4.32,-3.84,-6.78,-2.42,11.11
6.368720054626465,3,3,3,0,0.05,-4.21,-1.1,-8.57,-1.41,8.92
6.378720045089722,3,3,3,0,-0.95,-4.23,-0.43,-7.57,0.19,6.91
6.388720035552979,3,3,3,0,-1.18,-3.25,-1.4,-4.46,0.43,5.1
6.398720026016235,3,3,3,0,-0.2,-1.03,-2.5,2.26,-1.4,4.09
6.408720016479492,3,3,3,0,1.66,-1,-1.83,5.19,-3.13,3.74
6.418720006942749,3,3,3,0,1.92,-1.74,-1.62,4.72,-4.58,3.79
6.428719997406006,3,3,3,0,1.73,-2.77,-1.28,4.08,-5.45,4.06
6.438719987869263,3,3,3,0,1.67,-3.55,-1.2,3.39,-4.86,4.1
6.44871997833252,3,3,3,0,1.85,-1.92,-0.92,4.74,-3.03,4.11
6.458719968795776,3,3,3,0,1.33,-0.2,-0.47,6.53,-0.91,4.66
6.468719959259033,3,3,3,0,0.51,1.29,0.22,5.99,1.26,5.56
6.47871994972229,3,3,3,0,-0.33,2.32,1.13,2.83,2.96,5.92
6.488719940185547,3,3,3,0,-1.5,2.05,1.41,-2.38,3.82,5.66
6.498719930648804,3,3,3,0,-1.82,1.51,0.97,-7.26,4.09,4.86
6.508719921112061,3,3,3,0,-2.01,1.01,0.31,-10.63,3.93,3.7
6.518720149993896,3,3,3,0,-1.8,0.21,-0.13,-12.73,3.51,2.45
6.528720140457153,3,3,3,0,-0.71,-1.51,-0.59,-13.71,2.73,1.58
6.53872013092041,3,3,3,0,-0.15,-1.98,-1.26,-13.52,1.82,1.27
6.548720121383667,3,3,3,0,0,-2.2,-1.7,-12.33,1.77,1.43
6.558720111846924,3,3,3,0,-0.17,-2.5,-1.66,-9.69,2.04,1.95
6.568720102310181,3,3,3,0,0.23,-1.61,-1.81,-5.45,1.44,2.61
6.578720092773438,3,3,3,0,0.43,-0.96,-1.91,-1.02,0.8,2.91
6.588720083236694,3,3,3,0,0.37,-0.19,-1.59,1.94,0.93,3.12
6.598720073699951,3,3,3,0,0.01,0.66,-0.92,4.17,1.02,3.49
6.608720064163208,3,3,3,0,-1.09,2.81,-0.7,4.39,0.62,3.89
6.618720054626465,3,3,3,0,-2.32,10.95,0.14,3.88,0.01,3.54
6.628720045089722,3,3,3,0,-4.07,19.37,4.98,13.06,-1.79,3.33
6.638720035552979,3,3,3,0,-8.99,4.75,7.53,17.51,-2.12,1.78
6.648720026016235,3,3,3,1,-14.84,-18.09,-0.87,4.12,3.52,-1.94
6.658720016479492,3,3,3,1,-26.44,-9.26,-4.94,-20.38,3.55,-5.97
6.668720006942749,3,3,3,1,-35.4,19.88,1.82,14.45,-1.25,-10.29
6.678719997406006,3,3,3,1,-32.13,6.56,-5.51,23.6,1.41,-1.46
6.688719987869263,3,3,3,1,-16.98,4.48,-2.83,1.67,9.9,14.32
6.69871997833252,3,3,3,1,-13.36,4.34,-7.36,-1.33,10.56,19.53
6.708719968795776,3,3,3,1,-22.73,8.56,-5.49,-1.06,10.91,16.84
6.718719959259033,3,3,3,1,-39.33,5.31,9.02,-0.11,8.710000000000001,12.83
6.72871994972229,3,3,3,1,-32.05,-13.32,8.789999999999999,-16.21,4.99,12.35
6.738719940185547,3,3,3,1,-20.58,-21.38,4.53,-31.1,5.74,13.42
6.748719930648804,3,3,3,1,-14.51,-28.82,2.1,-31.19,8.75,10.62
6.758719921112061,3,3,3,1,-13.01,-16.19,-0.5,-14.17,9.359999999999999,6.41
6.768720149993896,3,3,3,1,-16.57,-7.28,0.11,20.67,6.53,2.07
6.778720140457153,3,3,3,1,-16.76,-4.4,1.82,34.88,3.88,-0.83
6.78872013092041,3,3,3,1,-16.43,-2.67,3,29.58,1.21,-2.72
6.798720121383667,3,3,3,1,-17.24,-1.46,2.37,18.07,-0.88,-3.78
6.808720111846924,3,3,3,1,-17.49,-0.64,1.31,6.95,-2.11,-2.98
6.818720102310181,3,3,3,1,-17.44,-0.46,0.83,-1.07,-1.85,-1.82
6.828720092773438,3,3,3,1,-17.19,-1.38,1.4,-6.31,-1.05,-0.82
6.838720083236694,3,3,3,1,-15.47,-2.11,1.8,-9.6,-0.62,-0.58
6.848720073699951,3,3,3,1,-14.42,-1.69,1.92,-10.94,-0.68,-1.42
6.858720064163208,3,3,3,1,-13.44,-2.18,1.66,-11.86,-1.12,-2.31
6.868720054626465,3,3,3,1,-12.58,-3.71,0.9,-13.12,-1.85,-3.27
6.878720045089722,3,3,3,1,-11.6,-6.58,-0.47,-12.5,-1.97,-4.72
6.888720035552979,3,3,3,1,-11.12,-6.46,-0.67,-8.58,-1.82,-6.47
6.898720026016235,3,3,3,1,-10.85,-5.71,-0.73,-2.57,-1.77,-8.039999999999999
6.908720016479492,3,3,3,1,-10.91,-4.75,-0.87,2.39,-1.98,-8.640000000000001
6.918720006942749,3,3,3,1,-10.26,-2.38,-1.57,5.52,-2.4,-8.42
6.928719997406006,3,3,3,1,-10.12,-1.09,-1.7,7.49,-2.2,-7.85
6.938719987869263,3,3,3,1,-9.93,0.45,-1.73,7.64,-2.07,-7.29
6.94871997833252,3,3,3,1,-9.619999999999999,1.68,-1.47,6.55,-1.57,-6.88
6.958719968795776,3,3,3,1,-8.66,2.7,-1.09,4.01,-1.05,-6.19
6.968719959259033,3,3,3,1,-7.99,2.57,-0.82,0.61,-0.71,-5.49
6.97871994972229,3,3,3,1,-7.34,2.17,-0.43,-2.61,-0.31,-5.18
6.988719940185547,3,3,3,1,-6.82,1.79,-0.08,-4.86,-0.2,-5.17
6.998719930648804,3,3,3,1,-6.23,0.73,0.5,-6.24,-0.12,-5.41
7.008719921112061,3,3,3,1,-5.98,0.2,0.76,-6.97,-0.16,-5.77
7.018720149993896,3,3,3,1,-5.8,-0.75,0.57,-7.12,-0.03,-6.05
7.028720140457153,3,3,3,1,-5.71,-1.98,0.1,-6.44,0.18,-6.21
7.03872013092041,3,3,3,1,-5.97,-2.14,-0.28,-4.65,0.42,-6.36
7.048720121383667,3,3,3,0,-6.18,-1.76,-0.51,-1.92,0.47,-6.49
7.058720111846924,3,3,3,0,-6.5,-0.84,-0.57,1.58,0.38,-6.46
7.068720102310181,3,3,3,0,-7.59,2.33,-0.75,4.58,0.28,-6.23
7.078720092773438,3,3,3,0,-8.24,3.95,-0.45,6.18,-0.07000000000000001,-5.68
7.088720083236694,3,3,3,0,-8.880000000000001,4.94,0.02,5.8,-0.5600000000000001,-4.79
7.098720073699951,3,3,3,0,-9.470000000000001,5.93,0.39,3.68,-0.92,-3.76
7.108720064163208,3,3,3,0,-10.42,5.31,1.17,0.45,-1.08,-2.75
7.118720054626465,3,3,3,0,-10.7,4.3,1.34,-2.94,-0.91,-1.97
7.128720045089722,3,3,3,0,-10.71,3.25,1.7,-5.09,-0.6,-1.46
7.138720035552979,3,3,3,0,-10.31,2.07,1.65,-6.09,-0.05,-1.07
7.148720026016235,3,3,3,0,-9.630000000000001,-0.73,0.93,-6.7,0.43,-0.78
7.158720016479492,3,3,3,0,-9.529999999999999,-2.06,0.34,-7.73,0.73,-0.54
7.168720006942749,3,3,3,0,-9.77,-3,-0.08,-7.84,1.02,-0.59
7.178719997406006,3,3,3,0,-10.18,-3.5,-0.45,-6.54,1.24,-0.97
7.188719987869263,3,3,3,0,-10.62,-3.2,-0.44,-4.03,0.93,-1.49
7.19871997833252,3,3,3,0,-10.64,-2.75,-0.41,-1.68,0.59,-1.88
7.208719968795776,3,3,3,0,-10.55,-2.03,-0.48,0.18,0.47,-2.15
7.218719959259033,3,3,3,0,-10.36,-1.61,-0.57,0.9399999999999999,0.29,-2.4
7.22871994972229,3,3,3,0,-10.04,-1.29,-0.34,1.01,0.01,-2.56
7.238719940185547,3,3,3,0,-9.890000000000001,-1.39,-0.19,0.98,-0.25,-2.68
7.248719930648804,3,3,3,0,-9.76,-1.33,-0.12,1.1,-0.38,-2.85
7.258719921112061,3,3,3,0,-9.67,-1.25,-0.05,1.17,-0.43,-3.01
7.268720149993896,3,3,3,0,-9.48,-1.15,0.04,1.18,-0.44,-3.15
7.278720140457153,3,3,3,0,-9.460000000000001,-1.22,0.13,1.14,-0.48,-3.26
7.28872013092041,3,3,3,0,-9.369999999999999,-1.27,0.27,0.76,-0.58,-3.43
7.298720121383667,3,3,3,0,-9.33,-0.9399999999999999,0.44,0.8,-0.63,-3.69
7.308720111846924,3,3,3,0,-9.27,-0.43,0.83,0.66,-0.51,-3.96
7.318720102310181,3,3,3,0,-9.210000000000001,-0.24,1.05,0.27,-0.55,-4.03
7.328720092773438,3,3,3,0,-9.130000000000001,-0.25,1.19,-0.17,-0.51,-3.85
7.339720010757446,3,3,3,0,-9.1,-0.33,1.18,-0.83,-0.38,-3.42
7.349720001220703,3,3,3,1,-9.33,-0.12,0.84,-1.36,-0.22,-2.95
7.35971999168396,3,3,3,1,-9.43,-0.16,0.78,-2,-0.24,-2.43
7.369719982147217,3,3,3,1,-9.43,-0.08,0.49,-2.35,-0.18,-1.95
7.379719972610474,3,3,3,1,-9.609999999999999,-0.23,0.25,-2.84,-0.09,-1.56
7.38971996307373,3,3,3,1,-9.66,-1.27,0.34,-3.44,-0.04,-1.23
7.399719953536987,3,3,3,1,-9.58,-1.58,0.4,-2.95,0.01,-1.03
7.409719944000244,3,3,3,1,-9.5,-1.7,0.41,-1.67,0.08,-0.92
7.419719934463501,3,3,3,1,-9.42,-1.63,0.15,-0.36,0.03,-0.74
7.429719924926758,3,3,3,1,-9.359999999999999,-1.69,0.27,0.41,-0.15,-0.5
7.439719915390015,3,3,3,1,-9.44,-1.28,0.25,1.37,-0.37,-0.39
7.449720144271851,3,3,3,1,-9.59,-1.11,0.17,1.96,-0.53,-0.25
7.459720134735107,3,3,3,1,-9.99,-1.09,0.06,1.8,-0.61,-0.19
7.469720125198364,3,3,3,1,-9.98,-1.43,0.09,1.11,-0.77,-0.08
7.479720115661621,3,3,3,1,-9.84,-1.85,0.25,0.08,-0.62,0.06
7.489720106124878,3,3,3,1,-9.65,-1.87,0.43,-0.01,-0.39,-0.02
7.499720096588135,3,3,3,1,-9.56,-1.9,0.73,0.37,-0.17,-0.16
7.509720087051392,3,3,3,1,-9.470000000000001,-1.83,0.64,0.68,-0.25,-0.12
7.519720077514648,3,3,3,1,-9.42,-1.74,0.55,0.72,-0.33,-0.02
7.529720067977905,3,3,3,1,-9.470000000000001,-1.61,0.52,0.79,-0.42,0.09
7.539720058441162,3,3,3,1,-9.48,-1.84,0.54,0.58,-0.41,0.25
7.549720048904419,3,3,3,1,-9.51,-1.61,0.48,0.6899999999999999,-0.34,0.32
7.559720039367676,3,3,3,1,-9.640000000000001,-1.53,0.4,1.04,-0.31,0.35
7.569720029830933,3,3,3,1,-9.699999999999999,-1.52,0.22,1.1,-0.33,0.31
7.579720020294189,3,3,3,1,-9.710000000000001,-1.23,0.27,1.02,-0.35,0.23
7.589720010757446,3,3,3,1,-9.699999999999999,-1,0.27,1.09,-0.33,0.13
7.599720001220703,3,3,3,1,-9.710000000000001,-1.03,0.4,0.72,-0.29,0.07000000000000001
7.60971999168396,3,3,3,1,-9.67,-0.89,0.41,0.35,-0.29,0.1
7.619719982147217,3,3,3,1,-9.67,-1.01,0.39,-0.07000000000000001,-0.2,0.08
7.629719972610474,3,3,3,1,-9.630000000000001,-1.16,0.47,-0.68,-0.17,0.19
7.63971996307373,3,3,3,1,-9.66,-1.15,0.43,-0.82,-0.12,0.21
7.649719953536987,3,3,3,1,-9.619999999999999,-1.32,0.54,-1.07,-0.15,0.25
7.659719944000244,3,3,3,1,-9.470000000000001,-1.75,0.61,-0.96,-0.21,0.29
7.669719934463501,3,3,3,1,-9.5,-1.7,0.45,-0.64,-0.23,0.41
7.679719924926758,3,3,3,1,-9.460000000000001,-1.94,0.54,-0.5,-0.32,0.46
7.689719915390015,3,3,3,1,-9.390000000000001,-1.93,0.57,-0.17,-0.38,0.55
7.699720144271851,3,3,3,1,-9.449999999999999,-1.49,0.44,0.02,-0.4,0.62
7.709720134735107,3,3,3,1,-9.460000000000001,-1.1,0.52,0.26,-0.44,0.79
7.719720125198364,3,3,3,1,-9.380000000000001,-0.67,0.48,0.91,-0.36,1.33
7.729720115661621,3,3,3,1,-9.34,-0.11,0.5,0.91,-0.36,1.33
7.739720106124878,3,3,3,1,-9.460000000000001,0.5,0.73,0.82,-0.39,1.79
7.749720096588135,3,3,3,1,-9.51,0.76,0.74,0.5,-0.47,2.22
7.759720087051392,3,3,3,1,-9.49,0.72,0.89,-0.15,-0.46,2.79
7.769720077514648,3,3,3,1,-9.42,0.86,0.88,-0.58,-0.26,3.44
7.779720067977905,3,3,3,1,-9.49,1.66,1,-0.5600000000000001,-0.3,4.48
7.789720058441162,3,3,3,1,-9.44,2.1,1.12,-0.5600000000000001,-0.3,4.48
7.799720048904419,3,3,3,2,-9.289999999999999,2.43,1.31,-0.7,-0.54,5.12
7.809720039367676,3,3,3,2,-9.109999999999999,2.77,1.4,-1.17,-0.8100000000000001,7.01
7.819720029830933,3,3,3,2,-8.779999999999999,2.72,1.46,-1.17,-0.8100000000000001,7.01
7.829720020294189,3,3,3,2,-8.67,3.19,1.55,-0.78,-0.96,7.98
7.839720010757446,3,3,3,2,-8.51,3.47,1.68,-0.1,-1.1,8.84
7.849720001220703,3,3,3,2,-8.289999999999999,1.55,1.49,-0.5600000000000001,-0.95,9.76
7.85971999168396,3,3,3,2,-8.26,1.13,0.98,-0.83,-0.76,10.2
7.869719982147217,3,3,3,2,-8.390000000000001,0.38,0.87,0.65,-0.7,10.03
7.879719972610474,3,3,3,2,-8.630000000000001,0.4,0.83,0.65,-0.7,10.03
7.88971996307373,3,3,3,2,-8.44,0.66,0.9399999999999999,2.42,-1.2,9.99
7.899719953536987,3,3,3,2,-8.359999999999999,0.79,0.89,4.23,-1.19,10.27
7.909719944000244,3,3,3,2,-8.23,0.61,0.63,5.66,-0.98,11.37
7.919719934463501,3,3,3,2,-7.88,0.24,0.48,5.97,-0.16,11.59
7.929719924926758,3,3,3,2,-7.62,-0.03,-0.12,5.6,0.76,11.69
7.939719915390015,3,3,3,2,-7.85,-0.78,-0.22,5.6,0.76,11.69
7.949720144271851,3,3,3,2,-8.199999999999999,-0.64,-0.54,5.65,0.9,11.62
7.959720134735107,3,3,3,2,-8.31,0,-0.12,11.12,1.23,11.21
7.969720125198364,3,3,3,2,-9.460000000000001,1.47,0.03,10.93,1.75,11.4
7.979720115661621,3,3,3,2,-9.43,1.42,-0.17,7.5,2.29,12.08
7.989720106124878,3,3,3,2,-9.539999999999999,0.67,0.02,7.5,2.29,12.08
7.999720096588135,3,3,3,2,-9.630000000000001,0.23,-0.3,4.1,2.4,12.42
8.009720087051392,3,3,3,2,-10.21,0.55,-0.43,3.36,2.71,11.59
8.019720077514648,3,3,3,2,-9.91,0.7,0.1,3.6,3.16,11.55
8.029720067977905,3,3,3,2,-9.74,1.06,0.37,2.7,3.75,12.11
8.039720058441162,3,3,3,2,-9.92,0.49,0.39,2.7,3.75,12.11
8.049720048904419,3,3,3,2,-10.3,0.45,-0.36,1.31,3.95,12.16
8.059720039367676,3,3,3,2,-10.46,1,-0.29,-0.4,4.51,11.07
8.069720029830933,3,3,3,2,-10.68,0.96,-0.17,0.46,4.46,10.55
8.079720020294189,3,3,3,2,-10.83,1.52,0.29,0.63,4.68,10.41
8.089720010757446,3,3,3,2,-10.75,0.35,-0.27,0.63,4.68,10.41
8.099720001220703,3,3,3,2,-10.25,-0.6899999999999999,-1.13,-0.68,4.44,10.29
8.10971999168396,3,3,3,2,-10.3,-1.05,-1.3,0.9,3.21,8.300000000000001
8.119719982147217,3,3,3,2,-10.61,-1.12,-0.99,2.45,2.38,6.65
8.129719972610474,3,3,3,2,-12.33,-0.54,-1.03,3.42,1.88,4.86
8.13971996307373,3,3,3,2,-13.29,-0.33,-0.5,3.42,1.88,4.86
8.149719953536987,3,3,3,2,-13.44,-0.86,-0.28,2.77,1.56,3.24
8.159719944000244,3,3,3,2,-13.33,-1.12,-0.47,1.61,1.17,0.6
8.169719934463501,3,3,3,2,-13.68,-1.96,-0.3,0.86,0.62,-0.75
8.179719924926758,3,3,3,2,-13.95,-2.16,-0.48,0.93,-0.24,-2.4
8.189719915390015,3,3,3,2,-14.62,-1.18,-0.79,0.93,-0.24,-2.4
8.199720144271851,3,3,3,2,-15.51,-0.38,-0.75,0.67,-0.95,-4.08
8.209720134735107,3,3,3,2,-16.91,-0.86,0.45,-2.69,-2.45,-6.83
8.219720125198364,3,3,3,2,-17.14,-1.92,0.74,-4.59,-2.9,-7.85
8.229720115661621,3,3,3,2,-17.19,-2.76,1.35,-5.71,-3.52,-8.66
8.239720106124878,3,3,3,2,-17.66,-4.45,3.72,-5.71,-3.52,-8.66
8.249720096588135,3,3,3,2,-17.58,-5.72,4.98,-6.43,-4.45,-9.630000000000001
8.259720087051392,3,3,3,2,-17.67,-6.77,5.8,-5.27,-7.08,-12.74
8.269720077514648,3,3,3,2,-17.95,-7.39,5.8,-3.09,-8.6,-15.2
8.279720067977905,3,3,3,2,-19.99,-7.57,5.48,-0.63,-9.33,-17.82
8.289720058441162,3,3,3,2,-21.46,-8.550000000000001,5.06,-0.63,-9.33,-17.82
8.299720048904419,3,3,3,2,-22.54,-10.11,2.94,0.83,-10.6,-20.03
8.309720039367676,3,3,3,2,-23.73,-11.39,0.6899999999999999,2.61,-10.79,-23.32
8.319720029830933,3,3,3,2,-26.84,-13.19,-3.41,3.06,-10.31,-23.98
8.329720020294189,3,3,3,2,-27.98,-13.28,-6.02,3.27,-9.41,-24.15
8.339720010757446,3,3,3,2,-28.42,-11.54,-9.34,3.27,-9.41,-24.15
8.349720001220703,3,3,3,1,-28.6,-6.67,-12.34,3.13,-7.64,-24.59
8.360719919204712,3,3,3,1,-25.85,4.84,-9.17,-3.44,-3.21,-26.36
8.370720148086548,3,3,3,1,-22,8.56,-3.5,-2.27,-0.48,-27.73
8.380720138549805,3,3,3,1,-17.81,6.67,1.93,3.58,0.86,-28.55
8.390720129013062,3,3,3,1,-12.77,2.7,4.24,3.58,0.86,-28.55
8.400720119476318,3,3,3,1,-2.31,8.789999999999999,3.33,15.15,0,-26.29
8.410720109939575,3,3,3,1,-0.71,31.62,2.09,22.71,-3.17,-14.44
8.440720081329346,3,3,3,1,-1.26,16.72,0.33,-5.95,4.98,4.88
8.450720071792603,3,3,3,1,-3.74,4.32,-0.52,-10.28,12.37,9.59
8.460720062255859,3,3,3,1,-6.22,2.86,0.18,0.52,7.91,7.07
8.470720052719116,3,3,3,1,-6.74,4.11,2.78,0.64,5.75,10.57
8.480720043182373,3,3,3,1,-1.98,2.99,3.17,-4.5,5.44,13.41
8.49072003364563,3,3,3,1,-0.91,0.52,-0.47,-4.5,5.44,13.41
8.500720024108887,3,3,3,1,-0.41,-4.47,-1.89,-13.17,5.19,14.83
8.510720014572144,3,3,3,1,0.23,-9.23,-1.4,-11.75,3.9,10.59
8.5207200050354,3,3,3,1,0.88,-11.54,-2.84,-6.97,4.68,7.69
8.530719995498657,3,3,3,1,0.27,-11.16,-2.54,2.07,3.8,5.67
8.540719985961914,3,3,3,1,0.43,-9.02,-2.39,2.07,3.8,5.67
8.550719976425171,3,3,3,1,0.45,-6.18,-2.98,12.28,2.07,4.62
8.560719966888428,3,3,3,1,1.11,-0.6899999999999999,-3.66,15.44,-2.97,5.09
8.570719957351685,3,3,3,1,1.8,0,-2.96,11.17,-4.44,5.77
8.580719947814941,3,3,3,1,1.8,0.12,-2.01,7.85,-4.45,5.8
8.590719938278198,3,3,3,0,1.24,-0.13,-1.49,7.85,-4.45,5.8
8.600719928741455,3,3,3,0,0.51,-0.21,-0.44,6.24,-3.4,5.67
8.610719919204712,3,3,3,0,0.71,-0.08,0.05,2.98,0.5,5.38
8.620720148086548,3,3,3,0,0.84,-0.05,0.19,0.53,2.62,4.91
8.630720138549805,3,3,3,0,0.3,-0.01,0.38,-2.19,4.08,4.26
8.640720129013062,3,3,3,0,-0.24,-0.37,0.41,-2.19,4.08,4.26
8.650720119476318,3,3,3,0,-0.65,-0.73,0.31,-4.13,4.62,3.62
8.660720109939575,3,3,3,0,-0.98,-0.85,0.01,-4.8,4.13,2.09
8.670720100402832,3,3,3,0,-1.33,-0.33,-0.8100000000000001,-5.3,3.62,1.55
8.680720090866089,3,3,3,0,-1.08,-0.34,-1.03,-5.92,2.53,1.65
8.690720081329346,3,3,3,0,-0.8100000000000001,-0.54,-1.24,-5.92,2.53,1.65
8.700720071792603,3,3,3,0,-0.74,-0.99,-1.31,-6.83,1.64,1.84
8.710720062255859,3,3,3,0,-0.98,-1.67,-0.44,-5.6,0.32,1.71
8.720720052719116,3,3,3,0,-0.23,-1.13,0.33,-5.38,-0.63,1.82
8.730720043182373,3,3,3,0,0.49,-0.8,0.65,-4.73,-1.14,1.97
8.74072003364563,3,3,3,1,0.74,-0.02,0.55,-4.73,-1.14,1.97
8.750720024108887,3,3,3,1,0.23,0.5600000000000001,-1.01,-5.97,-1.59,2.03
8.760720014572144,3,3,3,1,0.09,-0.24,-0.83,-9.31,-2.58,0.5
8.7707200050354,3,3,3,1,-0.46,-0.72,-0.76,1.04,-3.95,-0.6
8.780719995498657,3,3,3,1,-2.43,6.37,0.55,9.91,-7.27,-2.49
8.790719985961914,3,3,3,1,-8.869999999999999,20.89,8.720000000000001,9.91,-7.27,-2.49
8.800719976425171,3,3,3,1,-11.95,18.38,7.77,1.37,-6.97,-5.93
8.810719966888428,3,3,3,1,-17.7,-10.01,-5.34,-35.64,-1.99,-8.199999999999999
8.820719957351685,3,3,3,1,-28.69,-11.57,-7.22,-1.34,-1.15,-2.12
8.830719947814941,3,3,3,1,-35.81,12.97,-1.83,-18.6,10.79,13.94
8.840719938278198,3,3,3,2,-18.36,-1.92,-16.8,-18.6,10.79,13.94
8.850719928741455,3,3,3,2,-24.69,29.69,-18.94,23.42,8.83,12.14
8.860719919204712,3,3,3,2,-39.33,39.23,24.16,-57.36,2.59,33.22
8.870720148086548,3,3,3,2,-22.47,-7.89,11.76,-74.59999999999999,0.79,30.13
8.880720138549805,3,3,3,2,-7.64,-34.25,-8.27,-96.48999999999999,7.55,17.1
8.890720129013062,3,3,3,2,-13.52,-39.21,-14.3,-96.48999999999999,7.55,17.1
8.900720119476318,3,3,3,2,-14.49,-39.07,-14.45,3.79,8.67,4.03
8.910720109939575,3,3,3,2,-7.52,-16.58,-12.08,104,8.449999999999999,-9.19
8.920720100402832,3,3,3,2,-14.3,-5.78,-4.95,91.86,-3.54,-16.98
8.930720090866089,3,3,3,2,-19.12,10.3,0.1,50.22,-10.91,-17.95
8.940720081329346,3,3,3,2,-21.92,25.18,4.73,50.22,-10.91,-17.95
8.950720071792603,3,3,3,2,-25.56,16.2,1.46,-4.6,-8.57,-6.63
8.960720062255859,3,3,3,2,-27.57,-2.73,-3.28,-53.1,2.12,9.76
8.970720052719116,3,3,3,2,-20.69,-9.81,-3.07,-43.52,0.72,5.81
8.980720043182373,3,3,3,2,-7.49,-10.86,-1,-33.89,1.07,0.25
8.99072003364563,3,3,3,2,-9.449999999999999,-10.62,-0.44,-33.89,1.07,0.25
9.000720024108887,3,3,3,2,-10.81,-9.19,0.49,-24.3,0.64,-3.47
9.010720014572144,3,3,3,2,-12.03,-6.03,0.84,-11.9,0.53,-10.33
9.0207200050354,3,3,3,2,-12.91,-3.64,0.5,-12.43,-0.02,-12.88
9.030719995498657,3,3,3,2,-10.24,-5.86,0.02,-10.42,-0.89,-13.29
9.040719985961914,3,3,3,2,-10.24,-5.86,0.02,-10.42,-0.89,-13.29
9.050719976425171,3,3,3,2,-7.54,-7.09,-0.5600000000000001,-3.32,-1.74,-12.64
9.060719966888428,3,3,3,2,-8.539999999999999,-3.55,-0.68,10.82,-1.99,-9.949999999999999
9.070719957351685,3,3,3,2,-8.65,-1.9,-1.1,13.37,-1.81,-9.119999999999999
9.080719947814941,3,3,3,2,-7.95,-0.29,-1.58,13.03,-1.28,-8.619999999999999
9.090719938278198,3,3,3,2,-7.95,-0.29,-1.58,13.03,-1.28,-8.619999999999999
9.100719928741455,3,3,3,2,-6.33,0.87,-1.93,10.83,-0.46,-8.17
9.110719919204712,3,3,3,2,-5.66,1.86,-0.92,6.25,0.64,-7.92
9.120720148086548,3,3,3,2,-5.71,2.14,-0.4,3.38,0.37,-8.31
9.130720138549805,3,3,3,2,-6.33,1.54,1.34,0.06,0.09,-8.800000000000001
9.140720129013062,3,3,3,2,-6.33,1.54,1.34,0.06,0.09,-8.800000000000001
9.150720119476318,3,3,3,2,-6.91,1.31,1.77,-1.87,0.21,-9.109999999999999
9.160720109939575,3,3,3,2,-8.35,2.14,1.91,-1.13,0.03,-9.609999999999999
9.170720100402832,3,3,3,2,-10.28,2.83,2.64,-0.5600000000000001,-0.17,-9.220000000000001
9.180720090866089,3,3,3,2,-10.74,3.08,2.48,-0.59,-0.57,-8.19
9.190720081329346,3,3,3,2,-10.74,3.08,2.48,-0.8,-0.6,-6.92
9.200720071792603,3,3,3,2,-10.63,3,2.11,-0.83,-0.05,-5.73
9.210720062255859,3,3,3,2,-9.09,1.78,0.23,-1.35,0.3,-4.75
9.220720052719116,3,3,3,2,-9.029999999999999,2.13,-0.45,-0.87,0.23,-4.19
9.230720043182373,3,3,3,2,-9.5,2.48,-0.85,-1.35,0.09,-3.85
9.24072003364563,3,3,3,2,-9.5,2.48,-0.85,-2.79,-0.22,-3.57
9.250720024108887,3,3,3,2,-9.789999999999999,1.84,-0.62,-3,-0.27,-3.87
9.260720014572144,3,3,3,2,-9.73,1.31,-0.21,-3.42,-0.22,-4.15
9.2707200050354,3,3,3,2,-10.11,0.13,0.12,-4.74,-0.54,-4.06
9.280719995498657,3,3,3,2,-10.29,-1.19,0.61,-5.18,-0.83,-3.94
9.290719985961914,3,3,3,2,-10.29,-1.19,0.61,-5.18,-0.83,-3.94
9.300719976425171,3,3,3,2,-9.77,-3.48,1.31,-4.49,-0.98,-4.12
9.310719966888428,3,3,3,2,-9.369999999999999,-4.56,1.17,-3.78,-0.8100000000000001,-4.24
9.320719957351685,3,3,3,2,-9.25,-4.99,1.18,-2.94,-0.67,-4.17
9.330719947814941,3,3,3,2,-8.9,-3.77,0.75,-0.93,-0.8,-4.26
9.340719938278198,3,3,3,2,-8.9,-3.77,0.75,-0.93,-0.8,-4.26
9.350719928741455,3,3,3,2,-8.94,-2.93,0.44,0.52,-1.17,-4.35
9.360719919204712,3,3,3,2,-9.199999999999999,-0.58,0.02,1.57,-1.59,-4.12
9.370720148086548,3,3,3,2,-9.56,1.63,-0.04,1.89,-1.3,-3.76
9.380720138549805,3,3,3,2,-9.6,2.57,0.03,1.92,-0.79,-3.22
9.391720056533813,3,3,3,2,-9.6,2.57,0.03,1.92,-0.79,-3.22
9.40172004699707,3,3,3,2,-9.699999999999999,2.78,0.36,0.96,-0.34,-2.45
9.411720037460327,3,3,3,2,-10.04,1.26,1.38,-1.46,0.19,-1.07
9.421720027923584,3,3,3,2,-10.16,0.13,1.46,-1.72,0.28,-0.6899999999999999
9.431720018386841,3,3,3,2,-10.22,-1.14,1.53,-1.35,0.23,-0.6
9.441720008850098,3,3,3,2,-10.22,-1.14,1.53,-1.35,0.23,-0.6
9.451719999313354,3,3,3,2,-9.970000000000001,-2.77,1.11,-0.23,0.07000000000000001,-0.66
9.461719989776611,3,3,3,2,-9.75,-3.23,0.39,1.99,-0.39,-1.1
9.471719980239868,3,3,3,2,-9.539999999999999,-3.22,0.23,2.67,-0.45,-1.28
9.481719970703125,3,3,3,2,-9.300000000000001,-3.39,-0.08,3.03,-0.34,-1.5
9.491719961166382,3,3,3,2,-9.300000000000001,-3.39,-0.08,3.34,-0.19,-1.64
9.501719951629639,3,3,3,2,-9.210000000000001,-3.14,-0.12,3.34,-0.19,-1.64
9.511719942092896,3,3,3,2,-9.06,-2.77,0.03,3.53,-0.07000000000000001,-1.73
9.521719932556152,3,3,3,2,-8.99,-2.39,0.49,3.44,-0.13,-1.9
9.531719923019409,3,3,3,2,-9.02,-2.36,0.6,3.08,-0.22,-2.07
9.541719913482666,3,3,3,2,-9.109999999999999,-2.34,0.66,2.5,-0.35,-2.27
9.551720142364502,3,3,3,2,-9.130000000000001,-2.25,0.83,1.95,-0.53,-2.47
9.561720132827759,3,3,3,2,-9.220000000000001,-2.34,0.61,1.25,-0.5600000000000001,-2.63
9.571720123291016,3,3,3,2,-9.279999999999999,-2.29,0.57,0.68,-0.45,-2.68
9.581720113754272,3,3,3,2,-9.380000000000001,-2.32,0.51,0.12,-0.16,-2.31
9.591720104217529,3,3,3,2,-9.550000000000001,-2.44,0.49,-0.27,-0.01,-1.61
9.601720094680786,3,3,3,2,-9.58,-2.22,0.57,-0.4,0.04,-0.93
9.611720085144043,3,3,3,2,-9.52,-2.24,0.42,-0.61,0.03,-0.6
9.6217200756073,3,3,3,2,-9.51,-2.46,0.44,-0.9399999999999999,0.01,-0.66
9.631720066070557,3,3,3,2,-9.48,-2.64,0.46,-1.18,-0.09,-0.87
9.641720056533813,3,3,3,2,-9.5,-2.81,0.38,-1.29,-0.13,-1.06
9.65172004699707,3,3,3,2,-9.5,-2.86,0.35,-1.16,-0.25,-1.26
9.661720037460327,3,3,3,2,-9.460000000000001,-2.75,0.21,-0.73,-0.25,-1.41
9.671720027923584,3,3,3,2,-9.42,-2.58,0.2,-0.22,-0.26,-1.52
9.681720018386841,3,3,3,2,-9.4,-2.13,0.28,0.17,-0.24,-1.56
9.691720008850098,3,3,3,2,-9.369999999999999,-1.96,0.31,0.36,-0.19,-1.48
9.701719999313354,3,3,3,2,-9.380000000000001,-1.95,0.35,0.27,-0.13,-1.22
9.711719989776611,3,3,3,2,-9.449999999999999,-2.07,0.31,0.01,-0.09,-0.87
9.721719980239868,3,3,3,2,-9.609999999999999,-2.62,0.44,-0.36,-0.08,-0.61
9.731719970703125,3,3,3,2,-9.619999999999999,-2.9,0.55,-0.6,-0.17,-0.46
9.741719961166382,3,3,3,2,-9.56,-3.09,0.62,-0.68,-0.23,-0.4
9.751719951629639,3,3,3,2,-9.449999999999999,-3.2,0.67,-0.6899999999999999,-0.26,-0.35
9.761719942092896,3,3,3,2,-9.210000000000001,-3.32,0.58,-0.78,-0.24,-0.24
9.771719932556152,3,3,3,2,-9.109999999999999,-3.25,0.58,-0.87,-0.2,-0.12
9.781719923019409,3,3,3,2,-9.029999999999999,-3.18,0.54,-0.88,-0.18,0.02
9.791719913482666,3,3,3,2,-9.06,-3.26,0.36,-0.91,-0.13,0.09
9.801720142364502,3,3,3,2,-9.109999999999999,-3.33,0.28,-0.87,-0.05,0.1
9.811720132827759,3,3,3,2,-9.109999999999999,-3.32,0.19,-0.65,-0.08,0.03
9.821720123291016,3,3,3,2,-9.119999999999999,-3.38,0.21,-0.43,-0.04,-0.02
9.831720113754272,3,3,3,2,-9.32,-3.39,0.39,-0.2,-0.01,-0.02
9.841720104217529,3,3,3,2,-9.359999999999999,-3.26,0.54,0.05,-0.05,-0.02
9.851720094680786,3,3,3,2,-9.33,-3.13,0.53,0.23,-0.09,0
9.861720085144043,3,3,3,2,-9.33,-2.96,0.48,0.38,-0.06,0.04
9.8717200756073,3,3,3,2,-9.27,-2.43,0.58,0.4,-0.06,0.06
9.881720066070557,3,3,3,2,-9.26,-2.32,0.62,0.17,-0.04,0.16
9.891720056533813,3,3,3,2,-9.359999999999999,-2.37,0.6899999999999999,-0.34,-0.04,0.18
9.90172004699707,3,3,3,2,-9.470000000000001,-2.46,0.74,-0.95,0.01,0.21
9.911720037460327,3,3,3,2,-9.630000000000001,-2.82,0.61,-1.18,0.02,0.27
9.921720027923584,3,3,3,2,-9.65,-2.98,0.64,-1.22,0,0.34
9.931720018386841,3,3,3,2,-9.52,-2.99,0.62,-1.01,0.02,0.46
9.941720008850098,3,3,3,2,-9.359999999999999,-2.92,0.5600000000000001,-0.73,-0.01,0.57
9.951719999313354,3,3,3,2,-9.300000000000001,-2.98,0.43,-0.66,-0.05,0.63
9.961719989776611,3,3,3,2,-9.31,-2.97,0.36,-0.57,-0.09,0.58
9.971719980239868,3,3,3,2,-9.33,-2.93,0.4,-0.48,0.01,0.55
9.981719970703125,3,3,3,2,-9.33,-2.98,0.42,-0.28,0.07000000000000001,0.5
9.991719961166382,3,3,3,2,-9.33,-2.93,0.53,-0.02,0.11,0.49
10.00171995162964,3,3,3,2,-9.380000000000001,-2.93,0.57,0.06,0.15,0.46
10.0117199420929,3,3,3,2,-9.4,-2.9,0.5600000000000001,0.01,0.13,0.49
10.02171993255615,3,3,3,2,-9.449999999999999,-2.84,0.62,0.09,0.11,0.49
10.03171992301941,3,3,3,2,-9.449999999999999,-2.67,0.68,0.1,0.09,0.48
10.04171991348267,3,3,3,2,-9.42,-2.65,0.61,0,0.11,0.55
10.0517201423645,3,3,3,2,-9.35,-2.63,0.57,-0.17,0.07000000000000001,0.59
10.06172013282776,3,3,3,2,-9.359999999999999,-2.59,0.42,-0.35,0.03,0.54
10.07172012329102,3,3,3,2,-9.380000000000001,-2.67,0.39,-0.5600000000000001,0.03,0.52
10.08172011375427,3,3,3,2,-9.359999999999999,-2.73,0.42,-0.73,0.04,0.49
10.09172010421753,3,3,3,2,-9.380000000000001,-2.81,0.48,-0.86,-0.01,0.47
10.10172009468079,3,3,3,2,-9.390000000000001,-2.86,0.5,-0.91,-0.02,0.42
10.11172008514404,3,3,3,2,-9.34,-2.82,0.39,-0.95,-0.07000000000000001,0.38
10.1217200756073,3,3,3,2,-9.359999999999999,-2.82,0.44,-0.98,-0.11,0.36
10.13172006607056,3,3,3,2,-9.359999999999999,-2.82,0.42,-0.98,-0.11,0.37
10.14172005653381,3,3,3,2,-9.359999999999999,-2.78,0.39,-0.92,-0.12,0.35
10.15172004699707,3,3,3,2,-9.35,-2.72,0.36,-0.8,-0.1,0.36
10.16172003746033,3,3,3,2,-9.390000000000001,-2.71,0.28,-0.78,-0.05,0.36
10.17172002792358,3,3,3,2,-9.43,-2.74,0.3,-0.75,-0.06,0.34
10.18271994590759,3,3,3,2,-9.449999999999999,-2.72,0.39,-0.66,-0.02,0.33
10.1917200088501,3,3,3,2,-9.470000000000001,-2.69,0.43,-0.59,-0.01,0.37
10.20171999931335,3,3,3,2,-9.449999999999999,-2.64,0.44,-0.46,0,0.37
10.21171998977661,3,3,3,2,-9.43,-2.59,0.37,-0.46,0,0.37
10.22171998023987,3,3,3,2,-9.44,-2.59,0.48,-0.29,0.01,0.45
10.23171997070312,3,3,3,2,-9.44,-2.59,0.51,-0.39,-0.02,0.42
10.24171996116638,3,3,3,2,-9.449999999999999,-2.56,0.52,-0.44,-0.03,0.4
10.25171995162964,3,3,3,2,-9.44,-2.58,0.47,-0.44,-0.03,0.4
10.2617199420929,3,3,3,2,-9.41,-2.65,0.3,-0.5,-0.05,0.42
10.27171993255615,3,3,3,2,-9.390000000000001,-2.67,0.28,-0.45,-0.03,0.39
10.28171992301941,3,3,3,2,-9.43,-2.68,0.27,-0.38,0.01,0.44
10.29171991348267,3,3,3,2,-9.48,-2.7,0.34,-0.28,-0.02,0.71
10.3017201423645,3,3,3,2,-9.5,-2.7,0.35,-0.28,-0.02,0.71
10.31172013282776,3,3,3,2,-9.460000000000001,-2.72,0.33,-0.21,0.03,0.6899999999999999
10.32172012329102,3,3,3,2,-9.449999999999999,-2.69,0.41,-0.15,0.06,0.61
10.33172011375427,3,3,3,2,-9.41,-2.6,0.44,-0.06,0.01,0.52
10.34172010421753,3,3,3,2,-9.35,-2.52,0.46,-0.21,-0.11,0.39
10.35172009468079,3,3,3,2,-9.359999999999999,-2.48,0.42,-0.21,-0.11,0.39
10.36172008514404,3,3,3,2,-9.380000000000001,-2.49,0.3,-0.29,-0.11,0.35
10.3717200756073,3,3,3,2,-9.42,-2.53,0.32,-0.35,-0.08,0.33
10.38172006607056,3,3,3,2,-9.539999999999999,-2.65,0.4,-0.38,-0.02,0.32
10.39172005653381,3,3,3,2,-9.51,-2.66,0.48,-0.35,0,0.31
10.40172004699707,3,3,3,2,-9.49,-2.62,0.47,-0.32,-0.04,0.28
10.41271996498108,3,3,3,2,-9.48,-2.61,0.35,-0.27,-0.09,0.28
10.42271995544434,3,3,3,2,-9.41,-2.56,0.44,-0.23,-0.13,0.27
10.43271994590759,3,3,3,2,-9.4,-2.5,0.47,-0.18,-0.09,0.26
10.44271993637085,3,3,3,2,-9.4,-2.52,0.48,-0.21,-0.13,0.28
10.45271992683411,3,3,3,2,-9.390000000000001,-2.52,0.46,-0.25,-0.07000000000000001,0.28
10.46271991729736,3,3,3,2,-9.460000000000001,-2.64,0.37,-0.29,-0.08,0.3
10.4727201461792,3,3,3,2,-9.449999999999999,-2.64,0.35,-0.26,-0.08,0.25
10.48272013664246,3,3,3,2,-9.449999999999999,-2.63,0.41,-0.18,-0.07000000000000001,0.21
10.49272012710571,3,3,3,2,-9.4,-2.59,0.42,-0.04,-0.04,0.24
10.50272011756897,3,3,3,2,-9.460000000000001,-2.72,0.46,0.03,-0.03,0.24
10.51272010803223,3,3,3,2,-9.49,-2.73,0.37,0.01,-0.03,0.23
10.52272009849548,3,3,3,2,-9.51,-2.69,0.4,0.1,-0.03,0.14
10.53272008895874,3,3,3,2,-9.470000000000001,-2.68,0.42,0.22,-0.01,0.14
10.542720079422,3,3,3,2,-9.359999999999999,-2.68,0.4,0.33,-0.04,0.09
10.55272006988525,3,3,3,2,-9.34,-2.69,0.39,0.42,0,0.04
10.56272006034851,3,3,3,2,-9.380000000000001,-2.65,0.34,0.47,0.01,0
10.57272005081177,3,3,3,2,-9.41,-2.63,0.34,0.45,-0.04,-0.06
10.58272004127502,3,3,3,2,-9.470000000000001,-2.63,0.45,0.46,-0.03,-0.1
10.59272003173828,3,3,3,2,-9.460000000000001,-2.57,0.49,0.45,-0.02,-0.16
10.60272002220154,3,3,3,2,-9.460000000000001,-2.52,0.5600000000000001,0.38,-0.06,-0.19
10.61272001266479,3,3,3,2,-9.460000000000001,-2.38,0.46,0.31,-0.05,-0.22
10.62272000312805,3,3,3,2,-9.43,-2.29,0.5,0.2,-0.07000000000000001,-0.18
10.63271999359131,3,3,3,2,-9.41,-2.24,0.53,0.05,-0.03,-0.13
10.64271998405457,3,3,3,2,-9.41,-2.23,0.54,-0.03,-0.06,-0.09
10.65271997451782,3,3,3,2,-9.51,-2.5,0.46,-0.11,-0.05,-0.05
10.66271996498108,3,3,3,2,-9.5,-2.56,0.38,-0.29,-0.06,-0.02
10.67271995544434,3,3,3,2,-9.5,-2.62,0.36,-0.29,-0.09,-0.03
10.68271994590759,3,3,3,2,-9.49,-2.73,0.41,-0.17,-0.05,-0.04
10.69271993637085,3,3,3,2,-9.42,-2.64,0.44,-0.05,-0.07000000000000001,-0.05
10.70271992683411,3,3,3,2,-9.42,-2.58,0.43,0.06,-0.07000000000000001,-0.07000000000000001
10.71271991729736,3,3,3,2,-9.390000000000001,-2.52,0.39,0.2,-0.04,-0.05
10.7227201461792,3,3,3,2,-9.41,-2.48,0.43,0.23,-0.02,-0.03
10.73272013664246,3,3,3,2,-9.449999999999999,-2.47,0.5,0.23,-0.01,0.01
10.74272012710571,3,3,3,2,-9.460000000000001,-2.5,0.51,0.23,-0.02,-0.01
10.75272011756897,3,3,3,2,-9.470000000000001,-2.51,0.51,0.21,-0.02,-0.01
10.76272010803223,3,3,3,2,-9.460000000000001,-2.57,0.42,0.22,-0.01,-0.01
10.77272009849548,3,3,3,2,-9.44,-2.57,0.46,0.23,-0.01,0.04
10.78272008895874,3,3,3,2,-9.43,-2.58,0.51,0.28,-0.01,0.05
10.792720079422,3,3,3,2,-9.42,-2.59,0.52,0.25,-0.01,0.1
10.80272006988525,3,3,3,2,-9.41,-2.59,0.52,0.2,0,0.05
10.81272006034851,3,3,3,2,-9.449999999999999,-2.63,0.42,0.15,-0.03,0.03
10.82272005081177,3,3,3,2,-9.42,-2.63,0.46,0.1,-0.04,0.02
10.83272004127502,3,3,3,2,-9.4,-2.67,0.47,0.09,-0.03,0.06
10.84272003173828,3,3,3,2,-9.41,-2.68,0.49,0.1,-0.01,0.02
10.85272002220154,3,3,3,2,-9.41,-2.66,0.41,0.13,0,0.02
10.86272001266479,3,3,3,2,-9.41,-2.65,0.36,0.14,0.01,0.03
10.87272000312805,3,3,3,2,-9.41,-2.62,0.42,0.19,0.01,0.01
10.88271999359131,3,3,3,2,-9.43,-2.61,0.49,0.22,0,0.02
10.89271998405457,3,3,3,2,-9.449999999999999,-2.55,0.54,0.17,-0.02,0
10.90271997451782,3,3,3,2,-9.449999999999999,-2.57,0.5,0.16,0.02,0
10.91271996498108,3,3,3,2,-9.449999999999999,-2.58,0.43,0.07000000000000001,-0.05,0.04
10.92271995544434,3,3,3,2,-9.44,-2.55,0.43,0.04,-0.04,0.03
10.93271994590759,3,3,3,2,-9.41,-2.58,0.49,0.02,-0.05,0.04
10.94271993637085,3,3,3,2,-9.44,-2.62,0.46,0,-0.04,0.04
10.95271992683411,3,3,3,2,-9.460000000000001,-2.68,0.5,-0.06,-0.04,0.04
10.96271991729736,3,3,3,2,-9.460000000000001,-2.65,0.42,-0.05,-0.02,0
10.9727201461792,3,3,3,2,-9.449999999999999,-2.66,0.43,0.02,-0.04,0
10.98272013664246,3,3,3,2,-9.42,-2.65,0.45,0.06,-0.04,0
10.99272012710571,3,3,3,2,-9.4,-2.59,0.49,0.1,-0.05,-0.02
11.00272011756897,3,3,3,2,-9.41,-2.54,0.46,0.15,-0.07000000000000001,-0.02
11.01272010803223,3,3,3,2,-9.449999999999999,-2.53,0.4,0.1,-0.07000000000000001,0.01
11.02272009849548,3,3,3,2,-9.449999999999999,-2.53,0.45,0.05,-0.07000000000000001,0.02
11.03272008895874,3,3,3,2,-9.449999999999999,-2.56,0.5,0.03,-0.05,0
11.042720079422,3,3,3,2,-9.380000000000001,-2.55,0.53,0.05,-0.05,0.04
11.05272006988525,3,3,3,2,-9.41,-2.61,0.45,0.03,-0.07000000000000001,0.04
11.06272006034851,3,3,3,2,-9.449999999999999,-2.64,0.4,-0.05,-0.07000000000000001,0.05
11.07272005081177,3,3,3,2,-9.460000000000001,-2.65,0.46,-0.03,-0.06,0.02
11.08272004127502,3,3,3,2,-9.44,-2.69,0.48,-0.05,-0.07000000000000001,0.01
11.09272003173828,3,3,3,2,-9.42,-2.69,0.48,-0.04,-0.09,0
11.10272002220154,3,3,3,2,-9.41,-2.7,0.47,0.03,-0.05,-0.04
11.11272001266479,3,3,3,2,-9.42,-2.65,0.37,0.04,-0.12,-0.04
11.12272000312805,3,3,3,2,-9.4,-2.63,0.45,0.05,-0.12,0.01
11.13271999359131,3,3,3,2,-9.42,-2.62,0.47,0.02,-0.12,-0.03
11.14271998405457,3,3,3,2,-9.43,-2.64,0.51,0.04,-0.1,-0.04
11.15271997451782,3,3,3,2,-9.380000000000001,-2.61,0.52,0.07000000000000001,-0.11,-0.05
11.16271996498108,3,3,3,2,-9.43,-2.55,0.43,0.06,-0.07000000000000001,-0.05
11.17271995544434,3,3,3,2,-9.42,-2.52,0.48,0.04,-0.07000000000000001,-0.05
11.18271994590759,3,3,3,2,-9.449999999999999,-2.52,0.54,0.04,-0.09,-0.06
11.19271993637085,3,3,3,2,-9.43,-2.53,0.52,0,-0.12,-0.02
11.20271992683411,3,3,3,2,-9.470000000000001,-2.61,0.49,-0.1,-0.11,-0.04
11.21271991729736,3,3,3,2,-9.449999999999999,-2.62,0.4,-0.13,-0.12,-0.05
11.2227201461792,3,3,3,2,-9.449999999999999,-2.64,0.45,-0.19,-0.15,-0.05
11.23272013664246,3,3,3,2,-9.42,-2.65,0.51,-0.19,-0.13,-0.03
11.24272012710571,3,3,3,2,-9.380000000000001,-2.59,0.51,-0.15,-0.08,-0.05
11.25272011756897,3,3,3,2,-9.390000000000001,-2.56,0.54,-0.09,-0.11,-0.05
11.26272010803223,3,3,3,2,-9.4,-2.53,0.42,-0.03,-0.07000000000000001,-0.05
11.27272009849548,3,3,3,2,-9.43,-2.58,0.43,-0.01,-0.07000000000000001,-0.03
11.28272008895874,3,3,3,2,-9.449999999999999,-2.59,0.55,0.02,-0.05,-0.07000000000000001
11.292720079422,3,3,3,2,-9.42,-2.6,0.5600000000000001,0.03,-0.07000000000000001,-0.04
11.30272006988525,3,3,3,2,-9.42,-2.6,0.5600000000000001,0.03,-0.12,-0.07000000000000001
11.31272006034851,3,3,3,2,-9.43,-2.66,0.47,0.06,-0.1,-0.06
11.32272005081177,3,3,3,2,-9.41,-2.6,0.5,0.04,-0.09,-0.04
11.33272004127502,3,3,3,2,-9.42,-2.63,0.52,0.04,-0.11,-0.04
11.34272003173828,3,3,3,2,-9.43,-2.58,0.5600000000000001,-0.03,-0.13,-0.01
11.35272002220154,3,3,3,2,-9.390000000000001,-2.6,0.5600000000000001,-0.02,-0.11,-0.01
11.36272001266479,3,3,3,2,-9.4,-2.64,0.45,-0.04,-0.09,-0.06
11.37272000312805,3,3,3,2,-9.390000000000001,-2.64,0.5,-0.09,-0.07000000000000001,-0.04
11.38271999359131,3,3,3,2,-9.44,-2.64,0.54,-0.07000000000000001,-0.07000000000000001,-0.04
11.39271998405457,3,3,3,2,-9.43,-2.63,0.61,-0.07000000000000001,-0.07000000000000001,-0.05
11.40271997451782,3,3,3,2,-9.41,-2.61,0.54,-0.04,-0.09,-0.04
11.41271996498108,3,3,3,2,-9.4,-2.6,0.49,-0.04,-0.08,-0.03
11.42271995544434,3,3,3,2,-9.380000000000001,-2.57,0.49,0,-0.03,0.02
11.43372011184692,3,3,3,2,-9.4,-2.49,0.55,-0.04,-0.02,0.08
11.44372010231018,3,3,3,2,-9.43,-2.54,0.55,-0.02,0.01,0.21
11.45372009277344,3,3,3,2,-9.48,-2.56,0.5,-0.05,0.09,0.36
11.46372008323669,3,3,3,2,-9.51,-2.64,0.41,-0.09,0.11,0.72
11.47372007369995,3,3,3,2,-9.75,-2.61,0.53,-0.06,0.3,1.19
11.48372006416321,3,3,3,2,-9.85,-2.57,0.53,-0.11,0.57,1.82
11.49372005462646,3,3,3,2,-9.779999999999999,-2.42,0.72,-0.22,0.54,2.32
11.50372004508972,3,3,3,2,-9.6,-2.27,0.72,-0.32,0.59,2.52
11.51372003555298,3,3,3,2,-9.300000000000001,-1.68,0.42,-0.45,0.6899999999999999,2.56
11.52372002601624,3,3,3,2,-9.32,-1.63,0.54,-1.31,0.9399999999999999,2.75
11.53372001647949,3,3,3,2,-9.300000000000001,-1.25,0.47,-1.94,1.15,3.03
11.54372000694275,3,3,3,2,-9.300000000000001,-0.68,0.23,-2.51,1.46,3.25
11.55371999740601,3,3,3,2,-9.449999999999999,-1.74,0.64,-4.11,2.22,3.68
11.56371998786926,3,3,3,2,-9.24,-2,0.47,-4.14,2.4,3.76
11.57371997833252,3,3,3,2,-9.380000000000001,-2.04,0.39,-2.83,2.02,3.24
11.58371996879578,3,3,3,2,-9.390000000000001,-2.19,0.61,-1.99,1.53,3.08
11.59371995925903,3,3,3,2,-9.220000000000001,-2.79,0.47,-0.97,1.03,3.03
11.60371994972229,3,3,3,2,-9.529999999999999,-3.25,0.47,-0.23,0.86,2.58
11.61371994018555,3,3,3,2,-9.68,-3.33,0.51,0.07000000000000001,0.85,2.22
11.6237199306488,3,3,3,2,-9.65,-2.96,0.36,0.99,0.83,1.91
11.63371992111206,3,3,3,2,-9.789999999999999,-2.74,0.5,1.48,0.85,1.55
11.6437201499939,3,3,3,2,-9.630000000000001,-2.51,0.47,1.64,0.8,1.18
11.65372014045715,3,3,3,2,-9.5,-2.11,0.57,1.82,0.79,0.89
11.66372013092041,3,3,3,2,-9.359999999999999,-1.81,0.67,1.68,0.82,0.76
11.67372012138367,3,3,3,2,-9.25,-1.76,0.83,1.17,0.91,0.73
11.68372011184692,3,3,3,2,-9.279999999999999,-1.78,0.93,0.52,0.97,0.85
11.69372010231018,3,3,3,2,-9.33,-1.59,0.82,0.39,1.02,0.97
11.70372009277344,3,3,3,2,-9.44,-1.52,0.73,0.3,0.93,1.08
11.71372008323669,3,3,3,2,-9.56,-1.51,0.46,0.25,0.82,1.13
11.72372007369995,3,3,3,2,-9.539999999999999,-1.7,0.52,-0.02,0.8100000000000001,1.15
11.73372006416321,3,3,3,2,-9.529999999999999,-1.73,0.59,-0.3,0.85,1.2
11.74372005462646,3,3,3,2,-9.52,-1.77,0.65,-0.51,0.96,1.13
11.75372004508972,3,3,3,2,-9.49,-1.87,0.71,-0.77,1.05,1.01
11.76372003555298,3,3,3,2,-9.52,-2.03,0.7,-1.07,1.13,0.92
11.77372002601624,3,3,3,2,-9.57,-2.26,0.66,-1.43,1.26,0.75
11.78372001647949,3,3,3,2,-9.58,-2.49,0.68,-1.75,1.32,0.57
11.79372000694275,3,3,3,2,-9.59,-2.78,0.53,-1.74,1.38,0.38
11.80371999740601,3,3,3,2,-9.609999999999999,-2.85,0.46,-1.59,1.33,0.19
11.81371998786926,3,3,3,2,-9.59,-2.88,0.4,-1.42,1.24,-0.07000000000000001
11.82371997833252,3,3,3,2,-9.49,-2.73,0.31,-1.08,1.23,-0.21
11.83371996879578,3,3,3,2,-9.470000000000001,-2.76,0.22,-1.07,1.21,-0.34
11.84371995925903,3,3,3,2,-9.5,-2.69,0.26,-1.28,1.2,-0.52
11.85371994972229,3,3,3,2,-9.539999999999999,-2.54,0.38,-1.42,1.23,-0.66
11.86371994018555,3,3,3,2,-9.57,-2.47,0.52,-1.55,1.16,-0.85
11.8737199306488,3,3,3,2,-9.6,-2.46,0.59,-2.15,1.04,-1.05
11.88371992111206,3,3,3,2,-9.550000000000001,-2.36,0.53,-2.74,0.89,-1.29
11.8937201499939,3,3,3,2,-9.539999999999999,-2.33,0.55,-3.47,0.84,-1.42
11.90372014045715,3,3,3,2,-9.44,-2.62,0.32,-4.3,0.82,-1.52
11.91372013092041,3,3,3,2,-9.369999999999999,-2.66,0.15,-4.94,0.77,-1.61
11.92372012138367,3,3,3,2,-9.380000000000001,-2.9,0.2,-5.29,0.9,-1.7
11.93372011184692,3,3,3,2,-9.33,-3.28,0.12,-5.52,0.93,-1.84
11.94372010231018,3,3,3,2,-9.289999999999999,-3.22,-0.08,-5.22,0.9,-2.02
11.95372009277344,3,3,3,2,-9.32,-3.29,-0.03,-4.53,1.01,-2.19
11.96372008323669,3,3,3,2,-9.300000000000001,-3.36,-0.26,-3.68,1.03,-2.36
11.97372007369995,3,3,3,2,-9.32,-3.16,-0.43,-2.79,0.97,-2.61
11.98372006416321,3,3,3,2,-9.35,-2.65,-0.33,-1.96,0.9,-2.74
11.99372005462646,3,3,3,2,-9.32,-2.43,-0.35,-1.37,0.85,-2.84
12.00372004508972,3,3,3,2,-9.300000000000001,-2.34,-0.36,-0.97,0.87,-2.89
12.01372003555298,3,3,3,2,-9.43,-2.11,-0.28,-0.46,0.9399999999999999,-2.93
12.02372002601624,3,3,3,2,-9.44,-1.8,0.21,-0.01,0.92,-3
12.03372001647949,3,3,3,2,-9.41,-1.73,0.09,0.31,0.82,-2.9
12.04372000694275,3,3,3,2,-9.449999999999999,-1.8,-0.05,0.48,0.83,-2.8
12.05371999740601,3,3,3,2,-9.380000000000001,-1.69,-0.13,0.5600000000000001,0.76,-2.81
12.06371998786926,3,3,3,2,-9.42,-1.76,-0.6,0.48,0.64,-2.84
12.07371997833252,3,3,3,2,-9.59,-2.06,-0.62,0.04,0.55,-2.93
12.08371996879578,3,3,3,2,-9.6,-2.49,-0.76,-0.5,0.49,-3.17
12.09371995925903,3,3,3,2,-9.6,-2.74,-1.08,-0.83,0.57,-3.54
12.10371994972229,3,3,3,2,-9.75,-2.96,-1.6,-0.8100000000000001,0.68,-3.87
12.11371994018555,3,3,3,2,-9.69,-2.99,-1.95,-0.77,0.78,-4.25
12.1237199306488,3,3,3,2,-9.609999999999999,-2.66,-2.05,-0.51,0.87,-4.55
12.13371992111206,3,3,3,2,-9.640000000000001,-2.3,-2,-0.05,1.01,-4.59
12.1437201499939,3,3,3,2,-9.779999999999999,-1.97,-1.46,0.4,1.25,-4.42
12.15372014045715,3,3,3,2,-9.789999999999999,-1.91,-1.36,1.09,1.4,-4.19
12.16372013092041,3,3,3,2,-9.84,-1.95,-1.07,1.61,1.5,-3.85
12.17372012138367,3,3,3,2,-9.81,-1.86,-0.91,2.12,1.46,-3.41
12.18372011184692,3,3,3,2,-9.77,-1.82,-0.49,2.46,1.45,-3.1
12.19372010231018,3,3,3,2,-9.85,-2.09,-0.42,2.62,1.52,-2.84
12.20372009277344,3,3,3,2,-9.75,-2.04,-0.5600000000000001,2.99,1.55,-2.63
12.21372008323669,3,3,3,2,-9.550000000000001,-2.18,-0.53,3.29,1.52,-2.53
12.22372007369995,3,3,3,2,-9.380000000000001,-2.26,-0.57,3.47,1.5,-2.41
12.23372006416321,3,3,3,2,-9.31,-2.41,-0.64,3.72,1.51,-2.3
12.24372005462646,3,3,3,2,-9.25,-2.58,-0.7,3.84,1.53,-2.29
12.25372004508972,3,3,3,2,-9.26,-2.92,-0.83,3.83,1.45,-2.37
12.26372003555298,3,3,3,2,-9.33,-3.07,-0.88,3.86,1.41,-2.47
12.27372002601624,3,3,3,2,-9.24,-3.13,-0.86,3.98,1.43,-2.63
12.28372001647949,3,3,3,2,-9.199999999999999,-3.06,-0.9399999999999999,4.13,1.41,-2.68
12.29372000694275,3,3,3,2,-9.140000000000001,-2.72,-0.93,4.26,1.4,-2.69
12.30371999740601,3,3,3,2,-9.07,-2.59,-0.9399999999999999,4.26,1.33,-2.66
12.31371998786926,3,3,3,2,-9.09,-2.68,-0.9399999999999999,4.09,1.37,-2.56
12.32371997833252,3,3,3,2,-9.130000000000001,-2.76,-0.77,3.76,1.34,-2.53
12.33371996879578,3,3,3,2,-9.210000000000001,-3.06,-0.53,3.38,1.22,-2.59
12.34371995925903,3,3,3,2,-9.380000000000001,-3.16,-0.45,2.93,1.12,-2.73
12.35371994972229,3,3,3,2,-9.43,-3.04,-0.34,2.56,0.99,-2.94
12.36371994018555,3,3,3,2,-9.42,-2.94,-0.38,2.4,0.9399999999999999,-3.08
12.3737199306488,3,3,3,2,-9.449999999999999,-2.76,-0.33,2.4,0.97,-3.13
12.38371992111206,3,3,3,2,-9.390000000000001,-2.67,-0.33,2.57,1.04,-3.12
12.3937201499939,3,3,3,2,-9.35,-2.66,-0.29,2.79,1.08,-3.11
12.40372014045715,3,3,3,2,-9.369999999999999,-2.58,-0.44,3.01,1.05,-3.12
12.41372013092041,3,3,3,2,-9.550000000000001,-2.61,-0.58,3.17,1.07,-3.27
12.42372012138367,3,3,3,2,-9.619999999999999,-2.64,-0.57,3.44,1.08,-3.46
12.43372011184692,3,3,3,2,-9.56,-2.67,-0.37,3.97,1.08,-3.62
12.45372009277344,3,3,3,2,-9.43,-2.51,-0.74,4.79,1.22,-3.68
12.46472001075745,3,3,3,2,-9.41,-2.68,-0.44,5.54,1.24,-3.72
12.4747200012207,3,3,3,2,-9.5,-2.98,-0.35,5.67,1.04,-4.01
12.48471999168396,3,3,3,2,-9.35,-2.86,-0.24,5.64,0.92,-4.27
12.49471998214722,3,3,3,2,-9.49,-2.86,-0.28,5.51,0.76,-4.3
12.50471997261047,3,3,3,2,-9.56,-2.87,-0.43,5.4,0.7,-4.48
12.51471996307373,3,3,3,2,-9.619999999999999,-2.88,-0.45,5.39,0.61,-4.64
12.52471995353699,3,3,3,2,-9.57,-2.84,-0.41,5.35,0.46,-4.77
12.53471994400024,3,3,3,2,-9.470000000000001,-2.99,-0.45,5.14,0.34,-4.85
12.5447199344635,3,3,3,2,-9.550000000000001,-2.96,-0.44,5.12,0.2,-4.94
12.55471992492676,3,3,3,2,-9.539999999999999,-2.92,-0.45,4.89,0.06,-5.09
12.56471991539001,3,3,3,2,-9.539999999999999,-2.89,-0.48,4.72,-0.01,-5.17
12.57472014427185,3,3,3,2,-9.800000000000001,-2.73,-0.36,4.75,-0.08,-5.2
12.58472013473511,3,3,3,2,-10.05,-2.7,-0.25,4.99,-0.13,-5.25
12.59472012519836,3,3,3,2,-10.18,-2.66,-0.32,5.15,-0.21,-5.26
12.60472011566162,3,3,3,2,-10.29,-2.71,-0.58,5.33,-0.29,-5.25
12.61472010612488,3,3,3,2,-10.53,-2.57,-0.8100000000000001,5.54,-0.47,-5.31
12.62472009658813,3,3,3,2,-10.82,-2.32,-0.77,5.32,-0.76,-5.37
12.63472008705139,3,3,3,2,-11.07,-2.09,-0.51,4.88,-1.03,-5.42
12.64472007751465,3,3,3,2,-11.35,-1.62,-0.18,4.73,-1.21,-5.43
12.66472005844116,3,3,3,2,-11.24,-0.59,-0.48,4.82,-1.56,-5.02
12.67472004890442,3,3,3,2,-11.28,-0.18,-0.22,4.78,-1.69,-4.67
12.68472003936768,3,3,3,2,-11.51,0.11,0.75,4.79,-1.82,-4.2
12.69472002983093,3,3,3,2,-11.69,0.15,1.1,4.72,-1.92,-3.54
12.70472002029419,3,3,3,2,-11.81,0.21,1.25,4.6,-1.86,-2.57
12.71472001075745,3,3,3,2,-11.8,0.43,1.25,5.11,-1.72,-1.41
12.7247200012207,3,3,3,2,-11.67,1.07,1.26,6.27,-1.49,-0.03
12.73471999168396,3,3,3,2,-11.51,1.6,0.93,7.77,-1.13,1.47
12.74471998214722,3,3,3,1,-11.33,2.49,0.5,9.42,-0.59,3.17
12.75471997261047,3,3,3,1,-11.39,3.13,0.49,10.4,0.25,5.12
12.76471996307373,3,3,3,1,-11.61,1.28,1.73,8.380000000000001,0.64,6.95
12.77471995353699,3,3,3,1,-10.93,0.04,2.24,4.74,-0.25,8.140000000000001
12.78471994400024,3,3,3,1,-9.76,0.37,1.27,4.59,-2.59,8.220000000000001
12.7947199344635,3,3,3,1,-8.949999999999999,0.61,0.41,4.57,-3.68,8.4
12.80471992492676,3,3,3,1,-9.380000000000001,1.12,0.36,4.98,-3.38,9.390000000000001
12.81471991539001,3,3,3,1,-9.789999999999999,0.99,-0.14,4.94,-3.36,10.56
12.82472014427185,3,3,3,1,-10.56,0.23,-0.25,4.3,-3.23,11.53
12.83472013473511,3,3,3,1,-11.07,-0.5600000000000001,-0.33,4.2,-3.28,12.17
12.84472012519836,3,3,3,1,-11.11,-1.92,-0.45,4.69,-3.24,12.6
12.85472011566162,3,3,3,1,-11.1,-2.59,-0.22,5.06,-2.52,12.89
12.86472010612488,3,3,3,1,-11.03,-3.01,-0.26,4.53,-1.24,13.06
12.87472009658813,3,3,3,1,-10.97,-3.21,-0.23,2.8,0.48,13.06
12.88472008705139,3,3,3,1,-10.64,-4.08,-0.41,0.58,1.98,13.3
12.89472007751465,3,3,3,0,-10.68,-4.48,-0.42,-0.91,2.98,13.69
12.90472006797791,3,3,3,0,-10.91,-4.48,-0.49,-1.28,3.68,14.14
12.91472005844116,3,3,3,0,-11.14,-4.94,-0.53,-1.15,4.25,14.74
12.92472004890442,3,3,3,0,-11.23,-5.84,-0.14,-1.63,4.22,15.07
12.93472003936768,3,3,3,0,-10.87,-5.69,-0.67,-1.66,4.08,15.24
12.94472002983093,3,3,3,0,-10.8,-5.25,-0.8,-1.02,4.44,15.71
12.95472002029419,3,3,3,0,-10.8,-4.75,-0.58,-1.41,4.71,16.34
12.96472001075745,3,3,3,0,-10.65,-4.63,-0.51,-3.48,4.65,17.33
12.9747200012207,3,3,3,0,-10.47,-4.31,-0.53,-5.92,4.68,18.47
12.98471999168396,3,3,3,0,-10.49,-4.12,-0.68,-8.220000000000001,4.71,19.25
12.99471998214722,3,3,3,0,-10.47,-4.11,-0.86,-9.960000000000001,4.78,19.9
13.00471997261047,3,3,3,0,-10.3,-3.74,-0.8100000000000001,-10.82,4.7,20.52
13.01471996307373,3,3,3,0,-10.22,-3.77,-0.79,-11.76,4.51,20.73
13.02471995353699,3,3,3,0,-10.17,-3.84,-0.67,-12.77,4.23,20.84
13.03471994400024,3,3,3,0,-9.93,-3.94,-0.41,-13.87,3.74,21.07
13.0447199344635,3,3,3,0,-9.890000000000001,-4.15,-0.43,-14.74,3.09,21.25
13.05471992492676,3,3,3,0,-9.82,-4.37,-0.38,-15.64,2.71,21.15
13.06471991539001,3,3,3,0,-9.800000000000001,-4.42,-0.49,-15.71,2.49,21.04
13.07472014427185,3,3,3,0,-9.32,-4.3,-0.35,-15.42,1.61,21.04
13.08472013473511,3,3,3,0,-9.4,-4.4,0.12,-14.19,1.87,21.07
13.09472012519836,3,3,3,0,-9.109999999999999,-4.06,0.31,-13.31,1.57,21
13.10472011566162,3,3,3,0,-8.73,-3.81,0.42,-12.61,0.96,20.58
13.11472010612488,3,3,3,0,-8.390000000000001,-4.05,0.46,-12.35,0.47,19.86
13.12472009658813,3,3,3,0,-8.15,-4.11,0.34,-12.01,-0.06,18.77
13.13472008705139,3,3,3,0,-8.08,-4.16,0.41,-11.5,-0.35,17.62
13.14472007751465,3,3,3,0,-7.94,-4.17,0.41,-10.85,-0.6,16.47
13.15472006797791,3,3,3,0,-7.56,-3.74,0.41,-9.92,-0.76,15.25
13.16472005844116,3,3,3,0,-7.51,-3.53,0.41,-8.859999999999999,-0.6899999999999999,14.15
13.17472004890442,3,3,3,0,-7.53,-3.23,0.55,-7.8,-0.53,13.11
13.18472003936768,3,3,3,0,-7.61,-2.58,0.8,-6.95,-0.4,12
13.19472002983093,3,3,3,0,-7.68,-1.59,1.17,-6.6,-0.57,11.03
13.20472002029419,3,3,3,0,-7.43,-1.62,1.03,-6.95,-0.97,10.13
13.21472001075745,3,3,3,0,-7.13,-1.82,0.66,-7.17,-1.17,9.380000000000001
13.2247200012207,3,3,3,0,-6.99,-1.96,0.4,-6.39,-0.84,8.630000000000001
13.23471999168396,3,3,3,0,-7.16,-1.89,0.26,-4.91,-0.38,7.81
13.24471998214722,3,3,3,0,-7.55,-1.19,0.35,-3.26,0.24,6.64
13.25471997261047,3,3,3,0,-7.64,-0.82,0.32,-2.63,1.12,4.8
13.26471996307373,3,3,3,0,-7.33,-0.67,0.07000000000000001,-2.35,1.68,2.89
13.27471995353699,3,3,3,0,-7.28,-0.63,0.04,-2.14,1.83,1.62
13.28471994400024,3,3,3,0,-7.36,-0.68,0.22,-2.44,1.37,0.54
13.2947199344635,3,3,3,0,-7.52,-0.7,0.1,-2.61,1.1,-0.5600000000000001
13.30471992492676,3,3,3,0,-7.98,0.38,0.25,-1.92,1.18,-1.58
13.31471991539001,3,3,3,0,-9.279999999999999,2.8,-0.1,-1.92,0.44,-1.86
13.32472014427185,3,3,3,0,-9.57,4.47,-0.25,-1.83,-0.42,-1.84
13.33472013473511,3,3,3,0,-10.04,6.19,0.28,-2.95,-0.87,-1.34
13.34472012519836,3,3,3,0,-10.52,7.13,1.17,-5.69,-2,-0.13
13.35472011566162,3,3,3,0,-10.75,10.6,3.41,-7.69,-2.97,0.96
13.36472010612488,3,3,3,0,-10.74,11.97,3.64,-9.5,-3.09,2.32
13.37472009658813,3,3,3,0,-10.81,12.53,3.07,-13.58,0.54,3.63
13.38472008705139,3,3,3,0,-10.88,11.35,0.34,-13.58,0.54,3.63
13.39472007751465,3,3,3,0,-10.68,9.390000000000001,0.14,-14.01,1.31,3.34
13.40472006797791,3,3,3,0,-10.28,7.02,0.51,-10.81,1.56,2.77
13.41472005844116,3,3,3,0,-9.98,4.28,0.71,-8.94,2.27,2.82
13.42472004890442,3,3,3,0,-9.81,-0.12,1.27,-6.26,3.09,2.52
13.43472003936768,3,3,3,0,-9.619999999999999,-0.79,1.41,-6.26,3.09,2.52
13.44472002983093,3,3,3,0,-9.859999999999999,-2.14,1.17,-4.39,4.01,1.26
13.45472002029419,3,3,3,0,-10.57,-1.85,0.27,-3.06,2.82,-1.98
13.46472001075745,3,3,3,0,-13.55,5.96,4.45,-5.68,-1.61,-1.63
13.4747200012207,3,3,3,0,-13.5,8.140000000000001,7.66,-8.119999999999999,-7.16,-2.01
13.48571991920471,3,3,3,0,-11.14,9.65,7.31,-8.119999999999999,-7.16,-2.01
13.49572014808655,3,3,3,0,-10.82,10.31,4.93,-12.34,-5.55,-3.45
13.5057201385498,3,3,3,0,-12,5.12,2.18,-16.76,1.36,-3.82
13.51572012901306,3,3,3,0,-11.43,0.29,1.53,-16.18,2.98,-4.62
13.52572011947632,3,3,3,0,-10.79,-4.44,-0.03,-13.64,5.25,-5.09
13.53572010993958,3,3,3,0,-10.09,-7.03,-3.34,-13.64,5.25,-5.09
13.54572010040283,3,3,3,0,-8.77,-7.77,-6.6,-10.58,7.07,-5.74
13.55572009086609,3,3,3,0,-8.119999999999999,-5.58,-6.48,-3.49,6.61,-10.72
13.56572008132935,3,3,3,0,-8.869999999999999,-2.25,-3.58,-0.78,6.44,-13.2
13.5757200717926,3,3,3,0,-10.37,-2,0.27,-2.28,6.3,-14.1
13.58572006225586,3,3,3,0,-10.23,-6.43,-1.65,-2.28,6.3,-14.1
13.59572005271912,3,3,3,0,-9.99,-6.4,-1.91,-2.07,5.66,-14.29
13.60572004318237,3,3,3,0,-9.83,-5.44,-0.68,4.29,4.69,-13.98
13.61572003364563,3,3,3,0,-9.970000000000001,-4.43,-0.2,3.93,4.79,-13.35
13.62572002410889,3,3,3,0,-10.17,-1.07,1.02,1.3,4.76,-12.8
13.63572001457214,3,3,3,0,-10.09,-0.14,1.57,1.3,4.76,-12.8
13.6457200050354,3,3,3,0,-9.94,-0.51,1.62,-1.8,4.92,-12.51
13.65571999549866,3,3,3,0,-9.67,-0.26,1.14,-5.28,4.79,-12.74
13.66571998596191,3,3,3,0,-9.449999999999999,-1.51,-0.61,-5.26,4.48,-12.91
13.67571997642517,3,3,3,0,-9.51,-1.54,-1.25,-4.8,4.11,-12.92
13.68571996688843,3,3,3,0,-9.449999999999999,-1.37,-1.73,-4.8,4.11,-12.92
13.69571995735168,3,3,3,0,-9.470000000000001,-1.61,-1.96,-4.64,4.12,-12.9
13.70571994781494,3,3,3,0,-9.57,-2.15,-1.93,-2.84,4.83,-12.97
13.7157199382782,3,3,3,0,-9.57,-2.61,-1.77,-0.39,5.15,-13.14
13.72571992874146,3,3,3,0,-9.75,-2.74,-1.27,2.43,5,-13.37
13.73571991920471,3,3,3,0,-9.76,-2.51,-0.96,2.43,5,-13.37
13.74572014808655,3,3,3,0,-9.84,-2.25,-0.42,4.61,4.6,-13.58
13.7557201385498,3,3,3,0,-9.77,-1.87,-0.4,7.82,3.44,-13.72
13.76572012901306,3,3,3,0,-9.779999999999999,-1.23,-0.66,8.460000000000001,3.08,-13.71
13.77572011947632,3,3,3,0,-9.67,-0.75,-1.07,8.630000000000001,2.87,-13.72
13.78572010993958,3,3,3,0,-9.56,-0.66,-1.25,8.630000000000001,2.87,-13.72
13.79572010040283,3,3,3,0,-9.449999999999999,-0.31,-1.44,8.65,2.86,-13.67
13.80572009086609,3,3,3,0,-9.51,0.2,-1.52,8.99,2.87,-13.74
13.81572008132935,3,3,3,0,-9.75,1.01,-1.71,8.84,2.97,-13.82
13.8257200717926,3,3,3,0,-9.869999999999999,1.26,-1.33,9.01,3.21,-13.71
13.83572006225586,3,3,3,0,-9.859999999999999,1.47,-0.93,9.01,3.21,-13.71
13.84572005271912,3,3,3,0,-9.800000000000001,1.44,-0.8100000000000001,9.5,3.64,-13.22
13.85572004318237,3,3,3,0,-10.01,0.73,-0.89,9.01,4.13,-10.98
13.86572003364563,3,3,3,0,-10.07,0.25,-0.98,7.86,3.97,-9.59
13.87572002410889,3,3,3,0,-10.13,-0.36,-0.9399999999999999,6.37,3.75,-8.550000000000001
13.88572001457214,3,3,3,0,-10.1,-0.93,-0.87,6.37,3.75,-8.550000000000001
13.8957200050354,3,3,3,0,-9.859999999999999,-1.94,-0.72,4.95,3.5,-8.01
13.90571999549866,3,3,3,0,-9.67,-2.15,-0.71,4.18,3.26,-7.88
13.91571998596191,3,3,3,0,-9.56,-2.03,-0.66,4.3,3.33,-7.91
13.92571997642517,3,3,3,0,-9.460000000000001,-2.06,-0.57,4.81,3.32,-7.95
13.93571996688843,3,3,3,0,-9.460000000000001,-1.75,-0.53,4.81,3.32,-7.95
13.94571995735168,3,3,3,0,-9.44,-1.74,-0.46,5.23,3.26,-7.99
13.95571994781494,3,3,3,0,-9.43,-1.78,-0.55,5.87,3.29,-7.8
13.9657199382782,3,3,3,0,-9.470000000000001,-1.75,-0.66,6.06,3.18,-7.62
13.97571992874146,3,3,3,0,-9.449999999999999,-1.65,-0.57,6.04,3.11,-7.47
13.98571991920471,3,3,3,0,-9.43,-1.89,-0.96,6.04,3.11,-7.47
13.99572014808655,3,3,3,0,-9.25,-2.08,-1.65,5.57,3.2,-7.42
14.0057201385498,3,3,3,0,-9.34,-2.1,-0.97,6.14,3.2,-7.74
14.01572012901306,3,3,3,0,-9.67,-2.69,-0.61,6.2,3.12,-7.88
14.02572011947632,3,3,3,0,-9.82,-2.68,-0.4,6.48,3.05,-7.95
14.03572010993958,3,3,3,0,-9.800000000000001,-2.6,-0.4,6.48,3.05,-7.95
14.04572010040283,3,3,3,0,-9.82,-2.58,-0.43,6.85,3.04,-7.91
14.05572009086609,3,3,3,0,-9.449999999999999,-2.26,-0.35,8.07,3,-8
14.06572008132935,3,3,3,0,-9.24,-2.18,-0.38,8.35,2.91,-8.220000000000001
14.0757200717926,3,3,3,0,-9.23,-1.99,-0.49,8.42,2.74,-8.460000000000001
14.08572006225586,3,3,3,0,-9.359999999999999,-1.66,-0.49,8.42,2.74,-8.460000000000001
14.09572005271912,3,3,3,0,-9.69,-1.37,-0.36,8.18,2.55,-8.539999999999999
14.10572004318237,3,3,3,0,-9.77,-1.32,-0.31,7.12,2.09,-8.390000000000001
14.11572003364563,3,3,3,0,-9.81,-1.28,-0.39,6.41,1.86,-8.18
14.12572002410889,3,3,3,0,-9.83,-1.36,-0.61,6.07,1.8,-7.87
14.13572001457214,3,3,3,0,-9.960000000000001,-1.76,-0.99,6.07,1.8,-7.87
14.1457200050354,3,3,3,0,-10.13,-2.15,-0.98,6.19,1.97,-7.61
14.15571999549866,3,3,3,0,-10.48,-2.46,-0.85,8.19,2.28,-7.26
14.16571998596191,3,3,3,0,-10.82,-2.48,-0.88,9.26,2.22,-7.08
14.17571997642517,3,3,3,0,-11.37,-2.24,-0.96,10.1,1.95,-7.05
14.18571996688843,3,3,3,0,-11.64,-1.84,-1.16,10.1,1.95,-7.05
14.19571995735168,3,3,3,0,-12.09,-1.14,-0.99,10.95,1.68,-7.27
14.20571994781494,3,3,3,0,-13.07,0.75,0.1,12.44,0.87,-6.75
14.2157199382782,3,3,3,0,-13.29,1.72,0.44,12.95,0.33,-5.8
14.22571992874146,3,3,3,0,-13.24,2.69,0.93,13.62,0.01,-4.43
14.23571991920471,3,3,3,0,-13.07,3.51,1.25,13.62,0.01,-4.43
14.24572014808655,3,3,3,0,-13.24,5.18,1.64,14.46,-0.05,-2.66
14.2557201385498,3,3,3,0,-13.46,6.39,1.73,15.45,-0.08,3.22
14.26572012901306,3,3,3,0,-13.54,6.35,2.41,12.34,-0.93,6.48
14.27572011947632,3,3,3,0,-13.15,5.09,2.62,10.39,-2.26,9.42
14.28572010993958,3,3,3,0,-11.34,3.34,2.82,10.39,-2.26,9.42
14.29572010040283,3,3,3,0,-10.42,3.85,1.42,10.92,-4.33,11.39
14.30572009086609,3,3,3,0,-10.17,4.07,0.97,9.99,-6.76,14.42
14.31572008132935,3,3,3,0,-10.72,3.94,0.33,7.67,-6.95,15.5
14.3257200717926,3,3,3,0,-12.11,0.11,-0.6899999999999999,5.48,-6.11,15.96
14.33572006225586,3,3,3,0,-12.67,-1.77,-1.43,5.48,-6.11,15.96
14.34572005271912,3,3,3,0,-13.29,-2.54,-1.56,4.86,-3.73,15.92
14.35572004318237,3,3,3,0,-14.11,-3.35,-1.4,4.53,-0.34,16.23
14.36572003364563,3,3,3,0,-14.66,-5.43,-0.7,5.34,0.6,17.06
14.37572002410889,3,3,3,0,-13.87,-5.81,-0.51,6.11,1.84,17.96
14.38572001457214,3,3,3,0,-12.93,-5.42,-0.49,6.11,1.84,17.96
14.3957200050354,3,3,3,0,-12.3,-4.94,-0.37,5.37,3.41,18.85
14.40571999549866,3,3,3,0,-11.9,-6.37,1.01,1.01,4.04,19.92
14.41571998596191,3,3,3,0,-11.6,-7,0.67,1.57,4.72,20.04
14.42571997642517,3,3,3,0,-11.72,-6.35,0.06,2.36,5.39,20.04
14.43571996688843,3,3,3,0,-11.72,-6.35,0.06,2.36,5.39,20.04
14.44571995735168,3,3,3,0,-11.97,-6.37,0.02,1.93,5.52,20.13
14.45571994781494,3,3,3,0,-10.56,-6.19,-0.59,-0.18,5.02,21.55
14.4657199382782,3,3,3,0,-10.71,-5.71,-0.58,-1.44,4.85,22.18
14.47571992874146,3,3,3,0,-10.31,-5.02,-0.44,-3.55,4.34,23.05
14.48571991920471,3,3,3,0,-10.31,-5.02,-0.44,-3.55,4.34,23.05
14.49572014808655,3,3,3,0,-9.82,-4.86,-0.67,-5.7,3.84,23.6
14.5057201385498,3,3,3,0,-9.039999999999999,-5.02,-0.96,-9.41,3.53,23.84
14.51672005653381,3,3,3,0,-8.460000000000001,-5.52,-0.91,-11.05,3.57,23.68
14.52672004699707,3,3,3,0,-8.19,-5.34,-0.98,-12.33,3.57,23.28
14.53672003746033,3,3,3,0,-8.19,-5.34,-0.98,-12.33,3.57,23.28
14.54672002792358,3,3,3,0,-7.95,-5.2,-0.91,-13.75,3.48,22.88
14.55672001838684,3,3,3,0,-7.76,-4.72,-0.97,-16.36,2.97,21.89
14.5667200088501,3,3,3,0,-7.92,-4.91,-0.76,-17.19,2.42,21.12
14.57671999931335,3,3,3,0,-7.78,-5.13,-0.53,-17.41,1.47,20.17
14.58671998977661,3,3,3,0,-7.78,-5.13,-0.53,-17.41,1.47,20.17
14.59671998023987,3,3,3,0,-7.7,-5.13,-0.48,-16.17,-0.28,18.17
14.60671997070312,3,3,3,0,-7.4,-5.06,-0.51,-15.14,-1.05,16.98
14.61671996116638,3,3,3,0,-7.18,-4.92,-0.37,-14.67,-1.74,15.76
14.62671995162964,3,3,3,0,-6.73,-5.21,-0.27,-14.77,-2.13,14.65
14.6367199420929,3,3,3,0,-6.73,-5.21,-0.27,-14.77,-2.13,14.65
14.64671993255615,3,3,3,0,-6.51,-5.28,-0.31,-14.86,-2.45,13.56
14.65671992301941,3,3,3,0,-6.19,-4.93,-0.44,-14.58,-2.72,11.68
14.66671991348267,3,3,3,0,-6.08,-4.72,-0.14,-14.8,-2.78,10.61
14.6767201423645,3,3,3,0,-6.06,-5.13,-0.01,-15.21,-2.92,9.31
14.68672013282776,3,3,3,0,-6.06,-5.13,-0.01,-15.21,-2.92,9.31
14.69672012329102,3,3,3,0,-5.91,-5.44,0.13,-12.91,-2.76,5.95
14.70672011375427,3,3,3,0,-6.13,-5.69,-0.02,-9.77,-2.15,3.46
14.71672010421753,3,3,3,0,-5.94,-5.22,0.07000000000000001,-6.08,-1.46,0.63
14.72672009468079,3,3,3,0,-5.83,-4.49,0.25,-3.01,-0.93,-2.14
14.73672008514404,3,3,3,0,-5.83,-4.49,0.25,-1.6,-0.96,-4.27
14.7467200756073,3,3,3,0,-6.04,-3.7,0.5,-1.05,-1.45,-5.83
14.75672006607056,3,3,3,0,-8.779999999999999,0.78,1.73,-1.66,-2.09,-5.54
14.76672005653381,3,3,3,0,-9.970000000000001,3.86,1.54,-0.73,-2.22,-3.69
14.77672004699707,3,3,3,0,-11.34,7.47,1.98,1.11,-0.9399999999999999,-0.92
14.78672003746033,3,3,3,1,-11.34,7.47,1.98,1.83,1.02,0.51
14.79672002792358,3,3,3,1,-11.7,21.16,4.36,1.73,5.37,0.72
14.80672001838684,3,3,3,1,-13.9,27.04,1.15,1.94,10.76,3.23
14.8167200088501,3,3,3,1,-18.03,29.02,-1.44,-2.27,8.25,7.75
14.82671999931335,3,3,3,1,-13.16,12.48,0.86,-4.34,0.55,8.4
14.83671998977661,3,3,3,1,-13.16,12.48,0.86,-2.64,-1.28,6.53
14.84671998023987,3,3,3,1,-9.69,3.1,2.81,-0.45,1.68,5.52
14.85671997070312,3,3,3,1,-8.19,-2.82,1.14,2.47,3.49,4.65
14.86671996116638,3,3,3,1,-9.56,1.53,-1.92,3.44,3.91,2.71
14.87671995162964,3,3,3,1,-10.7,2.06,-1.4,0.8100000000000001,4.42,0.28
14.8867199420929,3,3,3,2,-10.73,2.3,-0.19,-4.38,2.09,-0.06
14.89671993255615,3,3,3,2,-10.07,5.2,1.94,-11.07,-0.95,1.19
14.90671992301941,3,3,3,2,-14.15,12.7,9.800000000000001,-20.54,-5.87,2.79
14.91671991348267,3,3,3,2,-16,12,9.869999999999999,-31.62,-9.74,1.39
14.9267201423645,3,3,3,2,-14.59,8.68,4.38,-34.48,-4.04,-1.21
14.93672013282776,3,3,3,2,-14.59,8.68,4.38,-30.93,2.54,-1.59
14.94672012329102,3,3,3,2,-8.6,-9.76,0.53,-26.18,3.32,-2.06
14.95672011375427,3,3,3,2,-8.59,-11.58,-1.98,-16.82,6.03,-3.07
14.96672010421753,3,3,3,2,-9.460000000000001,-10.48,-3.82,-10.26,8.789999999999999,-4.5
14.97672009468079,3,3,3,2,-8.58,-10.46,-7.91,-8.1,9.15,-6.61
14.98672008514404,3,3,3,2,-8.58,-10.46,-7.91,-0.85,7.61,-11.24
14.9967200756073,3,3,3,2,-10.89,-4.6,0.5600000000000001,5.36,7.46,-15.68
15.00672006607056,3,3,3,2,-12.31,-7.53,0.22,5.19,7.37,-16.84
15.01672005653381,3,3,3,2,-10.35,-10.25,-4,5.8,6.41,-16.28
15.02672004699707,3,3,3,2,-10.21,-8.17,-3.23,12.15,5.83,-16.27
15.03672003746033,3,3,3,2,-10.47,-5.09,-2.8,16.16,5.01,-16.03
15.04672002792358,3,3,3,2,-10.47,-5.09,-2.8,16.16,5.01,-16.03
15.05672001838684,3,3,3,2,-10.58,0.85,1.1,14.98,4.22,-15.77
15.0667200088501,3,3,3,2,-10.78,1.73,1.45,3.87,4.64,-14.73
15.07671999931335,3,3,3,2,-10.33,1.1,1.13,-2.35,4.84,-14.38
15.08671998977661,3,3,3,2,-10.33,1.1,1.13,-6.81,4.64,-14.27
15.09671998023987,3,3,3,2,-9.06,-1.52,-1.43,-6.81,4.64,-14.27
15.10671997070312,3,3,3,2,-9.35,-1.82,-1.92,-8.109999999999999,4.56,-14.33
15.11671996116638,3,3,3,2,-9.56,-1.65,-2.11,-6.9,4.53,-14.42
15.12671995162964,3,3,3,2,-9.67,-2.34,-2.06,-5.4,4.66,-14.32
15.1367199420929,3,3,3,2,-9.67,-2.34,-2.06,-1.3,5.17,-14.5
15.14671993255615,3,3,3,2,-10.01,-3.25,-1.58,-1.3,5.17,-14.5
15.15671992301941,3,3,3,2,-9.609999999999999,-3.55,-0.9,2.2,5.21,-14.78
15.16671991348267,3,3,3,2,-9.41,-2.41,-0.66,5.36,4.69,-14.77
15.1767201423645,3,3,3,2,-9.56,-1.7,-0.25,8.56,3.79,-15.09
15.18672013282776,3,3,3,2,-9.369999999999999,-1.21,-0.27,10.25,2.88,-15.41
15.19672012329102,3,3,3,2,-9.34,-0.71,-0.5,10.49,2.08,-15.65
15.20672011375427,3,3,3,2,-9.43,-0.28,-0.96,9.98,1.58,-15.73
15.21672010421753,3,3,3,2,-9.6,0.65,-1.34,8.81,1.19,-15.69
15.22672009468079,3,3,3,2,-9.67,1.5,-1.37,7.46,0.83,-15.71
15.23672008514404,3,3,3,2,-9.56,1.77,-1.17,5.74,1.16,-15.8
15.2467200756073,3,3,3,2,-9.52,1.69,-0.6899999999999999,4.26,1.64,-15.82
15.25672006607056,3,3,3,2,-9.970000000000001,1.99,-0.71,5.28,2.48,-15.4
15.26672005653381,3,3,3,2,-10.24,2.05,-0.73,7.51,3.37,-14.2
15.27672004699707,3,3,3,2,-10.41,1.71,-0.61,8.710000000000001,3.66,-12.35
15.28672003746033,3,3,3,2,-10.44,1.27,-0.68,7.97,3.55,-10.44
15.29672002792358,3,3,3,2,-10.24,-0.55,-0.64,5.94,3.12,-9
15.30672001838684,3,3,3,2,-10,-1.18,-0.85,3.52,2.69,-8.25
15.3167200088501,3,3,3,2,-9.82,-1.63,-0.89,1.79,2.33,-8.06
15.32671999931335,3,3,3,2,-9.68,-1.75,-0.71,0.76,2.13,-8.27
15.33671998977661,3,3,3,2,-9.34,-2.04,-0.52,0.62,2.17,-8.460000000000001
15.34671998023987,3,3,3,2,-9.41,-2.16,-0.45,1.08,2.39,-8.550000000000001
15.35671997070312,3,3,3,2,-9.32,-2.41,-0.54,1.72,2.48,-8.69
15.36671996116638,3,3,3,2,-9.4,-2.8,-0.55,2.76,2.68,-8.789999999999999
15.37671995162964,3,3,3,2,-9.34,-2.97,-0.82,3.87,2.89,-8.85
15.3867199420929,3,3,3,2,-9.33,-3.03,-0.57,4.84,3.07,-8.800000000000001
15.39671993255615,3,3,3,2,-9.359999999999999,-3.06,-0.31,5.91,3.09,-8.68
15.40671992301941,3,3,3,2,-9.26,-2.71,-0.5600000000000001,6.8,3.03,-8.65
15.41671991348267,3,3,3,2,-9.109999999999999,-2.41,-0.6,7.28,2.92,-8.65
15.4267201423645,3,3,3,2,-8.99,-2.27,-0.66,7.54,2.9,-8.609999999999999
15.43672013282776,3,3,3,2,-8.94,-2.3,-0.66,7.71,3.02,-8.56
15.44672012329102,3,3,3,2,-9.02,-2.54,-0.71,7.75,3.25,-8.57
15.45672011375427,3,3,3,2,-9.18,-2.56,-0.58,7.86,3.33,-8.630000000000001
15.46672010421753,3,3,3,2,-9.369999999999999,-2.63,-0.49,8.08,3.31,-8.83
15.47672009468079,3,3,3,2,-9.59,-2.58,-0.49,8.23,3.13,-9.07
15.48772001266479,3,3,3,2,-9.720000000000001,-1.8,-0.42,8.49,2.95,-9.27
15.4967200756073,3,3,3,2,-9.73,-1.32,-0.53,8.66,2.6,-9.369999999999999
15.50672006607056,3,3,3,2,-9.76,-0.92,-0.88,8.300000000000001,2.14,-9.41
15.51771998405457,3,3,3,2,-9.85,-0.75,-1.08,7.39,1.78,-9.26
15.52672004699707,3,3,3,2,-10.42,-1.34,-1.41,6.42,1.65,-8.880000000000001
15.53771996498108,3,3,3,2,-10.86,-1.69,-1.34,5.99,1.7,-8.550000000000001
15.54771995544434,3,3,3,2,-11.26,-2.03,-1.56,6.43,1.84,-8.43
15.55771994590759,3,3,3,2,-11.74,-2.12,-1.93,7.31,1.94,-8.41
15.56771993637085,3,3,3,2,-12.61,-1.34,-1.11,8.470000000000001,1.94,-8.529999999999999
15.57771992683411,3,3,3,2,-12.9,-0.73,-0.44,9.960000000000001,1.96,-8.6
15.58771991729736,3,3,3,2,-12.87,-0.06,-0.13,11.53,1.82,-8.34
15.5977201461792,3,3,3,2,-12.89,0.78,0,12.22,1.52,-7.84
15.60772013664246,3,3,3,2,-13.23,2.47,1.1,12.51,1.2,-7.11
15.61772012710571,3,3,3,2,-13.67,2.96,1.72,12.91,0.85,-6.2
15.62772011756897,3,3,3,2,-14.21,3.42,2.23,13.3,0.55,-4.8
15.63772010803223,3,3,3,2,-14.5,4.15,2.52,14.33,0.13,-2.85
15.64772009849548,3,3,3,2,-14.58,5.59,3.18,16.39,-0.18,-0.22
15.65772008895874,3,3,3,2,-14.15,3.91,3.33,17.02,-0.32,2.99
15.667720079422,3,3,3,2,-12.95,2.96,2.71,14.35,-1.1,6.07
15.67772006988525,3,3,3,2,-11.77,3.17,2.51,11.44,-2.06,9.109999999999999
15.68772006034851,3,3,3,2,-9.43,4.94,0.7,10.71,-3.91,11.98
15.69772005081177,3,3,3,2,-9.57,4.45,0.5,10.36,-5.6,13.51
15.70772004127502,3,3,3,2,-9.880000000000001,3.22,-0.44,8.68,-6.38,14.58
15.71772003173828,3,3,3,2,-10.75,0.24,-0.47,5.66,-6.38,15.64
15.72772002220154,3,3,3,2,-12.71,-3.29,-1.47,3.45,-5.2,16.02
15.73772001266479,3,3,3,2,-13.56,-3.97,-1.14,3.68,-3.04,16.02
15.74772000312805,3,3,3,2,-13.95,-4.61,-0.78,5.57,-1.05,15.96
15.75771999359131,3,3,3,2,-13.58,-5.43,-0.53,6.39,0,16.28
15.76771998405457,3,3,3,2,-12.1,-4.78,0.08,6.69,1.18,16.85
15.77771997451782,3,3,3,2,-11.72,-4.29,0.27,6.34,2.67,17.65
15.78771996498108,3,3,3,2,-11.63,-4.71,0.93,5.48,4.13,18.69
15.79771995544434,3,3,3,2,-11.38,-6.94,1.11,3.34,4.91,19.43
15.80771994590759,3,3,3,2,-11.18,-6.59,0.32,1.49,4.65,19.38
15.81771993637085,3,3,3,2,-11.08,-6.56,0.18,2.35,4.97,19.22
15.82771992683411,3,3,3,2,-11.1,-6.62,0.31,3.38,5.65,19.35
15.83771991729736,3,3,3,1,-11.23,-5.51,-0.33,3.74,5.82,19.53
15.8477201461792,3,3,3,1,-10.96,-5.56,-0.36,2.73,5.81,19.86
15.85772013664246,3,3,3,1,-9.970000000000001,-5.24,-0.36,1.3,5.49,20.62
15.86772012710571,3,3,3,1,-10.45,-4.8,-0.52,-0.03,5.29,22.01
15.87772011756897,3,3,3,1,-9.789999999999999,-4.42,-0.62,-1.44,5.15,22.62
15.88772010803223,3,3,3,1,-9.199999999999999,-4.53,-0.48,-3.41,4.91,23.19
15.89772009849548,3,3,3,1,-8.82,-4.42,-0.52,-5.26,4.55,23.54
15.90772008895874,3,3,3,1,-8.67,-4.47,-0.65,-7.28,4.27,23.51
15.917720079422,3,3,3,1,-8.300000000000001,-4.8,-0.75,-9.67,4.09,23.27
15.92772006988525,3,3,3,1,-8.199999999999999,-4.66,-0.78,-12.08,3.65,22.93
15.93772006034851,3,3,3,0,-8.17,-4.79,-0.89,-14.13,3.27,22.45
15.94772005081177,3,3,3,0,-8.17,-4.9,-0.91,-16.06,2.99,22.05
15.95772004127502,3,3,3,0,-8.039999999999999,-5.32,-1.02,-17.1,2.64,21.57
15.96772003173828,3,3,3,0,-8.109999999999999,-5.4,-0.72,-17.13,2.25,20.86
15.97772002220154,3,3,3,0,-7.83,-5.62,-0.59,-16.69,1.4,20.17
15.98772001266479,3,3,3,0,-7.7,-5.27,-0.44,-15.84,0.51,19.23
15.99772000312805,3,3,3,0,-7.34,-5.36,-0.3,-15.25,-0.15,18.27
16.00771999359131,3,3,3,0,-6.95,-5.47,-0.54,-14.94,-0.66,17.21
16.01771998405457,3,3,3,0,-6.64,-5.33,-0.75,-14.58,-1.1,16.19
16.02771997451782,3,3,3,0,-6.63,-5.09,-0.74,-13.85,-1.22,14.97
16.03771996498108,3,3,3,0,-6.83,-4.92,-0.2,-13.62,-1.44,13.97
16.04771995544434,3,3,3,0,-6.62,-4.92,0.02,-13.84,-1.95,12.75
16.05771994590759,3,3,3,0,-6.29,-5.08,0.1,-14.32,-2.36,11.46
16.06771993637085,3,3,3,0,-5.81,-5.5,0.31,-14.84,-2.78,10.42
16.07771992683411,3,3,3,0,-5.4,-6.31,0.47,-14.56,-3.08,9.359999999999999
16.08771991729736,3,3,3,0,-5.83,-6.57,0.55,-12.88,-2.54,7.77
16.0977201461792,3,3,3,0,-6.32,-6.46,0.43,-9.699999999999999,-1.75,5.63
16.10772013664246,3,3,3,0,-6.59,-5.85,0.32,-5.55,-1.4,2.87
16.11772012710571,3,3,3,0,-6.46,-3.63,0.05,-2.52,-1.34,-0.15
16.12772011756897,3,3,3,0,-6.67,-2.21,0.32,-2.37,-1.49,-2.68
16.13772010803223,3,3,3,0,-7.4,-0.7,1.06,-3.58,-1.74,-4.51
16.14772009849548,3,3,3,0,-8.73,1.39,1.97,-5.51,-2.03,-4.99
16.15772008895874,3,3,3,0,-10.93,6.74,3.57,-6.32,-2.81,-3.9
16.167720079422,3,3,3,0,-12.05,13.25,6.26,-4.9,-3.42,-2.46
16.17772006988525,3,3,3,0,-11.69,19.54,8.109999999999999,-4.48,-4.06,-0.38
16.18772006034851,3,3,3,0,-14.86,30.83,1.73,-5.77,-0.58,1.9
16.19772005081177,3,3,3,0,-20.61,29.5,-2.7,-9.69,9.07,5.4
16.20772004127502,3,3,3,0,-18.57,19.93,-2.74,-15.78,9.390000000000001,9.02
16.21772003173828,3,3,3,0,-10.67,7.92,1.42,-14.81,-3.6,9.529999999999999
16.22772002220154,3,3,3,0,-7.1,-7.53,3.14,-7.1,-4.88,7.96
16.23772001266479,3,3,3,0,-7.24,-6.5,0.86,-1.91,1.4,7.67
16.24772000312805,3,3,3,0,-7.3,-2.33,-1.45,4.17,4.91,6.39
16.25771999359131,3,3,3,0,-8.66,1.07,-2.23,9.369999999999999,6.02,4.25
16.26771998405457,3,3,3,0,-11.73,3.56,0.18,9.949999999999999,6.18,1.97
16.27771997451782,3,3,3,0,-11.44,6.71,2.93,3.59,4.33,0.14
16.28771996498108,3,3,3,0,-13.12,7.61,10.48,-7.99,0.54,1
16.29771995544434,3,3,3,0,-11.79,8.869999999999999,13.07,-17.77,-9.640000000000001,-0.01
16.30771994590759,3,3,3,0,-14.98,11.2,0.46,-19.92,-12.56,-3.72
16.31771993637085,3,3,3,0,-14.4,4.95,-1.66,-23.37,-0.89,-3.39
16.32771992683411,3,3,3,0,-11.78,-2.93,-0.25,-28.76,3.43,-1.65
16.33771991729736,3,3,3,0,-9.76,-8.31,-3.11,-28.35,4.71,-1.97
16.3477201461792,3,3,3,0,-10.17,-12.04,-6.26,-23.71,7.9,-1.63
16.35772013664246,3,3,3,0,-8.65,-11.82,-8.73,-20.58,10.62,-1.88
16.36772012710571,3,3,3,0,-7.62,-7.15,-5.5,-15.72,9.609999999999999,-5.04
16.37772011756897,3,3,3,0,-8.550000000000001,-5.34,0.78,-4.55,8.32,-10.81
16.38772010803223,3,3,3,0,-12,-9.18,-2.68,0.52,9.25,-15.15
16.39772009849548,3,3,3,0,-10.8,-9.75,-3.88,1.13,9.1,-16.84
16.40772008895874,3,3,3,0,-9.880000000000001,-9.470000000000001,-3.67,4.87,7.19,-16.58
16.417720079422,3,3,3,0,-10.24,-6.97,-4.06,12.34,6.23,-15.98
16.42772006988525,3,3,3,0,-10.75,-0.97,-0.5600000000000001,16.82,5.28,-15.26
16.43772006034851,3,3,3,1,-10.58,0.35,0.48,15.99,4.45,-14.85
16.44772005081177,3,3,3,1,-10.53,1.87,0.93,11.11,4.65,-14.26
16.45772004127502,3,3,3,1,-10.58,2.07,1.19,4.73,5.16,-13.52
16.46772003173828,3,3,3,1,-9.220000000000001,0.91,0.05,-1.21,5.38,-13.23
16.47772002220154,3,3,3,1,-8.77,0.02,-0.83,-6.03,5.14,-13.19
16.48772001266479,3,3,3,1,-8.99,-0.62,-1.58,-8.140000000000001,4.83,-13.02
16.49772000312805,3,3,3,1,-9.32,-1.33,-1.94,-7.8,4.92,-12.97
16.50771999359131,3,3,3,1,-10,-2.47,-2.15,-6.58,5.13,-12.94
16.51771998405457,3,3,3,1,-10.14,-2.74,-1.88,-4.71,5.35,-12.93
16.52771997451782,3,3,3,1,-10.21,-3.6,-1.52,-1.95,5.46,-12.85
16.53771996498108,3,3,3,2,-10.19,-3.38,-1.09,1.94,5.61,-13.02
16.54771995544434,3,3,3,2,-9.619999999999999,-3,-0.53,5.72,5.25,-13.21
16.55872011184692,3,3,3,2,-9.76,-3.05,-0.27,8.619999999999999,4.71,-13.52
16.56872010231018,3,3,3,2,-9.710000000000001,-1.82,0.01,11.74,4.08,-13.96
16.57872009277344,3,3,3,2,-9.33,-1.22,0.04,12.95,3.39,-14.17
16.58872008323669,3,3,3,2,-9.26,-1.42,-0.27,13.05,2.83,-13.97
16.59872007369995,3,3,3,2,-9.279999999999999,-0.89,-0.47,12.82,2.64,-13.66
16.60872006416321,3,3,3,2,-9.390000000000001,-0.6,-0.73,12.39,2.48,-13.41
16.61872005462646,3,3,3,2,-9.6,-0.54,-0.88,11.08,2.18,-13.35
16.62872004508972,3,3,3,2,-9.85,-0.44,-0.86,9.84,1.93,-13.68
16.63872003555298,3,3,3,2,-10.02,0.04,-1.01,8.720000000000001,1.7,-14.25
16.64872002601624,3,3,3,2,-9.949999999999999,0.37,-1.21,7.72,1.61,-14.96
16.65872001647949,3,3,3,2,-9.289999999999999,-0.45,-1.31,6.24,1.72,-15.19
16.66872000694275,3,3,3,2,-9.23,-0.76,-1.25,5.07,2,-14.63
16.67871999740601,3,3,3,2,-9.33,-1.07,-1.26,4.92,2.24,-13.76
16.68871998786926,3,3,3,2,-9.57,-1.11,-1.26,4.67,2.31,-13
16.69871997833252,3,3,3,2,-9.9,-1.26,-1.35,3.67,2.24,-12.35
16.70871996879578,3,3,3,2,-10.04,-1.09,-1.27,2.42,2.02,-11.9
16.71871995925903,3,3,3,2,-10.03,-0.85,-0.99,1.49,1.86,-11.58
16.72871994972229,3,3,3,2,-10.15,-0.44,-0.73,1.01,1.73,-11.3
16.73871994018555,3,3,3,2,-10.01,-0.04,-0.27,1.08,1.92,-10.9
16.7487199306488,3,3,3,2,-9.93,-0.05,-0.08,1.79,2.21,-10.32
16.75871992111206,3,3,3,2,-9.789999999999999,-0.3,-0.36,2.65,2.49,-9.66
16.7687201499939,3,3,3,2,-9.66,-0.63,-0.45,3.71,2.8,-9.140000000000001
16.77872014045715,3,3,3,2,-9.699999999999999,-1.57,-0.48,4.96,3.15,-8.67
16.78872013092041,3,3,3,2,-9.77,-2.03,-0.39,6.22,3.23,-8.460000000000001
16.79872012138367,3,3,3,2,-9.83,-2.35,-0.31,7.44,3.18,-8.4
16.80872011184692,3,3,3,2,-9.789999999999999,-2.5,-0.38,8.630000000000001,3.17,-8.390000000000001
16.81872010231018,3,3,3,2,-9.56,-2.49,-0.73,9.380000000000001,3.17,-8.359999999999999
16.82872009277344,3,3,3,2,-9.51,-2.31,-0.78,9.92,3.25,-8.42
16.83872008323669,3,3,3,2,-9.42,-2.12,-0.76,10.32,3.4,-8.529999999999999
16.86872005462646,3,3,3,2,-9.68,-1.56,-0.59,9.449999999999999,3.09,-8.880000000000001
16.87872004508972,3,3,3,2,-9.82,-1.32,-0.54,8.800000000000001,2.72,-8.91
16.88872003555298,3,3,3,2,-9.880000000000001,-1.04,-0.6,7.85,2.24,-8.84
16.89872002601624,3,3,3,2,-9.92,-0.85,-0.79,6.9,1.82,-8.65
16.90872001647949,3,3,3,2,-10.05,-1.03,-0.99,5.88,1.55,-8.300000000000001
16.91872000694275,3,3,3,2,-10.19,-1.35,-1.04,5.47,1.53,-7.97
16.92871999740601,3,3,3,2,-10.51,-1.6,-0.99,5.71,1.68,-7.77
16.93871998786926,3,3,3,2,-11.47,-1.83,-1.43,6.57,1.75,-7.8
16.94871997833252,3,3,3,2,-11.97,-1.58,-1.3,7.54,1.8,-7.93
16.95871996879578,3,3,3,2,-12.52,-1.06,-0.58,9.050000000000001,1.84,-7.95
16.96871995925903,3,3,3,2,-12.99,0.33,0.5,10.79,1.7,-7.73
16.97871994972229,3,3,3,2,-12.95,1.1,0.47,12.21,1.36,-7.14
16.98871994018555,3,3,3,2,-12.94,2.07,0.77,12.93,1.14,-6.26
16.9987199306488,3,3,3,2,-13.01,2.92,1.26,13.81,0.91,-5.1
17.00871992111206,3,3,3,2,-13.95,4.5,1.93,14.77,0.45,-3.51
17.0187201499939,3,3,3,2,-14.16,5.54,2.02,16.01,-0.11,-1.39
17.02872014045715,3,3,3,2,-14.09,5.56,2.76,17.07,-0.58,1.54
17.03872013092041,3,3,3,2,-13.45,4.42,2.98,15.33,-1.44,4.64
17.04872012138367,3,3,3,2,-11.47,3.14,2.61,12.44,-2.58,7.43
17.05872011184692,3,3,3,2,-10.36,4.09,1.51,12.74,-4.24,9.859999999999999
17.06872010231018,3,3,3,2,-9.93,4.33,1,13.54,-6.02,11.7
17.07872009277344,3,3,3,2,-10.01,4.16,0.32,13.81,-7,13.2
17.08872008323669,3,3,3,2,-11.41,0.2,-0.44,11.91,-6.86,14.35
17.09872007369995,3,3,3,2,-12.18,-1.8,-1.48,8.630000000000001,-5.65,15.05
17.10872006416321,3,3,3,2,-13.35,-2.36,-1.69,6.61,-3.38,15.45
17.11872005462646,3,3,3,2,-14.57,-3.13,-1.61,6.16,-0.93,15.41
17.12872004508972,3,3,3,2,-14.68,-4.53,-1.11,6.17,0.45,15.82
17.13872003555298,3,3,3,2,-13.8,-4.75,-0.74,6.04,1.37,16.91
17.14872002601624,3,3,3,2,-12.59,-4.29,-0.39,5.54,2.44,18.62
17.15872001647949,3,3,3,2,-12.24,-4.07,-0.09,4.18,4.17,20.22
17.16872000694275,3,3,3,2,-11.99,-6.05,0.97,1.07,5.33,21.36
17.17871999740601,3,3,3,2,-11.72,-6.81,0.41,-2.61,5.41,21.59
17.18871998786926,3,3,3,2,-11.81,-6.72,0.14,-3.71,5.82,21.47
17.19871997833252,3,3,3,2,-12.09,-6.58,0.32,-2.96,6.68,21.56
17.20871996879578,3,3,3,2,-12.33,-6.53,-0.19,-2.7,6.59,21.5
17.21871995925903,3,3,3,2,-11.05,-6.75,-0.33,-3.04,6.13,21.65
17.22871994972229,3,3,3,2,-10.92,-6.73,-0.63,-2.63,5.81,22.82
17.23871994018555,3,3,3,2,-11.08,-5.87,-0.59,-1.57,5.55,23.61
17.2487199306488,3,3,3,2,-10.79,-4.18,-0.08,-2.05,5.38,24.38
17.25871992111206,3,3,3,2,-10.27,-4.52,0.01,-4.68,4.9,24.83
17.2687201499939,3,3,3,2,-9.69,-4.69,-0.14,-7.34,4.34,25
17.27872014045715,3,3,3,2,-9.300000000000001,-4.97,-0.17,-9.039999999999999,4.07,24.8
17.28872013092041,3,3,3,2,-8.65,-5.39,0.3,-10.6,3.77,24.67
17.29872012138367,3,3,3,2,-8.26,-5.64,0.28,-12.2,3.29,24.44
17.30872011184692,3,3,3,2,-7.92,-5.5,0.04,-13.39,2.91,23.98
17.31872010231018,3,3,3,2,-7.68,-5.55,-0.07000000000000001,-14.39,2.78,23.31
17.32872009277344,3,3,3,2,-7.28,-5.53,-0.06,-14.93,2.62,22.45
17.33872008323669,3,3,3,2,-7.35,-5.41,-0.01,-14.71,2.37,21.27
17.34872007369995,3,3,3,2,-7.43,-5.55,0.16,-14.34,1.97,20.06
17.35872006416321,3,3,3,2,-7.4,-5.69,0.22,-13.91,1.08,18.91
17.36872005462646,3,3,3,2,-6.9,-5.47,0.2,-13.17,0.08,17.58
17.37872004508972,3,3,3,2,-6.61,-5.53,0.25,-12.33,-0.58,16.5
17.38872003555298,3,3,3,2,-6.5,-5.59,0.19,-11.68,-1.14,15.35
17.39872002601624,3,3,3,2,-6.49,-5.51,-0.01,-11.23,-1.68,14.07
17.40872001647949,3,3,3,2,-6.44,-5.8,-0.34,-11.06,-2.26,12.93
17.41872000694275,3,3,3,2,-6.25,-5.9,-0.53,-10.56,-2.68,11.53
17.42871999740601,3,3,3,2,-6,-5.72,-0.71,-9.67,-2.93,10.11
17.43871998786926,3,3,3,2,-5.57,-4.83,-0.79,-8.57,-2.78,9.050000000000001
17.44871997833252,3,3,3,2,-5.81,-4.6,-0.73,-7.78,-2.38,8.130000000000001
17.45871996879578,3,3,3,2,-6.1,-4.87,-0.59,-7.96,-2.02,7.04
17.46871995925903,3,3,3,2,-6.16,-4.98,-0.46,-7.65,-1.58,5.37
17.47871994972229,3,3,3,2,-6.12,-4.61,-0.65,-6.66,-1.06,3.31
17.48871994018555,3,3,3,2,-6.1,-4.2,-0.82,-5.06,-0.34,0.43
17.4987199306488,3,3,3,2,-6.17,-3.31,-0.84,-3.5,0.03,-2.05
17.50871992111206,3,3,3,2,-6.45,-2.4,-0.95,-2.65,0.08,-4.1
17.5187201499939,3,3,3,2,-8.41,-0.27,-0.19,-2.82,0.18,-6.03
17.52872014045715,3,3,3,2,-9.619999999999999,1.95,0.8,-2.3,-0.05,-7.47
17.53872013092041,3,3,3,2,-11.5,5.1,2.29,-1.35,-0.9,-7.06
17.54872012138367,3,3,3,2,-12.62,6.8,3.66,-3.02,-2.96,-4.51
17.55872011184692,3,3,3,2,-12.51,15.23,7.18,-3.09,-3.96,-2.28
17.56872010231018,3,3,3,2,-12.13,20.08,7.51,-4.26,-1.89,-0.03
17.57872009277344,3,3,3,2,-12.85,23.52,3.32,-5.54,4.2,2.44
17.58972001075745,3,3,3,2,-15.44,26.12,-1.53,-7.02,8.85,5.85
17.5997200012207,3,3,3,2,-13.02,16.59,-0.59,-8.49,4.43,8.02
17.60971999168396,3,3,3,2,-9.529999999999999,7.4,2.1,-6,-0.5600000000000001,7.31
17.61971998214722,3,3,3,2,-8.109999999999999,0.05,2.21,-3.96,0.92,6.17
17.62971997261047,3,3,3,2,-8.199999999999999,-3.04,1.18,-2.73,3.32,5.27
17.63971996307373,3,3,3,2,-8.94,0.14,-1.66,0.48,3.26,3.83
17.64971995353699,3,3,3,2,-10.51,1.55,-1.1,1.93,3.57,1.58
17.65971994400024,3,3,3,2,-11.34,3.99,-0.65,-1.59,2.79,0.01
17.6697199344635,3,3,3,2,-12.69,8.470000000000001,3.25,-8.91,0.39,0.43
17.67971992492676,3,3,3,2,-13.63,10.3,12.56,-21.08,-8.56,0.62
17.68971991539001,3,3,3,2,-11.45,10.84,5.87,-28.09,-13.71,-1.55
17.69972014427185,3,3,3,2,-12.52,7.7,-0.52,-29.87,-2.32,-2.34
17.70972013473511,3,3,3,2,-10.92,2.13,-2.68,-31.42,3.37,-0.95
17.71972012519836,3,3,3,2,-9.279999999999999,-8.869999999999999,-0.33,-29.34,4.99,-1.68
17.72972011566162,3,3,3,2,-8.98,-11.69,-2.01,-25.29,7.7,-2.49
17.73972010612488,3,3,3,2,-9.119999999999999,-12.01,-3.98,-19.96,9.24,-3.7
17.74972009658813,3,3,3,2,-9.26,-11.26,-5.77,-14.49,9.279999999999999,-5.47
17.75972008705139,3,3,3,2,-10.68,-8.369999999999999,-1.48,-7.16,8.52,-9.08
17.76972007751465,3,3,3,2,-12.18,-10.03,-0.17,1.05,8.380000000000001,-13.32
17.77972006797791,3,3,3,2,-11.83,-10.65,-3.69,5.9,8.74,-15.13
17.78972005844116,3,3,3,2,-9.67,-7.87,-4.53,9.68,7.5,-14.74
17.79972004890442,3,3,3,2,-9.960000000000001,-5.04,-3.68,15.15,6.47,-14.52
17.80972003936768,3,3,3,2,-10.42,-2.35,-2.27,18.19,5.8,-14.37
17.81972002983093,3,3,3,2,-10.74,-0.11,-0.65,17.24,5.25,-14.19
17.82972002029419,3,3,3,2,-10.77,1.76,1.05,12.89,5.13,-13.92
17.83972001075745,3,3,3,2,-10.58,1.68,1.17,6.79,5.29,-13.51
17.8497200012207,3,3,3,2,-9.77,0.68,0.47,0.35,5.29,-13.26
17.85971999168396,3,3,3,2,-8.890000000000001,-0.36,-0.52,-4.23,5.17,-13.03
17.86971998214722,3,3,3,2,-9.359999999999999,-1.39,-1.6,-5.55,5.06,-12.83
17.87971997261047,3,3,3,2,-9.779999999999999,-1.75,-1.84,-4.82,5.15,-12.76
17.88971996307373,3,3,3,2,-9.98,-1.89,-1.94,-3.45,5.23,-12.77
17.89971995353699,3,3,3,2,-10.18,-2.03,-1.87,-1.89,5.48,-12.76
17.90971994400024,3,3,3,2,-10.12,-2.93,-1.71,0.62,5.74,-12.76
17.9197199344635,3,3,3,2,-9.789999999999999,-2.66,-1.27,4.92,5.71,-13.04
17.92971992492676,3,3,3,2,-9.57,-3.46,-0.88,8.380000000000001,5.35,-13.21
17.93971991539001,3,3,3,2,-9.539999999999999,-2.14,-0.79,12.17,4.55,-13.68
17.94972014427185,3,3,3,2,-9.609999999999999,-0.51,-0.3,14.19,3.73,-13.95
17.95972013473511,3,3,3,2,-9.42,-0.4,-0.51,14.33,3,-13.82
17.96972012519836,3,3,3,2,-9.449999999999999,-0.54,-0.66,13.51,2.63,-13.5
17.97972011566162,3,3,3,2,-9.460000000000001,-0.12,-0.57,12.91,2.56,-13.23
17.98972010612488,3,3,3,2,-9.52,-0.02,-0.8100000000000001,11.52,2.36,-13.03
17.99972009658813,3,3,3,2,-9.699999999999999,0,-0.9399999999999999,9.970000000000001,2.14,-13.17
18.00972008705139,3,3,3,2,-9.77,0.06,-1.06,8.34,1.9,-13.51
18.01972007751465,3,3,3,2,-9.75,0.41,-1.19,6.88,1.58,-14.12
18.02972006797791,3,3,3,2,-9.66,0.13,-1.24,5.39,1.55,-14.73
18.03972005844116,3,3,3,2,-9.33,-0.11,-1.25,4.4,1.61,-14.78
18.04972004890442,3,3,3,2,-9.24,-0.49,-1.16,3.95,1.91,-14
18.05972003936768,3,3,3,2,-9.4,-0.66,-1.19,4.14,2.07,-12.98
18.06972002983093,3,3,3,2,-9.710000000000001,-1.25,-1.28,3.8,2.11,-12.04
18.07972002029419,3,3,3,2,-9.779999999999999,-1.47,-1.22,2.84,1.93,-11.45
18.08972001075745,3,3,3,3,-9.83,-1.52,-1.01,1.9,1.81,-11.11
18.0997200012207,3,3,3,3,-10.03,-1.57,-0.8100000000000001,1.04,1.73,-11.03
18.10971999168396,3,3,3,3,-9.68,-1.35,-0.47,0.8,1.8,-10.84
18.11971998214722,3,3,3,3,-9.58,-1.2,-0.36,1.29,2.18,-10.65
18.12971997261047,3,3,3,3,-9.51,-1.05,-0.24,2.46,2.51,-10.35
18.13971996307373,3,3,3,3,-9.359999999999999,-0.97,-0.37,3.75,2.86,-9.94
18.14971995353699,3,3,3,3,-9.619999999999999,-1.15,-0.32,5.12,3.22,-9.5
18.15971994400024,3,3,3,3,-9.779999999999999,-1.27,-0.32,6.3,3.28,-9.15
18.1697199344635,3,3,3,3,-9.619999999999999,-1.78,-0.29,6.96,3.23,-8.99
18.17971992492676,3,3,3,3,-9.720000000000001,-2.22,-0.42,7.43,3.23,-8.800000000000001
18.18971991539001,3,3,3,3,-9.699999999999999,-2.17,-0.58,7.93,3.18,-8.74
18.19972014427185,3,3,3,3,-9.65,-2.16,-0.73,8.19,3.2,-8.81
18.20972013473511,3,3,3,3,-9.640000000000001,-2.13,-0.84,8.289999999999999,3.27,-8.91
18.21972012519836,3,3,3,3,-9.6,-2.01,-0.85,8.32,3.26,-9.09
18.22972011566162,3,3,3,3,-9.56,-1.82,-0.86,8.109999999999999,3.09,-9.26
18.23972010612488,3,3,3,3,-9.58,-1.64,-0.88,7.68,2.85,-9.41
18.24972009658813,3,3,3,3,-9.630000000000001,-1.56,-0.82,7.07,2.59,-9.43
18.25972008705139,3,3,3,3,-9.630000000000001,-1.41,-0.61,6.48,2.24,-9.52
18.26972007751465,3,3,3,3,-9.59,-1.47,-0.67,5.82,1.84,-9.48
18.27972006797791,3,3,3,3,-9.67,-1.7,-0.82,5.11,1.67,-9.300000000000001
18.28972005844116,3,3,3,3,-9.81,-1.97,-0.88,4.94,1.63,-9.039999999999999
18.29972004890442,3,3,3,3,-10.56,-2.63,-0.71,5.52,1.77,-8.789999999999999
18.30972003936768,3,3,3,3,-11.03,-2.81,-0.8,6.75,1.88,-8.720000000000001
18.31972002983093,3,3,3,3,-11.41,-2.86,-0.99,8.19,2,-8.699999999999999
18.32972002029419,3,3,3,3,-11.8,-2.7,-1.26,9.56,1.97,-8.74
18.33972001075745,3,3,3,3,-12.53,-1.63,-0.66,11.05,1.87,-8.880000000000001
18.3497200012207,3,3,3,3,-12.8,-0.95,0.05,12.7,1.64,-8.800000000000001
18.35971999168396,3,3,3,3,-12.83,-0.2,0.15,13.94,1.14,-8.27
18.36971998214722,3,3,3,3,-12.73,0.65,0.16,14.35,0.57,-7.55
18.37971997261047,3,3,3,3,-12.84,2.53,1.13,14.82,0.06,-6.74
18.38971996307373,3,3,3,3,-13.26,3.28,1.74,15.39,-0.4,-5.49
18.39971995353699,3,3,3,3,-13.79,4.01,2.09,16.02,-0.74,-3.56
18.40971994400024,3,3,3,3,-13.97,5.02,1.94,16.85,-1.06,-0.72
18.4197199344635,3,3,3,3,-13.17,4.43,1.89,15.88,-1.24,2.67
18.42971992492676,3,3,3,3,-12.36,3.79,1.53,12.76,-1.53,5.85
18.43971991539001,3,3,3,3,-11.53,3.84,1.61,10.81,-1.81,9.01
18.44972014427185,3,3,3,3,-10.8,3.97,1.27,9.56,-3.05,11.75
18.45972013473511,3,3,3,3,-10.69,4.87,-0.24,8.52,-5.17,12.92
18.46972012519836,3,3,3,3,-11.55,3.67,0,6.16,-6.35,13.85
18.47972011566162,3,3,3,3,-11.6,1.12,-0.54,3.33,-6.97,14.63
18.48972010612488,3,3,3,3,-11.77,-0.98,-0.67,1.55,-6.07,15.19
18.49972009658813,3,3,3,3,-13.15,-2.92,-0.95,1.73,-3.92,15.63
18.50972008705139,3,3,3,3,-13.8,-3.54,-0.91,2.5,-2.08,15.87
18.51972007751465,3,3,3,3,-13.75,-4.31,-0.62,2.87,-0.91,16.23
18.52972006797791,3,3,3,3,-12.93,-4.69,0.07000000000000001,2.46,0.41,17.02
18.53972005844116,3,3,3,3,-12.06,-4.72,0.5,1.54,1.71,18.05
18.54972004890442,3,3,3,3,-12.07,-5.27,0.75,0.93,2.94,18.96
18.55972003936768,3,3,3,3,-12.08,-6.47,1.11,-0.28,3.29,19.41
18.56972002983093,3,3,3,3,-11.73,-7.26,0.78,-0.4,3.16,19.39
18.58071994781494,3,3,3,3,-11.6,-7.04,0.09,1.84,3.78,19.42
18.58972001075745,3,3,3,3,-11.49,-6.21,-0.03,3.74,4.22,19.64
18.5997200012207,3,3,3,3,-11.49,-5.83,-0.19,3.57,4.35,20.07
18.61071991920471,3,3,3,3,-11.56,-5.17,-0.9399999999999999,2.65,4.29,20.6
18.62072014808655,3,3,3,3,-10.57,-4.74,-0.83,1.4,4.08,21.59
18.6307201385498,3,3,3,3,-10.73,-4.38,-0.8100000000000001,-0.19,4.02,23.03
18.64072012901306,3,3,3,3,-10.87,-4.55,-0.73,-2.68,3.77,23.74
18.65072011947632,3,3,3,3,-9.81,-4.76,-1.17,-4.78,3.47,24.13
18.66072010993958,3,3,3,3,-9.25,-4.74,-1.46,-6.16,3.46,24.19
18.67072010040283,3,3,3,3,-9.02,-4.56,-1.69,-7.34,3.58,23.95
18.68072009086609,3,3,3,3,-8.800000000000001,-4.95,-1.85,-8.880000000000001,3.76,23.63
18.69072008132935,3,3,3,2,-8.48,-4.8,-1.91,-10.13,3.78,23.37
18.7007200717926,3,3,3,2,-8.34,-4.97,-1.96,-12.01,3.56,23.1
18.71072006225586,3,3,3,2,-8.26,-4.8,-2.08,-13.74,3.23,22.79
