timestamp,magCalib,accCalib,gyrCalib,sysCalib,accX,accY,accZ,gyrX,gyrY,gyrZ
timestamp,magCalib,accCalib,gyrCalib,sysCalib,accX,accY,accZ,gyrX,gyrY,gyrZ
0.09472012519836426,3,3,3,3,-9.48,1.8,-1.46,-0.09,-0.12,-0.51
0.09472012519836426,3,3,3,3,-9.48,1.8,-1.46,-0.09,-0.12,-0.51
0.1147201061248779,3,3,3,3,-9.51,1.65,-1.5,-0.29,-0.36,-0.5
0.1147201061248779,3,3,3,3,-9.51,1.65,-1.5,-0.29,-0.36,-0.5
0.1347200870513916,3,3,3,3,-9.449999999999999,1.55,-1.38,-0.04,-0.21,-0.53
0.1347200870513916,3,3,3,3,-9.449999999999999,1.55,-1.38,-0.04,-0.21,-0.53
0.1547200679779053,3,3,3,3,-9.58,1.52,-1.42,0,0,-0.54
0.1547200679779053,3,3,3,3,-9.58,1.52,-1.42,0,0,-0.54
0.1747200489044189,3,3,3,3,-9.609999999999999,1.5,-1.29,-0.04,-0.24,-0.64
0.1747200489044189,3,3,3,3,-9.609999999999999,1.5,-1.29,-0.04,-0.24,-0.64
0.1947200298309326,3,3,3,3,-9.56,1.51,-1.36,0,-0.24,-0.64
0.1947200298309326,3,3,3,3,-9.56,1.51,-1.36,0,-0.24,-0.64
0.2147200107574463,3,3,3,3,-9.49,1.53,-1.38,-0.03,-0.23,-0.65
0.2147200107574463,3,3,3,3,-9.49,1.53,-1.38,-0.03,-0.23,-0.65
0.23471999168396,3,3,3,3,-9.539999999999999,1.5,-1.26,-0.11,-0.22,-0.65
0.23471999168396,3,3,3,3,-9.539999999999999,1.5,-1.26,-0.11,-0.22,-0.65
0.2547199726104736,3,3,3,3,-9.57,1.48,-1.4,-0.1,-0.21,-0.53
0.2547199726104736,3,3,3,3,-9.57,1.48,-1.4,-0.1,-0.21,-0.53
0.2747199535369873,3,3,3,3,-9.6,1.44,-1.26,-0.12,-0.38,-0.51
0.2747199535369873,3,3,3,3,-9.6,1.44,-1.26,-0.12,-0.38,-0.51
0.294719934463501,3,3,3,3,-9.550000000000001,1.49,-1.28,-0.15,-0.25,-0.53
0.294719934463501,3,3,3,3,-9.550000000000001,1.49,-1.28,-0.15,-0.25,-0.53
0.3147199153900146,3,3,3,3,-9.550000000000001,1.48,-1.34,-0.19,-0.26,-0.48
0.3147199153900146,3,3,3,3,-9.550000000000001,1.48,-1.34,-0.19,-0.26,-0.48
0.3347201347351074,3,3,3,3,-9.619999999999999,1.47,-1.3,0.04,-0.15,-0.42
0.3347201347351074,3,3,3,3,-9.619999999999999,1.47,-1.3,0.04,-0.15,-0.42
0.3547201156616211,3,3,3,3,-9.59,1.33,-1.37,-0.08,-0.38,-0.46
0.3547201156616211,3,3,3,3,-9.59,1.33,-1.37,-0.08,-0.38,-0.46
0.3747200965881348,3,3,3,3,-9.51,1.39,-1.21,-0.02,-0.3,-0.42
0.3747200965881348,3,3,3,3,-9.51,1.39,-1.21,-0.02,-0.3,-0.42
0.3947200775146484,3,3,3,3,-9.65,1.43,-1.25,0.16,-0.15,-0.38
0.3947200775146484,3,3,3,3,-9.65,1.43,-1.25,0.16,-0.15,-0.38
0.4147200584411621,3,3,3,3,-9.58,1.44,-1.33,0.07000000000000001,-0.2,-0.27
0.4147200584411621,3,3,3,3,-9.58,1.44,-1.33,0.07000000000000001,-0.2,-0.27
0.4347200393676758,3,3,3,3,-9.59,1.37,-1.28,-0.01,-0.22,-0.23
0.4347200393676758,3,3,3,3,-9.59,1.37,-1.28,-0.01,-0.22,-0.23
0.4547200202941895,3,3,3,3,-9.609999999999999,1.35,-1.35,-0.02,-0.45,-0.19
0.4547200202941895,3,3,3,3,-9.609999999999999,1.35,-1.35,-0.02,-0.45,-0.19
0.4747200012207031,3,3,3,3,-9.609999999999999,1.36,-1.32,0.06,-0.13,-0.13
0.4747200012207031,3,3,3,3,-9.609999999999999,1.36,-1.32,0.06,-0.13,-0.13
0.4947199821472168,3,3,3,3,-9.6,1.41,-1.2,0.1,-0.12,-0.14
0.4947199821472168,3,3,3,3,-9.6,1.41,-1.2,0.1,-0.12,-0.14
0.5147199630737305,3,3,3,3,-9.550000000000001,1.44,-1.3,0.1,-0.17,-0.11
0.5147199630737305,3,3,3,3,-9.550000000000001,1.44,-1.3,0.1,-0.17,-0.11
0.5357201099395752,3,3,3,3,-9.619999999999999,1.41,-1.23,0.14,-0.16,-0.12
0.5357201099395752,3,3,3,3,-9.619999999999999,1.41,-1.23,0.14,-0.16,-0.12
0.5557200908660889,3,3,3,3,-9.59,1.38,-1.37,0.11,-0.29,0.04
0.5557200908660889,3,3,3,3,-9.59,1.38,-1.37,0.11,-0.29,0.04
0.5757200717926025,3,3,3,3,-9.66,1.35,-1.19,0.26,-0.14,0.02
0.5757200717926025,3,3,3,3,-9.66,1.35,-1.19,0.26,-0.14,0.02
0.5957200527191162,3,3,3,3,-9.65,1.4,-1.17,0.14,-0.11,-0.05
0.5957200527191162,3,3,3,3,-9.65,1.4,-1.17,0.14,-0.11,-0.05
0.6157200336456299,3,3,3,3,-9.6,1.4,-1.31,0.12,-0.16,-0.08
0.6157200336456299,3,3,3,3,-9.6,1.4,-1.31,0.12,-0.16,-0.08
0.6357200145721436,3,3,3,3,-9.630000000000001,1.44,-1.22,0.02,-0.15,-0.06
0.6357200145721436,3,3,3,3,-9.630000000000001,1.44,-1.22,0.02,-0.15,-0.06
0.6557199954986572,3,3,3,3,-9.609999999999999,1.42,-1.21,-0.1,-0.17,0
0.6557199954986572,3,3,3,3,-9.609999999999999,1.42,-1.21,-0.1,-0.17,0
0.6757199764251709,3,3,3,3,-9.630000000000001,1.44,-1.25,0.07000000000000001,0,-0.03
0.6757199764251709,3,3,3,3,-9.630000000000001,1.44,-1.25,0.07000000000000001,0,-0.03
0.6957199573516846,3,3,3,3,-9.59,1.42,-1.22,0.09,-0.15,0.08
0.6957199573516846,3,3,3,3,-9.59,1.42,-1.22,0.09,-0.15,0.08
0.7157199382781982,3,3,3,3,-9.65,1.43,-1.25,0.33,0,0.12
0.7157199382781982,3,3,3,3,-9.65,1.43,-1.25,0.33,0,0.12
0.7357199192047119,3,3,3,3,-9.640000000000001,1.47,-1.21,0.22,-0.04,0.1
0.7357199192047119,3,3,3,3,-9.640000000000001,1.47,-1.21,0.22,-0.04,0.1
0.7557201385498047,3,3,3,3,-9.66,1.47,-1.33,0.16,-0.09,0.02
0.7557201385498047,3,3,3,3,-9.66,1.47,-1.33,0.16,-0.09,0.02
0.7757201194763184,3,3,3,3,-9.6,1.5,-1.15,0.09,0,-0.03
0.7757201194763184,3,3,3,3,-9.6,1.5,-1.15,0.09,0,-0.03
0.795720100402832,3,3,3,3,-9.57,1.48,-1.16,0,0.09,-0.09
0.795720100402832,3,3,3,3,-9.57,1.48,-1.16,0,0.09,-0.09
0.8157200813293457,3,3,3,3,-9.56,1.47,-1.15,0.02,-0.01,-0.08
0.8157200813293457,3,3,3,3,-9.56,1.47,-1.15,0.02,-0.01,-0.08
0.8357200622558594,3,3,3,3,-9.619999999999999,1.59,-1.2,0.21,0.08,-0.07000000000000001
0.8357200622558594,3,3,3,3,-9.619999999999999,1.59,-1.2,0.21,0.08,-0.07000000000000001
0.855720043182373,3,3,3,3,-9.539999999999999,1.52,-1.33,0.01,0.01,-0.1
0.855720043182373,3,3,3,3,-9.539999999999999,1.52,-1.33,0.01,0.01,-0.1
0.8757200241088867,3,3,3,3,-9.59,1.42,-1.25,-0.01,0.07000000000000001,-0.15
0.8757200241088867,3,3,3,3,-9.59,1.42,-1.25,-0.01,0.07000000000000001,-0.15
0.8957200050354004,3,3,3,3,-9.52,1.41,-1.16,-0.06,0.02,-0.24
0.8957200050354004,3,3,3,3,-9.52,1.41,-1.16,-0.06,0.02,-0.24
0.9157199859619141,3,3,3,3,-9.619999999999999,1.43,-1.28,-0.01,-0.05,-0.26
0.9157199859619141,3,3,3,3,-9.619999999999999,1.43,-1.28,-0.01,-0.05,-0.26
0.9357199668884277,3,3,3,3,-9.630000000000001,1.44,-1.24,-0.05,0.04,-0.31
0.9357199668884277,3,3,3,3,-9.630000000000001,1.44,-1.24,-0.05,0.04,-0.31
0.9557199478149414,3,3,3,3,-9.630000000000001,1.39,-1.34,-0.12,-0.07000000000000001,-0.29
0.9557199478149414,3,3,3,3,-9.630000000000001,1.39,-1.34,-0.12,-0.07000000000000001,-0.29
0.9757199287414551,3,3,3,3,-9.609999999999999,1.36,-1.25,-0.03,0.05,-0.3
0.9757199287414551,3,3,3,3,-9.609999999999999,1.36,-1.25,-0.03,0.05,-0.3
0.9957201480865479,3,3,3,3,-9.59,1.34,-1.2,0.04,0.01,-0.27
0.9957201480865479,3,3,3,3,-9.59,1.34,-1.2,0.04,0.01,-0.27
1.015720129013062,3,3,3,3,-9.609999999999999,1.38,-1.25,-0.02,-0.07000000000000001,-0.33
1.015720129013062,3,3,3,3,-9.609999999999999,1.38,-1.25,-0.02,-0.07000000000000001,-0.33
1.035720109939575,3,3,3,3,-9.619999999999999,1.33,-1.2,0,0.01,-0.38
1.035720109939575,3,3,3,3,-9.619999999999999,1.33,-1.2,0,0.01,-0.38
1.055720090866089,3,3,3,3,-9.630000000000001,1.33,-1.4,-0.09,0.04,-0.28
1.055720090866089,3,3,3,3,-9.630000000000001,1.33,-1.4,-0.09,0.04,-0.28
1.075720071792603,3,3,3,3,-9.56,1.31,-1.26,-0.05,-0.01,-0.29
1.075720071792603,3,3,3,3,-9.56,1.31,-1.26,-0.05,-0.01,-0.29
1.095720052719116,3,3,3,3,-9.609999999999999,1.33,-1.25,0.09,0.02,-0.28
1.095720052719116,3,3,3,3,-9.609999999999999,1.33,-1.25,0.09,0.02,-0.28
1.11572003364563,3,3,3,3,-9.65,1.38,-1.27,0.1,0,-0.25
1.11572003364563,3,3,3,3,-9.65,1.38,-1.27,0.1,0,-0.25
1.135720014572144,3,3,3,3,-9.65,1.28,-1.21,0,0.02,-0.24
1.135720014572144,3,3,3,3,-9.65,1.28,-1.21,0,0.02,-0.24
1.155719995498657,3,3,3,3,-9.630000000000001,1.26,-1.32,-0.03,0.02,-0.29
1.155719995498657,3,3,3,3,-9.630000000000001,1.26,-1.32,-0.03,0.02,-0.29
1.175719976425171,3,3,3,3,-9.59,1.2,-1.24,-0.12,0,-0.22
1.175719976425171,3,3,3,3,-9.59,1.2,-1.24,-0.12,0,-0.22
1.195719957351685,3,3,3,3,-9.630000000000001,1.22,-1.19,-0.09,0.09,-0.22
1.195719957351685,3,3,3,3,-9.630000000000001,1.22,-1.19,-0.09,0.09,-0.22
1.215719938278198,3,3,3,3,-9.630000000000001,1.2,-1.28,-0.06,0.14,-0.19
1.215719938278198,3,3,3,3,-9.630000000000001,1.2,-1.28,-0.06,0.14,-0.19
1.235719919204712,3,3,3,3,-9.640000000000001,1.15,-1.23,-0.01,0.04,-0.17
1.235719919204712,3,3,3,3,-9.640000000000001,1.15,-1.23,-0.01,0.04,-0.17
1.255720138549805,3,3,3,3,-9.65,1.2,-1.33,-0.01,0.16,-0.2
1.255720138549805,3,3,3,3,-9.65,1.2,-1.33,-0.01,0.16,-0.2
1.275720119476318,3,3,3,3,-9.59,1.21,-1.19,-0.13,0.1,-0.14
1.275720119476318,3,3,3,3,-9.59,1.21,-1.19,-0.13,0.1,-0.14
1.295720100402832,3,3,3,3,-9.640000000000001,1.2,-1.24,-0.1,0.16,-0.12
1.295720100402832,3,3,3,3,-9.640000000000001,1.2,-1.24,-0.1,0.16,-0.12
1.315720081329346,3,3,3,3,-9.66,1.16,-1.32,-0.23,-0.03,-0.08
1.315720081329346,3,3,3,3,-9.66,1.16,-1.32,-0.23,-0.03,-0.08
1.335720062255859,3,3,3,3,-9.66,1.22,-1.22,-0.13,0.09,-0.09
1.335720062255859,3,3,3,3,-9.66,1.22,-1.22,-0.13,0.09,-0.09
1.355720043182373,3,3,3,3,-9.57,1.18,-1.36,-0.01,0.26,-0.19
1.355720043182373,3,3,3,3,-9.57,1.18,-1.36,-0.01,0.26,-0.19
1.375720024108887,3,3,3,3,-9.630000000000001,1.35,-1.26,-0.05,0.12,-0.06
1.375720024108887,3,3,3,3,-9.630000000000001,1.35,-1.26,-0.05,0.12,-0.06
1.3957200050354,3,3,3,3,-9.59,1.26,-1.31,-0.07000000000000001,0.11,-0.01
1.3957200050354,3,3,3,3,-9.59,1.26,-1.31,-0.07000000000000001,0.11,-0.01
1.415719985961914,3,3,3,3,-9.640000000000001,1.24,-1.31,0.12,0.13,0.06
1.415719985961914,3,3,3,3,-9.640000000000001,1.24,-1.31,0.12,0.13,0.06
1.435719966888428,3,3,3,3,-9.619999999999999,1.27,-1.23,0.11,0.04,0.09
1.435719966888428,3,3,3,3,-9.619999999999999,1.27,-1.23,0.11,0.04,0.09
1.455719947814941,3,3,3,3,-9.609999999999999,1.27,-1.32,0.24,0.32,0.02
1.455719947814941,3,3,3,3,-9.609999999999999,1.27,-1.32,0.24,0.32,0.02
1.475719928741455,3,3,3,3,-9.65,1.26,-1.26,0.12,0.29,0.07000000000000001
1.475719928741455,3,3,3,3,-9.65,1.26,-1.26,0.12,0.29,0.07000000000000001
1.495720148086548,3,3,3,3,-9.67,1.3,-1.25,0.05,0.15,0.06
1.495720148086548,3,3,3,3,-9.67,1.3,-1.25,0.05,0.15,0.06
1.515720129013062,3,3,3,3,-9.58,1.34,-1.24,0.07000000000000001,0.13,0.03
1.515720129013062,3,3,3,3,-9.58,1.34,-1.24,0.07000000000000001,0.13,0.03
1.535720109939575,3,3,3,3,-9.550000000000001,1.29,-1.33,0.09,0.13,0.05
1.535720109939575,3,3,3,3,-9.550000000000001,1.29,-1.33,0.09,0.13,0.05
1.556720018386841,3,3,3,3,-9.66,1.32,-1.42,0.06,0.37,0.14
1.556720018386841,3,3,3,3,-9.66,1.32,-1.42,0.06,0.37,0.14
1.576719999313354,3,3,3,3,-9.640000000000001,1.27,-1.31,-0.05,0.15,0.09
1.576719999313354,3,3,3,3,-9.640000000000001,1.27,-1.31,-0.05,0.15,0.09
1.596719980239868,3,3,3,3,-9.619999999999999,1.23,-1.34,0,0.05,0.09
1.596719980239868,3,3,3,3,-9.619999999999999,1.23,-1.34,0,0.05,0.09
1.616719961166382,3,3,3,3,-9.619999999999999,1.2,-1.29,-0.07000000000000001,-0.06,0.09
1.616719961166382,3,3,3,3,-9.619999999999999,1.2,-1.29,-0.07000000000000001,-0.06,0.09
1.636719942092896,3,3,3,3,-9.619999999999999,1.22,-1.25,-0.02,-0.01,0.06
1.636719942092896,3,3,3,3,-9.619999999999999,1.22,-1.25,-0.02,-0.01,0.06
1.656719923019409,3,3,3,3,-9.57,1.25,-1.4,0.16,0.06,-0.01
1.656719923019409,3,3,3,3,-9.57,1.25,-1.4,0.16,0.06,-0.01
1.676720142364502,3,3,3,3,-9.619999999999999,1.31,-1.32,0.21,0.15,0.09
1.676720142364502,3,3,3,3,-9.619999999999999,1.31,-1.32,0.21,0.15,0.09
1.696720123291016,3,3,3,3,-9.619999999999999,1.3,-1.31,0.09,0.14,0.07000000000000001
1.696720123291016,3,3,3,3,-9.619999999999999,1.3,-1.31,0.09,0.14,0.07000000000000001
1.716720104217529,3,3,3,3,-9.59,1.28,-1.29,0.01,0.07000000000000001,0.06
1.716720104217529,3,3,3,3,-9.59,1.28,-1.29,0.01,0.07000000000000001,0.06
1.736720085144043,3,3,3,3,-9.59,1.21,-1.21,0.01,0.01,0.1
1.736720085144043,3,3,3,3,-9.59,1.21,-1.21,0.01,0.01,0.1
1.756720066070557,3,3,3,3,-9.630000000000001,1.2,-1.41,0.02,-0.09,-0.03
1.756720066070557,3,3,3,3,-9.630000000000001,1.2,-1.41,0.02,-0.09,-0.03
1.77672004699707,3,3,3,3,-9.640000000000001,1.28,-1.34,-0.08,0.13,0.02
1.77672004699707,3,3,3,3,-9.640000000000001,1.28,-1.34,-0.08,0.13,0.02
1.796720027923584,3,3,3,3,-9.58,1.22,-1.31,-0.02,0.09,0.09
1.796720027923584,3,3,3,3,-9.58,1.22,-1.31,-0.02,0.09,0.09
1.816720008850098,3,3,3,3,-9.630000000000001,1.18,-1.31,-0.01,0.03,0.08
1.816720008850098,3,3,3,3,-9.630000000000001,1.18,-1.31,-0.01,0.03,0.08
1.836719989776611,3,3,3,3,-9.609999999999999,1.15,-1.23,-0.13,0.01,-0.01
1.836719989776611,3,3,3,3,-9.609999999999999,1.15,-1.23,-0.13,0.01,-0.01
1.856719970703125,3,3,3,3,-9.59,1.2,-1.33,-0.2,0.18,0.12
1.856719970703125,3,3,3,3,-9.59,1.2,-1.33,-0.2,0.18,0.12
1.876719951629639,3,3,3,3,-9.640000000000001,1.08,-1.27,0.02,0.15,0.07000000000000001
1.876719951629639,3,3,3,3,-9.640000000000001,1.08,-1.27,0.02,0.15,0.07000000000000001
1.896719932556152,3,3,3,3,-9.68,1.18,-1.3,0.13,0.08,0.13
1.896719932556152,3,3,3,3,-9.68,1.18,-1.3,0.13,0.08,0.13
1.916719913482666,3,3,3,3,-9.640000000000001,1.31,-1.35,0.13,0,0.18
1.916719913482666,3,3,3,3,-9.640000000000001,1.31,-1.35,0.13,0,0.18
1.936720132827759,3,3,3,3,-9.58,1.26,-1.28,0.09,-0.08,0.18
1.936720132827759,3,3,3,3,-9.58,1.26,-1.28,0.09,-0.08,0.18
1.956720113754272,3,3,3,3,-9.619999999999999,1.22,-1.41,0.21,0.06,0.34
1.956720113754272,3,3,3,3,-9.619999999999999,1.22,-1.41,0.21,0.06,0.34
1.976720094680786,3,3,3,3,-9.640000000000001,1.32,-1.36,0.18,-0.03,0.25
1.976720094680786,3,3,3,3,-9.640000000000001,1.32,-1.36,0.18,-0.03,0.25
1.9967200756073,3,3,3,3,-9.56,1.32,-1.27,0.15,-0.01,0.3
1.9967200756073,3,3,3,3,-9.56,1.32,-1.27,0.15,-0.01,0.3
2.016720056533813,3,3,3,3,-9.6,1.36,-1.38,0.22,-0.11,0.41
2.016720056533813,3,3,3,3,-9.6,1.36,-1.38,0.22,-0.11,0.41
2.036720037460327,3,3,3,3,-9.66,1.24,-1.36,0.3,-0.14,0.44
2.036720037460327,3,3,3,3,-9.66,1.24,-1.36,0.3,-0.14,0.44
2.056720018386841,3,3,3,3,-9.57,1.31,-1.27,0.11,0.19,0.36
2.056720018386841,3,3,3,3,-9.57,1.31,-1.27,0.11,0.19,0.36
2.076719999313354,3,3,3,3,-9.609999999999999,1.21,-1.29,0.17,0.02,0.41
2.076719999313354,3,3,3,3,-9.609999999999999,1.21,-1.29,0.17,0.02,0.41
2.096719980239868,3,3,3,3,-9.630000000000001,1.26,-1.35,0.09,-0.06,0.43
2.096719980239868,3,3,3,3,-9.630000000000001,1.26,-1.35,0.09,-0.06,0.43
2.116719961166382,3,3,3,3,-9.6,1.27,-1.33,0.12,-0.08,0.41
2.116719961166382,3,3,3,3,-9.6,1.27,-1.33,0.12,-0.08,0.41
2.136719942092896,3,3,3,2,-9.619999999999999,1.32,-1.24,0.32,-0.04,0.47
2.136719942092896,3,3,3,2,-9.619999999999999,1.32,-1.24,0.32,-0.04,0.47
2.156719923019409,3,3,3,2,-9.640000000000001,1.32,-1.38,0.25,0,0.41
2.156719923019409,3,3,3,2,-9.640000000000001,1.32,-1.38,0.25,0,0.41
2.176720142364502,3,3,3,2,-9.609999999999999,1.36,-1.33,0.24,0.04,0.5
2.176720142364502,3,3,3,2,-9.609999999999999,1.36,-1.33,0.24,0.04,0.5
2.196720123291016,3,3,3,2,-9.58,1.39,-1.28,0.18,0.07000000000000001,0.45
2.196720123291016,3,3,3,2,-9.58,1.39,-1.28,0.18,0.07000000000000001,0.45
2.216720104217529,3,3,3,2,-9.609999999999999,1.29,-1.31,0.24,0.1,0.44
2.216720104217529,3,3,3,2,-9.609999999999999,1.29,-1.31,0.24,0.1,0.44
2.236720085144043,3,3,3,2,-9.68,1.32,-1.27,0.15,0.07000000000000001,0.47
2.236720085144043,3,3,3,2,-9.68,1.32,-1.27,0.15,0.07000000000000001,0.47
2.256720066070557,3,3,3,2,-9.59,1.39,-1.38,0.12,-0.13,0.39
2.256720066070557,3,3,3,2,-9.59,1.39,-1.38,0.12,-0.13,0.39
2.27672004699707,3,3,3,2,-9.640000000000001,1.41,-1.29,0.23,0.05,0.47
2.27672004699707,3,3,3,2,-9.640000000000001,1.41,-1.29,0.23,0.05,0.47
2.296720027923584,3,3,3,2,-9.6,1.38,-1.34,0.28,0.26,0.41
2.296720027923584,3,3,3,2,-9.6,1.38,-1.34,0.28,0.26,0.41
2.316720008850098,3,3,3,2,-9.609999999999999,1.36,-1.33,0.11,0.12,0.33
2.316720008850098,3,3,3,2,-9.609999999999999,1.36,-1.33,0.11,0.12,0.33
2.356719970703125,3,3,3,2,-9.58,1.52,-1.48,0.14,0.23,0.23
2.356719970703125,3,3,3,2,-9.58,1.52,-1.48,0.14,0.23,0.23
2.376719951629639,3,3,3,2,-9.529999999999999,1.48,-1.32,0.08,0.08,0.33
2.376719951629639,3,3,3,2,-9.529999999999999,1.48,-1.32,0.08,0.08,0.33
2.396719932556152,3,3,3,2,-9.57,1.44,-1.23,0.04,0.1,0.31
2.396719932556152,3,3,3,2,-9.57,1.44,-1.23,0.04,0.1,0.31
2.416719913482666,3,3,3,2,-9.630000000000001,1.39,-1.37,0.07000000000000001,0.03,0.28
2.416719913482666,3,3,3,2,-9.630000000000001,1.39,-1.37,0.07000000000000001,0.03,0.28
2.436720132827759,3,3,3,2,-9.59,1.45,-1.31,0.12,0.04,0.22
2.436720132827759,3,3,3,2,-9.59,1.45,-1.31,0.12,0.04,0.22
2.456720113754272,3,3,3,2,-9.550000000000001,1.5,-1.37,0.19,0.14,0.28
2.456720113754272,3,3,3,2,-9.550000000000001,1.5,-1.37,0.19,0.14,0.28
2.476720094680786,3,3,3,2,-9.59,1.51,-1.29,0.15,0.1,0.27
2.476720094680786,3,3,3,2,-9.59,1.51,-1.29,0.15,0.1,0.27
2.4967200756073,3,3,3,2,-9.619999999999999,1.35,-1.35,-0.04,0.02,0.24
2.4967200756073,3,3,3,2,-9.619999999999999,1.35,-1.35,-0.04,0.02,0.24
2.516720056533813,3,3,3,2,-9.619999999999999,1.41,-1.42,-0.02,0.02,0.17
2.516720056533813,3,3,3,2,-9.619999999999999,1.41,-1.42,-0.02,0.02,0.17
2.536720037460327,3,3,3,2,-9.539999999999999,1.45,-1.32,0.04,0,0.16
2.536720037460327,3,3,3,2,-9.539999999999999,1.45,-1.32,0.04,0,0.16
2.556720018386841,3,3,3,2,-9.58,1.5,-1.38,0.2,0.26,0.09
2.556720018386841,3,3,3,2,-9.58,1.5,-1.38,0.2,0.26,0.09
2.577719926834106,3,3,3,2,-9.609999999999999,1.43,-1.34,0.16,0.17,0.18
2.577719926834106,3,3,3,2,-9.609999999999999,1.43,-1.34,0.16,0.17,0.18
2.597720146179199,3,3,3,2,-9.56,1.43,-1.29,0.09,0.11,0.14
2.597720146179199,3,3,3,2,-9.56,1.43,-1.29,0.09,0.11,0.14
2.617720127105713,3,3,3,2,-9.6,1.48,-1.39,0.16,-0.01,0.15
2.617720127105713,3,3,3,2,-9.6,1.48,-1.39,0.16,-0.01,0.15
2.637720108032227,3,3,3,2,-9.57,1.5,-1.26,0.12,-0.07000000000000001,0.11
2.637720108032227,3,3,3,2,-9.57,1.5,-1.26,0.12,-0.07000000000000001,0.11
2.65772008895874,3,3,3,2,-9.609999999999999,1.45,-1.46,-0.05,0.13,0.24
2.65772008895874,3,3,3,2,-9.609999999999999,1.45,-1.46,-0.05,0.13,0.24
2.677720069885254,3,3,3,2,-9.58,1.47,-1.3,-0.03,0.11,0.06
2.677720069885254,3,3,3,2,-9.58,1.47,-1.3,-0.03,0.11,0.06
2.697720050811768,3,3,3,2,-9.6,1.49,-1.34,-0.01,0.12,0.03
2.697720050811768,3,3,3,2,-9.6,1.49,-1.34,-0.01,0.12,0.03
2.717720031738281,3,3,3,2,-9.58,1.48,-1.36,-0.09,0.03,0.03
2.717720031738281,3,3,3,2,-9.58,1.48,-1.36,-0.09,0.03,0.03
2.737720012664795,3,3,3,2,-9.619999999999999,1.4,-1.31,-0.13,0.01,0.03
2.737720012664795,3,3,3,2,-9.619999999999999,1.4,-1.31,-0.13,0.01,0.03
2.757719993591309,3,3,3,2,-9.6,1.42,-1.39,-0.03,-0.01,0.01
2.757719993591309,3,3,3,2,-9.6,1.42,-1.39,-0.03,-0.01,0.01
2.777719974517822,3,3,3,2,-9.57,1.49,-1.37,0.07000000000000001,0.05,0.02
2.777719974517822,3,3,3,2,-9.57,1.49,-1.37,0.07000000000000001,0.05,0.02
2.797719955444336,3,3,3,2,-9.609999999999999,1.43,-1.39,-0.16,-0.04,0.01
2.797719955444336,3,3,3,2,-9.609999999999999,1.43,-1.39,-0.16,-0.04,0.01
2.81771993637085,3,3,3,2,-9.470000000000001,1.45,-1.36,-0.2,0.1,-0.02
2.81771993637085,3,3,3,2,-9.470000000000001,1.45,-1.36,-0.2,0.1,-0.02
2.837719917297363,3,3,3,2,-9.59,1.5,-1.26,0.02,0.23,-0.05
2.837719917297363,3,3,3,2,-9.59,1.5,-1.26,0.02,0.23,-0.05
2.857720136642456,3,3,3,2,-9.57,1.43,-1.44,-0.04,0.04,-0.03
2.857720136642456,3,3,3,2,-9.57,1.43,-1.44,-0.04,0.04,-0.03
2.87772011756897,3,3,3,2,-9.619999999999999,1.32,-1.32,-0.07000000000000001,0.07000000000000001,0.02
2.87772011756897,3,3,3,2,-9.619999999999999,1.32,-1.32,-0.07000000000000001,0.07000000000000001,0.02
2.897720098495483,3,3,3,2,-9.5,1.39,-1.32,0.09,0.11,-0.03
2.897720098495483,3,3,3,2,-9.5,1.39,-1.32,0.09,0.11,-0.03
2.917720079421997,3,3,3,2,-9.56,1.53,-1.34,0.09,0.17,-0.08
2.917720079421997,3,3,3,2,-9.56,1.53,-1.34,0.09,0.17,-0.08
2.937720060348511,3,3,3,2,-9.59,1.5,-1.36,0.02,0.1,-0.07000000000000001
2.937720060348511,3,3,3,2,-9.59,1.5,-1.36,0.02,0.1,-0.07000000000000001
2.957720041275024,3,3,3,2,-9.6,1.41,-1.48,-0.06,-0.01,0
2.957720041275024,3,3,3,2,-9.6,1.41,-1.48,-0.06,-0.01,0
2.977720022201538,3,3,3,2,-9.539999999999999,1.46,-1.38,-0.05,0.06,-0.09
2.977720022201538,3,3,3,2,-9.539999999999999,1.46,-1.38,-0.05,0.06,-0.09
2.997720003128052,3,3,3,2,-9.539999999999999,1.41,-1.34,-0.08,-0.07000000000000001,-0.08
2.997720003128052,3,3,3,2,-9.539999999999999,1.41,-1.34,-0.08,-0.07000000000000001,-0.08
3.017719984054565,3,3,3,2,-9.640000000000001,1.35,-1.36,-0.07000000000000001,0.12,-0.07000000000000001
3.017719984054565,3,3,3,2,-9.640000000000001,1.35,-1.36,-0.07000000000000001,0.12,-0.07000000000000001
3.037719964981079,3,3,3,2,-9.66,1.31,-1.28,-0.23,0.1,-0.08
3.037719964981079,3,3,3,2,-9.66,1.31,-1.28,-0.23,0.1,-0.08
3.057719945907593,3,3,3,2,-9.5,1.25,-1.44,-0.18,-0.05,-0.12
3.057719945907593,3,3,3,2,-9.5,1.25,-1.44,-0.18,-0.05,-0.12
3.077719926834106,3,3,3,2,-9.57,1.18,-1.21,-0.24,0.18,-0.23
3.077719926834106,3,3,3,2,-9.57,1.18,-1.21,-0.24,0.18,-0.23
3.097720146179199,3,3,3,2,-9.619999999999999,0.99,-1.07,-0.48,0.19,-0.39
3.097720146179199,3,3,3,2,-9.619999999999999,0.99,-1.07,-0.48,0.19,-0.39
3.117720127105713,3,3,3,2,-9.69,0.9,-1.05,-0.67,0.29,-0.6899999999999999
3.117720127105713,3,3,3,2,-9.69,0.9,-1.05,-0.67,0.29,-0.6899999999999999
3.137720108032227,3,3,3,2,-9.74,1.11,-1.14,-1.12,0.19,-0.93
3.137720108032227,3,3,3,2,-9.74,1.11,-1.14,-1.12,0.19,-0.93
3.15772008895874,3,3,3,2,-9.56,1.13,-1.35,-1.33,0.27,-1.04
3.15772008895874,3,3,3,2,-9.56,1.13,-1.35,-1.33,0.27,-1.04
3.177720069885254,3,3,3,2,-9.59,1.28,-1.34,-1.17,0.31,-0.95
3.177720069885254,3,3,3,2,-9.59,1.28,-1.34,-1.17,0.31,-0.95
3.197720050811768,3,3,3,3,-9.67,1.12,-1.4,-0.87,0.12,-0.85
3.197720050811768,3,3,3,3,-9.67,1.12,-1.4,-0.87,0.12,-0.85
3.217720031738281,3,3,3,3,-9.550000000000001,1.03,-1.31,-0.79,0.21,-0.82
3.217720031738281,3,3,3,3,-9.550000000000001,1.03,-1.31,-0.79,0.21,-0.82
3.237720012664795,3,3,3,3,-9.59,1.09,-1.37,-0.39,0.12,-0.66
3.237720012664795,3,3,3,3,-9.59,1.09,-1.37,-0.39,0.12,-0.66
3.257719993591309,3,3,3,3,-9.58,1.29,-1.48,-0.27,0.3,-0.74
3.257719993591309,3,3,3,3,-9.58,1.29,-1.48,-0.27,0.3,-0.74
3.277719974517822,3,3,3,3,-9.6,1.06,-1.42,-0.14,0.14,-0.5600000000000001
3.277719974517822,3,3,3,3,-9.6,1.06,-1.42,-0.14,0.14,-0.5600000000000001
3.297719955444336,3,3,3,3,-9.630000000000001,1.03,-1.4,0.23,0.02,-0.46
3.297719955444336,3,3,3,3,-9.630000000000001,1.03,-1.4,0.23,0.02,-0.46
3.31771993637085,3,3,3,3,-9.630000000000001,0.97,-1.37,0.48,-0.04,-0.4
3.31771993637085,3,3,3,3,-9.630000000000001,0.97,-1.37,0.48,-0.04,-0.4
3.337719917297363,3,3,3,3,-9.75,0.88,-1.28,0.48,-0.08,-0.5600000000000001
3.337719917297363,3,3,3,3,-9.75,0.88,-1.28,0.48,-0.08,-0.5600000000000001
3.357720136642456,3,3,3,3,-9.619999999999999,0.92,-1.22,0.23,-0.26,-0.79
3.357720136642456,3,3,3,3,-9.619999999999999,0.92,-1.22,0.23,-0.26,-0.79
3.37772011756897,3,3,3,3,-9.57,0.77,-1.05,0.4,0.01,-1.04
3.37772011756897,3,3,3,3,-9.57,0.77,-1.05,0.4,0.01,-1.04
3.397720098495483,3,3,3,3,-9.640000000000001,0.37,-0.82,0.18,-0.14,-1.36
3.397720098495483,3,3,3,3,-9.640000000000001,0.37,-0.82,0.18,-0.14,-1.36
3.417720079421997,3,3,3,3,-9.720000000000001,0.19,-1.03,-0.6,-0.64,-1.94
3.417720079421997,3,3,3,3,-9.720000000000001,0.19,-1.03,-0.6,-0.64,-1.94
3.437720060348511,3,3,3,3,-9.539999999999999,-0.17,-0.87,-0.07000000000000001,-0.33,-2.22
3.437720060348511,3,3,3,3,-9.539999999999999,-0.17,-0.87,-0.07000000000000001,-0.33,-2.22
3.457720041275024,3,3,3,3,-9.529999999999999,-1.18,-0.51,0.48,-1.08,-2.45
3.457720041275024,3,3,3,3,-9.529999999999999,-1.18,-0.51,0.48,-1.08,-2.45
3.477720022201538,3,3,3,3,-9.289999999999999,-1.01,0,0.68,-1.66,-3.5
3.477720022201538,3,3,3,3,-9.289999999999999,-1.01,0,0.68,-1.66,-3.5
3.497720003128052,3,3,3,3,-9.66,-0.24,-0.58,0.65,-1.56,-4.36
3.497720003128052,3,3,3,3,-9.66,-0.24,-0.58,0.65,-1.56,-4.36
3.517719984054565,3,3,3,3,-9.619999999999999,0.19,-0.76,1.79,-1.68,-4.66
3.517719984054565,3,3,3,3,-9.619999999999999,0.19,-0.76,1.79,-1.68,-4.66
3.537719964981079,3,3,3,3,-9.619999999999999,0.09,-1.11,1.51,-1.63,-4.63
3.537719964981079,3,3,3,3,-9.619999999999999,0.09,-1.11,1.51,-1.63,-4.63
3.557719945907593,3,3,3,3,-9.51,0.65,-0.99,-1.17,-1.66,-5.15
3.557719945907593,3,3,3,3,-9.51,0.65,-0.99,-1.17,-1.66,-5.15
3.577719926834106,3,3,3,3,-9.35,0.87,-1.41,-1.98,-1.35,-5.18
3.577719926834106,3,3,3,3,-9.35,0.87,-1.41,-1.98,-1.35,-5.18
3.598720073699951,3,3,3,3,-9.279999999999999,1.33,-1.2,-0.61,-0.97,-5.43
3.598720073699951,3,3,3,3,-9.279999999999999,1.33,-1.2,-0.61,-0.97,-5.43
3.618720054626465,3,3,3,3,-9.5,-0.55,-0.68,-2.49,-3.12,-5.69
3.618720054626465,3,3,3,3,-9.5,-0.55,-0.68,-2.49,-3.12,-5.69
3.638720035552979,3,3,3,3,-9.130000000000001,-1.4,-0.25,-2.21,-3.52,-6.19
3.638720035552979,3,3,3,3,-9.130000000000001,-1.4,-0.25,-2.21,-3.52,-6.19
3.658720016479492,3,3,3,3,-8.85,-1.83,0.08,-0.83,-3.02,-7.26
3.658720016479492,3,3,3,3,-8.85,-1.83,0.08,-0.83,-3.02,-7.26
3.678719997406006,3,3,3,3,-8.699999999999999,-1.81,0.14,0.14,-2.57,-7.75
3.678719997406006,3,3,3,3,-8.699999999999999,-1.81,0.14,0.14,-2.57,-7.75
3.69871997833252,3,3,3,3,-8.640000000000001,-1.58,0.13,-0.92,-3.51,-8.35
3.69871997833252,3,3,3,3,-8.640000000000001,-1.58,0.13,-0.92,-3.51,-8.35
3.718719959259033,3,3,3,3,-9.109999999999999,-1.84,0.77,-0.9399999999999999,-2.38,-8.98
3.718719959259033,3,3,3,3,-9.109999999999999,-1.84,0.77,-0.9399999999999999,-2.38,-8.98
3.738719940185547,3,3,3,3,-9.31,-1.54,0,-0.48,-2.39,-9.050000000000001
3.738719940185547,3,3,3,3,-9.31,-1.54,0,-0.48,-2.39,-9.050000000000001
3.758719921112061,3,3,3,3,-8.24,-1.24,-0.44,0.27,-1.94,-10.42
3.758719921112061,3,3,3,3,-8.24,-1.24,-0.44,0.27,-1.94,-10.42
3.778720140457153,3,3,3,3,-8.199999999999999,-1.28,-0.92,-0.41,-2.9,-11.02
3.778720140457153,3,3,3,3,-8.199999999999999,-1.28,-0.92,-0.41,-2.9,-11.02
3.798720121383667,3,3,3,3,-8.220000000000001,-0.74,-0.92,0.5,-3.29,-11.84
3.798720121383667,3,3,3,3,-8.220000000000001,-0.74,-0.92,0.5,-3.29,-11.84
3.818720102310181,3,3,3,3,-10.07,-2.6,-0.5600000000000001,0.43,-3.57,-10.75
3.818720102310181,3,3,3,3,-10.07,-2.6,-0.5600000000000001,0.43,-3.57,-10.75
3.838720083236694,3,3,3,3,-11.02,-0.8100000000000001,0.07000000000000001,1.78,-2.92,-10.01
3.838720083236694,3,3,3,3,-11.02,-0.8100000000000001,0.07000000000000001,1.78,-2.92,-10.01
3.858720064163208,3,3,3,3,-10.3,0.05,0.09,-1.13,-1.33,-10.47
3.858720064163208,3,3,3,3,-10.3,0.05,0.09,-1.13,-1.33,-10.47
3.878720045089722,3,3,3,3,-10.05,-0.48,-0.6,-2.85,-1.27,-10.52
3.878720045089722,3,3,3,3,-10.05,-0.48,-0.6,-2.85,-1.27,-10.52
3.898720026016235,3,3,3,3,-10.83,-0.28,-1.43,-4.66,-0.74,-8.5
3.898720026016235,3,3,3,3,-10.83,-0.28,-1.43,-4.66,-0.74,-8.5
3.918720006942749,3,3,3,3,-11.87,0.15,-2.54,-4.79,-0.2,-5.02
3.918720006942749,3,3,3,3,-11.87,0.15,-2.54,-4.79,-0.2,-5.02
3.938719987869263,3,3,3,3,-13.17,1.49,-3.53,-3.8,0.3,-3.09
3.938719987869263,3,3,3,3,-13.17,1.49,-3.53,-3.8,0.3,-3.09
3.958719968795776,3,3,3,3,-13.7,1.47,-4.01,-2.55,0.95,3.22
3.958719968795776,3,3,3,3,-13.7,1.47,-4.01,-2.55,0.95,3.22
3.97871994972229,3,3,3,3,-15.76,0.88,-4.07,-2.58,0.9,5.23
3.97871994972229,3,3,3,3,-15.76,0.88,-4.07,-2.58,0.9,5.23
3.998719930648804,3,3,3,3,-17.74,2.03,-2.98,-2.65,0.27,10.23
3.998719930648804,3,3,3,3,-17.74,2.03,-2.98,-2.65,0.27,10.23
4.018720149993896,3,3,3,3,-19.75,4.54,-0.97,-4.29,-0.49,13.22
4.018720149993896,3,3,3,3,-19.75,4.54,-0.97,-4.29,-0.49,13.22
4.03872013092041,3,3,3,3,-20.63,6.75,-0.55,-5.49,-0.82,15.19
4.03872013092041,3,3,3,3,-20.63,6.75,-0.55,-5.49,-0.82,15.19
4.058720111846924,3,3,3,3,-23.14,9.43,-2.62,-11.55,-1.58,22.36
4.058720111846924,3,3,3,3,-23.14,9.43,-2.62,-11.55,-1.58,22.36
4.078720092773438,3,3,3,3,-25.32,8.68,-5.92,-13.49,-0.41,24.02
4.078720092773438,3,3,3,3,-25.32,8.68,-5.92,-13.49,-0.41,24.02
4.098720073699951,3,3,3,3,-26.47,-3.04,-7.85,-9.15,6.62,23.38
4.098720073699951,3,3,3,3,-26.47,-3.04,-7.85,-9.15,6.62,23.38
4.118720054626465,3,3,3,3,-23.08,-11.47,-4.69,6.66,8.720000000000001,21.42
4.118720054626465,3,3,3,3,-23.08,-11.47,-4.69,6.66,8.720000000000001,21.42
4.138720035552979,3,3,3,2,-12.52,-4.38,1.07,13.14,8.73,19.62
4.138720035552979,3,3,3,2,-12.52,-4.38,1.07,13.14,8.73,19.62
4.158720016479492,3,3,3,2,-5.01,-4.75,0.77,-2.73,4.76,14.02
4.158720016479492,3,3,3,2,-5.01,-4.75,0.77,-2.73,4.76,14.02
4.178719997406006,3,3,3,2,-2.14,-26.88,12.03,-4.15,3.81,8.779999999999999
4.178719997406006,3,3,3,2,-2.14,-26.88,12.03,-4.15,3.81,8.779999999999999
4.19871997833252,3,3,3,2,-4.72,-14.89,10.07,4.59,-0.21,-1.51
4.19871997833252,3,3,3,2,-4.72,-14.89,10.07,4.59,-0.21,-1.51
4.218719959259033,3,3,3,2,-3.67,4.74,2.62,-1.67,1.37,-3.89
4.218719959259033,3,3,3,2,-3.67,4.74,2.62,-1.67,1.37,-3.89
4.238719940185547,3,3,3,2,-2.54,2.1,-0.65,-6.1,3.18,-5.57
4.238719940185547,3,3,3,2,-2.54,2.1,-0.65,-6.1,3.18,-5.57
4.258719921112061,3,3,3,2,0.57,1.27,-2.88,-2.67,-1.51,-6.26
4.258719921112061,3,3,3,2,0.57,1.27,-2.88,-2.67,-1.51,-6.26
4.278720140457153,3,3,3,2,2.25,5.38,-3.11,0.72,-0.88,-5.32
4.278720140457153,3,3,3,2,2.25,5.38,-3.11,0.72,-0.88,-5.32
4.298720121383667,3,3,3,2,1.18,5.95,-1.7,-0.13,-4.03,-5.28
4.298720121383667,3,3,3,2,1.18,5.95,-1.7,-0.13,-4.03,-5.28
4.318720102310181,3,3,3,2,-0.86,1.19,0.42,-2.29,-5.75,-4.67
4.318720102310181,3,3,3,2,-0.86,1.19,0.42,-2.29,-5.75,-4.67
4.338720083236694,3,3,3,2,-0.6899999999999999,-1.55,0.34,-3.63,-5.35,-4.43
4.338720083236694,3,3,3,2,-0.6899999999999999,-1.55,0.34,-3.63,-5.35,-4.43
4.358720064163208,3,3,3,2,0.12,-2.51,-0.05,-2.12,-1.42,-4.01
4.358720064163208,3,3,3,2,0.12,-2.51,-0.05,-2.12,-1.42,-4.01
4.378720045089722,3,3,3,2,0.44,-1.02,-0.05,-0.08,-1.26,-3.52
4.378720045089722,3,3,3,2,0.44,-1.02,-0.05,-0.08,-1.26,-3.52
4.398720026016235,3,3,3,2,0.51,-1.26,-0.09,3.96,-1.38,-2.79
4.398720026016235,3,3,3,2,0.51,-1.26,-0.09,3.96,-1.38,-2.79
4.418720006942749,3,3,3,2,0.14,-1.88,0.45,8.81,-1.22,-2.5
4.418720006942749,3,3,3,2,0.14,-1.88,0.45,8.81,-1.22,-2.5
4.438719987869263,3,3,3,2,-0.08,-2.48,-0.4,10.8,0.01,-1.77
4.438719987869263,3,3,3,2,-0.08,-2.48,-0.4,10.8,0.01,-1.77
4.458719968795776,3,3,3,2,0.16,-2.06,-2.05,14.84,2.11,0.68
4.458719968795776,3,3,3,2,0.16,-2.06,-2.05,14.84,2.11,0.68
4.47871994972229,3,3,3,2,-1.03,0.83,-1.55,13.49,4.16,0.23
4.47871994972229,3,3,3,2,-1.03,0.83,-1.55,13.49,4.16,0.23
4.498719930648804,3,3,3,2,0.01,-10.38,5.71,1.17,-4.29,-0.01
4.498719930648804,3,3,3,2,0.01,-10.38,5.71,1.17,-4.29,-0.01
4.518720149993896,3,3,3,2,-14.49,-0.11,-1.16,-1.66,-7.84,-4.57
4.518720149993896,3,3,3,2,-14.49,-0.11,-1.16,-1.66,-7.84,-4.57
4.53872013092041,3,3,3,2,-18.99,22.1,-2.38,11.47,-20.29,-2.71
4.53872013092041,3,3,3,2,-18.99,22.1,-2.38,11.47,-20.29,-2.71
4.558720111846924,3,3,3,2,-17.53,-3.12,-10.39,-11.73,6.75,-11.2
4.558720111846924,3,3,3,2,-17.53,-3.12,-10.39,-11.73,6.75,-11.2
4.578720092773438,3,3,3,2,-8.25,-7.74,-3.68,-16.89,6.2,-16.84
4.578720092773438,3,3,3,2,-8.25,-7.74,-3.68,-16.89,6.2,-16.84
4.598720073699951,3,3,3,2,-38.76,2.33,-0.09,18.61,-4.5,-13.95
4.598720073699951,3,3,3,2,-38.76,2.33,-0.09,18.61,-4.5,-13.95
4.618720054626465,3,3,3,2,-8.029999999999999,37.95,-0.03,35.21,7.62,-8.289999999999999
4.618720054626465,3,3,3,2,-8.029999999999999,37.95,-0.03,35.21,7.62,-8.289999999999999
4.63971996307373,3,3,3,2,-13.17,25.7,2.14,-11.65,1.78,-4.56
4.63971996307373,3,3,3,2,-13.17,25.7,2.14,-11.65,1.78,-4.56
4.659719944000244,3,3,3,2,-17.63,-0.86,-1.05,-18.94,-3.78,0.95
4.659719944000244,3,3,3,2,-17.63,-0.86,-1.05,-18.94,-3.78,0.95
4.679719924926758,3,3,3,2,-18.88,-0.28,-1.77,-4.12,-3.95,4.78
4.679719924926758,3,3,3,2,-18.88,-0.28,-1.77,-4.12,-3.95,4.78
4.699720144271851,3,3,3,2,-13.14,2.83,-2.94,3.87,-2.24,4.84
4.699720144271851,3,3,3,2,-13.14,2.83,-2.94,3.87,-2.24,4.84
4.719720125198364,3,3,3,2,-11.06,0.88,-2.31,3.47,-0.1,5.15
4.719720125198364,3,3,3,2,-11.06,0.88,-2.31,3.47,-0.1,5.15
4.739720106124878,3,3,3,2,-11.48,-0.24,-2.3,4.47,0.54,7.73
4.739720106124878,3,3,3,2,-11.48,-0.24,-2.3,4.47,0.54,7.73
4.759720087051392,3,3,3,2,-9.07,1.43,-2.81,6.51,1.81,10.12
4.759720087051392,3,3,3,2,-9.07,1.43,-2.81,6.51,1.81,10.12
4.779720067977905,3,3,3,2,-7.35,3.06,-2.26,3.09,2.57,10.2
4.779720067977905,3,3,3,2,-7.35,3.06,-2.26,3.09,2.57,10.2
4.799720048904419,3,3,3,2,-7.9,2.56,-2.21,-2.91,3.87,7.68
4.799720048904419,3,3,3,2,-7.9,2.56,-2.21,-2.91,3.87,7.68
4.819720029830933,3,3,3,2,-7.4,-1.31,-1.37,-8.029999999999999,5.79,5.81
4.819720029830933,3,3,3,2,-7.4,-1.31,-1.37,-8.029999999999999,5.79,5.81
4.839720010757446,3,3,3,2,-7.59,-3.84,-0.46,-8.42,5.3,5.44
4.839720010757446,3,3,3,2,-7.59,-3.84,-0.46,-8.42,5.3,5.44
4.85971999168396,3,3,3,2,-6.88,-5.41,0.83,-3.69,4.44,5.67
4.85971999168396,3,3,3,2,-6.88,-5.41,0.83,-3.69,4.44,5.67
4.879719972610474,3,3,3,2,-7.27,-5.51,0.95,0.43,3.13,4.57
4.879719972610474,3,3,3,2,-7.27,-5.51,0.95,0.43,3.13,4.57
4.899719953536987,3,3,3,2,-9.17,-6.12,2.01,3.13,1.09,3.11
4.899719953536987,3,3,3,2,-9.17,-6.12,2.01,3.13,1.09,3.11
4.919719934463501,3,3,3,2,-10.08,-3.22,2.24,5.82,0.62,2.27
4.919719934463501,3,3,3,2,-10.08,-3.22,2.24,5.82,0.62,2.27
4.939719915390015,3,3,3,2,-10.04,0.2,1.27,3.83,0.75,0.96
4.939719915390015,3,3,3,2,-10.04,0.2,1.27,3.83,0.75,0.96
4.959720134735107,3,3,3,2,-9.039999999999999,0.35,-0.04,-0.14,0.9,-0.19
4.959720134735107,3,3,3,2,-9.039999999999999,0.35,-0.04,-0.14,0.9,-0.19
4.979720115661621,3,3,3,2,-9.470000000000001,-0.84,-1.17,-1.03,0.52,-0.09
4.979720115661621,3,3,3,2,-9.470000000000001,-0.84,-1.17,-1.03,0.52,-0.09
4.999720096588135,3,3,3,2,-9.960000000000001,-0.72,-1.76,-0.53,-0.34,0.4
4.999720096588135,3,3,3,2,-9.960000000000001,-0.72,-1.76,-0.53,-0.34,0.4
5.019720077514648,3,3,3,2,-10.29,0.87,-2.18,0.83,-0.16,1.08
5.019720077514648,3,3,3,2,-10.29,0.87,-2.18,0.83,-0.16,1.08
5.039720058441162,3,3,3,2,-10.32,2.54,-1.68,1.72,0.38,1.62
5.039720058441162,3,3,3,2,-10.32,2.54,-1.68,1.72,0.38,1.62
5.059720039367676,3,3,3,2,-10.28,3.29,-1.08,-0.29,0.63,2.33
5.059720039367676,3,3,3,2,-10.28,3.29,-1.08,-0.29,0.63,2.33
5.079720020294189,3,3,3,2,-10.11,2.53,-0.7,-2.67,0.93,2.75
5.079720020294189,3,3,3,2,-10.11,2.53,-0.7,-2.67,0.93,2.75
5.099720001220703,3,3,3,2,-9.58,0.22,-0.62,-3.89,1.26,2.61
5.099720001220703,3,3,3,2,-9.58,0.22,-0.62,-3.89,1.26,2.61
5.119719982147217,3,3,3,2,-9.4,-0.9399999999999999,-0.46,-3.28,0.89,2.4
5.119719982147217,3,3,3,2,-9.4,-0.9399999999999999,-0.46,-3.28,0.89,2.4
5.13971996307373,3,3,3,2,-9.25,-1.6,-0.7,-1.82,0.95,2.2
5.13971996307373,3,3,3,2,-9.25,-1.6,-0.7,-1.82,0.95,2.2
5.159719944000244,3,3,3,2,-9.33,-1.55,-0.77,0.21,0.82,2.23
5.159719944000244,3,3,3,2,-9.33,-1.55,-0.77,0.21,0.82,2.23
5.179719924926758,3,3,3,2,-9.550000000000001,-0.89,-0.5,2.13,0.77,2.14
5.179719924926758,3,3,3,2,-9.550000000000001,-0.89,-0.5,2.13,0.77,2.14
5.199720144271851,3,3,3,2,-9.800000000000001,-0.16,-0.66,3.1,0.6,2.35
5.199720144271851,3,3,3,2,-9.800000000000001,-0.16,-0.66,3.1,0.6,2.35
5.219720125198364,3,3,3,2,-9.789999999999999,0.23,-0.57,2.87,0.28,2.31
5.219720125198364,3,3,3,2,-9.789999999999999,0.23,-0.57,2.87,0.28,2.31
5.239720106124878,3,3,3,2,-9.699999999999999,0.05,-0.66,1.97,0.01,2
5.239720106124878,3,3,3,2,-9.699999999999999,0.05,-0.66,1.97,0.01,2
5.259720087051392,3,3,3,2,-9.710000000000001,0.42,-0.83,1.07,-0.6,1.37
5.259720087051392,3,3,3,2,-9.710000000000001,0.42,-0.83,1.07,-0.6,1.37
5.279720067977905,3,3,3,2,-9.619999999999999,0.62,-0.66,0.05,-0.62,0.92
5.279720067977905,3,3,3,2,-9.619999999999999,0.62,-0.66,0.05,-0.62,0.92
5.299720048904419,3,3,3,2,-9.59,0.76,-0.79,-0.96,0.63,0.71
5.299720048904419,3,3,3,2,-9.59,0.76,-0.79,-0.96,0.63,0.71
5.319720029830933,3,3,3,2,-9.85,0.82,-0.95,-1.57,0.43,0.75
5.319720029830933,3,3,3,2,-9.85,0.82,-0.95,-1.57,0.43,0.75
5.339720010757446,3,3,3,2,-10.12,0.14,-0.85,-2.58,-0.54,0.37
5.339720010757446,3,3,3,2,-10.12,0.14,-0.85,-2.58,-0.54,0.37
5.35971999168396,3,3,3,2,-9.84,0.58,-0.77,-2.35,-0.45,-0.06
5.35971999168396,3,3,3,2,-9.84,0.58,-0.77,-2.35,-0.45,-0.06
5.379719972610474,3,3,3,3,-9.58,0.8,-1.1,-1.16,-0.09,0.24
5.379719972610474,3,3,3,3,-9.58,0.8,-1.1,-1.16,-0.09,0.24
5.399719953536987,3,3,3,3,-9.59,0.61,-1.53,0.13,-0.44,0.6899999999999999
5.399719953536987,3,3,3,3,-9.59,0.61,-1.53,0.13,-0.44,0.6899999999999999
5.419719934463501,3,3,3,3,-9.57,1.26,-1.33,0.98,-0.19,0.77
5.419719934463501,3,3,3,3,-9.57,1.26,-1.33,0.98,-0.19,0.77
5.439719915390015,3,3,3,3,-9.6,1.91,-1.7,2.44,0.35,1.06
5.439719915390015,3,3,3,3,-9.6,1.91,-1.7,2.44,0.35,1.06
5.459720134735107,3,3,3,3,-9.4,2.04,-1.49,2.26,-0.05,1.35
5.459720134735107,3,3,3,3,-9.4,2.04,-1.49,2.26,-0.05,1.35
5.479720115661621,3,3,3,3,-9.51,2.2,-1.27,1.51,0.06,1.48
5.479720115661621,3,3,3,3,-9.51,2.2,-1.27,1.51,0.06,1.48
5.499720096588135,3,3,3,3,-9.59,1.85,-1.27,0.54,-0.33,1.39
5.499720096588135,3,3,3,3,-9.59,1.85,-1.27,0.54,-0.33,1.39
5.519720077514648,3,3,3,3,-9.640000000000001,1.22,-0.99,-0.03,0.25,1.37
5.519720077514648,3,3,3,3,-9.640000000000001,1.22,-0.99,-0.03,0.25,1.37
5.539720058441162,3,3,3,3,-9.710000000000001,1.32,-0.96,-0.2,0.72,1.28
5.539720058441162,3,3,3,3,-9.710000000000001,1.32,-0.96,-0.2,0.72,1.28
5.559720039367676,3,3,3,3,-9.6,1.05,-1.31,0.3,1.1,1.41
5.559720039367676,3,3,3,3,-9.6,1.05,-1.31,0.3,1.1,1.41
5.579720020294189,3,3,3,3,-9.800000000000001,1.15,-1.5,1.31,1.76,1.78
5.579720020294189,3,3,3,3,-9.800000000000001,1.15,-1.5,1.31,1.76,1.78
5.599720001220703,3,3,3,3,-9.800000000000001,0.3,-1.25,1.39,1.44,1.61
5.599720001220703,3,3,3,3,-9.800000000000001,0.3,-1.25,1.39,1.44,1.61
5.619719982147217,3,3,3,3,-9.4,-0.06,-0.4,2.76,0.58,1.69
5.619719982147217,3,3,3,3,-9.4,-0.06,-0.4,2.76,0.58,1.69
5.63971996307373,3,3,3,3,-9.24,-0.38,0.14,2.27,0.37,0.73
5.63971996307373,3,3,3,3,-9.24,-0.38,0.14,2.27,0.37,0.73
5.660720109939575,3,3,3,3,-9.390000000000001,-2.03,0.2,1.5,-0.73,-0.62
5.660720109939575,3,3,3,3,-9.390000000000001,-2.03,0.2,1.5,-0.73,-0.62
5.680720090866089,3,3,3,3,-9.94,-2.58,0.85,1.03,-1.47,-2.45
5.680720090866089,3,3,3,3,-9.94,-2.58,0.85,1.03,-1.47,-2.45
5.700720071792603,3,3,3,3,-9.9,-1.57,0.27,1.61,-0.6,-3.27
5.700720071792603,3,3,3,3,-9.9,-1.57,0.27,1.61,-0.6,-3.27
5.720720052719116,3,3,3,3,-9.52,-1.1,0.33,1.98,-0.45,-3.75
5.720720052719116,3,3,3,3,-9.52,-1.1,0.33,1.98,-0.45,-3.75
5.74072003364563,3,3,3,3,-9.390000000000001,-2.52,0.86,1.24,-1.96,-4.43
5.74072003364563,3,3,3,3,-9.390000000000001,-2.52,0.86,1.24,-1.96,-4.43
5.760720014572144,3,3,3,3,-8.83,-2.66,1.01,1.52,-4.13,-6.32
5.760720014572144,3,3,3,3,-8.83,-2.66,1.01,1.52,-4.13,-6.32
5.780719995498657,3,3,3,3,-8.4,-0.46,-0.11,2.08,-2.01,-7.24
5.780719995498657,3,3,3,3,-8.4,-0.46,-0.11,2.08,-2.01,-7.24
5.800719976425171,3,3,3,3,-8.949999999999999,-1.07,0.35,-0.14,-4.31,-7.75
5.800719976425171,3,3,3,3,-8.949999999999999,-1.07,0.35,-0.14,-4.31,-7.75
5.820719957351685,3,3,3,3,-8.390000000000001,-1.6,0.02,-1.92,-4.94,-9.050000000000001
5.820719957351685,3,3,3,3,-8.390000000000001,-1.6,0.02,-1.92,-4.94,-9.050000000000001
5.840719938278198,3,3,3,3,-7.98,-1.23,0.2,-1.22,-5.37,-10.31
5.840719938278198,3,3,3,3,-7.98,-1.23,0.2,-1.22,-5.37,-10.31
5.860719919204712,3,3,3,3,-8.33,-2.07,0.37,-3.48,-4.92,-11.44
5.860719919204712,3,3,3,3,-8.33,-2.07,0.37,-3.48,-4.92,-11.44
5.880720138549805,3,3,3,3,-8.5,-1.75,-1.41,-1.93,-4.45,-13.17
5.880720138549805,3,3,3,3,-8.5,-1.75,-1.41,-1.93,-4.45,-13.17
5.900720119476318,3,3,3,3,-8.039999999999999,-0.64,-1.02,0.31,-2.18,-13.13
5.900720119476318,3,3,3,3,-8.039999999999999,-0.64,-1.02,0.31,-2.18,-13.13
5.920720100402832,3,3,3,3,-9.19,1.04,-1.53,0.22,-4.04,-13.32
5.920720100402832,3,3,3,3,-9.19,1.04,-1.53,0.22,-4.04,-13.32
5.940720081329346,3,3,3,2,-10.56,-0.6,-0.53,-1.4,-2.59,-12.2
5.940720081329346,3,3,3,2,-10.56,-0.6,-0.53,-1.4,-2.59,-12.2
5.960720062255859,3,3,3,2,-11.53,-1.79,-0.72,0.7,-1.84,-13.25
5.960720062255859,3,3,3,2,-11.53,-1.79,-0.72,0.7,-1.84,-13.25
5.980720043182373,3,3,3,2,-10.5,0.51,0.7,2.06,-1.64,-14.84
5.980720043182373,3,3,3,2,-10.5,0.51,0.7,2.06,-1.64,-14.84
6.000720024108887,3,3,3,2,-11.09,0.48,-0.93,-0.32,-0.89,-14.56
6.000720024108887,3,3,3,2,-11.09,0.48,-0.93,-0.32,-0.89,-14.56
6.0207200050354,3,3,3,2,-12.03,-0.96,-1.94,-1.26,-0.34,-13.97
6.0207200050354,3,3,3,2,-12.03,-0.96,-1.94,-1.26,-0.34,-13.97
6.040719985961914,3,3,3,2,-10.64,0.48,-2.24,-0.68,-0.28,-11.32
6.040719985961914,3,3,3,2,-10.64,0.48,-2.24,-0.68,-0.28,-11.32
6.060719966888428,3,3,3,2,-10.44,2.42,-2.91,-0.26,0.49,-8.039999999999999
6.060719966888428,3,3,3,2,-10.44,2.42,-2.91,-0.26,0.49,-8.039999999999999
6.080719947814941,3,3,3,2,-11,0.26,-2.77,-2.82,0.54,-4
6.080719947814941,3,3,3,2,-11,0.26,-2.77,-2.82,0.54,-4
6.100719928741455,3,3,3,2,-13.34,-2.17,-2.89,-3.2,1.03,-1.08
6.100719928741455,3,3,3,2,-13.34,-2.17,-2.89,-3.2,1.03,-1.08
6.120720148086548,3,3,3,2,-14.93,-2.09,-2.78,-0.82,0.71,2.17
6.120720148086548,3,3,3,2,-14.93,-2.09,-2.78,-0.82,0.71,2.17
6.140720129013062,3,3,3,2,-16.31,-0.32,-2.89,0.54,0.8,5.57
6.140720129013062,3,3,3,2,-16.31,-0.32,-2.89,0.54,0.8,5.57
6.160720109939575,3,3,3,2,-16.97,1.67,-1.99,-0.38,0.57,9.18
6.160720109939575,3,3,3,2,-16.97,1.67,-1.99,-0.38,0.57,9.18
6.180720090866089,3,3,3,2,-17.2,4.43,-0.12,-3.32,0.36,12.7
6.180720090866089,3,3,3,2,-17.2,4.43,-0.12,-3.32,0.36,12.7
6.200720071792603,3,3,3,2,-17.8,4.99,0.12,-7.43,-1.64,16.17
6.200720071792603,3,3,3,2,-17.8,4.99,0.12,-7.43,-1.64,16.17
6.220720052719116,3,3,3,2,-20.85,6.8,-0.59,-11.02,-3.4,20.94
6.220720052719116,3,3,3,2,-20.85,6.8,-0.59,-11.02,-3.4,20.94
6.24072003364563,3,3,3,2,-24.21,6.96,-4.02,-12.86,-4.95,26.09
6.24072003364563,3,3,3,2,-24.21,6.96,-4.02,-12.86,-4.95,26.09
6.260720014572144,3,3,3,2,-30.19,6.93,-9.91,-12.08,0.01,28.28
6.260720014572144,3,3,3,2,-30.19,6.93,-9.91,-12.08,0.01,28.28
6.280719995498657,3,3,3,2,-29.66,-2.38,-8.6,-7.31,7.5,27.02
6.280719995498657,3,3,3,2,-29.66,-2.38,-8.6,-7.31,7.5,27.02
6.300719976425171,3,3,3,2,-21.63,-9.01,0.07000000000000001,7.1,8.699999999999999,26.93
6.300719976425171,3,3,3,2,-21.63,-9.01,0.07000000000000001,7.1,8.699999999999999,26.93
6.320719957351685,3,3,3,2,-10.52,-0.84,-0.18,-5.2,11.58,26.33
6.320719957351685,3,3,3,2,-10.52,-0.84,-0.18,-5.2,11.58,26.33
6.340719938278198,3,3,3,2,1.42,-35.5,15.48,-8.800000000000001,2.79,18.07
6.340719938278198,3,3,3,2,1.42,-35.5,15.48,-8.800000000000001,2.79,18.07
6.360719919204712,3,3,3,2,-2.73,-38.26,19.51,15.03,6.09,-0.32
6.360719919204712,3,3,3,2,-2.73,-38.26,19.51,15.03,6.09,-0.32
6.380720138549805,3,3,3,2,-7.23,18.46,2.93,9.6,2.09,-4.78
6.380720138549805,3,3,3,2,-7.23,18.46,2.93,9.6,2.09,-4.78
6.400720119476318,3,3,3,2,-2.2,10.65,-0.43,-12.15,1.07,-10.36
6.400720119476318,3,3,3,2,-2.2,10.65,-0.43,-12.15,1.07,-10.36
6.420720100402832,3,3,3,2,2.14,-7.45,-4.9,-13.68,-6.59,-15.07
6.420720100402832,3,3,3,2,2.14,-7.45,-4.9,-13.68,-6.59,-15.07
6.440720081329346,3,3,3,2,0.21,-1.61,-6.55,0.36,-4.24,-9.199999999999999
6.440720081329346,3,3,3,2,0.21,-1.61,-6.55,0.36,-4.24,-9.199999999999999
6.460720062255859,3,3,3,2,1.42,3.94,-0.25,11.03,-4.81,-3.27
6.460720062255859,3,3,3,2,1.42,3.94,-0.25,11.03,-4.81,-3.27
6.480720043182373,3,3,3,2,0.48,3.95,-0.32,7.5,-3.77,-2.05
6.480720043182373,3,3,3,2,0.48,3.95,-0.32,7.5,-3.77,-2.05
6.500720024108887,3,3,3,2,0.31,0.45,-0.68,1.2,-5.8,-3.98
6.500720024108887,3,3,3,2,0.31,0.45,-0.68,1.2,-5.8,-3.98
6.5207200050354,3,3,3,2,-0.35,-0.7,-0.45,0.99,-4.28,-4.69
6.5207200050354,3,3,3,2,-0.35,-0.7,-0.45,0.99,-4.28,-4.69
6.540719985961914,3,3,3,2,-1.11,-0.74,-0.63,2.72,-2.86,-2.89
6.540719985961914,3,3,3,2,-1.11,-0.74,-0.63,2.72,-2.86,-2.89
6.560719966888428,3,3,3,2,-0.22,0.02,-0.64,6.38,-2.5,-1.38
6.560719966888428,3,3,3,2,-0.22,0.02,-0.64,6.38,-2.5,-1.38
6.580719947814941,3,3,3,2,0.9399999999999999,-0.72,-0.99,8.779999999999999,-1.46,-0.25
6.580719947814941,3,3,3,2,0.9399999999999999,-0.72,-0.99,8.779999999999999,-1.46,-0.25
6.600719928741455,3,3,3,2,0.37,-0.6899999999999999,-1.37,11.08,-0.92,0.91
6.600719928741455,3,3,3,2,0.37,-0.6899999999999999,-1.37,11.08,-0.92,0.91
6.620720148086548,3,3,3,2,0.79,-0.22,-1.53,12.67,-1.09,1.84
6.620720148086548,3,3,3,2,0.79,-0.22,-1.53,12.67,-1.09,1.84
6.640720129013062,3,3,3,2,0.84,1.15,-0.86,12.75,-1.53,1.49
6.640720129013062,3,3,3,2,0.84,1.15,-0.86,12.75,-1.53,1.49
6.660720109939575,3,3,3,2,-0.18,0.96,0.59,11.71,-1.69,-0.05
6.660720109939575,3,3,3,2,-0.18,0.96,0.59,11.71,-1.69,-0.05
6.681720018386841,3,3,3,2,-0.91,-0.86,-1.12,8.48,0.45,-1.8
6.681720018386841,3,3,3,2,-0.91,-0.86,-1.12,8.48,0.45,-1.8
6.701719999313354,3,3,3,2,-4.11,-1.91,3.72,-5.98,0.97,-3.19
6.701719999313354,3,3,3,2,-4.11,-1.91,3.72,-5.98,0.97,-3.19
6.721719980239868,3,3,3,2,-5.08,-16.45,11.07,-19.88,0.87,-3.73
6.721719980239868,3,3,3,2,-5.08,-16.45,11.07,-19.88,0.87,-3.73
6.741719961166382,3,3,3,2,-16.85,12.97,-3.66,5.44,-10.21,-5.73
6.741719961166382,3,3,3,2,-16.85,12.97,-3.66,5.44,-10.21,-5.73
6.761719942092896,3,3,3,2,-39.18,-9.109999999999999,-4.38,-22.18,-3.26,-8.859999999999999
6.761719942092896,3,3,3,2,-39.18,-9.109999999999999,-4.38,-22.18,-3.26,-8.859999999999999
6.781719923019409,3,3,3,2,-12.83,-7.9,-5.78,-15.05,2.97,-17.72
6.781719923019409,3,3,3,2,-12.83,-7.9,-5.78,-15.05,2.97,-17.72
6.801720142364502,3,3,3,2,-36.21,-30.26,0.62,-10.27,0.88,-17.97
6.801720142364502,3,3,3,2,-36.21,-30.26,0.62,-10.27,0.88,-17.97
6.821720123291016,3,3,3,2,-30.56,16.71,-1.49,31.51,-2.64,-11.4
6.821720123291016,3,3,3,2,-30.56,16.71,-1.49,31.51,-2.64,-11.4
6.841720104217529,3,3,3,2,-12.7,22.32,0.12,10.6,4.76,-9.26
6.841720104217529,3,3,3,2,-12.7,22.32,0.12,10.6,4.76,-9.26
6.861720085144043,3,3,3,2,-17.95,4.33,-0.9399999999999999,-16.6,-2.19,-3.7
6.861720085144043,3,3,3,2,-17.95,4.33,-0.9399999999999999,-16.6,-2.19,-3.7
6.881720066070557,3,3,3,2,-20.25,1.77,-0.78,-10.16,-1.99,0.57
6.881720066070557,3,3,3,2,-20.25,1.77,-0.78,-10.16,-1.99,0.57
6.90172004699707,3,3,3,2,-16.39,3.5,-2.15,-2.74,-1.45,1.98
6.90172004699707,3,3,3,2,-16.39,3.5,-2.15,-2.74,-1.45,1.98
6.921720027923584,3,3,3,2,-13.63,2.22,-2.38,-1.61,-0.83,3.46
6.921720027923584,3,3,3,2,-13.63,2.22,-2.38,-1.61,-0.83,3.46
6.941720008850098,3,3,3,2,-14.33,-0.1,-2.31,-0.5600000000000001,-0.99,5.54
6.941720008850098,3,3,3,2,-14.33,-0.1,-2.31,-0.5600000000000001,-0.99,5.54
6.961719989776611,3,3,3,2,-13.18,-0.78,-2.01,4.49,-0.62,8.42
6.961719989776611,3,3,3,2,-13.18,-0.78,-2.01,4.49,-0.62,8.42
6.981719970703125,3,3,3,2,-11.13,1.34,-1.62,8.119999999999999,-0.11,10.73
6.981719970703125,3,3,3,2,-11.13,1.34,-1.62,8.119999999999999,-0.11,10.73
7.001719951629639,3,3,3,2,-10.01,3.07,-1.37,5.21,1.21,10.21
7.001719951629639,3,3,3,2,-10.01,3.07,-1.37,5.21,1.21,10.21
7.021719932556152,3,3,3,2,-9.390000000000001,2,-0.88,0.17,3.15,8.630000000000001
7.021719932556152,3,3,3,2,-9.390000000000001,2,-0.88,0.17,3.15,8.630000000000001
7.041719913482666,3,3,3,2,-8.199999999999999,0.28,-0.63,-2.21,4.12,7.71
7.041719913482666,3,3,3,2,-8.199999999999999,0.28,-0.63,-2.21,4.12,7.71
7.061720132827759,3,3,3,2,-7.36,-0.78,-0.66,-1.86,4.57,8.15
7.061720132827759,3,3,3,2,-7.36,-0.78,-0.66,-1.86,4.57,8.15
7.081720113754272,3,3,3,2,-6.26,-1.13,-0.15,0.98,4.27,8.460000000000001
7.081720113754272,3,3,3,2,-6.26,-1.13,-0.15,0.98,4.27,8.460000000000001
7.101720094680786,3,3,3,2,-5.67,-0.83,-0.2,2.48,3.95,8.34
7.101720094680786,3,3,3,2,-5.67,-0.83,-0.2,2.48,3.95,8.34
7.1217200756073,3,3,3,2,-6.36,-0.8,0.15,3,3.81,7.44
7.1217200756073,3,3,3,2,-6.36,-0.8,0.15,3,3.81,7.44
7.141720056533813,3,3,3,2,-7.17,-0.58,0.98,3.45,2.73,6.14
7.141720056533813,3,3,3,2,-7.17,-0.58,0.98,3.45,2.73,6.14
7.161720037460327,3,3,3,2,-7.82,-1.26,1.61,2.22,1.7,5.03
7.161720037460327,3,3,3,2,-7.82,-1.26,1.61,2.22,1.7,5.03
7.181720018386841,3,3,3,2,-8.98,-3.52,1.46,-0.41,1.71,2.96
7.181720018386841,3,3,3,2,-8.98,-3.52,1.46,-0.41,1.71,2.96
7.201719999313354,3,3,3,2,-10.37,-3.63,2.05,-0.09,1.82,2.62
7.201719999313354,3,3,3,2,-10.37,-3.63,2.05,-0.09,1.82,2.62
7.221719980239868,3,3,3,2,-10.85,-2.94,1.99,3.04,0.85,2.31
7.221719980239868,3,3,3,2,-10.85,-2.94,1.99,3.04,0.85,2.31
7.241719961166382,3,3,3,2,-10.93,-1.73,0.51,4.03,0.74,0.9399999999999999
7.241719961166382,3,3,3,2,-10.93,-1.73,0.51,4.03,0.74,0.9399999999999999
7.261719942092896,3,3,3,2,-10.25,0.9399999999999999,-0.47,3.66,1.38,-0.29
7.261719942092896,3,3,3,2,-10.25,0.9399999999999999,-0.47,3.66,1.38,-0.29
7.281719923019409,3,3,3,2,-9.85,2.88,-1.44,1.45,1.99,0.39
7.281719923019409,3,3,3,2,-9.85,2.88,-1.44,1.45,1.99,0.39
7.301720142364502,3,3,3,2,-10.08,3.47,-1.46,-0.31,1.44,0.54
7.301720142364502,3,3,3,2,-10.08,3.47,-1.46,-0.31,1.44,0.54
7.321720123291016,3,3,3,2,-10.17,3.66,-1.51,-3.78,1.81,1.05
7.321720123291016,3,3,3,2,-10.17,3.66,-1.51,-3.78,1.81,1.05
7.341720104217529,3,3,3,2,-9.69,2.74,-1.2,-4.62,1.22,1.14
7.341720104217529,3,3,3,2,-9.69,2.74,-1.2,-4.62,1.22,1.14
7.361720085144043,3,3,3,2,-9.35,1.35,-1.23,-6.57,0.76,1.34
7.361720085144043,3,3,3,2,-9.35,1.35,-1.23,-6.57,0.76,1.34
7.381720066070557,3,3,3,2,-9.029999999999999,0.3,-0.9399999999999999,-6.09,1.26,1.28
7.381720066070557,3,3,3,2,-9.029999999999999,0.3,-0.9399999999999999,-6.09,1.26,1.28
7.40172004699707,3,3,3,2,-9,-0.45,-1,-5.13,1.08,1.47
7.40172004699707,3,3,3,2,-9,-0.45,-1,-5.13,1.08,1.47
7.421720027923584,3,3,3,2,-9.58,-1.44,-0.33,-2.28,0.64,1.76
7.421720027923584,3,3,3,2,-9.58,-1.44,-0.33,-2.28,0.64,1.76
7.441720008850098,3,3,3,2,-9.640000000000001,-1.14,-0.25,0.66,0.6,2.09
7.441720008850098,3,3,3,2,-9.640000000000001,-1.14,-0.25,0.66,0.6,2.09
7.461719989776611,3,3,3,2,-9.73,-0.57,-0.43,4.24,0.82,2.19
7.461719989776611,3,3,3,2,-9.73,-0.57,-0.43,4.24,0.82,2.19
7.481719970703125,3,3,3,2,-9.85,0.13,-0.29,6.06,1.13,1.83
7.481719970703125,3,3,3,2,-9.85,0.13,-0.29,6.06,1.13,1.83
7.501719951629639,3,3,3,2,-9.65,0.68,-0.63,6.11,0.79,2.07
7.501719951629639,3,3,3,2,-9.65,0.68,-0.63,6.11,0.79,2.07
7.521719932556152,3,3,3,2,-9.779999999999999,0.64,-0.66,4.51,0.49,1.63
7.521719932556152,3,3,3,2,-9.779999999999999,0.64,-0.66,4.51,0.49,1.63
7.541719913482666,3,3,3,2,-9.52,1.04,-0.43,3.04,0.33,1.04
7.541719913482666,3,3,3,2,-9.52,1.04,-0.43,3.04,0.33,1.04
7.561720132827759,3,3,3,2,-9.65,0.83,-0.87,1.56,0.6,0.65
7.561720132827759,3,3,3,2,-9.65,0.83,-0.87,1.56,0.6,0.65
7.581720113754272,3,3,3,2,-9.51,1.07,-0.88,-0.42,1,0.14
7.581720113754272,3,3,3,2,-9.51,1.07,-0.88,-0.42,1,0.14
7.601720094680786,3,3,3,2,-9.619999999999999,0.98,-1.21,-1.18,0.9,0.27
7.601720094680786,3,3,3,2,-9.619999999999999,0.98,-1.21,-1.18,0.9,0.27
7.6217200756073,3,3,3,2,-9.75,1.08,-1.01,-1.92,0.57,0.06
7.6217200756073,3,3,3,2,-9.75,1.08,-1.01,-1.92,0.57,0.06
7.641720056533813,3,3,3,2,-9.6,1.23,-0.95,-1.96,0.32,-0.05
7.641720056533813,3,3,3,2,-9.6,1.23,-0.95,-1.96,0.32,-0.05
7.661720037460327,3,3,3,2,-9.75,1.04,-1.27,-1.02,0.53,0.08
7.661720037460327,3,3,3,2,-9.75,1.04,-1.27,-1.02,0.53,0.08
7.681720018386841,3,3,3,2,-9.67,0.77,-1.3,0.01,0.17,0.2
7.681720018386841,3,3,3,2,-9.67,0.77,-1.3,0.01,0.17,0.2
7.702719926834106,3,3,3,2,-9.51,0.65,-1.32,1.76,0.3,0.32
7.702719926834106,3,3,3,2,-9.51,0.65,-1.32,1.76,0.3,0.32
7.722720146179199,3,3,3,2,-9.640000000000001,0.86,-1.2,3.06,0.05,0.64
7.722720146179199,3,3,3,2,-9.640000000000001,0.86,-1.2,3.06,0.05,0.64
7.742720127105713,3,3,3,2,-9.82,1.55,-1.22,3.81,0.3,0.55
7.742720127105713,3,3,3,2,-9.82,1.55,-1.22,3.81,0.3,0.55
7.762720108032227,3,3,3,2,-9.6,1.64,-1.4,4.03,0.25,0.83
7.762720108032227,3,3,3,2,-9.6,1.64,-1.4,4.03,0.25,0.83
7.78272008895874,3,3,3,2,-9.470000000000001,1.85,-1.55,3.25,0.44,0.84
7.78272008895874,3,3,3,2,-9.470000000000001,1.85,-1.55,3.25,0.44,0.84
7.802720069885254,3,3,3,2,-9.34,1.89,-1.43,2,0.55,0.55
7.802720069885254,3,3,3,2,-9.34,1.89,-1.43,2,0.55,0.55
7.822720050811768,3,3,3,2,-9.52,1.34,-0.86,1.66,0.43,0.42
7.822720050811768,3,3,3,2,-9.52,1.34,-0.86,1.66,0.43,0.42
7.842720031738281,3,3,3,2,-9.449999999999999,-0.07000000000000001,-0.16,0.71,0.31,-0.12
7.842720031738281,3,3,3,2,-9.449999999999999,-0.07000000000000001,-0.16,0.71,0.31,-0.12
7.862720012664795,3,3,3,2,-9.43,-2.07,0.54,-0.3,-0.28,-1.1
7.862720012664795,3,3,3,2,-9.43,-2.07,0.54,-0.3,-0.28,-1.1
7.882719993591309,3,3,3,2,-9.619999999999999,-2.65,0.92,-0.01,-1.17,-2.4
7.882719993591309,3,3,3,2,-9.619999999999999,-2.65,0.92,-0.01,-1.17,-2.4
7.902719974517822,3,3,3,2,-9.5,-2.76,0.75,0.14,-0.91,-3.87
7.902719974517822,3,3,3,2,-9.5,-2.76,0.75,0.14,-0.91,-3.87
7.922719955444336,3,3,3,2,-9.220000000000001,-2.89,0.66,1.6,-0.72,-5.43
7.922719955444336,3,3,3,2,-9.220000000000001,-2.89,0.66,1.6,-0.72,-5.43
7.94271993637085,3,3,3,2,-8.859999999999999,-1.73,0.57,2.73,-1.29,-6.35
7.94271993637085,3,3,3,2,-8.859999999999999,-1.73,0.57,2.73,-1.29,-6.35
7.962719917297363,3,3,3,2,-9.140000000000001,-1.92,0.9,3.02,-2.62,-6.11
7.962719917297363,3,3,3,2,-9.140000000000001,-1.92,0.9,3.02,-2.62,-6.11
7.982720136642456,3,3,3,2,-8.720000000000001,-3.79,2.06,0,-5.77,-7.68
7.982720136642456,3,3,3,2,-8.720000000000001,-3.79,2.06,0,-5.77,-7.68
8.00272011756897,3,3,3,2,-7.26,-1.75,0.68,0.43,-6.67,-10.7
8.00272011756897,3,3,3,2,-7.26,-1.75,0.68,0.43,-6.67,-10.7
8.022720098495483,3,3,3,2,-8.08,0.35,-0.48,2.84,-4.32,-13.03
8.022720098495483,3,3,3,2,-8.08,0.35,-0.48,2.84,-4.32,-13.03
8.042720079421997,3,3,3,2,-8.890000000000001,0.84,-0.31,-0.08,-6.02,-13.51
8.042720079421997,3,3,3,2,-8.890000000000001,0.84,-0.31,-0.08,-6.02,-13.51
8.062720060348511,3,3,3,2,-8.01,0.53,-0.89,-4.75,-5.55,-13.52
8.062720060348511,3,3,3,2,-8.01,0.53,-0.89,-4.75,-5.55,-13.52
8.082720041275024,3,3,3,2,-8.77,-0.22,-1.72,-2.65,-4.21,-15.47
8.082720041275024,3,3,3,2,-8.77,-0.22,-1.72,-2.65,-4.21,-15.47
8.102720022201538,3,3,3,2,-9.85,-0.36,-1.96,-2.66,-2.71,-14.92
8.102720022201538,3,3,3,2,-9.85,-0.36,-1.96,-2.66,-2.71,-14.92
8.122720003128052,3,3,3,2,-11.73,-2.38,-1.13,-3.87,-4.02,-14.02
8.122720003128052,3,3,3,2,-11.73,-2.38,-1.13,-3.87,-4.02,-14.02
8.142719984054565,3,3,3,2,-11.84,-1.89,-1.2,1.07,-1.29,-14.73
8.142719984054565,3,3,3,2,-11.84,-1.89,-1.2,1.07,-1.29,-14.73
8.162719964981079,3,3,3,2,-11.26,-0.7,-0.37,5.15,-0.9,-14.6
8.162719964981079,3,3,3,2,-11.26,-0.7,-0.37,5.15,-0.9,-14.6
8.182719945907593,3,3,3,2,-10.3,1.39,-0.54,6.39,0.2,-13.63
8.182719945907593,3,3,3,2,-10.3,1.39,-0.54,6.39,0.2,-13.63
8.202719926834106,3,3,3,2,-10.03,0.16,-1.38,1.48,-0.93,-11.96
8.202719926834106,3,3,3,2,-10.03,0.16,-1.38,1.48,-0.93,-11.96
8.222720146179199,3,3,3,2,-10.44,-1.37,-1.3,-2.08,-0.66,-9.449999999999999
8.222720146179199,3,3,3,2,-10.44,-1.37,-1.3,-2.08,-0.66,-9.449999999999999
8.242720127105713,3,3,3,2,-11.99,0.74,-2.84,-1.42,-0.22,-4.31
8.242720127105713,3,3,3,2,-11.99,0.74,-2.84,-1.42,-0.22,-4.31
8.262720108032227,3,3,3,2,-12.87,1.55,-3.65,-1.49,0.89,0.5
8.262720108032227,3,3,3,2,-12.87,1.55,-3.65,-1.49,0.89,0.5
8.28272008895874,3,3,3,2,-15.75,-2.65,-3.17,-2.7,1.22,2.41
8.28272008895874,3,3,3,2,-15.75,-2.65,-3.17,-2.7,1.22,2.41
8.302720069885254,3,3,3,2,-17.55,-2.33,-2.38,-0.92,0.53,5.72
8.302720069885254,3,3,3,2,-17.55,-2.33,-2.38,-0.92,0.53,5.72
8.322720050811768,3,3,3,2,-18.39,2.1,-0.4,-0.3,0.54,6.57
8.322720050811768,3,3,3,2,-18.39,2.1,-0.4,-0.3,0.54,6.57
8.342720031738281,3,3,3,2,-17.66,5.5,1.09,-4.32,0.45,10.05
8.342720031738281,3,3,3,2,-17.66,5.5,1.09,-4.32,0.45,10.05
8.362720012664795,3,3,3,2,-18.17,8,1.92,-11.15,-1.66,14.43
8.362720012664795,3,3,3,2,-18.17,8,1.92,-11.15,-1.66,14.43
8.382719993591309,3,3,3,2,-19.83,8.31,-0.14,-14.43,-3.62,17.16
8.382719993591309,3,3,3,2,-19.83,8.31,-0.14,-14.43,-3.62,17.16
8.402719974517822,3,3,3,2,-25.39,7.51,-7.47,-19.19,-6.76,26.24
8.402719974517822,3,3,3,2,-25.39,7.51,-7.47,-19.19,-6.76,26.24
8.422719955444336,3,3,3,2,-30.3,6.01,-10.67,-18.03,-3.76,26.85
8.422719955444336,3,3,3,2,-30.3,6.01,-10.67,-18.03,-3.76,26.85
8.44271993637085,3,3,3,2,-29.45,-4.53,-7.4,-5.31,6.95,26.58
8.44271993637085,3,3,3,2,-29.45,-4.53,-7.4,-5.31,6.95,26.58
8.462719917297363,3,3,3,2,-24.43,-7.68,-1.72,2.42,9.6,26.27
8.462719917297363,3,3,3,2,-24.43,-7.68,-1.72,2.42,9.6,26.27
8.482720136642456,3,3,3,2,-5.24,-1.54,-6.31,-9.949999999999999,11.58,25.86
8.482720136642456,3,3,3,2,-5.24,-1.54,-6.31,-9.949999999999999,11.58,25.86
8.50272011756897,3,3,3,2,0.12,-36.1,10.13,-18.99,1.62,10.56
8.50272011756897,3,3,3,2,0.12,-36.1,10.13,-18.99,1.62,10.56
8.522720098495483,3,3,3,2,-3.18,-27.74,15.84,-3.61,5.5,-2.59
8.522720098495483,3,3,3,2,-3.18,-27.74,15.84,-3.61,5.5,-2.59
8.542720079421997,3,3,3,2,-8.34,15.52,5.95,-0.39,-0.99,-4.04
8.542720079421997,3,3,3,2,-8.34,15.52,5.95,-0.39,-0.99,-4.04
8.562720060348511,3,3,3,2,-3.26,2.79,0.93,-16.58,-2.22,-10.44
8.562720060348511,3,3,3,2,-3.26,2.79,0.93,-16.58,-2.22,-10.44
8.582720041275024,3,3,3,2,2.06,-4.87,-7.7,-18.03,-7.62,-13.81
8.582720041275024,3,3,3,2,2.06,-4.87,-7.7,-18.03,-7.62,-13.81
8.602720022201538,3,3,3,2,-0.12,0.68,-4.7,10.01,-3.02,-7.23
8.602720022201538,3,3,3,2,-0.12,0.68,-4.7,10.01,-3.02,-7.23
8.622720003128052,3,3,3,2,0.72,4.57,-1.17,15.81,-3.09,-4.88
8.622720003128052,3,3,3,2,0.72,4.57,-1.17,15.81,-3.09,-4.88
8.643720149993896,3,3,3,2,1.3,4.02,-1.65,9.9,-2.62,-1.45
8.643720149993896,3,3,3,2,1.3,4.02,-1.65,9.9,-2.62,-1.45
8.662719964981079,3,3,3,2,1.58,2.2,-2.38,3.35,-2.38,-1.85
8.662719964981079,3,3,3,2,1.58,2.2,-2.38,3.35,-2.38,-1.85
8.682719945907593,3,3,3,2,0.76,1.98,-1.28,3.79,-3.3,-2.1
8.682719945907593,3,3,3,2,0.76,1.98,-1.28,3.79,-3.3,-2.1
8.702719926834106,3,3,3,2,-0.63,1.2,-0.53,5.46,-2.79,-1.48
8.702719926834106,3,3,3,2,-0.63,1.2,-0.53,5.46,-2.79,-1.48
8.723720073699951,3,3,3,2,-0.07000000000000001,0.16,0.1,7.12,-2.41,-0.93
8.723720073699951,3,3,3,2,-0.07000000000000001,0.16,0.1,7.12,-2.41,-0.93
8.743720054626465,3,3,3,2,0.62,-0.71,-0.03,10.05,-2.1,0.58
8.743720054626465,3,3,3,2,0.62,-0.71,-0.03,10.05,-2.1,0.58
8.763720035552979,3,3,3,2,0.65,-1.04,-0.66,12.45,-1.71,1.23
8.763720035552979,3,3,3,2,0.65,-1.04,-0.66,12.45,-1.71,1.23
8.783720016479492,3,3,3,2,1.27,-1.16,-1.05,12.74,-1.67,1.38
8.783720016479492,3,3,3,2,1.27,-1.16,-1.05,12.74,-1.67,1.38
8.803719997406006,3,3,3,2,0.15,-1.56,-0.11,14.36,-0.7,0.96
8.803719997406006,3,3,3,2,0.15,-1.56,-0.11,14.36,-0.7,0.96
8.82371997833252,3,3,3,2,-0.58,-2.94,0.8100000000000001,17.33,0.8,0.87
8.82371997833252,3,3,3,2,-0.58,-2.94,0.8100000000000001,17.33,0.8,0.87
8.843719959259033,3,3,3,2,-1.55,-3.43,1.31,16.58,4.61,0.11
8.843719959259033,3,3,3,2,-1.55,-3.43,1.31,16.58,4.61,0.11
8.863719940185547,3,3,3,2,-4.99,-10.37,10.52,-4.36,2.33,-2.82
8.863719940185547,3,3,3,2,-4.99,-10.37,10.52,-4.36,2.33,-2.82
8.883719921112061,3,3,3,2,-9.91,-12.62,21.66,-14.09,2.47,-2.83
8.883719921112061,3,3,3,2,-9.91,-12.62,21.66,-14.09,2.47,-2.83
8.903720140457153,3,3,3,2,-26.19,24.28,-4.38,-11.07,-13.98,-7.35
8.903720140457153,3,3,3,2,-26.19,24.28,-4.38,-11.07,-13.98,-7.35
8.923720121383667,3,3,3,2,-29.15,6.34,-13.75,-26.8,-5.16,-10.05
8.923720121383667,3,3,3,2,-29.15,6.34,-13.75,-26.8,-5.16,-10.05
8.943720102310181,3,3,3,2,-14.29,-20.25,-3.01,-31.3,4.93,-13.82
8.943720102310181,3,3,3,2,-14.29,-20.25,-3.01,-31.3,4.93,-13.82
8.963720083236694,3,3,3,2,-39.24,-38.3,0.62,47.78,-10.42,-11.44
8.963720083236694,3,3,3,2,-39.24,-38.3,0.62,47.78,-10.42,-11.44
8.983720064163208,3,3,3,2,7.59,39.35,-8.06,85.23,1.33,-1.21
8.983720064163208,3,3,3,2,7.59,39.35,-8.06,85.23,1.33,-1.21
9.003720045089722,3,3,3,2,-10.72,18.4,-1.32,-27.49,1.29,-8.93
9.003720045089722,3,3,3,2,-10.72,18.4,-1.32,-27.49,1.29,-8.93
9.023720026016235,3,3,3,2,-19.34,-4.5,-2.29,-46.69,-6.03,-1.64
9.023720026016235,3,3,3,2,-19.34,-4.5,-2.29,-46.69,-6.03,-1.64
9.043720006942749,3,3,3,2,-29.76,-12.68,-4.05,-8.84,-6.7,9.23
9.043720006942749,3,3,3,2,-29.76,-12.68,-4.05,-8.84,-6.7,9.23
9.063719987869263,3,3,3,2,-12.86,4.94,-3.27,5.99,2.04,1.33
9.063719987869263,3,3,3,2,-12.86,4.94,-3.27,5.99,2.04,1.33
9.083719968795776,3,3,3,2,-8.23,2.21,-2.53,3.26,2.2,2.18
9.083719968795776,3,3,3,2,-8.23,2.21,-2.53,3.26,2.2,2.18
9.10371994972229,3,3,3,2,-11.42,-2.15,-2.05,-0.22,-0.08,8.85
9.10371994972229,3,3,3,2,-11.42,-2.15,-2.05,-0.22,-0.08,8.85
9.123719930648804,3,3,3,2,-11.09,-1.73,-1.53,2.34,0.53,10.01
9.123719930648804,3,3,3,2,-11.09,-1.73,-1.53,2.34,0.53,10.01
9.143720149993896,3,3,3,2,-7.66,3.18,-0.6,4.55,2.53,10.19
9.143720149993896,3,3,3,2,-7.66,3.18,-0.6,4.55,2.53,10.19
9.16372013092041,3,3,3,2,-6.26,2.12,-1.17,-2.07,4.87,7.27
9.16372013092041,3,3,3,2,-6.26,2.12,-1.17,-2.07,4.87,7.27
9.183720111846924,3,3,3,2,-5.88,0.67,-1.13,-6.34,5.01,6.31
9.183720111846924,3,3,3,2,-5.88,0.67,-1.13,-6.34,5.01,6.31
9.203720092773438,3,3,3,2,-6.33,-2.51,-0.95,-10.33,4.33,5.15
9.203720092773438,3,3,3,2,-6.33,-2.51,-0.95,-10.33,4.33,5.15
9.223720073699951,3,3,3,2,-5.97,-3.08,-0.82,-9.24,3.75,5.33
9.223720073699951,3,3,3,2,-5.97,-3.08,-0.82,-9.24,3.75,5.33
9.243720054626465,3,3,3,2,-5.84,-3.04,-1.56,-5.51,3,6.07
9.243720054626465,3,3,3,2,-5.84,-3.04,-1.56,-5.51,3,6.07
9.263720035552979,3,3,3,2,-6.99,-2.03,-1.6,-1.89,3.1,5.34
9.263720035552979,3,3,3,2,-6.99,-2.03,-1.6,-1.89,3.1,5.34
9.283720016479492,3,3,3,2,-7.47,-1.21,-1.17,-0.32,2.72,4.9
9.283720016479492,3,3,3,2,-7.47,-1.21,-1.17,-0.32,2.72,4.9
9.303719997406006,3,3,3,2,-10.15,-1.43,-1.8,0.66,3.14,4.12
9.303719997406006,3,3,3,2,-10.15,-1.43,-1.8,0.66,3.14,4.12
9.32371997833252,3,3,3,2,-10.95,-3.14,-1.51,0.49,2.89,3.74
9.32371997833252,3,3,3,2,-10.95,-3.14,-1.51,0.49,2.89,3.74
9.343719959259033,3,3,3,2,-12.54,-3.9,3.02,7.82,2.38,4.07
9.343719959259033,3,3,3,2,-12.54,-3.9,3.02,7.82,2.38,4.07
9.363719940185547,3,3,3,2,-11.8,1.49,1.78,10.3,0.96,4.32
9.363719940185547,3,3,3,2,-11.8,1.49,1.78,10.3,0.96,4.32
9.383719921112061,3,3,3,2,-10.84,2.47,0.38,9.17,0.92,4.53
9.383719921112061,3,3,3,2,-10.84,2.47,0.38,9.17,0.92,4.53
9.403720140457153,3,3,3,2,-9.33,3.01,-3.34,5.23,2.5,5.14
9.403720140457153,3,3,3,2,-9.33,3.01,-3.34,5.23,2.5,5.14
9.423720121383667,3,3,3,2,-8.91,2.78,-3.79,5.37,3.3,5.63
9.423720121383667,3,3,3,2,-8.91,2.78,-3.79,5.37,3.3,5.63
9.443720102310181,3,3,3,2,-9.449999999999999,2.32,-0.88,7.15,1.23,5.8
9.443720102310181,3,3,3,2,-9.449999999999999,2.32,-0.88,7.15,1.23,5.8
9.463720083236694,3,3,3,2,-9.470000000000001,2.99,0.28,5.09,-1.68,5.82
9.463720083236694,3,3,3,2,-9.470000000000001,2.99,0.28,5.09,-1.68,5.82
9.483720064163208,3,3,3,2,-9.5,1.96,0.17,2.66,-1.81,5.48
9.483720064163208,3,3,3,2,-9.5,1.96,0.17,2.66,-1.81,5.48
9.503720045089722,3,3,3,2,-9.789999999999999,-0.24,-0.04,0.58,-2,5.24
9.503720045089722,3,3,3,2,-9.789999999999999,-0.24,-0.04,0.58,-2,5.24
9.523720026016235,3,3,3,2,-8.609999999999999,-3.35,-2.25,-0.13,-2.19,5.9
9.523720026016235,3,3,3,2,-8.609999999999999,-3.35,-2.25,-0.13,-2.19,5.9
9.543720006942749,3,3,3,2,-9.609999999999999,-1.33,-1.96,4.04,0.71,5.45
9.543720006942749,3,3,3,2,-9.609999999999999,-1.33,-1.96,4.04,0.71,5.45
9.563719987869263,3,3,3,2,-9.76,1.68,-1.18,7.98,-0.03,5.52
9.563719987869263,3,3,3,2,-9.76,1.68,-1.18,7.98,-0.03,5.52
9.583719968795776,3,3,3,2,-9.800000000000001,2.57,-1.15,10.58,0.54,5.59
9.583719968795776,3,3,3,2,-9.800000000000001,2.57,-1.15,10.58,0.54,5.59
9.60371994972229,3,3,3,2,-9.85,2.85,-1.1,9.369999999999999,-0.15,5.43
9.60371994972229,3,3,3,2,-9.85,2.85,-1.1,9.369999999999999,-0.15,5.43
9.623719930648804,3,3,3,2,-9.640000000000001,3.1,-0.92,7.13,-0.96,4.9
9.623719930648804,3,3,3,2,-9.640000000000001,3.1,-0.92,7.13,-0.96,4.9
9.643720149993896,3,3,3,2,-8.84,2.86,-0.48,4.24,-0.6899999999999999,4.39
9.643720149993896,3,3,3,2,-8.84,2.86,-0.48,4.24,-0.6899999999999999,4.39
9.66372013092041,3,3,3,2,-8.75,2.67,-0.11,0.43,0.27,3.74
9.66372013092041,3,3,3,2,-8.75,2.67,-0.11,0.43,0.27,3.74
9.683720111846924,3,3,3,3,-8.890000000000001,2.45,-0.32,-2.48,1.06,2.75
9.683720111846924,3,3,3,3,-8.890000000000001,2.45,-0.32,-2.48,1.06,2.75
9.703720092773438,3,3,3,3,-9.119999999999999,2.45,-1.05,-3.09,1.43,1.79
9.703720092773438,3,3,3,3,-9.119999999999999,2.45,-1.05,-3.09,1.43,1.79
9.723720073699951,3,3,3,3,-9.640000000000001,2.56,-1.7,-2.39,1.6,1.88
9.723720073699951,3,3,3,3,-9.640000000000001,2.56,-1.7,-2.39,1.6,1.88
9.743720054626465,3,3,3,3,-9.74,2.62,-1.89,-1.08,1.3,2.39
9.743720054626465,3,3,3,3,-9.74,2.62,-1.89,-1.08,1.3,2.39
9.76471996307373,3,3,3,3,-9.75,2.43,-1.71,0.45,1.04,2.22
9.76471996307373,3,3,3,3,-9.75,2.43,-1.71,0.45,1.04,2.22
9.784719944000244,3,3,3,3,-9.630000000000001,1.8,-1.39,1.44,0.36,1.65
9.784719944000244,3,3,3,3,-9.630000000000001,1.8,-1.39,1.44,0.36,1.65
9.804719924926758,3,3,3,3,-9.49,1.57,-1.14,2.07,-0.23,1.13
9.804719924926758,3,3,3,3,-9.49,1.57,-1.14,2.07,-0.23,1.13
9.824720144271851,3,3,3,3,-9.41,1.86,-0.99,2.12,-0.48,0.75
9.824720144271851,3,3,3,3,-9.41,1.86,-0.99,2.12,-0.48,0.75
9.844720125198364,3,3,3,3,-9.42,2.38,-1.17,1.84,-0.55,0.53
9.844720125198364,3,3,3,3,-9.42,2.38,-1.17,1.84,-0.55,0.53
9.864720106124878,3,3,3,3,-9.24,3.06,-1.27,1.37,-0.34,0.41
9.864720106124878,3,3,3,3,-9.24,3.06,-1.27,1.37,-0.34,0.41
9.884720087051392,3,3,3,3,-9.18,3.45,-1.5,0.46,0.01,0.45
9.884720087051392,3,3,3,3,-9.18,3.45,-1.5,0.46,0.01,0.45
9.904720067977905,3,3,3,3,-9.02,3.39,-1.55,-0.59,0.28,0.59
9.904720067977905,3,3,3,3,-9.02,3.39,-1.55,-0.59,0.28,0.59
9.924720048904419,3,3,3,3,-9.08,3.01,-1.44,-1.47,0.59,0.57
9.924720048904419,3,3,3,3,-9.08,3.01,-1.44,-1.47,0.59,0.57
9.944720029830933,3,3,3,3,-9.130000000000001,2.17,-1.53,-1.61,0.71,0.52
9.944720029830933,3,3,3,3,-9.130000000000001,2.17,-1.53,-1.61,0.71,0.52
9.964720010757446,3,3,3,3,-9.17,1.89,-1.53,-0.6899999999999999,0.49,0.22
9.964720010757446,3,3,3,3,-9.17,1.89,-1.53,-0.6899999999999999,0.49,0.22
9.98471999168396,3,3,3,3,-9.619999999999999,2.16,-1.66,0.8,0.36,0.46
9.98471999168396,3,3,3,3,-9.619999999999999,2.16,-1.66,0.8,0.36,0.46
10.00471997261047,3,3,3,3,-9.77,2.57,-1.64,1.8,-0.13,0.54
10.00471997261047,3,3,3,3,-9.77,2.57,-1.64,1.8,-0.13,0.54
10.02471995353699,3,3,3,3,-9.32,2.59,-1.4,1.69,-0.48,0.16
10.02471995353699,3,3,3,3,-9.32,2.59,-1.4,1.69,-0.48,0.16
10.0447199344635,3,3,3,3,-9.19,2.38,-1.38,1.44,-0.5,-0.1
10.0447199344635,3,3,3,3,-9.19,2.38,-1.38,1.44,-0.5,-0.1
10.06471991539001,3,3,3,3,-9.17,2.36,-1.34,1.14,-0.29,-0.35
10.06471991539001,3,3,3,3,-9.17,2.36,-1.34,1.14,-0.29,-0.35
10.08472013473511,3,3,3,2,-9.25,2.52,-1.39,0.83,0.11,-0.39
10.08472013473511,3,3,3,2,-9.25,2.52,-1.39,0.83,0.11,-0.39
10.10472011566162,3,3,3,2,-9.4,2.98,-1.63,0.44,0.33,-0.43
10.10472011566162,3,3,3,2,-9.4,2.98,-1.63,0.44,0.33,-0.43
10.12472009658813,3,3,3,2,-9.4,3.06,-1.67,-0.36,0.32,-0.48
10.12472009658813,3,3,3,2,-9.4,3.06,-1.67,-0.36,0.32,-0.48
10.14472007751465,3,3,3,2,-9.27,2.77,-1.78,-1.06,0.1,-0.61
10.14472007751465,3,3,3,2,-9.27,2.77,-1.78,-1.06,0.1,-0.61
10.16472005844116,3,3,3,2,-9.220000000000001,2.58,-1.66,-0.97,0.08,-0.63
10.16472005844116,3,3,3,2,-9.220000000000001,2.58,-1.66,-0.97,0.08,-0.63
10.18472003936768,3,3,3,2,-9.289999999999999,2.42,-1.51,-0.34,0,-0.61
10.18472003936768,3,3,3,2,-9.289999999999999,2.42,-1.51,-0.34,0,-0.61
10.20472002029419,3,3,3,2,-9.33,2.46,-1.53,0.31,-0.06,-0.48
10.20472002029419,3,3,3,2,-9.33,2.46,-1.53,0.31,-0.06,-0.48
10.2247200012207,3,3,3,2,-9.359999999999999,2.5,-1.42,0.68,-0.13,-0.38
10.2247200012207,3,3,3,2,-9.359999999999999,2.5,-1.42,0.68,-0.13,-0.38
10.24471998214722,3,3,3,2,-9.359999999999999,2.49,-1.53,0.87,0.02,-0.33
10.24471998214722,3,3,3,2,-9.359999999999999,2.49,-1.53,0.87,0.02,-0.33
10.26471996307373,3,3,3,2,-9.380000000000001,2.5,-1.43,0.67,-0.13,-0.41
10.26471996307373,3,3,3,2,-9.380000000000001,2.5,-1.43,0.67,-0.13,-0.41
10.28471994400024,3,3,3,2,-9.4,2.57,-1.46,0.25,0.01,-0.4
10.28471994400024,3,3,3,2,-9.4,2.57,-1.46,0.25,0.01,-0.4
10.30471992492676,3,3,3,2,-9.31,2.48,-1.49,-0.41,0.09,-0.47
10.30471992492676,3,3,3,2,-9.31,2.48,-1.49,-0.41,0.09,-0.47
10.32472014427185,3,3,3,2,-9.34,2.43,-1.45,-0.71,0.26,-0.53
10.32472014427185,3,3,3,2,-9.34,2.43,-1.45,-0.71,0.26,-0.53
10.34472012519836,3,3,3,2,-9.34,2.22,-1.55,-0.57,0.41,-0.58
10.34472012519836,3,3,3,2,-9.34,2.22,-1.55,-0.57,0.41,-0.58
10.36472010612488,3,3,3,2,-9.33,2.29,-1.51,-0.29,0.25,-0.63
10.36472010612488,3,3,3,2,-9.33,2.29,-1.51,-0.29,0.25,-0.63
10.38472008705139,3,3,3,2,-9.44,2.45,-1.38,-0.04,-0.1,-0.66
10.38472008705139,3,3,3,2,-9.44,2.45,-1.38,-0.04,-0.1,-0.66
10.40472006797791,3,3,3,2,-9.380000000000001,2.46,-1.59,0.03,-0.06,-0.65
10.40472006797791,3,3,3,2,-9.380000000000001,2.46,-1.59,0.03,-0.06,-0.65
10.42472004890442,3,3,3,2,-9.4,2.43,-1.56,0.14,-0.02,-0.64
10.42472004890442,3,3,3,2,-9.4,2.43,-1.56,0.14,-0.02,-0.64
10.44472002983093,3,3,3,2,-9.279999999999999,2.45,-1.59,0.48,0.11,-0.59
10.44472002983093,3,3,3,2,-9.279999999999999,2.45,-1.59,0.48,0.11,-0.59
10.46472001075745,3,3,3,2,-9.25,2.45,-1.51,0.27,-0.02,-0.31
10.46472001075745,3,3,3,2,-9.25,2.45,-1.51,0.27,-0.02,-0.31
10.48471999168396,3,3,3,2,-9.289999999999999,2.27,-1.43,0.02,0,-0.2
10.48471999168396,3,3,3,2,-9.289999999999999,2.27,-1.43,0.02,0,-0.2
10.50471997261047,3,3,3,2,-9.359999999999999,2.18,-1.45,0.01,0.17,-0.22
10.50471997261047,3,3,3,2,-9.359999999999999,2.18,-1.45,0.01,0.17,-0.22
10.52471995353699,3,3,3,2,-9.41,2.27,-1.43,-0.05,0.23,-0.19
10.52471995353699,3,3,3,2,-9.41,2.27,-1.43,-0.05,0.23,-0.19
10.5447199344635,3,3,3,2,-9.43,2.33,-1.56,-0.13,0.14,-0.18
10.5447199344635,3,3,3,2,-9.43,2.33,-1.56,-0.13,0.14,-0.18
10.56471991539001,3,3,3,2,-9.390000000000001,2.29,-1.52,-0.19,0.28,-0.15
10.56471991539001,3,3,3,2,-9.390000000000001,2.29,-1.52,-0.19,0.28,-0.15
10.58472013473511,3,3,3,2,-9.31,2.33,-1.46,-0.19,0.29,-0.13
10.58472013473511,3,3,3,2,-9.31,2.33,-1.46,-0.19,0.29,-0.13
10.60472011566162,3,3,3,2,-9.42,2.35,-1.57,-0.1,0.37,-0.04
10.60472011566162,3,3,3,2,-9.42,2.35,-1.57,-0.1,0.37,-0.04
10.62472009658813,3,3,3,2,-9.31,2.39,-1.55,-0.15,0.34,0.03
10.62472009658813,3,3,3,2,-9.31,2.39,-1.55,-0.15,0.34,0.03
10.64472007751465,3,3,3,2,-9.34,2.46,-1.72,-0.33,0.16,0.19
10.64472007751465,3,3,3,2,-9.34,2.46,-1.72,-0.33,0.16,0.19
10.66472005844116,3,3,3,2,-9.31,2.37,-1.62,-0.38,0.24,0.14
10.66472005844116,3,3,3,2,-9.31,2.37,-1.62,-0.38,0.24,0.14
10.68472003936768,3,3,3,2,-9.369999999999999,2.16,-1.54,-0.08,0.22,0.21
10.68472003936768,3,3,3,2,-9.369999999999999,2.16,-1.54,-0.08,0.22,0.21
10.70472002029419,3,3,3,2,-9.460000000000001,2.12,-1.56,0.12,0.17,0.28
10.70472002029419,3,3,3,2,-9.460000000000001,2.12,-1.56,0.12,0.17,0.28
10.7247200012207,3,3,3,2,-9.42,2.07,-1.46,0.51,0.13,0.27
10.7247200012207,3,3,3,2,-9.42,2.07,-1.46,0.51,0.13,0.27
10.74471998214722,3,3,3,2,-9.449999999999999,2.19,-1.61,0.76,0.31,0.23
10.74471998214722,3,3,3,2,-9.449999999999999,2.19,-1.61,0.76,0.31,0.23
10.76471996307373,3,3,3,2,-9.4,2.16,-1.54,0.5600000000000001,0.1,0.21
10.76471996307373,3,3,3,2,-9.4,2.16,-1.54,0.5600000000000001,0.1,0.21
10.78572010993958,3,3,3,2,-9.380000000000001,2.12,-1.5,0.39,0.07000000000000001,0.14
10.78572010993958,3,3,3,2,-9.380000000000001,2.12,-1.5,0.39,0.07000000000000001,0.14
10.80572009086609,3,3,3,2,-9.369999999999999,2.28,-1.56,0.36,0.07000000000000001,0.07000000000000001
10.80572009086609,3,3,3,2,-9.369999999999999,2.28,-1.56,0.36,0.07000000000000001,0.07000000000000001
10.8257200717926,3,3,3,2,-9.369999999999999,2.4,-1.53,0.21,0.1,0.09
10.8257200717926,3,3,3,2,-9.369999999999999,2.4,-1.53,0.21,0.1,0.09
10.84572005271912,3,3,3,2,-9.35,2.45,-1.68,-0.04,0,0.13
10.84572005271912,3,3,3,2,-9.35,2.45,-1.68,-0.04,0,0.13
10.86572003364563,3,3,3,2,-9.300000000000001,2.39,-1.62,-0.15,0.11,0.11
10.86572003364563,3,3,3,2,-9.300000000000001,2.39,-1.62,-0.15,0.11,0.11
10.88572001457214,3,3,3,2,-9.31,2.3,-1.58,0,0.14,0.14
10.88572001457214,3,3,3,2,-9.31,2.3,-1.58,0,0.14,0.14
10.90571999549866,3,3,3,2,-9.34,2.28,-1.68,0.27,0.2,0.16
10.90571999549866,3,3,3,2,-9.34,2.28,-1.68,0.27,0.2,0.16
10.92571997642517,3,3,3,2,-9.380000000000001,2.41,-1.67,0.37,0.11,0.24
10.92571997642517,3,3,3,2,-9.380000000000001,2.41,-1.67,0.37,0.11,0.24
10.94571995735168,3,3,3,2,-9.359999999999999,2.38,-1.67,0.44,0.16,0.2
10.94571995735168,3,3,3,2,-9.359999999999999,2.38,-1.67,0.44,0.16,0.2
10.9657199382782,3,3,3,2,-9.33,2.36,-1.56,0.42,-0.02,0.25
10.9657199382782,3,3,3,2,-9.33,2.36,-1.56,0.42,-0.02,0.25
10.98571991920471,3,3,3,2,-9.32,2.29,-1.49,0.38,-0.08,0.21
10.98571991920471,3,3,3,2,-9.32,2.29,-1.49,0.38,-0.08,0.21
11.0057201385498,3,3,3,2,-9.380000000000001,2.36,-1.56,0.3,0.1,0.19
11.0057201385498,3,3,3,2,-9.380000000000001,2.36,-1.56,0.3,0.1,0.19
11.02572011947632,3,3,3,2,-9.380000000000001,2.36,-1.53,0.14,0.15,0.15
11.02572011947632,3,3,3,2,-9.380000000000001,2.36,-1.53,0.14,0.15,0.15
11.04572010040283,3,3,3,2,-9.369999999999999,2.39,-1.64,0,0.14,0.14
11.04572010040283,3,3,3,2,-9.369999999999999,2.39,-1.64,0,0.14,0.14
11.06572008132935,3,3,3,2,-9.34,2.41,-1.62,-0.02,0.15,0.07000000000000001
11.06572008132935,3,3,3,2,-9.34,2.41,-1.62,-0.02,0.15,0.07000000000000001
11.08572006225586,3,3,3,2,-9.33,2.39,-1.62,-0.08,0.18,0.08
11.08572006225586,3,3,3,2,-9.33,2.39,-1.62,-0.08,0.18,0.08
11.10572004318237,3,3,3,2,-9.32,2.39,-1.67,-0.07000000000000001,0.1,0.11
11.10572004318237,3,3,3,2,-9.32,2.39,-1.67,-0.07000000000000001,0.1,0.11
11.12572002410889,3,3,3,2,-9.31,2.35,-1.58,0,0.1,0.09
11.12572002410889,3,3,3,2,-9.31,2.35,-1.58,0,0.1,0.09
11.1457200050354,3,3,3,2,-9.34,2.36,-1.67,0.09,-0.07000000000000001,0.14
11.1457200050354,3,3,3,2,-9.34,2.36,-1.67,0.09,-0.07000000000000001,0.14
11.16571998596191,3,3,3,2,-9.359999999999999,2.36,-1.61,0.14,0.13,0.08
11.16571998596191,3,3,3,2,-9.359999999999999,2.36,-1.61,0.14,0.13,0.08
11.18571996688843,3,3,3,2,-9.359999999999999,2.45,-1.64,0.11,0.11,0.05
11.18571996688843,3,3,3,2,-9.359999999999999,2.45,-1.64,0.11,0.11,0.05
11.20571994781494,3,3,3,2,-9.300000000000001,2.41,-1.65,0.02,0.14,0.04
11.20571994781494,3,3,3,2,-9.300000000000001,2.41,-1.65,0.02,0.14,0.04
11.22571992874146,3,3,3,2,-9.31,2.4,-1.59,-0.08,0.21,0.03
11.22571992874146,3,3,3,2,-9.31,2.4,-1.59,-0.08,0.21,0.03
11.24572014808655,3,3,3,2,-9.34,2.37,-1.66,-0.21,0.09,0.09
11.24572014808655,3,3,3,2,-9.34,2.37,-1.66,-0.21,0.09,0.09
11.26572012901306,3,3,3,2,-9.33,2.38,-1.57,-0.17,0.3,0.07000000000000001
11.26572012901306,3,3,3,2,-9.33,2.38,-1.57,-0.17,0.3,0.07000000000000001
11.28572010993958,3,3,3,2,-9.359999999999999,2.33,-1.62,-0.26,0.24,0.03
11.28572010993958,3,3,3,2,-9.359999999999999,2.33,-1.62,-0.26,0.24,0.03
11.30572009086609,3,3,3,2,-9.359999999999999,2.28,-1.67,-0.21,0.17,0.08
11.30572009086609,3,3,3,2,-9.359999999999999,2.28,-1.67,-0.21,0.17,0.08
11.3257200717926,3,3,3,2,-9.34,2.3,-1.64,-0.01,0.18,0.04
11.3257200717926,3,3,3,2,-9.34,2.3,-1.64,-0.01,0.18,0.04
11.34572005271912,3,3,3,2,-9.34,2.35,-1.79,0.1,0.21,0.17
11.34572005271912,3,3,3,2,-9.34,2.35,-1.79,0.1,0.21,0.17
11.36572003364563,3,3,3,2,-9.359999999999999,2.39,-1.64,0.16,0.1,0.12
11.36572003364563,3,3,3,2,-9.359999999999999,2.39,-1.64,0.16,0.1,0.12
11.38572001457214,3,3,3,2,-9.32,2.37,-1.64,0.1,0.18,0.16
11.38572001457214,3,3,3,2,-9.32,2.37,-1.64,0.1,0.18,0.16
11.40571999549866,3,3,3,2,-9.31,2.33,-1.68,-0.05,0.16,0.18
11.40571999549866,3,3,3,2,-9.31,2.33,-1.68,-0.05,0.16,0.18
11.42571997642517,3,3,3,2,-9.369999999999999,2.31,-1.62,-0.05,0.2,0.1
11.42571997642517,3,3,3,2,-9.369999999999999,2.31,-1.62,-0.05,0.2,0.1
11.44571995735168,3,3,3,2,-9.369999999999999,2.33,-1.76,-0.19,-0.01,0.15
11.44571995735168,3,3,3,2,-9.369999999999999,2.33,-1.76,-0.19,-0.01,0.15
11.4657199382782,3,3,3,2,-9.300000000000001,2.33,-1.69,-0.08,0.13,0.09
11.4657199382782,3,3,3,2,-9.300000000000001,2.33,-1.69,-0.08,0.13,0.09
11.48571991920471,3,3,3,2,-9.289999999999999,2.33,-1.69,-0.08,0.1,0.08
11.48571991920471,3,3,3,2,-9.289999999999999,2.33,-1.69,-0.08,0.1,0.08
11.5057201385498,3,3,3,2,-9.279999999999999,2.32,-1.69,-0.07000000000000001,0.09,0.13
11.5057201385498,3,3,3,2,-9.279999999999999,2.32,-1.69,-0.07000000000000001,0.09,0.13
11.52572011947632,3,3,3,2,-9.31,2.39,-1.67,0.03,0.21,0.19
11.52572011947632,3,3,3,2,-9.31,2.39,-1.67,0.03,0.21,0.19
11.54572010040283,3,3,3,2,-9.359999999999999,2.45,-1.78,-0.06,0.08,0.27
11.54572010040283,3,3,3,2,-9.359999999999999,2.45,-1.78,-0.06,0.08,0.27
11.56572008132935,3,3,3,2,-9.289999999999999,2.37,-1.68,0.12,0.11,0.34
11.56572008132935,3,3,3,2,-9.289999999999999,2.37,-1.68,0.12,0.11,0.34
11.58572006225586,3,3,3,2,-9.34,2.22,-1.61,0.47,0.15,0.46
11.58572006225586,3,3,3,2,-9.34,2.22,-1.61,0.47,0.15,0.46
11.60572004318237,3,3,3,2,-9.380000000000001,2.28,-1.81,0.9,-0.01,0.65
11.60572004318237,3,3,3,2,-9.380000000000001,2.28,-1.81,0.9,-0.01,0.65
11.62572002410889,3,3,3,2,-9.24,2.52,-1.77,1.02,-0.21,0.63
11.62572002410889,3,3,3,2,-9.24,2.52,-1.77,1.02,-0.21,0.63
11.6457200050354,3,3,3,2,-9.17,2.39,-1.73,0.75,-0.28,0.61
11.6457200050354,3,3,3,2,-9.17,2.39,-1.73,0.75,-0.28,0.61
11.66571998596191,3,3,3,2,-9.199999999999999,2.52,-1.54,1.24,-0.62,0.68
11.66571998596191,3,3,3,2,-9.199999999999999,2.52,-1.54,1.24,-0.62,0.68
11.68571996688843,3,3,3,2,-9.17,2.93,-1.78,0.8,-0.87,0.9399999999999999
11.68571996688843,3,3,3,2,-9.17,2.93,-1.78,0.8,-0.87,0.9399999999999999
11.70571994781494,3,3,3,2,-9.42,2.29,-1.97,-0.43,-0.19,1.11
11.70571994781494,3,3,3,2,-9.42,2.29,-1.97,-0.43,-0.19,1.11
11.72571992874146,3,3,3,2,-9.390000000000001,2.05,-1.88,-0.34,-0.46,0.77
11.72571992874146,3,3,3,2,-9.390000000000001,2.05,-1.88,-0.34,-0.46,0.77
11.74572014808655,3,3,3,2,-9.35,1.67,-2.09,-0.33,-0.47,0.52
11.74572014808655,3,3,3,2,-9.35,1.67,-2.09,-0.33,-0.47,0.52
11.76572012901306,3,3,3,2,-9.470000000000001,1.74,-1.86,0.1,-0.62,0.53
11.76572012901306,3,3,3,2,-9.470000000000001,1.74,-1.86,0.1,-0.62,0.53
11.78572010993958,3,3,3,2,-9.66,1.88,-1.68,0.38,-0.71,0.39
11.78572010993958,3,3,3,2,-9.66,1.88,-1.68,0.38,-0.71,0.39
11.80672001838684,3,3,3,2,-9.59,1.89,-1.8,0,-1.13,-0.06
11.80672001838684,3,3,3,2,-9.59,1.89,-1.8,0,-1.13,-0.06
11.82671999931335,3,3,3,2,-9.4,1.79,-1.67,-0.43,-1.37,-0.25
11.82671999931335,3,3,3,2,-9.4,1.79,-1.67,-0.43,-1.37,-0.25
11.84671998023987,3,3,3,2,-9.550000000000001,1.51,-1.66,-0.55,-1.15,-0.33
11.84671998023987,3,3,3,2,-9.550000000000001,1.51,-1.66,-0.55,-1.15,-0.33
11.86671996116638,3,3,3,2,-9.6,1.32,-1.55,-0.12,-1.4,-0.53
11.86671996116638,3,3,3,2,-9.6,1.32,-1.55,-0.12,-1.4,-0.53
11.8867199420929,3,3,3,2,-9.69,1.23,-1.63,0.71,-1.33,-0.92
11.8867199420929,3,3,3,2,-9.69,1.23,-1.63,0.71,-1.33,-0.92
11.90671992301941,3,3,3,2,-9.67,1.29,-1.77,1.19,-1.65,-1.32
11.90671992301941,3,3,3,2,-9.67,1.29,-1.77,1.19,-1.65,-1.32
11.9267201423645,3,3,3,2,-9.710000000000001,0.84,-1.52,1.23,-2.04,-1.65
11.9267201423645,3,3,3,2,-9.710000000000001,0.84,-1.52,1.23,-2.04,-1.65
11.94672012329102,3,3,3,2,-9.81,0.48,-1.3,1.96,-1.95,-2.12
11.94672012329102,3,3,3,2,-9.81,0.48,-1.3,1.96,-1.95,-2.12
11.96672010421753,3,3,3,2,-10.08,0.14,-1.13,2.78,-2.41,-2.65
11.96672010421753,3,3,3,2,-10.08,0.14,-1.13,2.78,-2.41,-2.65
11.98672008514404,3,3,3,2,-10.29,0.26,-1.12,3.28,-2.92,-3.29
11.98672008514404,3,3,3,2,-10.29,0.26,-1.12,3.28,-2.92,-3.29
12.00672006607056,3,3,3,2,-10.55,0.24,-0.98,3.61,-3.84,-3.68
12.00672006607056,3,3,3,2,-10.55,0.24,-0.98,3.61,-3.84,-3.68
12.02672004699707,3,3,3,2,-10.75,-0.13,-0.65,3.56,-4.49,-4.68
12.02672004699707,3,3,3,2,-10.75,-0.13,-0.65,3.56,-4.49,-4.68
12.04672002792358,3,3,3,2,-11.36,-1,-0.21,3.39,-5.37,-6.06
12.04672002792358,3,3,3,2,-11.36,-1,-0.21,3.39,-5.37,-6.06
12.0667200088501,3,3,3,2,-11.6,-1.56,0.12,3.12,-6.23,-7.97
12.0667200088501,3,3,3,2,-11.6,-1.56,0.12,3.12,-6.23,-7.97
12.08671998977661,3,3,3,2,-11.51,-2.81,0.32,0.91,-6.38,-10.64
12.08671998977661,3,3,3,2,-11.51,-2.81,0.32,0.91,-6.38,-10.64
12.10671997070312,3,3,3,2,-11.21,-2.91,0.57,-3.41,-5.83,-11.84
12.10671997070312,3,3,3,2,-11.21,-2.91,0.57,-3.41,-5.83,-11.84
12.12671995162964,3,3,3,2,-10.56,-1.13,0.63,-2.39,-5.63,-9.800000000000001
12.12671995162964,3,3,3,2,-10.56,-1.13,0.63,-2.39,-5.63,-9.800000000000001
12.14671993255615,3,3,3,2,-10.51,-1.31,-1.76,1.08,-3.97,-9.57
12.14671993255615,3,3,3,2,-10.51,-1.31,-1.76,1.08,-3.97,-9.57
12.16671991348267,3,3,3,2,-11.09,0.72,-1.42,0.12,-4.12,-11.06
12.16671991348267,3,3,3,2,-11.09,0.72,-1.42,0.12,-4.12,-11.06
12.18672013282776,3,3,3,2,-10.86,2.96,0.01,0.53,-6.29,-10.56
12.18672013282776,3,3,3,2,-10.86,2.96,0.01,0.53,-6.29,-10.56
12.20672011375427,3,3,3,2,-10.29,3.3,-0.4,-2.07,-5.52,-10.69
12.20672011375427,3,3,3,2,-10.29,3.3,-0.4,-2.07,-5.52,-10.69
12.22672009468079,3,3,3,2,-9.77,3.52,-1.6,-4.96,-2.08,-10.97
12.22672009468079,3,3,3,2,-9.77,3.52,-1.6,-4.96,-2.08,-10.97
12.2467200756073,3,3,3,2,-9.359999999999999,0.87,-1.84,-5.09,-0.79,-12.14
12.2467200756073,3,3,3,2,-9.359999999999999,0.87,-1.84,-5.09,-0.79,-12.14
12.26672005653381,3,3,3,2,-9.630000000000001,0.17,-2.1,-3.95,-0.22,-12.62
12.26672005653381,3,3,3,2,-9.630000000000001,0.17,-2.1,-3.95,-0.22,-12.62
12.28672003746033,3,3,3,2,-8.859999999999999,0.41,-2.23,-1.44,-0.26,-11.94
12.28672003746033,3,3,3,2,-8.859999999999999,0.41,-2.23,-1.44,-0.26,-11.94
12.30672001838684,3,3,3,2,-8.51,0.3,-2.1,1.41,0.16,-11.28
12.30672001838684,3,3,3,2,-8.51,0.3,-2.1,1.41,0.16,-11.28
12.32671999931335,3,3,3,2,-8.73,-0.15,-1.93,4.56,1.39,-10.38
12.32671999931335,3,3,3,2,-8.73,-0.15,-1.93,4.56,1.39,-10.38
12.34671998023987,3,3,3,2,-8.859999999999999,-0.16,-1.59,7.5,1.53,-9.17
12.34671998023987,3,3,3,2,-8.859999999999999,-0.16,-1.59,7.5,1.53,-9.17
12.36671996116638,3,3,3,2,-8.31,0.01,-0.6899999999999999,9.359999999999999,1.62,-8.119999999999999
12.36671996116638,3,3,3,2,-8.31,0.01,-0.6899999999999999,9.359999999999999,1.62,-8.119999999999999
12.3867199420929,3,3,3,2,-8.16,-0.23,-0.31,10.05,1.98,-7.11
12.3867199420929,3,3,3,2,-8.16,-0.23,-0.31,10.05,1.98,-7.11
12.40671992301941,3,3,3,2,-8.18,-1.06,-0.05,10.99,2.34,-6.62
12.40671992301941,3,3,3,2,-8.18,-1.06,-0.05,10.99,2.34,-6.62
12.4267201423645,3,3,3,2,-8.51,-1.64,0.06,11.94,2.42,-6.15
12.4267201423645,3,3,3,2,-8.51,-1.64,0.06,11.94,2.42,-6.15
12.44672012329102,3,3,3,2,-8.83,-1.62,0.06,13.5,2.21,-5.56
12.44672012329102,3,3,3,2,-8.83,-1.62,0.06,13.5,2.21,-5.56
12.46672010421753,3,3,3,2,-8.94,-1.22,0.18,12.79,2.14,-5.4
12.46672010421753,3,3,3,2,-8.94,-1.22,0.18,12.79,2.14,-5.4
12.48672008514404,3,3,3,2,-8.279999999999999,-0.99,0.52,10.35,2.38,-5.15
12.48672008514404,3,3,3,2,-8.279999999999999,-0.99,0.52,10.35,2.38,-5.15
12.50672006607056,3,3,3,2,-8.32,-1.03,0.9,7.64,2.51,-4.02
12.50672006607056,3,3,3,2,-8.32,-1.03,0.9,7.64,2.51,-4.02
12.52672004699707,3,3,3,2,-8.68,-2.62,1.34,5.61,2.46,-3.07
12.52672004699707,3,3,3,2,-8.68,-2.62,1.34,5.61,2.46,-3.07
12.54672002792358,3,3,3,2,-8.75,-3.4,1.45,3.15,2.6,-2.36
12.54672002792358,3,3,3,2,-8.75,-3.4,1.45,3.15,2.6,-2.36
12.5667200088501,3,3,3,2,-9.449999999999999,-3.38,1.83,2.62,3.27,-0.78
12.5667200088501,3,3,3,2,-9.449999999999999,-3.38,1.83,2.62,3.27,-0.78
12.58671998977661,3,3,3,2,-9.220000000000001,-4.22,2.81,1.47,2.08,-0.53
12.58671998977661,3,3,3,2,-9.220000000000001,-4.22,2.81,1.47,2.08,-0.53
12.60671997070312,3,3,3,2,-9.41,-5.94,2.73,1.95,2.14,-0.45
12.60671997070312,3,3,3,2,-9.41,-5.94,2.73,1.95,2.14,-0.45
12.62671995162964,3,3,3,3,-9.210000000000001,-6.33,1.98,2.49,2.67,-0.59
12.62671995162964,3,3,3,3,-9.210000000000001,-6.33,1.98,2.49,2.67,-0.59
12.64671993255615,3,3,3,3,-8.800000000000001,-4.96,1.15,4.84,2.32,0.53
12.64671993255615,3,3,3,3,-8.800000000000001,-4.96,1.15,4.84,2.32,0.53
12.66671991348267,3,3,3,3,-8.34,-2.76,0.07000000000000001,5.46,2.55,1.4
12.66671991348267,3,3,3,3,-8.34,-2.76,0.07000000000000001,5.46,2.55,1.4
12.68672013282776,3,3,3,3,-8.31,-1.89,-1.11,3.77,4,0.98
12.68672013282776,3,3,3,3,-8.31,-1.89,-1.11,3.77,4,0.98
12.70672011375427,3,3,3,3,-8.76,0.97,-1.72,0.19,3.2,2.88
12.70672011375427,3,3,3,3,-8.76,0.97,-1.72,0.19,3.2,2.88
12.72672009468079,3,3,3,3,-12.08,-2.3,1,0.19,2.9,3.98
12.72672009468079,3,3,3,3,-12.08,-2.3,1,0.19,2.9,3.98
12.7467200756073,3,3,3,3,-14.34,-8.220000000000001,3.38,-0.02,4.5,1.49
12.7467200756073,3,3,3,3,-14.34,-8.220000000000001,3.38,-0.02,4.5,1.49
12.76672005653381,3,3,3,3,-15.28,-6.24,3.16,-2.27,4.06,2.76
12.76672005653381,3,3,3,3,-15.28,-6.24,3.16,-2.27,4.06,2.76
12.78672003746033,3,3,3,3,-11.23,3.08,1.45,-0.89,4.78,5.75
12.78672003746033,3,3,3,3,-11.23,3.08,1.45,-0.89,4.78,5.75
12.80672001838684,3,3,3,3,-7.69,7.64,-3.84,0.82,9.4,8.15
12.80672001838684,3,3,3,3,-7.69,7.64,-3.84,0.82,9.4,8.15
12.82771992683411,3,3,3,3,-7.13,0.87,-5.8,-5.91,7.54,7.51
12.82771992683411,3,3,3,3,-7.13,0.87,-5.8,-5.91,7.54,7.51
12.8477201461792,3,3,3,3,-9.65,-0.71,-5.3,-3.29,6.52,7.92
12.8477201461792,3,3,3,3,-9.65,-0.71,-5.3,-3.29,6.52,7.92
12.86772012710571,3,3,3,3,-9.960000000000001,2.61,-3.23,0.91,4.68,9.93
12.86772012710571,3,3,3,3,-9.960000000000001,2.61,-3.23,0.91,4.68,9.93
12.88772010803223,3,3,3,3,-9.26,2.98,-2.72,-0.06,6.46,10.13
12.88772010803223,3,3,3,3,-9.26,2.98,-2.72,-0.06,6.46,10.13
12.90772008895874,3,3,3,3,-10.09,1.21,-1.72,-1.85,6.13,10.08
12.90772008895874,3,3,3,3,-10.09,1.21,-1.72,-1.85,6.13,10.08
12.92772006988525,3,3,3,2,-9.970000000000001,0.75,-1.72,-2.56,6.26,10.26
12.92772006988525,3,3,3,2,-9.970000000000001,0.75,-1.72,-2.56,6.26,10.26
12.94772005081177,3,3,3,2,-9.31,0,-2.8,-1.76,5.43,10.04
12.94772005081177,3,3,3,2,-9.31,0,-2.8,-1.76,5.43,10.04
12.96772003173828,3,3,3,2,-8.93,-0.37,-3.49,-1.32,5.26,9.91
12.96772003173828,3,3,3,2,-8.93,-0.37,-3.49,-1.32,5.26,9.91
12.98772001266479,3,3,3,2,-8.81,0.15,-3.17,-0.45,4.41,9.42
12.98772001266479,3,3,3,2,-8.81,0.15,-3.17,-0.45,4.41,9.42
13.00771999359131,3,3,3,2,-8.98,-0.04,-2.68,-1.93,4.34,8.359999999999999
13.00771999359131,3,3,3,2,-8.98,-0.04,-2.68,-1.93,4.34,8.359999999999999
13.02771997451782,3,3,3,2,-9.529999999999999,-0.77,-2.37,-2.6,4.39,7.91
13.02771997451782,3,3,3,2,-9.529999999999999,-0.77,-2.37,-2.6,4.39,7.91
13.04771995544434,3,3,3,2,-9.699999999999999,-2.29,-2.61,-3.04,4.17,6.16
13.04771995544434,3,3,3,2,-9.699999999999999,-2.29,-2.61,-3.04,4.17,6.16
13.06771993637085,3,3,3,2,-9.1,-2.38,-2.78,-2.51,4.13,5.89
13.06771993637085,3,3,3,2,-9.1,-2.38,-2.78,-2.51,4.13,5.89
13.08771991729736,3,3,3,2,-8.460000000000001,-1.95,-3.23,0.11,4.12,5.15
13.08771991729736,3,3,3,2,-8.460000000000001,-1.95,-3.23,0.11,4.12,5.15
13.10772013664246,3,3,3,2,-8.51,-2.84,-2.77,2.71,3.63,4.89
13.10772013664246,3,3,3,2,-8.51,-2.84,-2.77,2.71,3.63,4.89
13.12772011756897,3,3,3,2,-10.29,-1.29,-1.7,3.51,3.06,5.03
13.12772011756897,3,3,3,2,-10.29,-1.29,-1.7,3.51,3.06,5.03
13.14772009849548,3,3,3,2,-10.97,3.5,-1.52,-0.86,3.17,6.13
13.14772009849548,3,3,3,2,-10.97,3.5,-1.52,-0.86,3.17,6.13
13.167720079422,3,3,3,2,-9.460000000000001,2.56,-2.68,-2.88,3.14,5.84
13.167720079422,3,3,3,2,-9.460000000000001,2.56,-2.68,-2.88,3.14,5.84
13.18772006034851,3,3,3,2,-8.44,0.62,-3.78,-3.55,2.58,5.99
13.18772006034851,3,3,3,2,-8.44,0.62,-3.78,-3.55,2.58,5.99
13.20772004127502,3,3,3,2,-8.68,1.47,-3.83,-4.16,2.05,6.57
13.20772004127502,3,3,3,2,-8.68,1.47,-3.83,-4.16,2.05,6.57
13.22772002220154,3,3,3,2,-9.31,1.25,-2.7,-5.31,1.75,6.64
13.22772002220154,3,3,3,2,-9.31,1.25,-2.7,-5.31,1.75,6.64
13.24772000312805,3,3,3,2,-9.59,-0.01,-2.43,-6.54,1.55,6.7
13.24772000312805,3,3,3,2,-9.59,-0.01,-2.43,-6.54,1.55,6.7
13.26771998405457,3,3,3,2,-9.25,0.11,-2.48,-6.21,1.9,6.66
13.26771998405457,3,3,3,2,-9.25,0.11,-2.48,-6.21,1.9,6.66
13.28771996498108,3,3,3,1,-9.390000000000001,1.32,-2.51,-7.15,2.1,6.61
13.28771996498108,3,3,3,1,-9.390000000000001,1.32,-2.51,-7.15,2.1,6.61
13.30771994590759,3,3,3,1,-9.01,1.53,-2.82,-7.96,3.01,6.79
13.30771994590759,3,3,3,1,-9.01,1.53,-2.82,-7.96,3.01,6.79
13.32771992683411,3,3,3,1,-8.800000000000001,1.65,-2.65,-8.869999999999999,3.39,7
13.32771992683411,3,3,3,1,-8.800000000000001,1.65,-2.65,-8.869999999999999,3.39,7
13.3477201461792,3,3,3,1,-9.029999999999999,1.5,-3.09,-9.15,4.21,7.03
13.3477201461792,3,3,3,1,-9.029999999999999,1.5,-3.09,-9.15,4.21,7.03
13.36772012710571,3,3,3,1,-9.67,1.57,-3.35,-8.34,3.93,6.73
13.36772012710571,3,3,3,1,-9.67,1.57,-3.35,-8.34,3.93,6.73
13.38772010803223,3,3,3,1,-9.82,1.72,-3.27,-6.04,1.45,5.69
13.38772010803223,3,3,3,1,-9.82,1.72,-3.27,-6.04,1.45,5.69
13.40772008895874,3,3,3,1,-9.49,1.53,-3.06,-5.86,0.98,5.43
13.40772008895874,3,3,3,1,-9.49,1.53,-3.06,-5.86,0.98,5.43
13.42772006988525,3,3,3,1,-9.380000000000001,1.25,-2.57,-5.62,1.16,5.23
13.42772006988525,3,3,3,1,-9.380000000000001,1.25,-2.57,-5.62,1.16,5.23
13.44772005081177,3,3,3,1,-9.26,1.67,-2.14,-5.6,1.89,5.15
13.44772005081177,3,3,3,1,-9.26,1.67,-2.14,-5.6,1.89,5.15
13.46772003173828,3,3,3,2,-8.890000000000001,1.8,-2.29,-6.11,2.21,5.14
13.46772003173828,3,3,3,2,-8.890000000000001,1.8,-2.29,-6.11,2.21,5.14
13.48772001266479,3,3,3,2,-9.02,2.02,-2.87,-6.72,2.33,5.81
13.48772001266479,3,3,3,2,-9.02,2.02,-2.87,-6.72,2.33,5.81
13.50771999359131,3,3,3,2,-10.09,1.92,-3.14,-6.4,1.48,5.93
13.50771999359131,3,3,3,2,-10.09,1.92,-3.14,-6.4,1.48,5.93
13.52771997451782,3,3,3,2,-10.71,1.45,-3.45,-6.41,1.27,5.77
13.52771997451782,3,3,3,2,-10.71,1.45,-3.45,-6.41,1.27,5.77
13.54771995544434,3,3,3,2,-11.09,0.47,-3.69,-6.93,1.57,5.18
13.54771995544434,3,3,3,2,-11.09,0.47,-3.69,-6.93,1.57,5.18
13.56771993637085,3,3,3,2,-11.96,-0.03,-2.43,-6.47,0.97,4.75
13.56771993637085,3,3,3,2,-11.96,-0.03,-2.43,-6.47,0.97,4.75
13.58771991729736,3,3,3,2,-11.53,-0.8100000000000001,-1.83,-7.07,-0.42,3.39
13.58771991729736,3,3,3,2,-11.53,-0.8100000000000001,-1.83,-7.07,-0.42,3.39
13.60772013664246,3,3,3,2,-13.33,-2.38,-0.43,-5.57,-2.76,1.55
13.60772013664246,3,3,3,2,-13.33,-2.38,-0.43,-5.57,-2.76,1.55
13.62772011756897,3,3,3,2,-13.8,-2.91,0.06,-4.49,-4.78,0.06
13.62772011756897,3,3,3,2,-13.8,-2.91,0.06,-4.49,-4.78,0.06
13.64772009849548,3,3,3,2,-13.14,-5.28,1.27,-3.17,-8.27,-6.86
13.64772009849548,3,3,3,2,-13.14,-5.28,1.27,-3.17,-8.27,-6.86
13.667720079422,3,3,3,2,-13.04,-3.29,2.85,-3.1,-10.27,-8.220000000000001
13.667720079422,3,3,3,2,-13.04,-3.29,2.85,-3.1,-10.27,-8.220000000000001
13.68772006034851,3,3,3,2,-9.67,-2.28,2.47,-11.52,-9.970000000000001,-11.63
13.68772006034851,3,3,3,2,-9.67,-2.28,2.47,-11.52,-9.970000000000001,-11.63
13.70772004127502,3,3,3,2,-9.23,-2.88,-0.76,-9.27,-8.9,-16.13
13.70772004127502,3,3,3,2,-9.23,-2.88,-0.76,-9.27,-8.9,-16.13
13.72772002220154,3,3,3,2,-12.39,0.8,-2.28,-6.64,-9.210000000000001,-17.4
13.72772002220154,3,3,3,2,-12.39,0.8,-2.28,-6.64,-9.210000000000001,-17.4
13.74772000312805,3,3,3,2,-13.81,3.16,-3.09,-3.95,-7.73,-16.18
13.74772000312805,3,3,3,2,-13.81,3.16,-3.09,-3.95,-7.73,-16.18
13.76771998405457,3,3,3,2,-12.91,4.59,-3.69,-3.05,-6.73,-16.62
13.76771998405457,3,3,3,2,-12.91,4.59,-3.69,-3.05,-6.73,-16.62
13.78771996498108,3,3,3,2,-11.54,4.59,-2.72,0.34,-4.81,-19.77
13.78771996498108,3,3,3,2,-11.54,4.59,-2.72,0.34,-4.81,-19.77
13.80771994590759,3,3,3,2,-12.01,4.57,-2.63,0.39,-4.41,-20.13
13.80771994590759,3,3,3,2,-12.01,4.57,-2.63,0.39,-4.41,-20.13
13.82771992683411,3,3,3,2,-12.17,4.68,-3.01,0.57,-3.93,-19.62
13.82771992683411,3,3,3,2,-12.17,4.68,-3.01,0.57,-3.93,-19.62
13.84872007369995,3,3,3,2,-10.3,5.36,-3.45,1.11,-3.01,-20.41
13.84872007369995,3,3,3,2,-10.3,5.36,-3.45,1.11,-3.01,-20.41
13.86872005462646,3,3,3,2,-9.82,4.33,-3.58,0.59,-2.48,-21.5
13.86872005462646,3,3,3,2,-9.82,4.33,-3.58,0.59,-2.48,-21.5
13.88872003555298,3,3,3,2,-9.140000000000001,2.67,-3.46,3.88,-1.79,-22.07
13.88872003555298,3,3,3,2,-9.140000000000001,2.67,-3.46,3.88,-1.79,-22.07
13.90872001647949,3,3,3,2,-8.76,2.59,-3.22,8.26,-1.36,-20.88
13.90872001647949,3,3,3,2,-8.76,2.59,-3.22,8.26,-1.36,-20.88
13.92871999740601,3,3,3,2,-8.57,3.18,-3.09,12.41,-1.68,-19.28
13.92871999740601,3,3,3,2,-8.57,3.18,-3.09,12.41,-1.68,-19.28
13.94871997833252,3,3,3,2,-8.25,4.01,-2.58,13.53,-1.51,-17.54
13.94871997833252,3,3,3,2,-8.25,4.01,-2.58,13.53,-1.51,-17.54
13.96871995925903,3,3,3,2,-7.69,3.83,-2.15,15.76,-1.56,-15.67
13.96871995925903,3,3,3,2,-7.69,3.83,-2.15,15.76,-1.56,-15.67
13.98871994018555,3,3,3,2,-7.09,4.53,-2.23,16,-0.5600000000000001,-12.24
13.98871994018555,3,3,3,2,-7.09,4.53,-2.23,16,-0.5600000000000001,-12.24
14.00871992111206,3,3,3,2,-6.66,4.73,-2.4,12.89,0.75,-9.81
14.00871992111206,3,3,3,2,-6.66,4.73,-2.4,12.89,0.75,-9.81
14.02872014045715,3,3,3,2,-6.67,4.45,-2.35,9,1.45,-8.32
14.02872014045715,3,3,3,2,-6.67,4.45,-2.35,9,1.45,-8.32
14.04872012138367,3,3,3,2,-6.13,3.29,-1.57,6.86,1.68,-7.31
14.04872012138367,3,3,3,2,-6.13,3.29,-1.57,6.86,1.68,-7.31
14.06872010231018,3,3,3,2,-5.53,3.02,-1.08,6.26,3.28,-5.9
14.06872010231018,3,3,3,2,-5.53,3.02,-1.08,6.26,3.28,-5.9
14.08872008323669,3,3,3,2,-5.53,1.77,-1.25,4.12,6.02,-3.1
14.08872008323669,3,3,3,2,-5.53,1.77,-1.25,4.12,6.02,-3.1
14.10872006416321,3,3,3,2,-6.26,0.76,-1.59,1.95,7.37,0.17
14.10872006416321,3,3,3,2,-6.26,0.76,-1.59,1.95,7.37,0.17
14.12872004508972,3,3,3,1,-7.45,-1.16,-1.23,-1.14,8.210000000000001,0.73
14.12872004508972,3,3,3,1,-7.45,-1.16,-1.23,-1.14,8.210000000000001,0.73
14.14872002601624,3,3,3,1,-10.86,-7.18,1.61,0.99,7.32,-2.3
14.14872002601624,3,3,3,1,-10.86,-7.18,1.61,0.99,7.32,-2.3
14.16872000694275,3,3,3,1,-13.02,-11.2,3.08,4.24,6.46,-5.58
14.16872000694275,3,3,3,1,-13.02,-11.2,3.08,4.24,6.46,-5.58
14.18871998786926,3,3,3,1,-15.46,-17.77,3.46,7.6,-1.68,-6.63
14.18871998786926,3,3,3,1,-15.46,-17.77,3.46,7.6,-1.68,-6.63
14.20871996879578,3,3,3,1,-13.15,-13.84,3.56,4.28,-6.78,-5.51
14.20871996879578,3,3,3,1,-13.15,-13.84,3.56,4.28,-6.78,-5.51
14.22871994972229,3,3,3,1,-9.65,-1.71,0.72,6.25,-3.29,-3.96
14.22871994972229,3,3,3,1,-9.65,-1.71,0.72,6.25,-3.29,-3.96
14.2487199306488,3,3,3,1,-7.22,-2.35,-2.12,5.34,3.68,-6.11
14.2487199306488,3,3,3,1,-7.22,-2.35,-2.12,5.34,3.68,-6.11
14.2687201499939,3,3,3,1,-1.93,5.09,-4.72,-8.74,6.18,6.67
14.2687201499939,3,3,3,1,-1.93,5.09,-4.72,-8.74,6.18,6.67
14.28872013092041,3,3,3,1,-17.68,-10.2,4.54,3.88,2.44,6.24
14.28872013092041,3,3,3,1,-17.68,-10.2,4.54,3.88,2.44,6.24
14.30872011184692,3,3,3,1,-16.81,-9.699999999999999,3.84,9.56,0.85,5.44
14.30872011184692,3,3,3,1,-16.81,-9.699999999999999,3.84,9.56,0.85,5.44
14.32872009277344,3,3,3,1,-11.25,7.34,-1.1,14.13,3.02,10.86
14.32872009277344,3,3,3,1,-11.25,7.34,-1.1,14.13,3.02,10.86
14.34872007369995,3,3,3,1,-8.77,9.33,-5.14,5.19,8.470000000000001,11.74
14.34872007369995,3,3,3,1,-8.77,9.33,-5.14,5.19,8.470000000000001,11.74
14.36872005462646,3,3,3,0,-7.29,2.8,-8.210000000000001,0.47,11.3,11.59
14.36872005462646,3,3,3,0,-7.29,2.8,-8.210000000000001,0.47,11.3,11.59
14.38872003555298,3,3,3,0,-8.279999999999999,0.36,-5.46,-0.78,7.95,13.59
14.38872003555298,3,3,3,0,-8.279999999999999,0.36,-5.46,-0.78,7.95,13.59
14.40872001647949,3,3,3,0,-9.57,3.4,-3.74,4.85,7.11,14.87
14.40872001647949,3,3,3,0,-9.57,3.4,-3.74,4.85,7.11,14.87
14.42871999740601,3,3,3,0,-9.359999999999999,1.69,-2.37,4.62,6.49,13.55
14.42871999740601,3,3,3,0,-9.359999999999999,1.69,-2.37,4.62,6.49,13.55
14.44871997833252,3,3,3,0,-10.99,1.8,-0.6,5.44,6.15,14.2
14.44871997833252,3,3,3,0,-10.99,1.8,-0.6,5.44,6.15,14.2
14.46871995925903,3,3,3,0,-9.76,2.94,-2.09,4.28,6.96,14.25
14.46871995925903,3,3,3,0,-9.76,2.94,-2.09,4.28,6.96,14.25
14.48871994018555,3,3,3,0,-8.82,1.89,-3.34,1.71,6.25,13.6
14.48871994018555,3,3,3,0,-8.82,1.89,-3.34,1.71,6.25,13.6
14.50871992111206,3,3,3,0,-8.74,1,-4.22,0.07000000000000001,6.28,13.02
14.50871992111206,3,3,3,0,-8.74,1,-4.22,0.07000000000000001,6.28,13.02
14.52872014045715,3,3,3,0,-8.84,0.57,-3.67,-1.62,5.48,12.51
14.52872014045715,3,3,3,0,-8.84,0.57,-3.67,-1.62,5.48,12.51
14.54872012138367,3,3,3,0,-9.039999999999999,0.39,-2.63,-2.96,4.51,12.52
14.54872012138367,3,3,3,0,-9.039999999999999,0.39,-2.63,-2.96,4.51,12.52
14.56872010231018,3,3,3,0,-9.43,0.98,-2.21,-7.15,4.49,13.34
14.56872010231018,3,3,3,0,-9.43,0.98,-2.21,-7.15,4.49,13.34
14.58872008323669,3,3,3,0,-9.33,-0.95,-2.82,-10.62,4.85,13.26
14.58872008323669,3,3,3,0,-9.33,-0.95,-2.82,-10.62,4.85,13.26
14.60872006416321,3,3,3,0,-9.210000000000001,-2.5,-2.7,-10.05,5.63,13.26
14.60872006416321,3,3,3,0,-9.210000000000001,-2.5,-2.7,-10.05,5.63,13.26
14.62872004508972,3,3,3,0,-9.470000000000001,-1.86,-1.45,-9.050000000000001,7.26,11.33
14.62872004508972,3,3,3,0,-9.470000000000001,-1.86,-1.45,-9.050000000000001,7.26,11.33
14.64872002601624,3,3,3,0,-10.26,0.13,-3.46,-7.37,6.7,8.699999999999999
14.64872002601624,3,3,3,0,-10.26,0.13,-3.46,-7.37,6.7,8.699999999999999
14.66872000694275,3,3,3,0,-9.970000000000001,1.59,-3.24,-6.36,3.61,6.63
14.66872000694275,3,3,3,0,-9.970000000000001,1.59,-3.24,-6.36,3.61,6.63
14.68871998786926,3,3,3,0,-9.039999999999999,1.63,-2.76,-6.92,2.35,5.89
14.68871998786926,3,3,3,0,-9.039999999999999,1.63,-2.76,-6.92,2.35,5.89
14.70871996879578,3,3,3,0,-8.949999999999999,1.4,-2.38,-7.73,3.45,5.88
14.70871996879578,3,3,3,0,-8.949999999999999,1.4,-2.38,-7.73,3.45,5.88
14.72871994972229,3,3,3,0,-9.119999999999999,0.77,-2.18,-8.289999999999999,4.45,5.59
14.72871994972229,3,3,3,0,-9.119999999999999,0.77,-2.18,-8.289999999999999,4.45,5.59
14.7487199306488,3,3,3,0,-9.220000000000001,1.06,-2.54,-9.050000000000001,4.99,5.22
14.7487199306488,3,3,3,0,-9.220000000000001,1.06,-2.54,-9.050000000000001,4.99,5.22
14.7687201499939,3,3,3,0,-9.24,2.02,-2.92,-9.119999999999999,4.24,5.33
14.7687201499939,3,3,3,0,-9.24,2.02,-2.92,-9.119999999999999,4.24,5.33
14.78872013092041,3,3,3,0,-9.41,2.39,-2.92,-8.41,2.87,5.89
14.78872013092041,3,3,3,0,-9.41,2.39,-2.92,-8.41,2.87,5.89
14.80872011184692,3,3,3,0,-9.619999999999999,2.43,-2.83,-7.6,2.19,6.39
14.80872011184692,3,3,3,0,-9.619999999999999,2.43,-2.83,-7.6,2.19,6.39
14.82872009277344,3,3,3,1,-9.35,1.72,-2.79,-7.12,3.01,6.4
14.82872009277344,3,3,3,1,-9.35,1.72,-2.79,-7.12,3.01,6.4
14.84872007369995,3,3,3,1,-9.6,1.62,-2.75,-6.72,3.18,6.37
14.84872007369995,3,3,3,1,-9.6,1.62,-2.75,-6.72,3.18,6.37
14.86872005462646,3,3,3,1,-9.93,1.51,-2.44,-7.15,2.45,6.7
14.86872005462646,3,3,3,1,-9.93,1.51,-2.44,-7.15,2.45,6.7
14.88971996307373,3,3,3,1,-9.720000000000001,0.19,-2.17,-7.86,2.42,6.83
14.88971996307373,3,3,3,1,-9.720000000000001,0.19,-2.17,-7.86,2.42,6.83
14.90971994400024,3,3,3,1,-9.960000000000001,0.02,-1.96,-6.97,2.26,7.03
14.90971994400024,3,3,3,1,-9.960000000000001,0.02,-1.96,-6.97,2.26,7.03
14.92971992492676,3,3,3,1,-10.05,-0.16,-2.65,-6.8,1.32,6.44
14.92971992492676,3,3,3,1,-10.05,-0.16,-2.65,-6.8,1.32,6.44
14.94972014427185,3,3,3,1,-10.98,0.63,-2.25,-5.42,-0.26,5.21
14.94972014427185,3,3,3,1,-10.98,0.63,-2.25,-5.42,-0.26,5.21
14.96972012519836,3,3,3,1,-11.43,0.52,-2.43,-7.17,-0.06,4.06
14.96972012519836,3,3,3,1,-11.43,0.52,-2.43,-7.17,-0.06,4.06
14.98972010612488,3,3,3,1,-12.3,-1.12,-2.15,-9.32,0.85,3.02
14.98972010612488,3,3,3,1,-12.3,-1.12,-2.15,-9.32,0.85,3.02
15.00972008705139,3,3,3,1,-12.8,-2.63,-1.15,-9.33,0.07000000000000001,1.9
15.00972008705139,3,3,3,1,-12.8,-2.63,-1.15,-9.33,0.07000000000000001,1.9
15.02972006797791,3,3,3,1,-12.79,-5.01,-0.31,-8.99,-1.21,1.22
15.02972006797791,3,3,3,1,-12.79,-5.01,-0.31,-8.99,-1.21,1.22
15.04972004890442,3,3,3,1,-13.92,-6.87,1.49,-5.45,-6.49,-3.67
15.04972004890442,3,3,3,1,-13.92,-6.87,1.49,-5.45,-6.49,-3.67
15.06972002983093,3,3,3,2,-14.7,-4.13,4.03,-2.09,-10.65,-8.76
15.06972002983093,3,3,3,2,-14.7,-4.13,4.03,-2.09,-10.65,-8.76
15.08972001075745,3,3,3,2,-12,-1.67,3.29,-2.94,-12.33,-9.710000000000001
15.08972001075745,3,3,3,2,-12,-1.67,3.29,-2.94,-12.33,-9.710000000000001
15.10971999168396,3,3,3,2,-10.53,-2.33,-4.2,-13.28,-10.3,-13.05
15.10971999168396,3,3,3,2,-10.53,-2.33,-4.2,-13.28,-10.3,-13.05
15.12971997261047,3,3,3,2,-13.58,1.22,-4.52,-9.4,-8.16,-17.86
15.12971997261047,3,3,3,2,-13.58,1.22,-4.52,-9.4,-8.16,-17.86
15.14971995353699,3,3,3,2,-16.51,4.98,-3.83,-1.98,-9.17,-18.54
15.14971995353699,3,3,3,2,-16.51,4.98,-3.83,-1.98,-9.17,-18.54
15.1697199344635,3,3,3,2,-15.12,6.91,-3.9,-0.5,-6.88,-19.35
15.1697199344635,3,3,3,2,-15.12,6.91,-3.9,-0.5,-6.88,-19.35
15.18971991539001,3,3,3,2,-11.04,4.68,-2,-1.64,-6.32,-20.89
15.18971991539001,3,3,3,2,-11.04,4.68,-2,-1.64,-6.32,-20.89
15.20972013473511,3,3,3,2,-11.51,3.91,-1.74,-1.04,-4.83,-23.21
15.20972013473511,3,3,3,2,-11.51,3.91,-1.74,-1.04,-4.83,-23.21
15.22972011566162,3,3,3,2,-11.8,6.17,-2.19,2.57,-3.6,-22.52
15.22972011566162,3,3,3,2,-11.8,6.17,-2.19,2.57,-3.6,-22.52
15.24972009658813,3,3,3,2,-10.92,6.01,-2.42,4.6,-3.98,-21.6
15.24972009658813,3,3,3,2,-10.92,6.01,-2.42,4.6,-3.98,-21.6
15.26972007751465,3,3,3,2,-9.9,5.39,-2.79,3.89,-3.75,-22.15
15.26972007751465,3,3,3,2,-9.9,5.39,-2.79,3.89,-3.75,-22.15
15.28972005844116,3,3,3,2,-9.130000000000001,4.15,-3.02,1.71,-3.44,-22.74
15.28972005844116,3,3,3,2,-9.130000000000001,4.15,-3.02,1.71,-3.44,-22.74
15.30972003936768,3,3,3,2,-7.87,3.28,-3.25,4.41,-2.99,-22.22
15.30972003936768,3,3,3,2,-7.87,3.28,-3.25,4.41,-2.99,-22.22
15.32972002029419,3,3,3,2,-7.35,3.55,-3.31,9.949999999999999,-2.71,-20.68
15.32972002029419,3,3,3,2,-7.35,3.55,-3.31,9.949999999999999,-2.71,-20.68
15.3497200012207,3,3,3,2,-7.04,5.08,-3.32,14.23,-2.33,-18.63
15.3497200012207,3,3,3,2,-7.04,5.08,-3.32,14.23,-2.33,-18.63
15.36971998214722,3,3,3,2,-6.79,5.72,-2.93,15.87,-2.13,-16.61
15.36971998214722,3,3,3,2,-6.79,5.72,-2.93,15.87,-2.13,-16.61
15.38971996307373,3,3,3,2,-6.8,5.57,-2.99,15.16,-1.91,-14.96
15.38971996307373,3,3,3,2,-6.8,5.57,-2.99,15.16,-1.91,-14.96
15.40971994400024,3,3,3,2,-5.89,5.28,-3.08,12.32,0.06,-11.9
15.40971994400024,3,3,3,2,-5.89,5.28,-3.08,12.32,0.06,-11.9
15.42971992492676,3,3,3,2,-5.59,5.16,-3.07,9.07,1.99,-10.31
15.42971992492676,3,3,3,2,-5.59,5.16,-3.07,9.07,1.99,-10.31
15.44972014427185,3,3,3,2,-4.98,4.77,-2.91,5.78,2.26,-8.140000000000001
15.44972014427185,3,3,3,2,-4.98,4.77,-2.91,5.78,2.26,-8.140000000000001
15.46972012519836,3,3,3,2,-4.42,3.63,-1.99,3.27,3.02,-5.88
15.46972012519836,3,3,3,2,-4.42,3.63,-1.99,3.27,3.02,-5.88
15.48972010612488,3,3,3,2,-4.72,0.75,-1.63,-0.6899999999999999,4.39,-3.53
15.48972010612488,3,3,3,2,-4.72,0.75,-1.63,-0.6899999999999999,4.39,-3.53
15.50972008705139,3,3,3,2,-6.52,-2.18,-1.29,0.06,8.06,0.03
15.50972008705139,3,3,3,2,-6.52,-2.18,-1.29,0.06,8.06,0.03
15.52972006797791,3,3,3,2,-9.27,-4.15,-0.79,5.81,10.53,2.66
15.52972006797791,3,3,3,2,-9.27,-4.15,-0.79,5.81,10.53,2.66
15.54972004890442,3,3,3,2,-12.98,-8.75,4.32,12.23,6.82,1.2
15.54972004890442,3,3,3,2,-12.98,-8.75,4.32,12.23,6.82,1.2
15.56972002983093,3,3,3,2,-14.77,-13.34,6.17,17.67,1.36,-1.32
15.56972002983093,3,3,3,2,-14.77,-13.34,6.17,17.67,1.36,-1.32
15.58972001075745,3,3,3,2,-14.74,-16.56,3.95,17.88,-6.41,-3.24
15.58972001075745,3,3,3,2,-14.74,-16.56,3.95,17.88,-6.41,-3.24
15.60971999168396,3,3,3,2,-11.41,-6.95,2.76,8.06,-9.720000000000001,-2.97
15.60971999168396,3,3,3,2,-11.41,-6.95,2.76,8.06,-9.720000000000001,-2.97
15.62971997261047,3,3,3,2,-8.66,0.51,-0.16,7.29,-2.99,-4.36
15.62971997261047,3,3,3,2,-8.66,0.51,-0.16,7.29,-2.99,-4.36
15.64971995353699,3,3,3,2,-7.92,0.52,-3.87,4.63,2.73,-5.28
15.64971995353699,3,3,3,2,-7.92,0.52,-3.87,4.63,2.73,-5.28
15.6697199344635,3,3,3,1,-10.48,-4.69,2.43,-11.2,6.74,-0.64
15.6697199344635,3,3,3,1,-10.48,-4.69,2.43,-11.2,6.74,-0.64
15.68971991539001,3,3,3,1,-16.84,-8.390000000000001,4.15,-4.04,1.82,3.94
15.68971991539001,3,3,3,1,-16.84,-8.390000000000001,4.15,-4.04,1.82,3.94
15.70972013473511,3,3,3,1,-12.42,6.83,-0.72,8.4,5.67,7.5
15.70972013473511,3,3,3,1,-12.42,6.83,-0.72,8.4,5.67,7.5
15.72972011566162,3,3,3,1,-9.26,9.69,-6.68,9.91,6.82,9.69
15.72972011566162,3,3,3,1,-9.26,9.69,-6.68,9.91,6.82,9.69
15.74972009658813,3,3,3,1,-6.77,6.27,-9.029999999999999,-3.06,9.119999999999999,8.529999999999999
15.74972009658813,3,3,3,1,-6.77,6.27,-9.029999999999999,-3.06,9.119999999999999,8.529999999999999
15.76972007751465,3,3,3,1,-8.93,-0.95,-5.86,-6.5,9.039999999999999,11.87
15.76972007751465,3,3,3,1,-8.93,-0.95,-5.86,-6.5,9.039999999999999,11.87
15.78972005844116,3,3,3,1,-9.06,2.19,-5.32,2.04,7.89,14.86
15.78972005844116,3,3,3,1,-9.06,2.19,-5.32,2.04,7.89,14.86
15.80972003936768,3,3,3,1,-9.59,1.75,-2.57,5.87,8.380000000000001,15.06
15.80972003936768,3,3,3,1,-9.59,1.75,-2.57,5.87,8.380000000000001,15.06
15.82972002029419,3,3,3,1,-9.94,1.39,-1,6.54,7.87,14.84
15.82972002029419,3,3,3,1,-9.94,1.39,-1,6.54,7.87,14.84
15.8497200012207,3,3,3,1,-9.800000000000001,2.22,-1.13,5.9,7.38,14.81
15.8497200012207,3,3,3,1,-9.800000000000001,2.22,-1.13,5.9,7.38,14.81
15.86971998214722,3,3,3,1,-9.32,2.19,-2.38,3.69,7.02,14.54
15.86971998214722,3,3,3,1,-9.32,2.19,-2.38,3.69,7.02,14.54
15.88971996307373,3,3,3,1,-9.01,1.4,-2.9,1.02,6.83,13.59
15.88971996307373,3,3,3,1,-9.01,1.4,-2.9,1.02,6.83,13.59
15.91072010993958,3,3,3,1,-8.83,0.96,-3.45,-0.68,6.82,13.01
15.91072010993958,3,3,3,1,-8.83,0.96,-3.45,-0.68,6.82,13.01
15.93072009086609,3,3,3,1,-9.07,1.25,-2.98,-2.32,6.23,12.46
15.93072009086609,3,3,3,1,-9.07,1.25,-2.98,-2.32,6.23,12.46
15.9507200717926,3,3,3,1,-9.4,0.74,-2.53,-5.47,4.3,12.3
15.9507200717926,3,3,3,1,-9.4,0.74,-2.53,-5.47,4.3,12.3
15.97072005271912,3,3,3,1,-9.58,-1.34,-2.46,-10.41,4.58,12.47
15.97072005271912,3,3,3,1,-9.58,-1.34,-2.46,-10.41,4.58,12.47
15.99072003364563,3,3,3,1,-9.640000000000001,-2.84,-2.8,-12.79,5.28,12.1
15.99072003364563,3,3,3,1,-9.640000000000001,-2.84,-2.8,-12.79,5.28,12.1
16.01072001457214,3,3,3,1,-9.82,-3.61,-1.98,-14.19,4.29,12.34
16.01072001457214,3,3,3,1,-9.82,-3.61,-1.98,-14.19,4.29,12.34
16.03071999549866,3,3,3,1,-9.77,-1.81,-1.57,-11.55,6.3,11.31
16.03071999549866,3,3,3,1,-9.77,-1.81,-1.57,-11.55,6.3,11.31
16.05071997642517,3,3,3,1,-10.03,0.42,-3.56,-10.19,6.19,8.960000000000001
16.05071997642517,3,3,3,1,-10.03,0.42,-3.56,-10.19,6.19,8.960000000000001
16.07071995735168,3,3,3,1,-10.2,2.17,-3.77,-7.31,4.14,6.37
16.07071995735168,3,3,3,1,-10.2,2.17,-3.77,-7.31,4.14,6.37
16.0907199382782,3,3,3,1,-9.130000000000001,2.96,-2.96,-6.61,2.06,5.3
16.0907199382782,3,3,3,1,-9.130000000000001,2.96,-2.96,-6.61,2.06,5.3
16.11071991920471,3,3,3,1,-8.609999999999999,2.22,-2.34,-7.79,2.19,5.59
16.11071991920471,3,3,3,1,-8.609999999999999,2.22,-2.34,-7.79,2.19,5.59
16.1307201385498,3,3,3,1,-8.99,0.99,-2.3,-8.300000000000001,3.41,6.19
16.1307201385498,3,3,3,1,-8.99,0.99,-2.3,-8.300000000000001,3.41,6.19
16.15072011947632,3,3,3,1,-9.01,0.96,-2.59,-8.029999999999999,4.06,6.1
16.15072011947632,3,3,3,1,-9.01,0.96,-2.59,-8.029999999999999,4.06,6.1
16.17072010040283,3,3,3,2,-9.130000000000001,1.26,-2.68,-7.54,3.55,5.72
16.17072010040283,3,3,3,2,-9.130000000000001,1.26,-2.68,-7.54,3.55,5.72
16.19072008132935,3,3,3,2,-9.15,1.24,-2.65,-6.22,2.6,5.91
16.19072008132935,3,3,3,2,-9.15,1.24,-2.65,-6.22,2.6,5.91
16.21072006225586,3,3,3,2,-9.52,2.11,-2.29,-4.25,2.01,6.45
16.21072006225586,3,3,3,2,-9.52,2.11,-2.29,-4.25,2.01,6.45
16.23072004318237,3,3,3,2,-9.74,2.96,-2.18,-3.37,2.43,7.02
16.23072004318237,3,3,3,2,-9.74,2.96,-2.18,-3.37,2.43,7.02
16.25072002410889,3,3,3,2,-9.51,2.95,-2.09,-4.8,2.58,7.43
16.25072002410889,3,3,3,2,-9.51,2.95,-2.09,-4.8,2.58,7.43
16.2707200050354,3,3,3,2,-9.390000000000001,1.75,-1.96,-7.18,2.85,7.67
16.2707200050354,3,3,3,2,-9.390000000000001,1.75,-1.96,-7.18,2.85,7.67
16.29071998596191,3,3,3,2,-9.380000000000001,-0.02,-2.48,-8.140000000000001,3.31,7.97
16.29071998596191,3,3,3,2,-9.380000000000001,-0.02,-2.48,-8.140000000000001,3.31,7.97
16.31071996688843,3,3,3,2,-9.890000000000001,-0.59,-2.85,-7.51,2.72,8.34
16.31071996688843,3,3,3,2,-9.890000000000001,-0.59,-2.85,-7.51,2.72,8.34
16.33071994781494,3,3,3,2,-10.58,-0.54,-2.92,-5.75,0.4,7.34
16.33071994781494,3,3,3,2,-10.58,-0.54,-2.92,-5.75,0.4,7.34
16.35071992874146,3,3,3,2,-11.14,-0.41,-2.19,-4.57,-0.7,5.87
16.35071992874146,3,3,3,2,-11.14,-0.41,-2.19,-4.57,-0.7,5.87
16.37072014808655,3,3,3,2,-11.8,-0.79,-1.99,-6.84,0.52,4.45
16.37072014808655,3,3,3,2,-11.8,-0.79,-1.99,-6.84,0.52,4.45
16.39072012901306,3,3,3,2,-13.14,-2.66,-0.32,-8.880000000000001,1.26,2.98
16.39072012901306,3,3,3,2,-13.14,-2.66,-0.32,-8.880000000000001,1.26,2.98
16.41072010993958,3,3,3,2,-13.1,-4.67,0.46,-10.03,-1.39,1.26
16.41072010993958,3,3,3,2,-13.1,-4.67,0.46,-10.03,-1.39,1.26
16.43072009086609,3,3,3,2,-14.6,-7.37,1.99,-8.220000000000001,-4.91,-1.53
16.43072009086609,3,3,3,2,-14.6,-7.37,1.99,-8.220000000000001,-4.91,-1.53
16.4507200717926,3,3,3,2,-14.89,-4.93,3.62,-5.44,-8.92,-7.13
16.4507200717926,3,3,3,2,-14.89,-4.93,3.62,-5.44,-8.92,-7.13
16.47072005271912,3,3,3,2,-10.16,-4.36,1.2,-7.18,-12.06,-10.57
16.47072005271912,3,3,3,2,-10.16,-4.36,1.2,-7.18,-12.06,-10.57
16.49072003364563,3,3,3,2,-10.14,-3.9,-3.44,-12.54,-9.35,-14.19
16.49072003364563,3,3,3,2,-10.14,-3.9,-3.44,-12.54,-9.35,-14.19
16.51072001457214,3,3,3,2,-15.54,1.57,-4.57,-3.13,-8.77,-18.79
16.51072001457214,3,3,3,2,-15.54,1.57,-4.57,-3.13,-8.77,-18.79
16.53071999549866,3,3,3,2,-17.57,4.73,-4.79,1.69,-8.359999999999999,-17.81
16.53071999549866,3,3,3,2,-17.57,4.73,-4.79,1.69,-8.359999999999999,-17.81
16.55071997642517,3,3,3,2,-15.04,7.27,-4.07,2.72,-6.91,-18.62
16.55071997642517,3,3,3,2,-15.04,7.27,-4.07,2.72,-6.91,-18.62
16.57071995735168,3,3,3,2,-11.99,5.84,-2.34,2.17,-6.06,-22.11
16.57071995735168,3,3,3,2,-11.99,5.84,-2.34,2.17,-6.06,-22.11
16.5907199382782,3,3,3,2,-12.45,5.27,-1.92,3.59,-4.68,-24.24
16.5907199382782,3,3,3,2,-12.45,5.27,-1.92,3.59,-4.68,-24.24
16.61071991920471,3,3,3,2,-12,6.74,-2.21,4.99,-3.4,-22.97
16.61071991920471,3,3,3,2,-12,6.74,-2.21,4.99,-3.4,-22.97
16.6307201385498,3,3,3,2,-10.59,7.43,-1.94,4.29,-3.22,-22.26
16.6307201385498,3,3,3,2,-10.59,7.43,-1.94,4.29,-3.22,-22.26
16.65072011947632,3,3,3,2,-9.68,6.09,-2.2,2.86,-3.65,-22.98
16.65072011947632,3,3,3,2,-9.68,6.09,-2.2,2.86,-3.65,-22.98
16.67072010040283,3,3,3,2,-8.67,5.36,-2.55,1.43,-2.65,-23.31
16.67072010040283,3,3,3,2,-8.67,5.36,-2.55,1.43,-2.65,-23.31
16.69072008132935,3,3,3,2,-8.07,3.58,-2.83,-0.66,-1.78,-22.3
16.69072008132935,3,3,3,2,-8.07,3.58,-2.83,-0.66,-1.78,-22.3
16.71072006225586,3,3,3,2,-7.2,3.16,-2.72,4.69,-1.61,-20.78
16.71072006225586,3,3,3,2,-7.2,3.16,-2.72,4.69,-1.61,-20.78
16.73072004318237,3,3,3,1,-6.59,3.45,-3,12.37,-1.44,-18.52
16.73072004318237,3,3,3,1,-6.59,3.45,-3,12.37,-1.44,-18.52
16.75072002410889,3,3,3,1,-6.68,5.7,-2.92,16.1,-1.7,-16.85
16.75072002410889,3,3,3,1,-6.68,5.7,-2.92,16.1,-1.7,-16.85
16.7707200050354,3,3,3,1,-6.09,5.64,-2.88,15.84,-1.84,-13.76
16.7707200050354,3,3,3,1,-6.09,5.64,-2.88,15.84,-1.84,-13.76
16.79071998596191,3,3,3,1,-5.89,5.19,-2.64,13.39,-0.79,-11.28
16.79071998596191,3,3,3,1,-5.89,5.19,-2.64,13.39,-0.79,-11.28
16.81071996688843,3,3,3,1,-5.47,5.84,-2.77,12.67,0.32,-8.69
16.81071996688843,3,3,3,1,-5.47,5.84,-2.77,12.67,0.32,-8.69
16.83071994781494,3,3,3,1,-4.64,5.91,-2.75,9.07,1.02,-6.84
16.83071994781494,3,3,3,1,-4.64,5.91,-2.75,9.07,1.02,-6.84
16.85071992874146,3,3,3,1,-4.8,4.03,-2.71,4.06,2.65,-4.46
16.85071992874146,3,3,3,1,-4.8,4.03,-2.71,4.06,2.65,-4.46
16.87072014808655,3,3,3,1,-5.57,0.88,-1.54,1.26,4.23,-1.92
16.87072014808655,3,3,3,1,-5.57,0.88,-1.54,1.26,4.23,-1.92
16.89072012901306,3,3,3,1,-6.43,-0.98,-1.12,-0.12,7.5,0.64
16.89072012901306,3,3,3,1,-6.43,-0.98,-1.12,-0.12,7.5,0.64
16.91072010993958,3,3,3,1,-9.710000000000001,-3.15,-0.15,2.27,9.48,1.92
16.91072010993958,3,3,3,1,-9.710000000000001,-3.15,-0.15,2.27,9.48,1.92
16.93172001838684,3,3,3,1,-12.33,-6.88,2.07,10.02,7.01,1.64
16.93172001838684,3,3,3,1,-12.33,-6.88,2.07,10.02,7.01,1.64
16.95171999931335,3,3,3,1,-14.28,-12.62,4.21,17.71,5.32,-1.76
16.95171999931335,3,3,3,1,-14.28,-12.62,4.21,17.71,5.32,-1.76
16.97171998023987,3,3,3,1,-15.62,-16.51,3.87,16.99,-4.34,-2.14
16.97171998023987,3,3,3,1,-15.62,-16.51,3.87,16.99,-4.34,-2.14
16.99171996116638,3,3,3,1,-11.39,-8.82,4.11,6.67,-11.22,-2.89
16.99171996116638,3,3,3,1,-11.39,-8.82,4.11,6.67,-11.22,-2.89
17.0117199420929,3,3,3,1,-9.279999999999999,-0.25,0.85,5.9,-3.3,-4.05
17.0117199420929,3,3,3,1,-9.279999999999999,-0.25,0.85,5.9,-3.3,-4.05
17.03171992301941,3,3,3,1,-7.5,2.41,-3.29,1.37,2.92,-6.8
17.03171992301941,3,3,3,1,-7.5,2.41,-3.29,1.37,2.92,-6.8
17.0517201423645,3,3,3,1,-8.06,-0.45,-1.39,-16.28,7.2,1.35
17.0517201423645,3,3,3,1,-8.06,-0.45,-1.39,-16.28,7.2,1.35
17.07172012329102,3,3,3,2,-14.34,-12.29,5.49,-2.58,1.13,5.73
17.07172012329102,3,3,3,2,-14.34,-12.29,5.49,-2.58,1.13,5.73
17.09172010421753,3,3,3,2,-12.79,4.05,-1.78,5.88,5.55,6.41
17.09172010421753,3,3,3,2,-12.79,4.05,-1.78,5.88,5.55,6.41
17.11172008514404,3,3,3,2,-9.289999999999999,11,-4.21,12.34,4.81,8.93
17.11172008514404,3,3,3,2,-9.289999999999999,11,-4.21,12.34,4.81,8.93
17.13172006607056,3,3,3,2,-8.550000000000001,5.76,-8.960000000000001,2.47,8.210000000000001,8.880000000000001
17.13172006607056,3,3,3,2,-8.550000000000001,5.76,-8.960000000000001,2.47,8.210000000000001,8.880000000000001
17.15172004699707,3,3,3,2,-8.380000000000001,-0.07000000000000001,-5.85,-0.41,9.119999999999999,12.16
17.15172004699707,3,3,3,2,-8.380000000000001,-0.07000000000000001,-5.85,-0.41,9.119999999999999,12.16
17.17172002792358,3,3,3,2,-9.51,4.44,-4.39,5.81,9.49,15.99
17.17172002792358,3,3,3,2,-9.51,4.44,-4.39,5.81,9.49,15.99
17.1917200088501,3,3,3,2,-9.41,3.89,-3.1,6.44,9.359999999999999,15.82
17.1917200088501,3,3,3,2,-9.41,3.89,-3.1,6.44,9.359999999999999,15.82
17.21171998977661,3,3,3,2,-9.85,2.3,-1.64,5.21,8.27,14.81
17.21171998977661,3,3,3,2,-9.85,2.3,-1.64,5.21,8.27,14.81
17.23171997070312,3,3,3,2,-9.65,1.79,-2.12,3.71,7.34,14.09
17.23171997070312,3,3,3,2,-9.65,1.79,-2.12,3.71,7.34,14.09
17.25171995162964,3,3,3,2,-8.92,1.59,-3.24,3.03,6.96,13.66
17.25171995162964,3,3,3,2,-8.92,1.59,-3.24,3.03,6.96,13.66
17.27171993255615,3,3,3,2,-9.07,1.44,-3.24,2.73,6.54,13.33
17.27171993255615,3,3,3,2,-9.07,1.44,-3.24,2.73,6.54,13.33
17.29171991348267,3,3,3,2,-9.02,1.45,-3.64,1.29,6.39,12.9
17.29171991348267,3,3,3,2,-9.02,1.45,-3.64,1.29,6.39,12.9
17.31172013282776,3,3,3,2,-9.34,1,-2.99,-0.71,5.85,12.41
17.31172013282776,3,3,3,2,-9.34,1,-2.99,-0.71,5.85,12.41
17.33172011375427,3,3,3,2,-9.32,1.06,-2.24,-2.53,4.93,12.66
17.33172011375427,3,3,3,2,-9.32,1.06,-2.24,-2.53,4.93,12.66
17.35172009468079,3,3,3,2,-9.369999999999999,-0.1,-2.15,-7.43,5.2,12.93
17.35172009468079,3,3,3,2,-9.369999999999999,-0.1,-2.15,-7.43,5.2,12.93
17.3717200756073,3,3,3,2,-9.300000000000001,-2.21,-2.46,-10.59,5.09,12.24
17.3717200756073,3,3,3,2,-9.300000000000001,-2.21,-2.46,-10.59,5.09,12.24
17.39172005653381,3,3,3,2,-9.210000000000001,-3.78,-2.64,-12.62,4.9,11.96
17.39172005653381,3,3,3,2,-9.210000000000001,-3.78,-2.64,-12.62,4.9,11.96
17.41172003746033,3,3,3,2,-10,-2.06,-1.55,-12.4,7.29,10.81
17.41172003746033,3,3,3,2,-10,-2.06,-1.55,-12.4,7.29,10.81
17.43172001838684,3,3,3,2,-10.09,-0.19,-3.14,-10.4,7.8,8.23
17.43172001838684,3,3,3,2,-10.09,-0.19,-3.14,-10.4,7.8,8.23
17.45171999931335,3,3,3,2,-10.2,2.29,-3.12,-7.1,3.77,5.3
17.45171999931335,3,3,3,2,-10.2,2.29,-3.12,-7.1,3.77,5.3
17.47171998023987,3,3,3,2,-9.470000000000001,2.73,-2.88,-7.57,2.1,4.62
17.47171998023987,3,3,3,2,-9.470000000000001,2.73,-2.88,-7.57,2.1,4.62
17.49171996116638,3,3,3,2,-8.35,1.68,-2.63,-9.130000000000001,3.5,5.67
17.49171996116638,3,3,3,2,-8.35,1.68,-2.63,-9.130000000000001,3.5,5.67
17.5117199420929,3,3,3,2,-8.949999999999999,0.99,-2.29,-8.869999999999999,3.93,6.08
17.5117199420929,3,3,3,2,-8.949999999999999,0.99,-2.29,-8.869999999999999,3.93,6.08
17.53171992301941,3,3,3,2,-9.140000000000001,1.66,-2.39,-8.359999999999999,4.59,6.31
17.53171992301941,3,3,3,2,-9.140000000000001,1.66,-2.39,-8.359999999999999,4.59,6.31
17.5517201423645,3,3,3,2,-9.449999999999999,1.7,-2.76,-8.289999999999999,3.55,6.63
17.5517201423645,3,3,3,2,-9.449999999999999,1.7,-2.76,-8.289999999999999,3.55,6.63
17.57172012329102,3,3,3,2,-9.49,1.69,-3.1,-7.74,2.91,6.91
17.57172012329102,3,3,3,2,-9.49,1.69,-3.1,-7.74,2.91,6.91
17.59172010421753,3,3,3,2,-9.49,1.99,-3.09,-4.8,2.17,7.32
17.59172010421753,3,3,3,2,-9.49,1.99,-3.09,-4.8,2.17,7.32
17.61172008514404,3,3,3,2,-9.470000000000001,2.25,-2.87,-4.61,2.28,7.32
17.61172008514404,3,3,3,2,-9.470000000000001,2.25,-2.87,-4.61,2.28,7.32
17.63172006607056,3,3,3,2,-9.57,2.16,-2.62,-6.25,2.34,7.57
17.63172006607056,3,3,3,2,-9.57,2.16,-2.62,-6.25,2.34,7.57
17.65172004699707,3,3,3,2,-10.19,0.97,-2.04,-7.36,1.96,7.62
17.65172004699707,3,3,3,2,-10.19,0.97,-2.04,-7.36,1.96,7.62
17.67172002792358,3,3,3,2,-10.12,0.07000000000000001,-1.73,-7.51,1.88,7.47
17.67172002792358,3,3,3,2,-10.12,0.07000000000000001,-1.73,-7.51,1.88,7.47
17.6917200088501,3,3,3,2,-9.66,-0.74,-1.84,-7.16,1.91,6.48
17.6917200088501,3,3,3,2,-9.66,-0.74,-1.84,-7.16,1.91,6.48
17.71171998977661,3,3,3,2,-9.85,-0.34,-2.12,-6.78,1.24,5.84
17.71171998977661,3,3,3,2,-9.85,-0.34,-2.12,-6.78,1.24,5.84
17.73171997070312,3,3,3,2,-10.93,-0.2,-1.59,-6.4,-0.67,3.6
17.73171997070312,3,3,3,2,-10.93,-0.2,-1.59,-6.4,-0.67,3.6
17.75171995162964,3,3,3,2,-12.14,-1.37,-1.61,-8.140000000000001,0.31,2.41
17.75171995162964,3,3,3,2,-12.14,-1.37,-1.61,-8.140000000000001,0.31,2.41
17.77171993255615,3,3,3,2,-13.6,-2.26,-0.58,-8.32,0.05,1.71
17.77171993255615,3,3,3,2,-13.6,-2.26,-0.58,-8.32,0.05,1.71
17.79171991348267,3,3,3,2,-13.3,-4.95,0.63,-8.630000000000001,-3.9,-1.61
17.79171991348267,3,3,3,2,-13.3,-4.95,0.63,-8.630000000000001,-3.9,-1.61
17.81172013282776,3,3,3,2,-14.08,-7.89,2.16,-8.73,-5.43,-3.59
17.81172013282776,3,3,3,2,-14.08,-7.89,2.16,-8.73,-5.43,-3.59
17.83172011375427,3,3,3,2,-13.34,-4.18,3.76,-5.77,-11.93,-9.869999999999999
17.83172011375427,3,3,3,2,-13.34,-4.18,3.76,-5.77,-11.93,-9.869999999999999
17.85172009468079,3,3,3,2,-9.960000000000001,-2.29,0.8,-14.07,-10.72,-13.16
17.85172009468079,3,3,3,2,-9.960000000000001,-2.29,0.8,-14.07,-10.72,-13.16
17.8717200756073,3,3,3,2,-11.12,-2.19,-4.26,-14.48,-8.85,-15.69
17.8717200756073,3,3,3,2,-11.12,-2.19,-4.26,-14.48,-8.85,-15.69
17.89172005653381,3,3,3,2,-15.49,0.82,-4.14,-1.78,-9.17,-18.39
17.89172005653381,3,3,3,2,-15.49,0.82,-4.14,-1.78,-9.17,-18.39
17.91172003746033,3,3,3,2,-18.54,6.12,-4.17,0.93,-9.26,-17.27
17.91172003746033,3,3,3,2,-18.54,6.12,-4.17,0.93,-9.26,-17.27
17.93172001838684,3,3,3,2,-15.77,7.9,-3.98,0.16,-6.68,-19.66
17.93172001838684,3,3,3,2,-15.77,7.9,-3.98,0.16,-6.68,-19.66
17.95271992683411,3,3,3,2,-11.06,4.93,-2.25,-1.02,-5.13,-23.31
17.95271992683411,3,3,3,2,-11.06,4.93,-2.25,-1.02,-5.13,-23.31
17.9727201461792,3,3,3,2,-11.97,4.07,-2.01,-0.33,-4.36,-24.02
17.9727201461792,3,3,3,2,-11.97,4.07,-2.01,-0.33,-4.36,-24.02
17.99272012710571,3,3,3,2,-11.39,6.23,-2.34,4.17,-2.57,-21.59
17.99272012710571,3,3,3,2,-11.39,6.23,-2.34,4.17,-2.57,-21.59
18.01272010803223,3,3,3,2,-10.29,6.45,-2.61,4.67,-2.17,-21.43
18.01272010803223,3,3,3,2,-10.29,6.45,-2.61,4.67,-2.17,-21.43
18.03272008895874,3,3,3,2,-9.65,5.91,-3.16,4.44,-1.7,-22.74
18.03272008895874,3,3,3,2,-9.65,5.91,-3.16,4.44,-1.7,-22.74
18.05272006988525,3,3,3,2,-8.539999999999999,4.94,-3.09,3.86,-1.96,-22.85
18.05272006988525,3,3,3,2,-8.539999999999999,4.94,-3.09,3.86,-1.96,-22.85
18.07272005081177,3,3,3,2,-7.73,2.71,-2.99,4.97,-1.78,-22.26
18.07272005081177,3,3,3,2,-7.73,2.71,-2.99,4.97,-1.78,-22.26
18.09272003173828,3,3,3,2,-7.18,3.23,-3.32,13.62,-2.25,-19.24
18.09272003173828,3,3,3,2,-7.18,3.23,-3.32,13.62,-2.25,-19.24
18.11272001266479,3,3,3,2,-6.78,5.07,-3.2,15.25,-2.26,-18.11
18.11272001266479,3,3,3,2,-6.78,5.07,-3.2,15.25,-2.26,-18.11
18.13271999359131,3,3,3,2,-6.28,5.38,-2.95,16.55,-1.35,-15.9
18.13271999359131,3,3,3,2,-6.28,5.38,-2.95,16.55,-1.35,-15.9
18.15271997451782,3,3,3,2,-6.32,5.42,-3.12,13.18,-0.19,-13.41
18.15271997451782,3,3,3,2,-6.32,5.42,-3.12,13.18,-0.19,-13.41
18.17271995544434,3,3,3,2,-5.62,4.8,-2.91,11.87,0.25,-11.96
18.17271995544434,3,3,3,2,-5.62,4.8,-2.91,11.87,0.25,-11.96
18.19271993637085,3,3,3,2,-5.32,5.05,-2.82,8.699999999999999,1.55,-8.779999999999999
18.19271993637085,3,3,3,2,-5.32,5.05,-2.82,8.699999999999999,1.55,-8.779999999999999
18.21271991729736,3,3,3,3,-5.08,5.07,-2.35,7.59,1.79,-7.43
18.21271991729736,3,3,3,3,-5.08,5.07,-2.35,7.59,1.79,-7.43
18.23272013664246,3,3,3,3,-5.1,3.82,-1.63,2.26,3.65,-3.29
18.23272013664246,3,3,3,3,-5.1,3.82,-1.63,2.26,3.65,-3.29
18.25272011756897,3,3,3,3,-5.67,2.07,-1.06,-0.77,5.8,-0.22
18.25272011756897,3,3,3,3,-5.67,2.07,-1.06,-0.77,5.8,-0.22
18.27272009849548,3,3,3,3,-6.76,-0.27,-1.28,-1.82,7.1,1.05
18.27272009849548,3,3,3,3,-6.76,-0.27,-1.28,-1.82,7.1,1.05
18.292720079422,3,3,3,3,-8.470000000000001,-1.87,-1.43,0.75,10.8,1.76
18.292720079422,3,3,3,3,-8.470000000000001,-1.87,-1.43,0.75,10.8,1.76
18.31272006034851,3,3,3,3,-12.34,-8.720000000000001,1.19,2.41,11.12,0.09
18.31272006034851,3,3,3,3,-12.34,-8.720000000000001,1.19,2.41,11.12,0.09
18.33272004127502,3,3,3,3,-13.62,-12.72,3.3,9.07,8.52,-5.61
18.33272004127502,3,3,3,3,-13.62,-12.72,3.3,9.07,8.52,-5.61
18.35272002220154,3,3,3,3,-16.18,-19.22,3.29,8.51,-9.66,-5.9
18.35272002220154,3,3,3,3,-16.18,-19.22,3.29,8.51,-9.66,-5.9
18.37272000312805,3,3,3,3,-12.41,-12.94,4.38,4.58,-10.74,-5.06
18.37272000312805,3,3,3,3,-12.41,-12.94,4.38,4.58,-10.74,-5.06
18.39271998405457,3,3,3,3,-8.19,0.52,0.07000000000000001,6.84,-0.85,-2.45
18.39271998405457,3,3,3,3,-8.19,0.52,0.07000000000000001,6.84,-0.85,-2.45
18.41271996498108,3,3,3,3,-6.9,0.31,-3.86,7.12,3.95,-2.65
18.41271996498108,3,3,3,3,-6.9,0.31,-3.86,7.12,3.95,-2.65
18.43271994590759,3,3,3,3,-8.109999999999999,-2.65,-1.66,1.3,5.37,7.1
18.43271994590759,3,3,3,3,-8.109999999999999,-2.65,-1.66,1.3,5.37,7.1
18.45271992683411,3,3,3,3,-15.46,-13.64,5.96,13.85,-3.51,5.27
18.45271992683411,3,3,3,3,-15.46,-13.64,5.96,13.85,-3.51,5.27
18.4727201461792,3,3,3,3,-15.53,-3.56,0.63,16.65,1.99,7.34
18.4727201461792,3,3,3,3,-15.53,-3.56,0.63,16.65,1.99,7.34
18.49272012710571,3,3,3,3,-8.640000000000001,11.62,-2.87,15.81,6.04,11.22
18.49272012710571,3,3,3,3,-8.640000000000001,11.62,-2.87,15.81,6.04,11.22
18.51272010803223,3,3,3,3,-7.67,6.33,-8.58,6.1,10.02,10.5
18.51272010803223,3,3,3,3,-7.67,6.33,-8.58,6.1,10.02,10.5
18.53272008895874,3,3,3,3,-7.63,1.32,-6.26,0.37,10.54,12.3
18.53272008895874,3,3,3,3,-7.63,1.32,-6.26,0.37,10.54,12.3
18.55272006988525,3,3,3,3,-9.550000000000001,4.52,-4.68,4.36,8.800000000000001,13.91
18.55272006988525,3,3,3,3,-9.550000000000001,4.52,-4.68,4.36,8.800000000000001,13.91
18.57272005081177,3,3,3,3,-9.609999999999999,5.05,-3.17,4.04,8.02,13.76
18.57272005081177,3,3,3,3,-9.609999999999999,5.05,-3.17,4.04,8.02,13.76
18.59272003173828,3,3,3,3,-10.6,1.89,-1.2,0.68,6.74,13.29
18.59272003173828,3,3,3,3,-10.6,1.89,-1.2,0.68,6.74,13.29
18.61272001266479,3,3,3,3,-11.18,1.83,-1,0.98,6.48,13.44
