timestamp,magCalib,accCalib,gyrCalib,sysCalib,accX,accY,accZ,gyrX,gyrY,gyrZ
0.01072001457214355,2,3,3,3,-9.32,-1.18,2.57,1.37,-0.74,0.1
0.02072000503540039,2,3,3,3,-9.369999999999999,-1.05,2.67,1.19,-0.61,0
0.03071999549865723,2,3,3,3,-9.460000000000001,-1.03,2.71,0.98,-0.33,-0.05
0.04071998596191406,2,3,3,3,-9.460000000000001,-1.03,2.71,0.98,-0.33,-0.05
0.0507199764251709,2,3,3,3,-9.56,-1.05,2.73,0.1,0.53,-0.23
0.06071996688842773,2,3,3,3,-9.619999999999999,-1.2,2.49,-0.48,0.67,-0.31
0.07071995735168457,2,3,3,3,-9.550000000000001,-1.27,2.48,-0.89,0.82,-0.45
0.08071994781494141,2,3,3,3,-9.460000000000001,-1.32,2.42,-1.14,0.93,-0.57
0.09071993827819824,2,3,3,3,-9.460000000000001,-1.32,2.42,-1.14,0.93,-0.57
0.1007199287414551,2,3,3,3,-9.380000000000001,-1.38,2.51,-1.12,1,-0.71
0.1107199192047119,2,3,3,3,-9.25,-1.44,2.38,-0.73,0.83,-0.86
0.1207201480865479,2,3,3,3,-9.18,-1.46,2.43,-0.55,0.74,-0.87
0.1307201385498047,2,3,3,3,-9.17,-1.46,2.53,-0.36,0.68,-0.83
0.1407201290130615,2,3,3,3,-9.17,-1.46,2.53,-0.28,0.58,-0.79
0.1507201194763184,2,3,3,3,-9.15,-1.46,2.54,-0.28,0.58,-0.79
0.1607201099395752,2,3,3,3,-9.27,-1.42,2.45,-0.22,0.74,-0.64
0.170720100402832,2,3,3,3,-9.35,-1.42,2.49,-0.21,0.74,-0.58
0.1807200908660889,2,3,3,3,-9.380000000000001,-1.39,2.46,-0.24,0.75,-0.53
0.1907200813293457,2,3,3,3,-9.380000000000001,-1.39,2.46,-0.24,0.75,-0.53
0.2007200717926025,2,3,3,3,-9.44,-1.33,2.46,-0.33,0.78,-0.48
0.2107200622558594,2,3,3,3,-9.449999999999999,-1.29,2.37,-0.11,0.67,-0.45
0.2207200527191162,2,3,3,3,-9.44,-1.31,2.45,0.01,0.6,-0.44
0.230720043182373,2,3,3,3,-9.42,-1.26,2.46,0.09,0.5600000000000001,-0.46
0.2407200336456299,2,3,3,3,-9.42,-1.26,2.46,0.09,0.5600000000000001,-0.46
0.2507200241088867,2,3,3,3,-9.44,-1.23,2.51,0.04,0.66,-0.47
0.2607200145721436,2,3,3,3,-9.470000000000001,-1.19,2.4,-0.18,0.77,-0.53
0.2707200050354004,2,3,3,3,-9.48,-1.22,2.42,-0.24,0.71,-0.49
0.2807199954986572,2,3,3,3,-9.49,-1.25,2.44,-0.33,0.65,-0.49
0.2907199859619141,2,3,3,3,-9.49,-1.25,2.44,-0.48,0.7,-0.47
0.3007199764251709,2,3,3,3,-9.49,-1.32,2.49,-0.48,0.7,-0.47
0.3107199668884277,2,3,3,3,-9.369999999999999,-1.42,2.28,-0.55,0.54,-0.41
0.3207199573516846,2,3,3,3,-9.33,-1.45,2.34,-0.53,0.55,-0.42
0.3307199478149414,2,3,3,3,-9.359999999999999,-1.45,2.35,-0.51,0.58,-0.41
0.3407199382781982,2,3,3,3,-9.359999999999999,-1.45,2.35,-0.51,0.58,-0.41
0.3507199287414551,2,3,3,3,-9.359999999999999,-1.44,2.37,-0.28,0.39,-0.42
0.3607199192047119,2,3,3,3,-9.359999999999999,-1.4,2.41,-0.16,0.37,-0.39
0.3707201480865479,2,3,3,3,-9.44,-1.43,2.32,-0.09,0.32,-0.33
0.3807201385498047,2,3,3,3,-9.42,-1.43,2.37,-0.13,0.28,-0.28
0.3907201290130615,2,3,3,3,-9.44,-1.41,2.39,-0.13,0.28,-0.28
0.4007201194763184,2,3,3,3,-9.449999999999999,-1.46,2.37,-0.21,0.27,-0.22
0.4107201099395752,2,3,3,3,-9.44,-1.49,2.27,-0.35,0.21,-0.19
0.420720100402832,2,3,3,3,-9.44,-1.47,2.2,-0.33,0.17,-0.14
0.4307200908660889,2,3,3,3,-9.4,-1.49,2.25,-0.21,0.16,-0.18
0.4407200813293457,2,3,3,3,-9.35,-1.52,2.33,-0.08,0.18,-0.16
0.4507200717926025,2,3,3,3,-9.35,-1.47,2.35,0.01,0.27,-0.19
0.4607200622558594,2,3,3,3,-9.42,-1.44,2.38,0.13,0.3,-0.22
0.4707200527191162,2,3,3,3,-9.48,-1.43,2.33,0.13,0.21,-0.21
0.481719970703125,2,3,3,3,-9.43,-1.45,2.33,0.05,0.2,-0.16
0.4917199611663818,2,3,3,3,-9.4,-1.48,2.34,0.05,0.2,-0.16
0.5017199516296387,2,3,3,3,-9.449999999999999,-1.52,2.32,-0.02,0.28,-0.11
0.5117199420928955,2,3,3,3,-9.51,-1.51,2.3,-0.16,0.39,-0.06
0.5217199325561523,2,3,3,3,-9.48,-1.52,2.13,-0.15,0.36,-0.04
0.5317199230194092,2,3,3,3,-9.43,-1.5,2.14,-0.06,0.37,-0.07000000000000001
0.541719913482666,2,3,3,3,-9.41,-1.54,2.2,-0.06,0.37,-0.07000000000000001
0.551720142364502,2,3,3,3,-9.4,-1.5,2.23,0.1,0.34,-0.08
0.5617201328277588,2,3,3,3,-9.42,-1.51,2.23,0.08,0.32,-0.07000000000000001
0.5717201232910156,2,3,3,3,-9.42,-1.5,2.15,0.11,0.27,-0.07000000000000001
0.5817201137542725,2,3,3,3,-9.44,-1.52,2.21,0.16,0.18,-0.05
0.5917201042175293,2,3,3,3,-9.41,-1.48,2.28,0.16,0.18,-0.05
0.6017200946807861,2,3,3,3,-9.4,-1.5,2.3,0.11,0.07000000000000001,0.01
0.611720085144043,2,3,3,3,-9.42,-1.51,2.27,0.07000000000000001,0.09,0.02
0.6217200756072998,2,3,3,3,-9.380000000000001,-1.52,2.12,0.04,0.12,0.03
0.6317200660705566,2,3,3,3,-9.44,-1.5,2.21,0.05,0.04,0.01
0.6417200565338135,2,3,3,3,-9.44,-1.45,2.22,0.05,0.04,0.01
0.6517200469970703,2,3,3,3,-9.44,-1.45,2.23,0.07000000000000001,0.02,0.04
0.6617200374603271,2,3,3,3,-9.51,-1.46,2.26,0.05,0.01,0.04
0.671720027923584,2,3,3,3,-9.470000000000001,-1.51,2.11,-0.04,-0.1,0.05
0.6817200183868408,2,3,3,3,-9.470000000000001,-1.52,2.12,-0.09,-0.11,0.08
0.6917200088500977,2,3,3,3,-9.49,-1.56,2.13,-0.09,-0.11,0.08
0.7017199993133545,2,3,3,3,-9.48,-1.56,2.16,-0.1,-0.1,0.13
0.7117199897766113,2,3,3,3,-9.44,-1.62,2.15,-0.12,-0.14,0.14
0.7217199802398682,2,3,3,3,-9.41,-1.62,2.07,-0.06,-0.19,0.2
0.731719970703125,2,3,3,3,-9.390000000000001,-1.67,2.14,0.05,-0.32,0.25
0.7617199420928955,2,3,3,3,-9.279999999999999,-1.69,2.2,0.48,-0.31,0.26
0.7717199325561523,2,3,3,3,-9.31,-1.66,2.16,0.62,-0.26,0.22
0.7817199230194092,2,3,3,3,-9.42,-1.59,2.15,0.61,-0.14,0.18
0.791719913482666,2,3,3,3,-9.5,-1.56,2.17,0.61,-0.14,0.18
0.801720142364502,2,3,3,3,-9.529999999999999,-1.51,2.25,0.62,-0.14,0.1
0.8117201328277588,2,3,3,3,-9.550000000000001,-1.52,2.27,0.66,-0.16,0.04
0.8217201232910156,2,3,3,3,-9.529999999999999,-1.47,2.15,0.37,0,-0.04
0.8317201137542725,2,3,3,3,-9.539999999999999,-1.48,2.2,0.17,0.02,-0.04
0.8417201042175293,2,3,3,3,-9.52,-1.48,2.2,0.17,0.02,-0.04
0.8517200946807861,2,3,3,3,-9.470000000000001,-1.51,2.26,0.02,0.04,-0.12
0.861720085144043,2,3,3,3,-9.369999999999999,-1.53,2.2,-0.05,0.11,-0.15
0.8717200756072998,2,3,3,3,-9.42,-1.54,2.12,-0.1,0.19,-0.16
0.8817200660705566,2,3,3,3,-9.43,-1.55,2.15,-0.14,0.26,-0.2
0.8917200565338135,2,3,3,3,-9.44,-1.55,2.15,-0.14,0.26,-0.2
0.9017200469970703,2,3,3,3,-9.43,-1.55,2.28,-0.16,0.3,-0.22
0.9117200374603271,2,3,3,3,-9.42,-1.52,2.29,-0.23,0.32,-0.25
0.921720027923584,2,3,3,3,-9.44,-1.52,2.19,-0.25,0.3,-0.23
0.9317200183868408,2,3,3,3,-9.43,-1.54,2.17,-0.32,0.24,-0.24
0.9417200088500977,2,3,3,3,-9.43,-1.57,2.22,-0.32,0.24,-0.24
0.9517199993133545,2,3,3,3,-9.4,-1.55,2.24,-0.3,0.21,-0.23
0.9617199897766113,2,3,3,3,-9.41,-1.54,2.29,-0.22,0.21,-0.25
0.9717199802398682,2,3,3,3,-9.42,-1.54,2.19,-0.14,0.22,-0.24
0.981719970703125,2,3,3,3,-9.42,-1.54,2.25,-0.12,0.19,-0.25
0.9917199611663818,2,3,3,3,-9.41,-1.52,2.22,-0.12,0.19,-0.25
1.001719951629639,2,3,3,3,-9.390000000000001,-1.52,2.21,-0.15,0.12,-0.22
1.011719942092896,2,3,3,3,-9.4,-1.48,2.23,-0.08,0.14,-0.25
1.021719932556152,2,3,3,3,-9.43,-1.45,2.15,-0.08,0.21,-0.22
1.031719923019409,2,3,3,3,-9.44,-1.47,2.21,-0.04,0.21,-0.21
1.041719913482666,2,3,3,3,-9.470000000000001,-1.48,2.25,-0.04,0.21,-0.21
1.051720142364502,2,3,3,3,-9.48,-1.47,2.27,-0.08,0.14,-0.19
1.061720132827759,2,3,3,3,-9.48,-1.48,2.28,-0.05,0.14,-0.17
1.071720123291016,2,3,3,3,-9.460000000000001,-1.48,2.15,-0.05,0.07000000000000001,-0.13
1.081720113754272,2,3,3,3,-9.42,-1.5,2.18,0,0.05,-0.12
1.091720104217529,2,3,3,3,-9.42,-1.51,2.29,0,0.05,-0.12
1.101720094680786,2,3,3,3,-9.43,-1.52,2.29,-0.02,0.02,-0.02
1.111720085144043,2,3,3,3,-9.449999999999999,-1.52,2.26,0,0,0.03
1.1217200756073,2,3,3,3,-9.449999999999999,-1.55,2.14,0.02,-0.03,0.06
1.131720066070557,2,3,3,3,-9.41,-1.51,2.21,-0.02,-0.02,0.11
1.141720056533813,2,3,3,3,-9.44,-1.48,2.24,-0.02,-0.02,0.11
1.15172004699707,2,3,3,3,-9.449999999999999,-1.52,2.29,-0.01,-0.04,0.18
1.161720037460327,2,3,3,3,-9.43,-1.52,2.26,0.04,-0.08,0.2
1.171720027923584,2,3,3,3,-9.41,-1.51,2.18,0.09,-0.15,0.22
1.181720018386841,2,3,3,3,-9.43,-1.5,2.21,0.07000000000000001,-0.13,0.23
1.191720008850098,2,3,3,3,-9.460000000000001,-1.5,2.24,0.07000000000000001,-0.13,0.23
1.201719999313354,2,3,3,3,-9.44,-1.47,2.25,0.07000000000000001,-0.2,0.24
1.211719989776611,2,3,3,3,-9.449999999999999,-1.45,2.26,0.05,-0.22,0.26
1.221719980239868,2,3,3,3,-9.449999999999999,-1.46,2.24,0.03,-0.15,0.26
1.231719970703125,2,3,3,3,-9.460000000000001,-1.47,2.27,0.03,-0.15,0.26
1.241719961166382,2,3,3,3,-9.449999999999999,-1.49,2.28,0,-0.17,0.24
1.251719951629639,2,3,3,3,-9.470000000000001,-1.5,2.3,-0.01,-0.16,0.24
1.261719942092896,2,3,3,3,-9.49,-1.51,2.29,-0.05,-0.19,0.23
1.271719932556152,2,3,3,3,-9.449999999999999,-1.5,2.18,-0.11,-0.21,0.18
1.281719923019409,2,3,3,3,-9.449999999999999,-1.51,2.19,-0.17,-0.12,0.21
1.291719913482666,2,3,3,3,-9.43,-1.5,2.24,-0.17,-0.12,0.21
1.301720142364502,2,3,3,3,-9.41,-1.51,2.24,-0.15,-0.17,0.22
1.311720132827759,2,3,3,3,-9.43,-1.54,2.23,-0.07000000000000001,-0.14,0.23
1.321720123291016,2,3,3,3,-9.460000000000001,-1.52,2.17,-0.01,-0.13,0.29
1.331720113754272,2,3,3,3,-9.43,-1.5,2.2,0.01,-0.18,0.26
1.341720104217529,2,3,3,3,-9.41,-1.48,2.25,0.03,-0.21,0.26
1.351720094680786,2,3,3,3,-9.41,-1.5,2.29,0.05,-0.2,0.29
1.361720085144043,2,3,3,3,-9.43,-1.49,2.26,0.05,-0.17,0.29
1.3717200756073,2,3,3,3,-9.43,-1.49,2.17,0.02,-0.13,0.25
1.381720066070557,2,3,3,3,-9.44,-1.49,2.2,-0.02,-0.16,0.25
1.391720056533813,2,3,3,3,-9.44,-1.49,2.27,0.01,-0.16,0.26
1.40172004699707,2,3,3,3,-9.42,-1.5,2.27,0.03,-0.21,0.29
1.411720037460327,2,3,3,3,-9.44,-1.49,2.28,0.06,-0.18,0.26
1.421720027923584,2,3,3,3,-9.44,-1.51,2.16,0.08,-0.16,0.27
1.432719945907593,2,3,3,3,-9.460000000000001,-1.48,2.24,0.08,-0.14,0.25
1.441720008850098,2,3,3,3,-9.449999999999999,-1.48,2.27,0.13,-0.18,0.21
1.451719999313354,2,3,3,3,-9.449999999999999,-1.47,2.28,0.16,-0.22,0.19
1.462719917297363,2,3,3,3,-9.460000000000001,-1.5,2.27,0.12,-0.18,0.21
1.471719980239868,2,3,3,3,-9.44,-1.52,2.2,0.06,-0.12,0.22
1.481719970703125,2,3,3,3,-9.41,-1.51,2.24,0.08,-0.14,0.23
1.492720127105713,2,3,3,3,-9.4,-1.48,2.27,0.08,-0.13,0.21
1.501719951629639,2,3,3,3,-9.43,-1.48,2.34,0.08,-0.09,0.21
1.512720108032227,2,3,3,3,-9.44,-1.48,2.29,0.09,-0.09,0.18
1.522720098495483,2,3,3,3,-9.449999999999999,-1.48,2.21,0.09,-0.11,0.18
1.53272008895874,2,3,3,3,-9.42,-1.47,2.27,0.05,-0.15,0.17
1.542720079421997,2,3,3,3,-9.44,-1.48,2.27,-0.02,-0.13,0.17
1.552720069885254,2,3,3,3,-9.460000000000001,-1.47,2.27,-0.1,-0.05,0.14
1.562720060348511,2,3,3,3,-9.48,-1.47,2.3,-0.08,0,0.11
1.572720050811768,2,3,3,3,-9.470000000000001,-1.48,2.23,-0.07000000000000001,-0.03,0.1
1.582720041275024,2,3,3,3,-9.4,-1.5,2.26,-0.03,-0.06,0.08
1.592720031738281,2,3,3,3,-9.390000000000001,-1.51,2.26,0,-0.1,0.08
1.602720022201538,2,3,3,3,-9.4,-1.49,2.29,0,-0.03,0.06
1.612720012664795,2,3,3,3,-9.41,-1.49,2.31,0.04,-0.05,0.05
1.622720003128052,2,3,3,3,-9.43,-1.48,2.19,0.1,-0.06,0.07000000000000001
1.632719993591309,2,3,3,3,-9.4,-1.49,2.24,0.17,-0.08,0.12
1.642719984054565,2,3,3,3,-9.41,-1.48,2.29,0.17,-0.07000000000000001,0.15
1.652719974517822,2,3,3,3,-9.380000000000001,-1.46,2.36,0.17,-0.11,0.15
1.662719964981079,2,3,3,3,-9.4,-1.47,2.28,0.19,-0.11,0.18
1.672719955444336,2,3,3,3,-9.43,-1.46,2.19,0.18,-0.15,0.17
1.682719945907593,2,3,3,3,-9.449999999999999,-1.45,2.22,0.22,-0.16,0.18
1.69271993637085,2,3,3,3,-9.44,-1.42,2.3,0.27,-0.17,0.14
1.702719926834106,2,3,3,3,-9.48,-1.42,2.33,0.28,-0.13,0.11
1.712719917297363,2,3,3,3,-9.49,-1.37,2.35,0.25,-0.1,0.15
1.722720146179199,2,3,3,3,-9.460000000000001,-1.43,2.23,0.27,-0.16,0.14
1.732720136642456,2,3,3,3,-9.44,-1.41,2.3,0.31,-0.2,0.16
1.742720127105713,2,3,3,3,-9.44,-1.42,2.35,0.26,-0.13,0.13
1.75272011756897,2,3,3,3,-9.42,-1.41,2.35,0.22,-0.12,0.12
1.762720108032227,2,3,3,3,-9.42,-1.4,2.32,0.15,-0.15,0.11
1.772720098495483,2,3,3,3,-9.48,-1.42,2.18,0.1,-0.13,0.12
1.78272008895874,2,3,3,3,-9.48,-1.42,2.23,0.09,-0.06,0.09
1.792720079421997,2,3,3,3,-9.44,-1.44,2.26,0.08,-0.08,0.09
1.802720069885254,2,3,3,3,-9.390000000000001,-1.43,2.33,0.15,-0.12,0.08
1.812720060348511,2,3,3,3,-9.41,-1.46,2.27,0.22,-0.12,0.05
1.822720050811768,2,3,3,3,-9.42,-1.43,2.2,0.26,-0.13,0.04
1.832720041275024,2,3,3,3,-9.42,-1.44,2.25,0.28,-0.15,0.07000000000000001
1.842720031738281,2,3,3,3,-9.43,-1.43,2.35,0.4,-0.16,0.08
1.852720022201538,2,3,3,3,-9.44,-1.39,2.35,0.47,-0.16,0.06
1.862720012664795,2,3,3,3,-9.44,-1.36,2.36,0.5,-0.14,0.03
1.872720003128052,2,3,3,3,-9.449999999999999,-1.37,2.26,0.5,-0.12,0.02
1.882719993591309,2,3,3,3,-9.380000000000001,-1.34,2.33,0.44,-0.18,0.03
1.892719984054565,2,3,3,3,-9.390000000000001,-1.34,2.36,0.41,-0.2,0.04
1.902719974517822,2,3,3,3,-9.390000000000001,-1.33,2.42,0.44,-0.17,0.05
1.912719964981079,2,3,3,3,-9.42,-1.3,2.43,0.44,-0.15,0.08
1.922719955444336,2,3,3,3,-9.44,-1.26,2.29,0.36,-0.18,0.14
1.932719945907593,2,3,3,3,-9.48,-1.25,2.36,0.35,-0.19,0.14
1.94271993637085,2,3,3,3,-9.49,-1.27,2.36,0.31,-0.22,0.16
1.952719926834106,2,3,3,3,-9.49,-1.29,2.34,0.24,-0.19,0.19
1.962719917297363,2,3,3,3,-9.44,-1.3,2.38,0.24,-0.12,0.2
1.972720146179199,2,3,3,3,-9.41,-1.32,2.31,0.28,-0.09,0.18
1.982720136642456,2,3,3,3,-9.4,-1.33,2.37,0.23,-0.09,0.22
1.992720127105713,2,3,3,3,-9.44,-1.32,2.37,0.15,-0.08,0.21
2.00272011756897,2,3,3,3,-9.43,-1.33,2.38,0.06,-0.1,0.28
2.022720098495483,2,3,3,3,-9.449999999999999,-1.34,2.21,0,-0.03,0.25
2.03272008895874,2,3,3,3,-9.43,-1.32,2.33,0.04,0,0.23
2.042720079421997,2,3,3,3,-9.4,-1.36,2.38,0.03,-0.08,0.22
2.052720069885254,2,3,3,3,-9.390000000000001,-1.35,2.37,0.07000000000000001,-0.11,0.23
2.062720060348511,2,3,3,3,-9.390000000000001,-1.4,2.36,0.08,-0.13,0.21
2.072720050811768,2,3,3,3,-9.42,-1.36,2.29,0.07000000000000001,-0.17,0.19
2.082720041275024,2,3,3,3,-9.43,-1.38,2.32,0.08,-0.22,0.22
2.112720012664795,2,3,3,3,-9.4,-1.37,2.35,0.16,-0.27,0.18
2.122720003128052,2,3,3,3,-9.41,-1.39,2.25,0.16,-0.34,0.2
2.132719993591309,2,3,3,3,-9.41,-1.41,2.27,0.15,-0.32,0.23
2.142719984054565,2,3,3,3,-9.41,-1.41,2.31,0.13,-0.26,0.25
2.152719974517822,2,3,3,3,-9.470000000000001,-1.42,2.36,0.08,-0.24,0.26
2.162719964981079,2,3,3,3,-9.460000000000001,-1.42,2.32,0.11,-0.26,0.27
2.172719955444336,2,3,3,3,-9.44,-1.44,2.24,0.11,-0.26,0.26
2.182719945907593,2,3,3,3,-9.449999999999999,-1.43,2.34,0.15,-0.26,0.27
2.19271993637085,2,3,3,3,-9.460000000000001,-1.42,2.37,0.21,-0.22,0.25
2.202719926834106,2,3,3,3,-9.44,-1.4,2.35,0.26,-0.21,0.23
2.212719917297363,2,3,3,3,-9.4,-1.43,2.38,0.25,-0.34,0.21
2.222720146179199,2,3,3,3,-9.380000000000001,-1.42,2.25,0.27,-0.31,0.24
2.232720136642456,2,3,3,3,-9.369999999999999,-1.41,2.28,0.25,-0.3,0.26
2.242720127105713,2,3,3,3,-9.4,-1.4,2.34,0.22,-0.28,0.22
2.25272011756897,2,3,3,3,-9.369999999999999,-1.41,2.41,0.26,-0.24,0.25
2.262720108032227,2,3,3,3,-9.380000000000001,-1.4,2.36,0.35,-0.21,0.24
2.272720098495483,2,3,3,3,-9.41,-1.35,2.29,0.38,-0.19,0.21
2.28272008895874,2,3,3,3,-9.44,-1.37,2.32,0.34,-0.24,0.22
2.292720079421997,2,3,3,3,-9.449999999999999,-1.35,2.36,0.34,-0.23,0.19
2.302720069885254,2,3,3,3,-9.470000000000001,-1.31,2.4,0.32,-0.23,0.19
2.312720060348511,2,3,3,3,-9.5,-1.34,2.39,0.32,-0.21,0.17
2.322720050811768,2,3,3,3,-9.48,-1.34,2.36,0.35,-0.19,0.18
2.332720041275024,2,3,3,3,-9.43,-1.35,2.31,0.32,-0.19,0.17
2.342720031738281,2,3,3,3,-9.42,-1.37,2.41,0.11,-0.19,0.13
2.352720022201538,2,3,3,3,-9.390000000000001,-1.35,2.42,0.1,-0.12,0.11
2.362720012664795,2,3,3,3,-9.35,-1.37,2.4,0.21,-0.18,0.08
2.372720003128052,2,3,3,3,-9.390000000000001,-1.35,2.27,0.22,-0.23,0.06
2.382719993591309,2,3,3,3,-9.41,-1.33,2.4,0.25,-0.16,0.08
2.392719984054565,2,3,3,3,-9.44,-1.33,2.47,0.27,-0.07000000000000001,0.1
2.402719974517822,2,3,3,3,-9.44,-1.33,2.45,0.21,-0.06,0.12
2.412719964981079,2,3,3,3,-9.449999999999999,-1.33,2.38,0.08,-0.04,0.13
2.422719955444336,2,3,3,3,-9.460000000000001,-1.35,2.27,0.06,0.04,0.12
2.432719945907593,2,3,3,3,-9.42,-1.39,2.28,0.08,-0.03,0.13
2.44271993637085,2,3,3,3,-9.42,-1.39,2.33,0.02,-0.05,0.11
2.452719926834106,2,3,3,3,-9.460000000000001,-1.36,2.44,0.09,0.02,0.08
2.462719917297363,2,3,3,3,-9.4,-1.36,2.41,0.14,-0.05,0.09
2.472720146179199,2,3,3,3,-9.380000000000001,-1.34,2.29,0.09,-0.11,0.06
2.482720136642456,2,3,3,3,-9.42,-1.38,2.31,0.06,-0.05,0.07000000000000001
2.492720127105713,2,3,3,3,-9.4,-1.35,2.4,0.1,0,0.05
2.50272011756897,2,3,3,3,-9.41,-1.36,2.35,0.05,0.06,0.03
2.512720108032227,2,3,3,3,-9.4,-1.34,2.39,0.05,0.06,0.03
2.522720098495483,2,3,3,3,-9.43,-1.36,2.35,0.11,0.09,0.03
2.533720016479492,2,3,3,3,-9.41,-1.35,2.4,0.17,0.09,0.03
2.543720006942749,2,3,3,3,-9.390000000000001,-1.36,2.37,0.19,0,0.04
2.553719997406006,2,3,3,3,-9.449999999999999,-1.33,2.41,0.28,-0.04,0.03
2.563719987869263,2,3,3,3,-9.43,-1.29,2.34,0.28,-0.04,0.03
2.57371997833252,2,3,3,3,-9.44,-1.28,2.27,0.25,-0.19,0.05
2.583719968795776,2,3,3,3,-9.44,-1.24,2.33,0.21,-0.2,0.04
2.593719959259033,2,3,3,3,-9.470000000000001,-1.27,2.35,0.22,-0.11,0.03
2.60371994972229,2,3,3,3,-9.49,-1.26,2.45,0.07000000000000001,-0.12,0.01
2.613719940185547,2,3,3,3,-9.460000000000001,-1.28,2.41,0.07000000000000001,-0.12,0.01
2.623719930648804,2,3,3,3,-9.44,-1.28,2.31,0.01,-0.16,0.02
2.633719921112061,2,3,3,3,-9.449999999999999,-1.29,2.34,0,-0.15,0.01
2.643720149993896,2,3,3,3,-9.43,-1.31,2.43,0.03,-0.15,0.03
2.653720140457153,2,3,3,3,-9.42,-1.29,2.45,0.05,-0.14,0.04
2.66372013092041,2,3,3,3,-9.43,-1.31,2.44,0.05,-0.14,0.04
2.673720121383667,2,3,3,3,-9.42,-1.29,2.34,0.01,-0.13,0.04
2.683720111846924,2,3,3,3,-9.390000000000001,-1.32,2.37,-0.02,-0.16,0.03
2.693720102310181,2,3,3,3,-9.43,-1.33,2.38,-0.09,-0.13,0.03
2.703720092773438,2,3,3,3,-9.460000000000001,-1.31,2.38,-0.04,-0.18,0.06
2.713720083236694,2,3,3,3,-9.44,-1.34,2.36,-0.04,-0.18,0.06
2.723720073699951,2,3,3,3,-9.44,-1.33,2.34,0.04,-0.27,0.06
2.733720064163208,2,3,3,3,-9.42,-1.33,2.38,0.13,-0.32,0.05
2.743720054626465,2,3,3,3,-9.4,-1.32,2.41,0.17,-0.35,-0.01
2.753720045089722,2,3,3,2,-9.42,-1.28,2.44,0.18,-0.26,-0.06
2.763720035552979,2,3,3,2,-9.449999999999999,-1.3,2.45,0.18,-0.26,-0.06
2.773720026016235,2,3,3,2,-9.44,-1.32,2.35,0.13,-0.28,-0.08
2.783720016479492,2,3,3,2,-9.44,-1.3,2.38,0.11,-0.31,-0.07000000000000001
2.793720006942749,2,3,3,2,-9.380000000000001,-1.32,2.48,0.09,-0.34,-0.12
2.803719997406006,2,3,3,2,-9.390000000000001,-1.33,2.47,0.01,-0.35,-0.17
2.813719987869263,2,3,3,2,-9.4,-1.34,2.46,0.01,-0.35,-0.17
2.82371997833252,2,3,3,2,-9.4,-1.32,2.37,0.05,-0.28,-0.2
2.833719968795776,2,3,3,2,-9.4,-1.35,2.38,0.03,-0.24,-0.21
2.843719959259033,2,3,3,2,-9.41,-1.36,2.39,-0.04,-0.17,-0.2
2.85371994972229,2,3,3,2,-9.44,-1.34,2.39,-0.1,0.03,-0.2
2.863719940185547,2,3,3,2,-9.44,-1.32,2.46,-0.1,0.03,-0.2
2.873719930648804,2,3,3,2,-9.42,-1.37,2.43,0.02,0.05,-0.18
2.883719921112061,2,3,3,2,-9.380000000000001,-1.35,2.45,0.07000000000000001,-0.03,-0.15
2.893720149993896,2,3,3,2,-9.390000000000001,-1.34,2.46,0.07000000000000001,-0.03,-0.15
2.903720140457153,2,3,3,2,-9.43,-1.32,2.49,0.05,-0.02,-0.12
2.91372013092041,2,3,3,2,-9.42,-1.31,2.48,0.08,0.01,-0.12
2.923720121383667,2,3,3,2,-9.43,-1.31,2.37,0.1,0.01,-0.09
2.933720111846924,2,3,3,2,-9.41,-1.31,2.37,0.02,0.02,-0.11
2.953720092773438,2,3,3,2,-9.42,-1.31,2.51,0.04,0.05,-0.14
2.963720083236694,2,3,3,2,-9.41,-1.29,2.51,0.03,0.01,-0.2
2.983720064163208,2,3,3,2,-9.390000000000001,-1.3,2.44,-0.05,-0.04,-0.25
2.993720054626465,2,3,3,2,-9.390000000000001,-1.33,2.44,-0.08,-0.07000000000000001,-0.22
3.003720045089722,2,3,3,2,-9.390000000000001,-1.35,2.45,-0.02,-0.15,-0.25
3.013720035552979,2,3,3,2,-9.390000000000001,-1.38,2.48,-0.02,-0.15,-0.25
3.023720026016235,2,3,3,2,-9.33,-1.35,2.28,0.13,-0.31,-0.29
3.033720016479492,2,3,3,2,-9.32,-1.34,2.32,0.02,-0.2,-0.31
3.043720006942749,2,3,3,2,-9.34,-1.36,2.38,-0.01,-0.05,-0.34
3.053719997406006,2,3,3,2,-9.42,-1.37,2.39,-0.02,-0.06,-0.35
3.063719987869263,2,3,3,2,-9.42,-1.41,2.42,-0.02,-0.06,-0.35
3.07371997833252,2,3,3,2,-9.449999999999999,-1.38,2.33,-0.01,0.04,-0.34
3.083719968795776,2,3,3,2,-9.52,-1.35,2.34,0.11,-0.07000000000000001,-0.33
3.093719959259033,2,3,3,2,-9.470000000000001,-1.28,2.4,0.17,-0.17,-0.33
3.10371994972229,2,3,3,2,-9.449999999999999,-1.3,2.48,0.27,-0.15,-0.3
3.113719940185547,2,3,3,2,-9.41,-1.21,2.53,0.33,-0.12,-0.24
3.123719930648804,2,3,3,2,-9.41,-1.21,2.38,0.08,0.07000000000000001,-0.17
3.133719921112061,2,3,3,2,-9.48,-1.17,2.45,0.08,0.25,-0.13
3.143720149993896,2,3,3,2,-9.470000000000001,-1.19,2.52,-0.02,0.26,-0.05
3.153720140457153,2,3,3,2,-9.449999999999999,-1.31,2.51,-0.18,0.24,0.02
3.16372013092041,2,3,3,2,-9.44,-1.33,2.5,-0.09,0.23,0
3.173720121383667,2,3,3,2,-9.42,-1.45,2.32,-0.02,0.3,-0.05
3.183720111846924,2,3,3,2,-9.369999999999999,-1.43,2.37,0.03,0.34,-0.19
3.193720102310181,2,3,3,2,-9.380000000000001,-1.4,2.32,0.04,0.45,-0.28
3.203720092773438,2,3,3,2,-9.359999999999999,-1.41,2.28,0.09,0.71,-0.31
3.213720083236694,2,3,3,2,-9.25,-1.19,2.42,0.19,0.84,-0.49
3.223720073699951,2,3,3,2,-9.32,-1.15,2.41,0,0.9,-0.57
3.253720045089722,2,3,3,2,-9.1,-2.15,2.18,0.06,0.83,-0.88
3.263720035552979,2,3,3,2,-8.779999999999999,-1.31,2.07,1.41,0.93,-1.9
3.273720026016235,2,3,3,2,-8.99,-1.55,2.19,1.58,1.03,-1.61
3.283720016479492,2,3,3,2,-10.74,-2.98,1.25,3.52,0.03,-2.14
3.293720006942749,2,3,3,2,-10.45,-1.77,1.53,6.69,-4.21,-2.26
3.303719997406006,2,3,3,2,-10.31,-4.26,2.12,7.24,-5.61,-0.49
3.313719987869263,2,3,3,2,-15.81,-8.07,2.54,5.39,6.04,18.93
3.32371997833252,2,3,3,2,-4.92,1.76,2.14,4.58,0.92,10.05
3.333719968795776,2,3,3,2,-3.42,0.18,2.96,3.97,-9.800000000000001,0.23
3.343719959259033,2,3,3,2,-5.7,-0.9399999999999999,1.92,5.71,-4.52,-2.65
3.35371994972229,2,3,3,2,-9.34,-2.24,2.02,5.93,0.44,0.01
3.363719940185547,2,3,3,2,-4.99,2.27,5.24,-0.08,3.61,3.84
3.373719930648804,2,3,3,2,-8.66,4.09,1.96,-1.78,9.720000000000001,0.63
3.383719921112061,2,3,3,2,-11.15,-1,1.38,-0.6899999999999999,0.35,-3.12
3.393720149993896,2,3,3,2,-12.23,-4.79,2.52,3.87,-5.94,-2.75
3.403720140457153,2,3,3,2,-7.12,-0.08,2.16,-1.66,2.35,-2.6
3.41372013092041,2,3,3,2,-7.78,-0.73,1.47,-3.2,12.63,-2.19
3.423720121383667,2,3,3,2,-9.220000000000001,-1.31,1.01,-0.32,7.95,-2.26
3.433720111846924,2,3,3,2,-9.02,-1.33,2.69,-0.28,1.39,-2.09
3.443720102310181,2,3,3,2,-9.17,-1.49,3,-0.85,0.32,-1.65
3.453720092773438,2,3,3,2,-9.289999999999999,-1.32,2.77,-2.1,0.03,-1.29
3.463720083236694,2,3,3,2,-9.359999999999999,-1.37,2.12,-2.77,-0.14,-1.13
3.473720073699951,2,3,3,2,-9.789999999999999,-0.99,1.23,-1.64,0.48,-1.1
3.483720064163208,2,3,3,2,-9.81,-0.88,1.51,0.09,0.47,-1.35
3.493720054626465,2,3,3,2,-9.56,-0.89,2.01,0.93,-0.37,-1.57
3.503720045089722,2,3,3,2,-9.279999999999999,-1.02,2.39,0.64,-0.71,-1.65
3.513720035552979,2,3,3,2,-9.119999999999999,-1.34,2.01,-0.38,-0.43,-1.75
3.523720026016235,2,3,3,2,-9.1,-1.38,1.64,-1.33,-0.17,-2
3.533720016479492,2,3,3,2,-9.199999999999999,-1.44,1.63,-1.57,-0.23,-2.39
3.543720006942749,2,3,3,2,-9.27,-1.57,1.9,-1.42,-0.72,-2.84
3.554719924926758,2,3,3,2,-9.19,-1.89,2.35,-1.44,-1.58,-3.34
3.564719915390015,2,3,3,2,-8.949999999999999,-1.89,2.06,-1.78,-2.4,-3.83
3.574720144271851,2,3,3,2,-8.449999999999999,-1.86,1.22,-2.62,-2.85,-4.33
3.584720134735107,2,3,3,2,-7.78,-1.77,0.66,-3,-2.66,-4.78
3.594720125198364,2,3,3,2,-6.65,-1.84,1.15,-2.74,-2.11,-5.16
3.604720115661621,2,3,3,2,-6.3,-2.03,1.36,-2.33,-1.66,-5.51
3.614720106124878,2,3,3,2,-5.8,-2.2,1.2,-2.5,-1.38,-6
3.624720096588135,2,3,3,2,-4.52,-2.23,0.52,-2.81,-0.51,-6.54
3.634720087051392,2,3,3,2,-4.06,-2.12,0.7,-2.39,0.76,-6.86
3.644720077514648,2,3,3,2,-3.79,-1.86,1.12,-1.45,1.33,-6.63
3.654720067977905,2,3,3,2,-3.87,-1.69,1.74,-0.34,0.8100000000000001,-5.86
3.664720058441162,2,3,3,2,-4.33,-1.69,2.43,0.34,-0.5,-4.62
3.674720048904419,2,3,3,2,-4.57,-1.71,2.09,0.44,-1.03,-3.38
3.684720039367676,2,3,3,2,-5.17,-1.6,2.14,0.87,-0.3,-2.36
3.694720029830933,2,3,3,2,-6.3,-1.44,2.56,1.46,0.37,-1.6
3.704720020294189,2,3,3,2,-8.529999999999999,-1.18,2.72,1.35,-0.03,-1.31
3.714720010757446,2,3,3,2,-9.300000000000001,-0.95,2.5,0.55,-0.78,-1.53
3.724720001220703,2,3,3,2,-9.880000000000001,-0.68,2.04,-0.29,-1,-2.46
3.73471999168396,2,3,3,2,-10.11,-0.28,1.83,-0.8,-0.9399999999999999,-3.46
3.744719982147217,2,3,3,2,-9.800000000000001,0.08,1.96,-0.71,-1.24,-3.72
3.754719972610474,2,3,3,2,-9.43,-0.26,2.38,-0.67,-2.29,-3.48
3.76471996307373,2,3,3,2,-9.279999999999999,-0.61,3.06,-0.97,-3.74,-2.81
3.774719953536987,2,3,3,2,-9.42,-1.1,3.76,-1.85,-4.68,-1.84
3.784719944000244,2,3,3,2,-10.6,-2.18,4.75,-2.93,-4.96,-0.45
3.794719934463501,2,3,3,2,-11.52,-2.59,4.63,-4.13,-4.89,0.82
3.804719924926758,2,3,3,2,-12.17,-2.76,4.28,-4.57,-4.55,1.38
3.814719915390015,2,3,3,2,-13.44,-3.08,4.07,-3.85,-4.28,1.36
3.824720144271851,2,3,3,2,-14.03,-3.09,4.18,-1.96,-4.42,0.65
3.834720134735107,2,3,3,2,-14.27,-2.95,4.33,-0.51,-4.44,-0.33
3.844720125198364,2,3,3,2,-14.47,-2.69,4.62,0.55,-4.34,-0.79
3.854720115661621,2,3,3,2,-14.37,-2.01,5.05,0.76,-4.36,-0.14
3.864720106124878,2,3,3,2,-14.51,-1.97,5.57,0.77,-4.01,0.91
3.874720096588135,2,3,3,2,-15.14,-2.18,5.89,0.76,-3.18,2.01
3.884720087051392,2,3,3,2,-16.18,-2.57,6.39,0.38,-2.06,2.51
3.894720077514648,2,3,3,2,-18.9,-2.94,7.26,-0.63,-1.4,2.24
3.904720067977905,2,3,3,2,-20,-2.83,6.58,-1.87,-0.49,1.51
3.914720058441162,2,3,3,2,-20.75,-2.65,6.13,-1.73,2.38,0.63
3.924720048904419,2,3,3,2,-21.5,-2.51,5.94,-0.47,5.62,-0.1
3.934720039367676,2,3,3,2,-22.79,-2.6,6.21,0.75,6.49,-0.5600000000000001
3.944720029830933,2,3,3,2,-22.85,-2.16,6.5,1.98,5.46,-0.44
3.954720020294189,2,3,3,2,-22.57,-1.75,6.61,2.18,5.35,0.42
3.964720010757446,2,3,3,2,-22.35,-1.58,7.01,1.97,6.13,1.8
3.974720001220703,2,3,3,2,-22.91,-0.63,7.94,2.22,7.8,3.28
3.98471999168396,2,3,3,2,-23.9,-0.13,8.02,2.28,10.12,4.61
3.994719982147217,2,3,3,2,-24.8,0.02,8.02,2.45,10.92,5.44
4.004719972610474,2,3,3,2,-24.26,-0.73,6.23,1.28,9.98,6.09
4.01471996307373,2,3,3,2,-22.59,-1.61,5.14,-0.57,8.92,5.81
4.024719953536987,2,3,3,2,-20.37,-2.55,4.11,-1.93,8.460000000000001,4.65
4.034719944000244,2,3,3,2,-17.88,-3.88,3.35,-2.92,8.220000000000001,3.61
4.044719934463501,2,3,3,2,-13.55,-6.37,2.54,-3.44,7.58,2.65
4.054719924926758,2,3,3,2,-10.85,-7.27,1.42,-3.75,5.18,1.43
4.064719915390015,2,3,3,2,-8.18,-8.41,0.23,-2.9,3.25,0.02
4.074720144271851,2,3,3,2,-6.25,-8.35,-0.38,-0.1,2.95,-1.24
4.084720134735107,2,3,3,2,-2.08,-5.92,-0.6,1.8,1.74,-1.29
4.094720125198364,2,3,3,2,-0.31,-5.05,-0.79,1.33,-0.47,0.26
4.104720115661621,2,3,3,2,2.01,-5.05,-0.6,-2.83,-3.06,0.67
4.114720106124878,2,3,3,2,4.58,-6.19,-0.87,-10.71,-7.32,-1.85
4.124720096588135,2,3,3,2,7.33,-9.31,-5.65,-16.89,-10.5,-4.71
4.134720087051392,2,3,3,2,7.07,-8.970000000000001,-6.4,-13.98,-5.11,-5.25
4.144720077514648,2,3,3,2,6.16,-7.47,-5.59,-3.67,6.05,-4.93
4.154720067977905,2,3,3,2,3.19,-4.83,-1.31,5.64,11.81,-4.72
4.164720058441162,2,3,3,2,3.19,-4.83,-1.31,10.19,8.93,-3.07
4.174720048904419,2,3,3,2,0.2,-1.82,0.39,10.81,2.43,-0.71
4.184720039367676,2,3,3,2,-0.06,-0.15,0.31,10.08,-2.94,1.27
4.194720029830933,2,3,3,2,0.68,2.39,0.55,9.59,-4.48,3.15
4.204720020294189,2,3,3,2,0.68,2.39,0.55,9.06,-3.77,5.28
4.214720010757446,2,3,3,2,0.53,2.91,0.51,8.31,-2.44,6.73
4.224720001220703,2,3,3,2,-0.8100000000000001,2.37,0.73,6.6,-1.25,7.28
4.23471999168396,2,3,3,2,-2.07,1.23,0.35,3.66,-0.85,7.16
4.244719982147217,2,3,3,2,-2.37,0.97,-0.02,0.27,-0.74,6.66
4.254719972610474,2,3,3,2,-2.37,0.97,-0.02,-2.14,-0.97,5.8
4.26471996307373,2,3,3,2,-2.33,0.58,-0.27,-3.02,-1.19,4.43
4.274719953536987,2,3,3,2,-1.31,0.91,-0.44,-2.95,-0.8100000000000001,3.07
4.284719944000244,2,3,3,2,-0.93,0.82,-0.42,-2.74,0.03,1.87
4.294719934463501,2,3,3,2,-0.5600000000000001,0.71,-0.37,-2.65,0.31,0.74
4.304719924926758,2,3,3,2,-0.04,0.65,-0.5,-2.57,0.32,-0.08
4.314719915390015,2,3,3,2,0.5,0.67,-0.58,-2.2,1.22,-0.64
4.324720144271851,2,3,3,2,0.34,0.49,-0.36,-1.22,2.25,-1.14
4.334720134735107,2,3,3,2,0.21,0.17,-0.11,-0.19,2.09,-1.85
4.344720125198364,2,3,3,2,-0.14,-0.6,0.18,0.25,1.07,-2.87
4.354720115661621,2,3,3,2,-0.44,-0.87,0.18,0.4,-0.39,-3.73
4.364720106124878,2,3,3,2,-0.7,-0.87,0.14,0.53,-1.59,-4.3
4.374720096588135,2,3,3,2,-0.74,-0.77,0.09,1.03,-2.46,-4.55
4.384720087051392,2,3,3,2,-0.32,-0.61,0.32,1.89,-2.93,-4.69
4.394720077514648,2,3,3,2,-0.14,-0.49,0.34,2.8,-2.84,-4.53
4.404720067977905,2,3,3,2,0.02,-0.38,0.31,3.75,-2.58,-3.77
4.414720058441162,2,3,3,2,0.07000000000000001,-0.06,0.43,4.96,-2.05,-2.69
4.424720048904419,2,3,3,2,0,0.52,1.33,6.33,-1.38,-1.54
4.434720039367676,2,3,3,2,-0.64,0.48,0.77,6.11,-1.51,0.36
4.444720029830933,2,3,3,2,-1.5,-0.33,1.14,4.12,-3.4,3.54
4.454720020294189,2,3,3,2,-2.24,-1.1,3.32,3.85,-6.36,6.92
4.464720010757446,2,3,3,2,-2.24,-1.1,3.32,3.85,-6.36,6.92
4.474720001220703,2,3,3,2,-3.44,-6.5,3.93,-4.56,-13.24,13.65
4.48471999168396,2,3,3,2,-3.34,-10.47,1.19,-9.91,-8.52,18.28
4.494719982147217,2,3,3,2,-6.02,-11.85,1.56,-2.47,14.77,24.09
4.504719972610474,2,3,3,2,-6.02,-11.85,1.56,-2.47,14.77,24.09
4.51471996307373,2,3,3,2,-39.11,-10.17,15.24,7.04,22.99,30.95
4.524719953536987,2,3,3,2,-39.06,-7.85,-10.48,31.45,26.05,-7.25
4.534719944000244,2,3,3,2,-19.08,21.47,5.56,23.96,-44.36,-31.47
4.544719934463501,2,3,3,2,-11.78,4.58,15.67,-4.06,-19.6,-12.24
4.554719924926758,2,3,3,2,-11.78,4.58,15.67,-4.06,-19.6,-12.24
4.564719915390015,2,3,3,2,-13.38,1.69,16.23,0.45,6.98,9.91
4.574720144271851,2,3,3,2,-13.3,-0.32,8.619999999999999,1.41,-14.53,17.38
4.585720062255859,2,3,3,2,-13.77,2.12,8.359999999999999,0.55,-6.01,10.9
4.595720052719116,2,3,3,2,-16.58,4.27,8.01,-3.96,7.8,6.55
4.605720043182373,2,3,3,2,-16.58,4.27,8.01,-3.96,7.8,6.55
4.61572003364563,2,3,3,2,-20.98,5.53,5.75,-5,17.46,2.4
4.625720024108887,2,3,3,2,-21.95,0.74,0.07000000000000001,-0.21,3.3,-7.9
4.635720014572144,2,3,3,2,-17.6,-0.8100000000000001,3.01,-0.54,-5.84,-12.27
4.6457200050354,2,3,3,2,-13.7,-1.59,5,1.91,-7.51,-13.13
4.655719995498657,2,3,3,2,-13.7,-1.59,5,1.91,-7.51,-13.13
4.665719985961914,2,3,3,2,-9.550000000000001,-1.23,5.65,2.9,-5.32,-11.04
4.675719976425171,2,3,3,2,-9.6,0.6,5.47,0.26,2.51,-6.05
4.685719966888428,2,3,3,2,-10.15,0.43,5.21,-2.3,2.87,-4.4
4.695719957351685,2,3,3,2,-10.26,-0.08,2.61,-4.85,0.53,-2.83
4.705719947814941,2,3,3,2,-10.26,-0.08,2.61,-4.85,0.53,-2.83
4.715719938278198,2,3,3,2,-8.76,-0.24,1.56,-6.83,-1.37,-1.28
4.725719928741455,2,3,3,2,-4.75,-1.05,0.91,-7.95,0.7,0.76
4.735719919204712,2,3,3,2,-4.33,-1.23,1.01,-7.89,2.05,0.96
4.745720148086548,2,3,3,2,-4.46,-1.35,1.14,-7.78,2.65,0.8
4.755720138549805,2,3,3,2,-4.46,-1.35,1.14,-7.78,2.65,0.8
4.765720129013062,2,3,3,2,-4.71,-1.56,1.06,-7.66,2.21,0.58
4.775720119476318,2,3,3,2,-4.92,-1.93,0.68,-5.92,-0.4,-0.98
4.785720109939575,2,3,3,2,-4.86,-2.09,0.8100000000000001,-4.83,-1.75,-1.77
4.795720100402832,2,3,3,2,-4.84,-2.3,0.83,-3.98,-2.66,-2.22
4.805720090866089,2,3,3,2,-4.84,-2.3,0.83,-3.98,-2.66,-2.22
4.815720081329346,2,3,3,2,-4.97,-2.63,0.63,-3.16,-2.67,-1.86
4.825720071792603,2,3,3,2,-5.12,-2.95,0.59,-0.87,0.02,0.29
4.835720062255859,2,3,3,2,-5.37,-3.16,1.08,0.72,0.93,1.28
4.845720052719116,2,3,3,2,-6.82,-3.25,1.85,2.18,0.09,1.79
4.855720043182373,2,3,3,2,-6.82,-3.25,1.85,2.18,0.09,1.79
4.86572003364563,2,3,3,2,-7.53,-3.02,1.62,2.55,-1.61,2.11
4.875720024108887,2,3,3,2,-8.92,-2.01,1.41,3.77,-1.63,2.58
4.885720014572144,2,3,3,2,-8.92,-2.01,1.41,4.19,-2.16,2.89
4.8957200050354,2,3,3,2,-9.93,-1.21,2.58,3.88,-3.45,3.31
4.905719995498657,2,3,3,2,-10.28,-0.9,2.95,3.88,-3.45,3.31
4.915719985961914,2,3,3,2,-10.68,-0.61,3.03,3.26,-3.71,3.6
4.925719976425171,2,3,3,2,-11.11,0.21,2.7,2.29,-1.65,3.07
4.935719966888428,2,3,3,2,-11.27,0.64,2.52,2.09,-0.68,2.03
4.945719957351685,2,3,3,2,-11.21,0.92,2.65,1.79,-0.75,0.98
4.955719947814941,2,3,3,2,-11.22,1.02,3.13,1.79,-0.75,0.98
4.965719938278198,2,3,3,2,-10.88,0.72,3.46,1.08,-1.85,-0.18
4.975719928741455,2,3,3,2,-10.34,0.51,2.85,-1.44,-1.46,-1.09
4.985719919204712,2,3,3,2,-9.949999999999999,0.24,2.6,-1.67,-0.46,-1.13
4.995720148086548,2,3,3,2,-9.66,0.1,2.63,-1.85,0.25,-1.06
5.005720138549805,2,3,3,2,-9.050000000000001,-0.07000000000000001,2.79,-1.85,0.25,-1.06
5.015720129013062,2,3,3,2,-8.779999999999999,-0.21,2.77,-2.09,0.5,-0.89
5.025720119476318,2,3,3,2,-8.550000000000001,-0.3,2.72,-1.93,0.46,-0.46
5.035720109939575,2,3,3,2,-8.449999999999999,-0.37,2.7,-1.85,0.48,-0.29
5.045720100402832,2,3,3,2,-8.32,-0.65,2.83,-1.71,0.68,-0.18
5.055720090866089,2,3,3,2,-8.35,-0.7,2.78,-1.71,0.68,-0.18
5.1457200050354,2,3,3,2,-9.18,-1.57,1.91,-0.33,-1.18,0.07000000000000001
5.155719995498657,2,3,3,2,-8.94,-1.55,2.15,-0.33,-1.18,0.07000000000000001
5.165719985961914,2,3,3,2,-8.98,-1.5,2.33,0.05,-0.88,0.55
5.175719976425171,2,3,3,2,-9.02,-1.46,2.42,0.28,-0.48,1.21
5.185719966888428,2,3,3,2,-9.130000000000001,-1.4,2.4,0.2,-0.29,1.28
5.195719957351685,2,3,3,2,-9.279999999999999,-1.18,2.47,0.29,0.07000000000000001,1.17
5.205719947814941,2,3,3,2,-9.4,-1.09,2.62,0.29,0.07000000000000001,1.17
5.215719938278198,2,3,3,2,-9.4,-1.05,2.67,0.31,0.38,0.88
5.225719928741455,2,3,3,2,-9.44,-1.04,2.66,0.47,0.46,0.2
5.235719919204712,2,3,3,2,-9.57,-0.95,2.52,0.49,0.29,-0.19
5.245720148086548,2,3,3,2,-9.550000000000001,-0.85,2.47,0.58,0.28,-0.45
5.255720138549805,2,3,3,2,-9.51,-0.76,2.51,0.58,0.28,-0.45
5.265720129013062,2,3,3,2,-9.300000000000001,-0.68,2.87,0.57,0.16,-0.59
5.275720119476318,2,3,3,2,-9.23,-0.8,2.99,-0.01,0.19,-0.58
5.285720109939575,2,3,3,2,-9.27,-0.89,2.8,-0.5,0.4,-0.49
5.295720100402832,2,3,3,2,-9.31,-0.88,2.58,-0.6,0.76,-0.37
5.305720090866089,2,3,3,2,-9.640000000000001,-0.77,2.62,-0.6,0.76,-0.37
5.315720081329346,2,3,3,2,-9.720000000000001,-0.8,2.61,-0.71,0.87,-0.21
5.325720071792603,2,3,3,2,-9.789999999999999,-0.76,2.61,-0.91,0.42,-0.17
5.335720062255859,2,3,3,2,-9.67,-0.72,2.41,-1.15,0.41,-0.23
5.345720052719116,2,3,3,2,-9.48,-0.99,2.42,-1.15,0.46,-0.27
5.355720043182373,2,3,3,2,-9.52,-1.15,2.43,-1.15,0.46,-0.27
5.36572003364563,2,3,3,2,-9.529999999999999,-1.3,2.37,-1.21,0.37,-0.35
5.375720024108887,2,3,3,2,-9.550000000000001,-1.41,2.37,-1.02,0.17,-0.31
5.385720014572144,2,3,3,2,-9.44,-1.48,2.14,-0.86,0.13,-0.21
5.3957200050354,2,3,3,2,-9.300000000000001,-1.52,2.22,-0.6,0.12,-0.11
5.405719995498657,2,3,3,2,-9.19,-1.59,2.29,-0.6,0.12,-0.11
5.415719985961914,2,3,3,2,-9.140000000000001,-1.58,2.4,-0.31,0.1,0.01
5.425719976425171,2,3,3,2,-9.17,-1.63,2.38,0.12,0.27,0.27
5.435719966888428,2,3,3,2,-9.210000000000001,-1.62,2.21,0.21,0.3,0.38
5.445719957351685,2,3,3,2,-9.25,-1.58,2.17,0.44,0.36,0.42
5.455719947814941,2,3,3,2,-9.44,-1.44,2.34,0.44,0.36,0.42
5.465719938278198,2,3,3,2,-9.49,-1.37,2.41,0.58,0.21,0.42
5.475719928741455,2,3,3,2,-9.52,-1.26,2.33,0.55,0.11,0.23
5.485719919204712,2,3,3,2,-9.539999999999999,-1.21,2.19,0.5600000000000001,0.05,0.14
5.495720148086548,2,3,3,2,-9.56,-1.09,2.39,0.5,-0.23,0.03
5.505720138549805,2,3,3,2,-9.51,-1.08,2.45,0.5,-0.23,0.03
5.515720129013062,2,3,3,2,-9.449999999999999,-1.11,2.43,0.26,-0.36,-0.05
5.525720119476318,2,3,3,2,-9.43,-1.08,2.37,-0.02,0.12,-0.28
5.535720109939575,2,3,3,2,-9.24,-0.99,2.11,0.09,0.7,-0.48
5.545720100402832,2,3,3,2,-9.18,-0.97,2.31,0.12,0.91,-0.66
5.555720090866089,2,3,3,2,-9.119999999999999,-1.03,2.53,0.12,0.91,-0.66
5.565720081329346,2,3,3,2,-9.02,-1.1,2.55,-0.32,1.04,-0.82
5.575720071792603,2,3,3,2,-9.039999999999999,-1.49,2.33,-1.15,1.93,-1.08
5.585720062255859,2,3,3,2,-9.15,-1.62,2.13,-1.17,2.34,-1.24
5.595720052719116,2,3,3,2,-9.380000000000001,-1.72,2.08,-0.75,2.34,-1.49
5.606719970703125,2,3,3,2,-9.800000000000001,-1.85,2.27,-0.75,2.34,-1.49
5.616719961166382,2,3,3,2,-9.699999999999999,-1.78,2.05,-0.33,1.77,-1.94
5.626719951629639,2,3,3,2,-9.41,-1.76,1.83,0.3,1.69,-2.85
5.636719942092896,2,3,3,2,-9.07,-1.69,1.71,0.48,1.96,-3.2
5.646719932556152,2,3,3,2,-8.52,-1.67,1.79,0.47,2.15,-3.4
5.656719923019409,2,3,3,2,-8.279999999999999,-1.63,1.74,0.47,2.15,-3.4
5.666719913482666,2,3,3,2,-8.109999999999999,-1.62,1.82,0.27,2.38,-3.47
5.676720142364502,2,3,3,2,-7.99,-1.71,1.74,-0.6899999999999999,2.34,-3.56
5.686720132827759,2,3,3,2,-7.55,-1.88,1.41,-0.6899999999999999,2.2,-3.7
5.696720123291016,2,3,3,2,-7.53,-1.94,1.75,-0.8100000000000001,1.35,-3.78
5.706720113754272,2,3,3,2,-7.48,-1.96,1.95,-0.8100000000000001,1.35,-3.78
5.716720104217529,2,3,3,2,-7.24,-1.95,1.61,-1.56,0.45,-3.8
5.726720094680786,2,3,3,2,-6.95,-1.66,0.84,-0.85,0.45,-3.84
5.7467200756073,2,3,3,2,-6.9,-1.39,1.46,-0.9,-0.93,-4.41
5.756720066070557,2,3,3,2,-6.77,-1.54,1.67,-0.9,-0.93,-4.41
5.766720056533813,2,3,3,2,-6.09,-1.91,1.14,-1.96,-0.99,-5.1
5.77672004699707,2,3,3,2,-5.78,-1.87,0.73,-2.91,-0.02,-5.99
5.786720037460327,2,3,3,2,-5.52,-1.74,0.47,-3.3,1.25,-6.79
5.796720027923584,2,3,3,2,-5.5,-1.65,0.58,-3.37,1.77,-7.26
5.806720018386841,2,3,3,2,-5.57,-1.84,0.88,-3.49,1.15,-7.21
5.816720008850098,2,3,3,2,-5.66,-2.06,0.96,-3.52,-0.12,-6.6
5.826719999313354,2,3,3,2,-5.72,-2.32,0.8100000000000001,-3.38,-1.22,-5.71
5.836719989776611,2,3,3,2,-5.62,-2.65,0.46,-2.51,-1.64,-5.05
5.846719980239868,2,3,3,2,-5.47,-2.59,0.6,-0.63,-1.58,-4.82
5.856719970703125,2,3,3,2,-5.46,-2.32,0.98,1.04,-1.7,-4.69
5.866719961166382,2,3,3,2,-5.64,-2.34,1.49,1.97,-2.13,-4.39
5.876719951629639,2,3,3,2,-6.56,-1.98,2.42,2.36,-2.73,-3.98
5.886719942092896,2,3,3,2,-7.5,-1.74,2.5,1.91,-2.85,-3.3
5.896719932556152,2,3,3,2,-8.42,-1.61,2.86,0.92,-2.86,-2.64
5.906719923019409,2,3,3,2,-9.15,-1.51,3.44,-0.14,-3.7,-2.07
5.916719913482666,2,3,3,2,-10.46,-1.53,5.1,-1.5,-4.89,-1.65
5.926720142364502,2,3,3,2,-11.3,-1.7,4.96,-2.73,-5.72,-1.71
5.936720132827759,2,3,3,2,-11.86,-1.68,4.28,-3.65,-5.17,-2.09
5.946720123291016,2,3,3,2,-12.46,-1.48,3.58,-3.56,-3.14,-1.66
5.956720113754272,2,3,3,2,-12.84,-1.76,2.82,-1.82,-1.45,-1.43
5.966720104217529,2,3,3,2,-12.82,-2.39,2.79,0.6,-1.71,-1.53
5.976720094680786,2,3,3,2,-12.87,-2.73,3.25,2.2,-4.77,-1.29
5.986720085144043,2,3,3,2,-12.85,-2.74,4.85,2.12,-8.06,-0.43
5.9967200756073,2,3,3,2,-12.97,-2.39,5.65,1.53,-8.050000000000001,1.21
6.006720066070557,2,3,3,2,-13.49,-1.97,6.34,0.88,-5.67,3.24
6.016720056533813,2,3,3,2,-14.26,-1.77,6.9,0.34,-3.48,5.17
6.02672004699707,2,3,3,2,-15.51,-1.85,7.38,-0.4,-2.18,6
6.036720037460327,2,3,3,2,-16.67,-2.55,7.11,-1.02,0.08,5.07
6.046720027923584,2,3,3,2,-17.97,-2.62,6.69,-0.14,2.4,3.49
6.056720018386841,2,3,3,2,-19.1,-2.47,6.3,0.54,3.59,2.13
6.066720008850098,2,3,3,2,-20.53,-2.56,6.17,0.36,3.23,1.05
6.076719999313354,2,3,3,2,-20.88,-2.53,6.21,0.11,1.18,-0.24
6.086719989776611,2,3,3,2,-20.91,-2.26,6.53,0.04,-0.73,-1.17
6.096719980239868,2,3,3,2,-20.7,-2.22,7.06,-0.12,0.08,-1.49
6.106719970703125,2,3,3,2,-20.55,-2.84,7.46,-0.01,2.11,-1.47
6.116719961166382,2,3,3,2,-20.48,-3.32,6.75,-0.03,3.41,-1.37
6.126719951629639,2,3,3,2,-20.55,-3.05,6.13,0.55,4.16,-1.02
6.136719942092896,2,3,3,2,-20.55,-3.17,5.78,1.32,4.05,-0.2
6.146719932556152,2,3,3,2,-20.18,-2.86,6.22,3.7,4.01,1.27
6.156719923019409,2,3,3,2,-20.24,-2.1,6.54,6.65,3.8,3.5
6.166719913482666,2,3,3,2,-20.51,-1.16,7.07,9.26,4.39,6.82
6.176720142364502,2,3,3,2,-21.21,0.63,8,11.55,5.55,9.630000000000001
6.186720132827759,2,3,3,2,-21.84,1.47,8.06,12.49,8.279999999999999,11.01
6.196720123291016,2,3,3,2,-22.61,2.37,7.49,11.62,11.24,10.95
6.206720113754272,2,3,3,2,-22.78,2.77,7.02,9.82,12.74,10.01
6.216720104217529,2,3,3,2,-19.37,2.41,5.77,7.57,11.46,8.23
6.226720094680786,2,3,3,2,-16.15,-0.07000000000000001,5.39,3.18,7.6,5.79
6.236720085144043,2,3,3,2,-12.98,-3.84,4.57,-1.18,5.28,2.68
6.2467200756073,2,3,3,2,-10.27,-6.12,3.15,-3.75,5.65,0.19
6.256720066070557,2,3,3,2,-5.49,-6.16,-1.24,-5.82,7.46,-1.08
6.266720056533813,2,3,3,2,-3.19,-4.59,-2.42,-8.199999999999999,10.35,-1.64
6.27672004699707,2,3,3,2,-1.29,-4.18,-2.49,-13.26,9.57,-3.05
6.286720037460327,2,3,3,2,0.42,-6.62,-1.3,-23.03,-0.14,-6.76
6.296720027923584,2,3,3,2,4.33,-13.92,-10.69,-36.44,-12.06,-11.27
6.306720018386841,2,3,3,2,2.75,-14.25,-15.79,-40.74,-7.07,-11.48
6.316720008850098,2,3,3,2,-0.91,-12.32,-15.81,-24.92,7.4,-8.18
6.326719999313354,2,3,3,2,-1.92,-11.06,-8.41,2.88,7.84,-8.630000000000001
6.336719989776611,2,3,3,2,4.19,-8.57,1.18,19.96,-7.17,-10.06
6.346719980239868,2,3,3,2,5.38,-6.45,0.64,18.84,-11.23,-5.36
6.356719970703125,2,3,3,2,4.99,-3.66,1.37,18.54,-5.39,0.04
6.366719961166382,2,3,3,2,4.94,2.34,2.21,19.37,0.38,4.64
6.376719951629639,2,3,3,2,4.64,4.78,1.74,17.54,1.62,8.119999999999999
6.386719942092896,2,3,3,2,4.38,5.46,0.74,13.68,-0.74,10.6
6.396719932556152,2,3,3,2,3.58,5.02,0.51,10.92,-2.8,11.16
6.406719923019409,2,3,3,2,0.2,2.67,1.59,7.93,-3.21,10.32
6.416719913482666,2,3,3,2,-0.93,2.03,1.38,4.46,-3.04,8.970000000000001
6.426720142364502,2,3,3,2,-1.82,1.73,1.23,1.78,-2.59,8.25
6.436720132827759,2,3,3,2,-2.37,1.89,1.04,0.42,-1.04,8.289999999999999
6.446720123291016,2,3,3,2,-2.95,3.01,0.47,-0.79,1.75,7.95
6.456720113754272,2,3,3,2,-3.1,3.08,0.32,-1.8,4.68,7.01
6.466720104217529,2,3,3,2,-3.03,2.78,0.52,-2.92,5.43,5.06
6.476720094680786,2,3,3,2,-2.77,2.16,0.8,-4.6,3.44,2.41
6.486720085144043,2,3,3,2,-1.7,0.61,0.35,-6.51,0,-0.12
6.4967200756073,2,3,3,2,-1.07,0.05,-0.14,-8.02,-2.52,-1.93
6.506720066070557,2,3,3,2,-0.47,-0.38,-0.61,-8.74,-2.46,-3.16
6.516720056533813,2,3,3,2,-0.44,-0.73,-1.24,-8.49,-0.03,-4.14
6.52672004699707,2,3,3,2,-1,-1.04,-1.14,-7.02,2.44,-4.84
6.536720037460327,2,3,3,2,-1.38,-1.47,-1.07,-4.44,2.39,-5.67
6.546720027923584,2,3,3,2,-1.2,-1.9,-0.97,-1.62,0.09,-6.64
6.556720018386841,2,3,3,2,0.27,-1.77,-1.1,0.71,-2.16,-7.11
6.566720008850098,2,3,3,2,0.78,-1.37,-1.07,2.52,-2.66,-6.68
6.576719999313354,2,3,3,2,0.96,-0.83,-0.74,4.14,-2.17,-5.53
6.586719989776611,2,3,3,2,1.02,-0.24,-0.36,5.16,-2.63,-3.89
6.596719980239868,2,3,3,2,1.49,0.53,0.16,5.65,-4.38,-2.14
6.606719970703125,2,3,3,2,1.81,0.7,0.2,5.72,-5.55,-0.4
6.616719961166382,2,3,3,3,1.72,0.74,0.09,5.21,-5.2,1.13
6.626719951629639,2,3,3,3,1.53,0.68,0.23,4.82,-4.29,2.34
6.637720108032227,2,3,3,3,1.68,0.18,1.69,4.53,-3.44,3.12
6.647720098495483,2,3,3,3,1.09,-0.58,1.7,3.66,-1.87,4.38
6.65772008895874,2,3,3,3,-0.01,-1.61,1.25,0.4,-1.77,6.86
6.667720079421997,2,3,3,3,-2.07,-2.98,1.84,-1.41,-3.61,9.630000000000001
6.677720069885254,2,3,3,3,-1.97,-6.53,3.91,-3.55,-7.59,10.96
6.687720060348511,2,3,3,3,-1.21,-10.7,3.09,-10.25,-7.81,12.22
6.697720050811768,2,3,3,3,-3.78,-11.94,-0.17,-9.58,1.77,15.67
6.707720041275024,2,3,3,3,-25.97,-11.58,2.62,-4.38,22.28,18.79
6.717720031738281,2,3,3,3,-39.11,-17.41,11.06,5.86,18.39,18.87
6.727720022201538,2,3,3,3,-39.11,-14.49,-0.57,32.99,-23.74,15.98
6.737720012664795,2,3,3,3,-38.78,4.62,-5.5,37.53,-0.22,-8.300000000000001
6.747720003128052,2,3,3,3,-25.16,19.55,12.81,26.7,-5.65,-14.08
6.757719993591309,2,3,3,3,-24.91,10.64,14.1,6.93,-1.8,-3.54
6.767719984054565,2,3,3,3,-20.63,5.11,13.3,-3.27,2.35,9.17
6.777719974517822,2,3,3,3,-16.19,1.96,11.07,-8.210000000000001,-13.18,15.31
6.787719964981079,2,3,3,3,-14.24,0.49,9.949999999999999,-6.26,-14.39,14.35
6.797719955444336,2,3,3,3,-16.09,2.69,8.35,-5.23,-0.5,10.93
6.807719945907593,2,3,3,3,-19.23,4.48,5.54,-5.67,11.07,6.36
6.81771993637085,2,3,3,3,-23.77,4.79,3.09,-3.73,15.04,0.3
6.827719926834106,2,3,3,3,-25.88,1.42,2.61,1.47,11.05,-3.22
6.837719917297363,2,3,3,3,-22.12,0.63,4.45,4,0.21,-4.72
6.847720146179199,2,3,3,3,-18.93,0.36,5.54,1.26,-6.99,-5.77
6.857720136642456,2,3,3,3,-17.12,0.29,5.9,-1.32,-7,-5.85
6.867720127105713,2,3,3,3,-15.59,0.97,5.78,-3.58,-4.65,-4.91
6.87772011756897,2,3,3,3,-14.42,0.87,5.44,-4.71,-1.89,-4.36
6.887720108032227,2,3,3,3,-13.56,0.67,4.93,-5.08,1.03,-3.64
6.897720098495483,2,3,3,3,-12.36,-0.75,3.8,-5.54,2.65,-2.76
6.90772008895874,2,3,3,3,-11.91,-1.23,3.06,-5.81,2.7,-2.05
6.917720079421997,2,3,3,3,-11.08,-1.88,2.45,-5.97,1.96,-1.38
6.927720069885254,2,3,3,3,-10.12,-2.38,1.97,-6.04,0.91,-0.53
6.937720060348511,2,3,3,3,-8.720000000000001,-2.41,1.22,-5.73,0.25,-0.46
6.947720050811768,2,3,3,3,-8.210000000000001,-2.38,1.19,-4.74,0.59,-0.98
6.957720041275024,2,3,3,3,-8.01,-2.39,1.11,-3.23,1.38,-1.56
6.967720031738281,2,3,3,3,-7.93,-2.46,0.93,-1.53,1.33,-1.98
6.977720022201538,2,3,3,3,-7.19,-2.46,0.27,-0.49,0.24,-1.96
6.987720012664795,2,3,3,3,-6.42,-2.34,0.01,0.32,-0.92,-2.13
7.007719993591309,2,3,3,3,-4.76,-1.96,0.19,2.28,-1.01,-3.62
7.017719984054565,2,3,3,3,-3.73,-1.56,0.55,3.13,0.1,-4.21
7.027719974517822,2,3,3,3,-3.48,-1.52,0.68,3.54,1.35,-4.55
7.037719964981079,2,3,3,3,-3.52,-1.41,0.73,3.46,2.08,-4.25
7.047719955444336,2,3,3,3,-4.26,-1.29,1.06,3.42,2.32,-3.64
7.057719945907593,2,3,3,3,-4.69,-1.17,1.15,3.49,1.97,-2.96
7.06771993637085,2,3,3,3,-5.06,-1.13,1.39,3.61,1.03,-2.31
7.077719926834106,2,3,3,3,-5.22,-1.17,1.46,3.52,-0.41,-1.74
7.087719917297363,2,3,3,3,-5.24,-1.5,1.27,2.83,-1.66,-1.13
7.097720146179199,2,3,3,3,-5.35,-1.59,1.26,1.86,-1.9,-0.67
7.107720136642456,2,3,3,3,-5.67,-1.68,1.26,1.18,-1.27,-0.25
7.117720127105713,2,3,3,3,-6.29,-1.83,1.4,0.93,-0.39,0.44
7.12772011756897,2,3,3,3,-7.85,-2.17,1.18,1.11,0.01,1.24
7.137720108032227,2,3,3,3,-8.44,-2.26,0.78,1.35,0.11,1.77
7.147720098495483,2,3,3,3,-9.140000000000001,-2.2,1.02,2.66,0.26,2.25
7.15772008895874,2,3,3,3,-9.960000000000001,-1.94,1.41,4.32,-0.14,2.51
7.167720079421997,2,3,3,3,-10.96,-1.08,1.86,5.53,-1.01,2.55
7.177720069885254,2,3,3,3,-11.08,-0.43,2.07,5.99,-1.73,2.35
7.187720060348511,2,3,3,3,-11.25,0.11,2.55,6.24,-1.79,2.2
7.197720050811768,2,3,3,3,-11.46,0.7,3.15,5.87,-1.56,1.84
7.207720041275024,2,3,3,3,-11.7,1.58,3.64,4.26,-1.61,1.4
7.217720031738281,2,3,3,3,-11.7,1.83,3.53,1.93,-1.56,0.9
7.227720022201538,2,3,3,3,-11.64,1.95,3.49,-0.36,-1.35,0.46
7.237720012664795,2,3,3,3,-11.02,1.42,3.29,-2.39,-1.34,0.16
7.247720003128052,2,3,3,3,-10.35,1.02,2.64,-4.11,-1.73,0.04
7.257719993591309,2,3,3,3,-9.65,0.52,2.11,-5.43,-1.63,0.02
7.267719984054565,2,3,3,3,-9.199999999999999,0.06,2.06,-5.45,-0.92,0.05
7.277719974517822,2,3,3,3,-8.68,-0.93,2.15,-4.91,-0.55,0.09
7.287719964981079,2,3,3,3,-8.49,-1.33,2.08,-4.42,-0.57,0.13
7.297719955444336,2,3,3,3,-8.48,-1.62,2.12,-3.84,-0.54,0.1
7.307719945907593,2,3,3,3,-8.539999999999999,-1.69,2.27,-3.22,-0.47,0.14
7.31771993637085,2,3,3,3,-8.630000000000001,-1.41,2.49,-2.57,-0.29,0.06
7.327719926834106,2,3,3,3,-8.65,-1.18,2.42,-2.15,0.2,-0.1
7.337719917297363,2,3,3,3,-8.710000000000001,-1.08,2.34,-1.79,0.7,-0.18
7.347720146179199,2,3,3,3,-8.699999999999999,-1,2.38,-1.41,0.84,-0.25
7.357720136642456,2,3,3,3,-8.65,-1.08,2.24,-1.26,0.6,-0.28
7.367720127105713,2,3,3,3,-8.800000000000001,-1.14,2.28,-0.8100000000000001,0.34,-0.25
7.37772011756897,2,3,3,3,-8.83,-1.26,2.33,-0.43,-0.06,-0.07000000000000001
7.387720108032227,2,3,3,3,-8.880000000000001,-1.38,2.24,-0.3,-0.52,0.17
7.397720098495483,2,3,3,3,-8.92,-1.57,2.07,-0.29,-0.7,0.42
7.40772008895874,2,3,3,3,-9.07,-1.55,2.12,-0.12,-0.47,0.65
7.417720079421997,2,3,3,3,-9.279999999999999,-1.49,2.27,0.21,-0.32,0.83
7.427720069885254,2,3,3,3,-9.57,-1.4,2.23,0.48,-0.28,0.97
7.437720060348511,2,3,3,3,-9.67,-1.33,2.13,0.59,-0.33,1.14
7.447720050811768,2,3,3,3,-9.65,-1.21,2.24,0.78,-0.43,1.18
7.457720041275024,2,3,3,3,-9.619999999999999,-1.1,2.33,0.9,-0.49,1.13
7.467720031738281,2,3,3,3,-9.529999999999999,-1.07,2.43,0.83,-0.59,0.95
7.477720022201538,2,3,3,3,-9.460000000000001,-1.04,2.36,0.73,-0.52,0.62
7.487720012664795,2,3,3,3,-9.5,-1.01,2.29,0.63,-0.27,0.31
7.497720003128052,2,3,3,3,-9.51,-1.05,2.39,0.67,0.08,0.03
7.517719984054565,2,3,3,3,-9.58,-0.98,2.54,0.72,0.86,-0.37
7.527719974517822,2,3,3,3,-9.619999999999999,-0.86,2.47,0.95,0.92,-0.59
7.537719964981079,2,3,3,3,-9.59,-0.71,2.42,1.31,0.77,-0.76
7.577719926834106,2,3,3,3,-9.369999999999999,-0.57,2.86,1.33,-0.12,-0.85
7.587719917297363,2,3,3,3,-9.279999999999999,-0.6899999999999999,2.74,1.23,-0.14,-0.6899999999999999
7.597720146179199,2,3,3,3,-9.25,-0.74,2.76,1.13,-0.19,-0.57
7.607720136642456,2,3,3,3,-9.210000000000001,-0.82,2.76,0.97,-0.14,-0.44
7.617720127105713,2,3,3,3,-9.24,-0.93,2.67,0.84,-0.06,-0.35
7.62772011756897,2,3,3,3,-9.279999999999999,-0.9,2.61,0.77,0.13,-0.32
7.637720108032227,2,3,3,3,-9.289999999999999,-0.88,2.46,0.77,0.42,-0.36
7.647720098495483,2,3,3,3,-9.35,-0.83,2.4,0.82,0.7,-0.4
7.658720016479492,2,3,3,3,-9.539999999999999,-0.79,2.59,1.09,0.79,-0.47
7.668720006942749,2,3,3,3,-9.56,-0.78,2.69,1.46,0.7,-0.53
7.678719997406006,2,3,3,3,-9.52,-0.76,2.67,1.77,0.44,-0.6
7.688719987869263,2,3,3,3,-9.359999999999999,-0.7,2.57,1.8,0.27,-0.72
7.69871997833252,2,3,3,3,-9.300000000000001,-0.67,2.67,1.74,0.44,-0.77
7.708719968795776,2,3,3,3,-9.220000000000001,-0.64,2.75,1.61,0.62,-0.76
7.718719959259033,2,3,3,3,-9.130000000000001,-0.61,2.71,1.19,0.73,-0.87
7.72871994972229,2,3,3,3,-9.130000000000001,-0.63,2.74,0.74,0.98,-0.98
7.738719940185547,2,3,3,3,-9.220000000000001,-0.85,2.39,0.33,1.21,-1.08
7.748719930648804,2,3,3,3,-9.25,-1,2.19,-0.24,1.32,-1.3
7.758719921112061,2,3,3,3,-9.26,-1.14,2.11,-0.55,1.66,-1.58
7.768720149993896,2,3,3,3,-9.31,-1.22,2.12,-0.48,1.93,-1.97
7.778720140457153,2,3,3,3,-9.220000000000001,-1.46,1.97,-0.37,1.96,-2.29
7.78872013092041,2,3,3,3,-9.16,-1.54,1.94,-0.14,1.92,-2.63
7.798720121383667,2,3,3,3,-9.1,-1.67,2.11,0.19,1.85,-2.85
7.808720111846924,2,3,3,3,-8.859999999999999,-1.89,2.17,0.42,1.76,-3.05
7.818720102310181,2,3,3,3,-8.710000000000001,-1.96,2.04,0.28,1.69,-3.27
7.828720092773438,2,3,3,3,-8.5,-2,1.91,0.05,1.83,-3.54
7.838720083236694,2,3,3,3,-8.279999999999999,-1.99,1.58,-0.13,2.15,-3.86
7.848720073699951,2,3,3,3,-7.85,-2.04,1.48,-0.46,2.38,-4.17
7.858720064163208,2,3,3,3,-7.63,-2.1,1.44,-0.72,2.44,-4.5
7.868720054626465,2,3,3,3,-7.39,-2.15,1.29,-1.06,2.27,-4.89
7.878720045089722,2,3,3,3,-7.06,-2.12,1.02,-1.42,2.21,-5.39
7.888720035552979,2,3,3,3,-6.7,-1.89,0.7,-1.31,2.27,-5.77
7.898720026016235,2,3,3,3,-6.59,-1.86,0.9399999999999999,-0.77,2.01,-5.92
7.908720016479492,2,3,3,3,-6.46,-1.92,1.12,-0.4,1.26,-6.05
7.918720006942749,2,3,3,3,-6.29,-2.01,1.24,-0.5,0.25,-6.19
7.928719997406006,2,3,3,3,-5.96,-2,1.12,-1.34,-0.59,-6.6
7.938719987869263,2,3,3,3,-5.83,-1.79,0.68,-2.37,-1.13,-7.21
7.94871997833252,2,3,3,3,-5.72,-1.5,0.21,-3,-1.41,-7.99
7.958719968795776,2,3,3,3,-5.48,-1.14,-0.18,-2.8,-1.48,-8.539999999999999
7.968719959259033,2,3,3,3,-4.8,-0.91,1.05,-2.42,-1.21,-8.859999999999999
7.97871994972229,2,3,3,3,-4.8,-1.23,1.73,-2.49,-1.1,-8.640000000000001
7.988719940185547,2,3,3,3,-4.96,-1.61,1.39,-3.15,-2.27,-8.109999999999999
7.998719930648804,2,3,3,3,-5.01,-1.87,0.21,-3.93,-3.61,-7.57
8.008719921112061,2,3,3,3,-5.12,-1.63,0.74,-3.62,-3.2,-6.83
8.018720149993896,2,3,3,3,-5.77,-1.67,1.96,-1.87,-1.72,-5.93
8.028720140457153,2,3,3,3,-6.94,-1.86,2.95,-0.05,-2.46,-4.84
8.03872013092041,2,3,3,3,-8.31,-2.21,2.99,0.36,-5.03,-4.11
8.058720111846924,2,3,3,3,-9.07,-1.98,2.73,-1,-5.3,-4.08
8.068720102310181,2,3,3,3,-9.65,-1.51,3.56,-1.53,-3.92,-4.64
8.078720092773438,2,3,3,3,-10.9,-0.44,5.21,-1.84,-3.99,-4.56
8.088720083236694,2,3,3,3,-10.91,0.04,5.23,-2.52,-5.38,-3.33
8.098720073699951,2,3,3,3,-10.69,0,5.18,-4.04,-6.34,-1.27
8.108720064163208,2,3,3,3,-10.54,-1,4.38,-4.74,-6.26,-0.04
8.118720054626465,2,3,3,3,-11.25,-2.49,3.57,-3.19,-3.52,0.27
8.128720045089722,2,3,3,3,-12.26,-2.78,3.96,-0.86,-1.8,0.79
8.138720035552979,2,3,3,3,-13.11,-3.08,4.53,0.33,-3.08,1.7
8.148720026016235,2,3,3,3,-14.28,-3.54,5.6,0.52,-5.48,3.03
8.158720016479492,2,3,3,3,-14.91,-3.37,6.01,0.7,-6.57,3.91
8.168720006942749,2,3,3,3,-15.81,-3.07,6.34,0.97,-5.15,4.31
8.178719997406006,2,3,3,3,-16.89,-2.69,6.49,1.87,-2.26,3.92
8.188719987869263,2,3,3,3,-18.13,-1.43,6.14,3.37,0.44,2.63
8.19871997833252,2,3,3,3,-18.54,-1.06,6.37,4.14,2.38,1.46
8.208719968795776,2,3,3,3,-18.63,-0.96,6.98,3.71,2.22,0.96
8.218719959259033,2,3,3,3,-18.61,-1.14,7.59,1.81,0.66,0.92
8.22871994972229,2,3,3,3,-19.19,-1.53,8.07,-1.35,-0.11,0.75
8.238719940185547,2,3,3,3,-19.89,-1.73,7.65,-4.69,1.04,0.29
8.248719930648804,2,3,3,3,-20.66,-2.13,7.23,-6.6,3.32,-0.24
8.258719921112061,2,3,3,3,-21.19,-2.45,6.64,-7.03,4.71,-0.99
8.268720149993896,2,3,3,3,-21.45,-3.48,6.2,-6.67,4.83,-1.23
8.278720140457153,2,3,3,3,-21.32,-3.52,6.48,-5.44,4.05,-0.64
8.28872013092041,2,3,3,3,-20.91,-3.22,6.87,-4.05,2.82,0.82
8.298720121383667,2,3,3,3,-20.43,-3,7.47,-2.12,2.79,3.28
8.308720111846924,2,3,3,3,-20.08,-2.49,8.15,-0.19,3.55,6
8.318720102310181,2,3,3,3,-20.28,-2.23,7.96,1.67,4.85,8.359999999999999
8.328720092773438,2,3,3,3,-20.46,-1.86,7.04,3.35,6.18,10.22
8.338720083236694,2,3,3,3,-20.11,-1.13,6.34,3.39,7.58,11.36
8.348720073699951,2,3,3,3,-20.12,-1.07,6.4,3.25,9.800000000000001,12.58
8.358720064163208,2,3,3,3,-19.9,-1.05,5.81,2.47,12.37,13.48
8.368720054626465,2,3,3,3,-19.48,-1.58,5.26,0.5,15.21,13.61
8.378720045089722,2,3,3,3,-17.88,-4.86,4.12,-0.92,14.59,12.48
8.388720035552979,2,3,3,3,-15.66,-6.72,1.81,-1.34,10.94,8.77
8.398720026016235,2,3,3,3,-13.05,-9,-0.68,-1.94,9.279999999999999,4.1
8.408720016479492,2,3,3,3,-10.44,-7.95,-2.13,2.18,9.359999999999999,0.91
8.418720006942749,2,3,3,3,-3.44,-3.5,-2.13,3.24,7.76,-0.86
8.428719997406006,2,3,3,3,-0.37,-2.97,-2.04,-2.47,4.89,-1.94
8.438719987869263,2,3,3,3,2.44,-4.74,-2.86,-14.13,-0.98,-5.33
8.44871997833252,2,3,3,3,4.06,-7.1,-3.95,-24.9,-5.31,-10.67
8.458719968795776,2,3,3,3,1.03,-11.26,-9.41,-30.76,-4.05,-13.96
8.468719959259033,2,3,3,3,-1.53,-11.32,-10.83,-28.33,-1.63,-12.94
8.47871994972229,2,3,3,3,-1.22,-11.3,-9.66,-17.12,-5.1,-9.82
8.488719940185547,2,3,3,3,0.93,-10.81,-5.98,-1.56,-9.67,-7.37
8.498719930648804,2,3,3,3,4.56,-7.54,0.34,10.55,-9.65,-3.98
8.508719921112061,2,3,3,3,5.51,-4.27,1.29,17.38,-5.57,1.08
8.518720149993896,2,3,3,3,5.58,-0.31,1.47,21.43,0.84,5.06
8.528720140457153,2,3,3,3,5.18,5.5,1.5,20.95,2.83,7.89
8.53872013092041,2,3,3,3,5.16,6.14,1.41,16.9,0.21,9.859999999999999
8.548720121383667,2,3,3,3,4.39,5.7,1.35,12.53,-2.76,11.67
8.558720111846924,2,3,3,3,2.97,4.69,1.47,9.119999999999999,-4.11,12.02
8.568720102310181,2,3,3,3,-0.18,2.91,1.72,6.6,-3.94,11.21
8.578720092773438,2,3,3,3,-1.42,1.87,1.46,3.32,-4.06,9.49
8.588720083236694,2,3,3,3,-2.51,0.92,1.1,-0.1,-3.7,7.46
8.598720073699951,2,3,3,3,-3.07,0.92,0.77,-1.69,-1.48,6.1
8.608720064163208,2,3,3,3,-3,0.85,-0.52,-2.87,1.32,5.44
8.628720045089722,2,3,3,3,-2.51,0.55,-1.07,-2.29,4.88,2.59
8.638720035552979,2,3,3,3,-2.1,0.33,-1.27,-1.44,5.38,-0.01
8.648720026016235,2,3,3,3,-2.21,0.39,-0.9,-0.48,4.84,-2.98
8.658720016479492,2,3,3,3,-2.39,0.6899999999999999,-0.66,0.87,3.38,-5.81
8.668720006942749,2,3,3,3,-2.36,0.82,-0.89,1.57,1.73,-7.65
8.679719924926758,2,3,3,3,-2,0.89,-1.09,2.16,1.33,-8.23
8.689719915390015,2,3,3,3,-1.01,0.48,-0.08,3.13,0.98,-8.69
8.699720144271851,2,3,3,3,-0.18,0.06,0.2,3.05,-1.05,-9.43
8.709720134735107,2,3,3,3,0.63,-0.07000000000000001,-0.03,2.16,-3.21,-9.82
8.719720125198364,2,3,3,3,1.47,0.22,-0.62,1.01,-3.25,-9.380000000000001
8.729720115661621,2,3,3,3,1.51,0.67,-0.73,0.43,-1.95,-7.89
8.739720106124878,2,3,3,3,1.57,1.16,-0.61,0.24,-1.75,-5.84
8.749720096588135,2,3,3,3,1.86,1.61,-0.48,-0.14,-2.69,-3.63
8.759720087051392,2,3,3,3,1.66,1.71,0,-1.04,-3.23,-1.17
8.769720077514648,2,3,3,3,0.97,1.45,0.42,-1.62,-3.64,1.22
8.779720067977905,2,3,3,3,0,1,1.07,-1.32,-5.29,3.15
8.789720058441162,2,3,3,3,-0.21,0.42,1.8,-0.49,-8.4,4.35
8.799720048904419,2,3,3,3,-0.14,-1.48,1.48,0.03,-9.890000000000001,5.26
8.809720039367676,2,3,3,3,-0.88,-2.52,3.07,0.53,-11.17,6.49
8.819720029830933,2,3,3,2,-1.3,-4.52,4.67,-0.02,-13,8.220000000000001
8.829720020294189,2,3,3,2,-0.84,-7.96,4.94,-4.05,-13.31,10.7
8.839720010757446,2,3,3,2,-2.89,-12.24,0.99,-6.22,-9.949999999999999,14.29
8.849720001220703,2,3,3,2,-8.710000000000001,-10.14,1.97,-5.71,1.75,18.11
8.85971999168396,2,3,3,2,-20.96,-8.81,3.29,-0.49,19.01,22.47
8.869719982147217,2,3,3,2,-39.11,-12.72,-0.43,15.2,4.26,26.15
8.879719972610474,2,3,3,2,-39.06,-8.4,-14.52,31.83,-9.279999999999999,24.49
8.88971996307373,2,3,3,2,-36.53,17.22,-1.15,43.16,26.89,-16.2
8.899719953536987,2,3,3,2,-21.48,27.29,15.14,41.24,-12.73,-25.31
8.909719944000244,2,3,3,2,-7.97,6.01,19.41,12.03,-23.22,-2.17
8.919719934463501,2,3,3,2,-7.97,5.02,13.82,-6.61,-11.96,15.43
8.929719924926758,2,3,3,2,-11.55,5.73,11.72,-9.359999999999999,-5.51,20.75
8.939719915390015,2,3,3,2,-15.49,6.14,11.01,-13.83,-2.65,16.87
8.949720144271851,2,3,3,2,-24.48,5.91,6.76,-22.93,5.33,9.35
8.959720134735107,2,3,3,2,-30.25,3.65,0.47,-24.38,20.64,0.25
8.969720125198364,2,3,3,2,-31.48,0.05,-3.55,-14.89,24.37,-9.4
8.979720115661621,2,3,3,2,-26.29,-2.45,-1.12,-4.64,7.41,-12.98
8.989720106124878,2,3,3,2,-12.88,-5.65,4.65,-3.61,-10.02,-11.89
8.999720096588135,2,3,3,2,-10.24,-5.4,4.5,-2.64,-12.96,-10.01
9.009720087051392,2,3,3,2,-10.3,-3.95,4.32,0.44,-3.68,-8.1
9.019720077514648,2,3,3,2,-10.3,-3.95,4.32,1.91,7.31,-6.46
9.029720067977905,2,3,3,2,-12.16,-1.78,4.69,1.51,9.32,-5.01
9.039720058441162,2,3,3,2,-13.44,-0.58,2.93,0.38,4.56,-3.1
9.049720048904419,2,3,3,2,-12,-0.76,2.03,-1.04,-0.36,-1.3
9.059720039367676,2,3,3,2,-7.23,-0.55,0.59,-2.86,-2.53,0.64
9.069720029830933,2,3,3,2,-7.23,-0.55,0.59,-4.39,-1.68,1.92
9.079720020294189,2,3,3,2,-4.7,-0.79,0.61,-5.01,0.61,1.82
9.089720010757446,2,3,3,2,-3.33,-1.19,0.6899999999999999,-5.57,2.13,1.08
9.099720001220703,2,3,3,2,-4.74,-1.85,1.04,-5.49,1.68,0.13
9.10971999168396,2,3,3,2,-5.51,-1.81,1.23,-4.3,-0.09,-1.28
9.119719982147217,2,3,3,2,-5.51,-1.81,1.23,-4.3,-0.09,-1.28
9.129719972610474,2,3,3,2,-5.94,-1.68,1.56,-2.47,-2.86,-4.43
9.13971996307373,2,3,3,2,-3.58,-2.52,0.26,-2.84,-3.25,-5.86
9.149719953536987,2,3,3,2,-2.32,-2.66,-0.01,-2.21,-1.64,-6.81
9.159719944000244,2,3,3,2,-1.37,-2.8,-0.04,-0.63,1.45,-6.96
9.169719934463501,2,3,3,2,-1.37,-2.8,-0.04,-0.63,1.45,-6.96
9.179719924926758,2,3,3,2,-0.96,-2.89,-0.09,1.36,4.58,-6.27
9.189719915390015,2,3,3,2,-4.14,-3.47,1.14,4.66,6.79,-3.47
9.199720144271851,2,3,3,2,-6.13,-3.46,1.39,5.7,4.1,-1.76
9.209720134735107,2,3,3,2,-7.77,-3.19,1.43,6.32,0.58,-0.1
9.219720125198364,2,3,3,2,-7.77,-3.19,1.43,6.32,0.58,-0.1
9.229720115661621,2,3,3,2,-9.220000000000001,-2.87,0.89,7.98,-2.78,2.22
9.239720106124878,2,3,3,2,-11.02,-2.6,2.02,9.779999999999999,-2.96,2.59
9.249720096588135,2,3,3,2,-12,-2.06,2.6,10.45,-4.71,2.69
9.259720087051392,2,3,3,2,-11.94,-1.27,2.36,10.44,-5.19,3.17
9.269720077514648,2,3,3,2,-11.94,-1.27,2.36,10.44,-5.19,3.17
9.279720067977905,2,3,3,2,-11.1,-0.13,2.17,10.17,-3.33,3.74
9.289720058441162,2,3,3,2,-10.42,1.92,4,8.390000000000001,-2.9,2.86
9.299720048904419,2,3,3,2,-10.48,2.05,4.22,6.2,-4.05,1.95
9.319720029830933,2,3,3,2,-10.37,1.79,4.2,3.92,-4.04,1.01
9.329720020294189,2,3,3,2,-9.92,1.17,4.07,1.65,-2.39,0.45
9.339720010757446,2,3,3,2,-9.029999999999999,-0.06,3.13,-0.84,1.58,-0.98
9.349720001220703,2,3,3,2,-8.82,0.19,3.13,-1.61,2.9,-1.64
9.35971999168396,2,3,3,2,-8.58,0.45,2.96,-2.68,4.03,-2.13
9.369719982147217,2,3,3,3,-8.58,0.45,2.96,-2.68,4.03,-2.13
9.379719972610474,2,3,3,3,-8.01,0.23,2.82,-3.61,4.69,-2.63
9.38971996307373,2,3,3,3,-7.74,-1.2,2.07,-4.11,4.66,-3.11
9.399719953536987,2,3,3,3,-7.91,-1.8,1.72,-3.4,4.8,-2.99
9.409719944000244,2,3,3,3,-8.609999999999999,-2.73,1.42,-2.22,4.58,-2.68
9.419719934463501,2,3,3,3,-8.609999999999999,-2.73,1.42,-2.22,4.58,-2.68
9.429719924926758,2,3,3,3,-8.85,-3.04,1.37,-1.28,3.89,-2.21
9.439719915390015,2,3,3,3,-9.58,-2.96,1.38,0,2.48,-1.39
9.449720144271851,2,3,3,3,-9.58,-2.96,1.38,0.83,2.28,-1.09
9.459720134735107,2,3,3,3,-9.970000000000001,-2.74,1.69,1.9,2.44,-0.78
9.469720125198364,2,3,3,3,-10.45,-2.49,1.96,1.9,2.44,-0.78
9.479720115661621,2,3,3,3,-10.91,-2.25,2.17,2.75,2.14,-0.51
9.489720106124878,2,3,3,3,-11.15,-1.48,2.05,4.53,0.24,-0.25
9.499720096588135,2,3,3,3,-10.92,-1.09,2.14,5.31,-0.57,-0.27
9.509720087051392,2,3,3,3,-10.47,-0.66,2.39,5.5,-1.29,-0.3
9.519720077514648,2,3,3,3,-9.880000000000001,-0.42,2.65,5.5,-1.29,-0.3
9.529720067977905,2,3,3,3,-8.81,-0.31,2.75,5.12,-1.49,-0.15
9.539720058441162,2,3,3,3,-8.369999999999999,-0.33,2.6,2.44,-0.43,0.78
9.549720048904419,2,3,3,3,-8.220000000000001,-0.44,2.46,1.3,0.25,1.26
9.559720039367676,2,3,3,3,-8.23,-0.59,2.32,0.43,0.61,1.54
9.569720029830933,2,3,3,3,-8.65,-0.92,2.1,0.43,0.61,1.54
9.579720020294189,2,3,3,3,-8.970000000000001,-1.1,1.94,-0.2,0.79,1.67
9.589720010757446,2,3,3,3,-9.300000000000001,-1.23,1.82,-0.53,0.18,1.38
9.599720001220703,2,3,3,3,-9.550000000000001,-1.28,1.74,-0.52,-0.12,0.92
9.60971999168396,2,3,3,3,-10,-1.14,1.87,-0.58,-0.41,0.26
9.619719982147217,2,3,3,3,-10.05,-1.04,1.9,-0.58,-0.41,0.26
9.629719972610474,2,3,3,3,-9.92,-0.96,1.95,-0.5,-0.47,-0.44
9.63971996307373,2,3,3,3,-9.51,-1.07,2.07,-0.64,-0.25,-1.3
9.649719953536987,2,3,3,3,-9.4,-1.24,2.14,-0.8,-0.28,-1.39
9.659719944000244,2,3,3,3,-9.34,-1.37,2.12,-0.8,-0.24,-1.21
9.669719934463501,2,3,3,3,-9.359999999999999,-1.46,2.02,-0.8,-0.24,-1.21
9.679719924926758,2,3,3,3,-9.48,-1.51,1.97,-0.68,-0.23,-0.87
9.689719915390015,2,3,3,3,-9.48,-1.46,1.9,-0.53,-0.47,0.05
9.699720144271851,2,3,3,3,-9.51,-1.44,1.8,-0.58,-0.5,0.5
9.710720062255859,2,3,3,3,-9.619999999999999,-1.41,1.95,-0.74,-0.59,0.9
9.720720052719116,2,3,3,3,-9.630000000000001,-1.27,2.01,-0.74,-0.59,0.9
9.730720043182373,2,3,3,3,-9.619999999999999,-1.31,2.03,-1.01,-0.49,1.22
9.74072003364563,2,3,3,3,-9.57,-1.4,2.07,-1.09,-0.3,1.46
9.750720024108887,2,3,3,3,-9.52,-1.37,2.02,-1.08,-0.3,1.46
9.760720014572144,2,3,3,3,-9.369999999999999,-1.49,1.99,-1.13,-0.11,1.47
9.7707200050354,2,3,3,3,-9.4,-1.62,1.96,-1.13,-0.11,1.47
9.780719995498657,2,3,3,3,-9.470000000000001,-1.67,2,-0.96,0.11,1.45
9.790719985961914,2,3,3,3,-9.529999999999999,-1.7,2.03,-0.42,0.15,1.35
9.800719976425171,2,3,3,3,-9.59,-1.73,1.83,-0.24,0.22,1.15
9.810719966888428,2,3,3,3,-9.630000000000001,-1.67,1.88,0,0.14,0.88
9.820719957351685,2,3,3,3,-9.68,-1.58,1.96,0,0.14,0.88
9.830719947814941,2,3,3,3,-9.56,-1.33,1.96,0.1,-0.14,0.47
9.840719938278198,2,3,3,3,-9.5,-1.29,2,0.2,-0.36,-0.01
9.850719928741455,2,3,3,3,-9.380000000000001,-1.28,2.01,0.22,-0.34,-0.06
9.860719919204712,2,3,3,3,-9.26,-1.32,2.11,0.16,-0.08,-0.03
9.870720148086548,2,3,3,3,-9.32,-1.48,2.07,0.16,-0.08,-0.03
9.880720138549805,2,3,3,3,-9.43,-1.49,2.07,0.23,0.19,0.04
9.890720129013062,2,3,3,3,-9.5,-1.48,2.09,0.66,0.1,0.18
9.900720119476318,2,3,3,3,-9.539999999999999,-1.44,2.1,0.85,-0.15,0.16
9.910720109939575,2,3,3,3,-9.470000000000001,-1.4,2.34,0.86,-0.28,0.13
9.920720100402832,2,3,3,3,-9.380000000000001,-1.43,2.37,0.86,-0.28,0.13
9.930720090866089,2,3,3,3,-9.300000000000001,-1.48,2.36,0.72,-0.28,0.14
9.940720081329346,2,3,3,3,-9.220000000000001,-1.66,2.18,0.45,0.03,0.17
9.950720071792603,2,3,3,3,-9.93,-1.68,2.18,0.91,0.36,0.33
9.960720062255859,2,3,3,3,-10.08,-1.45,2.26,0.99,-0.12,0.31
9.970720052719116,2,3,3,3,-9.94,-1.25,2.04,0.99,-0.12,0.31
9.980720043182373,2,3,3,3,-9.52,-0.88,2.27,1.11,0.07000000000000001,0.29
9.99072003364563,2,3,3,3,-9.34,-0.88,2.4,0.73,-0.09,0.3
10.00072002410889,2,3,3,3,-9.300000000000001,-0.96,2.41,0.33,-0.18,0.26
10.01072001457214,2,3,3,3,-9.4,-1.03,2.46,0.03,-0.14,0.28
10.0207200050354,2,3,3,3,-9.619999999999999,-1.11,2.25,0.03,-0.14,0.28
10.03071999549866,2,3,3,3,-9.59,-1.13,2.33,-0.2,-0.3,0.3
10.04071998596191,2,3,3,3,-9.41,-1.14,2.31,-0.8100000000000001,-0.55,0.3
10.05071997642517,2,3,3,3,-9.300000000000001,-1.2,2.11,-0.6,-0.29,0.48
10.06071996688843,2,3,3,3,-9.699999999999999,-1.18,2.21,0.05,-0.53,0.6
10.07071995735168,2,3,3,3,-9.710000000000001,-1.1,2.19,0.05,-0.53,0.6
10.08071994781494,2,3,3,3,-9.6,-1.11,2.25,0.34,-0.96,0.67
10.0907199382782,2,3,3,3,-9.48,-1.16,2.27,0.51,-1.04,0.61
10.10071992874146,2,3,3,3,-9.380000000000001,-1.04,2.27,0.53,-0.79,0.33
10.11071991920471,2,3,3,3,-9.380000000000001,-0.99,2.46,0.55,-0.5600000000000001,0.24
10.12072014808655,2,3,3,3,-9.51,-0.92,2.54,0.55,-0.5600000000000001,0.24
10.1307201385498,2,3,3,3,-9.630000000000001,-0.82,2.6,0.86,-0.7,0.26
10.14072012901306,2,3,3,3,-9.390000000000001,-0.77,2.26,-0.03,-0.97,0.12
10.15072011947632,2,3,3,3,-9.289999999999999,-0.85,2.01,-0.39,-0.44,0.03
10.16072010993958,2,3,3,3,-9.33,-0.92,2.09,-0.37,-0.07000000000000001,0.03
10.17072010040283,2,3,3,3,-9.48,-1.01,2.21,-0.37,-0.07000000000000001,0.03
10.18072009086609,2,3,3,3,-9.48,-1.04,2.25,-0.35,-0.02,0.1
10.19072008132935,2,3,3,3,-9.529999999999999,-1.07,2.21,-0.38,-0.15,0.18
10.2007200717926,2,3,3,3,-9.57,-1.1,2.13,-0.34,-0.37,0.16
10.21072006225586,2,3,3,3,-9.52,-1.08,2.21,-0.45,-0.45,0.14
10.22072005271912,2,3,3,3,-9.49,-1.09,2.24,-0.45,-0.45,0.14
10.23072004318237,2,3,3,3,-9.5,-1.1,2.24,-0.5600000000000001,-0.38,0.12
10.24072003364563,2,3,3,3,-9.529999999999999,-1.07,2.31,-0.6,-0.23,0.13
10.25072002410889,2,3,3,3,-9.550000000000001,-1.08,2.29,-0.3,-0.19,0.17
10.26072001457214,2,3,3,3,-9.56,-1.02,2.35,-0.28,-0.43,0.14
10.2707200050354,2,3,3,3,-9.52,-1.02,2.2,-0.28,-0.43,0.14
10.28071999549866,2,3,3,3,-9.44,-1.01,2.12,-0.45,-0.5,0.07000000000000001
10.29071998596191,2,3,3,3,-9.43,-1.02,2.2,-0.23,-0.38,0.01
10.30071997642517,2,3,3,3,-9.369999999999999,-1.01,2.13,-0.21,-0.16,0.02
10.31071996688843,2,3,3,3,-9.359999999999999,-0.98,2.21,-0.18,-0.01,0.06
10.32071995735168,2,3,3,3,-9.390000000000001,-0.96,2.31,-0.18,-0.01,0.06
10.33071994781494,2,3,3,3,-9.48,-0.99,2.4,-0.22,0.04,0.13
10.3407199382782,2,3,3,3,-9.539999999999999,-1.02,2.31,-0.43,0.06,0.22
10.35071992874146,2,3,3,3,-9.6,-1,2.19,-0.55,0.17,0.3
10.36071991920471,2,3,3,3,-9.609999999999999,-0.86,2.34,-0.37,0.19,0.26
10.37072014808655,2,3,3,3,-9.470000000000001,-0.79,2.27,-0.26,0.03,0.21
10.3807201385498,2,3,3,3,-9.359999999999999,-0.8100000000000001,2.31,-0.32,0.01,0.14
10.39072012901306,2,3,3,3,-9.359999999999999,-0.87,2.36,-0.45,0.13,0.06
10.40072011947632,2,3,3,3,-9.43,-1,2.26,-0.61,0.23,0
10.41072010993958,2,3,3,3,-9.5,-1.03,2.23,-0.61,0.23,0
10.42072010040283,2,3,3,3,-9.59,-1.01,2.31,-0.67,0.31,0.03
10.43072009086609,2,3,3,3,-9.630000000000001,-1.01,2.24,-0.58,0.22,0.05
10.44072008132935,2,3,3,3,-9.52,-1.05,2.16,-0.68,0.12,0.08
10.4507200717926,2,3,3,3,-9.5,-1.06,2.21,-0.59,0.19,0.1
10.46072006225586,2,3,3,3,-9.49,-1.04,2.19,-0.46,0.16,0.07000000000000001
10.47072005271912,2,3,3,3,-9.51,-1.04,2.27,-0.44,0.05,0.04
10.48072004318237,2,3,3,3,-9.41,-1.06,2.27,-0.33,0.01,0
10.49072003364563,2,3,3,3,-9.4,-1.05,2.25,-0.4,0.04,-0.05
10.50072002410889,2,3,3,3,-9.460000000000001,-1.06,2.21,-0.44,0.1,-0.01
10.51072001457214,2,3,3,3,-9.470000000000001,-1.03,2.17,-0.46,0.14,0
10.5207200050354,2,3,3,3,-9.460000000000001,-1.04,2.37,-0.5600000000000001,0.25,0.02
10.53071999549866,2,3,3,3,-9.449999999999999,-1.08,2.45,-0.46,0.39,0.01
10.54071998596191,2,3,3,3,-9.49,-1.06,2.3,-0.48,0.38,-0.02
10.55071997642517,2,3,3,3,-9.640000000000001,-1.01,2.18,-0.58,0.36,-0.04
10.56071996688843,2,3,3,3,-9.619999999999999,-0.98,2.23,-0.46,0.32,-0.1
10.57071995735168,2,3,3,3,-9.52,-0.95,2.28,-0.31,0.27,-0.18
10.58172011375427,2,3,3,3,-9.42,-0.91,2.29,-0.33,0.25,-0.22
10.5907199382782,2,3,3,3,-9.369999999999999,-0.9399999999999999,2.23,-0.36,0.35,-0.29
10.60071992874146,2,3,3,3,-9.43,-0.98,2.24,-0.31,0.46,-0.31
10.61071991920471,2,3,3,3,-9.5,-0.97,2.3,-0.2,0.52,-0.36
10.64072012901306,2,3,3,3,-9.529999999999999,-1,2.23,-0.29,0.36,-0.32
10.65072011947632,2,3,3,3,-9.529999999999999,-1.05,2.18,-0.27,0.43,-0.38
10.66072010993958,2,3,3,3,-9.52,-1.08,2.17,-0.17,0.41,-0.34
10.67072010040283,2,3,3,3,-9.449999999999999,-1.19,2.28,-0.15,0.38,-0.34
10.68072009086609,2,3,3,3,-9.460000000000001,-1.17,2.27,-0.05,0.29,-0.34
10.69072008132935,2,3,3,3,-9.44,-1.16,2.21,-0.04,0.19,-0.33
10.7007200717926,2,3,3,3,-9.43,-1.15,2.07,-0.04,0.03,-0.28
10.71072006225586,2,3,3,3,-9.529999999999999,-1.14,2.17,-0.03,0.08,-0.17
10.72072005271912,2,3,3,3,-9.51,-1.1,2.21,0.13,0.04,-0.12
10.73171997070312,2,3,3,3,-9.470000000000001,-1.11,2.26,0.17,0.01,-0.06
10.74171996116638,2,3,3,3,-9.449999999999999,-1.11,2.14,0.07000000000000001,0.01,0.01
10.75171995162964,2,3,3,3,-9.449999999999999,-1.12,2.06,0.02,0.06,0.01
10.7617199420929,2,3,3,3,-9.48,-1.13,2.13,0.03,0.11,0.02
10.77171993255615,2,3,3,3,-9.48,-1.17,2.16,0.05,0.05,0.08
10.78171992301941,2,3,3,3,-9.529999999999999,-1.17,2.19,0.09,0.02,0.12
10.79171991348267,2,3,3,3,-9.550000000000001,-1.16,2.23,0.26,0,0.19
10.8017201423645,2,3,3,3,-9.56,-1.13,2.15,0.39,-0.09,0.19
10.81172013282776,2,3,3,3,-9.529999999999999,-1.1,2.18,0.41,-0.01,0.1
10.82172012329102,2,3,3,3,-9.49,-1.06,2.26,0.38,0.08,0.05
10.83172011375427,2,3,3,3,-9.529999999999999,-1.01,2.3,0.26,0.2,-0.03
10.84172010421753,2,3,3,3,-9.539999999999999,-1.03,2.31,0.19,0.16,-0.1
10.85172009468079,2,3,3,3,-9.51,-1.06,2.16,0.18,0.09,-0.14
10.86172008514404,2,3,3,3,-9.460000000000001,-1.09,2.13,0.24,0.13,-0.11
10.8717200756073,2,3,3,3,-9.41,-1.1,2.15,0.19,0.08,-0.11
10.88172006607056,2,3,3,3,-9.449999999999999,-1.11,2.18,0.21,0,-0.07000000000000001
10.89172005653381,2,3,3,3,-9.449999999999999,-1.11,2.21,0.29,0,-0.04
10.90172004699707,2,3,3,3,-9.5,-1.11,2.13,0.31,-0.01,-0.07000000000000001
10.91172003746033,2,3,3,3,-9.539999999999999,-1.1,2.14,0.31,0,-0.05
10.92172002792358,2,3,3,3,-9.539999999999999,-1.08,2.18,0.27,-0.03,-0.08
10.93172001838684,2,3,3,3,-9.49,-1.07,2.2,0.21,0,-0.03
10.9417200088501,2,3,3,3,-9.49,-1.1,2.22,0.12,0.07000000000000001,-0.05
10.95171999931335,2,3,3,3,-9.5,-1.07,2.11,0.09,0.09,-0.07000000000000001
10.96171998977661,2,3,3,3,-9.5,-1.09,2.09,0.03,0.1,-0.09
10.97171998023987,2,3,3,3,-9.52,-1.11,2.16,0.01,0.14,-0.09
10.98171997070312,2,3,3,3,-9.470000000000001,-1.1,2.2,0.04,0.12,-0.08
10.99171996116638,2,3,3,3,-9.49,-1.08,2.17,0.11,0.03,-0.07000000000000001
11.00171995162964,2,3,3,3,-9.49,-1.09,2.09,0.09,-0.06,-0.03
11.0117199420929,2,3,3,3,-9.49,-1.11,2.16,0.06,-0.09,-0.02
11.02171993255615,2,3,3,3,-9.49,-1.1,2.18,0.03,-0.07000000000000001,0.02
11.03171992301941,2,3,3,3,-9.470000000000001,-1.11,2.22,-0.01,-0.04,0.05
11.04171991348267,2,3,3,3,-9.48,-1.1,2.21,-0.06,0,0.07000000000000001
11.0517201423645,2,3,3,3,-9.56,-1.09,2.1,-0.11,0,0.07000000000000001
11.06172013282776,2,3,3,3,-9.550000000000001,-1.1,2.11,-0.09,-0.03,0.04
11.07172012329102,2,3,3,3,-9.49,-1.12,2.1,-0.07000000000000001,-0.06,0.03
11.08172011375427,2,3,3,3,-9.44,-1.12,2.19,-0.07000000000000001,0,-0.01
11.09172010421753,2,3,3,3,-9.460000000000001,-1.12,2.15,-0.03,0.1,-0.01
11.10172009468079,2,3,3,3,-9.52,-1.1,2.12,-0.08,0.16,-0.06
11.11172008514404,2,3,3,3,-9.529999999999999,-1.09,2.18,0,0.09,-0.04
11.1217200756073,2,3,3,3,-9.49,-1.08,2.22,0.02,0.03,-0.04
11.13172006607056,2,3,3,3,-9.460000000000001,-1.07,2.24,-0.09,0.03,-0.04
11.14172005653381,2,3,3,3,-9.51,-1.06,2.21,-0.2,0.11,0
11.15172004699707,2,3,3,3,-9.52,-1,2.11,-0.27,0.12,-0.04
11.16172003746033,2,3,3,3,-9.52,-1.03,2.19,-0.3,0.11,-0.02
11.17172002792358,2,3,3,3,-9.51,-1.05,2.23,-0.28,0.1,-0.06
11.18172001838684,2,3,3,3,-9.5,-1.11,2.2,-0.34,0.05,-0.05
11.1917200088501,2,3,3,3,-9.49,-1.15,2.2,-0.37,0.08,-0.11
11.20171999931335,2,3,3,3,-9.470000000000001,-1.15,2.06,-0.37,0.08,-0.12
11.21171998977661,2,3,3,3,-9.5,-1.16,2.15,-0.39,0.07000000000000001,-0.14
11.22171998023987,2,3,3,3,-9.48,-1.15,2.14,-0.34,0.07000000000000001,-0.13
11.23171997070312,2,3,3,3,-9.48,-1.14,2.13,-0.32,0.14,-0.12
11.24171996116638,2,3,3,3,-9.539999999999999,-1.12,2.15,-0.3,0.19,-0.12
11.25171995162964,2,3,3,3,-9.550000000000001,-1.1,2.05,-0.24,0.13,-0.12
11.2617199420929,2,3,3,3,-9.529999999999999,-1.1,2.1,-0.2,0.08,-0.09
11.27171993255615,2,3,3,3,-9.49,-1.08,2.17,-0.16,0.06,-0.06
11.28171992301941,2,3,3,3,-9.44,-1.08,2.21,-0.16,0.05,-0.09
11.29171991348267,2,3,3,3,-9.44,-1.12,2.18,-0.23,0,-0.1
11.3017201423645,2,3,3,3,-9.449999999999999,-1.13,2.12,-0.22,0.05,-0.12
11.31172013282776,2,3,3,3,-9.51,-1.18,2.13,-0.19,0.07000000000000001,-0.12
11.32172012329102,2,3,3,3,-9.51,-1.17,2.13,-0.2,0.06,-0.08
11.33172011375427,2,3,3,3,-9.52,-1.17,2.17,-0.17,0,-0.07000000000000001
11.34172010421753,2,3,3,3,-9.49,-1.17,2.19,-0.13,0.02,-0.03
11.35172009468079,2,3,3,3,-9.5,-1.15,2.1,-0.08,0.05,-0.01
11.36172008514404,2,3,3,3,-9.52,-1.13,2.17,-0.06,0.07000000000000001,-0.04
11.3717200756073,2,3,3,3,-9.49,-1.13,2.19,-0.01,0.08,-0.1
11.38172006607056,2,3,3,3,-9.470000000000001,-1.14,2.23,-0.01,0.03,-0.09
11.39172005653381,2,3,3,3,-9.48,-1.11,2.18,-0.04,0.02,-0.12
11.40172004699707,2,3,3,3,-9.49,-1.13,2.11,-0.07000000000000001,-0.05,-0.09
11.41172003746033,2,3,3,3,-9.460000000000001,-1.11,2.14,-0.15,-0.03,-0.11
11.42172002792358,2,3,3,3,-9.5,-1.11,2.16,-0.2,-0.02,-0.1
11.43172001838684,2,3,3,3,-9.52,-1.12,2.21,-0.24,-0.03,-0.06
11.4417200088501,2,3,3,3,-9.51,-1.17,2.21,-0.26,-0.14,-0.04
11.45171999931335,2,3,3,3,-9.52,-1.17,2.1,-0.27,-0.19,-0.06
11.46171998977661,2,3,3,3,-9.51,-1.22,2.18,-0.22,-0.38,-0.04
11.47171998023987,2,3,3,3,-9.49,-1.22,2.19,-0.14,-0.5,-0.08
11.48171997070312,2,3,3,3,-9.49,-1.27,2.25,-0.04,-0.66,-0.1
11.49171996116638,2,3,3,3,-9.470000000000001,-1.23,2.22,0.04,-0.82,-0.07000000000000001
11.50171995162964,2,3,3,3,-9.56,-1.24,2.2,0.15,-0.95,-0.04
11.5117199420929,2,3,3,3,-9.640000000000001,-1.22,2.32,0.26,-1.09,0
11.52171993255615,2,3,3,3,-9.720000000000001,-1.23,2.4,0.37,-1.27,0.09
11.53171992301941,2,3,3,3,-9.710000000000001,-1.25,2.38,0.37,-1.5,0.21
11.57172012329102,2,3,3,3,-9.25,-1.26,2.29,0.24,-0.99,-0.22
11.58172011375427,2,3,3,3,-9.32,-1.27,2.31,0.11,-0.96,-0.3
11.59172010421753,2,3,3,3,-9.35,-1.22,2.38,0.12,-0.9399999999999999,-0.31
11.60172009468079,2,3,3,3,-9.289999999999999,-1.17,2.42,0.42,-0.77,-0.28
11.61172008514404,2,3,3,3,-9.19,-1.21,2.59,0.77,-0.53,-0.31
11.6217200756073,2,3,3,3,-9,-1.25,2.83,0.91,-0.25,-0.47
11.63172006607056,2,3,3,3,-8.970000000000001,-1.29,2.77,0.7,0,-0.59
11.64172005653381,2,3,3,3,-9.09,-1.31,2.74,0.3,0.31,-0.65
11.65172004699707,2,3,3,3,-9.56,-1.31,2.76,0.16,0.58,-0.67
11.66172003746033,2,3,3,3,-9.779999999999999,-1.23,2.84,0.31,0.79,-0.57
11.67172002792358,2,3,3,3,-9.85,-1.15,2.89,0.52,0.75,-0.5
11.68172001838684,2,3,3,3,-9.83,-1.13,2.83,0.7,0.59,-0.55
11.6917200088501,2,3,3,3,-9.52,-1.09,2.7,0.72,0.3,-0.77
11.70171999931335,2,3,3,3,-9.27,-1.11,2.66,0.61,0.08,-0.99
11.71171998977661,2,3,3,3,-9.08,-1.19,2.77,0.61,0.02,-1.18
11.7227201461792,2,3,3,3,-8.960000000000001,-1.3,2.93,0.62,0.16,-1.19
11.73171997070312,2,3,3,3,-8.869999999999999,-1.48,3.05,0.57,0.22,-1.04
11.74171996116638,2,3,3,3,-8.890000000000001,-1.52,2.99,0.42,0.35,-0.76
11.75272011756897,2,3,3,3,-9.01,-1.5,2.91,0.35,0.43,-0.42
11.76272010803223,2,3,3,3,-9.1,-1.49,2.97,0.49,0.26,-0.09
11.77272009849548,2,3,3,3,-9.25,-1.38,3.11,0.84,-0.13,0.14
11.78272008895874,2,3,3,3,-9.26,-1.31,3.2,1.29,-0.6899999999999999,0.24
11.792720079422,2,3,3,3,-9.210000000000001,-1.3,3.21,1.6,-1.23,0.31
11.80272006988525,2,3,3,3,-9.16,-1.26,3.1,1.65,-1.57,0.29
11.81272006034851,2,3,3,3,-9.07,-1.13,2.9,1.34,-1.64,0.25
11.82272005081177,2,3,3,3,-9.19,-1.11,3.04,1.05,-1.32,0.18
11.83272004127502,2,3,3,3,-9.31,-1.01,3.18,1.28,-1,0.14
11.84272003173828,2,3,3,3,-9.359999999999999,-0.97,3.4,1.24,-1.05,0.23
11.85272002220154,2,3,3,3,-9.35,-0.9,3.29,1.01,-1.13,0.26
11.86272001266479,2,3,3,3,-9.27,-0.95,3.3,0.45,-1.24,0.33
11.87272000312805,2,3,3,3,-9.279999999999999,-0.97,3.47,0.09,-1.22,0.34
11.88271999359131,2,3,3,3,-9.279999999999999,-1.07,3.51,-0.03,-1.37,0.37
11.89271998405457,2,3,3,3,-9.220000000000001,-1.12,3.34,-0.41,-1.63,0.28
11.90271997451782,2,3,3,3,-9.210000000000001,-1.17,3.02,-0.8,-1.71,0.33
11.91271996498108,2,3,3,3,-9.25,-1.33,2.85,-1.32,-1.5,0.4
11.92271995544434,2,3,3,3,-9.33,-1.27,2.92,-0.78,-1.56,0.42
11.93271994590759,2,3,3,3,-9.119999999999999,-1.22,2.72,-0.02,-1.88,0.4
11.94271993637085,2,3,3,3,-8.93,-1.3,2.7,0,-1.67,0.47
11.95271992683411,2,3,3,3,-9.050000000000001,-1.38,2.9,0.41,-1.07,0.55
11.96271991729736,2,3,3,3,-8.9,-1.35,2.69,0.71,-0.98,0.5600000000000001
11.9727201461792,2,3,3,3,-8.84,-1.27,2.74,0.96,-0.9399999999999999,0.59
11.98272013664246,2,3,3,3,-8.81,-1.12,2.71,1.48,-0.89,0.67
11.99272012710571,2,3,3,3,-8.640000000000001,-0.98,2.72,1.71,-0.77,0.7
12.00272011756897,2,3,3,3,-8.74,-1.04,2.65,1.42,-0.1,0.8100000000000001
12.01272010803223,2,3,3,3,-8.880000000000001,-1.02,2.69,1.16,0.68,1.01
12.02272009849548,2,3,3,3,-8.949999999999999,-1,2.41,0.8100000000000001,1.22,1.08
12.03272008895874,2,3,3,3,-9.25,-0.91,2.53,0.41,1.75,0.99
12.042720079422,2,3,3,3,-9.390000000000001,-0.93,2.2,0.33,2.18,0.82
12.05272006988525,2,3,3,3,-9.51,-0.82,1.84,0.1,2.48,0.72
12.06272006034851,2,3,3,3,-9.65,-0.68,1.67,-0.14,2.72,0.5
12.07272005081177,2,3,3,3,-9.82,-0.23,1.41,-0.5,2.8,0.31
12.08272004127502,2,3,3,3,-9.83,-0.01,1.34,-0.88,2.83,0.14
12.09272003173828,2,3,3,3,-9.800000000000001,0.11,1.54,-0.93,2.69,-0.16
12.10272002220154,2,3,3,3,-9.800000000000001,0.18,1.67,-0.85,2.27,-0.44
12.11272001266479,2,3,3,3,-9.880000000000001,0.07000000000000001,1.71,-0.88,2,-0.6
12.12272000312805,2,3,3,3,-9.960000000000001,0.02,1.84,-1.22,1.93,-0.64
12.13271999359131,2,3,3,3,-10.03,0.07000000000000001,1.91,-1.47,1.71,-0.58
12.14271998405457,2,3,3,3,-9.970000000000001,0.11,1.95,-1.61,1.55,-0.43
12.15271997451782,2,3,3,3,-9.65,-0.35,2.03,-1.84,1.59,-0.35
12.16271996498108,2,3,3,3,-9.43,-0.42,2.05,-2.05,1.43,-0.25
12.17271995544434,2,3,3,3,-9.48,-0.5,2.03,-1.98,2.1,-0.21
12.18271994590759,2,3,3,3,-9.65,-0.57,2.05,-2.13,2.78,-0.17
12.19271993637085,2,3,3,3,-9.85,-0.68,1.7,-2.45,2.97,-0.24
12.20271992683411,2,3,3,3,-9.94,-0.68,1.41,-2.51,3.36,-0.43
12.21271991729736,2,3,3,3,-9.970000000000001,-0.75,1.33,-2.29,3.72,-0.63
12.2227201461792,2,3,3,3,-10.01,-0.8,1.23,-1.89,3.96,-0.98
12.23272013664246,2,3,3,3,-10.12,-0.89,1.3,-1.48,4.33,-1.26
12.24272012710571,2,3,3,3,-10.13,-0.95,1.27,-0.5600000000000001,4.36,-1.5
12.25272011756897,2,3,3,3,-9.93,-1,0.97,0.18,3.93,-1.76
12.26272010803223,2,3,3,3,-9.49,-0.96,1.21,0.93,3.54,-1.9
12.27272009849548,2,3,3,3,-9.27,-1.07,1.35,1.95,3,-1.84
12.28272008895874,2,3,3,3,-9.109999999999999,-1.05,1.42,2.72,2.53,-1.61
12.292720079422,2,3,3,3,-9.1,-0.9399999999999999,1.47,3.18,2.5,-1.31
12.30272006988525,2,3,3,3,-9.279999999999999,-0.72,1.36,3.21,2.58,-0.98
12.31272006034851,2,3,3,3,-9.34,-0.55,1.43,2.98,2.58,-0.62
12.32272005081177,2,3,3,3,-9.390000000000001,-0.48,1.42,2.75,2.48,-0.24
12.33272004127502,2,3,3,3,-9.35,-0.4,1.37,2.41,2.32,-0.16
12.34272003173828,2,3,3,3,-9.57,-0.38,1.38,2.3,2.34,-0.33
12.35272002220154,2,3,3,3,-9.630000000000001,-0.36,1.3,2.41,2.4,-0.62
12.36272001266479,2,3,3,3,-9.73,-0.31,1.31,2.59,2.37,-0.97
12.37272000312805,2,3,3,3,-9.960000000000001,-0.19,1.57,2.87,2.22,-1.38
12.38271999359131,2,3,3,3,-10.01,-0.16,1.54,2.96,1.81,-1.74
12.39271998405457,2,3,3,3,-10.03,-0.14,1.52,2.79,1.38,-2.06
12.40271997451782,2,3,3,3,-10.02,-0.17,1.47,2.74,1.24,-2.28
12.41271996498108,2,3,3,3,-9.81,-0.22,1.5,2.87,1.21,-2.41
12.42271995544434,2,3,3,3,-9.720000000000001,-0.22,1.47,3.02,1.23,-2.54
12.43271994590759,2,3,3,3,-9.68,-0.18,1.59,3.03,1.24,-2.64
12.44271993637085,2,3,3,3,-9.65,-0.18,1.62,3.03,0.99,-2.61
12.45271992683411,2,3,3,3,-9.69,-0.14,1.49,2.99,0.73,-2.4
12.46271991729736,2,3,3,3,-9.59,-0.12,1.48,3.06,0.33,-2.13
12.4727201461792,2,3,3,3,-9.529999999999999,-0.11,1.53,3.17,0.18,-1.83
12.48272013664246,2,3,3,3,-9.470000000000001,-0.11,1.53,3.45,0.13,-1.62
12.49272012710571,2,3,3,3,-9.32,0.1,1.34,3.55,0.01,-1.55
12.50272011756897,2,3,3,3,-9.44,0.19,1.35,3.66,0.16,-1.59
12.51272010803223,2,3,3,3,-9.58,0.25,1.41,3.82,0.22,-1.64
12.52272009849548,2,3,3,3,-9.65,0.3,1.37,3.92,0.17,-1.73
12.53272008895874,2,3,3,3,-9.83,0.39,1.44,4.04,0.1,-1.85
12.542720079422,2,3,3,3,-9.869999999999999,0.43,1.44,4.12,-0.11,-1.97
12.55272006988525,2,3,3,3,-9.859999999999999,0.44,1.36,4.21,-0.26,-2.17
12.56272006034851,2,3,3,3,-9.84,0.43,1.4,4.32,-0.45,-2.31
12.57272005081177,2,3,3,3,-9.83,0.4,1.39,4.2,-0.51,-2.48
12.58272004127502,2,3,3,3,-9.859999999999999,0.36,1.37,3.99,-0.46,-2.58
12.59272003173828,2,3,3,3,-9.890000000000001,0.37,1.36,3.92,-0.39,-2.69
12.60272002220154,2,3,3,3,-10.05,0.29,1.21,3.8,-0.42,-2.82
12.61272001266479,2,3,3,3,-10.17,0.27,1.17,3.7,-0.48,-2.84
12.62272000312805,2,3,3,3,-10.34,0.22,1.21,3.94,-0.64,-2.82
12.63271999359131,2,3,3,3,-10.35,0.24,1.29,4.52,-0.9399999999999999,-2.81
12.64271998405457,2,3,3,3,-10.35,0.26,1.67,5.41,-1.17,-2.82
12.65271997451782,2,3,3,3,-10.41,0.27,1.78,6.29,-1.19,-2.82
12.66271996498108,2,3,3,3,-10.63,0.33,1.85,6.64,-1.26,-2.57
12.67271995544434,2,3,3,3,-10.83,0.52,1.85,6.53,-1.33,-1.99
12.68271994590759,2,3,3,3,-10.83,1.03,1.94,6.12,-1.2,-1.26
12.69271993637085,2,3,3,3,-10.83,1.15,2.19,5.64,-0.74,-0.67
12.70271992683411,2,3,3,3,-10.89,1.12,2.32,4.71,-0.05,-0.36
12.71271991729736,2,3,3,3,-11.04,0.92,2.35,3.01,0.89,-0.07000000000000001
12.7227201461792,2,3,3,3,-11.63,0.58,1.77,0.71,1.98,0.37
12.73272013664246,2,3,3,2,-11.87,0.62,1.35,-1.7,2.66,1.08
12.76272010803223,2,3,3,2,-12.45,-1.12,1.57,-6.04,1.26,2.29
12.77272009849548,2,3,3,2,-12.57,-2.12,2.01,-6.07,0.92,2
12.78372001647949,2,3,3,2,-12.59,-3.18,1.78,-5.91,0.8100000000000001,1.66
12.79372000694275,2,3,3,2,-11.82,-4.27,0.61,-5.92,0.88,1.35
12.80371999740601,2,3,3,2,-10.98,-4.21,0.68,-4.78,1.06,1.46
12.81371998786926,2,3,3,2,-9.91,-4.19,0.92,-2.7,0.5,1.83
12.82371997833252,2,3,3,2,-8.77,-4.32,1.15,-1.28,-0.41,2.29
12.83371996879578,2,3,3,2,-7.14,-4.61,1.51,-0.41,-0.59,2.66
12.84371995925903,2,3,3,2,-6.89,-4.53,1.46,0.07000000000000001,-0.19,3.15
12.85371994972229,2,3,3,2,-6.88,-4.27,1.19,0.28,0.66,3.92
12.86371994018555,2,3,3,2,-7.02,-3.79,1.08,0.53,1.87,5.02
12.8737199306488,2,3,3,2,-7.79,-2.7,1.71,1.22,2.99,6.02
12.88371992111206,2,3,3,2,-8.08,-2.39,2.15,1.98,3.02,6.58
12.8937201499939,2,3,3,2,-8.26,-2.04,2.43,1.99,1.62,6.51
12.90372014045715,2,3,3,2,-8.41,-1.83,2.43,1.1,0.23,6.09
12.91372013092041,2,3,3,2,-9.08,-1.66,2.51,0.18,-0.31,5.6
12.92372012138367,2,3,3,2,-9.52,-1.6,2.44,-0.35,-0.65,4.98
12.93372011184692,2,3,3,2,-9.869999999999999,-1.53,2.32,-0.68,-1.43,4.43
12.94372010231018,2,3,3,2,-10.39,-1.16,2.17,-0.38,-2.1,4.02
12.95372009277344,2,3,3,2,-10.36,-0.95,2.19,0.29,-3.16,3.78
12.96372008323669,2,3,3,2,-10.34,-0.77,2.39,0.63,-4.64,3.72
12.97372007369995,2,3,3,2,-10.31,-0.5600000000000001,2.5,0.8,-6.05,4.01
12.98372006416321,2,3,3,2,-9.93,-0.14,2.59,0.09,-7.32,4.3
12.99372005462646,2,3,3,2,-9.93,-0.11,2.72,-1.53,-8.24,4.54
13.00372004508972,2,3,3,2,-9.890000000000001,-0.02,2.59,-3.6,-8.83,4.49
13.01372003555298,2,3,3,2,-9.619999999999999,0.09,2.4,-6.09,-8.92,4.28
13.02372002601624,2,3,3,2,-9.4,-0.21,2.43,-8.289999999999999,-8.539999999999999,4.05
13.03372001647949,2,3,3,2,-9.289999999999999,-0.52,2.56,-9.69,-8.44,3.72
13.04372000694275,2,3,3,2,-8.880000000000001,-0.92,2.45,-10.43,-9.16,3.16
13.06371998786926,2,3,3,2,-7.47,-2.6,1.82,-11.3,-9,1.49
13.07371997833252,2,3,3,2,-7.86,-3.04,2.22,-9.76,-6.76,1.01
13.08371996879578,2,3,3,1,-8.27,-3.42,2.62,-6.99,-5.55,0.91
13.09371995925903,2,3,3,1,-8.49,-3.55,2.71,-4.28,-6.18,1.08
13.10371994972229,2,3,3,1,-8.48,-2.65,2.45,-2.07,-6.83,1.5
13.11371994018555,2,3,3,1,-8.44,-1.81,2.69,-0.14,-6.72,2.19
13.1237199306488,2,3,3,1,-8.32,-0.97,2.79,1.24,-6.51,3
13.13371992111206,2,3,3,0,-8.59,0.35,3.2,2.21,-5.97,3.63
13.1437201499939,2,3,3,0,-8.74,0.65,3.26,2.98,-5.37,4.01
13.15372014045715,2,3,3,0,-8.85,0.78,3.29,3.15,-4.58,4.21
13.16372013092041,2,3,3,0,-8.98,0.98,3.37,2.98,-3.9,3.76
13.17372012138367,2,3,3,0,-8.83,1.08,3.45,2.25,-3.74,3.04
13.18372011184692,2,3,3,0,-8.68,1.12,3.45,0.76,-3.46,2.4
13.19372010231018,2,3,3,0,-8.609999999999999,1.17,3.5,-0.75,-2.64,1.66
13.20372009277344,2,3,3,0,-8.5,1.17,3.42,-2.03,-2.1,0.99
13.21372008323669,2,3,3,0,-8.199999999999999,1.06,3.53,-3,-1.81,0.55
13.22372007369995,2,3,3,0,-8.07,0.97,3.54,-3.54,-1.55,0.21
13.23372006416321,2,3,3,0,-7.97,0.79,3.6,-4.05,-1.36,-0.12
13.24372005462646,2,3,3,0,-7.92,0.64,3.7,-4.54,-1.13,-0.39
13.25372004508972,2,3,3,0,-7.69,0.49,3.4,-5.04,-1.15,-0.78
13.26372003555298,2,3,3,0,-7.64,0.39,3.39,-5.62,-0.97,-1.16
13.27372002601624,2,3,3,0,-7.62,0.29,3.39,-5.73,-0.21,-1.42
13.28372001647949,2,3,3,0,-7.59,0.16,3.47,-5.27,0.63,-1.6
13.29372000694275,2,3,3,0,-7.65,0.07000000000000001,3.55,-4.7,1.26,-1.64
13.30371999740601,2,3,3,0,-7.83,0,3.68,-4.04,1.8,-1.54
13.31371998786926,2,3,3,0,-7.99,0,3.81,-3.27,1.97,-1.18
13.32371997833252,2,3,3,0,-8.380000000000001,0.15,3.51,-2.92,1.86,-0.66
13.33371996879578,2,3,3,0,-8.57,0.4,3.55,-2.7,1.92,-0.21
13.34371995925903,2,3,3,0,-8.82,0.6899999999999999,3.77,-2.08,2.38,0.28
13.35371994972229,2,3,3,0,-9.1,0.91,3.97,-1.32,2.6,0.89
13.36371994018555,2,3,3,0,-9.07,1.3,3.87,-0.99,1.94,1.44
13.3737199306488,2,3,3,0,-9.18,1.32,3.89,-1.61,1.54,1.8
13.38371992111206,2,3,3,0,-9.300000000000001,1.31,3.98,-2.37,1.59,2.17
13.3937201499939,2,3,3,0,-9.31,1.16,3.96,-3.58,1.21,2.25
13.40372014045715,2,3,3,0,-9.210000000000001,0.48,3.64,-5.5,0.74,2.06
13.41372013092041,2,3,3,0,-9.32,0.31,3.29,-7.26,0.39,1.6
13.42372012138367,2,3,3,0,-9.57,0.44,3.14,-8.52,0.5,0.82
13.43372011184692,2,3,3,0,-10.11,0.57,3.51,-8.390000000000001,0.88,0.31
13.44372010231018,2,3,3,0,-10.95,0.74,4.96,-6.82,0.42,0.2
13.45372009277344,2,3,3,0,-11.12,0.64,5.56,-4.89,-0.93,0.62
13.46372008323669,2,3,3,0,-11.37,0.53,5.79,-3.49,-2.33,1.73
13.47372007369995,2,3,3,0,-11.32,-0.26,5.45,-4.33,-3.62,2.79
13.48372006416321,2,3,3,0,-11.16,-0.21,4.45,-6.08,-4.43,3.58
13.49372005462646,2,3,3,0,-11.23,0.31,4.49,-6.46,-3.39,3.99
13.50372004508972,2,3,3,0,-11.88,1.11,5.46,-4.6,-0.8100000000000001,4.01
13.51372003555298,2,3,3,0,-12.59,0.36,5.51,-2.77,-0.64,3.9
13.52372002601624,2,3,3,0,-12.68,-1.33,4.34,-4.45,-2.21,3.17
13.53372001647949,2,3,3,0,-13.63,-2.82,3.31,-6.88,-1.62,1.84
13.54372000694275,2,3,3,0,-14.98,-3.28,2.88,-6.62,0.49,0.08
13.55371999740601,2,3,3,0,-14.18,-2.15,3.6,-2.8,0.24,-1.74
13.56371998786926,2,3,3,0,-11.87,-1.96,3.74,1.7,-4,-2.37
13.57371997833252,2,3,3,0,-9.42,-1.66,4.27,4.2,-8.75,-1.99
13.58371996879578,2,3,3,0,-9.42,-1.66,4.27,5.07,-9.529999999999999,-1.43
13.59371995925903,2,3,3,0,-5.2,-1.29,4.25,4.43,-6.78,-0.5600000000000001
13.60371994972229,2,3,3,0,-5.75,-1.05,4.04,2.98,-2.55,0.47
13.61371994018555,2,3,3,0,-6.82,-0.63,3.56,1.17,1.31,1.19
13.6237199306488,2,3,3,0,-7.62,-0.23,2.61,-0.96,3.5,1.14
13.63371992111206,2,3,3,0,-7.62,-0.23,2.61,-0.96,3.5,1.14
13.6437201499939,2,3,3,0,-8.869999999999999,-0.27,1.25,-5.09,6.05,-0.03
13.65372014045715,2,3,3,0,-9.98,-1.27,0.22,-6.08,5.51,-1.15
13.66372013092041,2,3,3,0,-9.82,-2.62,0.04,-7.08,3.92,-2.1
13.67372012138367,2,3,3,0,-9.470000000000001,-3.29,0.26,-7.98,1.82,-2.62
13.68372011184692,2,3,3,0,-9.470000000000001,-3.29,0.26,-7.98,1.82,-2.62
13.69372010231018,2,3,3,0,-9.130000000000001,-3.79,0.87,-7.95,-0.32,-2.58
13.70372009277344,2,3,3,0,-7.63,-4.34,1.38,-4.74,-3.58,-1.89
13.71372008323669,2,3,3,0,-7.17,-3.98,1.67,-3.17,-3.8,-1.34
13.72372007369995,2,3,3,0,-6.83,-3.55,1.94,-1.58,-2.99,-0.45
13.73372006416321,2,3,3,0,-6.83,-3.55,1.94,-1.58,-2.99,-0.45
13.74372005462646,2,3,3,0,-6.64,-3.1,2.05,-0.54,-1.44,0.65
13.75372004508972,2,3,3,0,-7.28,-2.24,1.96,1.2,2.31,2.11
13.76372003555298,2,3,3,0,-7.8,-2.17,1.9,1.9,3.85,2.13
13.77372002601624,2,3,3,0,-8.27,-2.2,1.62,2.74,4.88,1.73
13.78372001647949,2,3,3,0,-8.27,-2.2,1.62,2.74,4.88,1.73
13.79372000694275,2,3,3,0,-9.050000000000001,-2.46,1.71,3.7,5.34,1.16
13.80471992492676,2,3,3,0,-9.6,-2.18,1.39,6.04,5.3,-0.39
13.81471991539001,2,3,3,0,-9.56,-1.99,1.38,7.03,5.44,-1.49
13.82472014427185,2,3,3,0,-9.140000000000001,-1.35,1.78,7.8,5.51,-2.44
13.83472013473511,2,3,3,0,-9.140000000000001,-1.35,1.78,7.8,5.51,-2.44
13.84472012519836,2,3,3,0,-8.92,-1.08,1.89,8.279999999999999,5.43,-3.07
13.85472011566162,2,3,3,0,-8.550000000000001,-0.65,1.92,7.25,4.94,-3.36
13.86472010612488,2,3,3,0,-8.67,-0.6,2.09,6.33,4.89,-3.24
13.87472009658813,2,3,3,0,-8.91,-0.62,2.22,5.56,4.75,-3.09
13.88472008705139,2,3,3,0,-8.91,-0.62,2.22,5.56,4.75,-3.09
13.89472007751465,2,3,3,0,-9.220000000000001,-0.76,2.09,4.83,4.44,-3.03
13.90472006797791,2,3,3,0,-9.77,-0.6899999999999999,1.45,4.05,3.73,-3.61
13.91472005844116,2,3,3,0,-9.68,-0.5600000000000001,1.49,4.28,3.4,-3.85
13.92472004890442,2,3,3,0,-9.65,-0.33,1.57,4.68,3.14,-3.84
13.93472003936768,2,3,3,0,-9.65,-0.33,1.57,4.68,3.14,-3.84
13.94472002983093,2,3,3,0,-9.65,-0.02,1.9,5.2,2.71,-3.78
13.95472002029419,2,3,3,0,-9.449999999999999,0.4,2.15,5.64,1.4,-3.62
13.96472001075745,2,3,3,0,-9.35,0.47,2.31,5.43,0.85,-3.59
13.9747200012207,2,3,3,0,-9.220000000000001,0.33,2.69,4.79,0.59,-3.58
13.98471999168396,2,3,3,0,-9.220000000000001,0.33,2.69,4.79,0.59,-3.58
13.99471998214722,2,3,3,0,-9.199999999999999,0.14,2.7,3.83,0.5,-3.52
14.00471997261047,2,3,3,0,-9.140000000000001,0.07000000000000001,2.61,1.78,1.08,-3.49
14.01471996307373,2,3,3,0,-9.01,-0.01,2.34,1.02,1.55,-3.42
14.02471995353699,2,3,3,0,-9.119999999999999,-0.25,2.18,0.73,1.66,-3.4
14.03471994400024,2,3,3,0,-9.130000000000001,-0.19,2.04,0.73,1.66,-3.4
14.0447199344635,2,3,3,0,-9.199999999999999,-0.2,2.01,0.43,1.55,-3.54
14.05471992492676,2,3,3,0,-9.68,-0.14,2.01,0.5600000000000001,0.99,-3.75
14.06471991539001,2,3,3,0,-9.94,-0.06,1.91,1,0.41,-3.76
14.07472014427185,2,3,3,0,-9.94,-0.06,1.91,1.7,-0.51,-3.82
14.08472013473511,2,3,3,0,-9.779999999999999,-0.08,2.02,1.7,-0.51,-3.82
14.09472012519836,2,3,3,0,-9.109999999999999,-0.2,2.19,2.72,-1.58,-4.12
14.10472011566162,2,3,3,0,-8.82,-0.42,2.48,4.92,-2.53,-4.96
14.11472010612488,2,3,3,0,-8.66,-0.64,2.5,5.4,-2.27,-4.97
14.12472009658813,2,3,3,0,-8.630000000000001,-0.8,2.43,5.64,-1.63,-4.63
14.13472008705139,2,3,3,0,-8.789999999999999,-0.79,2.65,5.64,-1.63,-4.63
14.14472007751465,2,3,3,0,-8.83,-0.68,2.58,6.04,-0.99,-4.12
14.15472006797791,2,3,3,0,-8.869999999999999,-0.48,2.44,6.7,1.15,-2.99
14.16472005844116,2,3,3,0,-9.09,-0.12,2.16,7.24,2.12,-2.31
14.17472004890442,2,3,3,0,-9.74,0.82,2.34,7.69,2.07,-1.65
14.18472003936768,2,3,3,0,-10.11,1.12,2.61,7.69,2.07,-1.65
14.19472002983093,2,3,3,0,-10.45,1.29,3.2,7.85,1.2,-1.2
14.20472002029419,2,3,3,0,-10.72,1.32,3.76,7.6,-0.42,-1.3
14.21472001075745,2,3,3,0,-10.83,1.11,4.5,7.47,-0.02,-1.52
14.2247200012207,2,3,3,0,-10.97,1.06,4.82,7.22,0.99,-1.46
14.23471999168396,2,3,3,0,-11.23,1.07,4.74,7.22,0.99,-1.46
14.24471998214722,2,3,3,0,-11.73,1.15,3.99,5.95,2.48,-0.88
14.25471997261047,2,3,3,0,-11.73,1.17,3.57,2.15,6.23,0.31
14.26471996307373,2,3,3,0,-11.78,0.95,3.07,0.87,7.38,0.57
14.27471995353699,2,3,3,0,-12.04,0.67,2.8,0.11,8.33,0.71
14.28471994400024,2,3,3,0,-12.77,-0.3,1.49,0.11,8.33,0.71
14.2947199344635,2,3,3,0,-13.04,-0.91,0.36,-1.45,9.609999999999999,0.99
14.30471992492676,2,3,3,0,-13.08,-1.53,-0.14,-4.96,10.31,2.01
14.31471991539001,2,3,3,0,-12.95,-2.07,-0.04,-6,8.76,2.39
14.32472014427185,2,3,3,0,-11.48,-4.07,0.37,-7.34,6.82,2.72
14.33472013473511,2,3,3,0,-10.46,-5.29,0.16,-7.34,6.82,2.72
14.34472012519836,2,3,3,0,-9.710000000000001,-6.25,-0.01,-7.95,5.94,3.2
14.35472011566162,2,3,3,0,-9.210000000000001,-7.03,-0.02,-4.3,5.83,4.53
14.36472010612488,2,3,3,0,-8.970000000000001,-7.69,0.13,-0.15,5.28,5.77
14.37472009658813,2,3,3,0,-8.869999999999999,-7.28,0.55,4.98,4.46,6.83
14.38472008705139,2,3,3,0,-8.92,-6.66,1.12,4.98,4.46,6.83
14.39472007751465,2,3,3,0,-9.01,-4.57,1.67,10.09,2.89,7.73
14.40472006797791,2,3,3,0,-9.16,-3.22,2.06,15.09,0.84,9.32
14.41472005844116,2,3,3,0,-9.35,-1.98,2.47,15.23,-0.11,9.140000000000001
14.42472004890442,2,3,3,0,-9.56,-0.7,3.02,14.36,-1.38,8.33
14.43472003936768,2,3,3,0,-10.08,1.15,3.53,14.36,-1.38,8.33
14.44472002983093,2,3,3,0,-10.35,1.71,3.46,11.95,-2.75,7.07
14.45472002029419,2,3,3,0,-10.68,1.94,3.31,4.4,-4.45,4.38
14.46472001075745,2,3,3,0,-10.89,1.8,2.87,0.83,-5.45,3.46
14.4747200012207,2,3,3,0,-10.92,0.7,2.13,-1.7,-6.51,2.79
14.48471999168396,2,3,3,0,-10.77,0.3,1.91,-1.7,-6.51,2.79
14.49471998214722,2,3,3,0,-10.79,0.1,1.93,-2.97,-7.39,2.64
14.50471997261047,2,3,3,0,-10.62,-0.1,2,-5.44,-9.859999999999999,2.63
14.51471996307373,2,3,3,0,-9.65,0.06,1.84,-6.47,-10.72,3.06
14.52471995353699,2,3,3,0,-8.949999999999999,-0.03,1.86,-7.49,-11.44,3.33
14.53471994400024,2,3,3,0,-8.02,-0.13,1.95,-7.49,-11.44,3.33
14.5447199344635,2,3,3,0,-7.2,-0.24,2.14,-8.369999999999999,-11.69,3.26
14.55471992492676,2,3,3,0,-6.9,-0.65,2.67,-9.539999999999999,-9.84,3.11
14.56471991539001,2,3,3,0,-7.11,-0.84,2.74,-9.44,-9.199999999999999,3.1
14.57472014427185,2,3,3,0,-7.4,-1.16,2.85,-9.029999999999999,-8.81,3.04
14.58472013473511,2,3,3,0,-7.62,-1.41,2.8,-9.029999999999999,-8.81,3.04
14.59472012519836,2,3,3,0,-7.66,-1.36,2.65,-8.470000000000001,-8.27,3
14.60472011566162,2,3,3,0,-7.49,-1.22,2.49,-7.28,-7.06,2.72
14.61472010612488,2,3,3,0,-7.61,-1.07,2.32,-6.46,-6.36,2.6
14.62472009658813,2,3,3,0,-7.64,-0.55,2.32,-5.9,-6.29,2.45
14.63472008705139,2,3,3,0,-7.57,-0.46,2.55,-5.9,-6.29,2.45
14.64472007751465,2,3,3,0,-7.6,-0.35,2.83,-5.5,-5.94,1.99
14.65472006797791,2,3,3,0,-7.72,-0.19,3.03,-5.77,-5.13,1.55
14.66472005844116,2,3,3,0,-8,-0.18,2.99,-6.38,-4.83,1.43
14.67472004890442,2,3,3,0,-8.199999999999999,0,3.01,-6.78,-3.93,1.24
14.68472003936768,2,3,3,0,-8.25,0.22,3.06,-6.78,-3.93,1.24
14.69472002983093,2,3,3,0,-8.17,0.36,3.02,-6.85,-2.93,1
14.70472002029419,2,3,3,0,-7.94,0.7,3.04,-6.34,-0.95,-0.12
14.71472001075745,2,3,3,0,-7.79,0.68,3,-6.14,-0.05,-0.86
14.7247200012207,2,3,3,0,-7.53,0.59,3.03,-5.72,0.84,-1.53
14.73471999168396,2,3,3,0,-7.27,0.51,3.06,-5.72,0.84,-1.53
14.74471998214722,2,3,3,0,-6.86,0.51,3.25,-5.01,1.97,-2.14
14.75471997261047,2,3,3,0,-6.84,0.55,3.42,-3.2,4.32,-2.34
14.76471996307373,2,3,3,0,-6.89,0.7,3.54,-2.83,4.9,-2.05
14.77471995353699,2,3,3,0,-7.12,1.11,3.72,-2.96,5.25,-1.7
14.78471994400024,2,3,3,0,-7.33,1.43,3.85,-2.96,5.25,-1.7
14.7947199344635,2,3,3,0,-7.74,1.57,4.14,-3.23,5.7,-1.22
14.80471992492676,2,3,3,0,-8.289999999999999,1.58,4.66,-3.52,5.12,0.12
14.81572008132935,2,3,3,0,-8.99,1.01,4.27,-4.69,3.43,0.8
14.82472014427185,2,3,3,0,-8.890000000000001,0.35,3.72,-7.28,2.69,1.34
14.83572006225586,2,3,3,0,-9,-0.74,3.77,-7.28,2.69,1.34
14.84572005271912,2,3,3,0,-9.390000000000001,-2.15,3.98,-10.13,2.95,1.46
14.85572004318237,2,3,3,0,-9.57,-4.66,0.34,-17.21,2.73,-1.43
14.86572003364563,2,3,3,0,-10.37,-4.77,-1.5,-16.24,5.92,-3.23
14.87572002410889,2,3,3,0,-12.68,-3.64,0.17,-5.32,5.68,-3.3
14.88572001457214,2,3,3,0,-15.13,-1.81,3.48,-5.32,5.68,-3.3
14.8957200050354,2,3,3,0,-13.23,1.94,6.03,8.029999999999999,-2.09,-1.95
14.90571999549866,2,3,3,0,-10.47,3.11,6.61,15.46,-10.06,0.45
14.91571998596191,2,3,3,0,-8.699999999999999,3.63,7.34,15.93,-12.75,3.56
14.92571997642517,2,3,3,0,-8.09,3.81,8.19,11.56,-11.17,7.03
14.93571996688843,2,3,3,0,-9.779999999999999,4.11,7.41,4.71,-8.16,10.43
14.94571995735168,2,3,3,0,-12.03,4.09,7.2,-2.53,-5.16,12.92
14.95571994781494,2,3,3,0,-14.52,3.62,7.24,-7.82,-3.47,13.58
14.9657199382782,2,3,3,0,-18.22,1.3,3.9,-12.09,-3.02,10.97
14.97571992874146,2,3,3,0,-19.24,-0.24,2.19,-13.46,-1.21,6.69
14.98571991920471,2,3,3,0,-18.61,-1.16,0.71,-10.25,2.19,1.29
14.99572014808655,2,3,3,0,-15.81,-2.19,0.8100000000000001,-3.59,1.97,-3.52
15.0057201385498,2,3,3,0,-8.09,-4.11,3.94,0.77,-5.1,-6.91
15.01572012901306,2,3,3,0,-5.33,-4.27,5.34,2.51,-11.23,-7.77
15.02572011947632,2,3,3,0,-3.84,-3.98,5.1,4.34,-11.82,-5.85
15.03572010993958,2,3,3,0,-3.5,-3.59,4.38,3.67,-7.92,-3.45
15.04572010040283,2,3,3,0,-6.85,-2.12,3.79,1.24,-2.12,-0.9399999999999999
15.05572009086609,2,3,3,0,-8.93,-1.1,2.99,-0.52,1.82,0.85
15.06572008132935,2,3,3,0,-10.19,-0.4,1.9,-1.95,4.69,1.22
15.0757200717926,2,3,3,0,-10.63,-0.17,0.82,-3.01,7.31,0.23
15.08572006225586,2,3,3,0,-10.37,-1.37,-0.17,-4.71,8.619999999999999,-1.38
15.09572005271912,2,3,3,0,-9.92,-2.57,-0.02,-6.47,7,-3.04
15.10572004318237,2,3,3,0,-9.359999999999999,-3.83,0.38,-7.45,3.01,-4.02
15.11572003364563,2,3,3,0,-8.380000000000001,-4.71,1.19,-7.62,-0.78,-3.69
15.12572002410889,2,3,3,0,-7.81,-4.74,1.34,-6.99,-2.55,-2.29
15.13572001457214,2,3,3,0,-7.27,-4.6,1.48,-5.44,-2.24,-0.89
15.1457200050354,2,3,3,0,-6.82,-4.1,1.7,-3.28,-0.84,0.08
15.15571999549866,2,3,3,0,-6.7,-3.25,1.98,-1.36,0.86,0.76
15.16571998596191,2,3,3,0,-6.86,-2.9,1.97,-0.17,2.76,1.13
15.17571997642517,2,3,3,0,-7.09,-2.74,1.93,0.62,4.23,1.32
15.18571996688843,2,3,3,0,-7.33,-2.68,1.7,1.3,5.31,1.29
15.19571995735168,2,3,3,0,-7.49,-2.47,1.14,2.34,6.16,1.05
15.20571994781494,2,3,3,0,-7.52,-2.51,0.85,3.9,6.4,0.4
15.2157199382782,2,3,3,0,-7.56,-2.54,0.68,5.8,6.32,-0.48
15.22571992874146,2,3,3,0,-7.9,-2.57,0.79,7.8,6.13,-1.24
15.23571991920471,2,3,3,0,-8.640000000000001,-2.07,1.27,9.48,5.6,-1.89
15.24572014808655,2,3,3,0,-8.960000000000001,-1.72,1.47,10.47,4.67,-2.42
15.2557201385498,2,3,3,0,-9.17,-1.3,1.65,10.71,4.2,-2.76
15.26572012901306,2,3,3,0,-9.210000000000001,-0.9,1.83,10.21,3.85,-2.91
15.27572011947632,2,3,3,0,-9.02,0,2.06,9.44,3.51,-2.97
15.28572010993958,2,3,3,0,-8.94,0.24,2.41,8.460000000000001,3.4,-3.01
15.29572010040283,2,3,3,0,-8.93,0.32,2.59,7.52,3.47,-3.01
15.30572009086609,2,3,3,0,-9.08,0.26,2.57,6.16,3.44,-3.11
15.31572008132935,2,3,3,0,-9.609999999999999,0.21,1.95,4.47,3.27,-3.15
15.3257200717926,2,3,3,0,-9.93,0.15,1.83,3.03,3.24,-3.1
15.33572006225586,2,3,3,0,-10.14,-0.03,1.43,2.11,3.15,-3.15
15.34572005271912,2,3,3,0,-10.12,-0.31,1.39,1.55,2.91,-3.37
15.35572004318237,2,3,3,0,-9.94,-0.31,1.46,1.85,2.48,-3.75
15.36572003364563,2,3,3,0,-9.75,-0.18,1.51,2.48,1.83,-4.24
15.37572002410889,2,3,3,0,-9.6,0,1.74,2.94,1.35,-4.66
15.38572001457214,2,3,3,0,-9.380000000000001,0.3,2.37,3.22,0.91,-4.86
15.3957200050354,2,3,3,1,-9.220000000000001,0.25,2.66,3.14,0.46,-4.88
15.40571999549866,2,3,3,1,-9.09,0.11,2.79,2.68,-0.15,-4.61
15.41571998596191,2,3,3,1,-8.949999999999999,-0.05,2.74,2.36,-0.66,-4.05
15.42571997642517,2,3,3,1,-8.65,-0.42,2.55,1.96,-0.85,-3.41
15.43571996688843,2,3,3,1,-8.59,-0.55,2.48,1.49,-0.83,-2.87
15.44571995735168,2,3,3,1,-8.640000000000001,-0.71,2.32,1.09,-0.87,-2.57
15.45571994781494,2,3,3,1,-8.800000000000001,-0.83,2.23,0.88,-0.77,-2.61
15.4657199382782,2,3,3,1,-9.140000000000001,-0.84,1.89,1.06,-0.67,-3.04
15.47571992874146,2,3,3,1,-9.19,-0.8100000000000001,2,1.88,-0.72,-3.81
15.48571991920471,2,3,3,1,-9.18,-0.77,2.08,3.19,-0.78,-4.8
15.49572014808655,2,3,3,1,-9.01,-0.66,2.14,4.65,-0.8100000000000001,-5.88
15.5057201385498,2,3,3,1,-8.949999999999999,-0.59,1.95,6.13,-0.84,-6.66
15.51572012901306,2,3,3,1,-8.869999999999999,-0.53,1.85,7.34,-1.08,-7
15.52572011947632,2,3,3,1,-8.74,-0.48,2.04,8.19,-1.51,-6.89
15.53572010993958,2,3,3,1,-8.75,-0.38,2.45,8.66,-1.6,-6.47
15.54572010040283,2,3,3,2,-8.869999999999999,-0.1,2.31,8.67,-0.85,-5.79
15.55572009086609,2,3,3,2,-9.08,0.32,2.1,8.390000000000001,0.4,-4.95
15.56572008132935,2,3,3,2,-9.369999999999999,0.78,2.05,8.56,1.48,-4.03
15.5757200717926,2,3,3,2,-10.16,1.52,3.04,9.210000000000001,1.83,-3.16
15.58572006225586,2,3,3,2,-10.49,1.53,3.98,9.81,1.36,-2.37
15.59572005271912,2,3,3,2,-10.82,1.35,4.72,10.08,0.55,-1.73
15.60572004318237,2,3,3,2,-11.16,1.29,5.09,9.41,-0.44,-1.2
15.61572003364563,2,3,3,2,-11.44,1.46,4.66,7.91,-0.67,-0.53
15.62572002410889,2,3,3,2,-11.58,1.63,4.63,6.03,0.98,0.22
15.63572001457214,2,3,3,2,-11.9,1.9,4.45,4.23,4.02,0.84
15.6457200050354,2,3,3,2,-12.21,2.02,3.99,1.5,6.55,1.21
15.65571999549866,2,3,3,2,-13.2,1.43,2.98,-1.59,8.09,1.38
15.66571998596191,2,3,3,2,-13.8,0.83,2.04,-3.73,9.300000000000001,1.28
15.67571997642517,2,3,3,2,-14.24,-0.1,1.35,-5.65,9.99,0.98
15.68571996688843,2,3,3,2,-15.11,-2.41,1.52,-6.98,10.3,0.78
15.69571995735168,2,3,3,2,-14.88,-3.4,0.9399999999999999,-7.05,9.77,0.7
15.70571994781494,2,3,3,2,-13.95,-4.42,0.3,-7.45,9.210000000000001,0.51
15.7157199382782,2,3,3,2,-12.62,-5.42,0,-7.01,9.27,0.59
15.72571992874146,2,3,3,2,-9.84,-6.79,0.18,-5.79,8.09,0.86
15.73571991920471,2,3,3,2,-8.539999999999999,-7.31,0.4,-4.91,5.68,1.23
15.74572014808655,2,3,3,2,-7.51,-7.4,0.34,-4.23,3.85,1.84
15.7557201385498,2,3,3,2,-6.76,-7.21,0.36,-2.42,3.67,2.72
15.76572012901306,2,3,3,2,-7.19,-5.99,0.86,1.38,4.48,4.08
15.77572011947632,2,3,3,2,-7.63,-5.06,1.47,6.41,5.21,5.27
15.78572010993958,2,3,3,2,-7.87,-4.07,1.83,10.25,4.65,6.82
15.79572010040283,2,3,3,2,-8.050000000000001,-3.14,1.98,12.08,3.37,8.23
15.80572009086609,2,3,3,2,-8.76,-1.28,2.99,13.08,1.92,9.02
15.81572008132935,2,3,3,2,-9.06,-0.49,3.36,13.57,-0.16,8.880000000000001
15.8257200717926,2,3,3,2,-9.34,0.08,3.59,12.68,-2.52,8.06
15.83572006225586,2,3,3,2,-9.69,0.5600000000000001,3.63,9.970000000000001,-4.07,6.83
15.84572005271912,2,3,3,2,-10.21,1.11,3.27,6.72,-5.02,5.43
15.85671997070312,2,3,3,2,-10.26,1.15,2.92,3.56,-5.63,4.15
15.86671996116638,2,3,3,2,-10.35,0.97,2.56,0.6,-5.94,3.18
15.87671995162964,2,3,3,2,-10.46,0.48,1.92,-1.45,-6.26,2.54
15.8867199420929,2,3,3,2,-10.3,0.38,1.76,-2.65,-7.08,2.03
15.89671993255615,2,3,3,2,-10.16,0.36,1.77,-3.78,-8.130000000000001,1.86
15.90671992301941,2,3,3,2,-9.800000000000001,0.42,1.81,-4.61,-9.19,1.78
15.91671991348267,2,3,3,2,-8.369999999999999,0.17,1.89,-5.28,-10.02,2.16
15.9267201423645,2,3,3,2,-7.6,0.02,2.33,-6.33,-10.47,2.72
15.93672013282776,2,3,3,2,-7.19,-0.17,2.79,-7.34,-10.26,3.05
15.94672012329102,2,3,3,2,-7.15,-0.53,3.22,-8.300000000000001,-9.69,3.33
15.95672011375427,2,3,3,2,-7.16,-1.28,3.24,-9.140000000000001,-9.140000000000001,3.84
15.96672010421753,2,3,3,2,-7.24,-1.56,2.97,-9.82,-8.41,4.28
15.97672009468079,2,3,3,2,-7.33,-1.78,2.83,-10.16,-7.76,4.38
15.98672008514404,2,3,3,2,-7.47,-1.75,2.77,-9.970000000000001,-7.11,4.2
15.9967200756073,2,3,3,2,-7.62,-1.44,2.67,-9.369999999999999,-6.53,3.99
16.00672006607056,2,3,3,2,-7.58,-1.16,2.57,-8.640000000000001,-6.32,3.76
16.01672005653381,2,3,3,2,-7.68,-1.05,2.58,-7.85,-5.92,3.29
16.02672004699707,2,3,3,2,-7.87,-0.88,2.78,-6.92,-5.09,2.75
16.03672003746033,2,3,3,2,-8.279999999999999,-0.72,3.17,-5.91,-4.44,2.2
16.04672002792358,2,3,3,2,-8.27,-0.65,3.28,-5.06,-4.31,1.85
16.05672001838684,2,3,3,2,-8.210000000000001,-0.65,3.28,-4.56,-4.3,1.58
16.0667200088501,2,3,3,2,-8.16,-0.02,2.97,-4.16,-3.86,1.39
16.07671999931335,2,3,3,2,-8.06,0.3,2.97,-3.9,-3.14,1.28
16.08671998977661,2,3,3,2,-8.06,0.61,3.14,-3.74,-2.2,1.01
16.09671998023987,2,3,3,2,-8.09,0.95,3.2,-3.53,-1.32,0.5600000000000001
16.10671997070312,2,3,3,2,-7.92,1.42,3.17,-3.44,-0.74,0.02
16.11671996116638,2,3,3,2,-7.82,1.45,3.18,-3.47,-0.17,-0.54
16.12671995162964,2,3,3,2,-7.64,1.55,3.23,-3.36,0.39,-1.04
16.20672011375427,2,3,3,2,-8.289999999999999,0.39,4.55,-4.96,2.46,0.86
16.2467200756073,2,3,3,2,-9.81,-4.42,-0.35,-16.91,2.77,1.24
16.25672006607056,2,3,3,2,-16.54,-2.58,3.95,-15.31,6.35,-1.21
16.26672005653381,2,3,3,2,-17.57,-0.5,5,-4.02,6.22,-2.11
16.27672004699707,2,3,3,2,-14.76,1.79,4.2,8.609999999999999,-3.25,-1.73
16.28672003746033,2,3,3,2,-11.01,3.62,4.94,15.73,-10.32,0.09
16.29672002792358,2,3,3,2,-7.6,4.33,8.390000000000001,17.31,-9.81,2.84
16.30672001838684,2,3,3,2,-7.01,4.12,7.95,12.79,-8.01,6.14
16.3167200088501,2,3,3,2,-7.67,4.11,7.04,4.03,-6.27,9.119999999999999
16.32671999931335,2,3,3,2,-9.949999999999999,4.39,7.2,-2.78,-3.04,11.02
16.33671998977661,2,3,3,2,-15.97,2.92,7.69,-6.26,-1.33,11.67
16.34671998023987,2,3,3,2,-17.74,0.51,4.35,-11.5,-3.1,10.12
16.35671997070312,2,3,3,2,-19.79,-2.45,1.89,-18.46,-2.79,6.25
16.36671996116638,2,3,3,2,-21.26,-3.61,0.4,-16.25,1.1,1.04
16.37671995162964,2,3,3,2,-15.13,-4.14,0.57,-7.05,1.98,-4.74
16.3867199420929,2,3,3,2,-10.68,-3.88,3.04,0.5,-3.75,-8.220000000000001
16.39671993255615,2,3,3,2,-6.75,-3.66,4.81,4.77,-12.02,-8.609999999999999
16.40671992301941,2,3,3,2,-3.8,-3.59,4.64,4.45,-15.74,-7.2
16.4267201423645,2,3,3,2,-3.95,-2.28,3,0.8100000000000001,-5.37,-1.69
16.43672013282776,2,3,3,2,-6.5,-1.25,2.97,-0.12,1.21,0.88
16.44672012329102,2,3,3,2,-9.65,-0.47,1.51,-1.6,5.89,1.9
16.45672011375427,2,3,3,2,-10.41,-0.88,0.42,-3.4,7.95,1.67
16.46672010421753,2,3,3,2,-10.84,-1.61,-0.46,-5.17,8.52,0.45
16.47672009468079,2,3,3,2,-10.91,-2.42,-0.5600000000000001,-6.46,7.5,-1.13
16.48672008514404,2,3,3,2,-9.84,-3.88,0.28,-6.95,4.34,-2.39
16.4967200756073,2,3,3,2,-8.949999999999999,-4.32,0.95,-7.1,0.13,-2.66
16.50672006607056,2,3,3,2,-8.119999999999999,-4.46,1.47,-6.59,-2.38,-1.72
16.51672005653381,2,3,3,2,-7.46,-4.26,1.76,-5.16,-2.33,-0.49
16.52672004699707,2,3,3,2,-6.69,-3.71,2.21,-3.4,-0.96,0.66
16.53672003746033,2,3,3,2,-6.71,-3.41,2.29,-1.69,0.99,1.63
16.54672002792358,2,3,3,2,-7.04,-3.17,2.17,-0.27,3.19,2.31
16.55672001838684,2,3,3,2,-7.43,-3.14,2.02,0.73,5.17,2.54
16.5667200088501,2,3,3,2,-8.1,-3.07,1.23,1.98,6.45,2.42
16.57671999931335,2,3,3,2,-8.199999999999999,-2.88,0.97,3.62,7.14,1.95
16.58671998977661,2,3,3,2,-8.17,-2.85,0.79,5.83,7.31,1.2
16.59671998023987,2,3,3,2,-8.33,-2.7,0.83,8.34,6.94,0.23
16.60671997070312,2,3,3,2,-8.58,-2.29,0.9399999999999999,10.68,6.25,-0.84
16.61671996116638,2,3,3,2,-8.869999999999999,-1.66,1.15,12.38,5.35,-1.65
16.62671995162964,2,3,3,2,-9.08,-1.09,1.42,13.09,4.33,-2.41
16.6367199420929,2,3,3,2,-9.130000000000001,0.02,2.12,12.73,3.82,-2.97
16.64671993255615,2,3,3,2,-9.02,0.39,2.51,11.83,3.52,-3.38
16.65671992301941,2,3,3,2,-8.859999999999999,0.66,2.68,10.54,3.16,-3.58
16.66671991348267,2,3,3,2,-8.710000000000001,0.8100000000000001,2.58,8.99,2.97,-3.57
16.6767201423645,2,3,3,2,-8.859999999999999,0.92,2.79,7.77,3,-3.34
16.68672013282776,2,3,3,2,-8.880000000000001,0.89,2.54,6.82,3.14,-3.08
16.69672012329102,2,3,3,2,-8.84,0.95,2.39,5.4,3.17,-2.88
16.70672011375427,2,3,3,2,-8.76,0.98,2.34,4.07,3.04,-2.84
16.71672010421753,2,3,3,2,-8.68,0.5600000000000001,2.15,2.85,2.57,-2.84
16.72672009468079,2,3,3,2,-8.73,0.28,2.05,1.61,2.12,-3
16.73672008514404,2,3,3,2,-8.970000000000001,-0.12,2.06,0.3,1.94,-3.26
16.7467200756073,2,3,3,2,-9.26,-0.44,1.94,-0.38,2.07,-3.46
16.75672006607056,2,3,3,2,-9.76,-0.85,1.61,-0.87,2.2,-3.81
16.76672005653381,2,3,3,2,-9.970000000000001,-1.02,1.31,-0.9,2.2,-4.26
16.77672004699707,2,3,3,2,-10.23,-1.09,1.33,-0.6,1.99,-4.76
16.78672003746033,2,3,3,2,-10.29,-1.07,1.65,0.49,1.48,-5.15
16.79672002792358,2,3,3,2,-10,-1,1.78,1.62,0.59,-5.53
16.80672001838684,2,3,3,2,-9.66,-0.9,1.99,2.57,-0.18,-5.83
16.8167200088501,2,3,3,2,-9.300000000000001,-0.86,2.07,3.44,-0.63,-5.87
16.84671998023987,2,3,3,2,-8.699999999999999,-0.29,2.49,5.17,-1.54,-4.84
16.87671995162964,2,3,3,2,-8.890000000000001,0.66,2.46,6.25,-1.5,-3.69
16.88772010803223,2,3,3,2,-8.91,0.64,2.34,6.57,-1.46,-3.72
16.89772009849548,2,3,3,1,-9,0.58,2.26,6.42,-1.45,-3.92
16.90772008895874,2,3,3,1,-9.33,0.36,2.54,6.25,-1.03,-4.2
16.917720079422,2,3,3,1,-9.52,0.35,2.47,5.95,-0.47,-4.38
16.92772006988525,2,3,3,1,-9.74,0.48,2.31,5.38,0.35,-4.57
16.93772006034851,2,3,3,1,-9.880000000000001,0.78,1.98,4.97,1.4,-4.59
16.94772005081177,2,3,3,1,-10.18,1.64,2.25,5.27,2.22,-4.48
16.95772004127502,2,3,3,1,-10.3,1.72,3.09,6.32,2.1,-4.1
16.96772003173828,2,3,3,1,-10.29,1.44,3.92,7.4,0.95,-3.7
16.97772002220154,2,3,3,1,-10.46,0.57,5.23,8.029999999999999,-0.31,-3.3
16.98772001266479,2,3,3,1,-10.67,0.36,5.03,7.8,-1.15,-2.74
16.99772000312805,2,3,3,1,-10.78,0.46,4.57,6.32,-1.28,-1.68
17.00771999359131,2,3,3,1,-10.98,0.77,4.22,4.34,0.34,-0.24
17.01771998405457,2,3,3,1,-11.59,1.56,3.42,2.49,3.33,1.08
17.02771997451782,2,3,3,1,-12.01,1.35,2.95,0.05,5.89,2.1
17.03771996498108,2,3,3,1,-12.54,1.12,2.62,-2.42,7.46,2.7
17.04771995544434,2,3,3,1,-13.06,0.6899999999999999,2.02,-3.74,8.66,2.77
17.05771994590759,2,3,3,1,-13.55,-0.92,0.59,-4.93,9.66,2.73
17.06771993637085,2,3,3,1,-13.49,-1.81,0.64,-5.99,10.23,2.52
17.07771992683411,2,3,3,1,-13.06,-2.95,0.67,-6.04,9.800000000000001,2.26
17.08771991729736,2,3,3,1,-12.21,-4.33,0.45,-6.35,9.02,2.22
17.0977201461792,2,3,3,1,-10.43,-6.86,0.07000000000000001,-6.57,8.52,2.4
17.10772013664246,2,3,3,1,-9.83,-7.59,0,-5.89,7.57,2.94
17.11772012710571,2,3,3,1,-9.369999999999999,-8.1,-0.06,-4.53,6.1,3.46
17.12772011756897,2,3,3,1,-8.59,-8.25,0.47,-2.54,4.6,4.35
17.13772010803223,2,3,3,1,-8.6,-7.48,0.96,1.62,3.85,5.74
17.14772009849548,2,3,3,1,-8.75,-6.29,1.42,7.49,4.17,6.69
17.15772008895874,2,3,3,1,-8.93,-5.04,1.64,12.36,3.93,7.66
17.167720079422,2,3,3,1,-9.25,-2.59,2.17,14.79,3.78,8.6
17.17772006988525,2,3,3,1,-9.640000000000001,-1.29,2.76,15.78,3.45,9.140000000000001
17.18772006034851,2,3,3,1,-10.06,-0.24,3.34,15.78,2.3,8.609999999999999
17.19772005081177,2,3,3,1,-10.4,0.65,3.76,14.83,0.26,7.42
17.20772004127502,2,3,3,1,-10.84,1.9,3.93,12.85,-1.95,5.82
17.21772003173828,2,3,3,1,-10.88,2,3.7,9.49,-3.58,3.96
17.22772002220154,2,3,3,1,-10.82,1.74,3.4,5.55,-4.87,2.43
17.23772001266479,2,3,3,1,-10.65,1.22,3.04,1.61,-6,1.68
17.24772000312805,2,3,3,1,-10.55,0.49,2.61,-1.58,-7.12,1.52
17.25771999359131,2,3,3,1,-10.3,0.23,2.2,-3.67,-8.6,1.51
17.26771998405457,2,3,3,1,-9.720000000000001,0.09,1.89,-5.75,-10.36,1.52
17.27771997451782,2,3,3,1,-9.25,0.24,1.7,-7.02,-11.69,1.79
17.28771996498108,2,3,3,1,-7.71,0.18,1.6,-7.38,-12.06,2.43
17.29771995544434,2,3,3,1,-7.02,-0.11,1.69,-8.02,-12.9,2.94
17.30771994590759,2,3,3,1,-6.79,-0.33,2.04,-9.220000000000001,-13.2,3.1
17.31771993637085,2,3,3,1,-6.97,-0.73,2.6,-9.77,-12.49,3.19
17.32771992683411,2,3,3,1,-7.17,-0.91,2.76,-9.640000000000001,-11.28,3.47
17.33771991729736,2,3,3,1,-7.33,-1.24,2.79,-9.279999999999999,-10.12,3.56
17.3477201461792,2,3,3,1,-7.36,-1.47,2.73,-8.880000000000001,-9.199999999999999,3.45
17.35772013664246,2,3,3,1,-7.54,-1.21,2.72,-7.94,-8.1,3.19
17.36772012710571,2,3,3,1,-7.52,-1.02,2.78,-6.81,-7.17,3.02
17.37772011756897,2,3,3,1,-7.26,-0.77,2.75,-5.73,-6.73,2.93
17.38772010803223,2,3,3,1,-7.09,-0.52,2.79,-4.86,-6.22,2.81
17.39772009849548,2,3,3,1,-7.21,-0.41,3.18,-4.43,-5.58,2.54
17.40772008895874,2,3,3,1,-7.64,-0.14,3.38,-4.04,-4.59,2.14
17.417720079422,2,3,3,1,-7.85,-0.21,3.43,-3.72,-3.88,1.85
17.42772006988525,2,3,3,1,-7.99,-0.19,3.49,-3.93,-3.72,1.82
17.43772006034851,2,3,3,1,-8.27,0.19,3.42,-4.14,-3.3,1.55
17.44772005081177,2,3,3,1,-8.27,0.39,3.43,-4.32,-2.57,1.15
17.45772004127502,2,3,3,1,-8.380000000000001,0.66,3.5,-4.29,-1.48,0.44
17.46772003173828,2,3,3,1,-8.390000000000001,0.79,3.44,-4.09,-0.4,-0.31
17.47772002220154,2,3,3,1,-8.050000000000001,0.78,3.54,-3.85,0.12,-1.13
17.48772001266479,2,3,3,1,-7.69,0.76,3.55,-3.76,0.35,-1.99
17.49772000312805,2,3,3,1,-7.33,0.71,3.63,-3.46,0.92,-2.71
17.50771999359131,2,3,3,1,-6.82,0.62,3.8,-3.07,1.98,-3.13
17.51771998405457,2,3,3,1,-6.79,0.7,3.9,-2.57,3.32,-3.28
17.52771997451782,2,3,3,1,-6.87,0.8,4.12,-2.01,4.46,-3.29
17.53771996498108,2,3,3,1,-7.03,0.95,4.3,-1.74,5.22,-3.04
17.54771995544434,2,3,3,2,-7.73,1.41,4.49,-1.65,5.64,-2.55
17.55771994590759,2,3,3,2,-8.199999999999999,1.6,4.5,-1.83,5.8,-1.82
17.56771993637085,2,3,3,2,-8.69,1.75,4.33,-2.17,5.64,-1.05
17.57771992683411,2,3,3,2,-9.17,1.69,4.4,-2.76,5.09,-0.27
17.58771991729736,2,3,3,2,-9.630000000000001,1.01,4.08,-3.21,4.55,0.51
17.5977201461792,2,3,3,2,-9.51,0.06,3.74,-4.5,3.67,1.21
17.60772013664246,2,3,3,2,-9.470000000000001,-1.31,3.86,-7.36,3.05,1.38
17.61772012710571,2,3,3,2,-9.67,-2.73,3.12,-10.65,2.78,0.71
17.62772011756897,2,3,3,2,-10.86,-3.54,0.06,-13.76,2.56,-1.07
17.63772010803223,2,3,3,2,-12.62,-2.36,0.98,-15.26,3.58,-3.14
17.64772009849548,2,3,3,2,-13.98,-0.37,3.48,-8.92,4.09,-3.52
17.65772008895874,2,3,3,2,-13.32,1.53,5.18,2.53,-0.8100000000000001,-1.97
17.667720079422,2,3,3,2,-9.359999999999999,3.68,7.44,10.46,-8.33,0.97
17.67772006988525,2,3,3,2,-8.390000000000001,3.49,8.1,11.11,-12.24,4.19
17.68772006034851,2,3,3,2,-8.17,2.96,7.63,5.36,-12.12,7.81
17.69772005081177,2,3,3,2,-11.09,2.6,7.28,-2.14,-8.529999999999999,11.1
17.70772004127502,2,3,3,2,-13.59,2.3,7.66,-5.48,-3.85,13.5
17.71772003173828,2,3,3,2,-15.78,1.37,6.53,-7.31,-2.99,14.2
17.72772002220154,2,3,3,2,-17.57,0.14,4.46,-9.960000000000001,-4.03,12.02
17.73772001266479,2,3,3,2,-18.64,-2.26,-0.28,-10.44,-2.93,7.88
17.74772000312805,2,3,3,2,-15.26,-2.46,0.08,-6.61,-0.71,1.79
17.75771999359131,2,3,3,2,-11.03,-3.03,2.47,-0.5,-1.9,-3.71
17.76771998405457,2,3,3,2,-7.77,-3.47,4.02,2.38,-6.78,-6.21
17.77771997451782,2,3,3,2,-4.43,-3.88,4.7,2.48,-9.289999999999999,-5.15
17.78771996498108,2,3,3,2,-4.97,-3.52,3.97,1.46,-6.96,-3.05
17.79771995544434,2,3,3,2,-6.5,-2.95,3.85,0.61,-1.46,-1.67
17.80771994590759,2,3,3,2,-8.609999999999999,-2.22,3.54,-0.4,2.82,-0.57
17.81771993637085,2,3,3,2,-11.14,-1.19,1.44,-1.4,3.9,0.04
17.82771992683411,2,3,3,2,-11.1,-1.3,0.71,-2.52,4.99,-0.45
17.83771991729736,2,3,3,2,-10.42,-1.84,0.3,-3.58,6.02,-1.6
17.8477201461792,2,3,3,2,-8.4,-3.57,0.71,-4.87,4.94,-2.55
17.85772013664246,2,3,3,2,-7.8,-4.16,1.12,-5.8,2.36,-2.83
17.86772012710571,2,3,3,2,-7.56,-4.41,1.32,-5.75,0.1,-2.38
17.89772009849548,2,3,3,2,-7.38,-3.69,1.83,-1.52,1.52,0.8100000000000001
17.90872001647949,2,3,3,2,-7.38,-3.2,2.06,0.58,3.06,1.34
17.91872000694275,2,3,3,2,-7.67,-2.62,2.17,1.83,4.66,1.34
17.92871999740601,2,3,3,2,-8.449999999999999,-2.38,1.84,2.43,5.99,1.02
17.93871998786926,2,3,3,2,-8.82,-2.24,1.49,3.01,7.19,0.67
17.94871997833252,2,3,3,2,-9.050000000000001,-1.9,1.14,4,8.02,0.28
17.95871996879578,2,3,3,2,-8.98,-1.71,0.84,5.53,7.76,-0.37
17.96871995925903,2,3,3,2,-8.44,-1.77,0.76,7.07,7.01,-1.19
17.97871994972229,2,3,3,2,-8.380000000000001,-1.65,1.04,8.58,6.02,-1.76
17.98871994018555,2,3,3,2,-8.42,-1.51,1.28,9.699999999999999,4.67,-2.11
17.9987199306488,2,3,3,2,-8.539999999999999,-1.35,1.42,10.02,3.55,-2.41
18.00871992111206,2,3,3,2,-8.859999999999999,-0.5,1.67,9.789999999999999,3.15,-2.57
18.0187201499939,2,3,3,2,-8.84,-0.08,1.77,8.970000000000001,2.99,-2.76
18.02872014045715,2,3,3,2,-8.77,0.13,2.04,7.86,2.88,-2.95
18.03872013092041,2,3,3,2,-8.550000000000001,0.25,2.34,7.04,2.78,-3.01
18.04872012138367,2,3,3,2,-8.6,0.33,2.38,6.33,2.59,-3.01
18.05872011184692,2,3,3,2,-8.800000000000001,0.43,2.3,5.72,2.52,-3.05
18.06872010231018,2,3,3,2,-9,0.6,2.07,5.13,2.47,-3.07
18.07872009277344,2,3,3,2,-8.98,0.85,2.13,4.58,2.14,-2.9
18.08872008323669,2,3,3,2,-8.960000000000001,0.78,2.28,3.81,1.6,-2.6
18.09872007369995,2,3,3,2,-8.99,0.54,2.37,2.99,1.19,-2.46
18.10872006416321,2,3,3,2,-9.07,0.26,2.39,1.87,0.89,-2.54
18.11872005462646,2,3,3,2,-9.42,-0.31,2.1,0.61,0.79,-2.74
18.12872004508972,2,3,3,2,-9.6,-0.52,2.01,-0.34,1.09,-3.12
18.13872003555298,2,3,3,2,-9.65,-0.6899999999999999,1.79,-0.8,1.45,-3.74
18.14872002601624,2,3,3,2,-9.699999999999999,-0.8,1.79,-0.76,1.58,-4.39
18.15872001647949,2,3,3,2,-9.609999999999999,-0.92,2.1,0.13,1.49,-5.03
18.16872000694275,2,3,3,2,-9.33,-0.92,2.09,1.39,0.85,-5.49
18.17871999740601,2,3,3,2,-9.07,-0.92,2.26,2.41,0.25,-5.81
18.18871998786926,2,3,3,2,-8.890000000000001,-0.85,2.45,3.23,-0.17,-5.81
18.19871997833252,2,3,3,2,-8.890000000000001,-0.85,2.45,3.23,-0.17,-5.81
18.20871996879578,2,3,3,2,-8.800000000000001,-0.6,2.62,4.05,-0.45,-5.6
18.21871995925903,2,3,3,2,-8.85,-0.02,2.35,4.82,-0.93,-4.86
18.22871994972229,2,3,3,2,-9.09,0.64,2.29,4.92,-1.03,-4.53
18.23871994018555,2,3,3,2,-9.109999999999999,0.87,2.32,5.04,-1.08,-4.39
18.2487199306488,2,3,3,2,-9.109999999999999,0.87,2.32,5.04,-1.08,-4.39
18.25871992111206,2,3,3,2,-9.09,0.99,2.49,5.12,-1.2,-4.43
18.2687201499939,2,3,3,2,-9.109999999999999,0.62,2.24,5,-1.35,-4.85
18.27872014045715,2,3,3,2,-9.15,0.42,2.5,4.77,-1.38,-5.05
18.28872013092041,2,3,3,2,-9.23,0.21,2.77,4.54,-1.27,-5.11
18.29872012138367,2,3,3,2,-9.23,0.21,2.77,4.54,-1.27,-5.11
18.30872011184692,2,3,3,2,-9.31,0.08,2.77,4.22,-0.79,-5.05
18.31872010231018,2,3,3,2,-9.67,0.72,2.14,3.13,1.43,-4.59
18.32872009277344,2,3,3,2,-9.98,1.01,2.55,3.66,2.33,-4.1
18.33872008323669,2,3,3,2,-10.25,1.21,3.22,4.65,2.13,-3.61
18.34872007369995,2,3,3,2,-10.25,1.21,3.22,4.65,2.13,-3.61
18.35872006416321,2,3,3,2,-10.62,0.64,4.47,5.51,0.12,-3.08
18.36872005462646,2,3,3,2,-11.27,0.27,5.68,6.18,-0.42,-2.73
18.37872004508972,2,3,3,2,-11.23,0.36,4.82,6.16,-0.79,-2.07
18.38872003555298,2,3,3,2,-11.06,0.96,3.42,3.95,0.43,-1.16
18.39872002601624,2,3,3,2,-11.06,0.96,3.42,3.95,0.43,-1.16
18.40872001647949,2,3,3,2,-11.33,1.14,3.46,1.88,3.47,-0.31
18.41872000694275,2,3,3,2,-12.95,-0.11,1.69,-1.46,8.43,0.52
18.42871999740601,2,3,3,2,-13.62,-0.65,0.99,-2.47,9.9,0.55
18.43871998786926,2,3,3,2,-14.15,-1.43,0.63,-3.23,10.82,0.74
18.44871997833252,2,3,3,2,-14.15,-1.43,0.63,-3.23,10.82,0.74
18.45871996879578,2,3,3,2,-14.38,-2.43,0.86,-4.03,9.9,0.77
18.46871995925903,2,3,3,2,-12.76,-5.68,0.15,-4.46,8.550000000000001,0.82
18.47871994972229,2,3,3,2,-11.64,-6.5,0.1,-4.5,7.47,0.82
18.48871994018555,2,3,3,2,-10.47,-6.92,0.16,-3.86,5.66,1.28
18.4987199306488,2,3,3,2,-10.47,-6.92,0.16,-3.86,5.66,1.28
18.50871992111206,2,3,3,2,-8.42,-7.09,0.68,-2.72,3.42,1.81
18.5187201499939,2,3,3,2,-8,-6.25,1.18,0.6899999999999999,3.52,4.89
18.52872014045715,2,3,3,2,-8.25,-5.42,1.36,4.17,4.95,6.14
18.53872013092041,2,3,3,2,-8.81,-3.59,1.67,7.35,4.85,7.1
18.54872012138367,2,3,3,2,-8.81,-3.59,1.67,7.35,4.85,7.1
18.55872011184692,2,3,3,2,-8.91,-2.61,1.77,10.29,3.26,8.06
18.56872010231018,2,3,3,2,-9.199999999999999,-0.65,2.58,10.71,1.61,7.95
18.57872009277344,2,3,3,2,-9.44,0.63,3.15,10.43,-0.84,7.32
18.58872008323669,2,3,3,2,-9.68,0.68,2.99,8.33,-2.97,6.38
18.59872007369995,2,3,3,2,-9.68,0.68,2.99,8.33,-2.97,6.38
18.60872006416321,2,3,3,2,-10.04,0.49,2.83,2.52,-4.67,4.25
18.61872005462646,2,3,3,2,-10.52,-0.11,2.12,-0.5,-6.57,2.62
18.62872004508972,2,3,3,2,-10.58,-0.32,1.89,-0.5,-6.57,2.62
18.63872003555298,2,3,3,2,-10.63,-0.54,1.87,-2.29,-8.92,1.99
18.64872002601624,2,3,3,2,-10.63,-0.44,1.81,-2.29,-8.92,1.99
18.65872001647949,2,3,3,2,-9.93,-0.63,1.92,-3.53,-10.39,2.16
18.66872000694275,2,3,3,2,-9.279999999999999,-0.4,1.99,-4.55,-11.99,2.18
18.67871999740601,2,3,3,2,-8.460000000000001,-0.14,1.77,-5.51,-12.16,2.4
18.68871998786926,2,3,3,2,-7.61,-0.08,1.69,-6.6,-11.36,2.64
18.69871997833252,2,3,3,2,-6.52,-0.27,2.26,-6.6,-11.36,2.64
18.70871996879578,2,3,3,2,-6.61,-0.42,2.69,-7.26,-9.130000000000001,3.17
18.71871995925903,2,3,3,2,-6.76,-0.63,3.07,-7.66,-8.51,3.95
18.72871994972229,2,3,3,2,-6.95,-1.01,3.12,-7.65,-8.32,4.34
18.73871994018555,2,3,3,2,-7.29,-1.63,2.99,-7.11,-7.56,4.66
18.7487199306488,2,3,3,2,-7.67,-1.52,3.14,-7.11,-7.56,4.66
18.75871992111206,2,3,3,2,-7.69,-1.27,2.99,-6.7,-7.22,4.84
18.7687201499939,2,3,3,2,-7.77,-1.11,2.8,-6.27,-6.43,4.91
18.77872014045715,2,3,3,2,-8.17,-0.35,2.84,-5.85,-5.52,4.6
18.78872013092041,2,3,3,2,-8.210000000000001,-0.05,2.88,-5.85,-5.52,4.6
18.79872012138367,2,3,3,2,-8.26,0.26,3.1,-5.85,-5.52,4.6
18.80872011184692,2,3,3,2,-8.369999999999999,0.28,3.57,-6.68,-5.15,4.05
18.81872010231018,2,3,3,2,-8.359999999999999,0.38,3.58,-7.81,-5.1,3.54
18.82872009277344,2,3,3,2,-8.43,0.37,3.46,-8.109999999999999,-4.05,2.95
18.83872008323669,2,3,3,2,-8.380000000000001,0.41,3.31,-7.96,-2.83,2.21
18.84872007369995,2,3,3,2,-8.31,0.62,3.27,-7.96,-2.83,2.21
18.85872006416321,2,3,3,2,-8.17,0.78,3.3,-7.6,-1.96,1.28
18.86872005462646,2,3,3,2,-7.9,0.76,3.25,-7.18,-0.25,-0.65
18.87872004508972,2,3,3,2,-7.57,0.77,3.01,-6.43,1.06,-1.46
18.88872003555298,2,3,3,2,-7.12,0.65,3.12,-5.57,2.18,-2.12
18.89872002601624,2,3,3,2,-7,0.61,3.26,-5.57,2.18,-2.12
18.90872001647949,2,3,3,2,-6.84,0.7,3.29,-5.02,3.18,-2.53
18.91872000694275,2,3,3,2,-6.66,0.75,3.32,-3.75,5.28,-2.5
18.92971992492676,2,3,3,2,-7,0.86,3.71,-3.04,5.2,-1.96
18.93971991539001,2,3,3,2,-7.3,1.14,4,-2.45,4.69,-1.23
18.94972014427185,2,3,3,2,-7.52,1.38,4.35,-2.45,4.69,-1.23
18.95972013473511,2,3,3,2,-7.98,1.47,4.69,-2.04,4.13,-0.17
18.96972012519836,2,3,3,2,-8.16,1.37,4.57,-4.38,3.45,2.32
18.97972011566162,2,3,3,2,-8.31,1.02,4.31,-7.61,3.54,2.95
18.98972010612488,2,3,3,2,-8.449999999999999,0.31,4,-11.92,3.83,2.33
18.99972009658813,2,3,3,2,-8.68,-2.07,3.48,-11.92,3.83,2.33
19.00972008705139,2,3,3,2,-8.970000000000001,-3.25,2.51,-15.69,4.49,0.43
19.01972007751465,2,3,3,2,-9.539999999999999,-3.85,0.23,-13.61,8.970000000000001,-3.32
19.02972006797791,2,3,3,2,-11.45,-3.87,-0.38,-0.6899999999999999,4.17,-2.85
19.03972005844116,2,3,3,2,-16.03,-0.64,4.31,10.6,-5.26,-1.35
19.04972004890442,2,3,3,2,-14.82,1.26,5.14,10.6,-5.26,-1.35
19.05972003936768,2,3,3,2,-11.56,2.71,5.47,15.13,-10.57,1.22
19.06972002983093,2,3,3,2,-9.07,3.27,6.54,8.210000000000001,-8.07,8.029999999999999
19.07972002029419,2,3,3,2,-8.19,3.36,7.92,0.9399999999999999,-4.13,11.03
19.08972001075745,2,3,3,2,-9.050000000000001,3.43,7.01,-2.73,-0.64,13.07
19.0997200012207,2,3,3,2,-10.81,4.06,6.97,-2.73,-0.64,13.07
19.10971999168396,2,3,3,2,-13.54,4.25,8.27,-6.72,-1.28,12.9
19.11971998214722,2,3,3,2,-18.02,0.18,4.14,-16.67,-0.4,2.73
19.12971997261047,2,3,3,2,-20.39,-2.15,0.5600000000000001,-8.6,3.46,-4.52
19.13971996307373,2,3,3,2,-21.55,-2.74,-0.98,-0.53,-0.63,-9.279999999999999
19.14971995353699,2,3,3,2,-14.74,-3.78,2.13,-0.53,-0.63,-9.279999999999999
19.15971994400024,2,3,3,2,-10.41,-4.79,3.67,1.23,-11.14,-10.25
19.1697199344635,2,3,3,2,-6.34,-5.23,4.49,1.23,-12.75,-5.76
19.17971992492676,2,3,3,2,-3.31,-4.96,4.41,1.36,-5.7,-2.69
19.18971991539001,2,3,3,2,-2.49,-4,2.79,0.6899999999999999,-0.12,0.2
19.19972014427185,2,3,3,2,-4.18,-3.16,2.73,0.6899999999999999,-0.12,0.2
19.20972013473511,2,3,3,2,-6.49,-2.08,2.62,0.08,4.01,1.17
19.21972012519836,2,3,3,2,-8.25,-1.3,2.05,-0.84,7.71,0.74
19.22972011566162,2,3,3,2,-9.880000000000001,-1.24,0.67,-1.54,7.4,-0.24
19.23972010612488,2,3,3,2,-10.16,-1.88,0.4,-1.94,5.12,-1.28
19.24972009658813,2,3,3,2,-10.19,-2.5,0.42,-1.94,5.12,-1.28
19.25972008705139,2,3,3,2,-10.07,-3.01,0.72,-2.26,1.72,-1.54
19.26972007751465,2,3,3,2,-9.210000000000001,-3.37,1.41,-2.22,-1.72,-0.12
19.27972006797791,2,3,3,2,-8.449999999999999,-3.33,1.56,-1.32,-0.76,0.38
19.28972005844116,2,3,3,2,-7.86,-3.17,1.85,-0.27,0.99,0.7
19.29972004890442,2,3,3,2,-7.46,-2.96,2.06,-0.27,0.99,0.7
19.30972003936768,2,3,3,2,-7.22,-2.45,2.38,0.4,2.78,0.84
19.31972002983093,2,3,3,2,-7.43,-2.39,2.5,1.44,5.16,0.58
19.32972002029419,2,3,3,2,-7.73,-2.51,2.39,2.41,5.63,0.27
19.33972001075745,2,3,3,2,-7.8,-2.51,1.61,3.81,6.02,-0.2
19.3497200012207,2,3,3,2,-7.72,-2.39,1.41,3.81,6.02,-0.2
19.35971999168396,2,3,3,2,-7.69,-2.47,1.36,5.74,5.97,-0.82
19.36971998214722,2,3,3,2,-7.73,-2.32,1.35,8.369999999999999,4.92,-1.93
19.37971997261047,2,3,3,2,-8.19,-1.67,1.44,8.609999999999999,4.24,-2.45
19.38971996307373,2,3,3,2,-8.529999999999999,-1.37,1.71,8.26,3.96,-2.8
