timestamp,magCalib,accCalib,gyrCalib,sysCalib,accX,accY,accZ,gyrX,gyrY,gyrZ
0.04972004890441895,2,3,3,0,-9.619999999999999,1.52,1.37,-0.68,0.27,-0.65
0.05972003936767578,2,3,3,0,-9.68,1.4,1.47,-0.85,0.43,-0.5
0.06972002983093262,2,3,3,0,-9.73,1.37,1.53,-0.6899999999999999,0.53,-0.26
0.08071994781494141,2,3,3,0,-9.73,1.37,1.53,-0.43,0.61,-0.03
0.09071993827819824,2,3,3,0,-9.77,1.4,1.39,-0.15,0.62,0.2
0.1007199287414551,2,3,3,0,-9.77,1.44,1.32,0.14,0.62,0.46
0.1107199192047119,2,3,3,0,-9.73,1.48,1.34,0.42,0.54,0.6899999999999999
0.1207201480865479,2,3,3,0,-9.699999999999999,1.5,1.36,0.59,0.33,0.91
0.1307201385498047,2,3,3,0,-9.699999999999999,1.5,1.36,0.79,0.17,1.03
0.1407201290130615,2,3,3,0,-9.59,1.61,1.43,0.85,0.03,1.13
0.1507201194763184,2,3,3,0,-9.529999999999999,1.67,1.33,0.8,-0.06,1.2
0.1607201099395752,2,3,3,0,-9.470000000000001,1.71,1.32,0.75,-0.03,1.14
0.170720100402832,2,3,3,0,-9.449999999999999,1.68,1.36,0.68,0.1,1.1
0.1807200908660889,2,3,3,0,-9.449999999999999,1.68,1.36,0.68,0.1,1.1
0.1907200813293457,2,3,3,0,-9.470000000000001,1.68,1.43,0.6,0.31,1.03
0.2007200717926025,2,3,3,0,-9.5,1.69,1.41,0.35,0.58,0.8100000000000001
0.2107200622558594,2,3,3,0,-9.51,1.67,1.44,0.28,0.61,0.65
0.2207200527191162,2,3,3,0,-9.52,1.68,1.43,0.24,0.61,0.57
0.230720043182373,2,3,3,0,-9.52,1.68,1.43,0.21,0.58,0.5
0.2407200336456299,2,3,3,0,-9.52,1.62,1.43,0.21,0.5600000000000001,0.45
0.2507200241088867,2,3,3,0,-9.57,1.64,1.29,0.17,0.5600000000000001,0.43
0.2607200145721436,2,3,3,0,-9.57,1.61,1.34,0.13,0.5600000000000001,0.43
0.2707200050354004,2,3,3,0,-9.57,1.62,1.38,0.1,0.59,0.46
0.2807199954986572,2,3,3,0,-9.57,1.62,1.38,0.03,0.62,0.52
0.2907199859619141,2,3,3,0,-9.67,1.59,1.43,0.07000000000000001,0.63,0.55
0.3007199764251709,2,3,3,0,-9.65,1.58,1.29,0.1,0.6,0.61
0.3107199668884277,2,3,3,0,-9.65,1.56,1.3,0.12,0.5600000000000001,0.68
0.3207199573516846,2,3,3,0,-9.699999999999999,1.59,1.37,0.22,0.48,0.75
0.3307199478149414,2,3,3,0,-9.699999999999999,1.59,1.37,0.22,0.48,0.75
0.3407199382781982,2,3,3,0,-9.66,1.63,1.4,0.33,0.37,0.77
0.3507199287414551,2,3,3,0,-9.529999999999999,1.65,1.28,0.45,0.16,0.86
0.3607199192047119,2,3,3,0,-9.51,1.65,1.39,0.39,0.16,0.82
0.3707201480865479,2,3,3,0,-9.51,1.65,1.39,0.26,0.15,0.71
0.3807201385498047,2,3,3,0,-9.529999999999999,1.66,1.42,0.26,0.15,0.71
0.3907201290130615,2,3,3,0,-9.539999999999999,1.68,1.4,0.21,0.2,0.64
0.4007201194763184,2,3,3,0,-9.56,1.66,1.39,0.11,0.3,0.4
0.4107201099395752,2,3,3,0,-9.6,1.65,1.27,0.12,0.31,0.31
0.420720100402832,2,3,3,0,-9.6,1.63,1.35,0.21,0.31,0.27
0.4307200908660889,2,3,3,0,-9.58,1.64,1.35,0.21,0.31,0.27
0.4407200813293457,2,3,3,0,-9.6,1.74,1.37,0.38,0.18,0.25
0.4507200717926025,2,3,3,0,-9.57,1.76,1.34,0.44,-0.02,0.22
0.4607200622558594,2,3,3,0,-9.56,1.82,1.21,0.4,-0.01,0.21
0.4707200527191162,2,3,3,0,-9.51,1.85,1.27,0.27,0.06,0.17
0.480720043182373,2,3,3,0,-9.5,1.8,1.34,0.13,0.16,0.13
0.4907200336456299,2,3,3,0,-9.51,1.79,1.4,-0.07000000000000001,0.21,0.08
0.5007200241088867,2,3,3,0,-9.52,1.78,1.4,-0.21,0.27,0.04
0.5107200145721436,2,3,3,0,-9.529999999999999,1.75,1.29,-0.24,0.34,-0.02
0.5207200050354004,2,3,3,0,-9.619999999999999,1.76,1.33,-0.21,0.41,-0.03
0.5307199954986572,2,3,3,0,-9.609999999999999,1.76,1.33,-0.21,0.41,-0.03
0.5407199859619141,2,3,3,0,-9.619999999999999,1.74,1.34,-0.12,0.39,0.01
0.5507199764251709,2,3,3,0,-9.630000000000001,1.73,1.32,0.16,0.25,0.13
0.5607199668884277,2,3,3,0,-9.6,1.78,1.22,0.2,0.16,0.19
0.5707199573516846,2,3,3,0,-9.59,1.8,1.25,0.19,0.1,0.21
0.5807199478149414,2,3,3,0,-9.58,1.82,1.3,0.18,0.07000000000000001,0.17
0.5907199382781982,2,3,3,0,-9.609999999999999,1.84,1.33,0.16,0.04,0.14
0.6007199287414551,2,3,3,0,-9.56,1.83,1.29,0.15,0.06,0.09
0.6107199192047119,2,3,3,0,-9.539999999999999,1.8,1.23,0.12,0.11,0.03
0.6207201480865479,2,3,3,0,-9.539999999999999,1.83,1.28,0.1,0.16,-0.06
0.6307201385498047,2,3,3,0,-9.56,1.82,1.37,0.1,0.16,-0.06
0.6407201290130615,2,3,3,0,-9.57,1.82,1.37,0.06,0.13,-0.14
0.6507201194763184,2,3,3,0,-9.57,1.82,1.36,0.11,0.13,-0.18
0.6607201099395752,2,3,3,0,-9.59,1.84,1.26,0.13,0.09,-0.19
0.670720100402832,2,3,3,0,-9.6,1.8,1.3,0.1,0.06,-0.19
0.6807200908660889,2,3,3,0,-9.58,1.82,1.36,0.1,0.06,-0.19
0.6907200813293457,2,3,3,0,-9.619999999999999,1.81,1.35,0.21,-0.04,-0.12
0.7007200717926025,2,3,3,0,-9.609999999999999,1.86,1.35,0.27,-0.1,-0.11
0.7107200622558594,2,3,3,0,-9.619999999999999,1.87,1.23,0.26,-0.18,-0.08
0.7207200527191162,2,3,3,0,-9.6,1.91,1.28,0.27,-0.27,-0.09
0.730720043182373,2,3,3,0,-9.58,1.93,1.29,0.27,-0.27,-0.09
0.7407200336456299,2,3,3,0,-9.619999999999999,1.97,1.31,0.2,-0.37,-0.07000000000000001
0.7507200241088867,2,3,3,0,-9.58,1.93,1.29,0.14,-0.4,-0.12
0.7607200145721436,2,3,3,0,-9.609999999999999,1.99,1.22,0.15,-0.43,-0.13
0.7707200050354004,2,3,3,0,-9.609999999999999,1.95,1.26,0.24,-0.45,-0.13
0.7807199954986572,2,3,3,0,-9.57,2,1.25,0.24,-0.45,-0.13
0.7907199859619141,2,3,3,0,-9.52,2.06,1.27,0.3,-0.41,-0.13
0.8007199764251709,2,3,3,0,-9.5,2.02,1.32,0.24,-0.35,-0.11
0.8107199668884277,2,3,3,0,-9.539999999999999,1.96,1.31,0.13,-0.26,-0.09
0.8207199573516846,2,3,3,0,-9.529999999999999,1.96,1.32,0.1,-0.22,-0.07000000000000001
0.8307199478149414,2,3,3,0,-9.550000000000001,1.93,1.33,0.03,-0.2,-0.07000000000000001
0.8407199382781982,2,3,3,0,-9.56,1.93,1.37,-0.04,-0.12,-0.05
0.8507199287414551,2,3,3,0,-9.6,1.88,1.42,-0.05,0.05,0
0.8607199192047119,2,3,3,0,-9.6,1.89,1.29,0.02,-0.11,0.13
0.8707201480865479,2,3,3,0,-9.57,1.89,1.29,0.02,-0.11,0.13
0.8807201385498047,2,3,3,0,-9.539999999999999,1.94,1.34,0.13,-0.22,0.23
0.8907201290130615,2,3,3,0,-9.539999999999999,1.94,1.3,0.15,-0.37,0.34
0.9007201194763184,2,3,3,0,-9.5,1.95,1.31,0.14,-0.45,0.43
0.9107201099395752,2,3,3,0,-9.529999999999999,1.94,1.29,0.12,-0.45,0.49
0.920720100402832,2,3,3,0,-9.550000000000001,1.91,1.28,0.07000000000000001,-0.36,0.5600000000000001
0.9307200908660889,2,3,3,0,-9.51,1.91,1.32,0.05,-0.19,0.5600000000000001
0.9407200813293457,2,3,3,0,-9.539999999999999,1.87,1.38,-0.01,0.06,0.52
0.9507200717926025,2,3,3,0,-9.550000000000001,1.88,1.41,-0.04,0.2,0.47
0.9607200622558594,2,3,3,0,-9.57,1.86,1.33,-0.07000000000000001,0.27,0.43
0.9707200527191162,2,3,3,0,-9.58,1.87,1.31,-0.03,0.22,0.33
0.980720043182373,2,3,3,0,-9.56,1.9,1.31,0.06,0.16,0.32
0.9907200336456299,2,3,3,0,-9.57,1.88,1.34,0.09,0.07000000000000001,0.33
1.000720024108887,2,3,3,0,-9.57,1.92,1.37,0.09,0.08,0.32
1.010720014572144,2,3,3,0,-9.58,1.86,1.26,0.06,0,0.3
1.0207200050354,2,3,3,0,-9.550000000000001,1.87,1.31,0,-0.04,0.27
1.030719995498657,2,3,3,0,-9.550000000000001,1.85,1.33,0,-0.01,0.27
1.040719985961914,2,3,3,0,-9.539999999999999,1.82,1.35,-0.02,0,0.23
1.050719976425171,2,3,3,0,-9.529999999999999,1.85,1.35,0.04,0.01,0.25
1.060719966888428,2,3,3,0,-9.550000000000001,1.84,1.27,0.1,0,0.27
1.070719957351685,2,3,3,0,-9.550000000000001,1.84,1.34,0.14,0,0.25
1.080719947814941,2,3,3,0,-9.56,1.84,1.38,0.13,0.03,0.29
1.090719938278198,2,3,3,0,-9.58,1.86,1.38,0.15,0.07000000000000001,0.29
1.101720094680786,2,3,3,0,-9.57,1.85,1.35,0.22,0.04,0.35
1.111720085144043,2,3,3,0,-9.56,1.9,1.31,0.23,0.02,0.35
1.1217200756073,2,3,3,0,-9.56,1.89,1.31,0.2,-0.02,0.34
1.131720066070557,2,3,3,0,-9.539999999999999,1.87,1.36,0.17,-0.09,0.31
1.141720056533813,2,3,3,0,-9.550000000000001,1.87,1.39,0.1,-0.12,0.27
1.15172004699707,2,3,3,0,-9.529999999999999,1.88,1.39,0.07000000000000001,-0.14,0.25
1.161720037460327,2,3,3,0,-9.550000000000001,1.85,1.34,0,-0.17,0.23
1.171720027923584,2,3,3,0,-9.51,1.88,1.33,0.07000000000000001,-0.19,0.17
1.181720018386841,2,3,3,0,-9.51,1.9,1.35,0.07000000000000001,-0.2,0.12
1.191720008850098,2,3,3,0,-9.51,1.9,1.36,0.07000000000000001,-0.18,0.08
1.201719999313354,2,3,3,0,-9.51,1.88,1.3,0.05,-0.12,0.05
1.211719989776611,2,3,3,0,-9.5,1.89,1.25,0.04,-0.09,0.01
1.221719980239868,2,3,3,0,-9.5,1.87,1.32,-0.02,-0.07000000000000001,-0.06
1.231719970703125,2,3,3,0,-9.529999999999999,1.88,1.34,-0.07000000000000001,-0.04,-0.09
1.241719961166382,2,3,3,0,-9.57,1.84,1.4,-0.19,0.01,-0.21
1.251719951629639,2,3,3,0,-9.59,1.8,1.39,-0.19,0.01,-0.21
1.261719942092896,2,3,3,0,-9.57,1.8,1.31,-0.16,-0.04,-0.25
1.271719932556152,2,3,3,0,-9.550000000000001,1.82,1.34,-0.11,-0.08,-0.21
1.281719923019409,2,3,3,0,-9.56,1.8,1.38,-0.06,-0.13,-0.18
1.291719913482666,2,3,3,0,-9.539999999999999,1.85,1.43,0.04,-0.15,-0.16
1.301720142364502,2,3,3,0,-9.56,1.85,1.39,0.06,-0.19,-0.15
1.311720132827759,2,3,3,0,-9.56,1.85,1.3,0,-0.19,-0.16
1.321720123291016,2,3,3,0,-9.57,1.87,1.33,0.03,-0.17,-0.2
1.331720113754272,2,3,3,0,-9.56,1.87,1.39,0.02,-0.13,-0.25
1.341720104217529,2,3,3,0,-9.51,1.85,1.43,0.02,-0.09,-0.28
1.351720094680786,2,3,3,0,-9.51,1.84,1.43,-0.01,-0.09,-0.33
1.361720085144043,2,3,3,0,-9.529999999999999,1.86,1.33,-0.05,-0.15,-0.35
1.3717200756073,2,3,3,0,-9.539999999999999,1.87,1.35,-0.05,-0.14,-0.36
1.381720066070557,2,3,3,0,-9.550000000000001,1.87,1.39,-0.03,-0.11,-0.41
1.391720056533813,2,3,3,0,-9.529999999999999,1.86,1.38,-0.02,-0.06,-0.39
1.40172004699707,2,3,3,0,-9.58,1.87,1.37,-0.04,-0.05,-0.41
1.411720037460327,2,3,3,0,-9.58,1.85,1.32,-0.05,-0.05,-0.4
1.421720027923584,2,3,3,0,-9.57,1.87,1.35,-0.02,-0.1,-0.38
1.431720018386841,2,3,3,0,-9.58,1.89,1.38,0,-0.15,-0.31
1.441720008850098,2,3,3,0,-9.539999999999999,1.89,1.41,0.01,-0.19,-0.3
1.451719999313354,2,3,3,0,-9.529999999999999,1.87,1.37,0.03,-0.2,-0.27
1.461719989776611,2,3,3,0,-9.5,1.87,1.29,0.03,-0.16,-0.21
1.471719980239868,2,3,3,0,-9.529999999999999,1.88,1.4,-0.01,-0.12,-0.19
1.481719970703125,2,3,3,0,-9.56,1.87,1.4,0.02,-0.1,-0.2
1.491719961166382,2,3,3,0,-9.550000000000001,1.87,1.41,0.01,-0.08,-0.2
1.501719951629639,2,3,3,0,-9.550000000000001,1.87,1.4,0.05,-0.05,-0.21
1.511719942092896,2,3,3,0,-9.529999999999999,1.87,1.33,0.04,-0.04,-0.24
1.521719932556152,2,3,3,0,-9.550000000000001,1.89,1.37,-0.05,-0.06,-0.25
1.531719923019409,2,3,3,0,-9.57,1.87,1.36,-0.07000000000000001,-0.06,-0.27
1.541719913482666,2,3,3,0,-9.57,1.87,1.37,-0.09,-0.03,-0.25
1.551720142364502,2,3,3,0,-9.539999999999999,1.81,1.34,-0.11,0.03,-0.24
1.561720132827759,2,3,3,0,-9.57,1.83,1.29,-0.06,0.07000000000000001,-0.22
1.571720123291016,2,3,3,0,-9.58,1.8,1.33,-0.06,0.06,-0.18
1.581720113754272,2,3,3,0,-9.550000000000001,1.77,1.36,-0.03,0.02,-0.13
1.591720104217529,2,3,3,0,-9.56,1.79,1.42,0.03,0.01,-0.1
1.601720094680786,2,3,3,0,-9.539999999999999,1.78,1.4,0.04,-0.02,-0.09
1.611720085144043,2,3,3,0,-9.52,1.8,1.31,0.09,-0.05,-0.09
1.6217200756073,2,3,3,0,-9.529999999999999,1.83,1.37,0.07000000000000001,-0.06,-0.11
1.631720066070557,2,3,3,0,-9.57,1.82,1.41,0.09,-0.06,-0.11
1.641720056533813,2,3,3,0,-9.539999999999999,1.82,1.4,0.07000000000000001,-0.06,-0.14
1.65172004699707,2,3,3,0,-9.529999999999999,1.86,1.4,0.03,-0.03,-0.17
1.661720037460327,2,3,3,0,-9.56,1.82,1.3,0.01,-0.06,-0.16
1.671720027923584,2,3,3,0,-9.57,1.84,1.38,0.04,-0.03,-0.18
1.681720018386841,2,3,3,0,-9.57,1.86,1.38,0.04,-0.13,-0.2
1.691720008850098,2,3,3,0,-9.550000000000001,1.84,1.41,0.03,-0.15,-0.23
1.701719999313354,2,3,3,0,-9.529999999999999,1.87,1.36,0.07000000000000001,-0.1,-0.21
1.711719989776611,2,3,3,0,-9.529999999999999,1.87,1.28,0.04,-0.07000000000000001,-0.2
1.721719980239868,2,3,3,0,-9.52,1.84,1.32,0.03,0.08,-0.17
1.731719970703125,2,3,3,0,-9.52,1.82,1.39,-0.04,0.17,-0.14
1.741719961166382,2,3,3,0,-9.57,1.83,1.44,-0.09,0.21,-0.13
1.751719951629639,2,3,3,0,-9.58,1.77,1.42,-0.12,0.17,-0.13
1.761719942092896,2,3,3,0,-9.6,1.73,1.33,-0.1,0.1,-0.14
1.771719932556152,2,3,3,0,-9.58,1.73,1.38,-0.03,0.07000000000000001,-0.17
1.781719923019409,2,3,3,0,-9.57,1.73,1.45,-0.02,-0.04,-0.15
1.791719913482666,2,3,3,0,-9.58,1.75,1.41,0.01,-0.1,-0.1
1.801720142364502,2,3,3,0,-9.6,1.74,1.45,0.15,-0.12,-0.05
1.811720132827759,2,3,3,0,-9.58,1.77,1.34,0.16,-0.08,-0.04
1.821720123291016,2,3,3,0,-9.539999999999999,1.76,1.37,0.16,-0.06,-0.06
1.831720113754272,2,3,3,0,-9.51,1.76,1.4,0.09,-0.04,-0.06
1.841720104217529,2,3,3,0,-9.52,1.77,1.49,-0.02,0.02,-0.09
1.851720094680786,2,3,3,0,-9.529999999999999,1.74,1.41,-0.02,0.06,-0.13
1.861720085144043,2,3,3,0,-9.529999999999999,1.74,1.4,0,0.04,-0.19
1.8717200756073,2,3,3,0,-9.539999999999999,1.71,1.43,0.02,0.08,-0.24
1.881720066070557,2,3,3,0,-9.56,1.7,1.44,0.01,0.03,-0.29
1.891720056533813,2,3,3,0,-9.640000000000001,1.67,1.43,0.02,0.01,-0.33
1.90172004699707,2,3,3,0,-9.619999999999999,1.71,1.45,0.06,0.03,-0.34
1.911720037460327,2,3,3,0,-9.59,1.76,1.38,0.1,-0.03,-0.4
1.921720027923584,2,3,3,0,-9.57,1.75,1.38,0.09,-0.1,-0.36
1.931720018386841,2,3,3,0,-9.529999999999999,1.73,1.42,0.06,-0.12,-0.36
1.941720008850098,2,3,3,0,-9.529999999999999,1.77,1.46,0.03,-0.12,-0.35
1.951719999313354,2,3,3,0,-9.56,1.74,1.49,-0.02,-0.11,-0.33
1.961719989776611,2,3,3,0,-9.56,1.73,1.41,-0.01,-0.07000000000000001,-0.33
1.971719980239868,2,3,3,0,-9.57,1.69,1.4,-0.01,-0.01,-0.28
1.981719970703125,2,3,3,0,-9.59,1.7,1.47,-0.03,0,-0.26
1.991719961166382,2,3,3,0,-9.58,1.7,1.5,0.03,0.03,-0.2
2.001719951629639,2,3,3,0,-9.609999999999999,1.7,1.4,0.09,-0.08,-0.12
2.011719942092896,2,3,3,0,-9.619999999999999,1.7,1.33,0.18,-0.16,-0.1
2.021719932556152,2,3,3,0,-9.609999999999999,1.7,1.4,0.2,-0.2,-0.08
2.031719923019409,2,3,3,0,-9.6,1.73,1.42,0.19,-0.2,-0.05
2.041719913482666,2,3,3,0,-9.57,1.73,1.48,0.14,-0.17,-0.04
2.051720142364502,2,3,3,0,-9.529999999999999,1.72,1.46,0.15,-0.15,-0.04
2.061720132827759,2,3,3,0,-9.5,1.74,1.38,0.13,-0.12,-0.01
2.071720123291016,2,3,3,0,-9.52,1.75,1.44,0.1,-0.12,-0.02
2.081720113754272,2,3,3,0,-9.539999999999999,1.74,1.44,0.1,-0.14,-0.03
2.091720104217529,2,3,3,0,-9.550000000000001,1.73,1.46,0.12,-0.13,-0.03
2.101720094680786,2,3,3,0,-9.56,1.72,1.45,0.12,-0.09,-0.08
2.111720085144043,2,3,3,0,-9.609999999999999,1.73,1.37,0.15,-0.07000000000000001,-0.11
2.122720003128052,2,3,3,0,-9.619999999999999,1.72,1.44,0.19,-0.16,-0.1
2.132719993591309,2,3,3,0,-9.609999999999999,1.75,1.43,0.24,-0.26,-0.09
2.142719984054565,2,3,3,0,-9.57,1.76,1.5,0.22,-0.27,-0.11
2.152719974517822,2,3,3,0,-9.539999999999999,1.76,1.47,0.19,-0.26,-0.13
2.162719964981079,2,3,3,0,-9.52,1.76,1.38,0.15,-0.3,-0.15
2.172719955444336,2,3,3,0,-9.529999999999999,1.74,1.48,0.1,-0.27,-0.22
2.182719945907593,2,3,3,0,-9.56,1.77,1.5,0.06,-0.22,-0.25
2.19271993637085,2,3,3,0,-9.539999999999999,1.74,1.52,0.08,-0.21,-0.27
2.202719926834106,2,3,3,0,-9.529999999999999,1.75,1.44,0.1,-0.15,-0.29
2.212719917297363,2,3,3,0,-9.539999999999999,1.76,1.37,0.13,-0.14,-0.31
2.222720146179199,2,3,3,0,-9.550000000000001,1.78,1.4,0.15,-0.09,-0.3
2.232720136642456,2,3,3,0,-9.57,1.77,1.46,0.17,-0.12,-0.32
2.242720127105713,2,3,3,0,-9.59,1.79,1.47,0.2,-0.13,-0.29
2.25272011756897,2,3,3,0,-9.550000000000001,1.78,1.5,0.22,-0.17,-0.31
2.262720108032227,2,3,3,0,-9.57,1.81,1.38,0.2,-0.24,-0.33
2.272720098495483,2,3,3,0,-9.529999999999999,1.85,1.44,0.16,-0.31,-0.32
2.28272008895874,2,3,3,0,-9.529999999999999,1.85,1.48,0.12,-0.31,-0.35
2.292720079421997,2,3,3,0,-9.539999999999999,1.84,1.49,0.09,-0.24,-0.36
2.302720069885254,2,3,3,0,-9.56,1.79,1.5,0.06,-0.22,-0.38
2.312720060348511,2,3,3,0,-9.59,1.78,1.37,0.06,-0.09,-0.39
2.322720050811768,2,3,3,0,-9.609999999999999,1.77,1.44,0.05,0.05,-0.39
2.332720041275024,2,3,3,0,-9.6,1.74,1.44,0.07000000000000001,0.05,-0.36
2.342720031738281,2,3,3,0,-9.6,1.76,1.5,0.07000000000000001,0.01,-0.32
2.352720022201538,2,3,3,0,-9.58,1.76,1.43,0.07000000000000001,-0.08,-0.25
2.392719984054565,2,3,3,0,-9.529999999999999,1.81,1.47,0.21,-0.23,-0.01
2.402719974517822,2,3,3,0,-9.49,1.83,1.48,0.19,-0.16,0
2.412719964981079,2,3,3,0,-9.51,1.81,1.39,0.15,-0.03,0.01
2.422719955444336,2,3,3,0,-9.57,1.77,1.44,0.07000000000000001,0.05,-0.03
2.432719945907593,2,3,3,0,-9.59,1.77,1.49,0.04,0.08,-0.05
2.44271993637085,2,3,3,0,-9.58,1.76,1.5,-0.04,0.07000000000000001,-0.03
2.452719926834106,2,3,3,0,-9.58,1.76,1.53,0.01,0.04,-0.03
2.462719917297363,2,3,3,0,-9.539999999999999,1.76,1.42,0.05,0.01,-0.04
2.472720146179199,2,3,3,0,-9.539999999999999,1.75,1.5,0.08,-0.03,0.01
2.482720136642456,2,3,3,0,-9.550000000000001,1.76,1.46,0.1,-0.04,-0.02
2.492720127105713,2,3,3,0,-9.6,1.75,1.52,0.07000000000000001,-0.07000000000000001,0.01
2.50272011756897,2,3,3,0,-9.6,1.75,1.46,0.05,-0.05,-0.01
2.512720108032227,2,3,3,0,-9.550000000000001,1.74,1.4,0.1,-0.04,-0.03
2.522720098495483,2,3,3,0,-9.539999999999999,1.74,1.41,0.15,0.02,-0.02
2.53272008895874,2,3,3,0,-9.56,1.72,1.49,0.12,0.08,-0.03
2.542720079421997,2,3,3,0,-9.56,1.76,1.5,0.14,0.05,-0.04
2.552720069885254,2,3,3,0,-9.56,1.76,1.5,0.13,0.02,-0.11
2.562720060348511,2,3,3,0,-9.550000000000001,1.77,1.49,0.1,-0.02,-0.1
2.572720050811768,2,3,3,0,-9.550000000000001,1.76,1.38,0.03,0,-0.18
2.582720041275024,2,3,3,0,-9.550000000000001,1.78,1.42,0.03,-0.02,-0.19
2.592720031738281,2,3,3,0,-9.529999999999999,1.8,1.53,0.03,-0.02,-0.19
2.602720022201538,2,3,3,0,-9.56,1.8,1.5,0.01,-0.07000000000000001,-0.22
2.612720012664795,2,3,3,0,-9.56,1.79,1.49,0.02,0.02,-0.14
2.622720003128052,2,3,3,0,-9.56,1.75,1.41,0.01,0.1,-0.1
2.632719993591309,2,3,3,0,-9.58,1.75,1.49,-0.02,0.23,-0.04
2.652719974517822,2,3,3,0,-9.6,1.73,1.56,-0.02,0.24,0.01
2.662719964981079,2,3,3,0,-9.57,1.74,1.48,0.05,-0.01,0.04
2.672719955444336,2,3,3,0,-9.59,1.75,1.39,0.06,-0.07000000000000001,0.04
2.682719945907593,2,3,3,0,-9.56,1.74,1.47,0.06,-0.09,0.04
2.69271993637085,2,3,3,0,-9.529999999999999,1.74,1.49,0.04,-0.08,0.07000000000000001
2.702719926834106,2,3,3,0,-9.529999999999999,1.75,1.47,0.06,0.02,0.07000000000000001
2.712719917297363,2,3,3,0,-9.5,1.75,1.5,-0.02,0.11,0.03
2.722720146179199,2,3,3,0,-9.539999999999999,1.76,1.45,-0.05,0.15,-0.02
2.732720136642456,2,3,3,0,-9.539999999999999,1.77,1.47,-0.11,0.14,-0.07000000000000001
2.742720127105713,2,3,3,0,-9.529999999999999,1.76,1.51,-0.11,0.14,-0.07000000000000001
2.75272011756897,2,3,3,0,-9.529999999999999,1.71,1.52,-0.15,0.13,-0.09
2.762720108032227,2,3,3,0,-9.57,1.71,1.53,-0.13,0.14,-0.11
2.772720098495483,2,3,3,0,-9.56,1.69,1.41,-0.13,0.14,-0.07000000000000001
2.802720069885254,2,3,3,0,-9.630000000000001,1.66,1.55,0.05,0.12,0
2.812720060348511,2,3,3,0,-9.6,1.73,1.48,0.12,0.04,0.01
2.842720031738281,2,3,3,0,-9.52,1.78,1.44,0.22,0.05,0.07000000000000001
2.852720022201538,2,3,3,0,-9.51,1.77,1.45,0.23,0.07000000000000001,0.06
2.862720012664795,2,3,3,0,-9.539999999999999,1.79,1.44,0.07000000000000001,0.11,0.09
2.872720003128052,2,3,3,0,-9.529999999999999,1.78,1.37,-0.02,0.17,0.09
2.882719993591309,2,3,3,0,-9.550000000000001,1.78,1.42,-0.05,0.2,0.08
2.892719984054565,2,3,3,0,-9.539999999999999,1.76,1.5,-0.05,0.2,0.08
2.902719974517822,2,3,3,0,-9.529999999999999,1.76,1.52,-0.1,0.23,0.1
2.912719964981079,2,3,3,0,-9.529999999999999,1.74,1.53,-0.05,0.26,0.11
2.922719955444336,2,3,3,0,-9.539999999999999,1.72,1.43,-0.06,0.29,0.05
2.932719945907593,2,3,3,0,-9.550000000000001,1.69,1.5,-0.03,0.31,0
2.94271993637085,2,3,3,0,-9.56,1.68,1.5,-0.03,0.31,0
2.952719926834106,2,3,3,0,-9.58,1.66,1.5,-0.02,0.29,-0.01
2.962719917297363,2,3,3,0,-9.630000000000001,1.69,1.54,0.01,0.21,0.01
2.982720136642456,2,3,3,0,-9.59,1.7,1.41,0.04,0.12,0.04
2.992720127105713,2,3,3,0,-9.58,1.73,1.43,0.06,0.06,0.09
3.00272011756897,2,3,3,0,-9.58,1.72,1.46,0.03,0.1,0.1
3.012720108032227,2,3,3,0,-9.56,1.69,1.44,0,0.14,0.09
3.022720098495483,2,3,3,0,-9.57,1.72,1.38,0.04,0.25,0.08
3.03272008895874,2,3,3,0,-9.57,1.7,1.42,0.01,0.3,0.05
3.042720079421997,2,3,3,0,-9.539999999999999,1.76,1.51,-0.01,0.35,0.03
3.053719997406006,2,3,3,0,-9.529999999999999,1.75,1.48,0.04,0.36,0.03
3.062720060348511,2,3,3,0,-9.52,1.77,1.5,0.02,0.4,0.06
3.072720050811768,2,3,3,0,-9.52,1.79,1.39,0.05,0.55,0.1
3.082720041275024,2,3,3,0,-9.51,1.76,1.35,0.08,0.64,0.17
3.092720031738281,2,3,3,0,-9.529999999999999,1.76,1.33,0.22,0.83,0.26
3.102720022201538,2,3,3,0,-9.5,1.79,1.34,0.37,1.06,0.35
3.112720012664795,2,3,3,0,-9.529999999999999,1.79,1.33,0.41,1.26,0.44
3.122720003128052,2,3,3,0,-9.73,1.74,1.27,0.4,1.46,0.48
3.132719993591309,2,3,3,0,-9.789999999999999,1.75,1.33,0.35,1.54,0.53
3.142719984054565,2,3,3,0,-9.800000000000001,1.71,1.32,0.24,1.52,0.61
3.153720140457153,2,3,3,0,-9.779999999999999,1.71,1.34,0.22,1.39,0.6
3.16372013092041,2,3,3,0,-9.84,1.76,1.34,0.23,1.26,0.57
3.173720121383667,2,3,3,0,-9.81,1.73,1.26,0.09,0.97,0.44
3.183720111846924,2,3,3,0,-9.81,1.59,1.22,0.03,0.51,0.42
3.203720092773438,2,3,3,0,-9.869999999999999,1.55,1.35,0.44,0.15,0.7
3.213720083236694,2,3,3,0,-9.859999999999999,1.48,1.31,0.37,0.04,0.85
3.223720073699951,2,3,3,0,-9.76,1.44,1.22,0.35,-0.36,1.03
3.233720064163208,2,3,3,0,-9.84,1.47,1.38,0.42,-0.66,1.22
3.243720054626465,2,3,3,0,-9.960000000000001,1.61,1.44,0.23,-0.95,1.21
3.253720045089722,2,3,3,0,-9.720000000000001,1.98,1.42,0.05,-1.58,1.22
3.263720035552979,2,3,3,0,-9.77,1.32,1.35,-0.35,-2.04,1.12
3.273720026016235,2,3,3,0,-9.98,2.4,1.4,-0.45,-2.86,1.13
3.283720016479492,2,3,3,0,-10.6,3.4,1.35,0.29,-4.19,1.45
3.293720006942749,2,3,3,0,-9.960000000000001,3.14,1.48,0.3,-4.59,0.09
3.303719997406006,2,3,3,0,-9.630000000000001,2.03,1.38,-0.84,-5.09,-1.48
3.313719987869263,2,3,3,0,-9.380000000000001,2.51,1.21,-3.19,-5.82,-1.12
3.32371997833252,2,3,3,0,-8.300000000000001,1.87,1.56,-5.06,-6.9,-0.96
3.333719968795776,2,3,3,0,-7.94,1.88,1.89,-4.62,-4.84,-1.67
3.35371994972229,2,3,3,0,-8.140000000000001,1.06,2.19,-1.87,-0.82,-3.31
3.363719940185547,2,3,3,0,-8.19,1.26,1.95,-1.51,-2.91,-2.41
3.373719930648804,2,3,3,0,-8.68,1.59,1.94,-0.65,-2.99,-1.54
3.383719921112061,2,3,3,0,-8.65,1.61,2.17,-0.16,-1.43,-1.05
3.393720149993896,2,3,3,0,-9.710000000000001,2.59,1.91,0.66,0.6,-0.89
3.403720140457153,2,3,3,0,-10.99,1.17,1.21,1.53,1.4,-1.38
3.41372013092041,2,3,3,0,-11.73,2.04,0.86,0.76,0.23,-0.64
3.443720102310181,2,3,3,0,-9.83,2.47,1.27,0.39,5.45,-0.3
3.453720092773438,2,3,3,0,-7.89,0.61,1.91,-1.07,3.08,-0.95
3.463720083236694,2,3,3,0,-9.130000000000001,2.15,1.61,-1.59,4.24,1.21
3.473720073699951,2,3,3,0,-8.859999999999999,1.94,1.1,-0.08,2.91,1.67
3.483720064163208,2,3,3,0,-8.390000000000001,1.74,1.38,0.6,-2.38,1.63
3.493720054626465,2,3,3,0,-8.210000000000001,1.6,1.84,-0.4,-1.95,1.47
3.503720045089722,2,3,3,0,-8.69,1.59,2.08,-0.26,1.15,0.98
3.513720035552979,2,3,3,0,-8.779999999999999,1.65,2.1,-0.26,1.15,0.98
3.523720026016235,2,3,3,0,-8.859999999999999,1.69,1.9,0.76,1.19,0.8100000000000001
3.533720016479492,2,3,3,0,-8.91,1.75,1.87,1.59,1.11,0.96
3.543720006942749,2,3,3,0,-9.18,1.94,1.92,1.83,1.5,1.32
3.553719997406006,2,3,3,0,-9.130000000000001,2.04,1.74,1.08,1.17,2.21
3.563719987869263,2,3,3,0,-8.92,2.01,1.59,0.9,0.96,2.58
3.57371997833252,2,3,3,0,-8.890000000000001,2.1,1.5,0.72,1.05,2.63
3.583719968795776,2,3,3,0,-8.69,2.3,1.6,0.75,1.03,2.59
3.593719959259033,2,3,3,0,-8.529999999999999,2.37,1.5,1.14,1.08,2.56
3.60371994972229,2,3,3,0,-8.369999999999999,2.36,1.27,1.53,1.4,2.74
3.613719940185547,2,3,3,0,-8.18,2.17,1.08,1.54,1.87,3.12
3.623719930648804,2,3,3,0,-8.09,2.08,0.99,1.32,2.05,3.71
3.633719921112061,2,3,3,0,-7.83,1.98,0.77,1.37,1.7,4.48
3.673720121383667,2,3,3,0,-6.95,1.69,0.85,1.34,-0.2,7.25
3.683720111846924,2,3,3,0,-6.64,1.56,0.75,2.34,-1.12,7.5
3.693720102310181,2,3,3,0,-6.33,1.47,0.4,2.73,-1.54,7.28
3.703720092773438,2,3,3,0,-5.82,1.33,0.29,2.52,-1.47,6.97
3.713720083236694,2,3,3,0,-5.52,1.33,0.66,2.12,-1.04,6.63
3.723720073699951,2,3,3,0,-5.58,1.41,1.03,2.28,-1.48,6.12
3.733720064163208,2,3,3,0,-5.99,1.64,1.23,2.17,-2.41,5.42
3.743720054626465,2,3,3,0,-6.12,1.82,1.52,1.2,-2.63,4.6
3.753720045089722,2,3,3,0,-6.2,2.02,1.9,0.68,-2.57,3.63
3.763720035552979,2,3,3,0,-6.21,2.29,2.25,0.88,-2.17,3.05
3.773720026016235,2,3,3,0,-6.95,2.36,2.3,1.22,-1.54,2.67
3.783720016479492,2,3,3,0,-7.72,2.21,2.55,1.66,-0.97,2.33
3.793720006942749,2,3,3,0,-8.44,2.3,2.63,2.46,-0.68,2.11
3.803719997406006,2,3,3,0,-10.28,2.39,2.06,2.78,-0.55,1.64
3.82371997833252,2,3,3,0,-11.03,1.98,1.3,-0.7,0.46,1.45
3.833719968795776,2,3,3,0,-11.46,2,1.29,-2.87,1.73,1.2
3.843719959259033,2,3,3,0,-11.76,1.96,1.77,-4.3,2.28,0.7
3.85371994972229,2,3,3,0,-11.96,1.93,2.31,-4.86,1.84,0.3
3.863719940185547,2,3,3,0,-12.05,1.95,2.78,-3.64,0.21,-0.14
3.883719921112061,2,3,3,0,-14.72,2.31,4.08,0.04,-1.24,-1.58
3.893720149993896,2,3,3,0,-15.77,2.76,4.15,1.38,-1.15,-2.53
3.903720140457153,2,3,3,0,-16.55,3.12,4.44,2.45,-0.61,-3.17
3.91372013092041,2,3,3,0,-17.21,3.36,4.54,3.66,0.27,-3.05
3.923720121383667,2,3,3,0,-19.03,4.15,4.21,4.49,1.43,-2.01
3.933720111846924,2,3,3,0,-20.23,4.36,4.5,3.77,2.22,-0.91
3.943720102310181,2,3,3,0,-20.93,4.55,4.3,2.95,2.4,0.39
3.953720092773438,2,3,3,0,-21.58,4.57,4.1,2.49,2.21,1.39
3.963720083236694,2,3,3,0,-22.01,4.58,4.83,1.39,1.43,1.74
3.973720073699951,2,3,3,0,-22.03,4.7,5.27,0.55,0.57,1.66
3.983720064163208,2,3,3,0,-22.22,4.65,5.82,0.18,0.52,0.5600000000000001
3.993720054626465,2,3,3,0,-23.25,4.43,6.42,-0.63,1.4,-1.6
4.003720045089722,2,3,3,0,-23.48,4.45,6.72,-1.78,2.96,-4.36
4.013720035552979,2,3,3,0,-23.63,3.93,6.13,-2.66,4.52,-6.62
4.023720026016235,2,3,3,0,-24.13,3.23,5.54,-3.28,5.73,-8.5
4.033720016479492,2,3,3,0,-24.84,1.7,5.32,-3.94,6.9,-9.300000000000001
4.043720006942749,2,3,3,0,-24.73,1.42,4.79,-3.32,6.87,-9.130000000000001
4.053719997406006,2,3,3,0,-23.98,1.27,4.09,-2.26,5.43,-8.25
4.063719987869263,2,3,3,0,-22.7,1.65,3.34,-0.66,4.93,-6.7
4.07371997833252,2,3,3,0,-17.88,3.68,1.69,1.84,6.17,-4.64
4.083719968795776,2,3,3,0,-14.44,4.85,0.42,4.91,6.98,-1.56
4.093719959259033,2,3,3,0,-10.66,6.4,-1.16,8.619999999999999,7.31,1.9
4.10371994972229,2,3,3,0,-7.75,8.210000000000001,-2.35,11.01,6.74,5.3
4.113719940185547,2,3,3,0,-5.19,7.62,-5.79,10.42,5.85,5.94
4.123719930648804,2,3,3,0,-3.03,6.66,-6.19,7.96,4.58,4.32
4.133719921112061,2,3,3,0,-0.51,5.72,-4.83,1.97,2.62,1.59
4.143720149993896,2,3,3,0,2.34,5.68,-2.65,-3.72,-2.91,-0.07000000000000001
4.153720140457153,2,3,3,0,7.89,6.74,-1.26,-4.54,-11.33,1.67
4.16372013092041,2,3,3,0,9.06,7.21,-2.97,0.68,-13.09,1.94
4.174720048904419,2,3,3,0,8.220000000000001,7.28,-4.2,4.5,-9,0.87
4.184720039367676,2,3,3,0,3.6,4.68,-4.37,3.78,-5.01,-0.51
4.194720029830933,2,3,3,0,2.74,2.93,-3.35,-0.59,0.35,-1.68
4.204720020294189,2,3,3,0,2.33,1.78,-1.38,-6.96,5.75,-2.58
4.214720010757446,2,3,3,0,1.15,1.36,0.16,-11.35,8.68,-3.2
4.224720001220703,2,3,3,0,-0.95,1.5,1.03,-13.1,6.15,-3.18
4.23471999168396,2,3,3,0,-1.27,0.99,0.44,-13.04,1.89,-2.57
4.244719982147217,2,3,3,0,-1.44,0.66,-0.13,-12.11,-1.45,-1.18
4.254719972610474,2,3,3,0,-1.48,0.4,0.26,-10.72,-3.02,-0.53
4.26471996307373,2,3,3,0,-0.85,-0.3,0.54,-8.800000000000001,-5.34,-0.2
4.274719953536987,2,3,3,0,-0.82,-0.18,0.57,-4.96,-5.53,-0.1
4.284719944000244,2,3,3,0,-0.65,-0.29,0.14,-1.45,-3.19,-0.14
4.294719934463501,2,3,3,0,-0.41,-0.6899999999999999,-0.55,0.65,-0.02,-0.9
4.304719924926758,2,3,3,0,-1.89,-1.18,0.62,-0.45,3.71,-1.79
4.314719915390015,2,3,3,0,-2.19,-1.57,0.82,-3.58,4.34,-1.71
4.324720144271851,2,3,3,0,-1.81,-1.52,0.55,-4.77,2.81,-1.14
4.334720134735107,2,3,3,0,-1.41,-1.44,0.55,-5.8,1.66,-0.71
4.344720125198364,2,3,3,0,-0.47,-1.72,1.04,-6.31,0.29,-0.35
4.354720115661621,2,3,3,0,0.27,-1.89,0.9399999999999999,-5.09,-1.21,0.1
4.364720106124878,2,3,3,0,0.77,-2.18,0.6899999999999999,-2.84,-1.78,0.51
4.374720096588135,2,3,3,0,0.91,-2.52,0.62,-0.5,-1.66,1
4.384720087051392,2,3,3,0,0.44,-2.71,0.48,2.32,-1.69,1.52
4.394720077514648,2,3,3,0,0.11,-2.25,0.44,5.89,-2.05,2.04
4.404720067977905,2,3,3,0,-0.08,-2,0.04,8.619999999999999,-2.98,2.63
4.414720058441162,2,3,3,0,-0.14,-1.24,-0.44,11.23,-3.27,2.96
4.424720048904419,2,3,3,0,-0.64,-0.82,-0.28,12.38,-2.77,3.01
4.434720039367676,2,3,3,0,-0.68,-0.49,-0.57,12.21,-3.57,2.8
4.444720029830933,2,3,3,0,-0.48,0,-0.83,11.94,-4.49,2.12
4.454720020294189,2,3,3,0,-0.66,1.03,-0.6899999999999999,10.53,-5.16,1.43
4.464720010757446,2,3,3,0,-0.14,1.38,-1.14,9.01,-7.4,0.5
4.474720001220703,2,3,3,0,0.82,2.21,-0.13,7.89,-9.59,-1.31
4.48471999168396,2,3,3,0,1.15,2.94,0.38,6.06,-8.470000000000001,-3.37
4.494719982147217,2,3,3,0,-0.01,5.49,0.72,6,-7.03,-4.95
4.504719972610474,2,3,3,0,-0.01,5.49,0.72,5.18,-5.61,-6.19
4.51471996307373,2,3,3,0,-3.76,11.5,2.63,4.23,-5.63,-6.62
4.524719953536987,2,3,3,0,-5.23,15.37,1.11,3.53,-5.69,-6.81
4.534719944000244,2,3,3,0,-26.16,23.01,2.73,-8.44,-1.07,-13.12
4.544719934463501,2,3,3,0,-39.27,22.58,5.3,-26.13,-6.07,-23.4
4.554719924926758,2,3,3,0,-39.27,22.58,5.3,-53.23,-17.86,-37.09
4.564719915390015,2,3,3,0,-39.23,11.74,-3.81,-55.5,5.94,-20.88
4.574720144271851,2,3,3,0,-39.27,-20.19,9.23,-30.79,16.78,-0.61
4.584720134735107,2,3,3,0,-31.22,-12.6,8.34,-8.890000000000001,5.79,-6.13
4.594720125198364,2,3,3,0,-16.54,-3.9,11.6,11.02,3.19,-2.41
4.604720115661621,2,3,3,0,-16.54,-3.9,11.6,11.02,3.19,-2.41
4.614720106124878,2,3,3,0,-12.73,-3.2,7.81,12.13,-3.06,-4.39
4.624720096588135,2,3,3,0,-17.37,-4.01,4.1,13.55,-1.1,-6.34
4.634720087051392,2,3,3,0,-20.46,-2.58,3.65,11.06,0.75,-6.54
4.644720077514648,2,3,3,0,-22.64,-0.6899999999999999,3.76,10.52,-0.1,-4.5
4.654720067977905,2,3,3,0,-22.64,-0.6899999999999999,3.76,10.52,-0.1,-4.5
4.664720058441162,2,3,3,0,-21.26,1.33,3.91,9.43,1.39,0.82
4.674720048904419,2,3,3,0,-15.89,1.64,1.27,6.42,4.93,10
4.724720001220703,2,3,3,0,-9.18,3.34,1.38,2.56,-3.25,5.35
4.73471999168396,2,3,3,0,-8.859999999999999,2.47,1.83,2.34,-2.14,3.33
4.744719982147217,2,3,3,0,-8.630000000000001,2.69,1.99,4.38,0.46,1.77
4.754719972610474,2,3,3,0,-8.15,2.86,1.6,4.38,0.46,1.77
4.76471996307373,2,3,3,0,-7.29,2.84,1.12,4.5,2.72,0.46
4.774719953536987,2,3,3,0,-5.87,2.53,0.4,0.49,8.31,0.31
4.784719944000244,2,3,3,0,-5.89,2.34,0.13,-1.36,8.57,0.77
4.794719934463501,2,3,3,0,-6.02,2.19,0.18,-2.87,6.83,1.3
4.804719924926758,2,3,3,0,-5.75,1.99,0.62,-2.87,6.83,1.3
4.814719915390015,2,3,3,0,-5.2,2.12,0.87,-3.84,4.19,1.85
4.824720144271851,2,3,3,0,-4.59,2.05,0.9399999999999999,-4,1.14,2.68
4.834720134735107,2,3,3,0,-4.23,2.05,0.9,-3.86,1.42,2.7
4.844720125198364,2,3,3,0,-3.85,1.69,0.82,-3.68,1.69,2.49
4.854720115661621,2,3,3,0,-4.06,1.66,0.9,-3.68,1.69,2.49
4.864720106124878,2,3,3,0,-4.33,1.48,0.85,-3.43,1.95,1.76
4.874720096588135,2,3,3,0,-4.71,1.5,0.92,-2.61,1.08,0.05
4.884720087051392,2,3,3,0,-5.76,1.65,0.9399999999999999,-2.28,0.34,-0.98
4.894720077514648,2,3,3,0,-6.16,1.62,1.09,-2.17,-0.62,-1.97
4.904720067977905,2,3,3,0,-6.66,1.67,1.27,-2.17,-0.62,-1.97
4.914720058441162,2,3,3,0,-7.48,1.79,1.49,-2.16,-1.41,-2.85
4.924720048904419,2,3,3,0,-9.550000000000001,1.73,1.74,-2.33,-2.42,-4.83
4.934720039367676,2,3,3,0,-10.53,1.45,1.65,-2.22,-2.19,-5.97
4.944720029830933,2,3,3,0,-11.26,1.28,1.58,-1.99,-1.65,-6.76
4.954720020294189,2,3,3,0,-11.65,1.09,1.43,-1.99,-1.65,-6.76
4.964720010757446,2,3,3,0,-11.89,0.9,1.33,-1.77,-1.05,-6.89
4.974720001220703,2,3,3,0,-11.39,0.73,1.27,-2.18,-0.28,-4.74
4.98471999168396,2,3,3,0,-11.46,0.7,1.25,-2.49,-0.48,-3.11
5.004719972610474,2,3,3,0,-10.72,0.39,1.9,-2.44,-0.51,-1.61
5.01471996307373,2,3,3,0,-10.58,0.35,2.08,-1.9,-0.48,-0.31
5.024719953536987,2,3,3,0,-10.55,0.28,2.38,-1.17,0.19,1.01
5.034719944000244,2,3,3,0,-10.5,0.26,2.48,-0.47,0.29,1.27
5.044719934463501,2,3,3,0,-10.34,0.24,2.42,0.18,0.66,1.42
5.054719924926758,2,3,3,0,-10.17,0.29,2.28,0.18,0.66,1.42
5.065720081329346,2,3,3,0,-9.949999999999999,0.39,2.14,0.55,1.17,1.5
5.074720144271851,2,3,3,0,-9.390000000000001,0.75,1.72,0.85,1.51,1.71
5.084720134735107,2,3,3,0,-9.15,1.02,1.57,0.65,1.51,1.91
5.095720052719116,2,3,3,0,-8.99,1.23,1.53,0.44,1.3,2.05
5.104720115661621,2,3,3,0,-8.94,1.38,1.53,0.44,1.3,2.05
5.114720106124878,2,3,3,0,-8.93,1.6,1.41,0.36,0.9,2.1
5.125720024108887,2,3,3,0,-9.01,1.62,1.42,0.01,-0.09,1.9
5.134720087051392,2,3,3,0,-9.02,1.56,1.34,0.01,-0.09,1.9
5.144720077514648,2,3,3,0,-8.99,1.52,1.38,-0.24,-0.77,1.57
5.154720067977905,2,3,3,0,-9,1.52,1.69,-0.42,-1.23,1.08
5.164720058441162,2,3,3,0,-9,1.45,1.8,-0.66,-1.63,0.48
5.174720048904419,2,3,3,0,-8.98,1.46,1.89,-0.65,-1.96,-0.06
5.184720039367676,2,3,3,0,-9.06,1.47,1.9,-0.58,-2.02,-0.58
5.194720029830933,2,3,3,0,-9.199999999999999,1.51,1.73,-0.46,-2.01,-0.96
5.205719947814941,2,3,3,0,-9.289999999999999,1.49,1.63,-0.25,-1.83,-1.22
5.215719938278198,2,3,3,0,-9.369999999999999,1.46,1.54,-0.16,-1.38,-1.32
5.225719928741455,2,3,3,0,-9.44,1.37,1.43,-0.33,-0.78,-1.23
5.235719919204712,2,3,3,0,-9.529999999999999,1.24,1.39,-0.51,-0.22,-0.99
5.245720148086548,2,3,3,0,-9.609999999999999,1.27,1.38,-0.48,0.21,-0.66
5.255720138549805,2,3,3,0,-9.640000000000001,1.24,1.48,-0.45,0.51,-0.39
5.265720129013062,2,3,3,0,-9.699999999999999,1.19,1.67,-0.47,0.58,-0.08
5.275720119476318,2,3,3,0,-9.710000000000001,1.19,1.65,-0.46,0.45,0.16
5.285720109939575,2,3,3,0,-9.699999999999999,1.15,1.64,-0.32,0.27,0.33
5.295720100402832,2,3,3,0,-9.67,1.1,1.7,-0.26,0.18,0.38
5.305720090866089,2,3,3,0,-9.539999999999999,1.14,1.84,-0.23,0.11,0.4
5.325720071792603,2,3,3,0,-9.550000000000001,1.32,1.82,0.16,-0.08,0.39
5.335720062255859,2,3,3,0,-9.56,1.36,1.72,0.47,-0.23,0.41
5.345720052719116,2,3,3,0,-9.699999999999999,1.48,1.71,0.57,-0.17,0.46
5.355720043182373,2,3,3,0,-9.779999999999999,1.5,1.71,0.38,0.18,0.38
5.36572003364563,2,3,3,0,-9.82,1.53,1.72,0.19,0.37,0.28
5.375720024108887,2,3,3,0,-9.82,1.52,1.75,-0.1,0.38,0.18
5.385720014572144,2,3,3,0,-9.66,1.52,1.67,-0.3,0.13,0.14
5.3957200050354,2,3,3,0,-9.609999999999999,1.49,1.72,-0.41,-0.21,0.21
5.405719995498657,2,3,3,0,-9.630000000000001,1.47,1.76,-0.51,-0.46,0.22
5.415719985961914,2,3,3,0,-9.640000000000001,1.46,1.78,-0.52,-0.5,0.15
5.425719976425171,2,3,3,0,-9.65,1.44,1.67,-0.44,-0.53,0.04
5.435719966888428,2,3,3,0,-9.529999999999999,1.42,1.58,-0.24,-0.59,-0.09
5.445719957351685,2,3,3,0,-9.380000000000001,1.45,1.57,-0.06,-0.61,-0.17
5.455719947814941,2,3,3,0,-9.220000000000001,1.49,1.71,0.03,-0.47,-0.13
5.465719938278198,2,3,3,0,-9.19,1.52,1.71,0.02,-0.4,-0.01
5.475719928741455,2,3,3,0,-9.289999999999999,1.55,1.72,0.09,-0.41,0.15
5.485719919204712,2,3,3,0,-9.4,1.65,1.68,0.29,-0.44,0.24
5.495720148086548,2,3,3,0,-9.58,1.74,1.7,0.52,-0.5,0.28
5.505720138549805,2,3,3,0,-9.609999999999999,1.76,1.61,0.6899999999999999,-0.51,0.23
5.515720129013062,2,3,3,0,-9.619999999999999,1.74,1.6,0.78,-0.43,0.22
5.525720119476318,2,3,3,0,-9.609999999999999,1.74,1.59,0.62,-0.27,0.28
5.535720109939575,2,3,3,0,-9.67,1.74,1.64,0.23,-0.17,0.33
5.545720100402832,2,3,3,0,-9.9,1.76,1.97,-0.15,-0.2,0.35
5.555720090866089,2,3,3,0,-9.960000000000001,1.8,2.28,-0.61,-0.75,0.45
5.565720081329346,2,3,3,0,-9.609999999999999,1.65,2.15,-1.09,-2.11,0.71
5.575720071792603,2,3,3,0,-9.140000000000001,1.52,1.38,-0.37,-2.76,0.93
5.585720062255859,2,3,3,0,-9.539999999999999,1.42,1.57,0.74,-1.01,0.79
5.595720052719116,2,3,3,0,-9.720000000000001,1.31,1.91,0.16,0.53,0.58
5.605720043182373,2,3,3,0,-9.369999999999999,1.3,1.92,-0.37,0.39,0.64
5.61572003364563,2,3,3,0,-9.220000000000001,1.38,1.83,-0.08,-0.18,0.9399999999999999
5.625720024108887,2,3,3,0,-9.140000000000001,1.47,1.65,0.6899999999999999,-0.21,1.43
5.635720014572144,2,3,3,0,-9.029999999999999,1.63,1.39,1.48,0.04,2.03
5.6457200050354,2,3,3,0,-8.99,1.97,1.32,2.11,0.35,2.63
5.655719995498657,2,3,3,0,-9,2.11,1.21,2.62,0.71,3.07
5.665719985961914,2,3,3,0,-8.960000000000001,2.19,1.08,2.93,0.97,3.34
5.675719976425171,2,3,3,0,-8.93,2.22,1,3.03,1.24,3.52
5.685719966888428,2,3,3,0,-8.890000000000001,2.24,0.82,2.63,1.66,3.56
5.695719957351685,2,3,3,0,-8.85,2.31,1.06,1.83,2.04,3.62
5.705719947814941,2,3,3,0,-8.83,2.4,1.26,0.91,2.28,3.68
5.715719938278198,2,3,3,0,-8.73,2.52,1.39,0.1,2.18,3.63
5.725719928741455,2,3,3,0,-8.15,2.64,1.24,-0.06,1.77,3.57
5.735719919204712,2,3,3,0,-7.7,2.67,0.85,0.59,1.37,3.52
5.745720148086548,2,3,3,0,-7.28,2.53,0.67,1.6,1.26,3.63
5.755720138549805,2,3,3,0,-7.08,2.35,0.82,2.13,1.55,3.83
5.765720129013062,2,3,3,0,-6.8,2.09,1.17,0.5600000000000001,0.87,4
5.775720119476318,2,3,3,0,-6.42,2.11,1.06,0.5600000000000001,0.87,4
5.785720109939575,2,3,3,0,-6.09,2.16,0.8100000000000001,0.6,-0.18,4.14
5.795720100402832,2,3,3,0,-5.97,2.12,0.75,1.63,-0.6899999999999999,5.03
5.805720090866089,2,3,3,0,-6.06,1.91,0.95,1.51,-0.06,5.48
5.815720081329346,2,3,3,0,-6.17,1.67,1.15,1.62,0.59,6.04
5.825720071792603,2,3,3,0,-6.18,1.53,1.22,2.65,0.35,6.68
5.835720062255859,2,3,3,0,-5.67,1.63,0.66,4.39,-0.29,7.33
5.845720052719116,2,3,3,0,-5.11,1.8,-0.15,6.53,-0.72,7.77
5.855720043182373,2,3,3,0,-4.38,1.96,-0.98,7.6,-0.08,8.1
5.86572003364563,2,3,3,0,-3.89,2.12,-0.88,5.29,1.63,8.18
5.875720024108887,2,3,3,0,-4.39,2.63,1,1.23,2.25,7.72
5.885720014572144,2,3,3,0,-4.53,3,1.72,-0.82,0.99,6.78
5.8957200050354,2,3,3,0,-4.74,3.26,2.03,-0.21,-0.76,5.72
5.905719995498657,2,3,3,0,-5.24,3.25,1.98,1.14,-1.29,4.29
5.915719985961914,2,3,3,0,-8.06,2.45,1.97,2.62,-1.48,2.82
5.925719976425171,2,3,3,0,-9.02,1.93,1.8,3.91,-2.87,1.79
5.935719966888428,2,3,3,0,-9.470000000000001,1.76,1.63,3.46,-3.94,1.42
5.945719957351685,2,3,3,0,-9.640000000000001,1.93,1.54,1.85,-3.78,1.35
5.955719947814941,2,3,3,0,-8.050000000000001,1.37,1.07,1.46,-1.52,1.62
5.965719938278198,2,3,3,0,-9.109999999999999,1.79,1.22,1.48,1.76,1.68
5.975719928741455,2,3,3,0,-10.75,2.5,1.47,0.11,2.34,1.45
5.985719919204712,2,3,3,0,-12.05,3.3,1.89,-1.92,0.32,1.43
5.995720148086548,2,3,3,0,-13.13,3.92,2.49,-2.2,-2.2,1.32
6.005720138549805,2,3,3,0,-13.75,3.95,2.82,-0.85,-2.71,0.41
6.015720129013062,2,3,3,0,-14.58,3.63,3.07,-0.68,-1.94,-1.18
6.025720119476318,2,3,3,0,-16.69,3.04,2.41,-1.63,-2.53,-2.5
6.035720109939575,2,3,3,0,-17.22,2.67,2.27,-2.78,-3.62,-3.31
6.045720100402832,2,3,3,0,-17.55,2.46,2.63,-3.13,-3.27,-3.46
6.055720090866089,2,3,3,0,-17.62,2.22,2.75,-2.51,-1.95,-2.96
6.065720081329346,2,3,3,0,-16.47,2.45,3.39,-2.05,-0.13,-2.15
6.075720071792603,2,3,3,0,-16.32,2.38,4.09,-2.32,0.87,-1.69
6.085720062255859,2,3,3,0,-16.51,2.26,4.56,-1.92,0.5600000000000001,-1.7
6.095720052719116,2,3,3,0,-17.02,2.32,5,-0.33,-0.28,-1.85
6.105720043182373,2,3,3,0,-19.43,2.46,5.54,1.55,-0.58,-1.96
6.11572003364563,2,3,3,0,-20.47,2.67,5.18,3.87,0.1,-1.69
6.125720024108887,2,3,3,0,-21.21,3.11,4.7,6.39,1.83,-0.59
6.135720014572144,2,3,3,0,-22.45,3.35,4.21,5.98,3.6,0.79
6.1457200050354,2,3,3,0,-23.45,3.16,4.27,3.57,3.77,2.03
6.155719995498657,2,3,3,0,-23.14,2.84,4.43,1.96,2.93,2.45
6.165719985961914,2,3,3,0,-22.44,3.11,4.99,1.56,3.64,1.76
6.175719976425171,2,3,3,0,-21.75,3.02,5.31,1.26,4.54,0.07000000000000001
6.185719966888428,2,3,3,0,-21.29,2.44,5.91,0.46,5.03,-3.13
6.195719957351685,2,3,3,0,-21.44,1.89,6.21,-0.92,5.44,-7.08
6.205719947814941,2,3,3,0,-22.04,1.8,7.02,-1.26,5.14,-10.46
6.215719938278198,2,3,3,0,-22.28,1.22,5.58,-1.15,4.05,-12.94
6.226720094680786,2,3,3,0,-22.09,0.74,4.73,0.87,3.95,-14.76
6.236720085144043,2,3,3,0,-22.58,0.55,4.71,2.13,3.26,-15.31
6.2467200756073,2,3,3,0,-22.99,0.9399999999999999,4.45,2.35,0.2,-13.1
6.256720066070557,2,3,3,0,-20.84,4.32,2.54,4.19,-0.4,-8.6
6.266720056533813,2,3,3,0,-18.74,6.47,0.4,6.83,-0.19,-2.15
6.27672004699707,2,3,3,0,-15.72,8.32,-2.7,11.4,1.24,3.28
6.286720037460327,2,3,3,0,-12.11,8.94,-5.96,15.83,3.74,6.81
6.296720027923584,2,3,3,0,-4.79,7.84,-7.57,14.96,6.4,7.11
6.306720018386841,2,3,3,0,-0.8100000000000001,9.029999999999999,-4.12,6.44,6.98,5.5
6.316720008850098,2,3,3,0,2.18,11.39,-1.14,-3.51,0,4.27
6.326719999313354,2,3,3,0,5.53,12.25,-1.13,-4.39,-10.74,3.52
6.336719989776611,2,3,3,0,14.78,14.7,-5.29,1.55,-12.16,3.4
6.346719980239868,2,3,3,0,13.09,11.89,-8.65,1.78,-8.58,2.47
6.356719970703125,2,3,3,0,10.22,8.4,-8.17,-2.99,-3.64,1.05
6.366719961166382,2,3,3,0,6.65,3.97,-3.76,-13.72,5.73,-1.12
6.376719951629639,2,3,3,0,1.82,-0.51,-0.31,-18.17,8.08,-2.24
6.386719942092896,2,3,3,0,0.92,0.09,0.24,-17.99,5.65,-2.74
6.396719932556152,2,3,3,0,0.34,0,0.78,-18.53,3.06,-2.91
6.406719923019409,2,3,3,0,-0.8100000000000001,-0.78,0.52,-17.25,2.9,-2.67
6.416719913482666,2,3,3,0,-0.86,-2.12,0.06,-15,0.95,-2.55
6.426720142364502,2,3,3,0,-0.36,-2.99,0.03,-12.26,-2.36,-3.02
6.436720132827759,2,3,3,0,-0.08,-3.53,0.05,-8.07,-2.09,-4.39
6.446720123291016,2,3,3,0,-1.3,-3.42,0.65,-3.06,-1.43,-5.6
6.456720113754272,2,3,3,0,-2.39,-3.16,0.64,1.27,-1.26,-5.62
6.466720104217529,2,3,3,0,-3.38,-2.95,0.42,3.92,0.36,-5.03
6.476720094680786,2,3,3,0,-4.43,-2.8,0.19,4.28,1.93,-3.99
6.486720085144043,2,3,3,0,-4.89,-2.15,-0.25,3.33,1.52,-2.83
6.4967200756073,2,3,3,0,-3.79,-1.43,-0.15,2.1,-0.51,-1.41
6.506720066070557,2,3,3,0,-2.44,-0.72,0.26,0.27,-1.68,0.01
6.516720056533813,2,3,3,0,-1.38,-0.28,0.7,-1.58,-1.94,1.14
6.52672004699707,2,3,3,0,0.4,-0.47,0.64,-1.57,-2.58,1.72
6.536720037460327,2,3,3,0,1.38,-0.71,-0.08,0.58,-3.29,1.58
6.546720027923584,2,3,3,0,1.71,-0.93,0,2.21,-2.76,1.4
6.556720018386841,2,3,3,0,1.68,-1.11,0.51,3.35,-2.82,1.72
6.566720008850098,2,3,3,0,1.68,-1.11,0.51,5.4,-3.59,2.17
6.576719999313354,2,3,3,0,1.92,-1.08,0.59,7.74,-3.58,2.39
6.586719989776611,2,3,3,0,1.45,-0.51,0.3,9.41,-3.21,2.44
6.596719980239868,2,3,3,0,0.88,0.46,-0.17,10.18,-3,2.27
6.606719970703125,2,3,3,0,0.78,1.04,-0.43,10.06,-2.6,1.82
6.616719961166382,2,3,3,0,0.78,1.04,-0.43,8.94,-2.14,1.18
6.626719951629639,2,3,3,0,0.53,2.11,-0.71,6.67,-2.15,0.25
6.636719942092896,2,3,3,0,0.25,2.39,-0.92,3.88,-3.16,-0.68
6.646719932556152,2,3,3,0,0.37,2.35,-1.02,1.41,-4.55,-1.42
6.656719923019409,2,3,3,0,0.41,2.33,-1.08,-0.07000000000000001,-5.41,-1.82
6.666719913482666,2,3,3,0,0.41,2.33,-1.08,-0.07000000000000001,-5.41,-1.82
6.676720142364502,2,3,3,0,0.68,2.01,-1.52,-0.84,-5.48,-2.06
6.686720132827759,2,3,3,0,-0.84,2.7,0.11,-2.57,-0.32,-3.89
6.696720123291016,2,3,3,0,-1.19,3.25,0.79,-4.14,0.46,-4.44
6.706720113754272,2,3,3,0,-1.43,4.32,0.75,-2.36,-1.06,-4.27
6.716720104217529,2,3,3,0,-1.43,4.32,0.75,-1.69,-1.71,-4.12
6.726720094680786,2,3,3,0,-4.87,7.55,1.71,-3.39,-2.6,-4.73
6.736720085144043,2,3,3,0,-11.3,14.56,3.97,-2.35,-4.32,-6
6.7467200756073,2,3,3,0,-20.72,17.45,4.85,-6.67,-4.36,-11.86
6.756720066070557,2,3,3,0,-39.27,11.3,4.19,-20.75,-11.19,-22.51
6.766720056533813,2,3,3,0,-39.27,11.3,4.19,-20.75,-11.19,-22.51
6.77672004699707,2,3,3,0,-39.25,-8.720000000000001,-2.85,-46.79,-15.9,-32.11
6.786720037460327,2,3,3,0,-37.76,-9.460000000000001,5.91,-22.22,7.41,3.61
6.796720027923584,2,3,3,0,-24.43,-4,9.94,0.67,-4.9,1
6.806720018386841,2,3,3,0,-15.64,-0.04,11.42,10.58,5.37,-0.55
6.816720008850098,2,3,3,0,-15.64,-0.04,11.42,10.58,5.37,-0.55
6.826719999313354,2,3,3,0,-13.33,-0.95,10.66,5.48,0.24,-4.6
6.836719989776611,2,3,3,0,-16.2,-3.89,7.61,6.91,-1.66,-8.44
6.846719980239868,2,3,3,0,-19.38,-5,5.62,5.18,2.59,-6.53
6.856719970703125,2,3,3,0,-22.05,-4.3,4.44,5.44,2.11,-3.29
6.866719961166382,2,3,3,0,-23.37,-3.05,4.21,5.44,2.11,-3.29
6.876719951629639,2,3,3,0,-20.26,-0.77,3.31,4.56,2.56,1.81
6.886719942092896,2,3,3,0,-19.02,0.19,3.85,1.58,3.41,8.210000000000001
6.896719932556152,2,3,3,0,-18.31,0.51,4.01,2.17,2.7,10.02
6.906719923019409,2,3,3,0,-18.39,0.75,3.87,3.89,0.46,9.58
6.916719913482666,2,3,3,0,-15.87,1.55,3.34,3.89,0.46,9.58
6.926720142364502,2,3,3,0,-14.17,1.92,2.97,4.83,-1.87,7.85
6.936720132827759,2,3,3,0,-13.07,2.4,2.95,2.92,-1.18,2.94
6.946720123291016,2,3,3,0,-12.13,2.01,3.05,2.81,1.11,0.84
6.956720113754272,2,3,3,0,-11.57,2.6,2.6,1.22,1.27,-0.65
6.966720104217529,2,3,3,0,-10.71,2.52,2.3,1.22,1.27,-0.65
6.976720094680786,2,3,3,0,-9.59,2.36,2.08,-0.25,1.7,-1.15
6.986720085144043,2,3,3,0,-8.75,1.87,1.77,-0.45,4.37,-0.47
6.9967200756073,2,3,3,0,-8.119999999999999,0.89,0.98,0.27,4.01,-0.13
7.006720066070557,2,3,3,0,-7.52,0.5,1.1,1.1,2.7,0.5600000000000001
7.016720056533813,2,3,3,0,-6.86,0.58,1.41,1.1,2.7,0.5600000000000001
7.02672004699707,2,3,3,0,-5.45,1.06,1.53,2.02,1.25,1.67
7.036720037460327,2,3,3,0,-4.82,1.1,1.35,3.84,0.51,3.32
7.046720027923584,2,3,3,0,-4.39,1.46,1.16,4.4,1.83,3.37
7.056720018386841,2,3,3,0,-4.15,1.58,1.05,4.59,2.83,3.26
7.066720008850098,2,3,3,0,-4.11,1.39,1.11,4.59,2.83,3.26
7.076719999313354,2,3,3,0,-4.15,1.51,1.02,4.83,3.1,3.04
7.086719989776611,2,3,3,0,-4.1,1.44,0.89,4.91,2.02,2.12
7.096719980239868,2,3,3,0,-4.16,1.44,0.78,4.63,1.44,1.63
7.106719970703125,2,3,3,0,-4.51,1.74,0.96,4.45,0.49,1.21
7.116719961166382,2,3,3,0,-4.59,2.03,0.9399999999999999,4.45,0.49,1.21
7.126719951629639,2,3,3,0,-4.77,2.25,0.83,4.33,0.3,0.63
7.136719942092896,2,3,3,0,-5.2,2.48,0.9,3.93,1.38,-0.47
7.146719932556152,2,3,3,0,-6.41,2.83,1.15,3.54,1.27,-0.92
7.156719923019409,2,3,3,0,-7.08,2.96,1.22,3.28,0.54,-1.35
7.166719913482666,2,3,3,0,-7.59,3.04,1.06,3.28,0.54,-1.35
7.176720142364502,2,3,3,0,-8.5,3.21,0.91,2.89,0.12,-1.62
7.186720132827759,2,3,3,0,-9,3.23,0.9,0.51,0.27,-1.53
7.196720123291016,2,3,3,0,-9.460000000000001,3.27,0.75,-1.05,0.28,-1.19
7.206720113754272,2,3,3,0,-9.960000000000001,3.25,0.82,-2.68,0.02,-1.04
7.216720104217529,2,3,3,0,-10.99,2.86,1.18,-2.68,0.02,-1.04
7.226720094680786,2,3,3,0,-11.34,2.36,1.38,-3.75,-0.59,-1.15
7.236720085144043,2,3,3,0,-11.44,1.9,1.5,-3.79,-2.03,-2.03
7.247720003128052,2,3,3,0,-11.37,1.43,1.61,-3.79,-2.03,-2.03
7.257719993591309,2,3,3,0,-11.01,0.79,2.37,-3.71,-1.66,-2.47
7.267719984054565,2,3,3,0,-10.73,0.72,2.68,-3.55,-1.13,-2.52
7.277719974517822,2,3,3,0,-10.52,0.61,2.78,-3.03,-0.8,-2.19
7.287719964981079,2,3,3,0,-10.35,0.44,2.85,-2.26,-0.4,-1.68
7.297719955444336,2,3,3,0,-10.1,0.54,2.78,-1.57,0.02,-1.29
7.307719945907593,2,3,3,0,-9.82,0.74,2.45,-1.19,0.14,-0.79
7.31771993637085,2,3,3,0,-9.640000000000001,0.87,2.01,-0.8100000000000001,0.53,-0.45
7.327719926834106,2,3,3,0,-9.6,0.87,1.6,-0.92,1.55,-0.04
7.337719917297363,2,3,3,0,-9.609999999999999,0.82,1.1,-1.49,2.61,0.49
7.347720146179199,2,3,3,0,-9.57,0.71,0.96,-2.12,2.95,1.18
7.357720136642456,2,3,3,0,-9.51,0.66,1.1,-2.49,2.52,1.82
7.367720127105713,2,3,3,0,-9.32,0.53,1.26,-2.56,1.59,2.31
7.37772011756897,2,3,3,0,-8.82,0.74,1.71,-2.24,0.6,2.57
7.387720108032227,2,3,3,0,-8.619999999999999,0.85,1.84,-1.51,0.12,2.57
7.397720098495483,2,3,3,0,-8.5,1.15,1.85,-0.6899999999999999,-0.15,2.36
7.40772008895874,2,3,3,0,-8.800000000000001,1.53,1.85,0.22,-0.29,1.88
7.417720079421997,2,3,3,0,-8.970000000000001,1.63,1.72,0.87,-0.4,1.18
7.427720069885254,2,3,3,0,-9.16,1.66,1.49,1.23,-0.62,0.38
7.437720060348511,2,3,3,0,-9.26,1.65,1.33,1.27,-0.96,-0.4
7.447720050811768,2,3,3,0,-9.390000000000001,1.65,1.23,0.77,-1.18,-1.01
7.457720041275024,2,3,3,0,-9.44,1.56,1.35,0.04,-1.32,-1.5
7.467720031738281,2,3,3,0,-9.49,1.46,1.43,-0.6,-1.61,-1.9
7.477720022201538,2,3,3,0,-9.529999999999999,1.4,1.56,-1.06,-1.88,-2.2
7.487720012664795,2,3,3,0,-9.74,1.32,1.82,-1.31,-2.06,-2.4
7.497720003128052,2,3,3,0,-9.83,1.22,1.88,-1.32,-2.44,-2.49
7.507719993591309,2,3,3,0,-9.81,1.1,1.95,-1.25,-3.07,-2.38
7.517719984054565,2,3,3,0,-9.609999999999999,0.89,1.86,-0.79,-3.7,-2.08
7.527719974517822,2,3,3,0,-9.26,0.71,1.6,0.08,-3.34,-1.66
7.537719964981079,2,3,3,0,-9.41,0.71,1.78,0.88,-1.72,-1.19
7.547719955444336,2,3,3,0,-9.57,0.74,1.89,0.91,-0.28,-0.72
7.557719945907593,2,3,3,0,-9.5,0.74,1.96,0.97,0.28,-0.21
7.56771993637085,2,3,3,0,-9.34,0.9399999999999999,1.82,1.5,0.67,0.14
7.577719926834106,2,3,3,0,-9.369999999999999,1.02,1.76,1.79,1.15,0.47
7.587719917297363,2,3,3,0,-9.41,1.12,1.72,1.76,1.5,0.66
7.597720146179199,2,3,3,0,-9.539999999999999,1.14,1.57,1.56,1.59,0.71
7.607720136642456,2,3,3,0,-9.56,1.12,1.61,1.25,1.36,0.62
7.617720127105713,2,3,3,0,-9.640000000000001,1.12,1.72,0.96,1.03,0.35
7.62772011756897,2,3,3,0,-9.720000000000001,1.08,1.84,0.7,0.76,0.02
7.637720108032227,2,3,3,0,-9.800000000000001,1.02,1.81,0.67,0.46,-0.24
7.647720098495483,2,3,3,0,-9.869999999999999,1.05,1.73,0.93,0.17,-0.46
7.65772008895874,2,3,3,0,-9.859999999999999,1.05,1.7,1.38,-0.05,-0.54
7.667720079421997,2,3,3,0,-9.85,1.04,1.57,1.84,-0.21,-0.44
7.677720069885254,2,3,3,0,-9.869999999999999,1.11,1.48,2.17,-0.16,-0.28
7.687720060348511,2,3,3,0,-9.880000000000001,1.2,1.49,2.25,-0.05,-0.1
7.697720050811768,2,3,3,0,-9.82,1.31,1.41,2,-0.1,0.12
7.707720041275024,2,3,3,0,-9.710000000000001,1.38,1.43,1.78,-0.27,0.27
7.717720031738281,2,3,3,0,-9.9,1.58,1.99,1.53,-0.42,0.43
7.727720022201538,2,3,3,0,-9.75,1.54,2.06,0.97,-0.93,0.53
7.737720012664795,2,3,3,0,-9.24,1.37,1.67,0.59,-2.09,0.8
7.747720003128052,2,3,3,0,-9.029999999999999,1.41,1.27,1.42,-1.94,0.86
7.757719993591309,2,3,3,0,-9.5,1.39,1.76,1.71,-0.18,0.72
7.767719984054565,2,3,3,0,-9.6,1.39,1.89,0.97,0.6899999999999999,0.64
7.777719974517822,2,3,3,0,-9.6,1.46,1.91,0.7,0.5600000000000001,0.68
7.787719964981079,2,3,3,0,-9.67,1.55,1.54,0.82,0.34,0.86
7.797719955444336,2,3,3,0,-9.640000000000001,1.6,1.33,1.19,0.26,1.18
7.807719945907593,2,3,3,0,-9.59,1.63,1.27,1.56,0.4,1.63
7.81771993637085,2,3,3,0,-9.5,1.69,1.26,1.61,0.82,2.13
7.827719926834106,2,3,3,0,-9.15,1.78,1.29,1.44,1.09,2.62
7.837719917297363,2,3,3,0,-8.94,1.87,1.29,1.42,1.15,3.07
7.847720146179199,2,3,3,0,-8.789999999999999,2,1.12,1.55,1.11,3.44
7.857720136642456,2,3,3,0,-8.66,2.1,1.06,1.88,1.05,3.72
7.867720127105713,2,3,3,0,-8.52,2.35,0.96,2.34,1.15,3.95
7.87772011756897,2,3,3,0,-8.44,2.44,0.86,2.55,1.33,4.11
7.887720108032227,2,3,3,0,-8.33,2.52,0.83,2.61,1.65,4.27
7.897720098495483,2,3,3,0,-8.24,2.55,0.67,2.46,2.13,4.45
7.90772008895874,2,3,3,0,-7.96,2.55,0.7,2.19,2.45,4.66
7.917720079421997,2,3,3,0,-7.87,2.52,0.95,1.86,2.49,4.94
7.927720069885254,2,3,3,0,-7.75,2.46,1.12,1.48,2.12,5.21
7.937720060348511,2,3,3,0,-7.47,2.51,1.16,1.56,1.09,5.45
7.947720050811768,2,3,3,0,-6.58,2.68,0.65,2.52,-0.23,5.82
7.957720041275024,2,3,3,0,-5.97,2.85,0.36,3.81,-1.23,6.38
7.967720031738281,2,3,3,0,-5.41,2.89,0.14,4.83,-1.29,7.26
7.977720022201538,2,3,3,0,-4.34,2.56,0.04,4.96,-0.35,8.44
7.987720012664795,2,3,3,0,-3.89,2.25,0.08,4.29,0.74,9.56
7.997720003128052,2,3,3,0,-3.43,2.02,0.17,3.26,1.55,10.26
8.007719993591309,2,3,3,0,-2.96,1.93,0.37,2.46,1.62,10.37
8.017719984054565,2,3,3,0,-2.21,2.22,0.59,2.12,1.43,10.01
8.027719974517822,2,3,3,0,-2.31,2.5,0.92,1.69,1.7,8.529999999999999
8.037719964981079,2,3,3,0,-2.63,2.58,1.2,1.69,1.7,8.529999999999999
8.047719955444336,2,3,3,0,-3.23,2.47,1.04,0.12,2.49,6.5
8.057719945907593,2,3,3,0,-5.42,2.02,1.65,-0.9,3.34,5.31
8.06771993637085,2,3,3,0,-6.75,1.88,2.09,-1.58,2.33,3.98
8.077719926834106,2,3,3,0,-7.82,1.87,2.23,-0.61,-0.39,2.7
8.087719917297363,2,3,3,0,-8.41,1.95,2.19,1.61,-2.86,1.94
8.097720146179199,2,3,3,0,-10.23,2.34,1.8,3.3,-3.09,1.9
8.107720136642456,2,3,3,0,-12.03,2.39,1.46,4.01,-0.75,1.93
8.117720127105713,2,3,3,0,-12.67,2.17,0.9399999999999999,2.4,1.64,2.01
8.12772011756897,2,3,3,0,-12.22,1.57,0.24,-0.51,2.97,2.91
8.137720108032227,2,3,3,0,-12.86,1.62,0.7,-2.84,3.11,3.24
8.147720098495483,2,3,3,0,-13.32,2.16,1.29,-4.31,0.15,3.34
8.15772008895874,2,3,3,0,-14.03,2.86,2.19,-5.61,-3.47,2.7
8.167720079421997,2,3,3,0,-14.44,2.89,2.53,-5.64,-5.5,1.04
8.177720069885254,2,3,3,0,-14.99,2.06,2.98,-5.06,-5.18,-1.14
8.187720060348511,2,3,3,0,-15.21,1.53,3.42,-4.24,-3.57,-3.28
8.197720050811768,2,3,3,0,-15.09,1.16,3.74,-1.87,-1.94,-4.83
8.207720041275024,2,3,3,0,-15.73,1.34,4.39,0.9399999999999999,-1,-5.27
8.217720031738281,2,3,3,0,-16.79,1.85,4.25,2.78,-0.84,-5.21
8.227720022201538,2,3,3,0,-17.76,2.65,4.25,4.18,-1.61,-4.92
8.237720012664795,2,3,3,0,-18.77,3.28,4.6,4.83,-2.36,-4.54
8.247720003128052,2,3,3,0,-20.17,5.02,4.08,4.77,-2.82,-3.75
8.257719993591309,2,3,3,0,-18.97,5.17,2.25,5.74,-1.62,-1.43
8.267719984054565,2,3,3,0,-19.46,5.94,1.59,5.68,3.59,1.18
8.278720140457153,2,3,3,0,-20.98,6.45,2.63,0.6,3.64,3.11
8.28872013092041,2,3,3,0,-20.65,6.62,3.2,-1.39,0.03,3.86
8.298720121383667,2,3,3,0,-20.24,6.45,3.73,-3.63,-1.91,3.49
8.308720111846924,2,3,3,0,-20,6.19,4.56,-5.09,-1.3,1.98
8.318720102310181,2,3,3,0,-20.35,5.38,5.34,-6.59,0.57,-0.48
8.328720092773438,2,3,3,0,-20.75,3.78,4.82,-6.95,2.43,-3.31
8.338720083236694,2,3,3,0,-21.41,2.76,4.62,-8.1,5,-6.61
8.348720073699951,2,3,3,0,-22.45,2.1,5.52,-9.92,7.1,-10.21
8.358720064163208,2,3,3,0,-24.52,1.8,7.19,-11.45,6.24,-13.06
8.368720054626465,2,3,3,0,-25.22,-0.03,5.98,-9.33,4.14,-14.34
8.378720045089722,2,3,3,0,-25.82,-0.16,5.89,-5.07,5.78,-14.27
8.388720035552979,2,3,3,0,-26.87,-0.24,5.5,-3.89,5.71,-12.87
8.398720026016235,2,3,3,0,-26.55,0.54,3.42,-4.13,2.46,-9.699999999999999
8.408720016479492,2,3,3,0,-24.28,1.42,2.08,-4.15,-0.95,-5.86
8.418720006942749,2,3,3,0,-20.62,2.21,1.29,-1.94,-0.84,-2.35
8.428719997406006,2,3,3,0,-16.47,4.32,0.1,4.4,-0.73,1.63
8.438719987869263,2,3,3,0,-7.33,7.17,-4.26,13.98,-2.57,4.9
8.44871997833252,2,3,3,0,-4.34,6.68,-4.41,16.37,3.67,5.68
8.458719968795776,2,3,3,0,-2.1,6.97,-3.63,11.35,11.47,3.47
8.468719959259033,2,3,3,0,1.05,9.220000000000001,-1.77,6.58,7.85,1.76
8.47871994972229,2,3,3,0,10.43,14.66,-1.77,5.31,-2.88,1.72
8.488719940185547,2,3,3,0,13.54,16.01,-3.91,6.94,-7.02,1.36
8.498719930648804,2,3,3,0,14.43,13.65,-5.9,6.44,-5.57,2.36
8.508719921112061,2,3,3,0,13.86,10.66,-6.89,2.26,-3.66,3.14
8.518720149993896,2,3,3,0,8.66,3.8,-3.9,-5.39,4.61,1.48
8.528720140457153,2,3,3,0,4.55,1.84,-1.8,-12.94,11.33,-1.12
8.53872013092041,2,3,3,0,1.51,0.85,-0.02,-18.71,10.38,-3.02
8.548720121383667,2,3,3,0,-0.32,0.19,0.66,-21.88,5,-4
8.558720111846924,2,3,3,0,-1.92,-1.65,0.37,-21.6,-2.05,-4.74
8.568720102310181,2,3,3,0,-2.49,-2.12,0.23,-19.49,-5.35,-5.02
8.578720092773438,2,3,3,0,-2.42,-2.53,0.8100000000000001,-18.02,-3.87,-3.9
8.588720083236694,2,3,3,0,-1.47,-3.17,0.24,-15.82,-3.47,-2.57
8.598720073699951,2,3,3,0,-2.59,-3.01,0.5,-10.51,-1.81,-3.09
8.608720064163208,2,3,3,0,-3.27,-4.13,1.36,-6.29,0.41,-4.65
8.618720054626465,2,3,3,0,-3.7,-4.84,1.64,-2.3,-0.67,-5.03
8.628720045089722,2,3,3,0,-3.41,-4.5,1.23,1.86,-1.94,-4.56
8.638720035552979,2,3,3,0,-3.27,-3.81,0.71,5.36,-1.29,-3.41
8.648720026016235,2,3,3,0,-2.8,-3.03,0.41,7.61,-1.29,-1.85
8.658720016479492,2,3,3,0,-2.02,-2.04,0.28,8.720000000000001,-1.29,-0.24
8.668720006942749,2,3,3,0,-0.12,-0.12,-0.08,9.57,-0.8,1.18
8.678719997406006,2,3,3,0,0.41,0.45,-0.23,9.77,0.17,2.32
8.688719987869263,2,3,3,0,0.5600000000000001,0.47,-0.19,8.470000000000001,1.39,3.14
8.69871997833252,2,3,3,0,0.64,0.29,-0.09,6.66,1.92,3.57
8.708719968795776,2,3,3,0,0.97,0.17,0.37,5.96,1.17,3.92
8.718719959259033,2,3,3,0,1.21,0.17,0.5,6.23,-0.49,4.32
8.72871994972229,2,3,3,0,1.21,0.17,0.5,6.42,-2.1,4.64
8.738719940185547,2,3,3,0,1.56,-0.03,0.5600000000000001,6.44,-3.12,4.63
8.748719930648804,2,3,3,0,1.47,0.44,0.74,6.36,-3.8,4.38
8.758719921112061,2,3,3,0,1.36,0.89,0.6899999999999999,6.65,-4.18,3.91
8.768720149993896,2,3,3,0,1.09,1.56,0.68,7.14,-3.82,3.16
8.778720140457153,2,3,3,0,1.09,1.56,0.68,6.02,-3.74,2.33
8.78872013092041,2,3,3,0,0.49,2.58,0.4,3.51,-3.79,1.26
8.808720111846924,2,3,3,0,0.3,2.28,-0.13,-1.4,-4.28,-1.54
8.818720102310181,2,3,3,0,-0.1,1.59,-0.37,-3.91,-5.03,-3.03
8.828720092773438,2,3,3,0,-0.1,1.59,-0.37,-3.91,-5.03,-3.03
8.838720083236694,2,3,3,0,0.62,0.6,-1.55,-6.46,-7.03,-5.27
8.848720073699951,2,3,3,0,0.6899999999999999,1.11,-0.86,-6.16,-2.8,-6.26
8.858720064163208,2,3,3,0,-1.06,3.45,0.36,-5.41,0.72,-6.49
8.868720054626465,2,3,3,0,-2.97,6.06,2.73,-1.76,1.28,-6
8.878720045089722,2,3,3,0,-2.97,6.06,2.73,-0.78,0.74,-5.34
8.888720035552979,2,3,3,0,-6.59,9.35,3.4,-2.58,-2.57,-6.37
8.898720026016235,2,3,3,0,-37.18,15.88,11.25,-13.16,-6.45,-14.29
8.908720016479492,2,3,3,0,-32.42,10.16,5.34,-34.61,-17.22,-31.95
8.918720006942749,2,3,3,0,-35.38,-3.4,5.25,-40.46,-1.15,-30.54
8.928719997406006,2,3,3,0,-35.38,-3.4,5.25,-40.46,-1.15,-30.54
8.938719987869263,2,3,3,0,-39.27,-11.95,-0.65,-8.94,-0.31,0.44
8.94871997833252,2,3,3,0,-29.48,-3.97,4.15,8.609999999999999,-19.2,5.08
8.958719968795776,2,3,3,0,-13.25,-1.43,7.59,2.61,-2.41,8.34
8.968719959259033,2,3,3,0,-10.44,-1.19,12.08,-2.18,3.68,2.44
8.97871994972229,2,3,3,0,-10.44,-1.19,12.08,-2.18,3.68,2.44
8.988719940185547,2,3,3,0,-12.12,-4.2,9.619999999999999,0.8,-4.75,-6.14
8.998719930648804,2,3,3,0,-14.85,-4.12,8.720000000000001,9.640000000000001,-2.16,-5.73
9.008719921112061,2,3,3,0,-18.72,-3.33,7.38,9.109999999999999,3.03,-1.48
9.018720149993896,2,3,3,0,-23.53,-3.21,0.6,8.039999999999999,11.54,4.44
9.028720140457153,2,3,3,0,-23.04,-1.03,0.39,8.039999999999999,11.54,4.44
9.03872013092041,2,3,3,0,-22.07,1.12,1.77,4.73,14.44,9.539999999999999
9.048720121383667,2,3,3,0,-19.01,1.77,1.91,2.3,-0.1,15.47
9.078720092773438,2,3,3,0,-9.09,2.78,3.53,3.66,-7.61,11.2
9.088720083236694,2,3,3,0,-6.95,1.79,3.39,3.15,-7.95,6.84
9.098720073699951,2,3,3,0,-5.9,3.04,3.01,6.41,4.1,2.42
9.108720064163208,2,3,3,0,-5.5,2.98,2.07,5.56,5.79,1.22
9.118720054626465,2,3,3,0,-5.38,2.75,1.75,3.82,9.18,0.11
9.128720045089722,2,3,3,0,-5.18,1.87,1.36,3.82,9.18,0.11
9.138720035552979,2,3,3,0,-5.21,0.99,0.39,3.29,12.72,-0.5
9.148720026016235,2,3,3,0,-5.86,0.78,-0.08,1.95,8.51,-0.17
9.158720016479492,2,3,3,0,-6.18,0.79,-0.53,1.31,3.99,0.59
9.168720006942749,2,3,3,0,-5.94,0.75,-0.85,0.49,0.8100000000000001,1.38
9.178719997406006,2,3,3,0,-4.87,0.87,0.24,0.49,0.8100000000000001,1.38
9.188719987869263,2,3,3,0,-4.19,0.49,0.99,-0.74,-1.2,2.41
9.19871997833252,2,3,3,0,-3.85,0.6,1.43,1.55,-4.01,3.5
9.208719968795776,2,3,3,0,-2.74,1.01,1.03,4.35,-2.51,3.12
9.218719959259033,2,3,3,0,-2.63,1.03,0.91,6.27,0.11,2.44
9.22871994972229,2,3,3,0,-3.04,1.23,0.9399999999999999,6.27,0.11,2.44
9.238719940185547,2,3,3,0,-3.44,1.37,1.04,7.32,2.07,1.83
9.248719930648804,2,3,3,0,-4.59,2.31,1.1,7.4,3.28,0.84
9.258719921112061,2,3,3,0,-5.31,2.88,1.02,6.72,3.31,0.26
9.268720149993896,2,3,3,0,-6.18,3.28,0.9399999999999999,5.76,3.1,-0.5600000000000001
9.278720140457153,2,3,3,0,-7.15,3.38,0.97,5.76,3.1,-0.5600000000000001
9.28872013092041,2,3,3,0,-9.75,3.35,1.25,4.61,2.69,-1.85
9.299720048904419,2,3,3,0,-10.88,3.22,1.1,3.65,0.35,-5.17
9.309720039367676,2,3,3,0,-11.92,3.18,0.91,3.09,-0.19,-6.58
9.319720029830933,2,3,3,0,-12.96,2.81,0.58,2.48,-0.4,-7.57
9.329720020294189,2,3,3,0,-14,1.59,-0.18,2.48,-0.4,-7.57
9.339720010757446,2,3,3,0,-14.36,0.99,0,1.1,0.05,-7.63
9.349720001220703,2,3,3,0,-14.78,0.46,0.38,-0.96,-0.39,-5.46
9.35971999168396,2,3,3,0,-14.62,0.03,0.46,-0.25,-1.85,-3.62
9.369719982147217,2,3,3,0,-12.6,-0.34,0.86,0.66,-2.27,-1.51
9.379719972610474,2,3,3,0,-11.39,-0.31,1.34,0.66,-2.27,-1.51
9.38971996307373,2,3,3,0,-10.17,0.13,1.72,1.5,-2.25,0.57
9.399719953536987,2,3,3,0,-8.609999999999999,1.28,1.94,2.55,-2.45,3.05
9.409719944000244,2,3,3,0,-8.06,1.59,1.61,2.55,-2.45,3.05
9.419719934463501,2,3,3,0,-7.4,1.82,1.19,3.17,-2.93,3.27
9.429719924926758,2,3,3,0,-6.87,1.85,0.98,3.49,-2.78,2.94
9.439719915390015,2,3,3,0,-7.12,1.81,1.34,2.81,-1.76,2.26
9.449720144271851,2,3,3,0,-7.49,1.74,1.4,1.88,-0.76,1.42
9.469720125198364,2,3,3,0,-8.130000000000001,1.64,1.49,1.62,0.82,0.54
9.479720115661621,2,3,3,0,-9.220000000000001,1.62,1.44,2,1.34,0.49
9.489720106124878,2,3,3,0,-9.859999999999999,1.74,1.31,2.92,1.32,0.5
9.499720096588135,2,3,3,0,-10.41,1.74,1.02,3.49,1,0.61
9.509720087051392,2,3,3,0,-10.74,1.69,0.6,3.61,0.39,0.8
9.519720077514648,2,3,3,0,-10.44,1.54,0.48,3.4,-0.24,1.1
9.529720067977905,2,3,3,0,-10.11,1.61,0.73,2.81,-0.65,1.19
9.539720058441162,2,3,3,0,-9.83,1.84,1.13,2.18,-0.99,0.97
9.549720048904419,2,3,3,0,-9.49,2.03,1.43,1.89,-1.85,0.5600000000000001
9.559720039367676,2,3,3,0,-8.84,2.55,1.07,2.35,-2.72,0.04
9.569720029830933,2,3,3,0,-8.869999999999999,2.81,1.05,3.17,-2.57,-0.68
9.579720020294189,2,3,3,0,-9.26,2.84,1.16,3.1,-1.77,-1.55
9.589720010757446,2,3,3,0,-9.69,2.81,1.08,2.1,-1.52,-2.32
9.599720001220703,2,3,3,0,-9.779999999999999,2.67,0.97,0.76,-1.65,-2.71
9.60971999168396,2,3,3,0,-9.779999999999999,2.42,0.93,-0.7,-1.58,-2.93
9.619719982147217,2,3,3,0,-9.76,2.16,1.14,-1.93,-1.34,-2.99
9.629719972610474,2,3,3,0,-9.48,1.68,1.5,-2.68,-1.35,-2.74
9.63971996307373,2,3,3,0,-9.32,1.45,1.61,-2.74,-1.48,-2.27
9.649719953536987,2,3,3,0,-9.08,1.26,1.61,-2.16,-1.48,-1.67
9.659719944000244,2,3,3,0,-8.859999999999999,1.18,1.53,-1.25,-1.5,-0.89
9.669719934463501,2,3,3,0,-8.69,1.41,1.61,-0.24,-1.12,-0.01
9.679719924926758,2,3,3,0,-8.85,1.61,1.61,0.72,-0.3,0.9
9.689719915390015,2,3,3,0,-9.06,1.82,1.58,1.25,0.62,1.58
9.699720144271851,2,3,3,0,-9.19,2.02,1.54,1.41,1.23,1.79
9.709720134735107,2,3,3,0,-9.449999999999999,2.25,1.34,1.18,1.48,1.66
9.719720125198364,2,3,3,0,-9.619999999999999,2.31,1.36,0.78,1.42,1.31
9.729720115661621,2,3,3,0,-9.84,2.36,1.38,0.28,1.15,0.82
9.739720106124878,2,3,3,0,-9.99,2.38,1.38,-0.45,0.59,0.28
9.749720096588135,2,3,3,0,-10.18,2.29,1.3,-1.32,-0.08,-0.28
9.759720087051392,2,3,3,0,-10.17,2.15,1.25,-2.12,-0.79,-0.71
9.769720077514648,2,3,3,0,-10.12,2.04,1.33,-2.67,-1.47,-1.05
9.779720067977905,2,3,3,0,-9.91,1.78,1.61,-2.9,-1.86,-1.29
9.789720058441162,2,3,3,0,-9.82,1.68,1.63,-2.73,-2.02,-1.4
9.799720048904419,2,3,3,0,-9.720000000000001,1.6,1.66,-2.16,-1.98,-1.45
9.809720039367676,2,3,3,0,-9.59,1.54,1.53,-1.53,-1.79,-1.37
9.819720029830933,2,3,3,0,-9.5,1.48,1.49,-1.02,-1.56,-1.27
9.829720020294189,2,3,3,0,-9.460000000000001,1.51,1.52,-0.71,-1.29,-1.05
9.839720010757446,2,3,3,0,-9.449999999999999,1.52,1.53,-0.63,-1.06,-0.91
9.849720001220703,2,3,3,0,-9.380000000000001,1.51,1.57,-0.6899999999999999,-0.86,-0.78
9.85971999168396,2,3,3,0,-9.32,1.42,1.57,-0.77,-0.72,-0.75
9.869719982147217,2,3,3,0,-9.32,1.37,1.67,-0.91,-0.59,-0.68
9.879719972610474,2,3,3,0,-9.380000000000001,1.3,1.72,-1.03,-0.45,-0.62
9.88971996307373,2,3,3,1,-9.41,1.27,1.7,-1.04,-0.33,-0.58
9.899719953536987,2,3,3,1,-9.539999999999999,1.32,1.77,-0.84,-0.18,-0.52
9.909719944000244,2,3,3,1,-9.609999999999999,1.34,1.63,-0.51,-0.14,-0.42
9.919719934463501,2,3,3,1,-9.65,1.43,1.61,0.04,-0.09,-0.25
9.929719924926758,2,3,3,1,-9.68,1.48,1.55,0.52,0.09,-0.06
9.939719915390015,2,3,3,1,-9.67,1.55,1.53,0.76,0.31,0.13
9.949720144271851,2,3,3,1,-9.69,1.61,1.51,0.8,0.43,0.34
9.959720134735107,2,3,3,1,-9.710000000000001,1.6,1.42,0.8100000000000001,0.39,0.45
9.969720125198364,2,3,3,1,-9.77,1.64,1.46,0.96,0.29,0.44
9.979720115661621,2,3,3,1,-9.91,1.75,1.42,1.22,0.1,0.29
9.989720106124878,2,3,3,1,-9.93,1.89,1.33,1.53,-0.11,0.13
9.999720096588135,2,3,3,1,-9.890000000000001,1.87,1.25,1.63,-0.25,-0.01
10.00972008705139,2,3,3,1,-9.73,1.87,1.12,1.15,-0.36,-0.11
10.01972007751465,2,3,3,1,-9.539999999999999,1.88,1.27,0.49,-0.55,-0.2
10.02972006797791,2,3,3,1,-9.380000000000001,1.89,1.35,-0.12,-0.8100000000000001,-0.3
10.03972005844116,2,3,3,1,-9.25,1.87,1.48,-0.53,-0.98,-0.37
10.04972004890442,2,3,3,1,-9.1,1.81,1.55,-0.74,-0.97,-0.46
10.05972003936768,2,3,3,1,-9.130000000000001,1.72,1.51,-0.71,-0.7,-0.5600000000000001
10.06972002983093,2,3,3,1,-9.24,1.63,1.6,-0.77,-0.27,-0.73
10.07972002029419,2,3,3,1,-9.41,1.6,1.62,-0.84,0.12,-0.91
10.08972001075745,2,3,3,0,-9.74,1.45,1.64,-0.84,0.42,-1.09
10.0997200012207,2,3,3,0,-9.85,1.39,1.58,-0.76,0.52,-1.14
10.10971999168396,2,3,3,0,-9.92,1.33,1.46,-0.77,0.55,-1.02
10.11971998214722,2,3,3,0,-9.970000000000001,1.28,1.44,-0.85,0.5600000000000001,-0.84
10.12971997261047,2,3,3,0,-9.91,1.19,1.55,-0.99,0.42,-0.61
10.13971996307373,2,3,3,0,-9.83,1.2,1.64,-1.01,0.22,-0.37
10.14971995353699,2,3,3,0,-9.710000000000001,1.2,1.68,-0.9,-0.09,-0.15
10.15971994400024,2,3,3,0,-9.609999999999999,1.26,1.67,-0.67,-0.32,0.03
10.1697199344635,2,3,3,0,-9.49,1.33,1.75,-0.37,-0.31,0.15
10.17971992492676,2,3,3,0,-9.470000000000001,1.35,1.73,-0.11,-0.2,0.17
10.18971991539001,2,3,3,0,-9.5,1.47,1.73,0.03,0.02,0.2
10.19972014427185,2,3,3,0,-9.52,1.46,1.63,0.06,0.19,0.17
10.20972013473511,2,3,3,0,-9.52,1.48,1.57,-0.05,0.22,0.05
10.21972012519836,2,3,3,0,-9.529999999999999,1.5,1.6,-0.18,0.13,-0.02
10.22972011566162,2,3,3,0,-9.550000000000001,1.46,1.63,-0.38,0,-0.09
10.23972010612488,2,3,3,0,-9.609999999999999,1.41,1.66,-0.5600000000000001,-0.12,-0.12
10.24972009658813,2,3,3,0,-9.630000000000001,1.38,1.63,-0.75,-0.13,-0.14
10.25972008705139,2,3,3,0,-9.640000000000001,1.32,1.6,-0.9,-0.07000000000000001,-0.16
10.26972007751465,2,3,3,0,-9.65,1.29,1.68,-1.06,-0.05,-0.17
10.27972006797791,2,3,3,0,-9.67,1.24,1.76,-1.13,0.02,-0.18
10.28972005844116,2,3,3,0,-9.619999999999999,1.2,1.81,-0.8,0.14,-0.11
10.29972004890442,2,3,3,0,-9.6,1.21,1.86,-0.8,0.14,-0.11
10.30972003936768,2,3,3,0,-9.609999999999999,1.2,1.75,-0.58,0.22,0
10.31972002983093,2,3,3,0,-9.619999999999999,1.3,1.72,-0.19,0.29,0.16
10.33071994781494,2,3,3,0,-9.630000000000001,1.3,1.69,-0.1,0.32,0.15
10.3407199382782,2,3,3,0,-9.609999999999999,1.3,1.65,-0.12,0.24,0.16
10.35071992874146,2,3,3,0,-9.59,1.3,1.68,-0.27,0.1,0.13
10.36071991920471,2,3,3,0,-9.59,1.34,1.61,-0.36,-0.01,0.08
10.37072014808655,2,3,3,0,-9.6,1.36,1.67,-0.36,-0.09,0.01
10.3807201385498,2,3,3,0,-9.57,1.37,1.7,-0.42,-0.13,-0.09
10.39072012901306,2,3,3,0,-9.539999999999999,1.33,1.76,-0.54,-0.12,-0.18
10.40072011947632,2,3,3,0,-9.6,1.31,1.77,-0.6899999999999999,-0.1,-0.22
10.41072010993958,2,3,3,0,-9.6,1.31,1.71,-0.74,-0.18,-0.29
10.42072010040283,2,3,3,0,-9.640000000000001,1.29,1.72,-0.7,-0.29,-0.3
10.43072009086609,2,3,3,0,-9.56,1.26,1.76,-0.63,-0.26,-0.28
10.44072008132935,2,3,3,0,-9.529999999999999,1.26,1.77,-0.55,-0.23,-0.17
10.4507200717926,2,3,3,0,-9.51,1.26,1.78,-0.46,-0.17,-0.08
10.46072006225586,2,3,3,0,-9.529999999999999,1.25,1.72,-0.36,-0.07000000000000001,0.03
10.47072005271912,2,3,3,0,-9.59,1.29,1.71,-0.27,0,0.1
10.48072004318237,2,3,3,0,-9.6,1.31,1.72,-0.26,0.08,0.18
10.49072003364563,2,3,3,0,-9.6,1.32,1.69,-0.28,0.09,0.21
10.50072002410889,2,3,3,0,-9.59,1.31,1.69,-0.32,0.13,0.19
10.51072001457214,2,3,3,0,-9.58,1.3,1.65,-0.46,0.12,0.15
10.5207200050354,2,3,3,0,-9.57,1.31,1.66,-0.52,0.12,0.14
10.53071999549866,2,3,3,0,-9.57,1.29,1.77,-0.49,0.13,0.11
10.54071998596191,2,3,3,0,-9.58,1.27,1.75,-0.47,0.1,0.08
10.55071997642517,2,3,3,0,-9.58,1.21,1.69,-0.43,0.12,0.05
10.56071996688843,2,3,3,0,-9.6,1.17,1.69,-0.48,0.12,0.05
10.57071995735168,2,3,3,0,-9.630000000000001,1.17,1.75,-0.58,0.06,0.06
10.58071994781494,2,3,3,0,-9.69,1.11,1.85,-0.53,-0.04,0.06
10.5907199382782,2,3,3,0,-9.67,1.09,1.8,-0.34,-0.12,0.04
10.60071992874146,2,3,3,0,-9.6,1.08,1.75,-0.18,-0.04,0.06
10.61071991920471,2,3,3,0,-9.59,1.08,1.7,-0.12,-0.01,0.15
10.62072014808655,2,3,3,0,-9.609999999999999,1.08,1.8,-0.06,0.09,0.23
10.6307201385498,2,3,3,0,-9.619999999999999,1.12,1.76,-0.02,0.05,0.3
10.64072012901306,2,3,3,0,-9.58,1.14,1.77,0.09,0.04,0.32
10.65072011947632,2,3,3,0,-9.57,1.15,1.78,0.13,0.07000000000000001,0.4
10.66072010993958,2,3,3,0,-9.57,1.16,1.72,0.14,0.13,0.41
10.67072010040283,2,3,3,0,-9.59,1.18,1.75,0.22,0.17,0.45
10.68072009086609,2,3,3,0,-9.640000000000001,1.21,1.74,0.38,0.2,0.47
10.69072008132935,2,3,3,0,-9.640000000000001,1.28,1.73,0.51,0.21,0.51
10.7007200717926,2,3,3,0,-9.609999999999999,1.35,1.61,0.55,0.21,0.49
10.71072006225586,2,3,3,0,-9.58,1.36,1.51,0.5,0.16,0.47
10.72072005271912,2,3,3,0,-9.609999999999999,1.4,1.58,0.37,0.07000000000000001,0.46
10.73072004318237,2,3,3,0,-9.609999999999999,1.4,1.61,0.24,-0.04,0.39
10.74072003364563,2,3,3,0,-9.58,1.43,1.67,0.18,-0.13,0.29
10.75072002410889,2,3,3,0,-9.56,1.43,1.66,0.05,-0.13,0.19
10.76072001457214,2,3,3,0,-9.48,1.42,1.6,-0.02,-0.1,0.09
10.7707200050354,2,3,3,0,-9.460000000000001,1.45,1.62,-0.05,-0.09,-0.01
10.78071999549866,2,3,3,0,-9.49,1.4,1.75,-0.03,-0.05,-0.11
10.79071998596191,2,3,3,0,-9.52,1.37,1.75,0.03,-0.04,-0.22
10.80071997642517,2,3,3,0,-9.529999999999999,1.32,1.72,0.08,0.01,-0.28
10.81071996688843,2,3,3,0,-9.640000000000001,1.26,1.59,0.13,0.06,-0.32
10.82071995735168,2,3,3,0,-9.66,1.25,1.68,0.09,0.07000000000000001,-0.27
10.83071994781494,2,3,3,0,-9.65,1.24,1.66,0.06,0.04,-0.24
10.8407199382782,2,3,3,0,-9.65,1.25,1.69,0.11,0.04,-0.16
10.85071992874146,2,3,3,0,-9.59,1.27,1.66,0.17,0.02,-0.05
10.86071991920471,2,3,3,0,-9.56,1.3,1.61,0.24,0.02,0.03
10.87072014808655,2,3,3,0,-9.57,1.32,1.67,0.3,-0.01,0.08
10.8807201385498,2,3,3,0,-9.550000000000001,1.34,1.69,0.37,0.03,0.07000000000000001
10.89072012901306,2,3,3,0,-9.609999999999999,1.38,1.73,0.39,0.08,0.07000000000000001
10.90072011947632,2,3,3,0,-9.6,1.39,1.72,0.36,0.08,-0.04
10.91072010993958,2,3,3,0,-9.59,1.37,1.64,0.36,0.05,-0.04
10.92072010040283,2,3,3,0,-9.59,1.39,1.64,0.35,0.04,-0.06
10.93072009086609,2,3,3,0,-9.550000000000001,1.42,1.66,0.36,0.03,-0.06
10.94072008132935,2,3,3,0,-9.56,1.42,1.7,0.36,0.04,-0.03
10.9507200717926,2,3,3,0,-9.550000000000001,1.43,1.66,0.35,0.06,0
10.96072006225586,2,3,3,0,-9.550000000000001,1.45,1.58,0.33,0.08,0.04
10.97072005271912,2,3,3,0,-9.6,1.45,1.64,0.24,0.11,0.04
10.98072004318237,2,3,3,0,-9.609999999999999,1.47,1.67,0.17,0.09,0.03
10.99072003364563,2,3,3,0,-9.630000000000001,1.45,1.69,0.11,0.07000000000000001,0.01
11.00072002410889,2,3,3,0,-9.619999999999999,1.47,1.63,0.1,0.05,-0.02
11.01072001457214,2,3,3,0,-9.609999999999999,1.45,1.63,0.1,0.06,-0.01
11.0207200050354,2,3,3,0,-9.58,1.43,1.67,0.05,0.08,-0.03
11.03071999549866,2,3,3,0,-9.6,1.43,1.69,0.09,0.05,-0.01
11.04071998596191,2,3,3,0,-9.57,1.43,1.71,0.07000000000000001,0.07000000000000001,-0.05
11.05071997642517,2,3,3,0,-9.57,1.43,1.68,-0.02,0.08,-0.03
11.06071996688843,2,3,3,0,-9.57,1.42,1.6,-0.1,0.06,-0.05
11.07071995735168,2,3,3,0,-9.59,1.41,1.65,-0.13,0.02,-0.08
11.08071994781494,2,3,3,0,-9.58,1.37,1.7,-0.08,-0.03,-0.09
11.0907199382782,2,3,3,0,-9.59,1.36,1.74,-0.03,-0.04,-0.07000000000000001
11.10071992874146,2,3,3,0,-9.619999999999999,1.39,1.71,0.02,0.02,-0.07000000000000001
11.11071991920471,2,3,3,0,-9.619999999999999,1.39,1.59,0.11,0.04,0
11.12072014808655,2,3,3,0,-9.640000000000001,1.42,1.66,0.13,0.05,0.03
11.1307201385498,2,3,3,0,-9.619999999999999,1.44,1.68,0.11,0,0.07000000000000001
11.14072012901306,2,3,3,0,-9.58,1.47,1.69,0.11,-0.02,0.09
11.15072011947632,2,3,3,0,-9.57,1.47,1.7,0.11,-0.01,0.11
11.16072010993958,2,3,3,0,-9.6,1.5,1.58,0.03,-0.01,0.11
11.17072010040283,2,3,3,0,-9.6,1.51,1.64,-0.05,-0.06,0.05
11.18072009086609,2,3,3,0,-9.6,1.51,1.64,-0.18,-0.05,0.08
11.19072008132935,2,3,3,0,-9.58,1.48,1.69,-0.18,-0.05,0.08
11.2007200717926,2,3,3,0,-9.56,1.43,1.75,-0.3,-0.04,0.07000000000000001
11.21072006225586,2,3,3,0,-9.550000000000001,1.38,1.75,-0.46,0.03,0.12
11.22072005271912,2,3,3,0,-9.539999999999999,1.33,1.69,-0.32,0.05,0.13
11.23072004318237,2,3,3,0,-9.529999999999999,1.34,1.69,-0.13,0.1,0.15
11.24072003364563,2,3,3,0,-9.619999999999999,1.33,1.72,-0.13,0.1,0.15
11.25072002410889,2,3,3,0,-9.619999999999999,1.36,1.69,0.05,0.22,0.16
11.26072001457214,2,3,3,0,-9.640000000000001,1.38,1.69,0.01,0.17,0.23
11.2707200050354,2,3,3,0,-9.65,1.39,1.55,-0.07000000000000001,0.07000000000000001,0.28
11.28071999549866,2,3,3,0,-9.630000000000001,1.42,1.61,-0.17,0.03,0.29
11.29071998596191,2,3,3,0,-9.609999999999999,1.4,1.67,-0.17,0.03,0.29
11.30071997642517,2,3,3,0,-9.59,1.4,1.71,-0.27,0,0.28
11.31071996688843,2,3,3,0,-9.550000000000001,1.39,1.75,-0.21,-0.04,0.2
11.32071995735168,2,3,3,0,-9.529999999999999,1.37,1.69,-0.12,0,0.17
11.33071994781494,2,3,3,0,-9.5,1.36,1.7,-0.02,0.02,0.13
11.3407199382782,2,3,3,0,-9.529999999999999,1.35,1.7,0,0.05,0.09
11.35172009468079,2,3,3,0,-9.59,1.36,1.72,0,0.05,0.07000000000000001
11.36172008514404,2,3,3,0,-9.630000000000001,1.34,1.65,-0.03,0.05,0.11
11.3717200756073,2,3,3,0,-9.640000000000001,1.34,1.58,-0.02,-0.02,0.15
11.38172006607056,2,3,3,0,-9.6,1.34,1.62,-0.05,-0.04,0.21
11.39172005653381,2,3,3,0,-9.56,1.41,1.74,-0.05,-0.04,0.21
11.40172004699707,2,3,3,0,-9.58,1.42,1.71,-0.02,-0.04,0.24
11.41172003746033,2,3,3,0,-9.58,1.43,1.69,0.12,-0.06,0.2
11.42172002792358,2,3,3,0,-9.57,1.44,1.58,0.14,-0.03,0.19
11.43172001838684,2,3,3,0,-9.6,1.44,1.61,0.12,0.02,0.16
11.4417200088501,2,3,3,0,-9.58,1.45,1.58,0.12,0.02,0.16
11.45171999931335,2,3,3,0,-9.58,1.44,1.62,-0.14,0.09,0.15
11.46171998977661,2,3,3,0,-9.57,1.4,1.67,-0.22,0.02,0.19
11.47171998023987,2,3,3,0,-9.550000000000001,1.43,1.58,-0.24,-0.01,0.2
11.48171997070312,2,3,3,0,-9.56,1.42,1.63,-0.26,0,0.17
11.49171996116638,2,3,3,0,-9.539999999999999,1.41,1.67,-0.26,0,0.17
11.50171995162964,2,3,3,0,-9.550000000000001,1.37,1.73,-0.29,-0.04,0.15
11.5117199420929,2,3,3,0,-9.56,1.32,1.7,-0.18,-0.2,0.11
11.52171993255615,2,3,3,0,-9.539999999999999,1.32,1.59,-0.02,-0.2,0.12
11.53171992301941,2,3,3,0,-9.619999999999999,1.32,1.68,0.06,-0.2,0.1
11.54171991348267,2,3,3,0,-9.699999999999999,1.36,1.84,0.06,-0.2,0.1
11.5517201423645,2,3,3,0,-9.789999999999999,1.47,2.07,-0.21,-0.6899999999999999,0.18
11.56172013282776,2,3,3,0,-9.52,1.37,1.73,0.22,-1.89,0.42
11.57172012329102,2,3,3,0,-9.210000000000001,1.37,1.09,0.97,-0.8100000000000001,0.39
11.58172011375427,2,3,3,0,-9.640000000000001,1.53,1.68,0.12,-0.39,0.32
11.59172010421753,2,3,3,0,-9.69,1.38,1.84,0.12,-0.39,0.32
11.60172009468079,2,3,3,0,-9.52,1.32,1.57,-0.27,-0.92,0.15
11.61172008514404,2,3,3,0,-9.51,1.4,1.64,0.16,-0.86,0.04
11.6217200756073,2,3,3,0,-9.720000000000001,1.34,1.86,-0.25,-0.73,0.07000000000000001
11.63172006607056,2,3,3,0,-9.380000000000001,1.19,1.36,0.01,-1.81,0.43
11.64172005653381,2,3,3,0,-9.19,1.18,1.15,0.01,-1.81,0.43
11.65172004699707,2,3,3,0,-9.17,1.07,1.25,0.34,-1.05,0.6
11.66172003746033,2,3,3,0,-9.33,0.95,1.55,0.17,-0.46,0.7
11.67172002792358,2,3,3,0,-9.52,0.96,1.64,0.33,-0.22,0.65
11.68172001838684,2,3,3,0,-9.74,1.07,1.73,0.67,0.03,0.53
11.6917200088501,2,3,3,0,-9.94,1.14,1.64,0.8100000000000001,0.11,0.45
11.70171999931335,2,3,3,0,-9.98,1.31,1.41,0.95,0.03,0.53
11.71171998977661,2,3,3,0,-9.880000000000001,1.33,1.27,0.95,-0.18,0.74
11.72171998023987,2,3,3,0,-9.76,1.36,1.19,1.17,-0.12,1
11.73171997070312,2,3,3,0,-9.77,1.33,1.26,1.13,0.21,1.21
11.74171996116638,2,3,3,0,-9.789999999999999,1.29,1.34,0.99,0.26,1.33
11.75171995162964,2,3,3,0,-9.779999999999999,1.26,1.33,0.92,0.19,1.34
11.77171993255615,2,3,3,0,-9.84,1.31,1.06,1.22,0.34,1.15
11.81172013282776,2,3,3,0,-9.65,1.38,1.07,1.03,0.39,0.77
11.82172012329102,2,3,3,0,-9.68,1.38,1.08,0.72,0.17,0.65
11.83172011375427,2,3,3,0,-9.720000000000001,1.34,1.16,0.55,0.02,0.53
11.84172010421753,2,3,3,0,-9.75,1.34,1.18,0.48,-0.21,0.42
11.85172009468079,2,3,3,0,-9.84,1.33,1.23,0.62,-0.36,0.33
11.86172008514404,2,3,3,0,-9.81,1.33,1.16,0.86,-0.47,0.26
11.8717200756073,2,3,3,0,-9.779999999999999,1.35,1.06,1.1,-0.46,0.22
11.88172006607056,2,3,3,0,-9.789999999999999,1.42,1.04,1.1,-0.35,0.22
11.89172005653381,2,3,3,0,-9.77,1.55,1.02,0.84,-0.26,0.21
11.90172004699707,2,3,3,0,-9.76,1.61,1.11,0.43,-0.26,0.19
11.91172003746033,2,3,3,0,-9.74,1.6,1.14,0.03,-0.3,0.16
11.92172002792358,2,3,3,0,-9.75,1.64,1.12,-0.28,-0.41,0.03
11.93172001838684,2,3,3,0,-9.73,1.64,1.26,-0.46,-0.61,-0.08
11.9417200088501,2,3,3,0,-9.720000000000001,1.64,1.28,-0.51,-0.76,-0.18
11.96171998977661,2,3,3,0,-9.76,1.62,1.26,-0.44,-0.79,-0.47
11.97171998023987,2,3,3,0,-9.98,1.57,1.34,-0.65,-0.71,-0.57
11.98171997070312,2,3,3,0,-10.06,1.58,1.49,-1.03,-0.86,-0.71
11.99171996116638,2,3,3,0,-10.14,1.62,1.61,-1.32,-1.26,-0.8
12.00171995162964,2,3,3,0,-10.32,1.69,1.76,-1.37,-1.72,-0.89
12.0117199420929,2,3,3,0,-10.34,1.68,1.78,-1.3,-2.07,-1
12.02171993255615,2,3,3,0,-10.4,1.7,1.74,-1.1,-2.38,-1.07
12.03171992301941,2,3,3,0,-10.49,1.78,1.84,-0.91,-2.64,-1.12
12.04171991348267,2,3,3,0,-10.49,1.84,1.82,-0.85,-3.09,-1.07
12.0517201423645,2,3,3,0,-10.49,1.96,1.79,-0.75,-3.5,-1.06
12.06172013282776,2,3,3,0,-10.42,2.02,1.84,-0.63,-3.68,-1.01
12.07172012329102,2,3,3,0,-10.28,2.08,1.78,-0.68,-3.87,-0.9
12.08172011375427,2,3,3,0,-9.58,2.21,1.81,-0.68,-4.14,-0.72
12.09172010421753,2,3,3,0,-9.119999999999999,2.18,1.9,-0.79,-4.24,-0.57
12.10172009468079,2,3,3,0,-8.75,2.13,2.19,-1.41,-4.02,-0.4
12.11172008514404,2,3,3,0,-8.51,2.08,2.6,-2.5,-3.55,-0.2
12.1217200756073,2,3,3,0,-8.15,2.06,3.33,-3.67,-3.59,-0.01
12.13172006607056,2,3,3,0,-7.93,1.95,3.48,-4.54,-4.09,0.19
12.14172005653381,2,3,3,0,-7.55,1.63,3.41,-4.58,-4.79,0.16
12.15172004699707,2,3,3,0,-7.27,1.3,3.36,-3.92,-4.69,-0.15
12.16172003746033,2,3,3,0,-7.83,0.58,3.86,-3.62,-3.53,-0.74
12.17172002792358,2,3,3,0,-8.26,0.24,3.99,-4.13,-2.76,-1.36
12.18172001838684,2,3,3,0,-8.720000000000001,0.02,4.14,-4.39,-3.07,-1.87
12.1917200088501,2,3,3,0,-9.6,-0.33,3.9,-4.17,-3.93,-2.2
12.20171999931335,2,3,3,0,-10.2,-0.43,3.85,-3.57,-4.22,-2.38
12.21171998977661,2,3,3,0,-10.69,-0.54,3.82,-3,-3.68,-2.57
12.22171998023987,2,3,3,0,-10.9,-0.62,3.65,-2.49,-3.08,-2.63
12.23171997070312,2,3,3,0,-10.85,-0.47,3.43,-1.64,-3.07,-2.19
12.24171996116638,2,3,3,0,-10.66,-0.21,3.35,-0.57,-2.97,-1.25
12.25171995162964,2,3,3,0,-10.26,-0.14,3.37,0.32,-2.85,-0.09
12.2617199420929,2,3,3,0,-9.76,0,3.38,0.59,-2.88,0.84
12.27171993255615,2,3,3,0,-8.81,0.21,3.53,1.11,-2.94,1.36
12.28171992301941,2,3,3,0,-8.42,0.3,3.76,1.41,-2.65,1.37
12.29171991348267,2,3,3,0,-8.24,0.38,4.04,1.41,-2.4,1.03
12.3017201423645,2,3,3,0,-8.109999999999999,0.49,4.15,1.53,-2.46,0.48
12.31172013282776,2,3,3,0,-7.9,0.47,3.88,2.01,-2.82,-0.16
12.32172012329102,2,3,3,0,-7.93,0.42,3.66,2.81,-3.05,-0.77
12.33172011375427,2,3,3,0,-8.02,0.34,3.69,3.4,-2.96,-1.32
12.34172010421753,2,3,3,0,-8.220000000000001,0.26,3.74,3.39,-2.67,-1.82
12.35172009468079,2,3,3,0,-8.4,0.07000000000000001,3.69,3.1,-2.55,-2.17
12.36172008514404,2,3,3,0,-8.529999999999999,0.06,3.74,3,-2.66,-2.36
12.37272000312805,2,3,3,0,-8.58,0.02,3.66,2.84,-2.76,-2.36
12.38271999359131,2,3,3,0,-8.66,0.01,3.66,2.71,-2.63,-2.17
12.39271998405457,2,3,3,0,-8.699999999999999,-0.04,3.76,2.77,-2.54,-1.88
12.40271997451782,2,3,3,0,-8.470000000000001,-0.08,3.87,2.82,-2.36,-1.64
12.41271996498108,2,3,3,0,-8.33,-0.16,3.76,2.99,-1.81,-1.5
12.42271995544434,2,3,3,0,-8.31,-0.24,3.74,3.46,-1.9,-1.48
12.43271994590759,2,3,3,0,-8.44,-0.3,3.78,3.89,-1.61,-1.37
12.44271993637085,2,3,3,0,-8.43,-0.08,3.83,4.2,-0.93,-1.24
12.45271992683411,2,3,3,0,-8.390000000000001,-0.09,3.82,4.38,-0.59,-1.07
12.46271991729736,2,3,3,0,-8.390000000000001,0.05,3.77,4.43,-0.14,-0.98
12.4727201461792,2,3,3,0,-8.359999999999999,0.09,3.76,4.53,0.38,-0.87
12.48272013664246,2,3,3,0,-8.42,0.14,3.78,4.33,0.64,-0.95
12.49272012710571,2,3,3,0,-8.48,0.19,3.73,4.18,0.68,-1.07
12.50272011756897,2,3,3,0,-8.66,0.07000000000000001,3.65,3.78,0.65,-1.26
12.51272010803223,2,3,3,0,-8.69,0.07000000000000001,3.72,3.31,0.8100000000000001,-1.42
12.52272009849548,2,3,3,0,-8.77,0.02,3.71,2.94,0.99,-1.59
12.53272008895874,2,3,3,0,-8.93,0,3.89,2.61,1.02,-1.79
12.542720079422,2,3,3,0,-8.99,-0.19,4.09,2.47,0.63,-1.87
12.55272006988525,2,3,3,0,-9.029999999999999,-0.18,4.22,2.64,0.62,-2.03
12.56272006034851,2,3,3,0,-9.02,-0.34,4.19,2.86,0.73,-2.19
12.57272005081177,2,3,3,0,-8.94,-0.36,4.04,3.19,0.73,-2.19
12.58272004127502,2,3,3,0,-8.82,-0.29,4.09,3.64,0.87,-1.98
12.59272003173828,2,3,3,0,-8.76,-0.26,4.05,4.02,1,-1.69
12.60272002220154,2,3,3,0,-8.73,-0.31,4.04,4.23,1.64,-0.97
12.61272001266479,2,3,3,0,-8.83,-0.48,4.05,4.23,1.64,-0.97
12.62272000312805,2,3,3,0,-8.800000000000001,-0.67,4.14,4.15,1.81,-0.83
12.63271999359131,2,3,3,0,-8.73,-0.8100000000000001,4.29,3.65,1.78,-1.22
12.64271998405457,2,3,3,0,-8.720000000000001,-1.13,4.48,3.47,1.85,-1.62
12.65271997451782,2,3,3,0,-8.94,-1.74,4.94,3.77,1.91,-1.88
12.66271996498108,2,3,3,0,-8.98,-1.4,5.12,4.61,2.52,-1.6
12.67271995544434,2,3,3,0,-9.34,-0.96,5.05,5.02,2.02,-2.49
12.68271994590759,2,3,3,0,-9.890000000000001,-0.99,5.32,5.98,-0.09,-3.3
12.69271993637085,2,3,3,0,-10.97,-0.04,5.27,7.86,-1.48,-3.69
12.70271992683411,2,3,3,0,-11.66,0.3,5.14,9.19,-2.16,-3.7
12.71271991729736,2,3,3,0,-12.41,0.77,5.06,9.51,-1.83,-3.1
12.7227201461792,2,3,3,0,-13.14,1.28,5.07,8.5,-1.46,-2.09
12.73272013664246,2,3,3,0,-13.72,2.95,4.66,7.35,-2.78,-1.1
12.74272012710571,2,3,3,0,-13.62,3.69,4.07,6.29,-4.89,-0.46
12.75272011756897,2,3,3,0,-13.21,3.96,3.19,5.98,-5.75,0.19
12.76272010803223,2,3,3,0,-12.69,3.83,2.42,4.67,-3.04,1.01
12.77272009849548,2,3,3,0,-11.51,1.81,3.76,-1.38,-0.05,1.4
12.78272008895874,2,3,3,0,-9.9,1.53,4.41,-7.33,-0.7,1.6
12.792720079422,2,3,3,0,-7.94,1.84,4.45,-7.56,-2.29,1.49
12.80272006988525,2,3,3,0,-6.54,1.57,5.01,-6.8,-1.83,0.68
12.81272006034851,2,3,3,0,-6.37,1.46,4.77,-4.35,-0.8,-0.68
12.82272005081177,2,3,3,0,-7.1,1.14,4.43,-1.78,1,-1.82
12.83272004127502,2,3,3,0,-7.98,0.9,3.65,0.65,3.05,-1.92
12.84272003173828,2,3,3,0,-9.140000000000001,1.18,1.33,2.15,4.98,-0.62
12.85272002220154,2,3,3,0,-9.67,1.64,0.59,2.1,7.1,1.62
12.86272001266479,2,3,3,0,-10.27,2.1,0.21,0.78,8.300000000000001,3.96
12.87272000312805,2,3,3,0,-10.39,2.68,0.12,-0.7,7.22,5.5
12.88271999359131,2,3,3,0,-9.539999999999999,3.33,0.91,-1.9,4.57,5.88
12.89271998405457,2,3,3,0,-8.789999999999999,3.47,1.33,-2.18,2.13,5.35
12.90271997451782,2,3,3,0,-8.25,3.54,1.75,-2.31,1.02,4.33
12.91271996498108,2,3,3,0,-8.140000000000001,3.42,1.79,-2.65,0.58,3.23
12.92271995544434,2,3,3,0,-7.75,2.89,1.39,-2.82,0.74,2.47
12.93271994590759,2,3,3,0,-7.78,2.53,1.33,-3,1.33,1.93
12.94271993637085,2,3,3,0,-7.9,2.23,1.46,-2.85,1.89,1.49
12.95271992683411,2,3,3,1,-8.06,2.13,1.58,-2.64,2.38,1.18
12.96271991729736,2,3,3,1,-8.18,2.1,1.6,-2.27,2.35,0.83
12.9727201461792,2,3,3,1,-8.17,2.2,1.38,-1.86,2.36,0.62
12.98272013664246,2,3,3,1,-8.279999999999999,2.36,1.43,-1.56,2.31,0.5
12.99272012710571,2,3,3,1,-8.73,2.82,1.6,-1.55,2.3,0.5600000000000001
13.01272010803223,2,3,3,1,-8.98,3.29,1.3,-1.98,2.46,1.02
13.02272009849548,2,3,3,1,-8.98,3.35,1.05,-2.94,3.26,1.31
13.03272008895874,2,3,3,1,-8.890000000000001,3.18,1.04,-4.43,4.12,1.64
13.042720079422,2,3,3,1,-8.720000000000001,2.79,1.17,-6.74,4.78,1.96
13.05272006988525,2,3,3,1,-8.57,2.41,1.38,-8.49,5.12,2.05
13.06272006034851,2,3,3,1,-8.380000000000001,2.12,1.73,-9.890000000000001,4.99,1.93
13.07272005081177,2,3,3,1,-7.95,1.24,1.66,-10.65,4.89,1.54
13.08272004127502,2,3,3,1,-7.94,0.79,1.79,-10.61,4.76,1.03
13.09272003173828,2,3,3,1,-8.279999999999999,0.33,2.09,-10.04,4.71,0.41
13.10272002220154,2,3,3,1,-9.17,0.13,2.22,-8.529999999999999,4.46,-0.33
13.11272001266479,2,3,3,1,-11.3,-0.33,1.8,-6.26,4.13,-1.23
13.12272000312805,2,3,3,1,-11.77,-0.64,1.56,-4.32,4.27,-2.21
13.13271999359131,2,3,3,1,-11.56,-0.82,1.3,-3.34,3.68,-2.67
13.14271998405457,2,3,3,1,-10.94,-0.77,1.34,-3.25,2.76,-2.1
13.15271997451782,2,3,3,1,-10,-0.36,1.98,-3.57,1.87,-0.77
13.16271996498108,2,3,3,1,-9.83,0.03,2.23,-3.15,0.8,0.59
13.17271995544434,2,3,3,1,-9.65,0.28,2.23,-1.98,0.17,1.53
13.18271994590759,2,3,3,1,-9.050000000000001,0.66,2.13,-0.58,0.15,2.02
13.19271993637085,2,3,3,1,-8.859999999999999,0.68,2.17,0.63,0.99,2.25
13.20271992683411,2,3,3,2,-8.859999999999999,0.68,2.17,1.45,2.04,2.47
13.21271991729736,2,3,3,2,-8.81,0.86,2.15,1.74,2.61,2.72
13.2227201461792,2,3,3,2,-9.279999999999999,1.37,1.67,1.32,3.1,2.89
13.23272013664246,2,3,3,2,-9.48,1.4,1.68,0.34,3.29,2.91
13.24272012710571,2,3,3,2,-9.4,1.33,1.65,-0.8,3.12,2.96
13.25272011756897,2,3,3,2,-9.4,1.33,1.65,-0.8,3.12,2.96
13.26272010803223,2,3,3,2,-9.35,1.36,1.68,-2.65,1.96,2.72
13.27272009849548,2,3,3,2,-9.42,0.9,1.6,-3.03,1.32,2.49
13.28272008895874,2,3,3,2,-9.41,0.66,1.72,-3.43,1.01,2.38
13.292720079422,2,3,3,2,-9.359999999999999,0.46,1.82,-3.5,0.88,2.34
13.30272006988525,2,3,3,1,-9.359999999999999,0.46,1.82,-3.5,0.88,2.34
13.31272006034851,2,3,3,1,-9.34,0.18,1.9,-3.21,0.87,2.35
13.32272005081177,2,3,3,1,-9.449999999999999,0.1,1.84,-2.13,1.14,2.62
13.33272004127502,2,3,3,1,-9.449999999999999,0.1,1.84,-1.49,1.42,2.81
13.34272003173828,2,3,3,1,-9.800000000000001,0.27,1.75,-0.77,1.48,2.95
13.35272002220154,2,3,3,1,-9.800000000000001,0.27,1.75,-0.77,1.48,2.95
13.36272001266479,2,3,3,1,-9.92,0.32,1.68,-0.35,1.24,3.02
13.37272000312805,2,3,3,1,-9.960000000000001,0.46,1.7,-0.62,-0.06,2.92
13.38271999359131,2,3,3,1,-9.85,0.74,1.54,-0.93,-0.85,2.8
13.39271998405457,2,3,3,1,-9.75,0.89,1.52,-1.55,-1.42,2.59
13.40372014045715,2,3,3,1,-9.609999999999999,1.01,1.64,-1.55,-1.42,2.59
13.41372013092041,2,3,3,1,-9.44,1.07,1.78,-2.39,-1.81,2.37
13.42372012138367,2,3,3,1,-9.130000000000001,1.2,1.99,-3.95,-1.64,1.97
13.43372011184692,2,3,3,1,-9.050000000000001,1.17,1.77,-4.78,-1.01,1.84
13.44372010231018,2,3,3,1,-8.949999999999999,0.98,1.71,-5.65,-0.05,1.91
13.45372009277344,2,3,3,1,-8.85,0.79,1.66,-5.65,-0.05,1.91
13.46372008323669,2,3,3,1,-8.94,0.28,2.05,-6.45,1.25,2.03
13.47372007369995,2,3,3,1,-9.17,-0.03,2.03,-7.19,3.11,2.07
13.48372006416321,2,3,3,1,-9.59,-0.3,1.75,-7.38,3.73,1.94
13.49372005462646,2,3,3,1,-10.06,-0.47,1.75,-7.99,3.8,1.87
13.50372004508972,2,3,3,1,-10.77,-0.74,2.17,-7.99,3.8,1.87
13.51372003555298,2,3,3,1,-10.99,-0.7,2.66,-8.48,3.63,1.99
13.52372002601624,2,3,3,1,-11.27,-0.5,2.87,-6.44,2.64,2.05
13.53372001647949,2,3,3,1,-11.63,-0.3,2.67,-4.64,2.28,1.83
13.54372000694275,2,3,3,1,-11.99,-0.26,2.1,-3.23,2.64,1.72
13.55371999740601,2,3,3,1,-11.68,-0.38,1.99,-3.23,2.64,1.72
13.56371998786926,2,3,3,1,-11.47,-0.4,2.14,-2.35,3.78,1.91
13.57371997833252,2,3,3,1,-11.65,-0.29,2.5,0.08,5.6,2.19
13.58371996879578,2,3,3,1,-12.37,0.17,2.48,2.38,5.77,1.85
13.59371995925903,2,3,3,1,-12.47,0.49,1.82,4.69,6.07,1.31
13.60371994972229,2,3,3,1,-12.5,0.8100000000000001,0.96,4.69,6.07,1.31
13.61371994018555,2,3,3,1,-12.6,1.95,0.51,5.74,6.42,0.76
13.6237199306488,2,3,3,1,-12.78,2.78,0.59,6.99,4.45,0.9
13.63371992111206,2,3,3,1,-12.66,3.79,0.39,7.38,3.07,0.14
13.6437201499939,2,3,3,1,-12.35,5.21,0.32,5.97,2.14,0.13
13.65372014045715,2,3,3,1,-10.58,6.14,0.1,5.97,2.14,0.13
13.66372013092041,2,3,3,1,-9.640000000000001,7.09,-0.27,4.85,1.72,-0.19
13.67372012138367,2,3,3,1,-8.279999999999999,6.96,-0.28,-0.22,0.92,-1.23
13.68372011184692,2,3,3,1,-7.1,7.17,-0.34,-3.38,1.43,-2.43
13.69372010231018,2,3,3,1,-5.79,7.18,0.06,-7.12,2.77,-3.84
13.70372009277344,2,3,3,1,-6.03,6.7,0.54,-7.12,2.77,-3.84
13.71372008323669,2,3,3,1,-6.86,6.17,0.9399999999999999,-11.24,4.25,-5.27
13.72372007369995,2,3,3,1,-7.08,5.16,1.35,-15.45,5.61,-8.48
13.73372006416321,2,3,3,1,-8.51,3.04,2.04,-15.33,6.25,-9.9
13.74372005462646,2,3,3,1,-9.43,1.72,2.56,-15.33,6.25,-9.9
13.75372004508972,2,3,3,1,-10.07,0.53,3.12,-14.09,3.83,-11.09
13.76372003555298,2,3,3,1,-10.77,-1.3,3.58,-11.98,-0.03,-11.81
13.77372002601624,2,3,3,1,-10.92,-1.83,3.39,-8.59,-3.48,-11.89
13.78372001647949,2,3,3,1,-11.1,-1.86,3.07,-4.44,-5.39,-11.21
13.79372000694275,2,3,3,1,-11.23,-1.66,2.81,-0.8100000000000001,-6.57,-9.73
13.80371999740601,2,3,3,1,-11.08,-1.06,1.76,1.96,-7.35,-7.58
13.81371998786926,2,3,3,1,-11.16,-0.27,1.44,4.08,-7.27,-5.19
13.82371997833252,2,3,3,1,-11.34,0.42,1.17,6,-7.7,-2.82
13.83371996879578,2,3,3,1,-11.02,0.5,0.96,6,-7.7,-2.82
13.84371995925903,2,3,3,1,-9.81,0.5600000000000001,1.18,6.37,-7.97,-2.11
13.85371994972229,2,3,3,1,-9.359999999999999,0.66,1.4,6.52,-7.54,-1.76
13.86371994018555,2,3,3,1,-8.699999999999999,0.66,1.77,6.05,-7.75,-1.76
13.8737199306488,2,3,3,1,-8.06,0.5600000000000001,1.92,5.61,-7.94,-1.97
13.88371992111206,2,3,3,1,-7.23,0.62,2.16,5.74,-8.050000000000001,-2.34
13.8937201499939,2,3,3,1,-6.99,0.85,2.42,6.02,-7.86,-2.8
13.90372014045715,2,3,3,1,-6.92,1.08,2.52,6.42,-7.84,-3.27
13.91372013092041,2,3,3,1,-6.86,1.19,2.47,6.56,-7.48,-3.73
13.92372012138367,2,3,3,1,-7.05,1.21,2.47,6.45,-6.94,-4.04
13.93372011184692,2,3,3,1,-7.35,1.29,2.47,6.3,-6.59,-4.24
13.94372010231018,2,3,3,1,-7.6,1.24,2.54,6.15,-6.08,-4.25
13.95372009277344,2,3,3,1,-7.83,1.06,2.49,5.87,-5.62,-3.83
13.96372008323669,2,3,3,1,-8.33,0.93,2.55,5.52,-4.74,-3.25
13.97372007369995,2,3,3,1,-8.630000000000001,0.84,2.61,4.89,-3.41,-2.53
13.98372006416321,2,3,3,1,-8.859999999999999,0.7,2.65,4.6,-2.89,-1.78
13.99372005462646,2,3,3,1,-8.98,0.46,2.88,4.34,-2.25,-1.17
14.00372004508972,2,3,3,1,-8.85,0.28,2.99,4.44,-2.09,-0.62
14.01372003555298,2,3,3,1,-8.76,0.03,2.88,4.47,-2.39,-0.01
14.02372002601624,2,3,3,1,-8.06,0.31,2.6,4.59,-2.14,0.61
14.03372001647949,2,3,3,1,-7.45,-0.19,2.26,4.32,-1.42,0.83
14.04372000694275,2,3,3,1,-7.53,-0.22,2.57,3.81,0.17,1.15
14.05371999740601,2,3,3,1,-7.55,-0.29,2.86,3.15,1.71,1.41
14.06371998786926,2,3,3,1,-7.5,-0.49,2.94,2.25,2.1,1.55
14.07371997833252,2,3,3,1,-7.49,-0.82,3.15,1.48,2.18,1.6
14.08371996879578,2,3,3,1,-7.72,-0.93,3.19,1.04,2.6,1.48
14.09371995925903,2,3,3,1,-7.9,-1.13,3.33,1.1,2.83,1.16
14.10371994972229,2,3,3,1,-8.199999999999999,-1.3,3.28,1.75,2.72,0.61
14.11371994018555,2,3,3,0,-8.59,-1.65,3.26,2.51,2.79,0.05
14.1237199306488,2,3,3,0,-8.94,-1.74,3.49,3.28,3.19,-0.35
14.13371992111206,2,3,3,0,-9.210000000000001,-1.63,3.63,4.12,2.84,-0.72
14.1437201499939,2,3,3,0,-9.550000000000001,-1.36,3.68,5.64,1.99,-1
14.15372014045715,2,3,3,0,-10.07,-0.28,3.56,7.86,0.88,-1.26
14.17372012138367,2,3,3,0,-10.29,0.95,2.36,14,-1.35,-1.27
14.18372011184692,2,3,3,0,-11.02,1.17,1.28,15.84,-1.01,-0.52
14.19372010231018,2,3,3,0,-11.48,0.7,1.66,14.37,0.65,0.28
14.20372009277344,2,3,3,0,-11.87,0.14,2.46,9.51,1.98,0.63
14.21372008323669,2,3,3,0,-12.13,-0.37,3.53,3.67,1.85,0.48
14.23372006416321,2,3,3,0,-11.16,-2.53,4.93,-3.46,-1.83,-2.4
14.24372005462646,2,3,3,0,-11.12,-3.13,5.71,-3.19,-2.99,-4.84
14.25372004508972,2,3,3,0,-11.53,-3.44,6.51,-0.89,-5.28,-7.31
14.26372003555298,2,3,3,0,-11.51,-1.71,5.25,4.66,-9.02,-8.289999999999999
14.29372000694275,2,3,3,0,-15.96,-0.07000000000000001,4.66,13.81,-7.61,-8.359999999999999
14.30371999740601,2,3,3,0,-16.49,3.34,0.92,13.67,-4.68,-4.94
14.31371998786926,2,3,3,0,-15.96,4.79,0.45,12.24,-1.46,-0.66
14.36371994018555,2,3,3,0,-5.56,3.05,4.12,-7.26,-5.38,4.06
14.3737199306488,2,3,3,0,-5.6,1.53,3.27,-5.66,-3.19,1.73
14.38371992111206,2,3,3,0,-6.13,0.9399999999999999,2,-2.54,-0.26,-0.03
14.3937201499939,2,3,3,0,-6.58,0.67,1.08,1,2.37,-0.96
14.40372014045715,2,3,3,0,-7.22,0.64,0.55,3.32,4.89,-0.78
14.41372013092041,2,3,3,0,-8.93,1.33,-0.35,3.95,6.77,0.51
14.42472004890442,2,3,3,0,-9.68,2.14,-0.38,3.99,7.09,2.3
14.43472003936768,2,3,3,0,-10.26,2.94,0.2,3.84,5.64,3.75
14.44472002983093,2,3,3,0,-10.51,3.37,0.76,3.23,2.07,4.27
14.45472002029419,2,3,3,0,-9.01,3.89,1.24,2.92,-1.63,3.53
14.46472001075745,2,3,3,0,-8.16,3.71,1.46,2.78,-3.38,2.42
14.4747200012207,2,3,3,0,-7.62,3.45,1.73,2.32,-2.96,1.53
14.48471999168396,2,3,3,0,-7.28,3.12,1.86,2.1,-1.75,0.89
14.49471998214722,2,3,3,0,-6.98,2.9,1.95,2.15,-0.55,0.55
14.50471997261047,2,3,3,0,-6.9,3.03,1.75,2.33,0.95,0.35
14.51471996307373,2,3,3,0,-6.88,3.23,1.48,2.22,2.56,0.32
14.52471995353699,2,3,3,0,-6.95,3.3,1.22,1.43,3.69,0.6
14.53471994400024,2,3,3,0,-7.65,3.5,0.87,-0.12,5.42,1.2
14.5447199344635,2,3,3,0,-7.99,3.32,0.78,-2.44,6.86,1.78
14.55471992492676,2,3,3,0,-8.449999999999999,3.32,0.87,-4.52,6.86,1.97
14.56471991539001,2,3,3,0,-8.57,3.07,1.02,-6.63,6.63,2.04
14.57472014427185,2,3,3,0,-8.619999999999999,2.67,1.03,-8.449999999999999,6.35,2.06
14.58472013473511,2,3,3,0,-8.609999999999999,2.21,1.05,-9.470000000000001,6.45,2.25
14.59472012519836,2,3,3,0,-8.81,1.74,1.16,-9.869999999999999,6.97,2.29
14.60472011566162,2,3,3,0,-9.08,1.02,1.32,-9.779999999999999,6.91,1.85
14.61472010612488,2,3,3,0,-9.19,0.8100000000000001,1.34,-9.07,6.38,1.63
14.62472009658813,2,3,3,0,-9.390000000000001,0.78,1.34,-8.279999999999999,6,1.73
14.63472008705139,2,3,3,0,-9.789999999999999,0.89,1.48,-7.37,5.89,1.9
14.64472007751465,2,3,3,0,-9.859999999999999,1.19,1.29,-6.89,4.76,2.08
14.65472006797791,2,3,3,0,-9.859999999999999,1.07,1.39,-6.14,3.82,2.38
14.66472005844116,2,3,3,1,-9.77,1.15,1.2,-5.91,3.47,2.58
14.67472004890442,2,3,3,1,-9.58,1.08,1.25,-5.74,3.17,2.84
14.68472003936768,2,3,3,1,-9.41,0.67,1.45,-6.3,3.18,3.23
14.69472002983093,2,3,3,1,-9.380000000000001,0.54,1.71,-6.87,3.2,3.47
14.70472002029419,2,3,3,1,-9.390000000000001,0.37,1.85,-7.18,3.12,3.66
14.71472001075745,2,3,3,1,-9.41,0.26,1.96,-7.24,3,3.78
14.7247200012207,2,3,3,1,-9.27,0.12,2.1,-6.93,2.85,3.75
14.73471999168396,2,3,3,1,-9.17,0.1,2.06,-6.32,2.53,3.76
14.74471998214722,2,3,3,1,-9.119999999999999,0.16,1.99,-5.41,2.35,3.93
14.75471997261047,2,3,3,1,-9.16,0.19,1.79,-4.48,2.32,4.1
14.76471996307373,2,3,3,1,-9.58,0.16,1.73,-3.88,2.36,4.25
14.77471995353699,2,3,3,1,-9.779999999999999,0.17,1.72,-3.59,2.27,4.32
14.78471994400024,2,3,3,1,-9.98,0.08,1.6,-3.15,1.83,4.24
14.7947199344635,2,3,3,1,-10.17,-0.2,1.8,-2.98,1.33,4.07
14.80471992492676,2,3,3,1,-10.11,-0.29,1.89,-3.3,0.72,3.91
14.81471991539001,2,3,3,1,-9.99,-0.4,1.94,-3.83,-0.03,3.89
14.82472014427185,2,3,3,1,-9.85,-0.38,1.9,-4.37,-0.73,4.08
14.83472013473511,2,3,3,1,-9.59,-0.32,1.84,-4.54,-1.29,4.29
14.84472012519836,2,3,3,1,-9.48,-0.22,2,-4.64,-1.63,4.34
14.85472011566162,2,3,3,1,-9.41,-0.12,2.14,-4.64,-1.82,4.23
14.86472010612488,2,3,3,1,-9.25,-0.01,1.93,-4.06,-1.61,3.91
14.87472009658813,2,3,3,1,-9.199999999999999,0.25,1.16,-4.06,-1.61,3.91
14.88472008705139,2,3,3,1,-9.41,0.46,1.51,-3.25,-0.92,3.85
14.89472007751465,2,3,3,1,-9.630000000000001,0.52,2.14,-2.75,0.19,3.8
14.90472006797791,2,3,3,1,-9.699999999999999,0.38,1.89,0.29,1.79,3.37
14.91472005844116,2,3,3,1,-10.02,-0.33,0.77,0.16,2.62,2.72
14.92472004890442,2,3,3,1,-10.52,-0.63,1.19,-2.85,2.52,2.11
14.93472003936768,2,3,3,1,-10.87,-0.78,1.85,-5.9,1.07,1.85
14.94472002983093,2,3,3,1,-10.99,-0.5,2.67,-7.57,-0.37,1.78
14.95472002029419,2,3,3,1,-10.97,0.31,3.67,-7.46,-1.12,1.68
14.96472001075745,2,3,3,1,-11.05,0.45,3.98,-6.27,-0.82,1.22
14.9747200012207,2,3,3,1,-11.13,0.29,4.19,-4.7,0.74,0.23
14.98471999168396,2,3,3,1,-11.71,-0.12,3.34,-2.33,3.27,-1.02
14.99471998214722,2,3,3,1,-11.43,-0.96,2.43,0.6899999999999999,6,-2.24
15.00471997261047,2,3,3,1,-11.41,-1.11,2.11,3.53,8.789999999999999,-2.44
15.01471996307373,2,3,3,1,-11.91,-0.93,2.02,5.05,10.89,-1.74
15.02471995353699,2,3,3,1,-12.91,0.68,0.6899999999999999,6.45,11.17,-0.33
15.03471994400024,2,3,3,1,-13.52,2.04,0,7.39,10.29,1.21
15.0447199344635,2,3,3,1,-13.94,3.22,-0.6899999999999999,8.31,7.43,2.07
15.05471992492676,2,3,3,1,-13.47,4.52,-0.9399999999999999,9.039999999999999,4.52,2.42
15.06471991539001,2,3,3,2,-11.43,7.91,-0.92,8.41,2.74,1.19
15.07472014427185,2,3,3,2,-9.699999999999999,7.87,-1.36,6.21,-1.01,-1.79
15.08472013473511,2,3,3,2,-7.39,6.86,-1.12,4.39,-0.64,-2.37
15.09472012519836,2,3,3,2,-7.02,8.69,-0.78,1.67,4.45,-4.38
15.10472011566162,2,3,3,2,-8.380000000000001,8.43,-0.27,-4.9,4.7,-7.48
15.11472010612488,2,3,3,2,-9.15,8.15,0.67,-11.17,2.56,-9.93
15.12472009658813,2,3,3,2,-10.32,7.6,1.92,-16.47,1.19,-11.77
15.13472008705139,2,3,3,2,-10.96,6.38,2.74,-18.68,0.47,-12.83
15.14472007751465,2,3,3,2,-10.78,2.96,2.36,-18,0.74,-13.1
15.15472006797791,2,3,3,2,-10.74,1.25,2.14,-15.83,2.38,-12.91
15.16472005844116,2,3,3,2,-10.83,-0.71,2.24,-13.91,3.61,-12.52
15.17472004890442,2,3,3,2,-11.15,-3.08,2.92,-10.98,2.79,-11.33
15.18472003936768,2,3,3,2,-11.45,-3.52,2.83,-6.8,-0.5600000000000001,-9.369999999999999
15.19472002983093,2,3,3,2,-11.34,-3.08,2.5,-1.5,-4.03,-6.84
15.20472002029419,2,3,3,2,-10.89,-2.55,2.05,2.96,-6.19,-3.79
15.21472001075745,2,3,3,2,-9.84,-0.43,1.43,6.11,-7.54,-2.46
15.2247200012207,2,3,3,2,-9.210000000000001,-0.03,1.41,7.86,-9.130000000000001,-1.64
15.23471999168396,2,3,3,2,-8.789999999999999,0.6,1.37,9.68,-10.31,-1.23
15.24471998214722,2,3,3,2,-8.49,1.12,1.37,10.56,-11.16,-1.13
15.25471997261047,2,3,3,2,-7.71,1.67,1.24,10.32,-11.6,-1.3
15.26471996307373,2,3,3,2,-7.11,1.81,1.17,9.470000000000001,-11.64,-1.57
15.27471995353699,2,3,3,2,-6.5,1.84,1.43,8.210000000000001,-11.3,-1.98
15.28471994400024,2,3,3,2,-6.21,1.63,1.44,7.4,-10.46,-2.48
15.29572010040283,2,3,3,2,-6.13,1.34,1.91,6.66,-9.85,-2.99
15.30471992492676,2,3,3,2,-6.19,1.3,2.14,6.04,-9.34,-3.78
15.31471991539001,2,3,3,2,-6.41,1.3,2.31,5.54,-8.5,-4.43
15.3257200717926,2,3,3,2,-6.82,1.4,2.39,5.44,-6.78,-4.67
15.33472013473511,2,3,3,2,-7.55,1.42,2.29,4.94,-5.66,-4.27
15.34472012519836,2,3,3,2,-7.85,1.28,2.38,4.13,-4.76,-3.77
15.35572004318237,2,3,3,2,-8.130000000000001,1.06,2.52,3.35,-3.52,-2.92
15.36472010612488,2,3,3,2,-8.130000000000001,1.06,2.52,3.24,-2.07,-1.17
15.37472009658813,2,3,3,2,-8.279999999999999,0.87,2.65,3.28,-1.25,-0.33
15.38572001457214,2,3,3,2,-8.220000000000001,0.5600000000000001,2.71,3.04,-1.41,0.46
15.39472007751465,2,3,3,2,-8.32,0.47,2.88,3.45,-0.62,1.31
15.40472006797791,2,3,3,2,-8.51,0.28,3.15,3.35,-0.22,1.92
15.41571998596191,2,3,3,2,-8.51,0.28,3.15,3.23,-0.46,2.24
15.42472004890442,2,3,3,2,-8.210000000000001,0.15,2.86,3.23,-0.46,2.24
15.43472003936768,2,3,3,2,-7.54,-0.25,2.29,3.14,1.23,2.25
15.44472002983093,2,3,3,2,-7.6,-0.7,2.68,2.33,2.35,1.77
15.45571994781494,2,3,3,2,-7.67,-0.85,2.96,1.27,2.51,1.18
15.4657199382782,2,3,3,2,-7.67,-0.85,2.96,1.27,2.51,1.18
15.47571992874146,2,3,3,2,-7.7,-1.13,3,-0.05,1.27,-0.16
15.48571991920471,2,3,3,2,-7.41,-1.9,2.79,0.46,1.28,-0.82
15.49572014808655,2,3,3,2,-7.72,-1.91,3.03,0.9,2.27,-1.37
15.5057201385498,2,3,3,2,-8.07,-2.11,3.31,1.62,2.76,-1.88
15.51572012901306,2,3,3,2,-8.07,-2.11,3.31,1.62,2.76,-1.88
15.52572011947632,2,3,3,2,-8.5,-2.32,3.52,3.31,2.23,-2.19
15.53572010993958,2,3,3,2,-9.81,-1.84,3.31,9.41,0.07000000000000001,-2.29
15.54572010040283,2,3,3,2,-9.81,-1.84,3.31,12.92,-0.68,-1.91
15.55572009086609,2,3,3,2,-10.21,-0.96,3.41,15.96,-1.45,-0.87
15.56572008132935,2,3,3,2,-10.46,0.11,3.11,15.96,-1.45,-0.87
15.5757200717926,2,3,3,2,-10.69,1.82,1.39,18.04,-1.18,0.51
15.58572006225586,2,3,3,2,-11.08,1.95,1.28,11.59,1.4,2
15.59572005271912,2,3,3,2,-11.7,1.53,2.11,5.65,0.12,1.57
15.60572004318237,2,3,3,2,-12.84,0.59,4.6,1.49,-2.81,0.07000000000000001
15.61572003364563,2,3,3,3,-12.62,-0.14,5.13,1.49,-2.81,0.07000000000000001
15.62572002410889,2,3,3,3,-12.21,-0.89,5.59,-1.03,-5.23,-2.81
15.63572001457214,2,3,3,3,-11.7,-1.29,5.57,3.1,-8.550000000000001,-9.140000000000001
15.6457200050354,2,3,3,3,-11.53,-1.24,5.38,7.25,-7.51,-9.800000000000001
15.65571999549866,2,3,3,3,-12.44,-0.47,6.29,8.640000000000001,-7.04,-10.1
15.66571998596191,2,3,3,3,-14.37,-0.39,5.96,8.640000000000001,-7.04,-10.1
15.67571997642517,2,3,3,3,-15.25,-0.44,4.8,9.19,-7.5,-8.51
15.68571996688843,2,3,3,3,-16.38,0.78,2.94,6.48,-1.68,-1.57
15.69571995735168,2,3,3,3,-16.54,1.66,2.09,3.82,-0.82,3.18
15.70571994781494,2,3,3,3,-15.6,2.1,1.84,-1.22,-2.51,6.35
15.7157199382782,2,3,3,3,-13.15,3.19,2.85,-1.22,-2.51,6.35
15.72571992874146,2,3,3,3,-8.91,3.87,4.17,-3.29,-5.05,7.6
15.73571991920471,2,3,3,3,-7.62,3.14,4.51,-2.47,-3.09,5.3
15.74572014808655,2,3,3,3,-6.89,2.16,4.31,-0.59,-0.8,3.8
15.7557201385498,2,3,3,3,-6.77,1.62,3.84,1.24,2.34,3.15
15.76572012901306,2,3,3,3,-7.28,1.49,2.16,1.24,2.34,3.15
15.77572011947632,2,3,3,3,-7.49,1.34,1.17,2.87,4.93,3.04
15.78572010993958,2,3,3,3,-7.71,1.6,0.62,4.05,6.03,3.77
15.79572010040283,2,3,3,3,-7.76,2.12,-0.41,4.06,4.8,4.63
15.80572009086609,2,3,3,3,-7.72,2.58,-0.23,3.39,3.16,5.13
15.81572008132935,2,3,3,3,-7.79,2.94,0.12,3.39,3.16,5.13
15.8257200717926,2,3,3,3,-7.95,3.3,0.48,2.48,1.55,5.16
15.83572006225586,2,3,3,3,-8.01,3.39,0.92,1.92,-0.45,3.25
15.84572005271912,2,3,3,3,-8.029999999999999,3.35,1.02,1.93,-0.11,2.15
15.85572004318237,2,3,3,3,-7.97,3.34,1.17,1.82,0.12,1.22
15.86572003364563,2,3,3,3,-8.06,3.08,1.24,1.82,0.12,1.22
15.87572002410889,2,3,3,3,-7.72,2.67,1.33,1.69,0.31,0.5600000000000001
15.88572001457214,2,3,3,3,-7.48,2.64,1.33,1.33,1.38,0.33
15.8957200050354,2,3,3,3,-7.4,2.69,1.36,0.79,2.04,0.54
15.90571999549866,2,3,3,3,-7.36,2.76,1.27,0.21,2.89,0.97
15.91571998596191,2,3,3,3,-7.3,3.15,1.22,0.21,2.89,0.97
15.92571997642517,2,3,3,3,-7.58,3.46,1.3,-0.73,3.99,1.79
15.93571996688843,2,3,3,3,-8.039999999999999,3.45,1.25,-3,6.07,2.57
15.94571995735168,2,3,3,3,-8.539999999999999,3.54,1.08,-3,6.07,2.57
15.95571994781494,2,3,3,3,-9.09,3.49,0.83,-4.62,6.66,2.5
15.9657199382782,2,3,3,3,-8.9,3.28,0.79,-6.12,6.65,2.37
15.97571992874146,2,3,3,3,-8.869999999999999,2.59,0.71,-7.76,7.01,2.76
15.98571991920471,2,3,3,3,-8.970000000000001,2.19,0.68,-8.51,6.91,3.37
15.99572014808655,2,3,3,3,-9.17,1.83,0.82,-9.27,6.81,3.22
16.0057201385498,2,3,3,3,-9.57,1.37,0.92,-9.5,6.54,2.6
16.01572012901306,2,3,3,2,-9.550000000000001,1.39,1,-8.94,5.22,1.98
16.02572011947632,2,3,3,2,-9.58,1.07,1.21,-8.75,4.43,1.51
16.03572010993958,2,3,3,2,-9.69,0.82,1.17,-8.630000000000001,4,1.18
16.04572010040283,2,3,3,2,-9.91,0.6,1.38,-8.220000000000001,3.41,0.96
16.05572009086609,2,3,3,2,-9.960000000000001,0.23,1.5,-7.92,2.72,0.87
16.06572008132935,2,3,3,2,-10.15,0.06,1.58,-6.97,2.3,0.85
16.0757200717926,2,3,3,2,-9.92,-0.06,1.49,-6.27,1.89,1.04
16.08572006225586,2,3,3,2,-9.58,-0.23,1.54,-6,1.64,1.39
16.09572005271912,2,3,3,2,-9.44,-0.31,1.71,-5.99,1.67,1.84
16.10572004318237,2,3,3,2,-9.43,-0.2,2.18,-5.56,1.52,2.4
16.11572003364563,2,3,3,2,-9.43,-0.06,2.29,-4.62,1.24,2.93
16.12572002410889,2,3,3,2,-9.279999999999999,0.17,2.22,-3.28,1.16,3.46
16.13572001457214,2,3,3,2,-9.1,0.37,2.1,-2,1.31,3.95
16.1457200050354,2,3,3,2,-8.890000000000001,0.75,1.77,-1.24,1.7,4.39
16.15571999549866,2,3,3,2,-8.99,0.78,1.72,-1.28,1.96,4.76
16.16571998596191,2,3,3,2,-9.08,0.8100000000000001,1.75,-1.82,1.78,4.94
16.17571997642517,2,3,3,2,-9.41,0.55,1.78,-2.71,1.22,4.85
16.18571996688843,2,3,3,2,-9.56,0.28,1.74,-3.7,0.53,4.56
16.19571995735168,2,3,3,2,-9.710000000000001,0.12,1.74,-4.54,-0.48,4.18
16.20571994781494,2,3,3,2,-9.859999999999999,-0.05,1.79,-5.19,-1.51,3.71
16.2157199382782,2,3,3,2,-9.81,-0.27,1.85,-5.77,-2.26,3.26
16.22571992874146,2,3,3,2,-9.69,-0.37,1.82,-6.21,-2.72,2.89
16.23571991920471,2,3,3,2,-9.52,-0.42,2.02,-6.7,-2.93,2.72
16.24572014808655,2,3,3,2,-9.32,-0.41,2.14,-7.2,-2.87,2.79
16.2557201385498,2,3,3,2,-8.99,-0.33,1.53,-7.03,-2.51,3.06
16.26572012901306,2,3,3,2,-8.94,-0.28,1.42,-6.01,-1.77,3.34
16.27572011947632,2,3,3,2,-9.039999999999999,-0.29,2.09,-4.79,-0.35,3.62
16.28572010993958,2,3,3,2,-9.27,-0.36,2.45,-2.75,0.78,3.79
16.29572010040283,2,3,3,2,-9.529999999999999,-0.92,1.05,0.71,1.55,3.46
16.30572009086609,2,3,3,2,-9.970000000000001,-0.99,0.93,2.33,2.4,2.88
16.31572008132935,2,3,3,2,-10.44,-0.84,1.31,0.74,2.74,2.52
16.3257200717926,2,3,3,2,-10.74,-0.64,1.82,-2.55,1.87,2.56
16.33572006225586,2,3,3,2,-10.86,0.53,3.36,-5.28,0.5,2.92
16.34572005271912,2,3,3,2,-10.77,0.91,3.98,-6.66,-0.72,3.28
16.35572004318237,2,3,3,2,-10.6,1.29,4.48,-6.15,-0.91,3.06
16.36572003364563,2,3,3,2,-10.61,1.45,4.27,-4.07,0.2,1.95
16.37572002410889,2,3,3,2,-10.48,0.7,2.51,-0.8,3.02,0.26
16.38572001457214,2,3,3,2,-10.73,0.38,2.13,1.73,7.62,-1.61
16.3957200050354,2,3,3,2,-11.39,-0.06,2.21,2.15,12.03,-2.86
16.40571999549866,2,3,3,2,-13.25,0.89,0.88,2.27,13.78,-2.5
16.42571997642517,2,3,3,2,-14.28,3.17,-0.8100000000000001,6.12,12.77,-0.13
16.43571996688843,2,3,3,2,-14.15,4.24,-0.44,7.15,10.5,-0.28
16.44571995735168,2,3,3,2,-11.18,6.68,-0.1,7.1,6.42,0.7
16.45571994781494,2,3,3,2,-9.869999999999999,7.94,-0.93,8.220000000000001,2.97,1.08
16.4657199382782,2,3,3,2,-8.42,8.35,-1.32,7.53,0.53,-0.08
16.47672009468079,2,3,3,2,-7.51,8.68,-1.2,5.52,1.01,-1.65
16.48672008514404,2,3,3,2,-8.06,9.029999999999999,0.02,0.75,3.17,-4.25
16.4967200756073,2,3,3,2,-9.01,8.85,1.2,-5.53,3.61,-7.54
16.50672006607056,2,3,3,2,-10.19,8.279999999999999,2.6,-12.34,2.43,-10.37
16.51672005653381,2,3,3,2,-11.23,7.29,3.37,-17.38,0.9399999999999999,-12.52
16.52672004699707,2,3,3,2,-11.57,4.05,3.13,-19.1,-0.38,-14.01
16.53672003746033,2,3,3,2,-11.63,1.91,2.63,-18.92,-0.42,-14.63
16.54672002792358,2,3,3,2,-11.74,-0.07000000000000001,2.04,-17.46,0.1,-14.67
16.55672001838684,2,3,3,2,-11.67,-1.82,2.18,-14.68,0.75,-14.38
16.5667200088501,2,3,3,2,-11.7,-3.82,2.82,-12.07,-0.03,-12.92
16.57671999931335,2,3,3,2,-11.67,-4.74,2.71,-8.24,-2.19,-10.27
16.58671998977661,2,3,3,2,-11.25,-3.02,2.58,-2.7,-4.12,-6.29
16.59671998023987,2,3,3,2,-10.31,-1.58,1.85,2.11,-6.25,-4.25
16.60671997070312,2,3,3,2,-9.640000000000001,-0.91,1.79,5.2,-9.57,-2.83
16.61671996116638,2,3,3,2,-9.140000000000001,-0.09,1.72,8.369999999999999,-11.5,-2.16
16.62671995162964,2,3,3,2,-8.5,0.48,1.72,11.11,-12.48,-1.96
16.6367199420929,2,3,3,2,-7.7,1.29,1.39,12.32,-12.84,-1.7
16.64671993255615,2,3,3,2,-7.25,1.64,1.2,12.34,-12.69,-1.77
16.65671992301941,2,3,3,2,-6.36,1.6,1.22,11.95,-12.8,-2.12
16.66671991348267,2,3,3,2,-6.06,1.51,1.29,11.15,-12.31,-2.39
16.6767201423645,2,3,3,2,-6.12,1.52,2.06,10.16,-10.71,-2.74
16.68672013282776,2,3,3,2,-6.18,1.49,2.19,8.91,-9.32,-3.16
16.69672012329102,2,3,3,2,-6.23,1.5,2.16,7.98,-8.279999999999999,-3.61
16.70672011375427,2,3,3,2,-6.4,1.39,2.15,7.12,-7.39,-4.18
16.71672010421753,2,3,3,2,-6.86,1.2,2.2,6.15,-6.19,-4.56
16.72672009468079,2,3,3,2,-7.4,1.17,2.24,5.24,-5.09,-4.63
16.73672008514404,2,3,3,2,-7.76,1,2.31,4.41,-3.88,-4.39
16.7467200756073,2,3,3,2,-7.98,0.95,2.39,3.46,-3.07,-3.79
16.75672006607056,2,3,3,2,-8.33,0.96,2.72,2.71,-2.58,-2.96
16.76672005653381,2,3,3,2,-8.390000000000001,0.74,2.81,2.09,-1.69,-1.99
16.77672004699707,2,3,3,2,-8.42,0.05,2.96,1.93,-1.35,-0.54
16.78672003746033,2,3,3,2,-7.91,1.15,2.92,2.54,-0.16,1.23
16.79672002792358,2,3,3,2,-7.85,0.12,2.94,1.92,0.04,1.19
16.80672001838684,2,3,3,2,-7.82,0.03,3.11,1.7,0.58,1.65
16.8167200088501,2,3,3,2,-7.69,-0.12,3.18,1.74,1.01,1.96
16.82671999931335,2,3,3,2,-7.39,-0.64,2.91,1.89,0.95,2.11
16.83671998977661,2,3,3,2,-7.51,-0.93,2.75,2.42,1.2,2.06
16.84671998023987,2,3,3,2,-7.67,-1.16,2.78,2.96,1.73,1.76
16.85671997070312,2,3,3,2,-7.82,-1.37,2.95,3.31,2.23,1.35
16.86671996116638,2,3,3,2,-8.130000000000001,-1.61,3.12,3.38,2.54,0.87
16.87671995162964,2,3,3,2,-8.130000000000001,-1.62,3.02,3.63,2.51,0.43
16.8867199420929,2,3,3,2,-8.32,-1.51,3.04,4.18,2.41,0.13
16.89671993255615,2,3,3,2,-8.76,-1.53,3.31,4.49,2.79,0.03
16.90671992301941,2,3,3,2,-9.49,-1.19,4.03,4.79,2.35,-0.25
16.91671991348267,2,3,3,2,-9.67,-0.83,3.85,5.88,1.05,-0.91
16.9267201423645,2,3,3,2,-9.85,-0.4,3.71,7.74,0.04,-1.26
16.93672013282776,2,3,3,2,-10.27,0.38,3.88,9.91,-0.45,-1.57
16.94672012329102,2,3,3,2,-10.65,1.62,2.49,11.7,-0.99,-1.37
16.95672011375427,2,3,3,2,-10.75,1.71,1.79,13.4,-1.58,-0.74
16.96672010421753,2,3,3,2,-11.09,1.22,2,13.07,-0.55,-0.09
16.97672009468079,2,3,3,2,-11.89,-0.33,4.45,8.890000000000001,0.95,0.16
16.98672008514404,2,3,3,2,-12.1,-1.05,5.22,3.65,0.88,-0.11
16.9967200756073,2,3,3,2,-11.6,-1.81,5.3,0.08,-1.25,-1.24
17.00672006607056,2,3,3,2,-11.2,-2.44,5.23,-1.57,-4.05,-3.29
17.01672005653381,2,3,3,2,-10.39,-1.27,5.1,-0.95,-5.86,-5.72
17.02672004699707,2,3,3,2,-11,-0.99,5.03,3.46,-6.31,-7.5
17.03672003746033,2,3,3,2,-12.21,-1.22,5.45,6.74,-6.68,-8.83
17.04672002792358,2,3,3,2,-13.98,-0.79,5.7,8.109999999999999,-5.52,-8.65
17.05672001838684,2,3,3,2,-15.39,1.45,3.42,8.75,-3.98,-7.21
17.0667200088501,2,3,3,2,-16.09,2.31,2.95,8.9,-2.83,-4.2
17.07671999931335,2,3,3,2,-16.34,2.66,2.65,7.06,-1.76,-1.32
17.08671998977661,2,3,3,2,-14.33,3.15,2.38,3.61,-2.93,1.71
17.09671998023987,2,3,3,2,-10.71,4.26,4.66,-0.46,-4.76,3.85
17.10671997070312,2,3,3,2,-9.039999999999999,3.34,4.09,-5.11,-6.52,4.69
17.11671996116638,2,3,3,2,-7.91,2.15,4.12,-6.14,-6.93,4.35
17.12671995162964,2,3,3,2,-7.39,1.08,4.2,-4.96,-4.95,2.98
17.1367199420929,2,3,3,2,-7.43,0.86,2.97,-2.77,-2.17,1.63
17.14671993255615,2,3,3,2,-7.46,0.84,1.61,-0.05,0.34,0.98
17.15671992301941,2,3,3,2,-7.69,0.63,0.65,2.77,2.42,0.85
17.16671991348267,2,3,3,2,-7.98,0.9399999999999999,0.2,4.88,4.43,1.25
17.1767201423645,2,3,3,2,-8.48,2.09,-0.23,6.37,4.29,3.16
17.18672013282776,2,3,3,2,-8.449999999999999,2.82,-0.24,6.37,4.29,3.16
17.19672012329102,2,3,3,2,-8.27,3.42,0.04,6.37,2.01,4.05
17.20672011375427,2,3,3,2,-8.02,3.94,0.92,5.72,-0.18,4.44
17.21672010421753,2,3,3,2,-7.81,3.95,1.15,4.5,-1.13,3.17
17.22672009468079,2,3,3,2,-7.59,3.93,1.3,4,-0.67,2.25
17.23672008514404,2,3,3,2,-7.49,3.6,1.35,3.67,-0.09,1.6
17.2467200756073,2,3,3,2,-7.09,3.23,1.37,3.44,1.2,1.17
17.25672006607056,2,3,3,2,-7.21,3.11,1.52,2.81,2.64,0.97
17.26672005653381,2,3,3,2,-7.33,3.06,1.52,2.03,3.96,1.04
17.27672004699707,2,3,3,2,-7.49,3.07,1.42,1.05,5.07,1.33
17.28672003746033,2,3,3,2,-7.42,3.4,0.88,-0.42,5.95,1.81
17.29672002792358,2,3,3,2,-7.74,3.44,0.82,-2.2,7.03,2.34
17.30672001838684,2,3,3,2,-8.18,3.23,0.95,-4.04,8.119999999999999,2.69
17.3167200088501,2,3,3,2,-8.52,3.08,0.99,-5.57,8.050000000000001,2.79
17.32671999931335,2,3,3,2,-8.94,3.11,1.27,-7.19,7.91,2.68
17.33671998977661,2,3,3,2,-8.960000000000001,2.64,1.22,-8.640000000000001,8.050000000000001,2.39
17.34671998023987,2,3,3,2,-8.800000000000001,2.2,1.14,-9.26,7.89,2.82
17.35671997070312,2,3,3,2,-8.82,2.08,1.15,-9.57,7.95,3.01
17.36671996116638,2,3,3,2,-9.59,1.37,1.53,-9.390000000000001,7.22,2.96
17.37671995162964,2,3,3,2,-9.449999999999999,1.35,1.52,-8.279999999999999,6.33,2.83
17.3867199420929,2,3,3,2,-9.41,1.06,1.41,-7.6,6.03,2.55
17.39671993255615,2,3,3,2,-9.65,0.71,1.36,-7.07,5.71,2.28
17.40671992301941,2,3,3,2,-9.67,0.27,1.32,-6.46,4.69,1.95
17.41671991348267,2,3,3,2,-9.800000000000001,0.21,1.6,-5.96,4.2,2
17.4267201423645,2,3,3,2,-10.19,0.17,1.69,-5.39,3.69,2.1
17.43672013282776,2,3,3,2,-10.09,0,1.54,-5.04,2.75,2.14
17.44672012329102,2,3,3,2,-9.76,-0.1,1.39,-5.02,2.2,2.07
17.45672011375427,2,3,3,2,-9.51,-0.17,1.53,-5.48,1.84,2.17
17.46672010421753,2,3,3,2,-9.31,-0.41,1.86,-5.84,1.48,2.39
17.47672009468079,2,3,3,2,-9.199999999999999,-0.61,2.23,-5.22,1.26,2.64
17.48672008514404,2,3,3,2,-9.300000000000001,-0.51,2.09,-3.8,1.4,2.94
17.49772000312805,2,3,3,2,-9.35,-0.34,2.05,-2.28,1.81,3.21
17.50771999359131,2,3,3,2,-9.32,-0.18,2.08,-1.3,2.25,3.6
17.51771998405457,2,3,3,2,-9.31,0.2,1.72,-0.49,2.61,4.02
17.52771997451782,2,3,3,2,-9.529999999999999,0.4,1.45,0.05,2.83,4.43
17.53771996498108,2,3,3,2,-9.75,0.46,1.21,-0.03,2.69,4.83
17.54771995544434,2,3,3,2,-9.960000000000001,0.42,1.01,-0.64,2.13,5.15
17.55771994590759,2,3,3,2,-10.09,0.15,1.13,-1.52,1.41,5.26
17.56771993637085,2,3,3,2,-10.11,-0.06,1.24,-2.61,0.47,5.18
17.57771992683411,2,3,3,2,-10.11,-0.06,1.24,-3.5,-0.55,4.95
17.58771991729736,2,3,3,2,-9.98,-0.26,1.38,-4.13,-1.29,4.63
17.5977201461792,2,3,3,2,-9.44,-0.25,1.97,-4.37,-1.83,4.27
17.60772013664246,2,3,3,2,-9.300000000000001,-0.13,2.14,-4.13,-2.25,3.94
17.61772012710571,2,3,3,2,-9.27,0.1,2.22,-3.8,-2.32,3.65
17.62772011756897,2,3,3,2,-9.27,0.1,2.22,-3.8,-2.32,3.65
17.63772010803223,2,3,3,2,-9.35,0.68,2.16,-3.32,-2.2,3.47
17.64772009849548,2,3,3,2,-9.460000000000001,0.98,1,-1.7,-1.05,3.52
17.65772008895874,2,3,3,2,-9.57,0.99,1.26,-1.1,0.01,3.77
17.667720079422,2,3,3,2,-9.58,0.55,1.53,-0.11,1.05,3.9
17.67772006988525,2,3,3,3,-9.58,0.55,1.53,-0.11,1.05,3.9
17.68772006034851,2,3,3,3,-9.640000000000001,0.13,1.1,0.38,2.05,3.67
17.69772005081177,2,3,3,3,-10.27,-0.33,1.1,-4.71,2.53,2.85
17.70772004127502,2,3,3,3,-10.45,0.38,2.83,-8.449999999999999,1.38,2.81
17.71772003173828,2,3,3,3,-10.45,0.38,2.83,-10.64,0.14,2.7
17.72772002220154,2,3,3,3,-10.56,0.8,3.44,-10.64,0.14,2.7
17.73772001266479,2,3,3,3,-10.77,1.01,4,-10.28,-0.6,2.06
17.74772000312805,2,3,3,3,-10.96,1.01,4.33,-4.5,1.17,-1.03
17.75771999359131,2,3,3,3,-10.89,0.64,2.91,-0.21,4.46,-2.85
17.76771998405457,2,3,3,3,-10.88,0.02,2.01,2.26,8.869999999999999,-4.5
17.77771997451782,2,3,3,3,-11.43,-0.52,1.86,2.26,8.869999999999999,-4.5
17.78771996498108,2,3,3,3,-12.72,-0.23,1.72,3.55,11.33,-4.89
17.79771995544434,2,3,3,3,-13.5,0.9,0.15,7.66,10.94,-1.67
17.80771994590759,2,3,3,3,-13.89,2.28,-1.28,6.41,8.779999999999999,-0.04
17.81771993637085,2,3,3,3,-13.87,3.76,-1.13,4.85,4.5,1.57
17.82771992683411,2,3,3,3,-11.83,6.92,-0.38,4.85,4.5,1.57
17.83771991729736,2,3,3,3,-9.25,6.92,-0.9,4.76,-0.03,1.45
17.8477201461792,2,3,3,3,-7.03,7.95,-1.67,2.57,-0.3,-4.37
17.85772013664246,2,3,3,3,-6.22,7.59,-1.75,-1.69,4.64,-6.59
17.86772012710571,2,3,3,3,-8.23,7.95,0.76,-8.08,6.25,-9.43
17.87772011756897,2,3,3,3,-10.24,7.64,1.68,-8.08,6.25,-9.43
17.88772010803223,2,3,3,3,-11.8,7.34,2.63,-13.81,3.44,-11.78
17.89772009849548,2,3,3,3,-12.71,6.71,3.23,-16.88,-1.19,-14.39
17.90772008895874,2,3,3,3,-12.67,3.39,2.79,-15.04,-0.8100000000000001,-14.65
17.917720079422,2,3,3,3,-12.61,1.32,2.51,-12.05,0.3,-14.35
17.92772006988525,2,3,3,3,-12.18,-0.59,2.19,-12.05,0.3,-14.35
17.93772006034851,2,3,3,3,-11.83,-2.11,2.24,-9.41,1.28,-12.63
17.94772005081177,2,3,3,3,-11.82,-3.28,2.39,-2.98,-2.11,-6.55
17.95772004127502,2,3,3,3,-11.78,-3.46,2.11,1.35,-5.21,-3.91
17.96772003173828,2,3,3,3,-11.38,-2.36,1.88,5.11,-8.140000000000001,-2.48
17.97772002220154,2,3,3,3,-9.52,-0.8100000000000001,1.61,5.11,-8.140000000000001,-2.48
17.98772001266479,2,3,3,3,-8.869999999999999,-0.09,1.94,8.06,-9.32,-1.94
17.99772000312805,2,3,3,3,-8.449999999999999,0.61,2.1,11.69,-10.95,-1.69
18.01771998405457,2,3,3,3,-7.15,1.98,1.59,11.38,-12.25,-1.79
18.02771997451782,2,3,3,3,-6.63,1.93,1.37,11.38,-12.25,-1.79
18.03771996498108,2,3,3,3,-6.37,1.97,1.37,10.58,-11.75,-2.01
18.04771995544434,2,3,3,3,-5.78,1.9,1.56,7.98,-9.720000000000001,-2.44
18.05771994590759,2,3,3,3,-5.57,1.64,1.99,6.54,-8.210000000000001,-3
18.06771993637085,2,3,3,3,-5.62,1.49,2.16,5.51,-7.17,-3.61
18.07771992683411,2,3,3,3,-5.68,1.32,2.22,5.51,-7.17,-3.61
18.08771991729736,2,3,3,3,-6.09,1.32,2.3,4.72,-5.99,-4.17
18.13772010803223,2,3,3,3,-8.49,0.74,2.53,2.35,-1.63,-2.64
18.14772009849548,2,3,3,3,-8.56,0.45,2.6,1.78,-1.05,-0.31
18.15772008895874,2,3,3,3,-8.630000000000001,0.18,2.55,1.78,-1.05,-0.31
18.167720079422,2,3,3,3,-8.539999999999999,-0.25,2.57,1.86,-0.87,0.95
18.17772006988525,2,3,3,3,-7.85,-0.22,2.68,2.21,-0.22,1.94
18.18772006034851,2,3,3,3,-7.58,-0.49,2.66,1.94,0.17,2.03
18.19772005081177,2,3,3,3,-7.25,-0.65,2.53,2.15,0.53,2
18.20772004127502,2,3,3,3,-7.11,-1.01,2.46,2.61,1.55,1.77
18.21772003173828,2,3,3,3,-7.42,-1.09,2.6,2.75,2.49,1.48
18.22772002220154,2,3,3,3,-7.65,-1.3,2.64,3.04,2.93,1
18.23772001266479,2,3,3,3,-7.94,-1.48,2.66,3.62,3.03,0.5600000000000001
18.24772000312805,2,3,3,3,-8.449999999999999,-1.49,2.78,4.33,3.13,0.25
18.25771999359131,2,3,3,3,-8.619999999999999,-1.47,2.74,4.78,3.29,0.12
18.26771998405457,2,3,3,3,-8.73,-1.29,2.89,5.07,3.6,0.28
18.27771997451782,2,3,3,3,-9.01,-1.2,3.22,5.13,3.88,0.42
18.28771996498108,2,3,3,3,-9.74,-0.6,3.84,5.34,3.6,0.51
18.29771995544434,2,3,3,3,-9.890000000000001,-0.31,3.54,6.08,2.34,0.49
18.30771994590759,2,3,3,3,-10.02,0.15,3.34,7.69,0.87,0.24
18.31771993637085,2,3,3,3,-10.23,0.78,3.42,9.69,-0.09,0.08
18.32771992683411,2,3,3,3,-10.08,1.97,2.25,11.92,-1.35,0.33
18.33771991729736,2,3,3,3,-10.02,1.99,1.53,13.29,-1.66,1.05
18.3477201461792,2,3,3,3,-10.39,1.45,1.49,11.35,0.35,1.72
18.35772013664246,2,3,3,3,-11.13,0.76,2.25,6.76,2.73,1.85
18.36772012710571,2,3,3,3,-12.67,-0.57,5.08,1.36,2.81,1.31
18.37772011756897,2,3,3,3,-12.58,-1.31,5.56,-3.25,-0.55,-0.16
18.38772010803223,2,3,3,3,-11.9,-2.27,5.11,-5.53,-4.62,-2.75
18.39772009849548,2,3,3,3,-12.21,-3.46,6.03,-4.6,-7.07,-5.97
18.40772008895874,2,3,3,3,-11.51,-2.09,5.15,0.23,-8.27,-7.19
18.417720079422,2,3,3,3,-11.9,-2.6,4.78,5.18,-10.22,-9.460000000000001
18.42772006988525,2,3,3,3,-13.2,-3.31,5.64,6.28,-10.57,-9.550000000000001
18.43772006034851,2,3,3,3,-15.55,-0.9,5.09,7.96,-8.800000000000001,-8.609999999999999
18.44772005081177,2,3,3,3,-16.28,0.98,3.57,10.66,-6.72,-5.58
18.45772004127502,2,3,3,3,-16.96,2.71,1.75,11.18,-4.85,-1.95
18.46772003173828,2,3,3,3,-15.9,3.54,0.63,8.31,-4.24,1.55
18.47772002220154,2,3,3,3,-11.21,4.21,3.62,3.34,-4.02,4.17
18.48772001266479,2,3,3,3,-9.06,3.98,3.77,-0.88,-5.56,5.35
18.49772000312805,2,3,3,3,-7.64,3.17,3.99,-2.89,-6.18,4.84
18.50771999359131,2,3,3,3,-6.69,2.26,3.87,-3.05,-5.09,2.99
18.51771998405457,2,3,3,3,-6.01,1.57,3.16,-1.51,-2.65,1.37
18.52872014045715,2,3,3,3,-6.33,1.49,2.43,0.57,0.97,0.39
18.53872013092041,2,3,3,3,-6.93,1.3,1.51,3.06,3.92,-0.18
18.54872012138367,2,3,3,3,-7.59,1.52,1.21,4.88,5.56,-0.05
18.55872011184692,2,3,3,3,-8.800000000000001,2.3,-0.08,4.93,6.02,1.06
18.56872010231018,2,3,3,3,-9.119999999999999,2.89,-0.21,4.42,6.09,2.63
18.57872009277344,2,3,3,3,-9.470000000000001,3.42,0.01,3.28,5.16,4.28
18.58872008323669,2,3,3,3,-9.539999999999999,4.13,1.3,2.5,3.24,5.11
18.59872007369995,2,3,3,3,-9.17,4.1,1.62,1.87,1.28,5.09
18.60872006416321,2,3,3,3,-8.57,4.11,1.68,1.55,0.1,4.27
18.61872005462646,2,3,3,3,-8.01,3.83,1.65,1.16,0.06,3.34
18.62872004508972,2,3,3,3,-6.98,3.34,1.47,1.04,0.29,2.6
18.63872003555298,2,3,3,3,-6.67,3.03,1.48,1.08,0.47,1.93
18.64872002601624,2,3,3,3,-6.6,2.89,1.46,1.07,1.39,1.63
18.65872001647949,2,3,3,3,-6.66,2.98,1.45,0.97,2.76,1.44
18.66872000694275,2,3,3,3,-7.02,3.29,1.25,0.61,3.78,1.32
18.67871999740601,2,3,3,3,-7.37,3.41,1.14,0.04,4.79,1.5
18.68871998786926,2,3,3,3,-7.68,3.45,1.03,-1.24,6.16,1.89
18.69871997833252,2,3,3,3,-8.119999999999999,3.32,1.04,-2.91,7.17,2.12
18.70871996879578,2,3,3,3,-8.619999999999999,3.01,0.88,-4.6,7.51,2.28
18.71871995925903,2,3,3,3,-8.789999999999999,2.91,0.99,-5.99,7.35,2.5
18.72871994972229,2,3,3,3,-8.859999999999999,2.83,0.97,-7.09,7.32,2.67
18.73871994018555,2,3,3,3,-8.960000000000001,2.64,0.95,-7.7,7.37,2.75
18.7487199306488,2,3,3,3,-9.06,1.82,1.2,-8.24,7.37,3.03
18.75871992111206,2,3,3,3,-9.41,1.61,1.08,-8.23,7.67,3.52
18.7687201499939,2,3,3,3,-9.52,1.58,1.01,-7.82,7.04,3.67
18.77872014045715,2,3,3,3,-9.6,1.72,1.14,-7.11,6.03,3.57
18.78872013092041,2,3,3,3,-9.77,1.5,1,-6.73,5.52,3.12
18.79872012138367,2,3,3,3,-9.91,1.67,1.17,-6.45,4.85,2.58
18.80872011184692,2,3,3,3,-10.1,1.3,1.1,-6.89,4.19,2.27
18.81872010231018,2,3,3,3,-10.29,1.25,1.29,-7.03,3.39,1.98
18.82872009277344,2,3,3,3,-10.04,1.15,1.35,-7.17,2.75,1.9
18.83872008323669,2,3,3,3,-9.75,0.79,1.35,-7.84,2.25,2.08
18.84872007369995,2,3,3,3,-9.66,0.45,1.52,-8.6,2.17,2.18
18.85872006416321,2,3,3,3,-9.42,-0.35,1.84,-9.43,1.99,2.18
18.86872005462646,2,3,3,3,-9.380000000000001,-0.44,2.19,-9.880000000000001,1.63,2.15
18.87872004508972,2,3,3,3,-9.300000000000001,-0.63,2.19,-9.33,1.23,2.15
18.88872003555298,2,3,3,3,-9.199999999999999,-0.61,2.33,-7.96,1.14,2.37
18.89872002601624,2,3,3,3,-8.98,-0.47,2.23,-6.48,1.36,2.7
18.90872001647949,2,3,3,3,-9.06,-0.35,2.14,-5.11,1.84,3.14
18.91872000694275,2,3,3,3,-9.19,-0.24,2.01,-4.08,2.21,3.48
18.92871999740601,2,3,3,3,-9.33,-0.14,1.85,-3.11,2.27,3.93
18.93871998786926,2,3,3,3,-9.869999999999999,-0.12,1.7,-2.65,2.16,4.35
18.94871997833252,2,3,3,3,-10.03,-0.19,1.66,-2.7,1.68,4.58
18.95871996879578,2,3,3,3,-10.15,-0.28,1.61,-2.91,0.82,4.61
18.96871995925903,2,3,3,3,-10.23,-0.37,1.67,-3.41,-0.19,4.48
18.97871994972229,2,3,3,3,-10.03,-0.41,1.65,-3.93,-1.31,4.33
18.98871994018555,2,3,3,3,-9.77,-0.38,1.51,-4.34,-2.33,4.14
18.9987199306488,2,3,3,3,-9.49,-0.45,1.55,-4.76,-3.08,4.04
19.00871992111206,2,3,3,3,-8.99,-0.4,1.85,-5.27,-3.37,3.92
19.0187201499939,2,3,3,3,-8.869999999999999,-0.2,2.14,-5.69,-3.14,3.74
19.02872014045715,2,3,3,3,-8.869999999999999,-0.15,1.93,-5.94,-2.68,3.63
19.03872013092041,2,3,3,2,-8.9,-0.07000000000000001,1.65,-5.5,-2.02,3.6
19.04872012138367,2,3,3,2,-9.140000000000001,-0.08,2.44,-4.81,-1.01,3.6
19.05872011184692,2,3,3,2,-9.289999999999999,-0.28,2.4,-3.83,0.09,3.57
19.06872010231018,2,3,3,2,-9.470000000000001,-0.62,1.87,-1.61,1.13,3.2
19.07872009277344,2,3,3,2,-9.81,-0.89,1.45,-0.2,1.95,2.48
19.08872008323669,2,3,3,2,-10.7,-0.96,2,-1.41,2.32,1.93
19.09872007369995,2,3,3,2,-10.8,-0.44,2.52,-3.81,1.52,1.94
19.10872006416321,2,3,3,2,-10.87,0.08,3.22,-5.72,0.34,2.33
19.11872005462646,2,3,3,2,-10.97,0.46,3.88,-7.04,-0.58,2.64
19.12872004508972,2,3,3,2,-11.09,1.13,4.43,-6.54,-1.14,2.54
19.13872003555298,2,3,3,2,-10.98,1.18,3.7,-4.42,-0.27,1.89
19.14872002601624,2,3,3,2,-10.71,0.72,2.84,-1.16,2.45,0.64
19.15872001647949,2,3,3,2,-10.94,0.46,2.41,1.75,7.08,-0.88
19.16872000694275,2,3,3,2,-12.51,0.41,1.82,3.16,10.7,-1.93
19.17871999740601,2,3,3,2,-13.18,1.05,0.57,4.54,12.04,-1.88
19.18871998786926,2,3,3,2,-13.6,1.48,-1.06,6.51,12.08,-1.07
19.19871997833252,2,3,3,2,-13.6,3.89,-0.52,8.02,11.17,0
19.20871996879578,2,3,3,2,-12.5,5.21,-0.29,7.54,8.609999999999999,1.21
19.21871995925903,2,3,3,2,-10.56,6.54,-0.62,7.77,4.61,2.29
19.22871994972229,2,3,3,2,-9.06,7.56,-0.87,8.43,2.45,2.19
19.23871994018555,2,3,3,2,-7.6,8.19,-1.14,6.51,2.16,0.22
19.2487199306488,2,3,3,2,-7.55,8.630000000000001,-0.46,2.71,2.11,-3.27
19.25871992111206,2,3,3,2,-8.800000000000001,8.539999999999999,0.52,-1.74,1.59,-7.51
19.2687201499939,2,3,3,2,-9.68,6.97,1.7,-7.97,-0.52,-11.76
19.27872014045715,2,3,3,2,-10.99,6.32,2.58,-11.1,1.15,-12.78
19.28872013092041,2,3,3,2,-10.79,4.62,2.87,-13.44,0.12,-14.26
19.29872012138367,2,3,3,2,-10.66,2.88,2.85,-14.09,-0.5,-14.5
19.30872011184692,2,3,3,2,-10.8,1.28,2.67,-13.08,0.7,-13.87
19.31872010231018,2,3,3,2,-11.41,-1.73,2.61,-12.13,1.85,-12.68
19.32872009277344,2,3,3,2,-11.32,-2.44,2.55,-10.36,1.19,-11.02
19.33872008323669,2,3,3,2,-11.29,-2.58,2.34,-7.21,-1.3,-8.6
19.34872007369995,2,3,3,2,-11.26,-2.54,1.97,-3.42,-3.88,-6.21
19.35872006416321,2,3,3,2,-10.37,-0.88,1.43,0.67,-6.06,-4.67
19.36872005462646,2,3,3,2,-9.619999999999999,-0.17,1.31,4.29,-7.79,-3.43
19.37872004508972,2,3,3,2,-9.23,0.34,1.26,6.74,-9.449999999999999,-2.41
19.38872003555298,2,3,3,1,-8.51,1.6,1.3,8.83,-10.67,-2.19
19.39872002601624,2,3,3,1,-8.26,1.95,1.3,9.6,-11.27,-2.07
19.40872001647949,2,3,3,1,-7.83,2.18,1.21,8.720000000000001,-11.67,-1.84
19.41872000694275,2,3,3,1,-7.32,2.23,1.21,7.36,-12.02,-1.71
19.42871999740601,2,3,3,1,-6.43,1.7,1.54,6.09,-12.35,-1.56
19.43871998786926,2,3,3,1,-6.26,1.47,1.92,4.75,-11.39,-1.67
19.44871997833252,2,3,3,1,-6.12,1.3,2.35,3.64,-9.68,-2.03
19.45871996879578,2,3,3,1,-6.25,1.11,2.58,2.58,-8.06,-2.58
19.46871995925903,2,3,3,1,-6.92,1.11,2.86,1.99,-6.58,-3.25
19.47871994972229,2,3,3,1,-7.23,1.03,2.76,1.87,-5.28,-3.82
19.48871994018555,2,3,3,1,-7.69,0.8100000000000001,2.59,1.58,-3.78,-3.83
19.4987199306488,2,3,3,1,-8.16,0.41,2.56,1.58,-3.78,-3.83
19.50871992111206,2,3,3,1,-8.48,0.34,2.47,1.51,-3.03,-3.11
19.5187201499939,2,3,3,1,-8.76,0.04,2.85,-0.06,-1.59,-1.86
19.52872014045715,2,3,3,1,-8.82,-0.08,3.08,0.05,-1.52,-0.84
19.53872013092041,2,3,3,1,-8.539999999999999,-0.04,3.1,0.68,-1.97,-0.15
19.54972004890442,2,3,3,1,-7.96,-0.32,2.85,1.67,-2.28,0.49
19.55972003936768,2,3,3,1,-7.84,-0.63,2.97,2.15,-0.99,0.9
19.56972002983093,2,3,3,1,-7.83,-0.71,3.18,2.49,-0.23,1.06
19.57972002029419,2,3,3,1,-7.4,-0.95,3.13,2.83,0.09,1.08
19.58972001075745,2,3,3,1,-7.19,-1.08,2.99,3.19,0.63,1.15
