timestamp,magCalib,accCalib,gyrCalib,sysCalib,accX,accY,accZ,gyrX,gyrY,gyrZ
-0.0165179967880249,2,3,3,2,-9.119999999999999,-1.57,0.91,-3.32,-2.66,0.96
-0.006518006324768066,2,3,3,2,-9.09,-1.99,0.86,-3.43,-2.8,2.24
0.00348198413848877,2,3,3,2,-9.1,-1.73,0.82,-1.85,-1.45,1.3
0.01348197460174561,2,3,3,2,-8.99,-1.91,0.59,-1.23,-0.3,0.59
0.02348196506500244,2,3,3,2,-9.220000000000001,-2.03,0.31,-0.71,0.67,-0.22
0.03348195552825928,2,3,3,2,-9.300000000000001,-2.29,0.45,-0.26,1.69,-0.78
0.04348194599151611,2,3,3,2,-11.37,-2.41,-0.16,0.5,2.06,-1.3
0.05348193645477295,2,3,3,2,-10.82,-1.88,0.29,0.67,0.67,-0.8
0.06348192691802979,2,3,3,2,-9.66,-1.87,0.72,-0.05,-0.43,0.79
0.07348191738128662,2,3,3,2,-8.66,-1.69,0.8100000000000001,-0.52,-0.62,1.37
0.08348190784454346,2,3,3,2,-9.16,-1.02,0.83,-0.05,-0.29,0.28
0.09348189830780029,2,3,3,2,-10.1,-0.95,0.7,0.52,0.25,-1.09
0.1034818887710571,2,3,3,2,-10.32,-0.84,0.5,0.39,0.75,-1.45
0.114482045173645,2,3,3,2,-10.22,-0.58,0.46,0.01,0.08,-0.95
0.1234818696975708,2,3,3,2,-10.67,-0.63,0.39,-0.25,-0.61,-0.19
0.1344820261001587,2,3,3,2,-9.369999999999999,-1.99,0.67,0.06,-2.13,0.46
0.1444820165634155,2,3,3,2,-9.23,-1.89,0.5,0.93,-3.08,0.19
0.1544820070266724,2,3,3,3,-9.82,-1.63,0.74,0.96,-1.34,-0.93
0.1644819974899292,2,3,3,3,-9.550000000000001,-1.12,0.63,1.07,0.33,-1.06
0.174481987953186,2,3,3,3,-9.68,-1.24,0.48,0.89,0.64,-0.52
0.1844819784164429,2,3,3,3,-9.529999999999999,-1.37,0.68,0.65,1.04,-0.49
0.1944819688796997,2,3,3,3,-9.640000000000001,-1.6,0.6899999999999999,0.4,1.44,-0.41
0.2044819593429565,2,3,3,3,-9.609999999999999,-1.89,0.79,0.16,1.79,-0.23
0.2144819498062134,2,3,3,3,-9.609999999999999,-2.09,0.76,-0.03,2.04,-0.09
0.2244819402694702,2,3,3,3,-9.699999999999999,-2.02,0.77,-0.13,2.58,-0.04
0.2344819307327271,2,3,3,3,-9.550000000000001,-2.23,0.66,0.09,3.04,-0.17
0.2444819211959839,2,3,3,3,-9.48,-2.13,0.92,0.62,3.49,-0.18
0.2544819116592407,2,3,3,3,-9.33,-2.1,0.77,0.99,3.88,-0.14
0.2644819021224976,2,3,3,3,-9.529999999999999,-2.13,0.82,1.05,4.22,0
0.2744818925857544,2,3,3,3,-9.19,-2.57,0.48,1.41,4.18,0.14
0.2844818830490112,2,3,3,3,-9.32,-1.37,1.03,2.01,4.19,0.49
0.2944818735122681,2,3,3,3,-9.23,-1.44,0.76,2.5,4.15,0.68
0.3044818639755249,2,3,3,3,-9.67,-1.12,0.67,2.2,4.32,0.64
0.3144818544387817,2,3,3,3,-9.699999999999999,-1.42,0.86,1.62,4.24,0.68
0.3244818449020386,2,3,3,3,-9.630000000000001,-1.68,0.87,1.52,4.01,0.41
0.3344818353652954,2,3,3,3,-9.699999999999999,-1.71,0.75,1.17,3.4,0.12
0.3444818258285522,2,3,3,3,-9.59,-1.83,0.76,0.75,2.96,-0.07000000000000001
0.3544820547103882,2,3,3,3,-9.41,-1.77,0.78,0.53,2.71,-0.24
0.364482045173645,2,3,3,3,-9.390000000000001,-1.84,0.73,0.28,2.57,-0.32
0.3744820356369019,2,3,3,3,-9.4,-2.02,0.59,0.2,2.47,-0.32
0.3844820261001587,2,3,3,3,-9.56,-2.03,0.51,0.23,2.47,-0.18
0.3944820165634155,2,3,3,3,-9.630000000000001,-1.77,0.68,0.11,2.41,0.08
0.4044820070266724,2,3,3,3,-10.12,-2.21,0.16,-0.01,2.22,0.24
0.4144819974899292,2,3,3,3,-10.62,-2.73,-1.04,0.06,1.49,0.37
0.424481987953186,2,3,3,3,-8.84,-1.51,2.06,1.51,-3.67,0.36
0.4344819784164429,2,3,3,3,-9.529999999999999,-1.85,0.82,1.81,-1.37,0.02
0.4444819688796997,2,3,3,3,-8.26,-1.28,1.28,1.67,-2.22,-0.1
0.4544819593429565,2,3,3,3,-9.449999999999999,-1.27,1.22,2.08,-1.13,0.24
0.4644819498062134,2,3,3,3,-9.5,-2.05,1.3,2.45,1.22,0.47
0.4744819402694702,2,3,3,3,-9.74,-1.86,1.1,0.9,1.16,0.19
0.4844819307327271,2,3,3,3,-11.04,-2.06,1.1,0.06,1.31,-0.04
0.4944819211959839,2,3,3,3,-8.789999999999999,-1.67,0.73,-0.82,0.87,-0.39
0.5044819116592407,2,3,3,3,-10.04,-2.03,0.82,-1.1,-0.82,-0.51
0.5144819021224976,2,3,3,3,-9.67,-1.67,0.5600000000000001,-0.02,-1.69,-1.03
0.5244818925857544,2,3,3,3,-10.21,-2,0.63,0.38,0.19,-0.71
0.5344818830490112,2,3,3,3,-8.32,-2.04,1.36,0.42,0.35,-0.1
0.5444818735122681,2,3,3,3,-9.84,-1.45,1.72,0.21,2.52,0.12
0.5544818639755249,2,3,3,3,-11.26,-1.51,-1.93,-2.11,13.42,1.22
0.5644818544387817,2,3,3,3,-10.12,-1.46,0.08,-1.49,11.77,0.58
0.5744818449020386,2,3,3,3,-9.470000000000001,-1.58,0.52,0.86,3.73,0.21
0.5844818353652954,2,3,3,3,-9.789999999999999,-1.8,0.68,0.99,3.24,-0.24
0.5944818258285522,2,3,3,3,-9.699999999999999,-1.89,0.66,0.58,2.37,-0.21
0.6044820547103882,2,3,3,3,-9.94,-1.95,0.58,0.28,1.08,-0.23
0.614482045173645,2,3,3,3,-9.91,-1.84,0.4,0.14,0.17,-0.14
0.6244820356369019,2,3,3,3,-9.51,-1.79,0.43,0.29,-0.59,-0.06
0.6344820261001587,2,3,3,3,-9.41,-1.85,0.66,0.5600000000000001,-0.48,-0.35
0.6444820165634155,2,3,3,3,-9.15,-2.04,0.74,0.84,-0.95,-0.49
0.6544820070266724,2,3,3,3,-5.23,-0.05,0.19,0.75,-0.12,-0.5600000000000001
0.6644819974899292,2,3,3,3,-10.6,-2.82,0.77,2.99,-1.81,-2.41
0.674481987953186,2,3,3,3,-12.15,-3.05,0.93,5.87,-9.82,-4.05
0.6844819784164429,2,3,3,3,-11.24,-2.69,1,3.86,-5.54,-1.4
0.6944819688796997,2,3,3,3,-10.39,-2.09,1.43,1.71,-0.01,0.8
0.7044819593429565,2,3,3,3,-9.619999999999999,-1.53,1.33,0.5600000000000001,1.73,1.1
0.7144819498062134,2,3,3,3,-9.73,-1.54,0.99,-0.14,1.48,0.84
0.7244819402694702,2,3,3,3,-9.710000000000001,-1.77,0.6899999999999999,-0.53,0.89,0.72
0.7344819307327271,2,3,3,3,-9.720000000000001,-1.77,0.53,-1.04,0.32,0.82
0.7444819211959839,2,3,3,3,-9.619999999999999,-1.79,0.57,-1.26,-0.08,0.85
0.7544819116592407,2,3,3,3,-9.630000000000001,-1.92,0.5600000000000001,-1.1,-0.27,0.83
0.7644819021224976,2,3,3,3,-9.69,-2.15,0.6,-1,0.06,0.95
0.7744818925857544,2,3,3,3,-9.779999999999999,-2.21,0.45,-0.92,0.84,1.25
0.7844818830490112,2,3,3,3,-9.800000000000001,-2.05,0.52,-0.92,1.68,1.44
0.7944818735122681,2,3,3,3,-9.74,-1.89,0.66,-0.97,2.12,1.55
0.8044818639755249,2,3,3,3,-9.789999999999999,-1.78,0.63,-0.89,2,1.48
0.8144818544387817,2,3,3,3,-9.65,-1.72,0.42,-0.63,1.82,1.27
0.8244818449020386,2,3,3,3,-9.6,-1.63,0.24,-0.26,1.36,1.2
0.8344818353652954,2,3,3,3,-9.59,-1.61,0.39,-0.01,0.85,1.14
0.8444818258285522,2,3,3,3,-9.66,-1.69,0.39,0.2,0.36,1.12
0.8544820547103882,2,3,3,3,-9.630000000000001,-1.67,0.47,0.27,0.43,1.09
0.864482045173645,2,3,3,3,-9.33,-1.68,0.4,0.1,0.98,1.26
0.8744820356369019,2,3,3,3,-9.17,-1.76,0.34,0.07000000000000001,1.24,1.42
0.8844820261001587,2,3,3,3,-8.970000000000001,-1.8,0.3,0.34,0.84,1.5
0.8944820165634155,2,3,3,3,-9.130000000000001,-1.87,0.46,0.65,0.26,1.75
0.9044820070266724,2,3,3,3,-9.460000000000001,-1.61,0.39,0.92,-0.27,2.19
0.9144819974899292,2,3,3,3,-9.699999999999999,-1.44,0.46,1.16,-0.41,2.37
0.924481987953186,2,3,3,3,-9.949999999999999,-1.34,0.25,1.61,-0.27,1.99
0.9344819784164429,2,3,3,3,-9.67,-1.39,0.29,1.94,-0.22,1.4
0.9444819688796997,2,3,3,3,-9.640000000000001,-1.4,0.4,1.94,-0.13,1.1
0.9544819593429565,2,3,3,3,-9.609999999999999,-1.37,0.38,1.56,0.27,1.19
0.9644819498062134,2,3,3,3,-9.130000000000001,-1.46,0.36,1.43,0.05,1.33
0.9744819402694702,2,3,3,3,-9.49,-1.58,0.4,1.26,-0.44,1.7
0.9844819307327271,2,3,3,3,-9.66,-1.42,0.3,0.74,-0.73,2.51
0.9944819211959839,2,3,3,3,-9.75,-1.29,0.44,0.42,-1.01,3.23
1.004481911659241,2,3,3,3,-9.83,-1.11,0.44,0.5600000000000001,-1.3,3.54
1.034481883049011,2,3,3,3,-9.18,-1.51,0.62,0.61,-0.98,3.29
1.064481854438782,2,3,3,3,-10.02,-1.04,0.41,0.88,-2.41,5.24
1.07548201084137,2,3,3,3,-10.4,-1.01,0.43,0.95,-1.85,4.93
1.084481835365295,2,3,3,3,-10.03,-0.87,0.68,0.84,-1.21,4.41
1.094481825828552,2,3,3,3,-10.21,-0.54,0.7,0.54,-1.07,3.78
1.10548198223114,2,3,3,3,-10.37,-0.71,0.68,0.17,-1.38,2.86
1.114482045173645,2,3,3,3,-10.32,-0.9,0.6899999999999999,0.08,-1.88,1.3
1.124482035636902,2,3,3,3,-10.04,-1.02,0.55,0.3,-2.61,-0.03
1.135481953620911,2,3,3,3,-9.91,-1.02,0.68,0.63,-3.59,-0.8100000000000001
1.144482016563416,2,3,3,3,-9.94,-1.02,0.76,1.25,-4.61,-1.49
1.154482007026672,2,3,3,3,-10.54,-1,1.05,1.68,-4.42,-2.39
1.165481925010681,2,3,3,3,-10.56,-1.17,1.2,1.89,-3.41,-3.38
1.175481915473938,2,3,3,3,-10.81,-1.35,1.16,1.62,-1.94,-4.44
1.185481905937195,2,3,3,3,-11,-1.47,1.15,0.51,0.35,-5.48
1.195481896400452,2,3,3,3,-11.48,-1.56,1.66,-0.78,3.52,-6.79
1.205481886863708,2,3,3,3,-11.64,-0.8100000000000001,0.9399999999999999,-1.72,7.61,-8.92
1.215481877326965,2,3,3,3,-10.53,-0.33,0.41,-2.63,12.65,-12.07
1.225481867790222,2,3,3,3,-7.38,-0.67,-0.62,-2.77,16.53,-15.76
1.235481858253479,2,3,3,3,-8.06,0.05,1.09,-1.57,10.72,-13.67
1.245481848716736,2,3,3,3,-8.1,-1.47,0.36,-3.48,-3.81,0.57
1.255481839179993,2,3,3,3,-7.6,-1.55,1.09,-0.77,-2.52,0.19
1.26548182964325,2,3,3,3,-8.869999999999999,-1.55,0.55,-0.17,-1.08,-0.23
1.275482058525085,2,3,3,3,-11.88,-2.49,-1.62,0.48,-0.47,-0.31
1.285482048988342,2,3,3,3,-8,-0.28,1.58,-0.35,-4.03,1.06
1.295482039451599,2,3,3,3,-10.24,-1.01,-0.01,-0.63,-3.21,0.6899999999999999
1.305482029914856,2,3,3,3,-9.73,-0.87,0.98,0.22,0.77,-0.51
1.315482020378113,2,3,3,3,-10.86,-1.85,-0.7,1.74,1.51,-1.17
1.32548201084137,2,3,3,3,-10.25,-1.87,-0.77,0.27,0.53,-0.74
1.335482001304626,2,3,3,3,-10.04,-1.87,-0.19,-0.96,-0.78,-0.59
1.345481991767883,2,3,3,3,-8.66,-1.02,0.96,-2.09,-2.27,-0.05
1.35548198223114,2,3,3,3,-9.380000000000001,-1.71,0.14,-0.77,-0.43,-0.48
1.365481972694397,2,3,3,3,-9.130000000000001,-1.56,0.26,-1.8,-2.01,-0.06
1.375481963157654,2,3,3,3,-9.23,-1.87,0.18,-1.83,-1.97,-0.24
1.385481953620911,2,3,3,3,-9.15,-1.59,0.47,-1.84,-1.73,-0.11
1.395481944084167,2,3,3,3,-9.4,-2.05,0.3,-1.47,-0.4,-0.3
1.405481934547424,2,3,3,3,-9.26,-1.89,0.45,-1.24,0.25,-0.59
1.415481925010681,2,3,3,3,-9.17,-2.03,0.32,-0.9399999999999999,1.38,-0.97
1.425481915473938,2,3,3,3,-9.609999999999999,-2.55,0,-0.7,2.2,-1.17
1.435481905937195,2,3,3,3,-9.43,-2.42,0.09,-1.55,0.31,-0.48
1.445481896400452,2,3,3,3,-9.449999999999999,-2.37,0.16,-1.58,0.03,-0.2
1.455481886863708,2,3,3,3,-9.56,-2.18,0.16,-1.24,0.12,-0.06
1.465481877326965,2,3,3,3,-9.529999999999999,-2.29,0.26,-0.84,0.14,-0.03
1.475481867790222,2,3,3,3,-9.58,-2.08,0.18,-0.71,0.19,0.01
1.485481858253479,2,3,3,3,-9.6,-2.05,0.22,-0.76,0.21,-0.06
1.495481848716736,2,3,3,3,-9.539999999999999,-1.98,0.2,-0.64,0.19,-0.05
1.505481839179993,2,3,3,3,-9.619999999999999,-1.98,0.24,-0.55,0.07000000000000001,0.02
1.51548182964325,2,3,3,3,-9.619999999999999,-1.89,0.34,-0.42,0.04,0.14
1.525482058525085,2,3,3,3,-9.539999999999999,-1.81,0.29,-0.23,0.01,0.29
1.535482048988342,2,3,3,3,-9.529999999999999,-1.64,0.32,0.05,0.1,0.33
1.545482039451599,2,3,3,3,-9.539999999999999,-1.64,0.32,0.21,0.12,0.33
1.555482029914856,2,3,3,3,-9.529999999999999,-1.65,0.35,0.31,0.16,0.23
1.565482020378113,2,3,3,3,-9.550000000000001,-1.71,0.32,0.37,0.09,0.28
1.57548201084137,2,3,3,3,-9.279999999999999,-1.49,0.28,0.4,-0.04,0.41
1.585482001304626,2,3,3,3,-9.32,-1.52,0.29,0.35,-0.19,0.66
1.595481991767883,2,3,3,3,-9.869999999999999,-1.87,0.11,0.41,-0.16,0.97
1.60548198223114,2,3,3,3,-9.92,-1.73,0.19,0.6,-0.03,1.15
1.615481972694397,2,3,3,3,-9.98,-1.52,0.13,0.91,-0.28,1.15
1.625481963157654,2,3,3,3,-10.06,-1.4,0.1,1.27,-0.12,0.95
1.635481953620911,2,3,3,3,-10.02,-1.67,0.34,1.31,-0.12,0.63
1.645481944084167,2,3,3,3,-9.800000000000001,-1.36,0.31,1.4,-0.08,0.17
1.655481934547424,2,3,3,3,-9.57,-1.62,0.4,1.43,0.02,-0.19
1.665481925010681,2,3,3,3,-9.51,-1.74,0.4,1.45,0.13,-0.42
1.675481915473938,2,3,3,3,-9.460000000000001,-1.82,0.37,1.56,0.31,-0.6
1.685481905937195,2,3,3,3,-9.49,-1.83,0.38,1.64,0.47,-0.5600000000000001
1.695481896400452,2,3,3,3,-9.460000000000001,-1.86,0.36,1.84,0.49,-0.46
1.705481886863708,2,3,3,3,-9.529999999999999,-1.88,0.35,2.08,0.43,-0.37
1.715481877326965,2,3,3,3,-9.5,-1.74,0.36,2.19,0.33,-0.32
1.725481867790222,2,3,3,3,-9.51,-1.82,0.28,2.18,0.29,-0.28
1.735481858253479,2,3,3,3,-9.630000000000001,-2.03,0.36,2.08,0.16,-0.2
1.745481848716736,2,3,3,3,-9.789999999999999,-2.31,0.43,1.97,0.06,-0.17
1.755481839179993,2,3,3,3,-9.640000000000001,-1.95,0.37,2.14,-0.21,-0.17
1.76548182964325,2,3,3,3,-9.66,-1.26,0.3,2.03,-0.26,-0.1
1.775482058525085,2,3,3,3,-9.949999999999999,-1.58,0.23,1.9,-0.03,0.21
1.785482048988342,2,3,3,3,-10.09,-1.62,0.19,1.34,0.21,0.26
1.795482039451599,2,3,3,3,-9.73,-1.34,0.28,1.16,-0.08,-0.15
1.805482029914856,2,3,3,3,-9.380000000000001,-1.42,0.59,0.6899999999999999,0.31,-0.04
1.815482020378113,2,3,3,3,-9.51,-1.65,0.36,0,0.49,-0.08
1.82548201084137,2,3,3,3,-9.08,-1.26,0.27,-0.32,-0.05,-0.21
1.835482001304626,2,3,3,3,-10.12,-1.38,0.2,-0.5,0.39,0.27
1.845481991767883,2,3,3,3,-9.75,-1.29,0.34,-0.53,-0.59,0.1
1.85548198223114,2,3,3,3,-9.869999999999999,-1.4,0.31,-0.91,-0.87,0.29
1.865481972694397,2,3,3,3,-9.869999999999999,-1.41,0.3,-1.43,-0.8,0.5
1.875481963157654,2,3,3,3,-10.05,-1.27,0.21,-1.85,-0.64,0.64
1.885481953620911,2,3,3,3,-9.58,-1.24,0.2,-2.46,-0.65,0.64
1.895481944084167,2,3,3,3,-9.550000000000001,-1.3,0.2,-2.93,-0.49,0.58
1.905481934547424,2,3,3,2,-9.57,-1.34,0.15,-3.47,-0.17,0.44
1.915481925010681,2,3,3,2,-9.640000000000001,-1.43,0.17,-3.85,-0.02,0.23
1.925481915473938,2,3,3,2,-9.539999999999999,-1.72,0.13,-4.16,0.12,-0.02
1.935481905937195,2,3,3,2,-9.470000000000001,-1.82,0.22,-4.46,0.23,-0.23
1.945481896400452,2,3,3,2,-9.460000000000001,-1.86,0.24,-4.64,0.25,-0.36
1.955481886863708,2,3,3,2,-9.51,-1.86,0.16,-4.66,0.2,-0.47
1.965481877326965,2,3,3,2,-9.539999999999999,-1.87,0.04,-4.66,0.08,-0.4
1.975481867790222,2,3,3,2,-9.550000000000001,-1.9,-0.03,-4.63,0.06,-0.36
1.985481858253479,2,3,3,2,-9.56,-1.94,-0.02,-4.54,0.06,-0.34
1.995481848716736,2,3,3,2,-9.58,-1.9,0.12,-4.54,0.05,-0.35
2.005481839179993,2,3,3,2,-9.380000000000001,-1.96,0.16,-4.59,0.11,-0.4
2.01548182964325,2,3,3,2,-9.449999999999999,-1.98,0.17,-4.59,0.15,-0.45
2.025482058525085,2,3,3,2,-9.539999999999999,-1.87,0.11,-4.71,0.41,-0.5
2.035482048988342,2,3,3,2,-9.5,-1.88,0.12,-4.63,0.39,-0.5
2.045482039451599,2,3,3,2,-9.57,-1.86,0.19,-4.4,0.45,-0.46
2.085482001304626,2,3,3,2,-9.77,-2.1,0.11,-3.46,0.64,-0.46
2.095481991767883,2,3,3,2,-9.710000000000001,-2.08,0.15,-3.3,0.49,-0.51
2.10548198223114,2,3,3,2,-9.630000000000001,-2.04,0.18,-3.22,0.42,-0.55
2.115481972694397,2,3,3,2,-9.5,-1.96,0.2,-3.03,0.4,-0.49
2.125481963157654,2,3,3,2,-9.470000000000001,-1.91,0.15,-2.83,0.44,-0.45
2.135481953620911,2,3,3,2,-9.460000000000001,-1.88,0.19,-2.57,0.46,-0.39
2.145481944084167,2,3,3,2,-9.44,-1.92,0.26,-2.25,0.42,-0.3
2.155481934547424,2,3,3,2,-9.49,-2.05,0.41,-1.91,0.41,-0.22
2.165481925010681,2,3,3,2,-9.49,-2.08,0.4,-1.66,0.37,-0.17
2.175481915473938,2,3,3,2,-9.48,-2.07,0.28,-1.4,0.33,-0.11
2.186481833457947,2,3,3,2,-9.59,-1.96,0.26,-1.2,0.35,-0.07000000000000001
2.196481823921204,2,3,3,2,-9.65,-1.92,0.21,-1.01,0.34,-0.03
2.20648205280304,2,3,3,2,-9.66,-1.85,0.23,-0.8100000000000001,0.38,-0.03
2.216482043266296,2,3,3,2,-9.65,-1.77,0.25,-0.68,0.4,-0.05
2.226482033729553,2,3,3,2,-9.720000000000001,-1.79,0.15,-0.62,0.46,-0.11
2.23648202419281,2,3,3,2,-9.67,-1.87,0.28,-0.6899999999999999,0.44,-0.12
2.246482014656067,2,3,3,2,-9.630000000000001,-1.96,0.4,-0.72,0.34,-0.15
2.256482005119324,2,3,3,2,-9.57,-2.03,0.38,-0.8100000000000001,0.21,-0.11
2.266481995582581,2,3,3,2,-9.390000000000001,-1.89,0.39,-0.99,0.12,-0.1
2.276481986045837,2,3,3,2,-9.380000000000001,-1.87,0.29,-1.19,0.06,-0.04
2.286481976509094,2,3,3,2,-9.380000000000001,-1.94,0.32,-0.9399999999999999,0.15,0.04
2.296481966972351,2,3,3,2,-9.48,-2,0.38,-0.58,0.19,0.07000000000000001
2.306481957435608,2,3,3,2,-9.69,-2.03,0.24,-0.46,0.2,0.09
2.316481947898865,2,3,3,2,-9.76,-2,0.19,-0.31,0.23,0.11
2.326481938362122,2,3,3,2,-9.81,-1.92,0.13,-0.09,0.23,0.16
2.336481928825378,2,3,3,2,-9.779999999999999,-1.87,0.17,0.05,0.21,0.19
2.346481919288635,2,3,3,2,-9.619999999999999,-1.74,0.35,0.11,0.16,0.19
2.356481909751892,2,3,3,2,-9.56,-1.73,0.36,0.13,0.05,0.18
2.366481900215149,2,3,3,2,-9.48,-1.71,0.33,0.07000000000000001,0.05,0.08
2.376481890678406,2,3,3,2,-9.57,-1.62,0.11,-0.12,0.08,0.01
2.386481881141663,2,3,3,2,-9.630000000000001,-1.67,0.09,-0.3,0.09,0
2.396481871604919,2,3,3,2,-9.69,-1.7,0.1,-0.21,0.06,0
2.406481862068176,2,3,3,2,-9.74,-1.66,0.13,-0.2,-0.01,0.03
2.416481852531433,2,3,3,2,-9.779999999999999,-1.65,0.11,-0.28,-0.04,0.04
2.42648184299469,2,3,3,2,-9.74,-1.69,0.11,-0.35,-0.1,0.07000000000000001
2.436481833457947,2,3,3,2,-9.66,-1.64,0.19,-0.47,-0.14,0.05
2.446481823921204,2,3,3,2,-9.59,-1.58,0.13,-0.65,-0.19,-0.02
2.45648205280304,2,3,3,2,-9.51,-1.64,0.08,-0.65,-0.19,-0.14
2.466482043266296,2,3,3,2,-9.550000000000001,-1.72,0.04,-0.63,-0.16,-0.3
2.476482033729553,2,3,3,2,-9.630000000000001,-1.8,-0.12,-0.7,-0.12,-0.37
2.48648202419281,2,3,3,2,-9.68,-1.89,-0.11,-0.7,-0.13,-0.4
2.496482014656067,2,3,3,2,-9.69,-1.9,-0.07000000000000001,-0.62,-0.11,-0.4
2.506482005119324,2,3,3,2,-9.640000000000001,-1.9,-0.06,-0.45,-0.1,-0.38
2.516481995582581,2,3,3,2,-9.68,-1.83,-0.06,-0.37,-0.03,-0.36
2.526481986045837,2,3,3,2,-9.5,-1.87,-0.17,-0.36,-0.02,-0.37
2.536481976509094,2,3,3,2,-9.42,-2.02,-0.03,-0.33,-0.06,-0.37
2.546481966972351,2,3,3,2,-9.470000000000001,-1.96,-0.01,-0.42,0.04,-0.36
2.556481957435608,2,3,3,2,-9.4,-2.02,-0.02,-0.5600000000000001,-0.01,-0.33
2.566481947898865,2,3,3,2,-9.43,-2.09,-0.11,-0.55,-0.03,-0.26
2.576481938362122,2,3,3,2,-9.470000000000001,-2.09,-0.15,-0.52,-0.03,-0.18
2.586481928825378,2,3,3,2,-9.52,-2.1,-0.07000000000000001,-0.45,0.03,-0.06
2.596481919288635,2,3,3,2,-9.57,-2.07,0,-0.34,0.07000000000000001,0.01
2.606481909751892,2,3,3,2,-9.66,-1.99,0,-0.19,0.1,0.04
2.616481900215149,2,3,3,2,-9.68,-1.98,-0.06,0,0.13,0.01
2.626481890678406,2,3,3,2,-9.67,-1.95,-0.06,0.16,0.13,-0.07000000000000001
2.636481881141663,2,3,3,2,-9.68,-1.96,-0.08,0.19,0.13,-0.14
2.646481871604919,2,3,3,2,-9.6,-1.98,-0.08,0.25,0.15,-0.21
2.656481862068176,2,3,3,2,-9.57,-1.94,-0.02,0.29,0.18,-0.32
2.666481852531433,2,3,3,2,-9.529999999999999,-1.91,-0.03,0.25,0.23,-0.33
2.67648184299469,2,3,3,2,-9.550000000000001,-1.92,-0.08,0.2,0.22,-0.34
2.686481833457947,2,3,3,2,-9.550000000000001,-1.91,-0.03,0.05,0.17,-0.28
2.696481823921204,2,3,3,2,-9.539999999999999,-1.95,-0.02,-0.12,0.07000000000000001,-0.21
2.70648205280304,2,3,3,2,-9.56,-1.99,0.02,-0.17,-0.02,-0.15
2.716482043266296,2,3,3,2,-9.609999999999999,-1.97,0.02,-0.2,-0.01,-0.13
2.726482033729553,2,3,3,2,-9.619999999999999,-1.91,-0.09,-0.25,-0.08,-0.13
2.73648202419281,2,3,3,2,-9.65,-1.89,-0.04,-0.26,-0.02,-0.11
2.746482014656067,2,3,3,2,-9.59,-1.87,0,-0.27,0.02,-0.13
2.756482005119324,2,3,3,2,-9.56,-1.85,0.01,-0.26,0.03,-0.21
2.766481995582581,2,3,3,2,-9.550000000000001,-1.87,-0.05,-0.33,0.07000000000000001,-0.31
2.776481986045837,2,3,3,2,-9.56,-1.91,-0.09,-0.37,0.05,-0.37
2.786481976509094,2,3,3,2,-9.52,-1.95,0,-0.39,0.06,-0.36
2.796481966972351,2,3,3,2,-9.51,-2.01,0.03,-0.41,-0.01,-0.35
2.806481957435608,2,3,3,2,-9.52,-2.02,0.01,-0.41,0.01,-0.26
2.816481947898865,2,3,3,2,-9.52,-2.01,0.04,-0.3,0,-0.17
2.826481938362122,2,3,3,2,-9.529999999999999,-1.98,-0.04,-0.15,0.06,-0.04
2.836481928825378,2,3,3,2,-9.58,-1.98,0.01,-0.04,0.01,0.03
2.846481919288635,2,3,3,2,-9.6,-1.99,0.05,0.04,0.05,0.1
2.856481909751892,2,3,3,2,-9.609999999999999,-2.02,0.08,-0.03,0.02,0.14
2.866481900215149,2,3,3,2,-9.619999999999999,-2.08,0.05,-0.08,0.04,0.16
2.876481890678406,2,3,3,2,-9.6,-2.18,-0.07000000000000001,-0.2,-0.02,0.2
2.886481881141663,2,3,3,2,-9.56,-2.23,0.04,-0.37,-0.06,0.18
2.896481871604919,2,3,3,2,-9.52,-2.26,0.14,-0.44,-0.01,0.19
2.906481862068176,2,3,3,2,-9.48,-2.24,0.1,-0.32,-0.04,0.23
2.916481852531433,2,3,3,2,-9.52,-2.18,-0.01,-0.06,-0.1,0.3
2.92648184299469,2,3,3,2,-9.539999999999999,-2.12,-0.11,0.2,-0.07000000000000001,0.33
2.936481833457947,2,3,3,2,-9.57,-2.08,-0.03,0.39,0.03,0.36
2.946481823921204,2,3,3,2,-9.6,-2.03,0.04,0.59,0.07000000000000001,0.41
2.95648205280304,2,3,3,2,-9.57,-1.93,0.08,0.71,0.07000000000000001,0.42
2.966482043266296,2,3,3,2,-9.59,-1.92,0.07000000000000001,0.8100000000000001,0.05,0.37
2.976482033729553,2,3,3,2,-9.630000000000001,-1.98,0,0.95,0.14,0.33
2.98648202419281,2,3,3,2,-9.66,-1.94,0.03,1.02,0.18,0.3
2.996482014656067,2,3,3,2,-9.65,-1.92,0.06,0.97,0.15,0.22
3.006482005119324,2,3,3,2,-9.609999999999999,-1.92,0.07000000000000001,0.98,0.15,0.16
3.016481995582581,2,3,3,2,-9.58,-1.92,0.06,0.98,0.1,0.12
3.026481986045837,2,3,3,2,-9.56,-1.91,-0.01,0.97,0.11,0.08
3.036481976509094,2,3,3,2,-9.539999999999999,-1.91,0.06,0.93,0.13,0.1
3.046481966972351,2,3,3,2,-9.529999999999999,-1.9,0.02,0.8,0.1,0.09
3.056481957435608,2,3,3,2,-9.539999999999999,-1.85,0.03,0.77,0.07000000000000001,0.08
3.066481947898865,2,3,3,2,-9.609999999999999,-1.83,0.04,0.8100000000000001,0.07000000000000001,0.08
3.076481938362122,2,3,3,2,-9.609999999999999,-1.83,-0.02,0.8,-0.01,0.12
3.086481928825378,2,3,3,2,-9.6,-1.8,-0.01,0.76,-0.03,0.12
3.096481919288635,2,3,3,2,-9.619999999999999,-1.82,0.02,0.6899999999999999,-0.01,0.13
3.106481909751892,2,3,3,2,-9.619999999999999,-1.78,0.15,0.74,0,0.12
3.116481900215149,2,3,3,2,-9.6,-1.76,0.12,0.75,-0.07000000000000001,0.08
3.126481890678406,2,3,3,2,-9.59,-1.76,0,0.75,-0.22,0.07000000000000001
3.136481881141663,2,3,3,2,-9.56,-1.78,-0.08,0.7,-0.27,0.03
3.146481871604919,2,3,3,2,-9.56,-1.79,0.04,0.5600000000000001,-0.3,0
3.156481862068176,2,3,3,2,-9.58,-1.8,0.07000000000000001,0.48,-0.17,-0.02
3.166481852531433,2,3,3,2,-9.6,-1.82,0.1,0.37,-0.08,0.05
3.17648184299469,2,3,3,2,-9.630000000000001,-1.98,0,0.41,-0.04,0.1
3.186481833457947,2,3,3,2,-9.609999999999999,-2,0.07000000000000001,0.47,-0.11,0.1
3.196481823921204,2,3,3,2,-9.59,-1.97,0.1,0.53,-0.06,0.07000000000000001
3.20648205280304,2,3,3,2,-9.550000000000001,-1.98,0.11,0.62,-0.04,0.01
3.217481970787048,2,3,3,2,-9.550000000000001,-2.05,0.06,0.79,0.02,-0.02
3.227481961250305,2,3,3,2,-9.539999999999999,-2.07,0.05,0.9,0.02,-0.01
3.237481951713562,2,3,3,2,-9.529999999999999,-2.03,0.1,0.96,-0.02,-0.05
3.247481942176819,2,3,3,2,-9.57,-2.02,0.1,0.89,0.01,0
3.257481932640076,2,3,3,2,-9.640000000000001,-1.99,0.06,0.73,-0.02,0.1
3.267481923103333,2,3,3,2,-9.619999999999999,-1.97,0.06,0.58,-0.03,0.12
3.277481913566589,2,3,3,2,-9.609999999999999,-1.97,-0.02,0.5,-0.05,0.13
3.287481904029846,2,3,3,2,-9.609999999999999,-2,0,0.33,-0.05,0.17
3.297481894493103,2,3,3,2,-9.550000000000001,-2.03,0.09,0.32,-0.07000000000000001,0.17
3.30748188495636,2,3,3,2,-9.6,-1.98,0.07000000000000001,0.4,-0.16,0.21
3.317481875419617,2,3,3,2,-9.630000000000001,-1.97,0.08,0.49,-0.19,0.22
3.327481865882874,2,3,3,2,-9.619999999999999,-1.87,-0.02,0.46,-0.28,0.28
3.33748185634613,2,3,3,2,-9.609999999999999,-1.88,0.19,0.42,-0.39,0.24
3.347481846809387,2,3,3,2,-9.619999999999999,-1.89,0.21,0.36,-0.49,0.23
3.357481837272644,2,3,3,2,-9.56,-1.85,0.17,0.26,-0.71,0.13
3.367481827735901,2,3,3,2,-9.59,-1.98,-0.07000000000000001,0.03,-0.82,-0.03
3.377482056617737,2,3,3,2,-9.550000000000001,-2.02,-0.03,-0.1,-0.7,-0.09
3.387482047080994,2,3,3,2,-9.460000000000001,-2.12,0.06,0.04,-0.5,-0.17
3.39748203754425,2,3,3,2,-9.390000000000001,-2.23,0.16,0.3,-0.39,-0.22
3.407482028007507,2,3,3,2,-9.18,-2.35,0.2,0.31,-0.29,-0.28
3.437481999397278,2,3,3,2,-9.16,-2.63,0.46,0.67,0.06,-0.11
3.447481989860535,2,3,3,2,-9.77,-2.76,0.29,0.72,-0.25,0.11
3.457481980323792,2,3,3,2,-9.9,-2.77,0.08,0.47,-0.75,0.38
3.467481970787048,2,3,3,2,-9.93,-2.75,-0.01,0.35,-1.13,0.54
3.477481961250305,2,3,3,2,-9.85,-2.67,-0.08,0.52,-1.2,0.44
3.487481951713562,2,3,3,2,-9.76,-2.68,0.39,0.82,-1.06,0.06
3.497481942176819,2,3,3,2,-9.76,-2.71,0.4,1.14,-0.8100000000000001,-0.4
3.507481932640076,2,3,3,2,-9.65,-2.66,0.25,0.98,-1.04,-0.97
3.517481923103333,2,3,3,2,-9.609999999999999,-2.77,0.1,0.84,-0.89,-1.46
3.527481913566589,2,3,3,2,-9.41,-3.14,0.02,1.07,-0.65,-1.82
3.537481904029846,2,3,3,2,-9.220000000000001,-3.31,0.04,1.34,-0.61,-2.03
3.547481894493103,2,3,3,2,-9.08,-3.47,-0.01,1.51,-0.57,-2.17
3.55748188495636,2,3,3,2,-8.81,-3.79,-0.01,1.67,-0.59,-2.21
3.567481875419617,2,3,3,2,-8.640000000000001,-3.89,-0.04,1.75,-0.71,-2.26
3.577481865882874,2,3,3,2,-8.49,-4,-0.06,1.61,-0.93,-2.35
3.58748185634613,2,3,3,2,-8.199999999999999,-4.11,0.1,1.4,-1.33,-2.43
3.597481846809387,2,3,3,2,-7.49,-4.2,0.22,1.11,-2.03,-2.53
3.607481837272644,2,3,3,2,-6.82,-3.9,-0.1,0.74,-3.27,-2.86
3.617481827735901,2,3,3,2,-6.11,-3.58,-0.08,0.28,-4.36,-3.3
3.627482056617737,2,3,3,2,-5.8,-3.34,0.15,0.28,-4.61,-3.72
3.637482047080994,2,3,3,2,-4.31,-2.78,0.03,0.39,-5.24,-4.44
3.64748203754425,2,3,3,2,-3.85,-2.1,0.18,-0.19,-5.37,-5.28
3.657482028007507,2,3,3,2,-3.24,-1.77,-0.12,-0.99,-6.02,-6
3.667482018470764,2,3,3,2,-2.79,-1.51,-0.77,-1.47,-6.64,-5.83
3.677482008934021,2,3,3,2,-2.26,-0.63,-0.64,-1.34,-6.2,-4.94
3.687481999397278,2,3,3,2,-2.07,0.24,-0.39,-0.17,-5.53,-4.04
3.697481989860535,2,3,3,2,-1.89,0.72,0.23,0.61,-4.92,-3.57
3.707481980323792,2,3,3,2,-2.78,0.07000000000000001,0.96,1.04,-4.59,-3.42
3.717481970787048,2,3,3,2,-5.87,-1.1,0.37,0.45,-5.21,-2.55
3.727481961250305,2,3,3,2,-7.07,-1.37,-0.2,-1.24,-5.95,-1.64
3.737481951713562,2,3,3,2,-8.84,-1.71,0.27,-0.88,-6.54,-1.22
3.747481942176819,2,3,3,2,-10.96,-2.34,1.36,1.06,-7.21,-0.76
3.757481932640076,2,3,3,2,-12.46,-1.7,0.41,1.64,-8.83,-0.39
3.767481923103333,2,3,3,2,-11.9,-1.39,0.71,2.35,-8.56,-1.25
3.777481913566589,2,3,3,2,-11,-0.25,0.7,3.03,-7.22,-4.28
3.787481904029846,2,3,3,2,-9.859999999999999,1.23,1.5,3.2,-5.3,-7.91
3.797481894493103,2,3,3,2,-8.74,1.22,1.97,2.83,-2.46,-12
3.80748188495636,2,3,3,2,-8.279999999999999,-0.01,2.79,2.03,0.74,-14.98
3.817481875419617,2,3,3,2,-8.06,-2.01,2.68,1.24,2.08,-14.81
3.827481865882874,2,3,3,2,-10.45,-3.7,2.62,-0.11,1.19,-11.49
3.83748185634613,2,3,3,2,-11.08,-3.64,2.16,-1.62,-0.31,-6.98
3.847481846809387,2,3,3,2,-12.89,-3.06,2.15,-1.88,-1.44,-2.61
3.857481837272644,2,3,3,2,-14.32,-2.55,1.5,-0.66,-1.51,0.83
3.867481827735901,2,3,3,2,-15.15,-0.12,1.63,1.66,-0.32,2
3.877482056617737,2,3,3,2,-14.86,0.34,1.95,3.29,1.22,1.67
3.887482047080994,2,3,3,2,-14.77,0.16,2.77,3.66,2.17,0.4
3.89748203754425,2,3,3,2,-14.56,-0.67,3.09,2.69,2.08,-0.39
3.907482028007507,2,3,3,2,-14.56,-0.67,3.09,1.13,1.17,-0.13
3.917482018470764,2,3,3,2,-15.56,-2.46,2.87,0.09,0.29,0.89
3.927482008934021,2,3,3,2,-17.56,-2.42,2.77,0.2,-0.33,2.11
3.937481999397278,2,3,3,2,-18.46,-2.76,3.1,1.11,-0.45,2.99
3.947481989860535,2,3,3,2,-20.09,-3.57,3.52,1.68,-0.9399999999999999,3.43
3.957481980323792,2,3,3,2,-20.83,-3.09,3.49,1.43,-1.9,3.78
3.967481970787048,2,3,3,2,-21.87,-2.8,3.33,1.26,-2.32,4.41
3.977481961250305,2,3,3,2,-23.36,-2.81,3.99,1.63,-2.99,5.6
4.007481932640076,2,3,3,2,-25.67,-2.32,4.88,2.59,-2.74,10.02
4.017481923103333,2,3,3,2,-25.67,-2.32,4.88,2.5,-2.41,11.87
4.027481913566589,2,3,3,2,-28.91,-1.7,5.22,2.26,-1.97,13.15
4.037481904029846,2,3,3,2,-30.13,-1.93,5.15,2.26,-0.4,12.24
4.047481894493103,2,3,3,2,-31.44,-3.04,5.16,2.46,2.7,9.779999999999999
4.05748188495636,2,3,3,2,-31.44,-3.04,5.16,2.51,5.46,7.47
4.067481875419617,2,3,3,2,-29.01,-8.199999999999999,5.11,3.33,7.66,5.37
4.077481865882874,2,3,3,2,-23.27,-9.83,2.53,5.58,9.880000000000001,3.36
4.097481846809387,2,3,3,2,-12.49,-8.15,0.12,8.24,11.74,-2.88
4.107481837272644,2,3,3,2,-9.23,-6.19,0.04,7.98,11.25,-7.44
4.117481827735901,2,3,3,2,-5,-3.88,0.32,5.99,10.65,-10.7
4.127482056617737,2,3,3,2,-1.02,-3.6,0.36,3.07,10.35,-12.11
4.137482047080994,2,3,3,2,6.58,-6.9,1.24,0.99,10.47,-11.5
4.14748203754425,2,3,3,2,9.380000000000001,-8.48,0,0.44,9.380000000000001,-9.869999999999999
4.157482028007507,2,3,3,2,10.4,-9.619999999999999,-0.8100000000000001,0.58,9,-8.77
4.167482018470764,2,3,3,2,10.4,-9.619999999999999,-0.8100000000000001,3.14,7.14,-7.08
4.177482008934021,2,3,3,2,5.6,-4.45,-0.59,6.24,4.63,-2.74
4.187481999397278,2,3,3,2,2.27,-3.08,1.04,8.4,3.11,2.19
4.198481917381287,2,3,3,2,0.21,-1.11,1.94,10.14,-0.08,6.39
4.207481980323792,2,3,3,2,0.21,-1.11,1.94,8.869999999999999,-3.31,10.28
4.217481970787048,2,3,3,2,-2.71,2.41,1.37,6.57,-4.32,12.3
4.227481961250305,2,3,3,2,-3.19,4.35,0.7,4.65,-3.08,12.03
4.238481879234314,2,3,3,2,-3.02,4.49,0.85,2.7,-0.65,9.890000000000001
4.248481869697571,2,3,3,2,-1.39,2.77,0.67,-0.09,0.59,6.81
4.258481860160828,2,3,3,2,-1.07,1.34,0.29,-3.01,1.41,3.3
4.268481850624084,2,3,3,2,-1.48,0.44,-0.22,-5.02,2.11,0.54
4.278481841087341,2,3,3,2,-1.25,-0.45,-0.73,-5.95,1.9,-1.09
4.288481831550598,2,3,3,2,-0.29,-1.39,-0.66,-5.57,0.82,-1.74
4.298482060432434,2,3,3,2,0.39,-1.75,-0.49,-4.28,-0.46,-1.96
4.308482050895691,2,3,3,2,0.76,-1.9,-0.22,-2.34,-1.23,-2.31
4.318482041358948,2,3,3,2,0.76,-1.9,-0.22,-2.34,-1.23,-2.31
4.328482031822205,2,3,3,2,1.52,0.27,-0.42,0.8,-1.58,-2.17
4.338482022285461,2,3,3,2,1.66,0.95,-0.49,1.92,-1.34,-1.45
4.348482012748718,2,3,3,2,1.64,1.11,-0.35,2.96,-0.65,-0.82
4.358482003211975,2,3,3,2,1.64,1.11,-0.35,2.96,-0.65,-0.82
4.368481993675232,2,3,3,2,1.54,1.03,-0.08,2.19,0.43,-0.42
4.378481984138489,2,3,3,2,0.59,0.25,-0.18,0.86,0.15,-0.04
4.388481974601746,2,3,3,2,0,-0.03,-0.21,-0.37,-0.24,0.41
4.398481965065002,2,3,3,2,-0.61,-0.54,-0.27,-1.01,-0.6,0.78
4.428481936454773,2,3,3,2,-0.29,-0.13,-0.17,0.25,-1.19,0.26
4.43848192691803,2,3,3,2,0.03,0.45,0.26,1.17,-1.37,-0.09
4.448481917381287,2,3,3,2,-0.28,0.79,0.24,1.73,-1.2,-0.3
4.458481907844543,2,3,3,2,-0.28,0.79,0.24,1.93,-1.08,-0.37
4.4684818983078,2,3,3,2,-0.24,0.6899999999999999,0.24,1.45,-1.38,-0.39
4.478481888771057,2,3,3,2,-0.39,-1.01,0.18,0.14,-1.94,-0.33
4.488481879234314,2,3,3,2,-0.23,-1.88,-0.11,-0.98,-2.35,-0.05
4.498481869697571,2,3,3,2,0.02,-2.24,-0.51,-1.29,-2.78,0.47
4.508481860160828,2,3,3,2,0.02,-2.24,-0.51,-1.29,-2.78,0.47
4.518481850624084,2,3,3,2,0.18,-2.3,-0.59,-0.92,-2.6,1.08
4.528481841087341,2,3,3,2,1.33,-3.29,1.91,0.22,-1.64,2.84
4.538481831550598,2,3,3,2,0.47,-7.01,4.02,2.05,-1.25,4.64
4.548482060432434,2,3,3,2,-3.45,-8.32,1.69,4.61,-3.27,8.4
4.558482050895691,2,3,3,2,-3.45,-8.32,1.69,4.61,-3.27,8.4
4.568482041358948,2,3,3,2,-18.15,-6.06,4.64,-0.3,-8.609999999999999,13.14
4.578482031822205,2,3,3,2,-35.22,-7.14,2.54,-0.59,-17.61,21.24
4.588482022285461,2,3,3,2,-39.07,-11.6,10.38,-0.53,-1.57,18.65
4.598482012748718,2,3,3,2,-36.47,-16.39,4.79,-0.66,9.6,8.33
4.608482003211975,2,3,3,2,-36.47,-16.39,4.79,-0.66,9.6,8.33
4.618481993675232,2,3,3,2,-32.73,-11.53,-4.64,0.1,12.88,-3.99
4.628481984138489,2,3,3,2,-39.07,7.61,-2.45,8.529999999999999,-5.07,35.28
4.638481974601746,2,3,3,2,-27.68,5.08,2.2,10.79,-1.36,23.84
4.648481965065002,2,3,3,2,-22.41,8.220000000000001,2.85,17.11,5.79,3.71
4.658481955528259,2,3,3,2,-22.41,8.220000000000001,2.85,17.11,5.79,3.71
4.668481945991516,2,3,3,2,-20.97,6.05,3.29,15.39,3.73,-1.08
4.678481936454773,2,3,3,2,-14.92,4.7,5.13,8.890000000000001,-1.58,-4.2
4.68848192691803,2,3,3,2,-15.06,3.37,4.86,4.56,-3.4,-4.08
4.698481917381287,2,3,3,2,-14.97,1.95,4.8,0.95,-4.34,-3.37
4.708481907844543,2,3,3,2,-14.97,1.95,4.8,0.95,-4.34,-3.37
4.7184818983078,2,3,3,2,-15.44,-1.8,3.74,-1.33,-3.76,-3.58
4.728481888771057,2,3,3,2,-15.28,-2.3,1.25,-2.42,2.21,-9.01
4.738481879234314,2,3,3,2,-13.61,-2.81,0.66,-0.74,4.93,-11.35
4.748481869697571,2,3,3,2,-9.029999999999999,-3.08,0.66,0.86,5.62,-12.09
4.758481860160828,2,3,3,2,-9.029999999999999,-3.08,0.66,0.86,5.62,-12.09
4.768481850624084,2,3,3,2,-6.59,-2.67,0.97,1.62,4.59,-11.68
4.778481841087341,2,3,3,2,-4.59,-1.05,1.08,3.15,4.33,-8.890000000000001
4.788481831550598,2,3,3,2,-4.79,0.45,1.68,3.33,3.98,-7.09
4.798482060432434,2,3,3,2,-5.65,0.73,1.76,2.42,3.19,-4.82
4.808482050895691,2,3,3,2,-5.65,0.73,1.76,2.42,3.19,-4.82
4.818482041358948,2,3,3,2,-6.49,0.55,1.56,0.21,1.65,-3.43
4.828482031822205,2,3,3,2,-7.1,-0.04,0.77,-4.33,-1.62,-1.83
4.838482022285461,2,3,3,2,-7.1,-0.04,0.77,-5.89,-2.55,-1.04
4.848482012748718,2,3,3,2,-6.87,-0.23,0.82,-6.64,-2.4,-0.88
4.858482003211975,2,3,3,2,-6.64,-0.53,0.87,-6.64,-2.4,-0.88
4.868481993675232,2,3,3,2,-5.93,-0.95,0.86,-6.84,-1.63,-1.16
4.878481984138489,2,3,3,2,-6.16,-1.22,0.93,-6.3,0.47,-1.83
4.888481974601746,2,3,3,2,-6.7,-1.63,0.98,-5.68,1.67,-2.22
4.898481965065002,2,3,3,2,-7.27,-1.94,1.15,-5.17,2.16,-2.59
4.908481955528259,2,3,3,2,-7.67,-2.36,1.17,-5.17,2.16,-2.59
4.918481945991516,2,3,3,2,-7.85,-2.55,1.37,-4.82,2.55,-2.27
4.928481936454773,2,3,3,2,-8.039999999999999,-2.8,1.52,-4.84,2.07,-0.88
4.93848192691803,2,3,3,2,-8.210000000000001,-2.66,1.39,-5.11,1.82,0.08
4.948481917381287,2,3,3,2,-8.93,-2.77,1.53,-4.78,1.27,0.96
4.958481907844543,2,3,3,2,-9.16,-2.85,1.54,-4.78,1.27,0.96
4.9684818983078,2,3,3,2,-9.16,-2.67,1.4,-4.7,0.38,1.13
4.978481888771057,2,3,3,2,-9.16,-2.42,1.28,-3.51,0.53,0.83
4.988481879234314,2,3,3,2,-9.050000000000001,-2.09,0.95,-2.65,1.06,0.85
4.998481869697571,2,3,3,2,-8.970000000000001,-1.92,0.86,-2.16,1.38,1.08
5.008481860160828,2,3,3,2,-9.119999999999999,-1.68,0.89,-2.16,1.38,1.08
5.018481850624084,2,3,3,2,-9.5,-1.23,0.82,-1.68,1.46,1.39
5.028481841087341,2,3,3,2,-9.74,-1.06,0.95,-1.27,1.71,2.38
5.038481831550598,2,3,3,2,-9.949999999999999,-1.07,0.96,-1.66,1.61,2.6
5.048482060432434,2,3,3,2,-9.99,-1.17,1.02,-2.01,1.51,2.54
5.058482050895691,2,3,3,2,-9.93,-1.43,0.88,-2.01,1.51,2.54
5.068482041358948,2,3,3,2,-9.869999999999999,-1.57,0.91,-2.11,1.31,2.16
5.078482031822205,2,3,3,2,-9.869999999999999,-1.62,1.11,-2.18,0.6,1.13
5.088482022285461,2,3,3,2,-9.720000000000001,-1.56,0.91,-2.44,0.41,0.73
5.098482012748718,2,3,3,2,-9.58,-1.23,0.49,-2.28,0.41,0.48
5.108482003211975,2,3,3,2,-9.48,-1.15,0.41,-2.28,0.41,0.48
5.118481993675232,2,3,3,2,-9.4,-1.22,0.5600000000000001,-1.91,0.58,0.29
5.128481984138489,2,3,3,2,-9.369999999999999,-1.33,0.65,-1.1,1.07,0.24
5.138481974601746,2,3,3,2,-9.699999999999999,-1.43,0.37,-0.87,1.2,0.31
5.148481965065002,2,3,3,2,-9.869999999999999,-1.39,0.33,-0.68,1.08,0.27
5.158481955528259,2,3,3,2,-10.05,-1.36,0.4,-0.68,1.08,0.27
5.168481945991516,2,3,3,2,-10.11,-1.53,0.53,-0.64,0.71,0.08
5.178481936454773,2,3,3,2,-10.02,-1.93,0.5600000000000001,-1.1,-0.62,-0.6
5.18848192691803,2,3,3,2,-9.76,-1.95,0.25,-1.31,-1.04,-0.74
5.198481917381287,2,3,3,2,-9.529999999999999,-1.88,0.23,-1.05,-1.12,-0.59
5.208481907844543,2,3,3,2,-9.19,-1.81,0.83,-1.05,-1.12,-0.59
5.2184818983078,2,3,3,2,-9.16,-1.74,0.92,-0.8,-1.16,-0.36
5.228481888771057,2,3,3,2,-9.35,-1.74,0.92,-0.86,-1.05,0.38
5.238481879234314,2,3,3,2,-9.550000000000001,-1.75,0.82,-0.74,-1.32,0.6899999999999999
5.248481869697571,2,3,3,2,-9.65,-1.57,0.53,-0.39,-0.89,0.91
5.259482026100159,2,3,3,2,-9.68,-1.52,0.65,-0.39,-0.89,0.91
5.269482016563416,2,3,3,2,-9.789999999999999,-1.4,0.71,-0.14,-0.37,0.86
5.279482007026672,2,3,3,2,-9.890000000000001,-1.37,0.66,0.13,0.54,0.29
5.289481997489929,2,3,3,2,-9.93,-1.3,0.71,0.27,0.87,-0.05
5.299481987953186,2,3,3,2,-9.960000000000001,-1.22,0.87,0.25,0.77,-0.31
5.309481978416443,2,3,3,2,-9.98,-1.16,0.83,0.25,0.77,-0.31
5.3194819688797,2,3,3,2,-9.98,-1.12,0.63,-0.09,0.54,-0.55
5.329481959342957,2,3,3,2,-9.869999999999999,-1.16,0.73,-0.32,0.26,-1.01
5.339481949806213,2,3,3,2,-9.81,-1.37,0.73,-0.88,-0.07000000000000001,-1.23
5.34948194026947,2,3,3,2,-9.85,-1.51,0.59,-1.8,-0.34,-1.48
5.359481930732727,2,3,3,2,-9.890000000000001,-1.59,0.32,-1.8,-0.34,-1.48
5.369481921195984,2,3,3,2,-9.52,-1.79,-0.05,-2.14,-0.37,-1.79
5.379481911659241,2,3,3,2,-9.369999999999999,-1.99,0.16,-1.52,0.57,-2.18
5.389481902122498,2,3,3,2,-9.300000000000001,-2.16,0.37,-1.58,0.62,-2.2
5.399481892585754,2,3,3,2,-9.359999999999999,-2.16,0.39,-1.45,0.31,-2.08
5.409481883049011,2,3,3,2,-9.31,-2.12,0.36,-1.45,0.31,-2.08
5.419481873512268,2,3,3,2,-9.279999999999999,-2.07,0.46,-1.23,0.39,-1.8
5.429481863975525,2,3,3,2,-9.24,-1.98,0.5,-0.78,0.89,-1.31
5.439481854438782,2,3,3,2,-9.359999999999999,-1.99,0.33,-0.49,1.08,-1
5.449481844902039,2,3,3,2,-9.49,-2.06,0.47,-0.48,1.09,-0.76
5.459481835365295,2,3,3,2,-9.539999999999999,-2.16,0.51,-0.48,1.09,-0.76
5.469481825828552,2,3,3,2,-9.550000000000001,-2.26,0.53,-0.58,0.93,-0.5
5.479482054710388,2,3,3,2,-9.5,-2.29,0.44,-0.57,0.74,-0.45
5.489482045173645,2,3,3,2,-9.4,-2.12,0.25,-0.5,0.76,-0.38
5.499482035636902,2,3,3,2,-9.460000000000001,-2.04,0.28,-0.18,0.79,-0.19
5.509482026100159,2,3,3,2,-9.41,-2.04,0.28,-0.18,0.79,-0.19
5.519482016563416,2,3,3,2,-9.609999999999999,-1.76,0.29,-0.04,0.77,-0.08
5.529482007026672,2,3,3,2,-9.699999999999999,-1.75,0.33,0.09,0.83,-0.01
5.539481997489929,2,3,3,2,-9.800000000000001,-1.77,0.21,-0.04,0.78,-0.11
5.549481987953186,2,3,3,2,-9.73,-1.84,0.32,-0.21,0.88,-0.24
5.559481978416443,2,3,3,2,-9.65,-1.93,0.37,-0.21,0.88,-0.24
5.5694819688797,2,3,3,2,-9.550000000000001,-1.93,0.31,-0.39,0.83,-0.49
5.579481959342957,2,3,3,2,-9.529999999999999,-2,0.36,-0.54,0.71,-0.67
5.589481949806213,2,3,3,2,-9.51,-2.08,0.36,-0.85,0.39,-0.77
5.59948194026947,2,3,3,2,-9.460000000000001,-1.93,0.3,-0.87,0.12,-0.83
5.609481930732727,2,3,3,2,-9.48,-2.07,0.42,-0.87,0.12,-0.83
5.619481921195984,2,3,3,2,-9.550000000000001,-2.17,0.38,-0.73,-0.04,-0.8100000000000001
5.629481911659241,2,3,3,2,-9.52,-2.47,0.33,-0.5600000000000001,-0.32,-0.64
5.639481902122498,2,3,3,2,-9.449999999999999,-2.49,0.24,-0.42,-0.3,-0.5
5.649481892585754,2,3,3,2,-9.41,-2.58,0.43,-0.2,-0.3,-0.37
5.659481883049011,2,3,3,2,-9.42,-2.54,0.71,-0.2,-0.3,-0.37
5.669481873512268,2,3,3,2,-9.08,-2.21,0.29,0.1,-0.7,-0.3
5.679481863975525,2,3,3,2,-9.02,-2.11,0.27,0.23,-0.17,-0.45
5.689481854438782,2,3,3,2,-8.970000000000001,-2.01,0.35,0.18,0.16,-0.55
5.699481844902039,2,3,3,2,-9.029999999999999,-2.02,0.48,0.05,0.33,-0.5
5.709481835365295,2,3,3,2,-9.210000000000001,-2.49,0.55,0.05,0.33,-0.5
5.719481825828552,2,3,3,2,-9.23,-2.72,0.66,-0.01,0.4,-0.44
5.729482054710388,2,3,3,2,-9.16,-2.94,0.71,0.27,0.77,-0.02
5.739482045173645,2,3,3,2,-9.039999999999999,-3.09,0.58,0.49,1.03,0.31
5.749482035636902,2,3,3,2,-8.779999999999999,-3.07,0.37,0.6,1.35,0.63
5.759482026100159,2,3,3,2,-8.779999999999999,-3.02,0.37,0.6,1.35,0.63
5.769482016563416,2,3,3,2,-8.76,-3.14,0.58,0.84,1.62,0.96
5.779482007026672,2,3,3,2,-8.58,-3.35,0.65,0.3,0.66,0.49
5.789481997489929,2,3,3,2,-8.09,-3.59,0.31,-0.43,0.24,-0.19
5.799481987953186,2,3,3,2,-7.68,-3.59,0.22,-1.03,-0.66,-1.17
5.809481978416443,2,3,3,2,-7.17,-3.49,-0.03,-1.03,-0.66,-1.17
5.8194819688797,2,3,3,2,-6.06,-2.99,-0.31,-1.55,-1.38,-2.03
5.829481959342957,2,3,3,2,-5.9,-2.95,-0.18,-2.36,-1.95,-2.71
5.839481949806213,2,3,3,2,-5.67,-3.23,0.04,-2.95,-3.62,-2.4
5.84948194026947,2,3,3,2,-5.65,-3.32,0.15,-4.23,-5.86,-1.84
5.859481930732727,2,3,3,2,-4.71,-2.57,-1.11,-4.23,-5.86,-1.84
5.869481921195984,2,3,3,2,-4.06,-1.58,-1.48,-5.01,-6.54,-0.96
5.879481911659241,2,3,3,2,-4.26,-1.36,-0.7,-0.28,-5.06,1.77
5.889481902122498,2,3,3,2,-4.94,-2.06,0.66,-0.48,-5.82,2.38
5.899481892585754,2,3,3,2,-5.87,-2.83,0.97,-1.92,-6.5,2.36
5.909481883049011,2,3,3,2,-6.23,-2.44,0.33,-1.92,-6.5,2.36
5.919481873512268,2,3,3,2,-7.47,-2.52,0.74,-0.63,-5.25,2.31
5.929481863975525,2,3,3,2,-8.880000000000001,-2.81,1.36,1.91,-4.95,2.82
5.939481854438782,2,3,3,2,-10.52,-2.24,1.54,-0.06,-6.42,2.22
5.949481844902039,2,3,3,2,-10.13,-1.33,0.23,-0.78,-7.1,0.82
5.959481835365295,2,3,3,2,-9.66,-0.68,-1.03,-0.78,-7.1,0.82
5.969481825828552,2,3,3,2,-9.41,-0.6,0.12,1.05,-5.32,-1.42
5.979482054710388,2,3,3,2,-8.93,-0.93,0.18,1.66,-2.43,-7.07
5.989482045173645,2,3,3,2,-8.77,-0.96,-0.15,1.4,-1.63,-8.92
5.999482035636902,2,3,3,2,-8.49,-1.02,0.12,1.73,-0.91,-9.75
6.009482026100159,2,3,3,2,-8.41,-2.33,1.3,1.73,-0.91,-9.75
6.019482016563416,2,3,3,2,-9.31,-2.58,1.48,1.72,-0.87,-9.41
6.029482007026672,2,3,3,2,-10.15,-2.22,1.52,0.32,-2.81,-5.17
6.039481997489929,2,3,3,2,-10.6,-2.15,1.49,0.31,-4.22,-2.66
6.049481987953186,2,3,3,2,-10.46,-1.54,1.62,0.31,-4.89,-0.85
6.059481978416443,2,3,3,2,-10.37,-1.06,1.56,0.31,-4.89,-0.85
6.0694819688797,2,3,3,3,-10.59,-0.85,1.72,0.07000000000000001,-4.15,-0.53
6.079481959342957,2,3,3,3,-10.89,-0.74,1.86,0.41,-1.38,-2.17
6.089481949806213,2,3,3,3,-12.35,-0.97,1.9,0.58,-0.57,-3.31
6.09948194026947,2,3,3,3,-12.7,-1.44,2.07,0.41,-0.33,-3.71
6.109481930732727,2,3,3,3,-12.79,-1.86,2.08,0.41,-0.33,-3.71
6.119481921195984,2,3,3,3,-12.59,-1.84,1.93,0.24,-0.53,-2.97
6.129481911659241,2,3,3,3,-11.98,-1.47,2.17,0.31,-1,-1.62
6.139481902122498,2,3,3,3,-12.1,-1.1,2.13,0.45,-1.41,-0.37
6.149481892585754,2,3,3,3,-12.1,-0.67,2.17,0.27,-1.56,0.06
6.159481883049011,2,3,3,3,-11.98,-0.36,2.35,-0.18,-1.42,0
6.169481873512268,2,3,3,3,-12.19,-1.08,2.73,-0.65,-0.89,-0.24
6.199481844902039,2,3,3,3,-13.39,-1.46,2.51,-1.64,-1.04,0.26
6.209481835365295,2,3,3,3,-13.78,-1.91,2.57,-1.28,-1.02,1.13
6.259482026100159,2,3,3,3,-16.23,-2.87,2.5,0.78,-1.27,1.3
6.269482016563416,2,3,3,3,-16.04,-3.02,2.68,1.6,-0.51,1.35
6.279482007026672,2,3,3,3,-16.74,-2.35,3,1.56,0.76,1.28
6.290481925010681,2,3,3,3,-17.66,-2.28,3.13,1.43,1.46,1.24
6.300481915473938,2,3,3,3,-18.75,-2.57,3.25,0.9,1.73,1.46
6.310481905937195,2,3,3,3,-19.63,-2.67,3.03,1.26,1.38,2.3
6.320481896400452,2,3,3,3,-21.28,-1.25,2.83,1.89,1.77,3.6
6.330481886863708,2,3,3,3,-22.26,-0.76,2.96,2.84,2.05,5.32
6.340481877326965,2,3,3,3,-23.61,-0.46,3.6,3.59,1.91,7.12
6.350481867790222,2,3,3,3,-24.85,-0.49,4.4,3.77,1.77,8.609999999999999
6.360481858253479,2,3,3,3,-27.88,-0.66,5.17,3.45,2.11,9.539999999999999
6.410482048988342,2,3,3,3,-21.3,-8.98,2.1,4.83,9.1,-1.88
6.420482039451599,2,3,3,3,-18.58,-8.49,1.58,7.3,10.69,-6.09
6.430482029914856,2,3,3,3,-11.55,-5.99,1.17,8.82,11.23,-9.380000000000001
6.440482020378113,2,3,3,3,-8.220000000000001,-4.47,0.13,8.82,10.96,-11.93
6.45048201084137,2,3,3,3,-5.09,-2.84,-0.77,7.06,10.92,-13.42
6.460482001304626,2,3,3,3,-1.35,-2.51,0.41,4.5,10.85,-13.66
6.470481991767883,2,3,3,3,5.68,-5.81,1.18,4.17,10.95,-14.13
6.48048198223114,2,3,3,3,7.6,-7.75,0.86,4.5,10.12,-14.25
6.490481972694397,2,3,3,3,9.109999999999999,-8.43,0.5600000000000001,4.02,7.28,-13.67
6.500481963157654,2,3,3,3,9.130000000000001,-7.04,0.6,3.2,4.54,-11.44
6.510481953620911,2,3,3,3,5.75,-2.2,0.17,2.15,1.37,-6.28
6.520481944084167,2,3,3,2,2.89,-1.48,-0.24,0.99,0.24,-0.7
6.530481934547424,2,3,3,2,1.6,-0.68,-0.65,-0.9,-1.29,4.71
6.540481925010681,2,3,3,2,0.53,-0.19,-0.97,-3.6,-3.05,9.6
6.550481915473938,2,3,3,2,-1.84,0.76,-0.49,-4.5,-3.07,11.62
6.560481905937195,2,3,3,2,-2.71,1.12,-0.22,-4.03,-2.09,11.24
6.570481896400452,2,3,3,2,-3.01,0.71,0.09,-2.75,-1.29,9.42
6.580481886863708,2,3,3,2,-3.22,0.36,0.26,-1.27,-0.44,6.42
6.590481877326965,2,3,3,2,-2.15,0.6899999999999999,0.44,-0.13,0.25,3.19
6.600481867790222,2,3,3,2,-1.5,0.19,0.49,0.54,0.95,0.83
6.610481858253479,2,3,3,2,-1.05,-0.03,0.3,0.8100000000000001,1.21,-0.44
6.620481848716736,2,3,3,2,0.08,-0.3,0.07000000000000001,1.01,0.8100000000000001,-1.23
6.630481839179993,2,3,3,2,0.6,-0.43,0,1.24,-0.23,-1.91
6.64048182964325,2,3,3,2,0.91,-0.45,-0.32,1.1,-1.4,-2.54
6.650482058525085,2,3,3,2,0.95,-0.31,-0.59,0.45,-2.19,-2.8
6.660482048988342,2,3,3,2,1.04,-0.3,-0.68,0.03,-2.55,-2.64
6.670482039451599,2,3,3,2,0.99,-0.38,-0.49,-0.45,-2.43,-2.18
6.680482029914856,2,3,3,2,0.91,-0.32,-0.02,-0.7,-2.02,-1.34
6.690482020378113,2,3,3,2,0.61,-0.42,-0.11,-0.85,-1.84,-0.89
6.70048201084137,2,3,3,2,0.48,-0.32,-0.26,-1.22,-1.7,-0.7
6.710482001304626,2,3,3,2,0.55,-0.39,-0.13,-0.97,-1.31,-0.41
6.720481991767883,2,3,3,2,0.38,-0.42,-0.04,-0.22,-0.93,0.04
6.73048198223114,2,3,3,2,0.31,-0.46,-0.01,0.42,-0.97,0.52
6.740481972694397,2,3,3,2,-0.13,-0.38,0.06,0.74,-1.17,0.67
6.750481963157654,2,3,3,2,-0.18,-0.16,-0.14,0.79,-1.61,0.61
6.760481953620911,2,3,3,2,-0.17,0,-0.19,1.03,-1.99,0.59
6.770481944084167,2,3,3,2,-0.23,-0.05,-0.2,1.7,-1.89,0.46
6.780481934547424,2,3,3,2,-0.59,0.06,0.03,2.24,-1.42,0.17
6.790481925010681,2,3,3,2,-0.59,0.01,-0.19,2.07,-1.26,-0.12
6.800481915473938,2,3,3,2,-0.5,-0.18,-0.38,1.36,-1.34,-0.36
6.810481905937195,2,3,3,2,-0.18,-1.14,-0.01,1.04,-1.28,-0.4
6.820481896400452,2,3,3,2,0.35,-1.65,0.13,1.04,-1.62,-0.36
6.830481886863708,2,3,3,2,0.9,-2.23,0.28,0.99,-1.85,-0.42
6.840481877326965,2,3,3,2,1.5,-2.61,0.14,1,-1.71,-0.55
6.850481867790222,2,3,3,2,2.13,-2.87,0.06,1.13,-1.34,-0.71
6.860481858253479,2,3,3,2,2.57,-2.75,1.39,2.05,-0.29,-0.6
6.870481848716736,2,3,3,2,1.69,-6,4.45,3.93,1.15,0.47
6.880481839179993,2,3,3,2,-3.01,-8.390000000000001,1.36,8.07,0.55,4.44
6.89048182964325,2,3,3,2,-15.77,-7.03,4.31,2.41,-6.57,10.37
6.900482058525085,2,3,3,2,-20.63,-7.73,2.38,-0.73,-11.25,16.61
6.910482048988342,2,3,3,2,-30.9,-5.3,3.75,-1.04,-18.56,19.96
6.920482039451599,2,3,3,2,-36.58,-1.84,8.4,-1.92,-5.77,20.76
6.930482029914856,2,3,3,2,-39.07,-14.9,6.55,-2.27,5.16,19.05
6.940482020378113,2,3,3,2,-37.33,-8.52,-2.25,-2.29,15.94,3.06
6.95048201084137,2,3,3,2,-31.52,-4.25,-4.1,-3.28,13.91,-0.97
6.960482001304626,2,3,3,2,-5.17,-12.69,-1.82,5.74,7.2,14.67
6.970481991767883,2,3,3,2,-39.07,14.83,-2.11,4.97,-8.82,44.98
6.98048198223114,2,3,3,2,-28.36,6.58,3.75,4.2,-1.23,21.71
6.990481972694397,2,3,3,2,-22.26,7.15,2.47,4.84,5.86,3.84
7.000481963157654,2,3,3,2,-19.1,3.96,2.34,2.52,2.59,-2.4
7.010481953620911,2,3,3,2,-15.36,1.13,2.72,-0.17,-0.67,-5.2
7.020481944084167,2,3,3,2,-15.64,-0.2,2.74,-3.34,-2.55,-4.73
7.030481934547424,2,3,3,2,-16.04,-0.87,2.89,-4.52,-3.11,-3.63
7.040481925010681,2,3,3,2,-17.33,-1.98,2.98,-3.97,-2.67,-3.83
7.050481915473938,2,3,3,2,-16.52,-2.77,2.29,-3.03,0.14,-6.6
7.060481905937195,2,3,3,2,-14.59,-4.24,1.6,-2.28,4.11,-10.75
7.070481896400452,2,3,3,2,-12.35,-4.74,0.5600000000000001,-1.06,5.89,-13.21
7.080481886863708,2,3,3,2,-9.32,-4.34,-0.09,0.27,6.64,-13.5
7.090481877326965,2,3,3,2,-8.42,-3.63,-0.5,1.83,6.07,-12.28
7.130481839179993,2,3,3,2,-4.78,0.52,0.31,3.7,4.94,-2.9
7.14048182964325,2,3,3,2,-4.87,0.46,0.13,2.68,4.72,-1.95
7.150482058525085,2,3,3,2,-4.94,0,0.31,1.67,3.99,-1.55
7.160482048988342,2,3,3,2,-5.56,-0.75,0.36,0.67,3.37,-1.32
7.170482039451599,2,3,3,2,-5.79,-0.89,0.45,-0.42,2.5,-0.98
7.180482029914856,2,3,3,2,-6.09,-0.98,0.49,-1.21,1.62,-0.58
7.190482020378113,2,3,3,2,-6.47,-0.95,0.29,-1.86,1.13,-0.42
7.20048201084137,2,3,3,2,-6.15,-1.24,0.34,-2.09,0.63,-0.64
7.210482001304626,2,3,3,2,-6.19,-1.51,0.3,-2.27,0.5600000000000001,-0.95
7.220481991767883,2,3,3,2,-6.27,-1.64,0.05,-2.54,0.44,-1.21
7.23048198223114,2,3,3,2,-7,-1.94,-0.25,-2.8,0.48,-1.29
7.240481972694397,2,3,3,2,-7.43,-2.27,-0.3,-2.99,0.41,-1.13
7.250481963157654,2,3,3,2,-7.94,-2.43,-0.33,-3.03,0.09,-0.9
7.260481953620911,2,3,3,2,-8.41,-2.52,-0.32,-3.3,-0.75,-0.61
7.270481944084167,2,3,3,2,-9.15,-2.93,-0.55,-3.61,-1.75,-0.4
7.280481934547424,2,3,3,2,-9.68,-2.93,-0.24,-4.1,-2.49,-0.11
7.290481925010681,2,3,3,2,-9.69,-2.92,-0.35,-4.68,-2.98,0.21
7.300481915473938,2,3,3,2,-9.67,-2.92,-0.16,-4.78,-3.11,0.32
7.311481833457947,2,3,3,2,-9.23,-2.58,0.82,-4.49,-2.36,0.27
7.321481823921204,2,3,3,2,-9.06,-2.16,1.13,-4.07,-1.68,0.37
7.33148205280304,2,3,3,2,-9.19,-1.87,1.31,-3.79,-0.9399999999999999,0.78
7.341482043266296,2,3,3,2,-9.69,-1.83,1.2,-3.38,-0.29,1.39
7.351482033729553,2,3,3,2,-10.79,-1.97,0.99,-3.3,-0.24,2.06
7.36148202419281,2,3,3,2,-11.16,-2.04,0.78,-3.11,-0.62,2.76
7.371482014656067,2,3,3,2,-11.46,-1.88,0.62,-2.92,-0.76,3.14
7.381482005119324,2,3,3,2,-11.51,-1.72,0.39,-2.47,-0.88,3.14
7.391481995582581,2,3,3,2,-10.8,-1.54,0,-2.03,-0.96,2.7
7.401481986045837,2,3,3,2,-10.22,-1.36,-0.09,-1.71,-0.7,1.95
7.411481976509094,2,3,3,2,-9.85,-1.17,-0.04,-1.75,-0.14,1.06
7.421481966972351,2,3,3,2,-9.15,-1.18,0.05,-1.85,0.41,0.16
7.431481957435608,2,3,3,2,-9.15,-1.3,0.09,-2.09,0.98,-0.65
7.441481947898865,2,3,3,2,-9.18,-1.53,0.13,-2.18,1.46,-1.12
7.451481938362122,2,3,3,2,-9.289999999999999,-1.66,0.28,-2.13,1.75,-1.37
7.461481928825378,2,3,3,2,-9.289999999999999,-2.05,0.49,-1.97,1.77,-1.35
7.471481919288635,2,3,3,2,-9.34,-2.23,0.58,-1.64,1.82,-1.37
7.481481909751892,2,3,3,2,-9.42,-2.41,0.55,-1.14,1.7,-1.3
7.491481900215149,2,3,3,2,-9.359999999999999,-2.5,0.34,-0.65,1.37,-1.18
7.501481890678406,2,3,3,2,-9.15,-2.44,0.43,-0.24,1.01,-1.17
7.511481881141663,2,3,3,2,-8.98,-2.34,0.48,0.03,0.42,-1.1
7.521481871604919,2,3,3,2,-8.869999999999999,-2.2,0.32,-0.15,-0.33,-0.99
7.531481862068176,2,3,3,2,-8.76,-2.11,0.24,-0.37,-0.67,-0.66
7.541481852531433,2,3,3,2,-8.92,-2.1,0.16,-0.46,-0.59,-0.21
7.55148184299469,2,3,3,2,-9.08,-2.15,0.14,-0.68,-0.44,0.21
7.561481833457947,2,3,3,2,-9.34,-2.29,0.13,-0.78,-0.35,0.61
7.571481823921204,2,3,3,2,-9.550000000000001,-2.3,0.12,-0.71,-0.18,0.97
7.58148205280304,2,3,3,2,-9.94,-2.15,0.1,-0.62,0.06,1.24
7.591482043266296,2,3,3,2,-10.1,-2.05,0.01,-0.39,0.06,1.35
7.601482033729553,2,3,3,2,-10.09,-1.85,0.12,-0.04,0.05,1.26
7.61148202419281,2,3,3,2,-9.880000000000001,-1.52,0.34,0.34,-0.07000000000000001,0.97
7.621482014656067,2,3,3,2,-9.85,-1.44,0.35,0.8,-0.16,0.61
7.631482005119324,2,3,3,2,-9.83,-1.35,0.45,1,-0.1,0.24
7.641481995582581,2,3,3,2,-9.81,-1.36,0.41,1.14,0.04,-0.08
7.651481986045837,2,3,3,2,-9.76,-1.38,0.49,1.02,0.09,-0.24
7.661481976509094,2,3,3,2,-9.74,-1.49,0.39,0.74,0.08,-0.35
7.671481966972351,2,3,3,2,-9.67,-1.67,0.32,0.45,0.13,-0.46
7.681481957435608,2,3,3,2,-9.68,-1.86,0.14,0.14,-0.16,-0.54
7.691481947898865,2,3,3,2,-9.539999999999999,-1.9,0.09,-0.27,-0.87,-0.61
7.701481938362122,2,3,3,2,-9.52,-2,0.13,-0.51,-1.38,-0.6
7.711481928825378,2,3,3,2,-9.44,-2.1,0.1,-0.49,-1.73,-0.48
7.721481919288635,2,3,3,2,-9.279999999999999,-2.14,0.16,-0.66,-2.06,-0.34
7.731481909751892,2,3,3,2,-8.99,-2.29,0.3,-0.97,-2.18,-0.15
7.741481900215149,2,3,3,2,-9.18,-2.26,0.25,-0.71,-2.18,-0.37
7.751481890678406,2,3,3,2,-9.130000000000001,-2.2,0.5,-0.37,-1.45,-0.39
7.761481881141663,2,3,3,2,-9.16,-2.18,0.65,0.23,-0.52,-0.26
7.771481871604919,2,3,3,2,-9.279999999999999,-1.94,0.77,1.03,0.03,-0.1
7.781481862068176,2,3,3,2,-9.460000000000001,-1.82,0.68,1.71,0.76,0.14
7.791481852531433,2,3,3,2,-9.66,-1.72,0.51,2.2,1.57,0.52
7.80148184299469,2,3,3,2,-9.800000000000001,-1.62,0.51,2.49,2.12,0.82
7.811481833457947,2,3,3,2,-9.789999999999999,-1.59,0.61,2.54,2.18,0.92
7.821481823921204,2,3,3,2,-9.800000000000001,-1.64,0.53,2.32,2.05,0.8
7.83148205280304,2,3,3,2,-9.76,-1.57,0.53,1.86,1.84,0.47
7.841482043266296,2,3,3,2,-9.779999999999999,-1.41,0.31,1.23,1.61,0.19
7.851482033729553,2,3,3,2,-9.83,-1.45,0.27,0.68,1.23,-0.01
7.86148202419281,2,3,3,2,-9.81,-1.44,0.24,0.28,0.9399999999999999,-0.22
7.871482014656067,2,3,3,2,-9.720000000000001,-1.42,0.28,0.02,0.58,-0.47
7.881482005119324,2,3,3,2,-9.77,-1.74,0.36,0,0.4,-0.71
7.891481995582581,2,3,3,2,-9.75,-1.84,0.35,-0.04,0.47,-0.86
7.901481986045837,2,3,3,2,-9.710000000000001,-1.89,0.5,-0.14,0.33,-0.9399999999999999
7.911481976509094,2,3,3,2,-9.640000000000001,-2.04,0.58,0.06,0.35,-0.88
7.921481966972351,2,3,3,2,-9.59,-2.2,0.67,0.26,0.44,-0.79
7.931481957435608,2,3,3,2,-9.550000000000001,-2.21,0.63,0.43,0.43,-0.77
7.941481947898865,2,3,3,2,-9.58,-2.2,0.44,0.5600000000000001,0.34,-0.73
7.951481938362122,2,3,3,2,-9.539999999999999,-2.12,0.39,0.7,0.32,-0.6899999999999999
7.961481928825378,2,3,3,2,-9.43,-1.87,0.29,0.53,0.21,-0.66
7.971481919288635,2,3,3,2,-9.42,-1.77,0.44,0.37,0.32,-0.5600000000000001
7.981481909751892,2,3,3,2,-9.41,-1.81,0.44,0.23,0.36,-0.51
7.991481900215149,2,3,3,2,-9.43,-1.9,0.32,0.07000000000000001,0.25,-0.48
8.001481890678406,2,3,3,2,-9.449999999999999,-2.1,0.34,-0.11,0.18,-0.52
8.011481881141663,2,3,3,2,-9.49,-2.09,0.33,-0.24,0.16,-0.5600000000000001
8.021481871604919,2,3,3,2,-9.529999999999999,-2.11,0.41,-0.36,0.12,-0.57
8.031481862068176,2,3,3,2,-9.66,-2.05,0.48,-0.48,0.16,-0.57
8.041481852531433,2,3,3,2,-9.73,-1.98,0.32,-0.66,-0.05,-0.6
8.05148184299469,2,3,3,2,-9.77,-1.91,0.5,-0.63,-0.04,-0.53
8.061481833457947,2,3,3,2,-9.75,-1.9,0.5600000000000001,-0.45,-0.07000000000000001,-0.5
8.071481823921204,2,3,3,2,-9.83,-1.95,0.65,-0.48,-0.17,-0.62
8.08148205280304,2,3,3,2,-9.85,-2.02,0.48,-0.62,-0.3,-0.84
8.091482043266296,2,3,3,2,-9.9,-2.12,0.22,-0.77,-0.71,-1.17
8.101482033729553,2,3,3,2,-9.85,-2.25,0.24,-0.97,-0.88,-1.45
8.11148202419281,2,3,3,2,-9.59,-2.32,0.29,-1.25,-0.91,-1.79
8.121482014656067,2,3,3,2,-9.359999999999999,-2.44,0.41,-1.21,-0.82,-2.06
8.131482005119324,2,3,3,2,-9.199999999999999,-2.61,0.43,-0.86,-0.66,-2.2
8.141481995582581,2,3,3,2,-9.1,-2.58,0.14,-0.74,-0.29,-2.34
8.151481986045837,2,3,3,2,-9.09,-2.41,0.22,-0.63,0.09,-2.32
8.161481976509094,2,3,3,2,-9.16,-2.47,0.18,-0.32,0.34,-2.18
8.171481966972351,2,3,3,2,-9.16,-2.52,0.25,-0.23,0.41,-1.89
8.181481957435608,2,3,3,2,-9.199999999999999,-2.58,0.32,-0.1,0.46,-1.61
8.191481947898865,2,3,3,2,-9.34,-2.6,0.29,-0.07000000000000001,0.31,-1.29
8.201481938362122,2,3,3,2,-9.34,-2.62,0.3,-0.11,-0.2,-1.01
8.211481928825378,2,3,3,2,-9.300000000000001,-2.62,0.33,-0.09,-0.46,-0.74
8.221481919288635,2,3,3,2,-9.130000000000001,-2.53,0.5600000000000001,-0.04,-0.64,-0.61
8.231481909751892,2,3,3,2,-9.1,-2.7,0.63,0.06,-0.67,-0.6
8.241481900215149,2,3,3,2,-9.01,-2.86,0.36,0.17,-0.93,-0.65
8.251481890678406,2,3,3,2,-8.98,-2.88,0.27,-0.13,-1.07,-0.87
8.261481881141663,2,3,3,2,-8.869999999999999,-3.08,0.29,-0.21,-0.9,-0.91
8.271481871604919,2,3,3,2,-8.640000000000001,-3.3,0.26,-0.09,-0.97,-0.97
8.281481862068176,2,3,3,2,-8.289999999999999,-3.41,0.2,-0.05,-0.95,-1.25
8.291481852531433,2,3,3,2,-7.82,-3.52,0.13,0.02,-0.98,-1.78
8.30148184299469,2,3,3,2,-6.62,-3.78,0,-0.03,-1.16,-2.56
8.311481833457947,2,3,3,2,-5.91,-3.8,-0.16,-0.42,-1.58,-3.61
8.321481823921204,2,3,3,2,-5.37,-3.67,-0.22,-0.74,-1.69,-4.59
8.33148205280304,2,3,3,2,-4.8,-3.66,0,-0.48,-1.88,-5.17
8.342481970787048,2,3,3,2,-3.19,-3.25,-0.49,-0.52,-2.86,-5.7
8.352481961250305,2,3,3,2,-2.76,-2.65,-0.47,-1.59,-3.84,-6.13
8.362481951713562,2,3,3,2,-2.64,-2.18,0.2,-1.7,-3.77,-5.68
8.372481942176819,2,3,3,2,-2.75,-2.19,0.54,-1.1,-4.69,-4.66
8.382481932640076,2,3,3,2,-3.55,-2.36,0.4,-1.5,-5.98,-3.7
8.392481923103333,2,3,3,2,-3.65,-2.23,-0.18,-2.58,-7.1,-2.95
8.402481913566589,2,3,3,2,-3.96,-2.12,-0.32,-3.13,-6.97,-2.16
8.412481904029846,2,3,3,2,-5.51,-2.55,-0.36,-2.56,-6.2,-0.61
8.422481894493103,2,3,3,2,-5.54,-3.01,-0.27,-1.44,-6.05,1.04
8.43248188495636,2,3,3,2,-5.59,-3.38,0.3,-0.57,-6.72,1.62
8.442481875419617,2,3,3,2,-6.31,-3.58,0.49,-0.38,-7.33,1.02
8.482481837272644,2,3,3,2,-11.55,-1.92,1.36,2.13,-5.35,-4.59
8.492481827735901,2,3,3,2,-9.949999999999999,-0.32,1,1.46,-4.38,-6.69
8.502482056617737,2,3,3,2,-9.65,-0.67,1.64,1.56,-3.25,-8.449999999999999
8.512482047080994,2,3,3,2,-9.359999999999999,-0.76,1.65,1.02,-2.1,-8.970000000000001
8.52248203754425,2,3,3,2,-8.91,-1.33,1.46,-0.2,-1.97,-8.039999999999999
8.532482028007507,2,3,3,2,-10.44,-3.13,2.05,-0.59,-1.69,-6.62
8.542482018470764,2,3,3,2,-12.22,-4.11,2.27,-1.02,-1.86,-5.23
8.552482008934021,2,3,3,2,-13.47,-4.99,2.85,-0.58,-2.8,-3.37
8.572481989860535,2,3,3,2,-15.87,-1.84,3.15,0.9399999999999999,-2.8,-0.2
8.582481980323792,2,3,3,2,-15.97,-1.19,3.14,2.44,-1,0.36
8.592481970787048,2,3,3,2,-16.49,-0.8,3.12,2.95,0.85,-0.07000000000000001
8.602481961250305,2,3,3,2,-16.53,-0.62,3.1,2.25,2.14,-1.09
8.612481951713562,2,3,3,2,-16.58,-1.22,3.3,1.62,2.63,-1.26
8.622481942176819,2,3,3,2,-17.41,-2.09,3.52,1.5,2.11,-0.53
8.632481932640076,2,3,3,2,-19.15,-1.96,3.67,0.37,1.1,0.24
8.642481923103333,2,3,3,2,-20.76,-2.37,3.93,-0.47,0.03,1.17
8.652481913566589,2,3,3,2,-21.04,-2.65,4.42,-0.92,-0.16,1.91
8.662481904029846,2,3,3,2,-21.41,-2.46,4.35,-1.03,0.35,2.43
8.672481894493103,2,3,3,2,-21.66,-2.39,4.14,-0.43,-0.11,3.18
8.68248188495636,2,3,3,2,-21.24,-2.29,4.01,0.99,-1.13,4.21
8.692481875419617,2,3,3,2,-21.9,-2.09,4.16,2.6,-1.39,5.55
8.702481865882874,2,3,3,2,-23.3,-1.74,4.64,3.26,-0.5600000000000001,7.45
8.71248185634613,2,3,3,2,-25.12,-1.87,5.05,2.81,-0.46,9.94
8.722481846809387,2,3,3,2,-28.54,-1.65,5.41,1.91,-0.59,12.33
8.732481837272644,2,3,3,2,-29.62,-1.62,5.26,1.48,-0.37,13.21
8.742481827735901,2,3,3,2,-30.87,-1.41,4.96,1.67,1.38,12.06
8.752482056617737,2,3,3,2,-31.86,-1.48,5.16,2.05,4.95,9.82
8.762482047080994,2,3,3,2,-31.51,-4.17,5.62,1.45,8.35,8.460000000000001
8.782482028007507,2,3,3,2,-28.08,-8.380000000000001,3.7,0.67,12.25,6.5
8.792482018470764,2,3,3,2,-24.72,-9.050000000000001,2.37,1.34,13.23,4.7
8.802482008934021,2,3,3,2,-14.96,-7.53,-1.19,1.34,13.91,1.34
8.812481999397278,2,3,3,2,-9.68,-5.5,-2.7,1.15,13.8,-4.74
8.822481989860535,2,3,3,2,-4.61,-4.59,-1.2,0.67,14.69,-11.85
8.832481980323792,2,3,3,2,3.86,-8.77,2.96,2.94,16.77,-17.78
8.842481970787048,2,3,3,2,7.64,-12.19,0.88,6.41,17.55,-20.19
8.852481961250305,2,3,3,2,9.83,-14.77,-0.48,5.81,12.97,-20.91
8.862481951713562,2,3,3,2,11.06,-14.71,-1.56,3.52,6.03,-20.45
8.872481942176819,2,3,3,2,7.99,-5.82,-0.7,3.12,2.16,-16.31
8.882481932640076,2,3,3,2,3.59,-4.53,0.57,3.99,2.02,-9.039999999999999
8.892481923103333,2,3,3,2,2.73,-3.26,1.58,4.91,-0.66,-1.06
8.93248188495636,2,3,3,2,-1.19,5.47,0.75,2.97,-3.03,15.96
8.96248185634613,2,3,3,2,-2.73,0.06,-0.25,-2.06,0.13,3.14
8.992481827735901,2,3,3,2,-0.37,-2.3,-1.16,-6.21,-0.97,-4.53
9.002482056617737,2,3,3,2,0.67,-2.36,-0.41,-5.48,-2.19,-6.53
9.012482047080994,2,3,3,2,1.48,-2.65,0.2,-4.7,-3.12,-8.19
9.02248203754425,2,3,3,2,3.3,-1.11,-0.51,-3.68,-3.63,-8.18
9.032482028007507,2,3,3,2,3.72,0.21,-0.42,-1.65,-2.6,-6.34
9.042482018470764,2,3,3,2,3.63,1.12,-0.13,1.57,-0.75,-3.48
9.052482008934021,2,3,3,2,2.86,1.56,0.05,3.07,0.7,-1.01
9.062481999397278,2,3,3,2,1.32,1.41,-0.51,2.72,1.32,0.65
9.072481989860535,2,3,3,2,0.93,1.27,-0.71,2.03,0.88,1.99
9.082481980323792,2,3,3,2,0.22,0.95,-0.62,1.23,0.35,2.94
9.092481970787048,2,3,3,2,-0.68,0.6,-0.58,0.48,-0.02,3.43
9.112481951713562,2,3,3,2,-1.63,0.44,-1.27,-1.28,-1.48,3.22
9.122481942176819,2,3,3,2,-1.16,0.63,-1.15,-1.34,-1.6,2.38
9.132481932640076,2,3,3,2,-0.77,0.71,-0.39,-0.29,-1.05,1.36
9.142481923103333,2,3,3,2,-0.12,1.05,0.07000000000000001,0.27,-0.57,0.36
9.152481913566589,2,3,3,2,-0.01,0.79,0.14,0.14,0.18,-0.38
9.162481904029846,2,3,3,2,0,0.59,0.01,-0.13,0.63,-0.95
9.172481894493103,2,3,3,2,-0.04,0.4,-0.06,-0.42,0.66,-1.54
9.18248188495636,2,3,3,2,-0.24,-0.32,-0.14,-0.61,0.5,-2.18
9.192481875419617,2,3,3,2,-0.26,-0.84,-0.29,-0.59,0.1,-2.63
9.202481865882874,2,3,3,2,-0.34,-1.28,-0.08,-0.49,-0.27,-2.71
9.21248185634613,2,3,3,2,-0.31,-1.81,-0.03,-0.49,-0.58,-2.57
9.222481846809387,2,3,3,2,-0.03,-2.36,-0.04,-0.71,-0.58,-2.31
9.232481837272644,2,3,3,2,0.42,-3.16,-0.15,-0.31,-0.58,-1.69
9.242481827735901,2,3,3,2,0.86,-3.83,-0.3,-0.22,-0.82,-0.96
9.252482056617737,2,3,3,2,1.54,-4.75,-0.27,-0.22,-1.08,-0.06
9.262482047080994,2,3,3,2,1.33,-4.76,-0.06,-0.03,-1.08,0.64
9.27248203754425,2,3,3,2,0.55,-3.85,0.53,0.4,-1.38,1.61
9.282482028007507,2,3,3,2,-0.08,-1.43,1.1,0.04,-2.58,3.46
9.292482018470764,2,3,3,2,-1.28,0.19,6.08,-0.01,-3.95,6.36
9.302482008934021,2,3,3,2,-5.34,-6.54,5.34,1.54,-5.09,9.550000000000001
9.312481999397278,2,3,3,2,-9.93,-5.74,-0.15,-0.71,-11.75,12.71
9.322481989860535,2,3,3,2,-21.23,-5.47,11.09,-7.93,-17.4,15.89
9.332481980323792,2,3,3,2,-37.79,-10.56,5.14,-4.53,-28.38,17.34
9.342481970787048,2,3,3,2,-39.07,-25.37,5.12,-9.109999999999999,-10.92,9.17
9.352481961250305,2,3,3,2,-39.02,-34.9,-9.16,-12.6,4.61,-7.71
9.363481879234314,2,3,3,2,-28.54,-9.93,8.220000000000001,-2.77,11.69,-14.57
9.373481869697571,2,3,3,2,-14.82,3.1,6.69,8.220000000000001,2.81,2.96
9.383481860160828,2,3,3,2,-22.21,3.07,0.47,12.09,2.68,14.21
9.403481841087341,2,3,3,2,-38.97,21.82,4,2.36,-1.46,35.35
9.443482041358948,2,3,3,2,-29.98,-2.02,3.31,0.43,-2.88,-6.55
9.453482031822205,2,3,3,2,-28.09,-1.87,3.52,0.68,-2.88,-8.460000000000001
9.463482022285461,2,3,3,2,-25.37,-1.38,2.49,0.87,-0.02,-9.25
9.473482012748718,2,3,3,2,-20.07,-1.08,1.97,1.35,2.61,-10.08
9.503481984138489,2,3,3,2,-8.970000000000001,-2.34,1.69,-1.45,2.03,-5.87
9.513481974601746,2,3,3,2,-8.08,-2.77,1.26,-3.07,1.79,-3.13
9.523481965065002,2,3,3,2,-9.029999999999999,-2.79,0.57,-3.84,2.05,-0.45
9.533481955528259,2,3,3,2,-9.67,-3.24,0.02,-3.26,2.88,1.55
9.543481945991516,2,3,3,2,-10.17,-3.54,-0.41,-2.44,3.18,2.55
9.553481936454773,2,3,3,2,-10.73,-3.51,-0.89,-1.61,3.43,1.97
9.56348192691803,2,3,3,2,-10.33,-3.35,-1.01,-0.43,3.79,-0.21
9.573481917381287,2,3,3,2,-9.9,-3.11,-1.41,0.34,3.95,-3.08
9.583481907844543,2,3,3,2,-8.800000000000001,-3.15,-1.1,0.83,4.26,-5.5
9.5934818983078,2,3,3,2,-6.67,-2.94,-0.65,1.53,4.09,-6.83
9.603481888771057,2,3,3,2,-4.02,-1.88,-0.46,1.64,4.03,-6.81
9.613481879234314,2,3,3,2,-3.2,-1.67,-0.2,1.5,3.57,-6.08
9.623481869697571,2,3,3,2,-2.7,-1.56,0.04,0.88,2.94,-5.07
9.633481860160828,2,3,3,2,-2.13,-2.47,0.01,-0.09,2.18,-4.18
9.643481850624084,2,3,3,2,-2.26,-3.05,-0.16,-0.98,1.86,-3.47
9.653481841087341,2,3,3,2,-2.64,-3.5,-0.41,-1.58,1.82,-2.71
9.663481831550598,2,3,3,2,-3.1,-3.52,-0.54,-1.73,1.68,-1.7
9.673482060432434,2,3,3,2,-3.98,-3.26,-0.54,-1.61,1.28,-0.39
9.683482050895691,2,3,3,2,-4.57,-2.9,-0.6,-1.15,0.51,0.77
9.693482041358948,2,3,3,2,-4.96,-2.29,-0.91,-0.91,-0.43,1.74
9.703482031822205,2,3,3,2,-5.1,-1.59,-0.99,-1.1,-0.93,2.5
9.713482022285461,2,3,3,2,-4.78,-0.97,0.27,-1.37,-0.87,2.7
9.723482012748718,2,3,3,2,-4.47,-1.32,0.87,-1.35,-0.47,2.41
9.733482003211975,2,3,3,2,-4.53,-1.68,0.66,-1.3,0.03,1.87
9.743481993675232,2,3,3,2,-4.94,-2.05,0.51,-2.01,0.37,1.73
9.753481984138489,2,3,3,2,-6.84,-2.61,-0.06,-2.9,0.4,2.15
9.763481974601746,2,3,3,2,-7.87,-2.83,-0.31,-3.86,0.07000000000000001,2.86
9.773481965065002,2,3,3,2,-9.140000000000001,-3.04,-0.44,-3.91,-0.23,3.66
9.783481955528259,2,3,3,2,-10,-3.37,-0.72,-3.97,-1.23,4.1
9.793481945991516,2,3,3,2,-11.63,-3.4,-0.89,-3.88,-2.3,4.02
9.803481936454773,2,3,3,2,-12.21,-3.27,-0.51,-3.51,-3.03,3.34
9.81348192691803,2,3,3,2,-12.56,-3.37,-0.06,-2.36,-3.08,2.21
9.823481917381287,2,3,3,2,-13.04,-3.05,0.93,-0.82,-2.54,0.91
9.833481907844543,2,3,3,2,-12.7,-2.79,1.23,0.73,-2.12,-0.31
9.8434818983078,2,3,3,2,-12.1,-2.52,1.33,1.88,-1.24,-1.29
9.853481888771057,2,3,3,2,-11.9,-2.28,1.38,2.54,0.04,-1.95
9.863481879234314,2,3,3,2,-12.62,-2.25,1.36,2.69,1.18,-2.16
9.873481869697571,2,3,3,2,-13.03,-2.35,1.05,2.5,1.63,-1.86
9.883481860160828,2,3,3,2,-13.22,-2.48,0.59,2.14,1.64,-1.17
9.893481850624084,2,3,3,2,-13.31,-2.41,0.27,1.9,1.61,-0.37
9.903481841087341,2,3,3,2,-12.03,-2.1,0.11,1.79,1.17,0.3
9.913481831550598,2,3,3,2,-11.16,-1.9,0.1,1.49,0.8100000000000001,0.48
9.923482060432434,2,3,3,2,-10.28,-1.84,0.16,1.22,0.59,0.06
9.933482050895691,2,3,3,2,-9.449999999999999,-1.87,0.21,0.86,0.57,-0.63
9.943482041358948,2,3,3,2,-8.23,-2.22,-0.02,0.51,0.64,-1.24
9.953482031822205,2,3,3,2,-7.78,-2.43,0,0.28,0.92,-1.74
9.963482022285461,2,3,3,2,-7.33,-2.71,0.04,0.24,1.15,-1.99
9.973482012748718,2,3,3,2,-6.93,-2.77,0.26,0.47,1.58,-1.92
9.983482003211975,2,3,3,2,-5.9,-2.43,0.44,1.14,1.68,-1.63
9.993481993675232,2,3,3,2,-5.59,-2.15,0.39,1.93,1.61,-1.2
10.00348198413849,2,3,3,2,-5.53,-1.94,0.2,2.56,1.18,-0.65
10.01348197460175,2,3,3,2,-6.41,-1.91,0.06,2.78,0.5600000000000001,0.03
10.023481965065,2,3,3,2,-6.83,-2.13,-0.09,2.68,-0.2,0.73
10.03348195552826,2,3,3,2,-7.37,-2.19,-0.37,2.1,-1.05,1.32
10.04348194599152,2,3,3,2,-7.85,-2.12,-0.4,1.35,-1.97,1.86
10.05348193645477,2,3,3,2,-7.86,-2.24,0.02,1.28,-2.77,2.39
10.06348192691803,2,3,3,2,-7.75,-2,0.23,1.04,-2.92,2.53
10.07348191738129,2,3,3,2,-8.24,-2.22,0.38,0.44,-2.02,2.73
10.08348190784454,2,3,3,2,-8.140000000000001,-2.33,0.75,-0.23,-1.31,2.81
10.0934818983078,2,3,3,2,-8.859999999999999,-2.36,0.89,-0.5600000000000001,-0.49,2.67
10.10348188877106,2,3,3,2,-9.359999999999999,-2.45,0.83,-0.71,0,2.52
10.11348187923431,2,3,3,2,-10.23,-2.65,0.66,-0.83,-0.14,2.57
10.12348186969757,2,3,3,2,-11.11,-2.91,0.45,-0.95,-0.74,2.9
10.13348186016083,2,3,3,2,-12.32,-3.19,0.37,-1.08,-1.61,3.39
10.14348185062408,2,3,3,2,-12.49,-3.15,0.52,-1.39,-2.7,3.53
10.15348184108734,2,3,3,2,-12.42,-3.18,0.76,-1.37,-3.48,3.43
10.1634818315506,2,3,3,2,-12.2,-2.88,0.64,-1.35,-3.85,3.45
10.17348206043243,2,3,3,2,-11.89,-2.91,1.07,-1,-3.25,3.63
10.18348205089569,2,3,3,2,-11.71,-2.8,1,-0.89,-2.66,3.42
10.19348204135895,2,3,3,2,-11.22,-2.76,1,-0.88,-2.2,2.95
10.2034820318222,2,3,3,2,-10.68,-2.61,1.23,-0.65,-1.36,2.42
10.21348202228546,2,3,3,2,-9.44,-1.9,1.45,-0.46,-0.96,1.78
10.22348201274872,2,3,3,2,-8.82,-1.53,1.87,-0.12,-1,1.21
10.23348200321198,2,3,3,2,-8.19,-1.03,2.06,0.4,-0.7,1.05
10.24348199367523,2,3,3,2,-8.26,-0.21,1.84,1.15,0.2,1.41
10.25348198413849,2,3,3,2,-8.140000000000001,0.02,1.96,1.51,0.53,2
10.26348197460175,2,3,3,2,-8.1,0.01,2.15,0.83,0.22,2.54
10.273481965065,2,3,3,2,-8.51,-0.01,2.18,0.07000000000000001,0.32,3.36
10.28348195552826,2,3,3,2,-9.27,-0.36,2.29,-0.7,0.15,4.17
10.29348194599152,2,3,3,2,-9.81,-0.52,2.14,-1.49,0.04,4.56
10.31348192691803,2,3,3,2,-10.34,-0.83,2.25,-2.82,-0.47,3.67
10.32348191738129,2,3,3,2,-10.17,-1.32,2.32,-3.27,-0.61,2.65
10.33348190784454,2,3,3,2,-9.84,-1.53,2.17,-3.79,-0.68,1.43
10.34448182582855,2,3,3,2,-9.57,-1.67,2.41,-3.86,-0.36,0.18
10.35348188877106,2,3,3,2,-9.32,-1.85,2.39,-3.78,0.16,-0.73
10.36348187923431,2,3,3,2,-9.17,-2.14,2.27,-3.52,0.82,-1.46
10.3744820356369,2,3,3,2,-9.01,-2.14,2.33,-2.89,1.5,-1.91
10.38448202610016,2,3,3,2,-8.81,-2.18,2.34,-2.45,1.8,-1.97
10.39448201656342,2,3,3,2,-8.630000000000001,-2.27,2.17,-2.07,1.88,-1.67
10.40448200702667,2,3,3,2,-8.59,-2.39,2.08,-1.74,2.05,-1.19
10.41448199748993,2,3,3,2,-8.81,-2.61,2.15,-1.45,2.4,-0.68
10.42448198795319,2,3,3,2,-9.19,-2.81,2.1,-0.78,2.26,-0.07000000000000001
10.43448197841644,2,3,3,2,-9.93,-2.6,1.42,-0.49,2,0.31
10.46448194980621,2,3,3,2,-9.9,-2.61,1.15,2.11,1.53,0.83
10.47448194026947,2,3,3,2,-9.9,-2.61,1.15,2.15,1.23,0.63
10.48448193073273,2,3,3,2,-9.41,-2.28,0.85,2.47,1.77,0.33
10.49448192119598,2,3,3,2,-9.039999999999999,-1.98,0.58,2.65,2.69,-0.17
10.50448191165924,2,3,3,2,-9.07,-1.91,0.47,2.62,3.57,-0.51
10.5144819021225,2,3,3,2,-9.380000000000001,-2.27,1.19,2.91,4.39,-0.63
10.52448189258575,2,3,3,2,-9.52,-2.42,0.87,2.81,4.01,-0.73
10.53448188304901,2,3,3,2,-9.66,-2.25,0.39,2.68,2.38,-0.87
10.54448187351227,2,3,3,2,-9.869999999999999,-2.02,0.27,3.15,1.78,-0.43
10.55448186397552,2,3,3,2,-10.23,-1.97,0.32,4.26,1.71,0.23
10.56448185443878,2,3,3,2,-10.49,-1.68,0.18,4.76,1.27,0.57
10.57448184490204,2,3,3,2,-10.79,-1.48,0.24,4.57,0.79,0.8
10.5844818353653,2,3,3,2,-10.84,-1.37,0.6,4.62,0.35,0.97
10.59448182582855,2,3,3,2,-10.39,-0.9399999999999999,0.45,4.31,-0.22,1.03
10.60448205471039,2,3,3,2,-9.94,-0.79,0.46,3.63,-0.61,0.9
10.61448204517365,2,3,3,2,-9.66,-0.7,0.14,2.73,-0.54,0.57
10.67448198795319,2,3,3,2,-9.77,-1.22,0.21,-1.71,0.06,-0.67
10.68448197841644,2,3,3,2,-9.949999999999999,-1.49,0.13,-2.05,-0.02,-0.62
10.6944819688797,2,3,3,2,-10.13,-1.74,-0.15,-2.35,-0.36,-0.53
10.70448195934296,2,3,3,2,-10.1,-1.73,-0.2,-2.56,-0.64,-0.41
10.71448194980621,2,3,3,2,-9.949999999999999,-1.7,-0.22,-2.6,-0.74,-0.31
10.72448194026947,2,3,3,2,-9.859999999999999,-1.65,-0.13,-2.52,-0.79,-0.19
10.73448193073273,2,3,3,2,-9.859999999999999,-1.65,-0.13,-2.37,-0.92,-0.13
10.74448192119598,2,3,3,2,-9.630000000000001,-1.81,-0.25,-2.22,-0.98,-0.16
10.75448191165924,2,3,3,2,-9.59,-1.93,0.01,-1.85,-0.73,-0.19
10.7644819021225,2,3,3,2,-9.529999999999999,-1.94,0.08,-1.41,-0.66,-0.22
10.77448189258575,2,3,3,2,-9.529999999999999,-1.94,0.08,-1.15,-0.8100000000000001,-0.27
10.78448188304901,2,3,3,2,-9.42,-1.88,-0.02,-0.74,-0.68,-0.18
10.79448187351227,2,3,3,2,-9.52,-2.15,0.01,-0.45,-0.55,-0.02
10.80448186397552,2,3,3,2,-9.57,-2.2,0.06,-0.22,-0.57,0.15
10.81448185443878,2,3,3,2,-9.57,-2.11,0.03,-0.07000000000000001,-0.8,0.36
10.82448184490204,2,3,3,2,-9.59,-2.17,0.12,0.08,-0.97,0.58
10.8344818353653,2,3,3,2,-9.68,-2.17,0.35,0.33,-0.92,0.8
10.84448182582855,2,3,3,2,-9.59,-2.1,0.19,0.79,-1.15,0.97
10.85448205471039,2,3,3,2,-9.44,-1.71,0,1.06,-1.43,0.97
10.86448204517365,2,3,3,2,-9.390000000000001,-1.59,0.06,1.24,-1.28,0.84
10.8744820356369,2,3,3,2,-9.390000000000001,-1.59,0.06,1.24,-1.28,0.84
10.88448202610016,2,3,3,2,-9.4,-1.55,0.26,1.59,-0.58,0.66
10.89448201656342,2,3,3,2,-9.6,-1.43,0.05,1.49,-0.5600000000000001,0.54
10.90448200702667,2,3,3,2,-9.630000000000001,-1.37,0.1,1.44,-0.38,0.51
10.91448199748993,2,3,3,2,-9.73,-1.3,0.2,1.38,-0.19,0.51
10.92448198795319,2,3,3,2,-9.73,-1.3,0.2,1.38,-0.19,0.51
10.93448197841644,2,3,3,2,-9.85,-1.27,0.25,1.09,0.24,0.41
10.9444819688797,2,3,3,2,-9.81,-1.18,0.09,0.88,0.45,0.37
10.95448195934296,2,3,3,2,-9.779999999999999,-1.04,0.09,0.73,0.65,0.26
10.96448194980621,2,3,3,2,-9.789999999999999,-1.06,0.16,0.5,0.87,0.15
10.97448194026947,2,3,3,2,-9.789999999999999,-1.06,0.16,0.35,0.97,-0.01
10.98448193073273,2,3,3,2,-9.960000000000001,-1.18,0.08,0.22,1.04,-0.12
10.99448192119598,2,3,3,2,-9.77,-1.27,0.39,0.44,1.22,-0.29
11.00448191165924,2,3,3,2,-9.6,-1.54,0.78,0.74,1.23,-0.5600000000000001
11.0144819021225,2,3,3,2,-9.539999999999999,-1.58,0.8,0.63,1.06,-0.82
11.02448189258575,2,3,3,2,-9.539999999999999,-1.58,0.8,0.3,1.1,-1.09
11.03448188304901,2,3,3,2,-9.449999999999999,-1.68,0.83,0.22,1.21,-1.31
11.04448187351227,2,3,3,2,-8.91,-2.01,1.07,0.27,1.41,-1.31
11.05448186397552,2,3,3,2,-8.779999999999999,-1.91,1.21,0.38,1.7,-1.25
11.06448185443878,2,3,3,2,-8.91,-1.81,1.28,0.33,1.83,-0.93
11.07448184490204,2,3,3,2,-8.91,-1.81,1.28,0.12,1.65,-0.46
11.0844818353653,2,3,3,2,-9.19,-1.8,1.31,0.12,1.65,-0.46
11.09448182582855,2,3,3,2,-9.859999999999999,-1.55,0.9,-0.5600000000000001,0.86,0.58
11.10448205471039,2,3,3,2,-9.970000000000001,-1.54,0.9399999999999999,-0.8100000000000001,0.51,0.87
11.11448204517365,2,3,3,2,-10,-1.47,1.09,-1.07,0.14,1.05
11.1244820356369,2,3,3,2,-10,-1.47,1.09,-1.28,0,1.15
11.13448202610016,2,3,3,2,-10.03,-1.38,1.39,-1.28,0,1.15
11.14448201656342,2,3,3,2,-9.77,-1.26,1.43,-1.57,-0.25,0.9
11.15448200702667,2,3,3,2,-9.65,-1.23,1.38,-1.78,-0.3,0.52
11.16448199748993,2,3,3,2,-9.51,-1.27,1.45,-2.03,-0.27,0.06
11.17448198795319,2,3,3,2,-9.51,-1.27,1.45,-2.03,-0.27,0.06
11.18448197841644,2,3,3,2,-9.48,-1.36,1.41,-2.13,-0.24,-0.77
11.1944819688797,2,3,3,2,-9.470000000000001,-1.65,1.29,-1.99,-0.09,-1.14
11.20448195934296,2,3,3,2,-9.23,-1.74,1.45,-1.81,0.11,-1.4
11.21448194980621,2,3,3,2,-9.15,-1.73,1.53,-1.57,0.33,-1.63
11.22448194026947,2,3,3,2,-9.15,-1.73,1.53,-1.57,0.33,-1.63
11.23448193073273,2,3,3,2,-9.09,-1.82,1.48,-1.37,0.45,-1.85
11.24448192119598,2,3,3,2,-9.26,-1.91,1.09,-1.24,0.08,-2
11.25448191165924,2,3,3,2,-9.5,-1.79,1.11,-1.01,0.21,-1.73
11.2644819021225,2,3,3,2,-9.18,-1.77,1.31,-0.67,0.07000000000000001,-1.55
11.27448189258575,2,3,3,3,-9.18,-1.77,1.31,-0.67,0.07000000000000001,-1.55
11.28448188304901,2,3,3,3,-9.74,-1.45,1.61,-0.62,0.16,-1.45
11.29448187351227,2,3,3,3,-10.18,-1.66,0.76,-1.82,-1.19,-1.18
11.30448186397552,2,3,3,3,-10.59,-1.91,0.47,-2.63,-1.64,-1.39
11.31448185443878,2,3,3,3,-10.66,-1.79,0.5,-2.91,-2.61,-1.87
11.32448184490204,2,3,3,3,-10.66,-1.79,0.5,-2.91,-2.61,-1.87
11.3344818353653,2,3,3,3,-10.53,-1.46,0.85,-3.3,-3.12,-2.39
11.34448182582855,2,3,3,3,-10.19,-1.39,0.83,-3.25,-3.65,-2.95
11.35448205471039,2,3,3,3,-9.640000000000001,-0.63,0.9399999999999999,-3.71,-4.08,-3.51
11.36448204517365,2,3,3,3,-9.359999999999999,-0.67,1.2,-3.04,-4.04,-3.73
11.3744820356369,2,3,3,3,-9.359999999999999,-0.67,1.2,-3.04,-4.04,-3.73
11.38448202610016,2,3,3,3,-9.25,-0.8,1.13,-2.84,-4.07,-3.71
11.39448201656342,2,3,3,3,-8.640000000000001,-1.38,-0.04,-3.23,-4.21,-3.61
11.40448200702667,2,3,3,3,-8.640000000000001,-1.38,-0.04,-3.21,-3.17,-3.4
11.41548192501068,2,3,3,3,-8.69,-1.7,0.18,-3.12,-2.84,-3.36
11.42548191547394,2,3,3,3,-8.51,-2,0.21,-3.12,-2.84,-3.36
11.43548190593719,2,3,3,3,-8.57,-2.87,0.23,-2.97,-2.66,-3.17
11.44548189640045,2,3,3,3,-8.699999999999999,-3.12,0,-2.9,-1.9,-2.43
11.45548188686371,2,3,3,3,-9.130000000000001,-3.43,0.04,-2.44,-1.6,-1.86
11.46548187732697,2,3,3,3,-9.130000000000001,-3.43,0.04,-2.13,-1.59,-1.3
11.47548186779022,2,3,3,3,-9.56,-3.29,0.22,-2.13,-1.59,-1.3
11.48548185825348,2,3,3,3,-9.640000000000001,-3.06,0.24,-1.74,-1.69,-0.79
11.49548184871674,2,3,3,3,-9.69,-2.94,0.16,-1.06,-1.77,-0.28
11.50548183917999,2,3,3,3,-9.81,-2.76,0,-0.79,-1.15,-0.24
11.51548182964325,2,3,3,3,-10.1,-2.8,0.18,-0.57,-0.38,-0.17
11.52548205852509,2,3,3,3,-10.1,-2.8,0.18,-0.57,-0.38,-0.17
11.53548204898834,2,3,3,3,-10.07,-2.87,0.31,-0.08,0.32,-0.09
11.5454820394516,2,3,3,3,-9.859999999999999,-2.8,0.4,1.7,1.49,-0.08
11.55548202991486,2,3,3,3,-9.43,-2.69,0.44,2.72,2.22,-0.09
11.56548202037811,2,3,3,3,-9.359999999999999,-2.5,0.51,3.69,2.81,-0.11
11.57548201084137,2,3,3,3,-9.380000000000001,-2.35,0.51,3.69,2.81,-0.11
11.58548200130463,2,3,3,3,-9.300000000000001,-2.21,0.45,4.61,3.3,-0.14
11.59548199176788,2,3,3,3,-9.5,-1.87,0.21,5.87,3.96,-0.19
11.60548198223114,2,3,3,3,-9.390000000000001,-1.82,0.18,6.18,4.03,-0.29
11.6154819726944,2,3,3,3,-9.51,-1.73,0.26,6.27,4.02,-0.3
11.62548196315765,2,3,3,2,-9.51,-1.61,0.42,6.27,4.02,-0.3
11.63548195362091,2,3,3,2,-9.52,-1.54,0.45,6.37,4.05,-0.27
11.64548194408417,2,3,3,2,-9.59,-1.35,0.39,6.45,3.38,-0.26
11.65548193454742,2,3,3,2,-9.6,-1.13,0.01,6.36,3.13,-0.11
11.66548192501068,2,3,3,2,-9.75,-0.5,0.02,6.12,2.82,0.07000000000000001
11.67548191547394,2,3,3,2,-9.81,-0.32,0.21,6.12,2.82,0.07000000000000001
11.68548190593719,2,3,3,2,-9.82,-0.2,0.37,5.6,2.46,0.29
11.69548189640045,2,3,3,2,-9.76,-0.09,0.35,4.25,1.66,0.5600000000000001
11.70548188686371,2,3,3,2,-9.720000000000001,-0.23,0.18,3.34,1.57,0.53
11.71548187732697,2,3,3,2,-9.83,-0.34,0.11,2.57,1.47,0.36
11.72548186779022,2,3,3,2,-9.92,-0.61,0.13,2.57,1.47,0.36
11.73548185825348,2,3,3,2,-9.880000000000001,-0.96,0.13,2.15,1.3,0.13
11.74548184871674,2,3,3,2,-9.890000000000001,-1.36,0.18,2.02,1.19,-0.43
11.75548183917999,2,3,3,2,-9.869999999999999,-1.4,0.12,2.43,1.06,-0.77
11.76548182964325,2,3,3,2,-9.73,-1.43,0.13,2.92,1.08,-1.16
11.77548205852509,2,3,3,2,-9.66,-1.35,0.26,2.92,1.08,-1.16
11.78548204898834,2,3,3,2,-9.59,-1.21,0.48,3.2,1.17,-1.44
11.7954820394516,2,3,3,2,-9.51,-1.08,0.38,3.21,1.24,-1.41
11.80548202991486,2,3,3,2,-9.449999999999999,-0.85,0.33,3.07,1.22,-1.15
11.81548202037811,2,3,3,2,-9.34,-0.72,0.33,2.98,1.16,-0.87
11.82548201084137,2,3,3,2,-9.44,-0.74,0.42,2.98,1.16,-0.87
11.83548200130463,2,3,3,2,-9.48,-0.8100000000000001,0.36,2.85,0.98,-0.64
11.84548199176788,2,3,3,2,-9.550000000000001,-0.91,0.25,3,0.45,-0.7
11.85548198223114,2,3,3,2,-9.640000000000001,-1.01,-0.11,3.3,0.24,-0.89
11.8654819726944,2,3,3,2,-9.74,-1.25,-0.14,3.77,0.01,-1.18
11.93548190593719,2,3,3,2,-9.73,0.4,-0.61,5.85,1.41,-1.46
11.94548189640045,2,3,3,2,-9.789999999999999,0.5,-0.74,4.18,1.54,-0.6899999999999999
11.95548188686371,2,3,3,2,-9.869999999999999,0.45,-0.77,3.23,1.42,-0.77
11.96548187732697,2,3,3,2,-9.869999999999999,0.19,-0.8100000000000001,2.69,1.36,-1.12
11.97548186779022,2,3,3,2,-9.869999999999999,-0.8100000000000001,-0.93,2.69,1.36,-1.12
11.98548185825348,2,3,3,2,-10.13,-1.13,-0.77,2.86,1.83,-1.61
11.99548184871674,2,3,3,2,-10.17,-1.64,-0.63,4.72,4.4,-2.43
12.00548183917999,2,3,3,2,-10.35,-2.03,-0.26,5.85,6.02,-2.44
12.01548182964325,2,3,3,2,-10.39,-1.34,0,6.09,7.34,-2.14
12.02548205852509,2,3,3,2,-10.44,-0.75,-0.13,6.09,7.34,-2.14
12.03548204898834,2,3,3,2,-10.47,-0.52,-0.14,5.9,8.57,-1.74
12.0454820394516,2,3,3,2,-10.56,-0.72,-0.73,4.18,10.33,-1.17
12.05548202991486,2,3,3,2,-10.75,-1.07,-0.89,2.82,10.24,-0.91
12.06548202037811,2,3,3,2,-10.99,-1.62,-0.97,1.08,9.24,-0.49
12.07548201084137,2,3,3,2,-11.24,-2.16,-1.09,1.08,9.24,-0.49
12.08548200130463,2,3,3,2,-11.62,-3.83,-0.91,-0.42,8.1,0.06
12.09548199176788,2,3,3,2,-11.88,-4.48,-0.83,-0.59,6.64,1.09
12.10548198223114,2,3,3,2,-12.04,-4.68,-0.62,0.79,5.84,1.42
12.1154819726944,2,3,3,2,-11.98,-4.17,-0.17,2.57,5.17,1.64
12.12548196315765,2,3,3,2,-10.94,-3.04,0.5,2.57,5.17,1.64
12.13548195362091,2,3,3,2,-10.47,-2.68,0.8,3.2,4.64,1.62
12.14548194408417,2,3,3,2,-10.06,-2.6,1.01,0.77,3.24,1.32
12.15548193454742,2,3,3,2,-9.640000000000001,-2.66,0.79,-1.27,2.48,1.23
12.16548192501068,2,3,3,2,-8.880000000000001,-3.48,0,-2.9,2.07,1.36
12.17548191547394,2,3,3,2,-8.539999999999999,-3.73,-0.31,-2.9,2.07,1.36
12.18548190593719,2,3,3,2,-8.140000000000001,-4.03,-0.39,-3.67,1.79,1.7
12.19548189640045,2,3,3,2,-7.72,-4.32,-0.29,-2.28,1.14,2.53
12.20548188686371,2,3,3,2,-7.29,-4.4,-0.01,-1.06,0.71,3.15
12.21548187732697,2,3,3,2,-7.41,-4.17,0.27,-0.15,0.33,3.85
12.22548186779022,2,3,3,2,-7.66,-4.01,0.47,-0.15,0.33,3.85
12.23548185825348,2,3,3,2,-8.19,-3.41,0.6,0.3,-0.17,4.69
12.24548184871674,2,3,3,2,-8.1,-2.81,0.47,-0.42,-1.38,6.44
12.25548183917999,2,3,3,2,-8.529999999999999,-2.4,0.63,-1.26,-1.76,7.54
12.26548182964325,2,3,3,2,-9.300000000000001,-2.22,0.8100000000000001,-2.09,-2.89,8.31
12.27548205852509,2,3,3,2,-10.5,-2.32,0.54,-2.09,-2.89,8.31
12.28548204898834,2,3,3,2,-11.04,-2.3,0.31,-3.24,-3.78,8.4
12.2954820394516,2,3,3,2,-11.37,-2.09,0,-4.74,-4.28,6.78
12.30548202991486,2,3,3,2,-11.31,-1.68,-0.04,-4.89,-4.16,5.47
12.31548202037811,2,3,3,2,-10.86,-1.41,0.42,-5.13,-4.24,4
12.32548201084137,2,3,3,2,-10.41,-1.39,0.5600000000000001,-5.13,-4.24,4
12.33548200130463,2,3,3,2,-9.98,-1.39,0.58,-5.55,-4.39,2.61
12.34548199176788,2,3,3,2,-9.82,-1.32,0.59,-5.9,-5.21,1.21
12.35548198223114,2,3,3,2,-9.42,-1.39,0.44,-5.76,-5.76,1.27
12.3654819726944,2,3,3,2,-9.359999999999999,-1.29,0.51,-5.77,-6.23,1.55
12.37548196315765,2,3,3,2,-9.289999999999999,-1.27,0.71,-5.77,-6.23,1.55
12.38648188114166,2,3,3,2,-9.119999999999999,-1.33,0.8,-5.7,-6.84,1.71
12.39548194408417,2,3,3,2,-8.33,-0.91,0.28,-6.35,-6.39,1.46
12.40548193454742,2,3,3,2,-8.4,-0.64,0.33,-6.56,-5.44,1.5
12.41648185253143,2,3,3,2,-8.609999999999999,-0.53,0.63,-6.44,-4.92,1.71
12.42548191547394,2,3,3,2,-8.59,-0.62,0.78,-6.44,-4.92,1.71
12.43648183345795,2,3,3,2,-8.140000000000001,-0.62,0.67,-6.68,-4.6,1.83
12.4464818239212,2,3,3,2,-8.02,-0.61,0.89,-6.68,-3.21,1.62
12.45648205280304,2,3,3,2,-8.119999999999999,-0.65,0.99,-6.57,-2.86,1.46
12.4664820432663,2,3,3,2,-7.63,-0.3,0.75,-6.3,-1.39,1.22
12.47648203372955,2,3,3,2,-7.9,-0.07000000000000001,0.98,-6.3,-1.39,1.22
12.48648202419281,2,3,3,2,-7.97,0,1,-5.7,-0.61,0.82
12.49648201465607,2,3,3,2,-8.109999999999999,0.23,0.87,-5,0.26,-0.44
12.50648200511932,2,3,3,2,-8.57,0.3,0.45,-4.99,0.54,-1.16
12.51648199558258,2,3,3,2,-8.6,0.3,0.31,-5.23,0.96,-1.71
12.52648198604584,2,3,3,2,-8.75,0.34,0.32,-5.23,0.96,-1.71
12.53648197650909,2,3,3,2,-9,0.36,0.35,-5.12,1.18,-2.09
12.54648196697235,2,3,3,2,-9.289999999999999,0.27,0.38,-4.75,1.17,-2.31
12.55648195743561,2,3,3,2,-9.31,0.22,0.32,-4.97,1.1,-1.88
12.56648194789886,2,3,3,2,-9.460000000000001,0.26,0.39,-5.32,0.97,-1.19
12.57648193836212,2,3,3,2,-9.66,0.29,0.5,-5.32,0.97,-1.19
12.58648192882538,2,3,3,2,-9.890000000000001,-0.03,0.88,-5.87,0.51,-0.46
12.59648191928864,2,3,3,2,-10.13,-0.25,1.05,-6.97,-0.86,0.52
12.60648190975189,2,3,3,2,-10.15,-0.32,1.21,-7.44,-1.36,0.52
12.61648190021515,2,3,3,2,-10.25,-0.31,1.4,-7.4,-1.38,0.27
12.62648189067841,2,3,3,2,-10.92,-0.37,1.92,-7.4,-1.38,0.27
12.63648188114166,2,3,3,2,-11.33,-0.31,2.14,-7.17,-1.5,0.01
12.64648187160492,2,3,3,2,-11.89,-0.62,2.29,-8.039999999999999,-4.11,-0.18
12.68648183345795,2,3,3,2,-12.21,-2.84,0.39,-7.18,-10.53,0.3
12.6964818239212,2,3,3,2,-11.83,-3.72,0.18,-4.14,-10.59,0.97
12.70648205280304,2,3,3,2,-11.27,-3.79,0.28,-1.21,-8.77,1.35
12.7164820432663,2,3,3,2,-11.38,-3.31,1.98,1.35,-8.33,2.48
12.72648203372955,2,3,3,2,-11.1,-2.59,1.72,1.35,-8.33,2.48
12.73648202419281,2,3,3,2,-10.99,-0.51,1.41,1.81,-8.32,3.38
12.74648201465607,2,3,3,2,-10.86,-0.6,2.05,3.04,-5.98,2.19
12.75648200511932,2,3,3,2,-11.12,-0.93,1.65,3.04,-5.98,2.19
12.76648199558258,2,3,3,2,-11.54,-1.57,1.67,1.76,-5.19,1.04
12.77648198604584,2,3,3,2,-12,-3.43,0.85,1.24,-4.41,-0.49
12.78648197650909,2,3,3,2,-11.74,-3.94,0.61,1.3,-3.4,-1.68
12.79648196697235,2,3,3,2,-11.03,-4.1,0.26,1.75,-2.38,-2.4
12.80648195743561,2,3,3,2,-10.23,-4.24,0,2.26,-1.12,-2.97
12.81648194789886,2,3,3,2,-8.94,-4.17,-0.11,3.11,0.36,-3.52
12.82648193836212,2,3,3,1,-8.550000000000001,-3.86,-0.11,3.81,1.61,-3.82
12.83648192882538,2,3,3,1,-7.99,-3.34,-0.03,4.1,2.2,-3.81
12.84648191928864,2,3,3,1,-7.84,-2.85,0.12,3.73,2.27,-3.5
12.85648190975189,2,3,3,1,-7.69,-2.62,0.25,2.9,2.09,-2.9
12.86648190021515,2,3,3,1,-7.53,-2.86,0.4,1.88,1.68,-2.1
12.87648189067841,2,3,3,1,-7.73,-3.08,0.33,0.76,1.04,-1.34
12.88648188114166,2,3,3,1,-8.279999999999999,-3.52,0.17,0.26,0.91,-0.57
12.89648187160492,2,3,3,1,-8.779999999999999,-3.39,0.03,0.22,1.34,0.34
12.90648186206818,2,3,3,1,-9.06,-3.28,-0.26,0.71,1.9,1.28
12.91648185253143,2,3,3,1,-9.19,-2.97,-0.29,1.43,2.37,1.7
12.92648184299469,2,3,3,1,-9.01,-2.59,-0.19,2.29,2.85,1.65
12.93648183345795,2,3,3,0,-9,-2.28,-0.09,3.32,3.51,1.25
12.9464818239212,2,3,3,0,-8.93,-2.13,-0.07000000000000001,4.3,4.18,0.45
12.95648205280304,2,3,3,0,-8.869999999999999,-1.87,-0.1,5.13,4.57,-0.54
12.97648203372955,2,3,3,0,-8.710000000000001,-1.61,0.07000000000000001,6.22,5.28,-2.28
12.98648202419281,2,3,3,0,-8.66,-1.53,-0.04,6.57,5.15,-2.93
12.99648201465607,2,3,3,0,-8.640000000000001,-1.3,-0.02,6.5,4.71,-3.29
13.00648200511932,2,3,3,0,-8.550000000000001,-1.08,-0.5,6.16,4.17,-3.46
13.01648199558258,2,3,3,0,-8.58,-1.21,-0.31,5.8,3.61,-3.37
13.02648198604584,2,3,3,0,-8.43,-1.39,-0.38,5.2,2.9,-3.07
13.03648197650909,2,3,3,0,-8.56,-1.39,-0.42,4.68,2.37,-2.62
13.04648196697235,2,3,3,0,-8.85,-1.58,-0.26,4.5,1.88,-2.24
13.05648195743561,2,3,3,0,-9.039999999999999,-1.43,-0.38,4.5,1.56,-2.16
13.06648194789886,2,3,3,0,-9.17,-1.2,-0.45,4.49,1.28,-2.41
13.07648193836212,2,3,3,0,-9.050000000000001,-0.95,-0.13,4.55,0.97,-2.88
13.08648192882538,2,3,3,0,-9.199999999999999,-0.85,-0.2,4.65,0.61,-3.49
13.09648191928864,2,3,3,0,-9.210000000000001,-0.89,-0.18,4.3,0.4,-3.96
13.10648190975189,2,3,3,0,-9.050000000000001,-0.92,-0.31,4.08,0.24,-4.29
13.11648190021515,2,3,3,0,-9.06,-1.15,-0.23,3.71,0.09,-4.43
13.12648189067841,2,3,3,0,-9.140000000000001,-1.16,-0.13,3.61,-0.1,-4.34
13.13648188114166,2,3,3,0,-9.289999999999999,-1.08,-0.08,3.6,-0.3,-4.05
13.14648187160492,2,3,3,0,-9.220000000000001,-1.23,0.09,3.81,-0.6,-3.54
13.15648186206818,2,3,3,0,-9.4,-1.18,0.09,4.13,-0.74,-2.97
13.16648185253143,2,3,3,0,-9.33,-1.2,0.04,4.83,-0.75,-2.64
13.17648184299469,2,3,3,0,-9.279999999999999,-1.15,-0.09,5.62,-0.67,-2.49
13.18648183345795,2,3,3,0,-9.289999999999999,-1.1,-0.53,6.46,-0.27,-2.48
13.1964818239212,2,3,3,0,-9.289999999999999,-1.16,-0.51,7.44,0.35,-2.61
13.20648205280304,2,3,3,0,-9.4,-1.27,-0.36,8.24,0.91,-2.89
13.2164820432663,2,3,3,0,-9.42,-1.28,-0.18,8.81,1.02,-3.1
13.22648203372955,2,3,3,0,-9.300000000000001,-1.14,-0.15,9.25,0.89,-3.24
13.23648202419281,2,3,3,0,-9.09,-0.37,-0.29,9.18,1.01,-3.13
13.24648201465607,2,3,3,0,-9.15,-0.13,-0.05,9.09,2.02,-2.79
13.25648200511932,2,3,3,0,-9.19,0.04,0.21,9.16,3.52,-2.22
13.26648199558258,2,3,3,0,-10.21,-0.31,0.58,8.789999999999999,5.33,-1.59
13.27648198604584,2,3,3,0,-10.81,-0.42,0.73,8.4,7.45,-0.85
13.28648197650909,2,3,3,0,-11.31,-0.12,0.52,7.4,9.06,-0.11
13.29648196697235,2,3,3,0,-11.48,0.31,0.04,5.31,10.12,0.37
13.30648195743561,2,3,3,0,-11.88,-0.18,-0.33,3.02,11.09,0.27
13.31648194789886,2,3,3,0,-12.45,-0.5600000000000001,-0.73,1.26,11.69,-0.04
13.32648193836212,2,3,3,0,-12.68,-0.61,-1.42,-0.35,11.03,-0.18
13.33648192882538,2,3,3,0,-12.57,-1.3,-1.77,-2.17,9.970000000000001,-0.31
13.34648191928864,2,3,3,0,-12.91,-3.68,-2.17,-3.13,9.470000000000001,-0.57
13.35648190975189,2,3,3,0,-12.52,-4.58,-1.86,-3.54,8.27,-0.6899999999999999
13.36648190021515,2,3,3,0,-11.9,-5.45,-1.21,-3.29,7.14,-0.14
13.37648189067841,2,3,3,0,-11.34,-5.81,-0.62,-1.76,6.63,1.1
13.38648188114166,2,3,3,0,-10.21,-5.71,0.66,0.1,6.12,2.58
13.39648187160492,2,3,3,0,-9.6,-5.33,1.03,0.83,5.44,3.79
13.40648186206818,2,3,3,0,-9.07,-4.9,1.2,-0.13,4.85,4.59
13.41648185253143,2,3,3,0,-8.74,-4.64,1.3,-1.62,4.32,5.07
13.42648184299469,2,3,3,0,-9.25,-4.46,0.57,-2.83,3.49,5.6
13.43648183345795,2,3,3,0,-9.56,-4.18,0,-3.58,2.09,6.23
13.4464818239212,2,3,3,0,-9.81,-3.82,-0.6,-3.63,0.63,6.73
13.45648205280304,2,3,3,0,-10.49,-2.81,-0.9,-2.8,-0.46,6.81
13.46748197078705,2,3,3,0,-11.33,-2.32,-0.6899999999999999,-1.51,-1.29,6.55
13.47748196125031,2,3,3,0,-11.86,-2.13,-0.61,-0.5,-1.95,6.51
13.48748195171356,2,3,3,0,-12.06,-2.16,-0.27,-0.29,-2.74,6.33
13.49748194217682,2,3,3,0,-10.78,-1.97,0.5600000000000001,-0.67,-3.62,5.94
13.50748193264008,2,3,3,0,-10.56,-1.66,0.7,-1.57,-4.02,5.19
13.51748192310333,2,3,3,0,-9.880000000000001,-1.06,0.97,-2.81,-4.34,4.3
13.52748191356659,2,3,3,0,-9.57,-0.82,1.11,-4.4,-5.07,3.49
13.53748190402985,2,3,3,0,-8.91,-0.97,0.79,-6.17,-5.66,2.78
13.5474818944931,2,3,3,0,-8.460000000000001,-1.04,0.7,-7.63,-6.06,2.63
13.55748188495636,2,3,3,0,-7.67,-1.11,0.54,-8.26,-6.78,2.59
13.56748187541962,2,3,3,0,-7.09,-1.29,0.54,-8.470000000000001,-7.59,2.37
13.57748186588287,2,3,3,0,-6.78,-1.53,0.6899999999999999,-8.58,-7.85,2.31
13.58748185634613,2,3,3,0,-6.85,-1.6,0.66,-8.470000000000001,-7.51,2.22
13.59748184680939,2,3,3,0,-6.99,-1.47,0.72,-8.08,-7.04,2.18
13.60748183727264,2,3,3,0,-6.87,-1.42,0.77,-7.47,-6.39,2.13
13.6174818277359,2,3,3,0,-6.93,-0.98,0.96,-6.94,-5.44,2.08
13.62748205661774,2,3,3,0,-6.98,-0.7,1.03,-6.76,-4.38,1.99
13.63748204708099,2,3,3,0,-7,-0.47,1.08,-6.64,-3.29,1.65
13.64748203754425,2,3,3,0,-7.03,-0.35,1.24,-6.4,-2,1.22
13.65748202800751,2,3,3,0,-7.28,-0.15,1.03,-6.15,-0.93,0.85
13.66748201847076,2,3,3,0,-7.62,-0.01,1.11,-5.84,0.16,0.43
13.67748200893402,2,3,3,0,-7.89,0.17,1.21,-5.65,0.92,-0.29
13.68748199939728,2,3,3,0,-8.039999999999999,0.1,1.29,-5.26,1.12,-1.23
13.69748198986053,2,3,3,0,-8.68,-0.08,1.16,-4.87,1.35,-2.15
13.70748198032379,2,3,3,0,-9,-0.06,1.43,-4.6,1.69,-2.98
13.71748197078705,2,3,3,0,-8.960000000000001,-0.38,1.41,-4.12,1.19,-3.83
13.72748196125031,2,3,3,0,-9.84,-0.15,0.9399999999999999,-5.12,0.12,-5.03
13.73748195171356,2,3,3,0,-9.640000000000001,-0.14,0.39,-6.03,-1.26,-5.45
13.74748194217682,2,3,3,0,-9.4,-0.13,-0.23,-5.37,-2.13,-4.6
13.75748193264008,2,3,3,0,-9.6,-0.21,-0.2,-4.21,-0.9,-2.88
13.76748192310333,2,3,3,0,-9.460000000000001,-1.08,0.52,-3.19,-0.1,-1.21
13.77748191356659,2,3,3,0,-9.85,-1.52,0.78,-3.74,0.12,0
13.78748190402985,2,3,3,0,-10.46,-1.8,1.11,-5.13,-0.34,1.06
13.7974818944931,2,3,3,0,-10.98,-1.98,1.16,-6.4,-1.91,1.7
13.80748188495636,2,3,3,0,-10.93,-1.1,0.6899999999999999,-7.29,-3.78,1.9
13.81748187541962,2,3,3,0,-10.77,-0.09,1.08,-6.97,-4,2.01
13.82748186588287,2,3,3,0,-11.17,0.49,1.48,-5.56,-2.93,1.91
13.83748185634613,2,3,3,0,-11.79,0.73,1.88,-4.71,-3.16,1.47
13.84748184680939,2,3,3,0,-13.58,0.14,1.86,-5.21,-4.66,0.9399999999999999
13.85748183727264,2,3,3,0,-14.34,-0.96,0.48,-5.75,-6.9,0.8100000000000001
13.8674818277359,2,3,3,0,-14.55,-1.78,-0.08,-5.96,-9.119999999999999,1.95
13.87748205661774,2,3,3,0,-13.44,-2.74,-0.48,-5.73,-9.84,2.57
13.88748204708099,2,3,3,0,-12.83,-3.57,0.86,-4.01,-10.08,2.06
13.89748203754425,2,3,3,0,-12.37,-4.19,1.58,-1.42,-9.27,1.68
13.90748202800751,2,3,3,0,-11.83,-3.35,0.87,-0.48,-9.25,1.61
13.91748201847076,2,3,3,0,-10.77,-1.59,2.98,1.55,-7.47,1.38
13.92748200893402,2,3,3,0,-10.13,-0.93,3.18,3.88,-6.98,0.43
13.93748199939728,2,3,3,0,-9.69,-0.9399999999999999,3.19,3.92,-6.03,-0.21
13.94748198986053,2,3,3,0,-9.619999999999999,-1.42,2.45,2.29,-4.62,-0.35
13.95748198032379,2,3,3,0,-10.02,-3.68,0.71,0.43,-3.47,-0.7
13.96748197078705,2,3,3,0,-10.32,-4.3,-0.01,-1,-2.9,-1.17
13.97748196125031,2,3,3,0,-10.3,-4.74,-0.44,-2.01,-2.25,-1.7
13.98748195171356,2,3,3,0,-9.93,-5,-0.76,-2.52,-1.2,-2.42
13.99748194217682,2,3,3,0,-9.140000000000001,-4.87,-0.41,-2.35,-0.29,-3.38
14.00748193264008,2,3,3,0,-8.890000000000001,-4.52,-0.3,-1.87,0.32,-4.06
14.01748192310333,2,3,3,0,-8.26,-4.2,0.26,-1.37,1.05,-4.25
14.02748191356659,2,3,3,0,-7.75,-4.11,0.63,-0.87,2.1,-3.76
14.03748190402985,2,3,3,0,-7.85,-3.85,0.62,-0.51,3.18,-2.87
14.0474818944931,2,3,3,0,-8.06,-3.83,0.41,-0.22,3.76,-1.78
14.05748188495636,2,3,3,0,-8.449999999999999,-3.9,0.15,0.24,4.18,-0.8
14.06748187541962,2,3,3,0,-8.890000000000001,-3.93,-0.16,1.16,4.63,-0.09
14.07748186588287,2,3,3,0,-9,-3.92,-0.36,2.43,4.86,0.4
14.08748185634613,2,3,3,0,-8.9,-3.76,-0.41,4.02,5.2,0.62
14.09748184680939,2,3,3,0,-8.68,-3.6,-0.38,6.12,5.38,0.38
14.10748183727264,2,3,3,0,-8.210000000000001,-2.79,-0.53,8.130000000000001,5.44,-0.26
14.1174818277359,2,3,3,0,-8.08,-2.32,-0.27,9.82,5.55,-1.12
14.12748205661774,2,3,3,0,-7.83,-2.05,-0.28,10.78,5.81,-2.04
14.13748204708099,2,3,3,0,-7.76,-1.9,-0.19,11.2,6.03,-2.83
14.14748203754425,2,3,3,0,-7.85,-1.54,-0.32,10.89,6.15,-3.3
14.15748202800751,2,3,3,0,-8.08,-1.31,-0.4,10.21,5.86,-3.65
14.16748201847076,2,3,3,0,-8.25,-1.03,-0.34,9.300000000000001,5.47,-3.73
14.17748200893402,2,3,3,0,-8.279999999999999,-0.99,-0.28,8.57,4.54,-3.48
14.18748199939728,2,3,3,0,-8.57,-0.78,-0.21,7.82,3.51,-3.03
14.19748198986053,2,3,3,0,-8.52,-0.82,-0.39,7.09,2.57,-2.61
14.20748198032379,2,3,3,0,-8.94,-0.6899999999999999,-0.34,6.65,2.02,-2.45
14.21748197078705,2,3,3,0,-9.17,-0.74,-0.44,6.39,1.54,-2.44
14.22748196125031,2,3,3,0,-9.34,-0.61,-0.28,6.09,1.08,-2.75
14.23748195171356,2,3,3,0,-9.42,-0.52,-0.32,6.01,0.68,-3.33
14.24748194217682,2,3,3,0,-9.449999999999999,-0.49,-0.17,5.81,0.12,-3.99
14.25748193264008,2,3,3,0,-9.300000000000001,-0.47,-0.32,5.5,-0.68,-4.66
14.26748192310333,2,3,3,0,-9.289999999999999,-0.42,-0.28,5.16,-1.39,-5.2
14.27748191356659,2,3,3,0,-8.949999999999999,-0.42,-0.31,4.57,-1.91,-5.46
14.28748190402985,2,3,3,0,-8.92,-0.58,-0.25,3.94,-2.15,-5.44
14.2974818944931,2,3,3,0,-9.449999999999999,-1.1,-0.21,3.32,-2.33,-5.19
14.30748188495636,2,3,3,0,-9.65,-1.6,-0.24,2.83,-2.81,-4.8
14.31748187541962,2,3,3,0,-9.52,-2.03,0.01,2.73,-3.16,-4.38
14.32748186588287,2,3,3,0,-9.31,-2.37,0.12,3.14,-2.97,-4.17
14.33748185634613,2,3,3,0,-8.52,-2.64,0.29,4.05,-2.04,-3.96
14.34748184680939,2,3,3,0,-8.300000000000001,-2.52,0.22,5.44,-0.64,-3.74
14.35748183727264,2,3,3,0,-8.32,-2.1,-0.07000000000000001,6.79,0.71,-3.3
14.3674818277359,2,3,3,0,-8.49,-1.61,-0.37,7.69,1.93,-2.7
14.37748205661774,2,3,3,0,-8.960000000000001,-0.6899999999999999,-0.73,8.48,3.07,-2.22
14.38748204708099,2,3,3,0,-9.1,-0.07000000000000001,-0.67,8.92,4.31,-1.74
14.39748203754425,2,3,3,0,-9.220000000000001,0.68,-0.54,9.08,5.55,-1.17
14.40748202800751,2,3,3,0,-9.43,1.1,-0.47,9.08,6.6,-0.47
14.41748201847076,2,3,3,0,-10.32,1.07,0.06,9.52,7.9,0.04
14.42748200893402,2,3,3,0,-11.17,0.89,0.36,10.04,9.140000000000001,0.27
14.43748199939728,2,3,3,0,-12.02,0.68,0.58,9.76,9.630000000000001,0.5600000000000001
14.44748198986053,2,3,3,0,-12.42,0.72,0.61,8.49,9.27,0.98
14.45748198032379,2,3,3,0,-12.13,0.54,-0.21,6.44,8.800000000000001,1.27
14.46748197078705,2,3,3,0,-12.25,0,-0.34,3.64,8.890000000000001,1.09
14.47748196125031,2,3,3,0,-12.25,-0.78,-0.44,1.38,8.93,0.79
14.48848187923431,2,3,3,0,-11.4,-1.89,-1.54,-0.87,8.76,0.63
14.49848186969757,2,3,3,0,-11.13,-2.6,-1.76,-3.73,8.93,0.39
14.50848186016083,2,3,3,0,-11.24,-3.54,-1.82,-6.21,8.640000000000001,0.51
14.51848185062408,2,3,3,0,-11.22,-5.09,-1.62,-8.050000000000001,7.65,1.57
14.52848184108734,2,3,3,0,-10.9,-7.62,-1.31,-8.56,7.04,3.12
14.5384818315506,2,3,3,0,-10.56,-7.98,-0.62,-7.22,6.94,4.79
14.54848206043243,2,3,3,0,-10.07,-7.75,0.1,-4.61,6.66,6.22
14.55848205089569,2,3,3,0,-9.640000000000001,-7.02,0.59,-2.29,5.91,7.21
14.56848204135895,2,3,3,0,-9.92,-5.32,1.27,-0.9399999999999999,5.2,7.86
14.5784820318222,2,3,3,0,-10.44,-4.7,1.23,-0.41,4.41,8.289999999999999
14.58848202228546,2,3,3,0,-10.52,-4.18,1.02,-0.5,2.77,8.52
14.59848201274872,2,3,3,0,-10.36,-3.57,0.38,-1.12,0.67,8.550000000000001
14.60848200321198,2,3,3,0,-11.56,-2.22,-0.27,-2.26,-0.66,8.32
14.61848199367523,2,3,3,0,-11.9,-1.91,-0.92,-3.02,-2.22,7.73
14.62848198413849,2,3,3,0,-12.53,-1.85,-1.23,-3.46,-2.78,6.73
14.63848197460175,2,3,3,0,-12.42,-1.62,-0.98,-3.2,-2.8,5.49
14.648481965065,2,3,3,0,-11.66,-1.22,-0.11,-3.07,-3.44,4.25
14.65848195552826,2,3,3,0,-10.21,-0.74,0.35,-4.09,-4.84,3.36
14.66848194599152,2,3,3,0,-9.5,-0.63,0.68,-5.83,-5.7,2.59
14.67848193645477,2,3,3,0,-8.77,-0.46,0.83,-8.119999999999999,-6.04,2.16
14.68848192691803,2,3,3,0,-8.42,-0.43,0.66,-10.24,-6.79,1.85
14.69848191738129,2,3,3,0,-7.6,-0.53,0.53,-11.83,-8.220000000000001,1.56
14.70848190784454,2,3,3,0,-6.92,-0.67,0.32,-12.89,-9.19,1.61
14.7184818983078,2,3,3,0,-6.7,-1.25,0.37,-13.6,-9.33,1.92
14.72848188877106,2,3,3,0,-6.61,-1.59,0.52,-13.78,-9.369999999999999,2.27
14.73848187923431,2,3,3,0,-6.68,-1.67,0.49,-13.36,-9.06,2.7
14.74848186969757,2,3,3,0,-6.7,-1.62,0.59,-12.68,-8.609999999999999,3.01
14.75848186016083,2,3,3,0,-6.91,-1.24,0.4,-11.89,-8.15,2.95
14.76848185062408,2,3,3,0,-6.92,-0.96,0.36,-11.21,-7.14,2.38
14.77848184108734,2,3,3,0,-7.16,-0.62,0.83,-10.23,-5.19,1.68
14.7884818315506,2,3,3,0,-6.92,-0.5,0.78,-8.970000000000001,-3.78,1.09
14.79848206043243,2,3,3,0,-7.08,-0.2,0.9,-8.27,-2.49,0.09
14.80848205089569,2,3,3,0,-7.5,-0.16,1.12,-8.18,-0.93,-0.96
14.81848204135895,2,3,3,0,-8.039999999999999,-0.24,1.48,-7.82,-0.02,-1.8
14.8284820318222,2,3,3,0,-8,-0.21,1.5,-8.24,-0.57,-2.83
14.83848202228546,2,3,3,0,-7.95,0.04,0.68,-8.970000000000001,-0.85,-3.67
14.84848201274872,2,3,3,0,-8.33,0.08,0.77,-8.31,0.04,-3.88
14.85848200321198,2,3,3,0,-8.58,-0.12,0.92,-6.83,0.12,-3.87
14.86848199367523,2,3,3,0,-8.77,-0.21,0.06,-6.48,-0.76,-3.79
14.87848198413849,2,3,3,0,-9.19,-0.08,0.34,-6.88,-0.67,-2.99
14.88848197460175,2,3,3,0,-9.43,-0.12,0.78,-6.05,0.25,-1.18
14.898481965065,2,3,3,0,-9.49,-0.4,0.77,-5.38,-0.2,0.7
14.90848195552826,2,3,3,0,-10.55,-1.38,0.32,-6.68,-1.3,1.42
14.91848194599152,2,3,3,0,-11.46,-1.69,0.45,-8.57,-2.13,1.31
14.92848193645477,2,3,3,0,-11.85,-1.55,0.67,-9.33,-2.72,1.09
14.93848192691803,2,3,3,0,-11.49,-1.11,0.77,-8.81,-3.29,1.27
14.94848191738129,2,3,3,0,-10.61,0.28,1.74,-7.38,-2.34,1.35
14.95848190784454,2,3,3,0,-10.65,0.82,2.12,-6.02,-0.9,1.07
14.9684818983078,2,3,3,0,-11.68,0.61,2.05,-5.25,-0.13,0.66
14.97848188877106,2,3,3,0,-13.09,0.12,1.95,-5.09,-1.76,0.83
14.98848187923431,2,3,3,0,-14.35,-1.91,1.31,-5.63,-4.52,0.97
14.99848186969757,2,3,3,0,-14.55,-2.39,1.48,-6.09,-6.8,0.93
15.00848186016083,2,3,3,0,-14.04,-2.37,1.41,-5.05,-8.460000000000001,1.23
15.01848185062408,2,3,3,0,-12.81,-2.1,0.28,-2.76,-9.890000000000001,1.28
15.02848184108734,2,3,3,0,-11.55,-4.29,0.49,1.36,-9.640000000000001,1.59
15.0384818315506,2,3,3,0,-12.41,-4.64,0.19,3.48,-10.39,1.69
15.04848206043243,2,3,3,0,-12.59,-3.78,0.4,3.7,-11.1,1.53
15.05848205089569,2,3,3,0,-12.08,-1.87,1.25,4.61,-10.41,1.26
15.06848204135895,2,3,3,0,-9.949999999999999,-0.84,1.59,6.01,-9.48,1.08
15.0784820318222,2,3,3,0,-9.369999999999999,-0.68,1.79,5.51,-8.029999999999999,0.6899999999999999
15.08848202228546,2,3,3,0,-8.859999999999999,-0.71,1.53,3.26,-6.35,0.19
15.09848201274872,2,3,3,0,-9.01,-2.34,0.48,0.84,-4.64,-0.58
15.10848200321198,2,3,3,0,-8.98,-3.34,0.07000000000000001,-1.21,-3.82,-1.28
15.11848199367523,2,3,3,0,-9.199999999999999,-4.35,-0.32,-2.57,-3.5,-1.94
15.12848198413849,2,3,3,0,-9.779999999999999,-5.11,-0.61,-3.33,-3.13,-2.72
15.13848197460175,2,3,3,0,-9.619999999999999,-5.25,-0.46,-3.27,-2.72,-3.16
15.148481965065,2,3,3,0,-9.44,-4.39,-0.16,-2.69,-2.26,-3.03
15.15848195552826,2,3,3,0,-8.4,-3.87,0.52,-1.82,-1.48,-2.71
15.16848194599152,2,3,3,0,-8.210000000000001,-3.86,0.76,-0.86,-0.04,-2.78
15.17848193645477,2,3,3,0,-8.01,-3.09,0.83,-0.2,1.54,-2.69
15.18848192691803,2,3,3,0,-8.43,-3.09,0.74,0.2,2.77,-2.35
15.19848191738129,2,3,3,0,-8.970000000000001,-3.15,0.4,0.4,3.74,-1.97
15.20848190784454,2,3,3,0,-8.630000000000001,-3.45,0.2,0.8,4.36,-1.39
15.2184818983078,2,3,3,0,-8.699999999999999,-3.53,-0.23,1.73,5.22,-0.85
15.22848188877106,2,3,3,0,-8.640000000000001,-3.51,-0.26,3.2,5.81,-0.78
15.23848187923431,2,3,3,0,-8.609999999999999,-3.35,-0.26,5.06,6.16,-1.1
15.24848186969757,2,3,3,0,-8.380000000000001,-3.01,-0.25,6.87,6.63,-1.41
15.25848186016083,2,3,3,0,-8.18,-2.21,-0.29,8.42,7.15,-2.02
15.26848185062408,2,3,3,0,-8.18,-1.88,-0.12,9.66,7.57,-2.83
15.27848184108734,2,3,3,0,-8.17,-1.51,0.1,10.33,7.73,-3.44
15.2884818315506,2,3,3,0,-8.16,-1.02,0,10,7.44,-3.85
15.29848206043243,2,3,3,0,-8.029999999999999,-0.96,-0.08,9.4,7.06,-4.01
15.30848205089569,2,3,3,0,-7.9,-0.78,-0.07000000000000001,8.630000000000001,6.32,-4.09
15.31848204135895,2,3,3,0,-7.96,-0.72,-0.04,7.76,5.64,-3.93
15.3284820318222,2,3,3,0,-8.630000000000001,-0.74,0.12,7.03,4.77,-3.66
15.33848202228546,2,3,3,1,-8.76,-0.76,0,6.34,3.56,-3.47
15.34848201274872,2,3,3,1,-8.73,-0.71,-0.11,5.83,2.32,-3.65
15.35848200321198,2,3,3,1,-8.91,-0.74,-0.24,5.55,1.66,-4.01
15.36848199367523,2,3,3,1,-9.19,-0.74,-0.05,5.35,1.19,-4.44
15.37848198413849,2,3,3,1,-9.289999999999999,-0.77,-0.24,5.01,0.58,-4.88
15.38848197460175,2,3,3,1,-9.33,-0.9399999999999999,-0.12,4.76,0.15,-5.31
15.398481965065,2,3,3,1,-9.33,-1.16,-0.04,4.92,-0.14,-5.48
15.40848195552826,2,3,3,1,-9.460000000000001,-1.18,-0.07000000000000001,5.04,-0.21,-5.2
15.41848194599152,2,3,3,1,-9.380000000000001,-1.3,0.03,5.33,-0.49,-4.44
15.42848193645477,2,3,3,1,-9.199999999999999,-1.27,-0.01,5.69,-0.74,-3.49
15.43848192691803,2,3,3,2,-8.98,-1.39,-0.1,6.1,-0.77,-2.53
15.44848191738129,2,3,3,2,-9.119999999999999,-1.28,-0.41,6.52,-0.29,-1.65
15.45848190784454,2,3,3,2,-9.08,-1.25,-0.49,7.27,0.31,-1.21
15.4684818983078,2,3,3,2,-9.09,-1.18,-0.35,8.34,1.15,-1.14
15.47848188877106,2,3,3,2,-8.859999999999999,-0.51,0.19,9.49,2.18,-1.2
15.48848187923431,2,3,3,2,-8.9,0.23,0,9.74,3.04,-1.14
15.49848186969757,2,3,3,2,-9.01,0.82,-0.22,9.27,3.94,-1.01
15.50948202610016,2,3,3,2,-9.23,1.22,-0.39,8.380000000000001,4.58,-0.6899999999999999
15.51948201656342,2,3,3,2,-9.57,1.34,-0.23,7.15,5,-0.25
15.52948200702667,2,3,3,2,-9.960000000000001,0.98,-0.31,6.2,5.6,-0.05
15.53948199748993,2,3,3,2,-10.65,0.55,-0.31,5.77,6.62,-0.29
15.54948198795319,2,3,3,2,-11.35,0.17,-0.38,5.51,7.73,-0.65
15.55948197841644,2,3,3,2,-12.07,-0.2,-0.22,5.19,8.67,-0.83
15.5694819688797,2,3,3,2,-11.98,-0.53,0.12,4.58,9.34,-0.65
15.57948195934296,2,3,3,2,-11.88,-0.7,0.23,3.59,10.12,-0.36
15.58948194980621,2,3,3,2,-11.87,-0.89,0.23,2.22,10.67,0.05
15.59948194026947,2,3,3,2,-11.12,-1.83,-0.41,0.52,10.74,0.44
15.60948193073273,2,3,3,2,-10.9,-2.55,-1.19,-2.08,10.43,0.82
15.61948192119598,2,3,3,2,-11.01,-3.54,-1.45,-4.98,9.609999999999999,1.47
15.62948191165924,2,3,3,2,-11.13,-5.13,-1.37,-7,8.34,2.72
15.6394819021225,2,3,3,2,-11.03,-7.86,-1.37,-7.5,7.73,4.39
15.64948189258575,2,3,3,2,-10.69,-8.140000000000001,-0.99,-6.2,7.28,5.96
15.65948188304901,2,3,3,2,-10.44,-7.76,-0.5,-3.67,6.34,7.22
15.66948187351227,2,3,3,2,-10.35,-6.9,0.07000000000000001,-1.16,5.25,8.199999999999999
15.67948186397552,2,3,3,2,-11.3,-4.82,0.71,0.32,4.27,8.630000000000001
15.68948185443878,2,3,3,2,-11.62,-3.85,0.95,0.76,3.19,8.59
15.69948184490204,2,3,3,2,-11.76,-3.2,0.84,0.67,1.84,8.449999999999999
15.7094818353653,2,3,3,2,-12.07,-1.91,0.52,-0.21,0.59,8.199999999999999
15.71948182582855,2,3,3,2,-12.48,-1.48,-0.01,-1.53,-1.09,7.87
15.72948205471039,2,3,3,2,-12.75,-1.16,-0.38,-2.82,-1.82,7.15
15.73948204517365,2,3,3,2,-12.67,-1.13,-0.43,-3.43,-2.29,5.65
15.7494820356369,2,3,3,2,-11.36,-1,-0.38,-3.75,-3.25,3.97
15.75948202610016,2,3,3,2,-10.43,-0.9,-0.22,-4.36,-4.24,2.63
15.76948201656342,2,3,3,2,-9.619999999999999,-0.82,0,-5.49,-4.87,1.7
15.77948200702667,2,3,3,2,-8.99,-0.64,0.18,-7.18,-5.82,1.64
15.78948199748993,2,3,3,2,-8.289999999999999,-0.27,0.45,-9.029999999999999,-6.93,1.89
15.79948198795319,2,3,3,2,-7.51,-0.32,0.57,-10.49,-7.92,1.83
15.80948197841644,2,3,3,2,-7.07,-0.5,0.52,-11.62,-8.93,1.91
15.8194819688797,2,3,3,2,-6.7,-0.85,0.57,-12.52,-8.859999999999999,2.39
15.82948195934296,2,3,3,2,-6.43,-1.22,0.45,-13.3,-8.109999999999999,2.94
15.83948194980621,2,3,3,2,-6.65,-1.36,0.2,-12.86,-8.33,2.57
15.84948194026947,2,3,3,2,-6.57,-1.38,0.04,-12.34,-8,1.89
15.85948193073273,2,3,3,2,-6.63,-1.21,0.26,-11.41,-6.79,1.3
15.86948192119598,2,3,3,2,-6.87,-1.02,0.79,-10.01,-5.58,1.06
15.87948191165924,2,3,3,2,-6.8,-0.86,0.68,-8.84,-4.64,0.83
15.8894819021225,2,3,3,2,-6.75,-0.7,0.67,-8.16,-3.31,0.12
15.89948189258575,2,3,3,2,-6.84,-0.36,0.96,-7.62,-1.59,-0.6899999999999999
15.90948188304901,2,3,3,2,-6.95,-0.31,1.01,-7.2,0.05,-1.33
15.91948187351227,2,3,3,2,-7.31,-0.4,1.31,-6.6,1.54,-2.09
15.92948186397552,2,3,3,2,-7.58,-0.49,1.43,-5.85,2.32,-2.88
15.93948185443878,2,3,3,2,-7.79,-0.48,1.29,-5.45,2.21,-3.57
15.94948184490204,2,3,3,2,-8.09,-0.43,1.06,-5.15,2.29,-4.25
15.9594818353653,2,3,3,2,-8.41,-0.43,0.74,-4.19,2.38,-4.56
15.96948182582855,2,3,3,2,-8.800000000000001,-0.47,0.7,-3.32,2.08,-4.44
15.97948205471039,2,3,3,2,-9.210000000000001,-0.55,0.17,-2.8,1.52,-4.13
15.98948204517365,2,3,3,2,-9.56,-0.43,0.23,-2.67,1.54,-3.55
15.9994820356369,2,3,3,2,-9.76,-0.54,0.6899999999999999,-2.31,1.53,-2.71
16.00948202610016,2,3,3,2,-9.9,-0.99,0.52,-2.37,0.44,-1.85
16.01948201656342,2,3,3,2,-10.56,-2.13,0.13,-3.56,-0.52,-1.17
16.02948200702667,2,3,3,2,-11.21,-2.24,-0.11,-5.11,-1.48,-1.12
16.03948199748993,2,3,3,2,-11.33,-2.06,-0.36,-6.43,-2.47,-1.6
16.04948198795319,2,3,3,2,-11.25,-1.42,0.18,-5.83,-2.21,-1.18
16.05948197841644,2,3,3,2,-10.88,0.34,1.34,-3.48,-1.12,-0.22
16.0694819688797,2,3,3,2,-10.97,1.2,1.47,-1.33,-0.79,0.64
16.07948195934296,2,3,3,2,-11.25,1.97,1.68,-0.49,-1.08,1.19
16.08948194980621,2,3,3,2,-13.38,2.1,1.86,-1.06,-2.25,1.41
16.09948194026947,2,3,3,2,-13.75,1.44,1.65,-2.31,-5.03,1.77
16.10948193073273,2,3,3,2,-13.82,0.48,1.35,-3.91,-8,1.79
16.11948192119598,2,3,3,2,-13.89,-0.42,1.44,-4.94,-9.44,1.88
16.12948191165924,2,3,3,2,-13.16,-0.4,0.62,-5.45,-10.39,2.61
16.1394819021225,2,3,3,2,-12.06,-1.43,1.03,-4.57,-10.24,3.82
16.14948189258575,2,3,3,2,-11.47,-2.95,0.23,-1.95,-9.94,4.11
16.15948188304901,2,3,3,2,-11.93,-4.42,0.43,-0.99,-10.73,2.91
16.16948187351227,2,3,3,2,-12.14,-3.68,1.52,-1.22,-11.04,0.98
16.17948186397552,2,3,3,2,-11.18,-2,1.49,-0.35,-10.36,-0.5
16.18948185443878,2,3,3,1,-10.15,-1.51,1.67,1.72,-8.49,-1.07
16.19948184490204,2,3,3,1,-9.1,-1.32,1.62,2.27,-6.54,-1.44
16.2094818353653,2,3,3,1,-7.88,-1.35,1.02,0.46,-4.64,-1.51
16.21948182582855,2,3,3,1,-8.24,-2.35,0.53,-1.71,-3.04,-1.29
16.22948205471039,2,3,3,1,-8.35,-3.58,0.28,-3.17,-2.62,-1.36
16.23948204517365,2,3,3,1,-8.69,-4.55,0.06,-4.28,-2.45,-1.2
16.2494820356369,2,3,3,1,-10.76,-5.67,-0.6,-4.73,-2.15,-0.88
16.25948202610016,2,3,3,1,-10.91,-5.41,-0.85,-4.29,-1.96,-1.04
16.26948201656342,2,3,3,1,-10.33,-4.74,-0.55,-3.22,-1.8,-1.36
16.27948200702667,2,3,3,1,-8.9,-4.16,0.41,-1.85,-1.05,-1.51
16.28948199748993,2,3,3,0,-8.73,-3.85,0.52,-0.35,0.59,-1.7
16.29948198795319,2,3,3,0,-8.550000000000001,-3.56,0.6899999999999999,0.76,2.53,-1.89
16.30948197841644,2,3,3,0,-8.44,-3.58,0.67,1.42,3.94,-1.95
16.3194819688797,2,3,3,0,-8.85,-3.63,0.36,2.01,4.86,-1.77
16.32948195934296,2,3,3,0,-8.85,-3.61,0.19,2.69,5.29,-1.35
16.33948194980621,2,3,3,0,-8.67,-3.63,-0.01,3.61,5.55,-0.84
16.34948194026947,2,3,3,0,-8.550000000000001,-3.57,-0.17,4.82,5.69,-0.67
16.35948193073273,2,3,3,0,-8.27,-3.17,-0.4,6.34,5.73,-0.95
16.36948192119598,2,3,3,0,-8.32,-3.04,-0.35,7.9,5.84,-1.41
16.37948191165924,2,3,3,0,-8.25,-2.73,-0.3,9.18,5.93,-1.96
16.3894819021225,2,3,3,0,-8.17,-2.36,-0.23,9.91,5.92,-2.76
16.39948189258575,2,3,3,0,-7.95,-1.76,-0.35,10.34,5.68,-3.38
16.40948188304901,2,3,3,0,-8.06,-1.54,-0.27,10.13,5.32,-3.83
16.41948187351227,2,3,3,0,-7.96,-1.41,-0.28,9.48,4.73,-3.96
16.42948186397552,2,3,3,0,-8.07,-1.34,-0.24,8.94,3.96,-3.86
16.43948185443878,2,3,3,0,-8.23,-1.22,-0.23,8.859999999999999,3.31,-3.54
16.44948184490204,2,3,3,0,-8.51,-1.1,-0.15,8.869999999999999,2.76,-3.26
16.4594818353653,2,3,3,0,-8.699999999999999,-0.83,-0.32,8.66,1.86,-3.09
16.46948182582855,2,3,3,0,-8.779999999999999,-0.74,-0.3,8.34,1.2,-3.05
16.47948205471039,2,3,3,0,-9.25,-0.59,0.03,8.140000000000001,0.8100000000000001,-3.26
16.48948204517365,2,3,3,0,-9.380000000000001,-0.42,0,7.71,0.18,-3.71
16.4994820356369,2,3,3,0,-9.539999999999999,-0.28,-0.08,7.08,-0.28,-4.27
16.50948202610016,2,3,3,0,-9.470000000000001,-0.28,-0.44,6.38,-0.61,-4.81
16.51948201656342,2,3,3,0,-9.26,-0.43,-0.36,5.47,-0.66,-5.1
16.52948200702667,2,3,3,0,-9.08,-0.63,-0.16,4.69,-0.41,-5.09
16.54048192501068,2,3,3,0,-9.06,-0.83,-0.04,4.16,-0.18,-4.84
16.55048191547394,2,3,3,0,-8.789999999999999,-1.45,-0.03,4.06,0.08,-4.45
16.56048190593719,2,3,3,0,-8.9,-1.81,-0.04,4.34,0.5,-3.83
16.57048189640045,2,3,3,0,-8.85,-1.93,0.09,4.96,1.09,-3.08
16.58048188686371,2,3,3,0,-8.6,-1.84,0.24,6.05,1.58,-2.45
16.59048187732697,2,3,3,0,-8.42,-1.43,0.4,7.4,2.16,-2.05
16.60048186779022,2,3,3,0,-8.710000000000001,-1.18,0.43,8.619999999999999,2.76,-1.74
16.61048185825348,2,3,3,0,-8.94,-0.88,0.23,9.609999999999999,3.17,-1.48
16.62048184871674,2,3,3,0,-9.279999999999999,-0.65,0.1,10.76,3.19,-1.32
16.63048183917999,2,3,3,0,-9.16,0.61,-0.64,11.4,2.95,-1.17
16.64048182964325,2,3,3,0,-9.31,1.41,-0.57,11.06,3.27,-0.82
16.65048205852509,2,3,3,0,-9.550000000000001,1.93,-0.46,10.76,4.18,-0.55
16.66048204898834,2,3,3,0,-10,1.94,-0.6,10.3,5.58,-0.61
16.6704820394516,2,3,3,0,-11.55,1.45,-0.15,9.6,6.96,-0.88
16.68048202991486,2,3,3,0,-12.29,0.97,-0.09,8.539999999999999,7.88,-0.98
16.69048202037811,2,3,3,0,-12.23,0.35,-0.16,6.64,7.76,-0.77
16.70048201084137,2,3,3,0,-11.78,-0.86,-0.04,4.05,7.82,-0.62
16.71048200130463,2,3,3,0,-11.74,-1.68,0.11,1.75,8.199999999999999,-0.62
16.72048199176788,2,3,3,0,-11.69,-2.61,0.35,0.36,8.77,-0.5600000000000001
16.73048198223114,2,3,3,0,-11.17,-3.31,-0.06,-0.83,9.289999999999999,-0.22
16.7404819726944,2,3,3,0,-10.36,-4.38,-0.46,-2.89,10.05,-0.05
16.75048196315765,2,3,3,0,-10.45,-5.54,-0.35,-4.84,10.01,0.47
16.76048195362091,2,3,3,0,-10.46,-6.91,-0.8100000000000001,-6.35,8.960000000000001,2.05
16.77048194408417,2,3,3,0,-10.58,-7.7,-1.21,-6.72,8.4,4.15
16.78048193454742,2,3,3,0,-10.43,-7.71,-0.49,-5.12,8.119999999999999,6.1
16.79048192501068,2,3,3,0,-10.22,-7.02,0.25,-2.21,7.49,7.57
16.80048191547394,2,3,3,0,-10.33,-6.05,0.82,0.41,6.6,8.390000000000001
16.81048190593719,2,3,3,0,-10.78,-5.07,1.2,1.94,5.92,8.52
16.82048189640045,2,3,3,0,-11.79,-3.79,1.31,2.53,4.6,8.140000000000001
16.83048188686371,2,3,3,0,-11.9,-3.2,1.04,2.42,2.86,7.79
16.84048187732697,2,3,3,0,-12,-2.53,0.88,1.35,1.22,7.55
16.85048186779022,2,3,3,0,-12.21,-2.18,0.53,-0.05,-0.57,6.91
16.86048185825348,2,3,3,0,-12.59,-1.34,-0.42,-1.37,-1.78,5.92
16.87048184871674,2,3,3,0,-12.02,-1.2,-0.32,-2.03,-2.69,4.55
16.88048183917999,2,3,3,0,-11.67,-1.16,-0.24,-2.38,-3.55,2.75
16.89048182964325,2,3,3,0,-9.800000000000001,-0.83,0.15,-3.07,-4.46,1.38
16.90048205852509,2,3,3,0,-9.130000000000001,-0.75,0.37,-4.22,-5.47,0.57
16.91048204898834,2,3,3,0,-8.779999999999999,-0.51,0.4,-5.85,-6.89,0.62
16.9204820394516,2,3,3,0,-8.65,-0.23,0.42,-7.85,-8.130000000000001,0.84
16.93048202991486,2,3,3,0,-8.039999999999999,-0.58,0.82,-9.48,-9.06,0.72
16.94048202037811,2,3,3,0,-7.2,-0.8100000000000001,0.76,-10.67,-9.25,0.99
16.95048201084137,2,3,3,0,-7.06,-1.08,0.5600000000000001,-11.62,-8.56,1.7
16.96048200130463,2,3,3,0,-7.13,-1.39,0.19,-11.7,-8.56,1.52
16.97048199176788,2,3,3,0,-7.11,-1.62,0.07000000000000001,-11.6,-8.23,1.14
16.98048198223114,2,3,3,0,-7.22,-1.59,0.29,-10.9,-6.86,1.08
16.9904819726944,2,3,3,0,-7.3,-1.45,0.57,-9.470000000000001,-5.76,1.25
17.00048196315765,2,3,3,0,-7.31,-1.23,0.7,-8.1,-4.76,1.58
17.01048195362091,2,3,3,0,-7.38,-0.96,0.66,-7.06,-3.62,1.68
17.02048194408417,2,3,3,0,-7.5,-0.9,0.8100000000000001,-6.38,-2.21,1.6
17.03048193454742,2,3,3,0,-7.64,-0.8,0.93,-5.96,-1.17,1.51
17.04048192501068,2,3,3,0,-7.57,-0.73,0.68,-5.92,-0.47,1.29
17.05048191547394,2,3,3,0,-7.71,-0.71,0.8100000000000001,-5.8,0.77,0.74
17.06048190593719,2,3,3,0,-7.63,-0.77,0.96,-5.35,2.05,0.13
17.07048189640045,2,3,3,0,-7.76,-0.93,1.2,-4.65,2.8,-0.44
17.08048188686371,2,3,3,0,-7.96,-1.13,1.52,-3.91,2.89,-1.1
17.09048187732697,2,3,3,0,-8.16,-0.98,1.53,-3.7,2.3,-2.04
17.10048186779022,2,3,3,0,-8.59,-0.68,1.55,-4.14,1.84,-3.12
17.11048185825348,2,3,3,0,-8.890000000000001,-0.4,1.46,-4.58,1.14,-3.71
17.12048184871674,2,3,3,0,-9.19,-0.47,0.37,-4.54,0.26,-3.53
17.13048183917999,2,3,3,0,-9.25,-0.39,-0.26,-4.39,-0.14,-3.11
17.14048182964325,2,3,3,0,-9.470000000000001,-0.4,-0.06,-4.31,0.6,-2.75
17.15048205852509,2,3,3,0,-9.699999999999999,-0.67,0.39,-3.69,1.58,-2.27
17.16048204898834,2,3,3,0,-10.32,-1.3,0.4,-3.7,1.62,-1.61
17.18048202991486,2,3,3,0,-10.94,-1.87,0.24,-4.39,0.27,-0.27
17.19048202037811,2,3,3,0,-11.1,-1.72,0.09,-4.81,-0.6899999999999999,0
17.20048201084137,2,3,3,0,-11.17,-0.65,0.8,-4.78,-1.18,0.05
17.21048200130463,2,3,3,0,-11.21,-0.06,1.31,-3.72,-1.45,0.37
17.22048199176788,2,3,3,0,-11.3,0.5,1.33,-2.5,-1.88,0.8
17.23048198223114,2,3,3,0,-11.34,1.16,1.42,-1.89,-2.11,1.2
17.2404819726944,2,3,3,0,-11.6,2.13,1.91,-2.06,-2.44,1.27
17.25048196315765,2,3,3,0,-12.16,2.15,1.84,-2.91,-3.41,1.18
17.26048195362091,2,3,3,0,-12.08,1.78,1.91,-3.6,-5.32,1.63
17.27048194408417,2,3,3,0,-11.79,0.9,1.8,-4.89,-7.13,1.74
17.28048193454742,2,3,3,0,-12.01,-1.6,1.1,-5.83,-8.470000000000001,1.46
17.29048192501068,2,3,3,0,-12.12,-2.13,0.97,-5.5,-9.34,1.64
17.30048191547394,2,3,3,0,-11.68,-2.6,0.49,-4.7,-10.11,2.07
17.31048190593719,2,3,3,0,-11.78,-4.34,0.09,-3.28,-10.09,1.95
17.32048189640045,2,3,3,0,-12.28,-5.47,0.18,-2.06,-10.49,1.32
17.33048188686371,2,3,3,0,-12.75,-6.47,0.67,0.07000000000000001,-10.81,0.59
17.34048187732697,2,3,3,0,-12.14,-6.08,0.89,3.03,-10.58,0.16
17.35048186779022,2,3,3,0,-8.69,-1.86,1.5,5.85,-8.869999999999999,0.33
17.36048185825348,2,3,3,0,-7.38,-0.62,1.57,7.55,-6.27,0.22
17.37048184871674,2,3,3,0,-6.73,0.01,1.59,7.08,-3.77,-0.08
17.38048183917999,2,3,3,0,-6.8,0.07000000000000001,1.36,4.29,-1.66,0.26
17.39048182964325,2,3,3,1,-8.210000000000001,-1.97,0.49,1.2,-0.4,0.35
17.40048205852509,2,3,3,1,-8.210000000000001,-1.97,0.49,-1.4,-0.41,0.14
17.41048204898834,2,3,3,1,-10.33,-4.9,-0.58,-3.44,-0.63,0
17.4204820394516,2,3,3,1,-11.96,-5.79,-1.18,-4.32,-1.06,-0.14
17.43048202991486,2,3,3,1,-10.89,-5.49,-1.06,-3.83,-1.85,-0.48
17.44048202037811,2,3,3,1,-10.89,-5.49,-1.06,-2.11,-2.05,-0.7
17.45048201084137,2,3,3,1,-8.890000000000001,-4.2,0.1,0.09,-0.58,-0.97
17.48048198223114,2,3,3,1,-8.67,-3.3,0.62,3.9,4.74,-2.21
17.4904819726944,2,3,3,1,-8.98,-3.33,0.44,4.19,5.4,-1.65
17.50048196315765,2,3,3,1,-9.359999999999999,-3.49,-0.03,4.68,5.36,-0.96
17.51048195362091,2,3,3,1,-9.19,-3.39,-0.17,5.32,5.27,-0.38
17.52048194408417,2,3,3,1,-8.98,-3.4,-0.14,6.33,5.07,-0.17
17.53048193454742,2,3,3,1,-8.970000000000001,-3.28,-0.13,7.66,5.06,-0.3
17.54048192501068,2,3,3,1,-8.970000000000001,-3.28,-0.13,8.800000000000001,5.08,-0.46
17.55048191547394,2,3,3,1,-8.75,-2.75,-0.15,9.800000000000001,5.13,-0.7
17.56148183345795,2,3,3,1,-8.6,-2.15,-0.31,10.52,4.98,-1.26
17.5714818239212,2,3,3,1,-8.65,-1.74,-0.13,10.83,4.75,-1.83
17.58148205280304,2,3,3,1,-8.67,-1.28,-0.1,10.91,4.21,-2.15
17.5914820432663,2,3,3,1,-8.67,-1.28,-0.1,10.52,3.69,-2.39
17.63148200511932,2,3,3,1,-9.029999999999999,-0.34,-0.16,8.289999999999999,1.27,-2.94
17.64148199558258,2,3,3,1,-9.109999999999999,-0.32,-0.24,7.59,0.64,-3.14
17.65148198604584,2,3,3,1,-9.140000000000001,-0.18,-0.28,6.77,0.3,-3.46
17.66148197650909,2,3,3,1,-9.140000000000001,-0.32,-0.38,5.97,0.22,-3.82
17.67148196697235,2,3,3,1,-9.48,-0.4,-0.12,5.15,0.37,-4.27
17.68148195743561,2,3,3,1,-9.279999999999999,-0.71,0.03,4.35,0.16,-4.67
17.69148194789886,2,3,3,1,-9.279999999999999,-0.71,0.03,3.62,-0.3,-4.9
17.70148193836212,2,3,3,1,-9.039999999999999,-1.28,0.26,3.09,-0.79,-4.86
17.71148192882538,2,3,3,1,-8.880000000000001,-1.58,0.04,2.52,-1.23,-4.6
17.72148191928864,2,3,3,1,-8.91,-1.71,0.05,2.42,-1.49,-4.06
17.73148190975189,2,3,3,1,-8.789999999999999,-1.65,0.44,2.89,-1.61,-3.44
17.74148190021515,2,3,3,1,-8.789999999999999,-1.65,0.44,4.03,-1.53,-2.92
17.75148189067841,2,3,3,1,-8.470000000000001,-1.43,0.73,5.38,-1.04,-2.67
17.76148188114166,2,3,3,1,-8.73,-1.24,0.63,6.61,-0.46,-2.61
17.77148187160492,2,3,3,1,-8.890000000000001,-1.15,0.45,7.65,-0.4,-2.68
17.78148186206818,2,3,3,1,-8.869999999999999,-1.19,0.37,8.27,-0.31,-2.75
17.79148185253143,2,3,3,1,-9.01,-1.13,0.26,8.449999999999999,-0.06,-2.75
17.80148184299469,2,3,3,1,-9.1,-1,-0.02,8.19,0.37,-2.56
17.81148183345795,2,3,3,1,-9.279999999999999,-0.71,-0.4,7.93,0.88,-2.17
17.8214818239212,2,3,3,1,-9.34,-0.6,-0.4,7.61,1.42,-1.68
17.83148205280304,2,3,3,1,-9.43,-0.4,-0.53,7.4,2.07,-1.24
17.8414820432663,2,3,3,1,-9.43,-0.4,-0.53,7.4,2.07,-1.24
17.85148203372955,2,3,3,1,-9.5,-0.29,-0.47,7.58,2.99,-0.9
17.86148202419281,2,3,3,1,-10.05,0.03,-0.19,8.9,5.44,-0.61
17.87148201465607,2,3,3,1,-10.37,-0.06,0.01,8.9,6.36,-0.42
17.88148200511932,2,3,3,1,-10.51,-0.26,0.42,8.640000000000001,6.97,0.09
17.89148199558258,2,3,3,1,-10.51,-0.26,0.42,8.640000000000001,6.97,0.09
17.90148198604584,2,3,3,1,-10.34,-0.46,1.35,6.38,8.640000000000001,1.63
17.91148197650909,2,3,3,1,-10.51,-0.72,1.44,4.56,9.949999999999999,2.19
17.92148196697235,2,3,3,1,-11.59,-1.66,0.35,1.76,10.89,2.74
17.93148195743561,2,3,3,1,-12.68,-2.88,-0.22,-1.74,11.11,3.17
17.94148194789886,2,3,3,1,-12.68,-2.88,-0.22,-5.42,9.56,3.63
17.95148193836212,2,3,3,1,-13.81,-4.66,-0.6,-7.73,7,4.15
17.96148192882538,2,3,3,1,-13.95,-7.94,-1.55,-7.82,4.86,4.75
17.97148191928864,2,3,3,1,-12.79,-7.79,-0.43,-5.37,3.52,5.11
17.98148190975189,2,3,3,1,-11.39,-7.12,0.82,-1.53,3.01,5.23
17.99148190021515,2,3,3,2,-11.39,-7.12,0.82,1.69,2.8,5.07
18.00148189067841,2,3,3,2,-10.41,-6.28,1.76,3.26,2.1,4.7
18.01148188114166,2,3,3,2,-9.94,-3.44,2.55,3.11,0.4,4.26
18.02148187160492,2,3,3,2,-9.789999999999999,-2.76,2.13,1.63,-1.62,4.06
18.03148186206818,2,3,3,2,-9.539999999999999,-2.25,1.68,-0.33,-2.83,4.2
18.04148185253143,2,3,3,2,-9.539999999999999,-2.25,1.68,-2.04,-3.08,4.3
18.05148184299469,2,3,3,2,-10.87,-2.95,1.69,-2.04,-3.08,4.3
18.06148183345795,2,3,3,2,-11.28,-3.25,-0.75,-6.9,-5.09,1.96
18.0714818239212,2,3,3,2,-10.88,-3.16,-0.43,-6.24,-5.54,-0.01
18.08148205280304,2,3,3,2,-9.869999999999999,-3.1,0.38,-4.31,-5.42,-0.9399999999999999
18.0914820432663,2,3,3,2,-9.869999999999999,-3.1,0.38,-4.31,-5.42,-0.9399999999999999
18.10148203372955,2,3,3,2,-9.44,-3.13,0.42,-3.3,-5.32,-1.49
18.11148202419281,2,3,3,2,-8.210000000000001,-2.85,1.14,-2,-5.48,-1.29
18.12148201465607,2,3,3,2,-8.19,-2.63,1.41,-1.68,-5.72,-0.91
18.13148200511932,2,3,3,2,-8.24,-2.54,1.51,-1.97,-6.04,-0.67
18.14148199558258,2,3,3,2,-8.24,-2.54,1.51,-1.97,-6.04,-0.67
18.15148198604584,2,3,3,2,-8.210000000000001,-2.55,1.43,-2.47,-6.26,-0.42
18.16148197650909,2,3,3,2,-8.57,-2.67,1.49,-2.92,-6.16,0.04
18.17148196697235,2,3,3,2,-8.470000000000001,-2.78,1.49,-2.98,-5.94,0.12
18.18148195743561,2,3,3,2,-8.51,-2.9,1.45,-3.18,-5.78,-0.12
18.19148194789886,2,3,3,2,-8.51,-2.9,1.45,-3.18,-5.78,-0.12
18.20148193836212,2,3,3,2,-8.050000000000001,-2.81,0.97,-3.39,-5.57,-0.8
18.21148192882538,2,3,3,2,-7.95,-2.9,1.14,-2.07,-4.02,-1.45
18.22148191928864,2,3,3,2,-7.96,-2.93,1,-1.06,-3.66,-1.57
18.23148190975189,2,3,3,2,-8.050000000000001,-2.78,1.54,0.08,-3.07,-1.53
18.24148190021515,2,3,3,2,-8.050000000000001,-2.78,1.54,0.08,-3.07,-1.53
18.25148189067841,2,3,3,2,-7.9,-2.53,1.68,0.95,-2.62,-1.46
18.26148188114166,2,3,3,2,-7.64,-1.92,1.85,1.79,-1.71,-1.34
18.27148187160492,2,3,3,2,-7.99,-1.73,2,1.86,-0.74,-0.95
18.28148186206818,2,3,3,2,-8.26,-1.71,1.67,1.24,-0.6899999999999999,-0.83
18.29148185253143,2,3,3,2,-8.26,-1.71,1.67,1.24,-0.6899999999999999,-0.83
18.30148184299469,2,3,3,2,-8.630000000000001,-1.7,1.49,-0.08,-0.97,-1.03
18.31148183345795,2,3,3,2,-9.119999999999999,-2.05,1.02,-1.41,-0.28,-1.73
18.3214818239212,2,3,3,2,-9.09,-2.01,1.43,-1.47,0.43,-1.98
18.33148205280304,2,3,3,2,-8.98,-1.87,1.28,-1.42,0.96,-1.99
18.3414820432663,2,3,3,3,-8.98,-1.87,1.28,-1.42,0.96,-1.99
18.35148203372955,2,3,3,3,-8.42,-1.59,1.62,-0.9399999999999999,1.41,-1.79
18.36148202419281,2,3,3,3,-8.32,-1.34,1.53,-0.1,1.9,-1.08
18.37148201465607,2,3,3,3,-8.4,-0.99,1.42,-0.19,2.2,-0.63
18.38148200511932,2,3,3,3,-8.6,-0.74,1.76,-0.71,1.93,-0.28
18.39148199558258,2,3,3,3,-8.949999999999999,-0.54,1.77,-0.71,1.93,-0.28
18.40148198604584,2,3,3,3,-9.35,-0.35,1.72,-1.54,1.64,0.05
18.41148197650909,2,3,3,3,-9.49,-0.27,1.82,-3.29,1.92,0.41
18.42148196697235,2,3,3,3,-9.56,-0.21,1.75,-4.18,1.92,0.14
18.43148195743561,2,3,3,3,-9.49,-0.28,1.7,-4.62,1.99,-0.29
18.44148194789886,2,3,3,3,-9.33,-0.45,1.84,-4.62,1.99,-0.29
18.47148191928864,2,3,3,3,-10.28,-1.63,1.68,-4.82,2.17,0.76
18.48148190975189,2,3,3,3,-10.98,-1.92,1.3,-5.01,0.41,1.55
18.49148190021515,2,3,3,3,-11.79,-2.27,1.03,-5.01,0.41,1.55
18.50148189067841,2,3,3,3,-12.5,-3.12,1,-4.73,-1.66,2.36
18.51148188114166,2,3,3,3,-12.9,-3.78,0.02,-3.11,-4.89,2.58
18.52148187160492,2,3,3,3,-12.46,-3.57,0.11,-1.33,-4.82,2.34
18.53148186206818,2,3,3,3,-11.45,-3.38,0.55,0,-4.37,1.85
18.54148185253143,2,3,3,3,-9.220000000000001,-2.5,0.72,0,-4.37,1.85
18.55148184299469,2,3,3,3,-8.6,-2.04,0.96,0.83,-3.42,1.13
18.56148183345795,2,3,3,3,-8.19,-1.63,0.91,0.72,-1.74,0.28
18.5714818239212,2,3,3,3,-8.220000000000001,-1.41,0.95,0.18,-1.87,0.4
18.58148205280304,2,3,3,3,-8.470000000000001,-1.78,0.83,-0.66,-2.66,0.6
18.59248197078705,2,3,3,3,-8.73,-1.93,0.7,-0.66,-2.66,0.6
18.60248196125031,2,3,3,3,-9.140000000000001,-2.14,0.46,-1.53,-3.61,0.88
18.61248195171356,2,3,3,3,-9.539999999999999,-2.21,0.29,-3.01,-5.44,1.3
18.62248194217682,2,3,3,3,-9.84,-2.64,0.1,-3.31,-5.55,1.39
18.63248193264008,2,3,3,3,-9.68,-2.61,0.2,-3.58,-5.04,1.37
18.64248192310333,2,3,3,3,-9.779999999999999,-2.5,0.19,-3.58,-5.04,1.37
18.65248191356659,2,3,3,3,-9.789999999999999,-2.37,0.17,-3.82,-4.21,1.16
18.66248190402985,2,3,3,3,-9.859999999999999,-2.34,0.01,-4.33,-2.54,0.07000000000000001
18.6724818944931,2,3,3,3,-9.84,-2.49,-0.02,-4.49,-1.85,-0.58
18.68248188495636,2,3,3,3,-9.75,-2.63,0.03,-4.35,-1.2,-1.19
18.69248187541962,2,3,3,2,-9.470000000000001,-3.02,0.31,-4.35,-1.2,-1.19
18.70248186588287,2,3,3,2,-9.279999999999999,-3.06,0.41,-4.04,-0.5,-1.55
18.71248185634613,2,3,3,2,-9.199999999999999,-3,0.39,-3.12,0.65,-1.71
18.72248184680939,2,3,3,2,-9.24,-2.96,0.25,-2.42,1.17,-1.54
18.73248183727264,2,3,3,2,-9.26,-3.02,0.14,-1.91,1.7,-1.29
18.7424818277359,2,3,3,2,-9.300000000000001,-2.93,0.11,-1.91,1.7,-1.29
18.75248205661774,2,3,3,2,-9.380000000000001,-2.72,0.08,-1.33,2.33,-0.97
18.76248204708099,2,3,3,2,-9.539999999999999,-2.43,0.06,-0.34,2.59,-0.14
18.77248203754425,2,3,3,2,-9.74,-1.97,-0.19,-0.15,2.66,0.06
18.78248202800751,2,3,3,2,-9.74,-1.89,-0.17,-0.23,2.63,-0.04
18.79248201847076,2,3,3,2,-9.68,-1.8,-0.25,-0.23,2.63,-0.04
18.80248200893402,2,3,3,2,-9.65,-1.72,-0.37,-0.5,2.53,-0.31
18.81248199939728,2,3,3,2,-9.51,-1.92,-0.51,-1.23,2.59,-0.96
18.82248198986053,2,3,3,2,-9.550000000000001,-2.12,-0.66,-1.27,2.71,-1.17
18.83248198032379,2,3,3,2,-9.630000000000001,-2.35,-0.55,-1,2.56,-1.26
18.84248197078705,2,3,3,2,-9.74,-2.49,-0.41,-1,2.56,-1.26
18.85248196125031,2,3,3,2,-9.76,-2.49,-0.29,-0.6,2.04,-1.17
18.86248195171356,2,3,3,2,-9.76,-2.37,-0.22,-0.16,1.15,-0.66
18.87248194217682,2,3,3,2,-9.69,-2.19,-0.14,-0.07000000000000001,0.72,-0.32
18.88248193264008,2,3,3,2,-9.66,-2.09,0.06,-0.08,0.28,-0.04
18.89248192310333,2,3,3,2,-9.550000000000001,-1.93,0.32,-0.08,0.28,-0.04
18.90248191356659,2,3,3,2,-9.52,-1.79,0.41,-0.28,-0.03,0.16
18.91248190402985,2,3,3,2,-9.609999999999999,-1.72,0.58,-1.09,-0.67,0.54
18.9224818944931,2,3,3,2,-9.67,-1.78,0.53,-1.53,-1.02,0.75
18.93248188495636,2,3,3,2,-9.75,-1.94,0.78,-1.62,-1.64,0.87
18.94248187541962,2,3,3,2,-9.58,-2.09,0.73,-1.62,-1.64,0.87
18.95248186588287,2,3,3,2,-9.41,-2.08,0.46,-1.59,-1.98,0.92
18.96248185634613,2,3,3,2,-9.32,-2.23,0.47,-1.1,-0.82,1
18.97248184680939,2,3,3,2,-9.4,-2.37,0.44,-0.84,-0.05,0.9
18.98248183727264,2,3,3,2,-9.51,-2.59,0.58,-0.68,0.66,0.64
18.9924818277359,2,3,3,2,-9.550000000000001,-2.71,0.66,-0.68,0.66,0.64
19.00248205661774,2,3,3,2,-9.470000000000001,-2.83,0.83,-0.45,1.39,0.34
19.01248204708099,2,3,3,2,-9.48,-2.73,0.65,-0.05,2.38,-0.2
19.02248203754425,2,3,3,2,-9.460000000000001,-2.67,0.55,0.33,2.8,-0.36
19.03248202800751,2,3,3,2,-9.380000000000001,-2.71,0.65,0.78,3.06,-0.45
19.04248201847076,2,3,3,2,-9.289999999999999,-2.65,0.84,0.78,3.06,-0.45
19.05248200893402,2,3,3,2,-9.19,-2.63,0.88,1.26,3.03,-0.59
19.06248199939728,2,3,3,2,-9.09,-2.54,0.8,2.01,2.34,-0.95
19.07248198986053,2,3,3,2,-9.130000000000001,-2.45,0.76,2.18,1.81,-1.08
19.08248198032379,2,3,3,2,-9.19,-2.28,0.6,2.36,1.75,-1.13
19.09248197078705,2,3,3,2,-9.300000000000001,-2.26,0.59,2.36,1.75,-1.13
19.10248196125031,2,3,3,2,-9.390000000000001,-2.28,0.65,2.61,1.76,-1.09
19.11248195171356,2,3,3,2,-9.51,-2.42,0.68,2.96,1.93,-1.14
19.12248194217682,2,3,3,2,-9.56,-2.45,0.74,3.18,1.78,-1.2
19.13248193264008,2,3,3,2,-9.609999999999999,-2.46,0.77,3.33,1.63,-1.25
19.14248192310333,2,3,3,2,-9.74,-2.4,0.8,3.33,1.63,-1.25
19.15248191356659,2,3,3,2,-9.720000000000001,-2.29,0.73,3.5,1.39,-1.38
19.16248190402985,2,3,3,2,-9.699999999999999,-2.38,0.8,3.82,1.02,-1.6
19.1724818944931,2,3,3,2,-9.56,-2.37,0.77,3.88,0.86,-1.67
19.18248188495636,2,3,3,2,-9.529999999999999,-2.32,0.83,3.87,0.72,-1.62
19.19248187541962,2,3,3,2,-9.32,-2.34,0.86,3.87,0.72,-1.62
19.20248186588287,2,3,3,2,-9.42,-2.41,0.73,3.8,0.49,-1.53
19.21248185634613,2,3,3,2,-9.65,-2.42,0.47,3.39,-0.54,-1.04
19.22248184680939,2,3,3,2,-9.52,-2.27,0.35,3.21,-0.72,-0.76
19.23248183727264,2,3,3,2,-9.51,-2.11,0.6899999999999999,3.01,-0.6899999999999999,-0.47
19.2424818277359,2,3,3,2,-9.539999999999999,-1.93,0.79,3.01,-0.6899999999999999,-0.47
19.25248205661774,2,3,3,2,-9.609999999999999,-1.84,1,2.56,-0.62,-0.14
19.26248204708099,2,3,3,2,-9.52,-1.73,1.11,1.74,-0.6899999999999999,0.23
19.27248203754425,2,3,3,2,-9.470000000000001,-1.57,0.89,1.4,-0.42,0.38
19.28248202800751,2,3,3,2,-9.529999999999999,-1.56,0.86,1.04,-0.05,0.49
19.29248201847076,2,3,3,2,-9.529999999999999,-1.55,0.9,1.04,-0.05,0.49
19.30248200893402,2,3,3,2,-9.58,-1.75,0.88,0.7,0.21,0.57
19.31248199939728,2,3,3,2,-9.59,-1.83,0.98,0.42,0.42,0.57
19.32248198986053,2,3,3,2,-9.550000000000001,-1.92,0.86,0.35,0.46,0.54
19.33248198032379,2,3,3,2,-9.550000000000001,-1.85,0.6899999999999999,0.41,0.74,0.58
19.34248197078705,2,3,3,2,-9.42,-1.77,0.75,0.41,0.74,0.58
