timestamp,magCalib,accCalib,gyrCalib,sysCalib,accX,accY,accZ,gyrX,gyrY,gyrZ
-0.2095180749893188,3,3,3,3,-9.460000000000001,1.06,-0.93,-1.13,-0.09,0.37
-0.199518084526062,3,3,3,3,-9.58,1.35,-1.06,-0.65,-0.24,0.49
-0.1895180940628052,3,3,3,3,-9.77,1.33,-1.21,-0.91,-0.29,0.71
-0.1795181035995483,3,3,3,3,-9.83,0.97,-1.24,-1.32,-0.38,0.8
-0.1695181131362915,3,3,3,3,-9.880000000000001,0.61,-1.27,-1.79,-0.24,0.7
-0.1595181226730347,3,3,3,3,-10.03,0.28,-1.12,-1.46,0.06,0.58
-0.1495181322097778,3,3,3,3,-10.09,0.12,-0.95,-0.92,0.23,0.5
-0.139518141746521,3,3,3,3,-10.1,-0.16,-0.89,-0.33,0.02,0.32
-0.1295181512832642,3,3,3,3,-10.01,-0.11,-0.7,0.33,-0.34,0.16
-0.1195181608200073,3,3,3,3,-9.93,0.04,-0.7,1.01,-0.74,0
-0.1095181703567505,3,3,3,3,-9.880000000000001,0.33,-0.73,1.62,-0.77,-0.18
-0.09951794147491455,3,3,3,3,-9.83,1.16,-1.05,1.85,-0.77,-0.23
-0.08951795101165771,3,3,3,3,-9.699999999999999,1.52,-1.29,1.96,-0.5600000000000001,-0.39
-0.07951796054840088,3,3,3,3,-9.699999999999999,1.87,-1.51,1.44,-0.14,-0.58
-0.06951797008514404,3,3,3,3,-9.710000000000001,1.94,-1.68,0.65,0.05,-0.65
-0.05951797962188721,3,3,3,3,-9.779999999999999,1.28,-1.4,0.08,0.04,-0.59
-0.04951798915863037,3,3,3,3,-9.77,1.01,-1.4,0.22,0.08,-0.6
-0.03951799869537354,3,3,3,3,-9.82,0.78,-1.3,0.87,0,-0.6
-0.0295180082321167,3,3,3,3,-9.880000000000001,0.58,-1.18,1.2,-0.28,-0.64
-0.01951801776885986,3,3,3,3,-9.779999999999999,0.72,-1.01,1.9,-0.38,-0.6
-0.009518027305603027,3,3,3,3,-9.93,0.49,-0.9,2.19,-0.35,-0.47
0.0004819631576538086,3,3,3,3,-9.93,0.3,-0.7,2.46,-0.52,-0.35
0.03048193454742432,3,3,3,3,-9.77,0.3,0.01,4.16,-0.83,-0.17
0.04048192501068115,3,3,3,3,-9.85,0.26,0.15,4.54,-0.87,-0.09
0.05048191547393799,3,3,3,3,-9.85,0.29,0.08,4.75,-0.98,-0.01
0.06048190593719482,3,3,3,3,-9.73,0.55,-0.05,4.77,-0.89,-0.06
0.07048189640045166,3,3,3,3,-9.609999999999999,0.63,-0.2,4.4,-0.75,-0.09
0.0804818868637085,3,3,3,3,-9.6,0.71,-0.42,4.31,-0.67,-0.07000000000000001
0.1004818677902222,3,3,3,3,-9.65,1.01,-0.47,3.91,-0.83,0.11
0.110481858253479,3,3,3,3,-9.56,1.2,-0.38,3.67,-1.16,0.14
0.1204818487167358,3,3,3,3,-9.59,0.98,-0.34,3.02,-1.21,0.03
0.1304818391799927,3,3,3,3,-9.67,1.08,-0.57,2.73,-1.38,-0.18
0.1404818296432495,3,3,3,3,-9.75,0.82,-0.47,2.19,-1.46,-0.23
0.1504820585250854,3,3,3,3,-9.65,0.75,-0.5600000000000001,2.05,-1.49,-0.27
0.1604820489883423,3,3,3,3,-9.59,0.67,-0.51,2.18,-1.66,-0.23
0.1704820394515991,3,3,3,3,-9.74,0.66,-0.32,2.05,-1.41,-0.19
0.180482029914856,3,3,3,3,-9.699999999999999,0.71,-0.29,2.06,-1.25,-0.17
0.1904820203781128,3,3,3,3,-9.619999999999999,0.85,-0.07000000000000001,2.18,-1.07,-0.15
0.2004820108413696,3,3,3,3,-9.630000000000001,0.93,0.12,1.96,-0.85,-0.11
0.2104820013046265,3,3,3,3,-9.83,0.7,0.27,1.4,-0.75,0
0.2204819917678833,3,3,3,3,-9.83,0.48,0.18,0.8,-0.89,0.08
0.360481858253479,3,3,3,3,-9.94,0.59,0.13,0.25,-0.74,-0.04
0.3714820146560669,3,3,3,3,-9.85,0.57,-0.29,0.44,-0.51,-0.1
0.3914819955825806,3,3,3,3,-9.76,0.74,-0.06,0.83,-0.57,-0.1
0.4014819860458374,3,3,3,3,-9.720000000000001,0.63,-0.09,0.44,-0.4,-0.02
0.4114819765090942,3,3,3,2,-9.699999999999999,0.62,-0.05,0.19,-0.32,-0.02
0.4214819669723511,3,3,3,2,-9.77,0.6899999999999999,-0.02,0.18,-0.38,-0.04
0.4614819288253784,3,3,3,2,-9.67,0.72,0.14,0.27,-0.57,-0.05
0.4714819192886353,3,3,3,2,-9.68,0.79,0.14,0.06,-0.5,0
0.4814819097518921,3,3,3,2,-9.779999999999999,0.76,-0.1,-0.32,-0.3,0.09
0.4914819002151489,3,3,3,2,-9.69,0.61,-0.05,-0.24,-0.29,0.15
0.5014818906784058,3,3,3,2,-9.630000000000001,0.65,0.16,0.02,-0.34,0.04
0.5114818811416626,3,3,3,2,-9.73,0.71,0.04,-0.06,-0.18,0
0.5214818716049194,3,3,3,2,-9.91,0.54,-0.02,-0.25,-0.01,0.04
0.5314818620681763,3,3,3,2,-9.949999999999999,0.34,-0.08,-0.16,-0.23,0.05
0.5414818525314331,3,3,3,2,-9.93,0.15,0.03,-0.41,-0.37,0.08
0.5514818429946899,3,3,3,2,-9.789999999999999,0.11,0.17,-0.37,-0.51,0.09
0.5614818334579468,3,3,3,2,-9.800000000000001,0.11,0.2,-0.2,-0.42,-0.04
0.5714818239212036,3,3,3,2,-9.83,0.21,-0.06,0.09,-0.19,-0.14
0.5814820528030396,3,3,3,2,-9.880000000000001,0.26,-0.05,0.59,-0.03,-0.24
0.5914820432662964,3,3,3,2,-9.77,0.45,0,1.07,-0.08,-0.26
0.6014820337295532,3,3,3,2,-9.81,0.52,-0.01,0.89,-0.1,-0.23
0.6114820241928101,3,3,3,2,-9.68,0.5,0.17,0.6,-0.18,-0.16
0.6214820146560669,3,3,3,2,-9.75,0.62,0.09,0.5600000000000001,-0.11,-0.17
0.6314820051193237,3,3,3,2,-9.83,0.6,-0.05,0.35,0,-0.12
0.6414819955825806,3,3,3,2,-9.800000000000001,0.62,-0.06,0.46,-0.15,-0.14
0.6514819860458374,3,3,3,2,-9.720000000000001,0.7,0.02,0.68,-0.13,-0.2
0.6614819765090942,3,3,3,2,-9.73,0.71,-0.07000000000000001,0.64,-0.13,-0.19
0.6714819669723511,3,3,3,2,-9.789999999999999,0.63,0,0.27,-0.22,-0.13
0.6914819478988647,3,3,3,2,-9.77,0.62,-0.06,0.21,-0.1,-0.16
0.7014819383621216,3,3,3,2,-9.82,0.54,-0.13,0.26,0.04,-0.21
0.7114819288253784,3,3,3,2,-9.77,0.49,-0.08,0.44,-0.02,-0.25
0.7214819192886353,3,3,3,2,-9.710000000000001,0.62,-0.01,0.66,-0.01,-0.16
0.7314819097518921,3,3,3,2,-9.66,0.73,0.01,0.58,0.01,-0.09
0.7414819002151489,3,3,3,2,-9.6,0.74,0.07000000000000001,0.55,0.05,-0.1
0.7514818906784058,3,3,3,2,-9.699999999999999,0.76,0.02,0.48,0.18,-0.19
0.7614818811416626,3,3,3,3,-9.789999999999999,0.79,-0.04,0.35,0.33,-0.08
0.7714818716049194,3,3,3,3,-9.76,0.95,0,0.22,0.1,0.05
0.7814818620681763,3,3,3,3,-9.66,0.87,-0.07000000000000001,-0.04,-0.01,0.06
0.7914818525314331,3,3,3,3,-9.82,0.68,-0.11,-0.41,0.19,0.03
0.8014818429946899,3,3,3,3,-9.880000000000001,0.5600000000000001,-0.1,-0.6899999999999999,0.12,0.11
0.8114818334579468,3,3,3,3,-9.76,0.47,0,-0.73,0.21,0.13
0.8214818239212036,3,3,3,3,-9.75,0.44,-0.04,-0.52,0.4,0.08
0.8314820528030396,3,3,3,3,-9.75,0.43,-0.13,-0.22,0.42,-0.03
0.8414820432662964,3,3,3,3,-9.800000000000001,0.42,-0.17,-0.08,0.52,-0.06
0.8514820337295532,3,3,3,3,-9.779999999999999,0.37,-0.13,-0.16,0.57,-0.06
0.8614820241928101,3,3,3,3,-9.699999999999999,0.44,-0.11,-0.07000000000000001,0.43,-0.08
0.8714820146560669,3,3,3,3,-9.640000000000001,0.44,-0.08,-0.07000000000000001,0.45,-0.14
0.8814820051193237,3,3,3,3,-9.75,0.42,-0.15,0.18,0.47,-0.17
0.8914819955825806,3,3,3,3,-9.74,0.64,-0.17,0.42,0.42,-0.2
0.9014819860458374,3,3,3,3,-9.859999999999999,0.49,-0.12,0.25,0.5600000000000001,-0.09
0.9114819765090942,3,3,3,3,-9.83,0.52,-0.15,0.21,0.51,-0.01
0.9214819669723511,3,3,3,3,-9.949999999999999,0.5600000000000001,-0.21,-0.09,0.38,0.03
0.9314819574356079,3,3,3,3,-9.77,0.13,-0.11,-0.61,-0.08,0.06
0.9414819478988647,3,3,3,3,-9.720000000000001,-0.08,-0.07000000000000001,-0.58,-0.15,-0.06
0.9514819383621216,3,3,3,3,-9.76,0.06,-0.08,0.04,-0.09,-0.13
0.9614819288253784,3,3,3,3,-9.85,0.24,0,0.48,0.07000000000000001,-0.21
0.9714819192886353,3,3,3,3,-9.74,0.37,0.07000000000000001,0.71,-0.03,-0.24
0.9814819097518921,3,3,3,3,-9.779999999999999,0.39,-0.03,0.71,0.06,-0.27
0.9914819002151489,3,3,3,3,-9.83,0.44,-0.07000000000000001,0.62,0.14,-0.28
1.001481890678406,3,3,3,3,-9.789999999999999,0.57,0.05,0.42,0.25,-0.22
1.011481881141663,3,3,3,3,-9.800000000000001,0.51,0.09,0.5,0.2,-0.21
1.021481871604919,3,3,3,3,-9.77,0.62,0,0.62,0.26,-0.21
1.031481862068176,3,3,3,3,-9.92,0.62,-0.14,0.43,0.35,-0.23
1.041481852531433,3,3,3,3,-9.73,0.57,-0.14,0.46,0.33,-0.19
1.05148184299469,3,3,3,3,-9.76,0.3,-0.25,0.25,0.37,-0.26
1.061481833457947,3,3,3,3,-9.800000000000001,0.23,-0.2,0.06,0.34,-0.16
1.071481823921204,3,3,3,3,-9.789999999999999,0.47,-0.1,0.48,0.24,-0.27
1.08148205280304,3,3,3,3,-9.949999999999999,0.52,-0.27,0.53,0.38,-0.3
1.091482043266296,3,3,3,3,-9.83,0.51,-0.26,0.1,0.22,-0.24
1.101482033729553,3,3,3,3,-9.859999999999999,0.65,-0.18,0.2,0.1,-0.37
1.11148202419281,3,3,3,3,-9.949999999999999,0.66,-0.19,0.31,0.3,-0.47
1.121482014656067,3,3,3,3,-9.800000000000001,0.57,-0.44,0.03,0.4,-0.54
1.131482005119324,3,3,3,3,-9.68,0.53,-0.54,-0.57,0.58,-0.57
1.141481995582581,3,3,3,3,-9.67,0.46,-0.52,-0.64,0.44,-0.54
1.151481986045837,3,3,3,3,-9.6,0.5,-0.44,-0.68,0.36,-0.52
1.161481976509094,3,3,3,3,-9.67,0.61,-0.36,-0.57,0.42,-0.48
1.171481966972351,3,3,3,3,-9.710000000000001,0.58,-0.32,-0.85,0.4,-0.36
1.181481957435608,3,3,3,3,-9.66,0.52,-0.33,-1.12,0.24,-0.22
1.191481947898865,3,3,3,3,-9.67,0.41,-0.31,-1.06,0.11,-0.06
1.201481938362122,3,3,3,3,-9.65,0.39,-0.32,-0.83,0.11,0.01
1.211481928825378,3,3,3,3,-9.630000000000001,0.52,-0.35,-0.5,0.02,0.05
1.221481919288635,3,3,3,3,-9.66,0.51,-0.3,-0.5600000000000001,0.1,0.14
1.231481909751892,3,3,3,3,-9.58,0.44,-0.26,-0.66,0.02,0.21
1.241481900215149,3,3,3,3,-9.84,0.37,-0.31,-0.63,0.22,0.24
1.251481890678406,3,3,3,3,-9.859999999999999,0.25,-0.22,-0.7,0.35,0.28
1.261481881141663,3,3,3,3,-9.869999999999999,0.24,-0.31,-0.5600000000000001,0.21,0.32
1.271481871604919,3,3,3,3,-9.99,0.08,-0.29,-0.6,0.1,0.49
1.281481862068176,3,3,3,3,-9.98,0,-0.3,-0.26,-0.16,0.53
1.291481852531433,3,3,3,3,-9.94,-0.19,-0.22,-0.18,-0.17,0.52
1.30148184299469,3,3,3,3,-9.75,-0.17,-0.13,0.17,-0.19,0.52
1.311481833457947,3,3,3,3,-9.69,-0.04,-0.15,0.78,-0.2,0.41
1.321481823921204,3,3,3,3,-9.640000000000001,0.33,-0.11,1.19,-0.24,0.26
1.33148205280304,3,3,3,3,-9.630000000000001,0.59,-0.34,1.44,-0.24,0.13
1.341482043266296,3,3,3,3,-9.82,0.71,-0.26,1.32,-0.08,0.08
1.351482033729553,3,3,3,3,-9.880000000000001,0.86,-0.2,1.25,-0.14,0.13
1.36148202419281,3,3,3,3,-9.859999999999999,0.74,-0.14,0.76,-0.24,0.19
1.371482014656067,3,3,3,3,-9.83,0.63,-0.18,0.41,-0.18,0.2
1.381482005119324,3,3,3,3,-9.880000000000001,0.57,-0.34,0.35,-0.03,0.22
1.391481995582581,3,3,3,3,-9.82,0.52,-0.35,0.43,-0.06,0.2
1.402481913566589,3,3,3,3,-9.75,0.49,-0.29,0.67,-0.03,0.12
1.412481904029846,3,3,3,3,-9.81,0.53,-0.31,1.06,0.06,0.02
1.422481894493103,3,3,3,3,-9.800000000000001,0.57,-0.34,1.21,0.01,-0.03
1.43248188495636,3,3,3,3,-9.82,0.5600000000000001,-0.4,1.3,-0.11,-0.03
1.442481875419617,3,3,3,3,-9.75,0.49,-0.34,1.25,-0.28,-0.04
1.452481865882874,3,3,3,3,-9.69,0.48,-0.22,1.05,-0.28,0
1.46248185634613,3,3,3,3,-9.789999999999999,0.46,-0.2,1.14,-0.26,0
1.472481846809387,3,3,3,3,-9.83,0.34,-0.15,1.1,-0.3,0
1.482481837272644,3,3,3,3,-9.74,0.13,-0.16,1.21,-0.36,0.02
1.492481827735901,3,3,3,3,-9.68,0.22,-0.1,1.52,-0.35,0.01
1.502482056617737,3,3,3,3,-9.779999999999999,0.29,-0.13,1.67,-0.29,-0.09
1.512482047080994,3,3,3,3,-9.81,0.38,-0.07000000000000001,1.5,-0.38,-0.01
1.52248203754425,3,3,3,3,-9.74,0.49,-0.05,1.43,-0.34,-0.02
1.532482028007507,3,3,3,3,-9.83,0.5600000000000001,-0.18,1.25,-0.09,-0.07000000000000001
1.542482018470764,3,3,3,3,-9.91,0.59,-0.19,0.93,-0.02,-0.09
1.552482008934021,3,3,3,3,-9.880000000000001,0.61,-0.15,0.72,-0.12,-0.03
1.562481999397278,3,3,3,3,-9.85,0.68,-0.22,0.66,-0.08,0
1.572481989860535,3,3,3,3,-9.779999999999999,0.52,-0.3,0.29,-0.04,0.02
1.582481980323792,3,3,3,3,-9.69,0.47,-0.36,-0.07000000000000001,-0.14,0.09
1.592481970787048,3,3,3,3,-9.710000000000001,0.55,-0.41,-0.13,-0.15,0.08
1.602481961250305,3,3,3,3,-9.710000000000001,0.35,-0.41,-0.37,-0.08,0.09
1.612481951713562,3,3,3,3,-9.880000000000001,0.43,-0.36,-0.27,-0.07000000000000001,0.08
1.622481942176819,3,3,3,3,-10.05,0.53,-0.32,-0.14,-0.14,0.01
1.632481932640076,3,3,3,3,-10.01,0.57,-0.38,-0.25,-0.11,-0.14
1.642481923103333,3,3,3,3,-10.07,0.72,-0.28,-0.55,0.05,-0.25
1.652481913566589,3,3,3,3,-9.960000000000001,0.64,-0.23,-1.18,0.21,-0.44
1.662481904029846,3,3,3,3,-9.779999999999999,0.59,-0.27,-1.92,0.38,-0.58
1.672481894493103,3,3,3,3,-9.69,0.59,-0.29,-2.45,0.5,-0.68
1.68248188495636,3,3,3,3,-9.630000000000001,0.58,-0.39,-2.69,0.5,-0.72
1.692481875419617,3,3,3,3,-9.77,0.54,-0.34,-2.79,0.58,-0.76
1.702481865882874,3,3,3,3,-9.74,0.4,-0.26,-3.1,0.46,-0.7
1.71248185634613,3,3,3,3,-9.57,0.44,-0.14,-2.85,0.31,-0.68
1.722481846809387,3,3,3,3,-9.68,0.41,-0.18,-2.45,0.29,-0.8100000000000001
1.732481837272644,3,3,3,3,-9.82,0.29,-0.37,-2.62,0.35,-0.76
1.742481827735901,3,3,3,3,-9.75,0.27,-0.28,-2.72,0.05,-0.61
1.752482056617737,3,3,3,3,-9.789999999999999,0.24,-0.37,-2.53,-0.1,-0.58
1.762482047080994,3,3,3,3,-9.710000000000001,0.29,-0.4,-2.29,-0.09,-0.59
1.77248203754425,3,3,3,3,-9.710000000000001,0.35,-0.46,-2.03,-0.03,-0.59
1.782482028007507,3,3,3,3,-9.67,0.52,-0.53,-1.89,-0.05,-0.5600000000000001
1.792482018470764,3,3,3,3,-9.65,0.63,-0.42,-1.9,-0.13,-0.5
1.802482008934021,3,3,3,3,-9.710000000000001,0.52,-0.44,-2.06,-0.12,-0.44
1.812481999397278,3,3,3,3,-9.85,0.29,-0.29,-2.69,-0.21,-0.34
1.832481980323792,3,3,3,3,-9.81,0.4,-0.31,-2.27,-0.67,-0.2
1.842481970787048,3,3,3,3,-9.880000000000001,0.48,-0.36,-1.71,-0.55,-0.24
1.852481961250305,3,3,3,3,-9.92,0.52,-0.32,-1.3,-0.54,-0.26
1.862481951713562,3,3,3,3,-9.82,0.52,-0.19,-1.33,-0.52,-0.14
1.872481942176819,3,3,3,3,-9.73,0.32,0.06,-1.45,-0.38,-0.11
1.882481932640076,3,3,3,3,-9.75,0.23,-0.03,-1.35,-0.28,-0.2
1.892481923103333,3,3,3,3,-9.869999999999999,0.1,0.01,-1.37,-0.11,-0.21
1.902481913566589,3,3,3,3,-9.9,0.03,-0.15,-1.59,-0.35,-0.18
1.912481904029846,3,3,3,3,-9.789999999999999,0.13,-0.11,-1.29,-0.5600000000000001,-0.09
1.922481894493103,3,3,3,3,-9.800000000000001,0.28,-0.17,-0.76,-0.71,-0.13
1.93248188495636,3,3,3,3,-9.94,-0.07000000000000001,-0.15,-0.95,-0.71,-0.05
1.942481875419617,3,3,3,3,-9.619999999999999,-0.01,0,-1.05,-0.75,-0.08
1.952481865882874,3,3,3,3,-9.720000000000001,0.18,0.03,-0.61,-0.59,-0.23
1.96248185634613,3,3,3,3,-9.82,0.18,-0.01,-0.41,-0.38,-0.14
1.972481846809387,3,3,3,3,-9.92,0.28,0.04,-0.13,-0.4,-0.2
1.982481837272644,3,3,3,3,-9.85,0.39,0,-0.02,-0.59,-0.12
1.992481827735901,3,3,3,3,-9.77,0.49,0.07000000000000001,-0.28,-0.71,-0.08
2.002482056617737,3,3,3,3,-9.74,0.55,0.16,-0.45,-0.67,-0.14
2.012482047080994,3,3,3,3,-9.68,0.58,0.14,-0.39,-0.53,-0.08
2.02248203754425,3,3,3,3,-9.74,0.61,0.06,-0.26,-0.31,-0.02
2.032482028007507,3,3,3,3,-9.75,0.67,-0.1,-0.32,-0.16,-0.01
2.042482018470764,3,3,3,3,-9.720000000000001,0.49,-0.03,-0.68,-0.14,0.1
2.052482008934021,3,3,3,3,-9.67,0.34,-0.04,-1.04,-0.26,0.12
2.062481999397278,3,3,3,3,-9.699999999999999,0.18,-0.04,-0.96,-0.32,0.05
2.072481989860535,3,3,3,3,-9.69,0.35,0.15,-0.18,-0.51,-0.02
2.082481980323792,3,3,3,3,-9.82,0.5,0.01,0.55,-0.37,-0.03
2.092481970787048,3,3,3,3,-9.960000000000001,0.57,-0.05,0.86,-0.29,-0.02
2.102481961250305,3,3,3,3,-9.94,0.54,0.01,0.73,-0.29,0.07000000000000001
2.112481951713562,3,3,3,3,-9.75,0.38,0.12,0.37,-0.24,0.02
2.122481942176819,3,3,3,3,-9.74,0.31,0.13,0.19,-0.11,-0.01
2.132481932640076,3,3,3,3,-9.699999999999999,0.31,0.03,-0.03,0.12,-0.04
2.142481923103333,3,3,3,3,-9.66,0.37,0.14,0.12,0.2,-0.07000000000000001
2.152481913566589,3,3,3,3,-9.74,0.49,0.14,0.39,0.37,-0.13
2.162481904029846,3,3,3,3,-9.800000000000001,0.58,0.07000000000000001,0.63,0.41,-0.14
2.172481894493103,3,3,3,3,-9.82,0.66,0.01,0.67,0.33,-0.09
2.18248188495636,3,3,3,3,-9.82,0.76,-0.15,0.47,0.27,-0.04
2.192481875419617,3,3,3,3,-9.859999999999999,0.46,-0.09,0.12,0.23,0.04
2.202481865882874,3,3,3,3,-9.85,0.26,-0.09,-0.22,0.27,-0.08
2.21248185634613,3,3,3,3,-9.84,0.1,-0.09,-0.3,0.43,-0.17
2.222481846809387,3,3,3,3,-9.779999999999999,0.1,-0.07000000000000001,-0.29,0.57,-0.25
2.232481837272644,3,3,3,3,-9.699999999999999,0.18,-0.17,-0.01,0.53,-0.34
2.242481827735901,3,3,3,3,-9.699999999999999,0.19,-0.17,0.26,0.48,-0.47
2.252482056617737,3,3,3,3,-9.83,0.17,-0.15,0.3,0.62,-0.52
2.262482047080994,3,3,3,3,-9.93,0.29,-0.25,0.33,0.54,-0.55
2.27248203754425,3,3,3,3,-9.869999999999999,0.57,-0.35,0.73,0.32,-0.49
2.282482028007507,3,3,3,3,-9.75,0.74,-0.3,1.01,0.16,-0.44
2.292482018470764,3,3,3,3,-9.699999999999999,0.84,-0.18,1.07,0.08,-0.42
2.302482008934021,3,3,3,3,-9.68,0.74,-0.14,0.43,0.2,-0.34
2.312481999397278,3,3,3,3,-9.58,0.61,-0.08,-0.2,0.23,-0.28
2.322481989860535,3,3,3,3,-9.73,0.42,-0.15,-0.65,0.34,-0.26
2.332481980323792,3,3,3,3,-9.699999999999999,0.29,-0.33,-0.99,0.42,-0.13
2.342481970787048,3,3,3,3,-9.69,0.3,-0.38,-0.86,0.28,-0.05
2.352481961250305,3,3,3,3,-9.779999999999999,0.3,-0.33,-0.59,0.27,-0.05
2.362481951713562,3,3,3,3,-9.859999999999999,0.17,-0.4,-0.61,0.28,0.03
2.372481942176819,3,3,3,3,-9.82,-0.03,-0.26,-0.7,0.12,0.1
2.382481932640076,3,3,3,3,-9.83,-0.15,-0.23,-0.32,-0.06,0.12
2.392481923103333,3,3,3,3,-9.869999999999999,-0.14,-0.19,0.35,-0.02,0.07000000000000001
2.402481913566589,3,3,3,3,-9.93,-0.21,-0.15,0.68,-0.07000000000000001,0.09
2.412481904029846,3,3,3,3,-9.960000000000001,-0.23,-0.09,0.32,-0.14,0.14
2.423482060432434,3,3,3,3,-9.869999999999999,-0.25,-0.02,0.13,-0.22,0.11
2.433482050895691,3,3,3,3,-9.789999999999999,-0.14,-0.09,0.32,-0.13,-0.04
2.443482041358948,3,3,3,3,-9.789999999999999,0.15,-0.21,0.61,0.09,-0.2
2.453482031822205,3,3,3,3,-9.93,0.21,-0.27,0.58,0.25,-0.23
2.463482022285461,3,3,3,3,-9.789999999999999,0.24,-0.18,0.41,0,-0.18
2.473482012748718,3,3,3,3,-9.779999999999999,0.3,-0.17,0.4,-0.03,-0.21
2.483482003211975,3,3,3,3,-9.82,0.29,-0.28,0.37,0.01,-0.22
2.493481993675232,3,3,3,3,-9.83,0.3,-0.24,0.32,0.05,-0.19
2.503481984138489,3,3,3,3,-9.869999999999999,0.28,-0.18,0.16,0.06,-0.13
2.513481974601746,3,3,3,3,-9.83,0.05,-0.12,-0.2,0,-0.1
2.523481965065002,3,3,3,3,-9.75,0,-0.18,-0.25,0.02,-0.1
2.533481955528259,3,3,3,3,-9.74,0.07000000000000001,-0.3,-0.09,-0.01,-0.19
2.543481945991516,3,3,3,3,-9.75,0.16,-0.17,-0.01,-0.01,-0.18
2.553481936454773,3,3,3,3,-9.779999999999999,0.37,-0.17,0.25,0.02,-0.2
2.56348192691803,3,3,3,3,-9.74,0.46,-0.2,0.42,0.07000000000000001,-0.2
2.573481917381287,3,3,3,3,-9.710000000000001,0.45,-0.1,0.19,0.06,-0.19
2.583481907844543,3,3,3,3,-9.859999999999999,0.47,-0.31,0.11,0.08,-0.18
2.5934818983078,3,3,3,3,-9.789999999999999,0.37,-0.2,-0.31,0.1,-0.09
2.603481888771057,3,3,3,3,-9.710000000000001,0.35,-0.17,-0.51,-0.07000000000000001,0
2.613481879234314,3,3,3,3,-9.76,0.4,-0.13,-0.41,-0.08,0
2.623481869697571,3,3,3,3,-9.800000000000001,0.28,-0.14,-0.42,0.06,-0.06
2.633481860160828,3,3,3,3,-9.800000000000001,0.35,-0.29,-0.34,0.19,-0.13
2.643481850624084,3,3,3,3,-9.81,0.41,-0.29,-0.25,0.33,-0.19
2.653481841087341,3,3,3,3,-9.789999999999999,0.39,-0.27,-0.24,0.32,-0.17
2.663481831550598,3,3,3,3,-9.710000000000001,0.32,-0.19,-0.36,0.27,-0.06
2.673482060432434,3,3,3,3,-9.73,0.17,-0.19,-0.6,0.24,0.09
2.683482050895691,3,3,3,3,-9.74,0.11,-0.2,-0.62,0.18,0.16
2.693482041358948,3,3,3,3,-9.74,0.18,-0.13,-0.03,0.15,0.15
2.703482031822205,3,3,3,3,-9.85,0.18,-0.16,0.47,0.2,0.12
2.713482022285461,3,3,3,3,-9.84,0.24,-0.11,0.6899999999999999,0.16,0.13
2.723482012748718,3,3,3,3,-9.82,0.23,-0.12,0.7,0.06,0.24
2.733482003211975,3,3,3,3,-9.859999999999999,0.09,-0.23,0.47,-0.01,0.3
2.743481993675232,3,3,3,3,-9.73,0.13,-0.24,0.28,-0.01,0.27
2.753481984138489,3,3,3,3,-9.85,0.06,-0.24,0.37,0.01,0.28
2.763481974601746,3,3,3,3,-9.83,0.04,-0.14,0.02,0.07000000000000001,0.34
2.773481965065002,3,3,3,3,-9.800000000000001,-0.02,-0.06,0.01,0.02,0.34
2.783481955528259,3,3,3,3,-9.859999999999999,0.08,-0.21,0.29,0.03,0.25
2.793481945991516,3,3,3,3,-9.789999999999999,0.25,-0.21,0.66,0.13,0.14
2.803481936454773,3,3,3,3,-9.85,0.25,-0.24,0.83,0.09,0.06
2.81348192691803,3,3,3,3,-9.81,0.1,-0.17,0.4,0.05,0.17
2.823481917381287,3,3,3,3,-9.74,0.14,-0.2,0.45,0.01,0.22
2.833481907844543,3,3,3,3,-9.81,0.18,-0.34,0.8,0.04,0.19
2.8434818983078,3,3,3,3,-9.82,0.22,-0.3,0.83,0.09,0.19
2.853481888771057,3,3,3,3,-9.800000000000001,0.27,-0.17,0.75,-0.05,0.2
2.863481879234314,3,3,3,3,-9.800000000000001,0.25,-0.18,0.75,-0.04,0.13
2.873481869697571,3,3,3,3,-9.76,0.36,-0.19,0.5600000000000001,0.03,0.12
2.883481860160828,3,3,3,3,-9.73,0.41,-0.31,0.34,0.05,0.13
2.893481850624084,3,3,3,3,-9.779999999999999,0.48,-0.32,0.25,-0.01,0.09
2.903481841087341,3,3,3,3,-9.77,0.45,-0.29,0.06,0.01,0.09
2.913481831550598,3,3,3,3,-9.720000000000001,0.37,-0.21,-0.33,-0.02,0.19
2.923482060432434,3,3,3,3,-9.779999999999999,0.21,-0.12,-0.65,-0.16,0.22
2.933482050895691,3,3,3,3,-9.789999999999999,0.2,-0.17,-0.77,-0.02,0.16
2.943482041358948,3,3,3,3,-9.859999999999999,0.25,-0.16,-0.82,0.16,0.06
2.953482031822205,3,3,3,3,-9.83,0.22,-0.09,-1,0.27,0.03
2.963482022285461,3,3,3,3,-9.800000000000001,0.18,-0.08,-1.21,0.38,-0.01
2.973482012748718,3,3,3,3,-9.77,0.17,-0.13,-1.42,0.48,-0.03
2.983482003211975,3,3,3,3,-9.75,0.32,-0.38,-1.29,0.5600000000000001,-0.05
2.993481993675232,3,3,3,3,-9.77,0.28,-0.36,-1.19,0.49,-0.05
3.003481984138489,3,3,3,3,-9.76,0.24,-0.25,-1.08,0.31,0.06
3.013481974601746,3,3,3,3,-9.74,0.27,-0.16,-0.74,0.16,0.14
3.023481965065002,3,3,3,3,-9.82,0.29,-0.21,-0.42,0.1,0.21
3.033481955528259,3,3,3,3,-9.890000000000001,0.31,-0.26,-0.13,0.08,0.18
3.043481945991516,3,3,3,3,-9.859999999999999,0.26,-0.24,-0.06,0.08,0.24
3.053481936454773,3,3,3,3,-9.82,0.22,-0.19,-0.09,0.04,0.34
3.06348192691803,3,3,3,3,-9.75,0.23,-0.14,-0.02,0.09,0.32
3.073481917381287,3,3,3,3,-9.73,0.36,-0.28,0.31,0.2,0.25
3.083481907844543,3,3,3,3,-9.77,0.46,-0.44,0.43,0.29,0.23
3.0934818983078,3,3,3,3,-9.800000000000001,0.52,-0.36,0.26,0.26,0.25
3.103481888771057,3,3,3,3,-9.73,0.64,-0.37,0.14,0.24,0.34
3.113481879234314,3,3,3,3,-9.720000000000001,0.54,-0.31,-0.26,0.4,0.42
3.123481869697571,3,3,3,3,-9.75,0.38,-0.28,-0.71,0.32,0.52
3.153481841087341,3,3,3,3,-9.710000000000001,0.18,-0.12,-0.8,-0.34,0.71
3.163481831550598,3,3,3,3,-9.66,0.3,-0.07000000000000001,-0.79,-0.18,0.6899999999999999
3.173482060432434,3,3,3,3,-9.59,0.44,-0.16,-0.89,0,0.66
3.213482022285461,3,3,3,3,-9.289999999999999,1.12,-0.33,-2.27,-0.25,1.6
3.223482012748718,3,3,3,3,-10.1,0.5,-0.08,-2.27,-0.25,1.6
3.233482003211975,3,3,3,3,-10.33,0.4,0.09,-1.87,-0.11,1.69
3.243481993675232,3,3,3,3,-10.36,0.02,0.25,-1.04,0.04,1.86
3.253481984138489,3,3,3,3,-10.26,-0.47,0.15,-0.43,0.09,1.91
3.263481974601746,3,3,3,3,-9.949999999999999,-1.4,0.08,0.26,-0.49,2.05
3.273481965065002,3,3,3,3,-9.85,-1.52,0.09,0.26,-0.49,2.05
3.283481955528259,3,3,3,3,-9.85,-1.35,-0.07000000000000001,1.27,-0.52,1.96
3.293481945991516,3,3,3,3,-9.85,-1.03,-0.23,2.2,-0.5600000000000001,1.91
3.303481936454773,3,3,3,3,-9.69,0.42,-0.3,3.26,-0.71,2.04
3.31348192691803,3,3,3,3,-9.630000000000001,1.09,-0.42,2.9,-0.9399999999999999,2.18
3.323481917381287,3,3,3,3,-9.359999999999999,1.71,-0.65,2.9,-0.9399999999999999,2.18
3.333481907844543,3,3,3,3,-9.06,2.37,-0.82,2.39,-1.01,2.4
3.3434818983078,3,3,3,3,-8.539999999999999,3.94,-0.85,2.44,-0.77,2.95
3.353481888771057,3,3,3,3,-8.34,4.63,-0.7,2.25,-0.47,3.61
3.363481879234314,3,3,3,3,-7.89,5.4,-0.37,2.56,0,4.23
3.373481869697571,3,3,3,3,-7.31,6.76,-0.24,2.95,0.92,4.79
3.383481860160828,3,3,3,3,-7.12,9.289999999999999,-0.5600000000000001,3.13,2.12,5.99
3.393481850624084,3,3,3,3,-7.08,10.07,-0.86,-0.1,2.08,7.45
3.403481841087341,3,3,3,3,-7.22,9.09,-0.5600000000000001,-2.56,1.99,8.73
3.413481831550598,3,3,3,3,-6.41,7.45,-0.61,-3.95,3.01,9.35
3.423482060432434,3,3,3,3,-6.14,6.74,-0.51,-4.68,3.8,10.18
3.433482050895691,3,3,3,3,-6.63,4.53,-0.22,-5.48,4.95,10.93
3.443482041358948,3,3,3,3,-7.1,1.65,-0.62,-4.16,5.44,11.14
3.484481930732727,3,3,3,3,-8.119999999999999,0.72,0.17,9.5,3.89,14.72
3.494481921195984,3,3,3,3,-7.18,-1.78,-1.06,11.71,8.039999999999999,12.01
3.504481911659241,3,3,3,3,-9.130000000000001,-1.64,-2.31,9.9,6.15,10.08
3.514481902122498,3,3,3,3,-10.16,-0.59,-0.87,9.6,3.51,11.02
3.524481892585754,3,3,3,3,-11.05,-0.7,-0.57,12.36,4.53,10.92
3.534481883049011,3,3,3,3,-12.11,2.92,0.36,11.28,5.55,10.3
3.544481873512268,3,3,3,3,-11.6,3.31,0.07000000000000001,7.36,7.08,10.51
3.554481863975525,3,3,3,3,-11.92,4.72,0.41,6.18,8.27,10.6
3.564481854438782,3,3,3,3,-11.91,4.3,0.85,4.79,9.23,13.02
3.574481844902039,3,3,3,3,-10.2,1.92,-0.38,3.48,11.1,15.34
3.584481835365295,3,3,3,3,-9.73,-0.01,-2.22,4.46,12.48,16
3.594481825828552,3,3,3,3,-9.16,-1.06,-3.51,9.699999999999999,12.85,15.53
3.604482054710388,3,3,3,3,-8.07,0.23,-3.52,14.23,11.98,15.42
3.614482045173645,3,3,3,3,-9.25,2.13,-2.84,12.55,10.13,14.18
3.624482035636902,3,3,3,3,-9.41,3.22,-3.12,9.24,9.15,10.2
3.634482026100159,3,3,3,3,-10.29,3.77,-3.24,6.28,7.72,7.44
3.644482016563416,3,3,3,3,-10.14,4.36,-2.98,4.81,6.31,6.99
3.654482007026672,3,3,3,3,-10.32,4.44,-3.3,5.84,5.77,8.210000000000001
3.664481997489929,3,3,3,3,-10.1,4.45,-3.53,5,4.32,8.43
3.674481987953186,3,3,3,3,-9.68,2.78,-3.8,3.16,3.23,7.45
3.684481978416443,3,3,3,3,-9.26,1.96,-4.43,2.31,3.01,6.25
3.6944819688797,3,3,3,3,-8.52,1.89,-3.99,1.54,3.22,3.68
3.704481959342957,3,3,3,3,-9.539999999999999,2.59,-3.4,0,2.55,1.19
3.714481949806213,3,3,3,3,-11.07,2.72,-3.25,-2.1,0.53,-0.67
3.72448194026947,3,3,3,3,-11.73,2.57,-3.15,-3.41,-0.8,-2.47
3.734481930732727,3,3,3,3,-13.84,3.3,-2.16,-3.82,-1.93,-4.29
3.744481921195984,3,3,3,3,-15.48,2.97,-0.92,-3.31,-4.23,-6.14
3.754481911659241,3,3,3,3,-16.67,2.01,0.41,-3.85,-6.69,-8.33
3.764481902122498,3,3,3,3,-17.27,0.63,1.42,-6.41,-8.69,-10.47
3.774481892585754,3,3,3,3,-17.99,1.07,-0.5,-6.33,-11.37,-10.09
3.784481883049011,3,3,3,3,-19.68,1.31,-0.82,-0.77,-13.66,-10.37
3.794481873512268,3,3,3,3,-22.15,2.49,-1.24,0.45,-16.71,-11.76
3.804481863975525,3,3,3,3,-24.63,2.82,-1.5,-6.2,-20.08,-13.86
3.814481854438782,3,3,3,2,-27.67,-1.94,-4.06,-12.07,-23.14,-13.51
3.824481844902039,3,3,3,2,-30.39,-2.16,-4.06,-15.09,-26.11,-12.84
3.834481835365295,3,3,3,2,-31.18,-5.26,-5.48,-12.56,-29.41,-15.52
3.844481825828552,3,3,3,2,-31.79,-6.65,-5.09,-5.75,-28.41,-13.89
3.854482054710388,3,3,3,2,-32.72,-0.44,-3.03,1.45,-23.85,-13.46
3.864482045173645,3,3,3,2,-32.49,5.1,0.28,5.91,-15.28,-10.94
3.874482035636902,3,3,3,2,-29.44,12.69,1.75,1.56,-7.91,-10.23
3.884482026100159,3,3,3,2,-23.24,13.26,1.8,-10.6,-1.04,-13.33
3.894482016563416,3,3,3,2,-9.31,1.77,-3.31,-20.28,1.97,-15.1
3.904482007026672,3,3,3,2,-3.31,1.54,-6.86,-16.29,1.06,-13.56
3.914481997489929,3,3,3,2,2.63,11.13,-6.15,5.52,-1.01,-8.199999999999999
3.924481987953186,3,3,3,2,6.35,23.22,-3.58,16.54,-3,-2.94
3.934481978416443,3,3,3,2,-0.13,15.85,-1.86,13.37,-2.78,-3.54
3.9444819688797,3,3,3,2,-3.33,9.91,-0.36,16.45,-4.1,-4.32
3.954481959342957,3,3,3,2,-2.9,7.52,-1.79,17.77,-5.28,-3.82
3.964481949806213,3,3,3,2,-2.3,7.22,-2.8,13.41,-6.15,-1.25
3.97448194026947,3,3,3,2,-0.28,5.38,-0.79,9.06,-5.02,0.9399999999999999
3.984481930732727,3,3,3,2,-0.5600000000000001,1.67,-0.24,5.21,-2.25,1.01
3.994481921195984,3,3,3,2,-0.85,-2.77,-0.5600000000000001,2.06,-0.39,-1.07
4.004481911659241,3,3,3,2,-0.5,-4.77,-0.6899999999999999,0.8,0.72,-1.69
4.014481902122498,3,3,3,2,1.95,-3.51,-0.57,-0.22,1.75,-0.93
4.024481892585754,3,3,3,2,1.78,-3.1,-0.48,-2.83,2.68,-0.48
4.034481883049011,3,3,3,2,2.67,-2.12,-0.05,-5.25,2.88,-0.99
4.044481873512268,3,3,3,2,0.96,-1.75,0.02,-6.45,2.68,-0.73
4.054481863975525,3,3,3,2,-0.68,-0.36,0.58,-6.12,1.91,-0.8
4.064481854438782,3,3,3,2,-0.42,1.69,0.89,-4.96,1.39,-0.55
4.074481844902039,3,3,3,2,-0.66,2.21,0.66,-6.18,2.9,-0.77
4.084481835365295,3,3,3,2,-1.22,0.83,0.06,-5.05,2.9,-0.49
4.094481825828552,3,3,3,2,-0.22,0.41,0.33,-6.31,2.72,-0.75
4.104482054710388,3,3,3,2,1.14,-0.74,0.26,-6.34,2.24,-0.86
4.114482045173645,3,3,3,2,0.27,-1.99,0.44,-4.84,1.07,-1.21
4.124482035636902,3,3,3,2,0.2,-1.94,0.59,-2.61,-0.22,-0.8100000000000001
4.134482026100159,3,3,3,2,0.48,-0.7,0.54,-0.08,-1.37,-0.7
4.144482016563416,3,3,3,2,0.37,0.18,0.72,1.79,-1.68,-0.34
4.154482007026672,3,3,3,2,0.13,0.16,0.59,3.62,-2.1,-0.29
4.164481997489929,3,3,3,2,-0.18,0.52,0.6,5.12,-2.41,0
4.174481987953186,3,3,3,2,-0.4,1.65,1.24,6.08,-2.92,0.09
4.184481978416443,3,3,3,2,-0.33,1.22,1.08,6.01,-2.99,0.39
4.1944819688797,3,3,3,2,0.18,1.28,1.01,5.21,-2.56,0.49
4.204481959342957,3,3,3,2,0.37,0.59,1.08,3.51,-1.81,0.36
4.214481949806213,3,3,3,2,0.47,-0.02,0.75,1.59,-1.49,0.29
4.234481930732727,3,3,3,2,0.06,0.76,0.15,-0.73,-1.53,-0.5
4.244481921195984,3,3,3,2,-0.07000000000000001,2.97,0.6899999999999999,-0.86,-2.11,-0.16
4.254481911659241,3,3,3,2,0.02,4.55,0.68,-1.92,-2,-0.29
4.264481902122498,3,3,3,2,0.07000000000000001,5.86,-0.06,-3.44,-1.09,-0.27
4.274481892585754,3,3,3,2,0.18,6.48,-0.55,-3.43,-0.42,-0.38
4.284481883049011,3,3,3,2,-0.35,8.84,-2.33,-4.6,-0.31,-0.55
4.294481873512268,3,3,3,2,-0.73,8.5,-2.6,-9.69,-1.31,0.12
4.304481863975525,3,3,3,2,-0.93,5.04,-0.97,-14.19,-3.15,0.63
4.314481854438782,3,3,3,3,-0.55,-0.14,-0.9399999999999999,-10.34,-4.05,0.21
4.324481844902039,3,3,3,3,-8.92,29.75,0.29,8.35,-8.4,1.36
4.334481835365295,3,3,3,3,-18.67,27.99,-1.54,16.45,-16.75,3.98
4.344481825828552,3,3,3,3,-26.88,-29.17,-0.53,-11.33,-3.69,-2.42
4.354482054710388,3,3,3,3,-37.93,-36.92,-6.54,2.66,-0.37,2.76
4.364482045173645,3,3,3,3,-22.32,34.88,-11.21,31.85,-7.61,3.83
4.374482035636902,3,3,3,3,-26.11,12.66,-12.48,25.58,4.78,4.38
4.384482026100159,3,3,3,3,-34.03,25.63,-5.21,28.23,2.84,14.42
4.394482016563416,3,3,3,3,-39.18,38.73,16.4,23.98,1.27,15.62
4.404482007026672,3,3,3,3,-32.49,-10,17.41,-17.34,29.78,11.36
4.414481997489929,3,3,3,3,-24.25,-39.71,9.24,-47.64,33.35,4.01
4.424481987953186,3,3,3,3,-18.18,-39.71,6.09,-21.18,15.86,3.46
4.434481978416443,3,3,3,3,-17.61,-39.14,6.91,25.07,3.29,11.8
4.4444819688797,3,3,3,3,-15.06,-14.23,-0.13,41.21,-6.03,9.09
4.454481959342957,3,3,3,3,-16.72,-3.28,-2.04,37.78,-12.32,3.38
4.464481949806213,3,3,3,3,-16.74,1.15,-1.2,21.68,-12.59,0.75
4.475481867790222,3,3,3,3,-14.09,-2.01,-3.62,3.09,-9.81,-0.58
4.485481858253479,3,3,3,3,-13.07,-0.83,-9.02,-0.34,-7.94,-5.17
4.495481848716736,3,3,3,3,-14.17,6.93,-10.48,-0.96,-4.14,-6.44
4.505481839179993,3,3,3,3,-15.52,11.43,-7.76,5.96,-2.17,-7.08
4.51548182964325,3,3,3,3,-16.23,15.09,-2.48,4.86,-0.96,-6
4.525482058525085,3,3,3,3,-11.98,5.99,-0.99,-4.64,0.93,-5.39
4.535482048988342,3,3,3,3,-9.949999999999999,0.24,-1.22,-9.75,2.88,-6.98
4.545482039451599,3,3,3,3,-7.76,-0.73,-0.8,-8.390000000000001,3.82,-4.94
4.555482029914856,3,3,3,3,-6.32,1.69,1.15,-8.18,3.02,-2.05
4.565482020378113,3,3,3,3,-6.2,-0.02,2.18,-13.83,1.33,-3.96
4.57548201084137,3,3,3,3,-7.79,0.31,2.8,-16.04,-0.3,-6.96
4.585482001304626,3,3,3,3,-9.35,0.37,3.48,-14.81,-1.23,-5.79
4.595481991767883,3,3,3,3,-9.9,-0.07000000000000001,3.2,-12.92,-1.68,-4.56
4.60548198223114,3,3,3,3,-8.039999999999999,0.19,2.34,-9.539999999999999,-1.92,-4.32
4.615481972694397,3,3,3,3,-7.05,0.5600000000000001,2.15,-5.22,-2.37,-3.54
4.625481963157654,3,3,3,3,-6.78,1.42,1.83,-1.53,-2.96,-3.72
4.635481953620911,3,3,3,3,-7.24,2.21,1.34,1.49,-3.86,-4.1
4.645481944084167,3,3,3,3,-5.9,4.51,0.52,2,-3.61,-4.31
4.655481934547424,3,3,3,3,-6.5,5.52,0.07000000000000001,-0.33,-3.14,-4.27
4.665481925010681,3,3,3,2,-6.41,4.97,-0.55,-3.21,-2.53,-3.94
4.675481915473938,3,3,3,2,-6.88,4.42,-0.22,-5.01,-1.07,-3.8
4.685481905937195,3,3,3,2,-7.99,4.59,-0.73,-5.93,-0.78,-2.72
4.695481896400452,3,3,3,2,-8.550000000000001,5.48,-0.73,-6.76,-0.21,-2.06
4.705481886863708,3,3,3,2,-8.630000000000001,5.49,-0.43,-7.89,0.1,-2.54
4.715481877326965,3,3,3,2,-8.94,5.05,-0.37,-8.720000000000001,0.88,-2.86
4.725481867790222,3,3,3,2,-8.99,4.31,-0.68,-8.85,0.58,-1.91
4.735481858253479,3,3,3,2,-8.66,3.96,-0.3,-7.26,0.27,-2.08
4.745481848716736,3,3,3,2,-8.85,4.29,-0.09,-7.12,0.41,-1.61
4.865481972694397,3,3,3,2,-9.34,3.64,0.03,-0.61,0.03,-0.48
4.875481963157654,3,3,3,2,-8.869999999999999,3.29,0.19,-2.08,0.18,-0.49
4.885481953620911,3,3,3,2,-9.199999999999999,1.97,-0.15,-3.42,1.03,-0.38
4.895481944084167,3,3,3,2,-9.359999999999999,1.25,-0.23,-4.08,1.71,-0.45
4.905481934547424,3,3,3,2,-9.76,0.63,-0.24,-4.39,1.89,-0.59
4.915481925010681,3,3,3,2,-9.94,0.62,0.12,-3.97,1.6,-0.72
4.925481915473938,3,3,3,2,-9.890000000000001,0.49,0.37,-2.97,0.89,-0.82
5.01548182964325,3,3,3,2,-9.67,1.12,0,-0.82,0.88,-0.68
5.025482058525085,3,3,3,2,-9.73,1.23,0,-0.4,0.87,-0.72
5.035482048988342,3,3,3,2,-9.789999999999999,1.62,0.2,0.32,0.74,-0.75
5.045482039451599,3,3,3,2,-9.789999999999999,1.7,0.41,1.13,0.58,-0.75
5.055482029914856,3,3,3,2,-9.59,1.61,0.47,1.37,0.61,-0.71
5.065482020378113,3,3,3,3,-9.5,1.64,0.47,1.4,0.8,-0.9399999999999999
5.07548201084137,3,3,3,3,-9.880000000000001,1.32,0.24,1.07,0.89,-0.87
5.085482001304626,3,3,3,3,-10.05,0.99,-0.02,0.36,1.16,-0.82
5.095481991767883,3,3,3,3,-9.890000000000001,0.68,-0.05,-0.01,1.16,-1.07
5.10548198223114,3,3,3,3,-9.98,0.65,-0.11,0.23,1.02,-1.33
5.115481972694397,3,3,3,3,-9.970000000000001,0.78,0.15,0.52,0.59,-1.48
5.125481963157654,3,3,3,3,-10.04,1.2,0.19,0.96,0.46,-1.38
5.135481953620911,3,3,3,3,-9.949999999999999,1.29,0.17,0.3,0.16,-1.06
5.145481944084167,3,3,3,3,-9.57,0.99,0.26,-0.2,0.05,-1.1
5.155481934547424,3,3,3,3,-9.359999999999999,0.96,-0.07000000000000001,-0.2,0.46,-1.38
5.165481925010681,3,3,3,3,-9.59,1.22,0,0.32,0.55,-1.41
5.175481915473938,3,3,3,3,-9.68,1.46,0.06,0.76,0.27,-1.18
5.185481905937195,3,3,3,3,-9.6,1.9,0.1,0.85,0.09,-0.92
5.195481896400452,3,3,3,3,-9.609999999999999,1.26,0.27,-0.13,0.08,-0.8100000000000001
5.205481886863708,3,3,3,3,-9.619999999999999,0.89,0.16,-0.92,0.24,-0.85
5.215481877326965,3,3,3,3,-9.69,0.6899999999999999,0.11,-1.2,0.51,-0.98
5.225481867790222,3,3,3,3,-9.800000000000001,0.82,-0.04,-0.76,0.42,-1.02
5.235481858253479,3,3,3,3,-9.619999999999999,1.48,-0.22,0.29,0.21,-0.92
5.245481848716736,3,3,3,3,-9.58,1.76,-0.24,0.87,0.25,-0.68
5.255481839179993,3,3,3,3,-9.44,1.94,-0.15,0.47,0.3,-0.47
5.26548182964325,3,3,3,3,-9.470000000000001,1.75,0.02,-0.2,0.52,-0.35
5.285482048988342,3,3,3,3,-9.73,0.39,-0.08,-0.17,0.86,-0.3
5.295482039451599,3,3,3,3,-9.93,0.41,-0.19,0.57,0.62,-0.3
5.305482029914856,3,3,3,3,-10.06,0.5,-0.22,0.75,0.35,-0.28
5.315482020378113,3,3,3,3,-9.81,0.5600000000000001,-0.17,0.6899999999999999,0.03,-0.28
5.32548201084137,3,3,3,3,-9.77,0.84,-0.13,0.58,0.08,-0.46
5.335482001304626,3,3,3,3,-9.800000000000001,1.01,-0.04,0.38,0.09,-0.51
5.345481991767883,3,3,3,3,-9.800000000000001,0.95,0.03,-0.2,0.05,-0.37
5.35548198223114,3,3,3,3,-9.59,0.46,0.38,-0.75,-0.01,-0.26
5.365481972694397,3,3,3,3,-9.5,0.18,0.52,-0.7,0.17,-0.35
5.375481963157654,3,3,3,3,-9.57,0.06,0.37,-0.45,0.36,-0.38
5.385481953620911,3,3,3,3,-9.75,0.28,0.08,-0.29,0.38,-0.36
5.395481944084167,3,3,3,3,-9.75,0.61,0.1,-0.22,0.2,-0.29
5.405481934547424,3,3,3,3,-9.85,0.74,0.12,-0.19,0.14,-0.34
5.415481925010681,3,3,3,3,-9.869999999999999,0.83,-0.04,-0.77,0.22,-0.29
5.425481915473938,3,3,3,3,-9.710000000000001,0.84,-0.05,-1.28,0.41,-0.2
5.435481905937195,3,3,3,3,-9.42,0.8100000000000001,-0.04,-1.63,0.55,-0.09
5.445481896400452,3,3,3,3,-9.300000000000001,0.8,0.14,-1.6,0.76,0.04
5.455481886863708,3,3,3,3,-9.33,0.88,0.18,-1.5,1.06,0.25
5.465481877326965,3,3,3,3,-9.390000000000001,0.8100000000000001,0.16,-1.41,1.02,0.57
5.475481867790222,3,3,3,3,-9.369999999999999,0.92,-0.06,-1.09,0.63,0.5
5.485481858253479,3,3,3,3,-9.48,1.6,-0.02,-0.08,0.3,0.38
5.495481848716736,3,3,3,3,-9.43,2.29,-0.06,0.85,0.06,0.64
5.506482005119324,3,3,3,3,-9.140000000000001,2.97,-0.11,1.3,0.06,0.74
5.516481995582581,3,3,3,3,-8.970000000000001,4.28,-0.22,1.49,0.27,0.75
5.526481986045837,3,3,3,3,-8.9,4.48,-0.32,0.8,0.06,1.16
5.536481976509094,3,3,3,3,-8.609999999999999,4.71,-0.3,0.26,0.12,1.39
5.546481966972351,3,3,3,3,-8.470000000000001,4.95,-0.18,0.28,0.75,1.85
5.556481957435608,3,3,3,3,-7.73,5.79,-0.38,0.44,1.27,2.37
5.646481871604919,3,3,3,3,-8.369999999999999,2.75,0.74,4.89,5.98,8.460000000000001
5.656481862068176,3,3,3,3,-8.99,0.87,1.63,5.25,6.69,8.75
5.666481852531433,3,3,3,3,-9.050000000000001,-1.5,0.53,3.78,6.85,9.02
5.67648184299469,3,3,3,3,-8.390000000000001,0.28,-2.14,4.38,6.22,9.93
5.686481833457947,3,3,3,3,-8.380000000000001,2.31,-1.64,8.83,5.54,9.91
5.696481823921204,3,3,3,3,-9.359999999999999,1.47,-0.98,5.69,4.57,8.91
5.70648205280304,3,3,3,3,-9.52,-0.91,-0.89,0.05,4.08,8.09
5.716482043266296,3,3,3,3,-10.65,-2.09,-3.64,-0.14,3.58,8.029999999999999
5.726482033729553,3,3,3,3,-10.7,0.8,-2.21,6.59,4.3,8.51
5.73648202419281,3,3,3,3,-11.14,3.11,-0.7,13.19,7.2,6.83
5.746482014656067,3,3,3,3,-10.98,3.49,0.38,11.9,9.640000000000001,5.7
5.756482005119324,3,3,3,3,-10.23,0.91,-1.29,7.25,10.41,6.2
5.766481995582581,3,3,3,3,-9.41,0.63,-1.26,4.89,9.93,8.289999999999999
5.776481986045837,3,3,3,3,-8.75,0.21,-0.91,5.49,9.550000000000001,9.51
5.786481976509094,3,3,3,3,-9.76,1.23,-0.8100000000000001,5.69,9.27,11.14
5.796481966972351,3,3,3,3,-10.48,1.16,-1.41,3.76,9.59,11.36
5.806481957435608,3,3,3,3,-11.17,1.04,-2.07,3.54,10.56,10.9
5.816481947898865,3,3,3,3,-10.39,0.74,-1.86,5.78,10.28,9.44
5.826481938362122,3,3,3,3,-9.98,2.02,-2.4,7.14,9.15,9.17
5.836481928825378,3,3,3,3,-9.539999999999999,2.46,-2.1,8.58,8.539999999999999,8.01
5.846481919288635,3,3,3,3,-9.140000000000001,2.22,-2.45,7.65,8.119999999999999,7.24
5.856481909751892,3,3,3,3,-8.59,1.57,-3.07,6.09,7.48,7.75
5.866481900215149,3,3,3,3,-9.49,2.74,-2.66,6.21,7.42,8.35
5.876481890678406,3,3,3,3,-9.67,2.41,-3.35,3.89,6.59,8.029999999999999
5.886481881141663,3,3,3,3,-10.05,3.37,-3.49,2.01,6.19,7.95
5.896481871604919,3,3,3,3,-9.84,3.89,-3.72,0.43,6.11,7.25
5.906481862068176,3,3,3,3,-10.27,4.7,-2.88,-0.41,5.55,6.38
5.916481852531433,3,3,3,3,-10.15,4.43,-2.92,-0.65,4.87,5.51
5.92648184299469,3,3,3,3,-9.609999999999999,4.27,-2.65,-0.52,5.08,4.54
5.936481833457947,3,3,3,3,-8.73,3.28,-2.55,-1.01,4.87,3.89
5.946481823921204,3,3,3,3,-8.58,1.86,-2.75,-1.92,3.65,3.63
5.95648205280304,3,3,3,3,-8.470000000000001,2.82,-2.97,-0.65,3.22,3.41
5.966482043266296,3,3,3,3,-8.85,4.11,-1.98,1.56,2.94,2.56
5.976482033729553,3,3,3,3,-9.220000000000001,4.75,-1.78,1.65,2.01,1.49
5.98648202419281,3,3,3,3,-10.48,4.83,-2.53,1.32,1.47,0.93
5.996482014656067,3,3,3,3,-10.96,4.7,-2.17,1.31,1.06,-0.09
6.006482005119324,3,3,3,3,-11.35,2.78,-2.77,-0.33,0.01,-1.45
6.016481995582581,3,3,3,3,-11.58,3.01,-3.49,-1,-0.78,-2.92
6.026481986045837,3,3,3,3,-12.99,3.27,-2.41,-0.47,-1.75,-3.69
6.036481976509094,3,3,3,3,-13.21,2.75,-2.25,-0.68,-3.14,-3.97
6.046481966972351,3,3,3,3,-13.28,2.52,-1.15,-0.99,-4.56,-3.77
6.056481957435608,3,3,3,3,-13.47,1.15,-0.59,-1.92,-6,-3.87
6.066481947898865,3,3,3,2,-13.8,-1.22,-1.34,-2.36,-7.41,-4.07
6.076481938362122,3,3,3,2,-14.09,-1.86,-1.09,-1.35,-8.42,-5.32
6.086481928825378,3,3,3,2,-13.81,-1.15,-2.61,-2.97,-9.49,-7.7
6.096481919288635,3,3,3,2,-15.58,1.21,-2.67,-1.96,-11.92,-6.95
6.106481909751892,3,3,3,2,-19.31,2.88,-2.09,0.39,-14.25,-8.41
6.116481900215149,3,3,3,2,-21.52,4.08,-2.57,-0.38,-16.68,-9.23
6.126481890678406,3,3,3,2,-22.25,3.08,-3.08,-3.32,-18.79,-10.39
6.136481881141663,3,3,3,2,-23.5,-1.01,-3.7,-4.77,-20.76,-11.64
6.146481871604919,3,3,3,2,-28.62,-4.17,-4.82,-4.67,-22.88,-10.44
6.156481862068176,3,3,3,2,-30.47,-3.87,-2.94,-5.32,-24.52,-12.16
6.166481852531433,3,3,3,2,-33.28,-1.21,-2.25,-4.38,-26.27,-10.56
6.17648184299469,3,3,3,2,-33.48,-0.29,-1.87,-4.64,-26.8,-10.71
6.186481833457947,3,3,3,2,-29.53,3.16,1.63,0.67,-24.67,-11.41
6.196481823921204,3,3,3,2,-26.98,7.78,2.56,1.67,-18.83,-8.220000000000001
6.20648205280304,3,3,3,2,-21.25,5.6,1.15,-3.75,-11.83,-9.67
6.216482043266296,3,3,3,1,-15.61,0.66,-2.16,-11.21,-4.22,-12.18
6.226482033729553,3,3,3,1,-6.24,1.54,-5.27,-12.24,-2.16,-12.05
6.23648202419281,3,3,3,1,-0.95,2.35,-7.2,-5.3,-1.5,-11.35
6.246482014656067,3,3,3,1,4.71,11.34,-7.57,12.89,-1.16,-9.68
6.256482005119324,3,3,3,1,8.17,31.01,-3.61,28.65,-6.93,-5.34
6.266481995582581,3,3,3,1,-1.5,12.45,-7.62,18.58,-9.48,-2.96
6.276481986045837,3,3,3,1,-4.46,-1.56,-6.68,5.58,-3.29,-7.48
6.286481976509094,3,3,3,1,-3.18,2.53,1.57,8.26,-5.02,-5.97
6.296481966972351,3,3,3,1,0.26,8.27,2.48,12.57,-7.05,-0.29
6.306481957435608,3,3,3,1,-0.07000000000000001,4.05,0.34,11.03,-3,-0.78
6.316481947898865,3,3,3,1,-0.13,4.12,0.84,9.52,-0.54,-1.93
6.326481938362122,3,3,3,1,-0.08,3.68,-0.08,6.31,-0.33,-1.37
6.336481928825378,3,3,3,1,-0.02,1.41,-0.64,1.39,-0.74,-0.95
6.346481919288635,3,3,3,1,2.02,-1.35,-0.72,-0.36,-1.25,-1.21
6.356481909751892,3,3,3,1,1.44,-1.89,-0.97,-2.44,-0.33,-1.2
6.366481900215149,3,3,3,1,0.24,-1.74,-0.6,-5.31,0.77,-0.91
6.376481890678406,3,3,3,1,0.36,-0.77,-0.16,-7.65,0.49,-1.23
6.386481881141663,3,3,3,1,-0.27,0.78,0.1,-10.14,0.97,-1.8
6.396481871604919,3,3,3,1,-0.36,-0.14,-0.23,-12.73,1.93,-2.09
6.406481862068176,3,3,3,1,-0.85,-0.89,-0.13,-14.12,3.08,-2.72
6.416481852531433,3,3,3,1,-0.35,-0.01,0.49,-14.18,2.92,-2.42
6.42648184299469,3,3,3,1,0.04,-1.11,0.99,-13.27,3.45,-2.04
6.436481833457947,3,3,3,1,-0.09,-0.9,0.46,-11.54,3.12,-1.54
6.446481823921204,3,3,3,1,0.02,-0.38,0.28,-9.529999999999999,1.94,-0.88
6.45648205280304,3,3,3,1,-0.03,-0.37,0.1,-7.23,0.68,-0.48
6.466482043266296,3,3,3,1,-0.18,-0.05,-0.24,-4.61,-0.07000000000000001,-0.2
6.476482033729553,3,3,3,1,0.08,0,-0.13,-2.13,-0.71,0.19
6.48648202419281,3,3,3,1,-0.12,-0.01,-0.02,-0.38,-0.77,0.43
6.496482014656067,3,3,3,1,-0.2,0.07000000000000001,0.33,1.27,-0.66,0.58
6.506482005119324,3,3,3,1,-0.45,0.32,0.59,2.32,-0.85,0.46
6.516481995582581,3,3,3,2,-0.3,0.37,0.87,3.12,-1.31,0.41
6.527481913566589,3,3,3,2,-0.05,0.15,0.95,3.45,-1.68,0.42
6.537481904029846,3,3,3,2,0.21,0.09,0.79,3.6,-1.56,0.22
6.547481894493103,3,3,3,2,0.24,0.8100000000000001,0.58,3.4,-1.33,0.35
6.55748188495636,3,3,3,2,0.49,0.93,0.48,2.94,-1.76,0.67
6.567481875419617,3,3,3,2,0.25,1.58,0.89,3.22,-1.91,0.76
6.577481865882874,3,3,3,2,0.06,2.09,1,3.39,-2.05,0.9
6.58748185634613,3,3,3,2,0.44,4.14,0.24,3.11,-1.76,0.99
6.597481846809387,3,3,3,2,0.5,4.93,0.4,2.29,-0.96,1.54
6.607481837272644,3,3,3,2,0.78,5.76,-0.01,2.15,-1.04,1.83
6.617481827735901,3,3,3,2,0.89,8.09,-0.82,1.69,-0.11,1.68
6.627482056617737,3,3,3,2,0.48,10.02,-1.34,0.82,1.17,1.62
6.637482047080994,3,3,3,2,-0.67,9.619999999999999,-2.43,-6.34,1.15,2.47
6.64748203754425,3,3,3,2,-1.65,4.18,-5.74,-14.76,-1.32,3.14
6.657482028007507,3,3,3,2,-8.210000000000001,37.01,5.43,-7.47,-8.279999999999999,1.99
6.667482018470764,3,3,3,3,-19.69,21.66,6.97,14.13,-23.01,4.91
6.677482008934021,3,3,3,3,-30.86,-39.71,-12.79,-11.61,-2.57,-2.75
6.687481999397278,3,3,3,3,-39.1,-34.63,-8.789999999999999,-2.85,5.02,-6.44
6.697481989860535,3,3,3,3,-18.72,33.32,-14.79,46.35,-3.23,10.72
6.707481980323792,3,3,3,3,-26.56,11.32,-18.62,26.83,6.24,10.05
6.717481970787048,3,3,3,3,-39.18,36.49,4.62,31.45,2.25,16.38
6.727481961250305,3,3,3,3,-39.18,38.73,22.27,29.99,-1.42,12.82
6.737481951713562,3,3,3,3,-25.88,-31.23,11.59,-18.1,38.19,9.640000000000001
6.757481932640076,3,3,3,3,-15.91,-39.48,5.18,-37.89,26.22,1.93
6.767481923103333,3,3,3,3,-12.65,-33.91,6.63,12.59,11.96,11.87
6.777481913566589,3,3,3,3,-17.62,-5.36,4.26,41.25,2.85,8.66
6.787481904029846,3,3,3,3,-22.24,5.54,4.65,37.25,-3.55,2.49
6.797481894493103,3,3,3,3,-22.3,5.45,4.01,16.71,-6.32,0.18
6.80748188495636,3,3,3,3,-16.17,-3.53,1.78,-0.19,-6.74,-1.02
6.817481875419617,3,3,3,3,-12.09,-10.65,-5.41,-8.59,-5.6,-3.81
6.827481865882874,3,3,3,3,-10.35,-8.75,-8.779999999999999,-8.039999999999999,-5.71,-4.52
6.83748185634613,3,3,3,3,-12.96,0.13,-7.85,-0.6899999999999999,-5.69,-3.52
6.847481846809387,3,3,3,3,-15.64,8.550000000000001,-6.03,5.82,-2.91,-1.76
6.857481837272644,3,3,3,3,-14.51,9.5,-2.93,5.97,-2.45,-2.04
6.867481827735901,3,3,3,3,-10.82,3.47,-2.41,0.51,-0.88,-5.4
6.877482056617737,3,3,3,3,-8.81,1.48,-1.64,-2.79,0.26,-6.85
6.887482047080994,3,3,3,3,-7.81,1.18,-0.26,-4.66,0.76,-5.85
6.89748203754425,3,3,3,3,-6.5,-1.89,-0.13,-8.529999999999999,0.36,-4.96
6.907482028007507,3,3,3,3,-6.37,-2.18,-0.2,-10.28,-0.88,-4.97
6.917482018470764,3,3,3,2,-6.46,-0.92,-0.05,-8.6,-1.91,-5.67
6.927482008934021,3,3,3,2,-6,-0.4,-0.09,-5.98,-2.67,-5.92
6.937481999397278,3,3,3,2,-7.09,0.75,-0.12,-2.3,-2.82,-5.01
6.947481989860535,3,3,3,2,-7.33,1.76,-0.09,0.44,-2.67,-4.39
6.957481980323792,3,3,3,2,-7.01,2.3,-0.24,1.63,-2.58,-4.43
6.967481970787048,3,3,3,2,-7.05,3.65,-0.07000000000000001,2.16,-2.82,-4.8
6.977481961250305,3,3,3,2,-6.22,4.39,-0.5600000000000001,1.12,-3.08,-4.72
6.987481951713562,3,3,3,2,-6.15,4.97,-0.24,-0.71,-3.2,-4.95
6.997481942176819,3,3,3,2,-7.5,5.49,-0.4,-3.01,-2.71,-4.68
7.007481932640076,3,3,3,2,-7.01,4.62,-0.52,-5.85,-2.27,-4.02
7.017481923103333,3,3,3,2,-7.95,5.22,-0.33,-7.33,-1.8,-4.15
7.027481913566589,3,3,3,2,-7.52,5.39,-0.21,-9.220000000000001,-1.01,-3.33
7.037481904029846,3,3,3,2,-7.89,6.04,-0.14,-9.6,-0.37,-3.73
7.077481865882874,3,3,3,2,-9.119999999999999,2.42,-0.31,-12.12,1.09,-0.71
7.137482047080994,3,3,3,1,-11.57,-0.99,-0.1,1.46,-1.52,0.11
7.14748203754425,3,3,3,1,-11.51,0.22,0.27,4.95,-1.63,-0.46
7.157482028007507,3,3,3,1,-11.11,2.09,0.61,6.77,-1.59,-0.87
7.167482018470764,3,3,3,1,-10.74,2.55,0.95,5.67,-1.15,-0.98
7.177482008934021,3,3,3,1,-9.43,2.18,0.35,3.13,-0.14,-0.97
7.187481999397278,3,3,3,1,-9.16,2.51,0.12,1.02,0.65,-0.79
7.197481989860535,3,3,3,1,-9.02,2.58,0.15,-0.1,0.76,-0.35
7.207481980323792,3,3,3,1,-9.16,2.47,0.1,-1.38,0.88,-0.21
7.217481970787048,3,3,3,1,-9.52,0.46,0.05,-3.53,1.15,-0.23
7.227481961250305,3,3,3,1,-9.58,0.16,-0.25,-4.13,1.35,-0.36
7.237481951713562,3,3,3,1,-10.34,-0.53,-0.46,-3.54,0.99,-0.51
7.247481942176819,3,3,3,1,-9.9,-0.21,0.01,-1.28,0.2,-0.17
7.257481932640076,3,3,3,1,-9.66,0.74,-0.01,0.04,0.05,-0.5
7.267481923103333,3,3,3,1,-9.49,0.67,0.14,0.59,0.12,-1.09
7.277481913566589,3,3,3,1,-9.630000000000001,0.8100000000000001,-0.1,0.6899999999999999,0.11,-0.96
7.287481904029846,3,3,3,1,-9.390000000000001,1.03,-0.12,0.18,0.24,-0.68
7.297481894493103,3,3,3,1,-9.140000000000001,0.57,0.01,-0.89,0.36,-0.73
7.30748188495636,3,3,3,1,-9.34,0.34,-0.07000000000000001,-1.57,0.18,-0.67
7.317481875419617,3,3,3,1,-9.390000000000001,0.32,-0.07000000000000001,-1.41,0.03,-0.62
7.327481865882874,3,3,3,1,-9.550000000000001,0.68,0.05,-0.43,-0.25,-0.61
7.357481837272644,3,3,3,1,-9.9,2.16,0.03,0.65,-1,-0.35
7.367481827735901,3,3,3,1,-9.880000000000001,1.61,0.24,0.42,-0.84,-0.23
7.377482056617737,3,3,3,1,-9.779999999999999,1.12,0.06,-0.26,-0.5600000000000001,-0.12
7.387482047080994,3,3,3,1,-9.76,0.88,-0.11,-0.07000000000000001,-0.19,0.02
7.39748203754425,3,3,3,1,-9.81,0.8100000000000001,-0.07000000000000001,0.07000000000000001,-0.03,-0.13
7.407482028007507,3,3,3,1,-9.720000000000001,0.6,0.04,-0.36,-0.02,-0.12
7.417482018470764,3,3,3,2,-10.07,0.04,-0.41,-0.67,0.44,-0.27
7.427482008934021,3,3,3,2,-10.17,0.31,-0.51,-0.87,0.51,-0.44
7.437481999397278,3,3,3,2,-10.1,0.5600000000000001,-0.45,-0.63,0.12,-0.62
7.447481989860535,3,3,3,2,-9.869999999999999,1.07,-0.28,-0.03,-0.13,-0.87
7.457481980323792,3,3,3,2,-9.77,1.42,-0.12,0.46,-0.41,-1.01
7.467481970787048,3,3,3,2,-9.699999999999999,1.55,0.09,0.66,-0.45,-1
7.477481961250305,3,3,3,2,-9.789999999999999,1.5,0.12,0.4,-0.55,-0.96
7.487481951713562,3,3,3,2,-9.300000000000001,1.42,0.06,0.02,-0.95,-0.86
7.497481942176819,3,3,3,2,-9.279999999999999,1.52,0,0.29,-0.74,-0.99
7.507481932640076,3,3,3,2,-9.32,1.65,-0.08,0.12,-0.4,-0.98
7.517481923103333,3,3,3,2,-9.33,2.01,-0.01,0.35,-0.35,-0.78
7.527481913566589,3,3,3,2,-9.35,2.31,0.03,0.52,-0.19,-0.68
7.537481904029846,3,3,3,2,-9.380000000000001,2.15,-0.05,-0.08,0,-0.46
7.548482060432434,3,3,3,2,-9.369999999999999,1.79,-0.05,-0.54,0.15,-0.16
7.558482050895691,3,3,3,2,-9.51,1.32,-0.22,-0.79,0.37,0.07000000000000001
7.568482041358948,3,3,3,2,-9.82,0.85,-0.32,-0.71,0.13,0.38
7.578482031822205,3,3,3,2,-9.98,0.84,-0.38,-0.27,0.08,0.43
7.588482022285461,3,3,3,2,-9.859999999999999,0.86,-0.32,0.44,-0.28,0.31
7.598482012748718,3,3,3,2,-9.789999999999999,1.05,-0.06,1.65,-0.65,0.1
7.608482003211975,3,3,3,2,-9.720000000000001,1.75,0.25,2.32,-0.8100000000000001,0
7.618481993675232,3,3,3,2,-9.699999999999999,1.66,0.47,2.33,-1.01,0.13
7.628481984138489,3,3,3,2,-9.75,1.37,0.53,1.74,-0.99,0.21
7.638481974601746,3,3,3,2,-9.710000000000001,1.03,0.42,0.73,-0.83,0.25
7.648481965065002,3,3,3,2,-9.69,0.5600000000000001,0.15,0.1,-0.49,0.02
7.658481955528259,3,3,3,2,-9.81,0.74,-0.06,-0.11,-0.18,-0.18
7.668481945991516,3,3,3,2,-9.83,1.15,0.13,0.16,-0.14,-0.14
7.678481936454773,3,3,3,2,-9.960000000000001,1.06,0.07000000000000001,-0.03,-0.17,-0.07000000000000001
7.68848192691803,3,3,3,2,-9.640000000000001,0.63,-0.26,-0.87,0.03,0.06
7.698481917381287,3,3,3,2,-9.76,0.89,-0.32,-0.9,0.44,-0.03
7.708481907844543,3,3,3,2,-9.91,1.27,-0.35,-0.52,0.52,-0.08
7.7184818983078,3,3,3,2,-9.91,1.52,-0.1,-0.12,0.16,-0.07000000000000001
7.728481888771057,3,3,3,2,-9.76,1.17,0.42,-0.27,0.07000000000000001,-0.03
7.738481879234314,3,3,3,2,-9.58,0.66,0.51,-0.84,-0.01,0.03
7.748481869697571,3,3,3,2,-9.66,0.19,0.58,-0.96,0.22,0.04
7.758481860160828,3,3,3,2,-9.699999999999999,0.2,0.48,-0.79,0.44,0.05
7.768481850624084,3,3,3,2,-9.710000000000001,0.39,0.19,-0.39,0.39,0.02
7.778481841087341,3,3,3,2,-9.720000000000001,0.74,0.03,0.29,0.32,0
7.788481831550598,3,3,3,2,-9.75,1,-0.18,0.7,0.07000000000000001,-0.01
7.798482060432434,3,3,3,2,-9.84,1.09,-0.26,0.64,-0.21,0.12
7.808482050895691,3,3,3,2,-9.869999999999999,0.68,0.03,0.36,-0.46,0.21
7.818482041358948,3,3,3,2,-9.93,0.3,0.16,-0.02,-0.43,0.22
7.828482031822205,3,3,3,2,-10.11,-0.04,0.24,-0.21,-0.29,0.11
7.838482022285461,3,3,3,2,-9.970000000000001,-0.31,0.19,-0.49,-0.25,0.11
7.848482012748718,3,3,3,2,-9.83,0.18,0.21,-0.03,-0.3,-0.09
7.858482003211975,3,3,3,2,-9.83,0.64,0.39,0.24,-0.36,-0.18
7.868481993675232,3,3,3,2,-9.85,0.95,0.49,0.3,-0.18,-0.38
7.878481984138489,3,3,3,2,-9.82,1.13,0.35,-0.03,-0.03,-0.43
7.888481974601746,3,3,3,2,-9.800000000000001,1.2,0.07000000000000001,-0.62,0.04,-0.35
7.898481965065002,3,3,3,2,-9.66,1.08,0.14,-1.12,-0.07000000000000001,-0.13
7.908481955528259,3,3,3,2,-9.4,0.98,0.14,-1.23,-0.07000000000000001,-0.09
7.918481945991516,3,3,3,2,-9.4,1.08,0.16,-0.99,0.2,-0.2
7.928481936454773,3,3,3,2,-9.67,1.41,0.06,-0.99,0.27,-0.07000000000000001
7.93848192691803,3,3,3,2,-9.59,1.31,-0.04,-1.09,0.18,0.06
7.978481888771057,3,3,3,2,-9.699999999999999,1.67,-0.27,-0.84,0.33,0.27
7.988481879234314,3,3,3,2,-9.710000000000001,1.63,-0.03,-0.03,0.18,0.44
7.998481869697571,3,3,3,2,-9.41,1.49,0.15,0.3,0.05,0.77
8.008481860160828,3,3,3,2,-9.529999999999999,1.5,0.16,0.57,0.21,0.88
8.018481850624084,3,3,3,2,-9.33,1.29,0.2,0.03,0.13,1.19
8.028481841087341,3,3,3,2,-9.130000000000001,1.42,0.29,0.3,0.1,1.31
8.038481831550598,3,3,3,2,-9.17,1.84,0.13,0.97,0.07000000000000001,1.29
8.048482060432434,3,3,3,2,-8.880000000000001,3.06,0.03,1.27,-0.02,1.48
8.058482050895691,3,3,3,2,-8.32,3.8,-0.21,1.38,-0.09,1.68
8.068482041358948,3,3,3,3,-7.63,4.81,-0.54,1.33,0.06,2.1
8.078482031822205,3,3,3,3,-6.94,6.09,-0.72,1.93,0.35,2.5
8.088482022285461,3,3,3,3,-5.82,9.109999999999999,-0.73,3.37,0.84,2.88
8.098482012748718,3,3,3,3,-5.46,10.45,-0.45,5.18,2.08,3.88
8.108482003211975,3,3,3,3,-5.44,11.44,-0.06,5.98,4.1,5.33
8.118481993675232,3,3,3,3,-5.6,11.19,-0.15,4.21,6.22,7.37
8.128481984138489,3,3,3,3,-6.53,7.27,-1.72,0.65,8.449999999999999,8.92
8.168481945991516,3,3,3,3,-7.27,-4.33,-3.11,-1.34,9.779999999999999,8.49
8.178481936454773,3,3,3,3,-7.78,-2.66,-3.18,4.11,9.83,8.68
8.18848192691803,3,3,3,3,-7.56,-0.13,-2.22,8.84,7.89,10.4
8.198481917381287,3,3,3,3,-8.33,2.29,-0.73,13.89,6.27,10.98
8.208481907844543,3,3,3,3,-9.91,3.92,-1.06,15.72,7.13,9.66
8.2184818983078,3,3,3,3,-11.14,3.23,-0.06,12.67,7.77,8.74
8.228481888771057,3,3,3,3,-10.72,0.55,-1.08,7.75,8.83,9.699999999999999
8.238481879234314,3,3,3,3,-10.4,-2.51,-1.01,5.53,11.35,9.699999999999999
8.248481869697571,3,3,3,3,-10.72,-2.12,-1.95,4.91,13.16,9.550000000000001
8.258481860160828,3,3,3,3,-10.31,-1.34,-1.32,4.51,13.69,10.23
8.268481850624084,3,3,3,3,-10.32,0.63,-1.65,4.2,13.01,11.18
8.278481841087341,3,3,3,3,-11.25,3.77,-0.9,4.88,13.2,11.76
8.288481831550598,3,3,3,3,-11.86,4.8,-1.09,3.63,12.87,11.73
8.298482060432434,3,3,3,3,-11.76,3.14,-1.67,2.06,12.93,11.31
8.308482050895691,3,3,3,3,-11.34,2.29,-1.41,1.55,13.1,11.78
8.318482041358948,3,3,3,3,-9.49,-1.28,-1.69,1.06,12.7,12.2
8.328482031822205,3,3,3,3,-10.71,-1.17,-2.1,0.29,10.84,12.08
8.338482022285461,3,3,3,3,-11.26,0.31,-2.11,3.01,9.619999999999999,11.46
8.348482012748718,3,3,3,3,-10.83,1.4,-2.46,5.08,7.61,10.55
8.358482003211975,3,3,3,3,-11.87,5,-2.73,5.64,6.12,9.43
8.368481993675232,3,3,3,3,-11.97,4.6,-2.91,4.09,5.03,8.859999999999999
8.378481984138489,3,3,3,3,-11.19,3.91,-4.2,0.08,3.76,7.81
8.388481974601746,3,3,3,3,-11.22,4.85,-3.73,-1.69,3.15,6.38
8.398481965065002,3,3,3,3,-10.95,3.44,-3.15,-1.03,2.34,6.42
8.408481955528259,3,3,3,3,-10.56,2.51,-2.76,-1.42,1.33,4.75
8.418481945991516,3,3,3,3,-10.95,2.67,-2.19,-0.64,-0.34,2.77
8.428481936454773,3,3,3,3,-11.2,3,-2.59,-0.3,-2.2,1.35
8.43848192691803,3,3,3,3,-13.83,4.32,-1.82,-0.6,-3.74,-1.13
8.448481917381287,3,3,3,3,-13.71,3.44,-2.26,-2.07,-5.47,-3.89
8.458481907844543,3,3,3,3,-14.03,3.14,-2.26,-2.95,-7.41,-6.32
8.4684818983078,3,3,3,3,-14.79,4.59,-1.95,-2.02,-8.779999999999999,-7.02
8.478481888771057,3,3,3,3,-15.66,4.27,-3.24,-2.36,-10.45,-7.38
8.488481879234314,3,3,3,3,-17.5,3.02,-3.81,-4.67,-12.01,-8.76
8.498481869697571,3,3,3,3,-19.76,1.21,-5.9,-8.859999999999999,-13.97,-10.63
8.508481860160828,3,3,3,3,-22.32,1.2,-4.36,-9.57,-16.7,-13.06
8.518481850624084,3,3,3,3,-26.84,-2.76,-2.72,-7.76,-19.58,-15.45
8.528481841087341,3,3,3,3,-28.92,-3.86,-1.93,-4.41,-21.68,-15.03
8.538481831550598,3,3,3,3,-31.28,-5.69,-0.9,-6.04,-23.71,-12.89
8.548482060432434,3,3,3,3,-34.78,-7.94,-0.45,-8.289999999999999,-26.51,-13.97
8.558482050895691,3,3,3,3,-38.32,-7.62,0.46,-9.16,-28.15,-12.14
8.568482041358948,3,3,3,3,-38.47,-5.34,2.64,-7.09,-27.45,-13.61
8.579481959342957,3,3,3,3,-37.87,-0.4,3.74,-3.5,-23.49,-10.8
8.589481949806213,3,3,3,3,-31.97,4.17,2.68,-6.14,-18.23,-10.7
8.59948194026947,3,3,3,3,-11.11,1.09,-3.87,-14.57,-9.869999999999999,-16.34
8.609481930732727,3,3,3,3,1.1,4.17,-11.22,-17.07,-5.56,-21.43
8.619481921195984,3,3,3,3,7.39,28.53,-15.21,9.81,-3.77,-20.23
8.639481902122498,3,3,3,3,-3.54,18.41,-1.49,28.93,-17.46,-10.01
8.649481892585754,3,3,3,3,-6.11,5.11,2.98,12.75,-11.12,-10.42
8.659481883049011,3,3,3,3,-2.03,10,5.41,6.95,-7.08,-8.23
8.669481873512268,3,3,3,3,1.6,10.03,2.13,5.77,-5.22,-3.71
8.679481863975525,3,3,3,3,-0.8100000000000001,0.57,-2.44,-1.77,2.02,0.82
8.689481854438782,3,3,3,3,-1.4,-4.17,-3.41,-5.49,4.79,-1.13
8.699481844902039,3,3,3,3,-1.05,-6.76,-3.2,-8.74,5.74,-4.34
8.709481835365295,3,3,3,3,2.04,-9.609999999999999,-1.58,-10.6,3.61,-4.68
8.769482016563416,3,3,3,2,-1.33,5.4,-0.65,-4.75,5.03,0.1
8.779482007026672,3,3,3,2,-0.39,3.01,-0.88,-4.75,5.03,0.1
8.789481997489929,3,3,3,2,0.95,3.15,-1.07,-1.97,5.26,-0.14
8.799481987953186,3,3,3,2,0.98,0.91,-1.22,-1.86,4.48,0.72
8.809481978416443,3,3,3,2,0.1,-0.91,-1.3,-3.03,3.84,2.01
8.8194819688797,3,3,3,2,0.06,-1.19,-1.34,-2.33,1.26,1.22
8.829481959342957,3,3,3,2,0.21,-1.57,-1.09,-2.33,1.26,1.22
8.839481949806213,3,3,3,2,0.22,-1.14,-0.24,-2.03,0.72,1.15
8.84948194026947,3,3,3,2,0.43,0.45,0.15,-1.43,-0.08,1.23
8.879481911659241,3,3,3,2,0.24,2.14,0.25,-1.82,-0.57,2.18
8.889481902122498,3,3,3,2,0,0.8,0.01,-1.86,0.23,1.75
8.899481892585754,3,3,3,2,0.3,-0.1,0.05,-1.87,-0.32,1.1
8.909481883049011,3,3,3,2,0.84,-0.13,-0.05,-1.8,0.2,0.74
8.919481873512268,3,3,3,2,-0.16,-1.28,0.33,-1.37,0.41,0.49
8.929481863975525,3,3,3,2,-0.5,-1.76,-0.04,-0.2,0.5600000000000001,0.15
8.939481854438782,3,3,3,2,-0.58,-2,-0.46,1.46,0.24,-0.53
8.949481844902039,3,3,3,2,-0.78,-1.3,0.17,2.83,-0.97,-0.59
8.959481835365295,3,3,3,2,-0.99,0.31,1.82,4.79,-1.86,-0.37
8.969481825828552,3,3,3,2,-0.73,1.88,2.31,7.39,-2.74,-0.06
8.979482054710388,3,3,3,2,-0.51,2.42,1.69,8.02,-2.83,0.17
8.989482045173645,3,3,3,2,-0.52,2.76,1.46,9.07,-3.66,0.48
8.999482035636902,3,3,3,2,0.8,6.62,0.39,9.84,-3.65,0.97
9.009482026100159,3,3,3,2,1.11,9.32,-0.36,6.75,-1.57,1.28
9.019482016563416,3,3,3,2,1.04,10.84,-1.89,1.61,0.06,0.8
9.029482007026672,3,3,3,2,0.9,11.63,-2.49,-3.72,1.66,0
9.039481997489929,3,3,3,2,-0.45,11.52,-2.13,-9.68,3.8,0.27
9.049481987953186,3,3,3,2,-1.4,8.59,-0.77,-15.83,4.97,0.96
9.059481978416443,3,3,3,2,-3.76,2.59,-0.01,-20.21,3.11,2.25
9.0694819688797,3,3,3,2,-3.26,-20.47,-1.32,-15.23,1.26,1.19
9.079481959342957,3,3,3,2,-4.31,-27.84,-10.57,-7.88,2.88,1.26
9.089481949806213,3,3,3,2,-13.92,15.64,9.48,32.98,-20.03,4.53
9.09948194026947,3,3,3,2,-11.13,35.08,2.02,0.5,-6.43,-1.29
9.109481930732727,3,3,3,2,-34.67,-39.71,-21.56,-29.16,14.02,-6.98
9.119481921195984,3,3,3,2,-36.45,1.07,-37.71,19.82,2.6,-7.17
9.129481911659241,3,3,3,2,-39.18,38.73,-37.81,81.43000000000001,-18.75,16.42
9.139481902122498,3,3,3,2,-39.04,38.72,14.57,52.63,-4.56,62.74
9.149481892585754,3,3,3,2,-27.3,-39.71,4.38,-83.63,80.73,-4.74
9.159481883049011,3,3,3,2,-39.18,-39.71,-10.61,-129.96,56.05,-5.17
9.169481873512268,3,3,3,2,-24.71,-39.46,3.31,-35.23,28.87,20.05
9.179481863975525,3,3,3,2,-7.83,-39.71,3.41,59.39,18.37,10.65
9.189481854438782,3,3,3,2,-7.95,-9.210000000000001,-7.47,105.91,8.35,4.34
9.199481844902039,3,3,3,2,-18.34,29.02,0.13,87.43000000000001,-6.35,9.720000000000001
9.209481835365295,3,3,3,2,-29.21,38.73,7.28,30.31,-13.77,-5.16
9.219481825828552,3,3,3,2,-35.93,21.56,0.88,-6,-3.83,4.18
9.229482054710388,3,3,3,2,-23.7,-2.65,-7.48,-35.91,0.44,-6.86
9.239482045173645,3,3,3,2,-22.07,-4.88,-7.29,-41.38,-0.01,0.01
9.249482035636902,3,3,3,2,-16.07,-3.55,-5.63,-33.01,-0.59,4.58
9.259482026100159,3,3,3,2,-12.63,-4.11,-6.89,-14.82,-1.15,0.18
9.269482016563416,3,3,3,2,-12.99,-3.31,-3.64,6.59,-0.83,-2.55
9.329481959342957,3,3,3,2,-13.49,6.71,-0.78,-4.81,-7.98,-4.55
9.339481949806213,3,3,3,2,-14.55,7.28,-0.17,-6.76,-6.43,-5.03
9.34948194026947,3,3,3,2,-12.42,6.52,0.49,-4.86,-4.54,-5.48
9.369481921195984,3,3,3,2,-7.92,4.81,1.69,-3.64,-2.63,-3.69
9.379481911659241,3,3,3,2,-6.28,3.57,1.52,-8.85,-2.34,-3.14
9.389481902122498,3,3,3,2,-4.65,-0.53,0.15,-12.74,-2.45,-2.68
9.399481892585754,3,3,3,2,-5.01,-2.53,-0.67,-12.58,-3.61,-3.27
9.409481883049011,3,3,3,2,-4.95,-2.89,-0.79,-9.77,-4.98,-3.39
9.419481873512268,3,3,3,2,-5.64,-1.85,-1.14,-7.19,-5.55,-4.01
9.429481863975525,3,3,3,2,-4.74,2.92,-1.81,-3.87,-6.73,-4.17
9.439481854438782,3,3,3,2,-4.89,3.87,-2.66,-4.19,-6,-4.33
9.449481844902039,3,3,3,2,-5.83,4.55,-2.85,-2.68,-6,-2.98
9.459481835365295,3,3,3,2,-5.34,3.86,-2.99,-2.58,-4.39,-2.39
9.469481825828552,3,3,3,2,-5.03,2.36,-2.23,-2.87,-2.63,-1.89
9.479482054710388,3,3,3,2,-4.14,1.81,-1,-3.88,-0.93,-1.92
9.489482045173645,3,3,3,2,-4.4,1.49,-0.7,-5.17,-0.08,-2.31
9.499482035636902,3,3,3,2,-4.67,0.5600000000000001,-0.89,-4.26,-0.93,-2.56
9.509482026100159,3,3,3,2,-5.73,1.11,-0.44,-2.9,-1.47,-2.7
9.519482016563416,3,3,3,2,-6.42,1.16,-0.33,-2,-1.41,-2.25
9.529482007026672,3,3,3,2,-7.16,1.65,-0.36,-1.18,-1.69,-2.56
9.539481997489929,3,3,3,2,-7.55,1.77,-0.3,-1.08,-1.21,-2.81
9.549481987953186,3,3,3,2,-8.75,2.48,-0.5600000000000001,-1.41,-0.52,-2.7
9.559481978416443,3,3,3,2,-9.59,3.35,-0.48,-0.05,-1.55,-2.16
9.5694819688797,3,3,3,2,-10.16,4.29,0.38,1.52,-2.29,-1.32
9.580481886863708,3,3,3,2,-10.75,4.73,0.75,1.59,-2.51,-0.72
9.589481949806213,3,3,3,2,-11.96,3.99,0.86,0.1,-2.76,-0.32
9.600481867790222,3,3,3,2,-12.08,2.83,0.5,-1.38,-2.53,0.18
9.610481858253479,3,3,3,2,-11.61,1.35,0.41,-1.25,-2.33,0
9.620481848716736,3,3,3,2,-11.51,0.33,-0.04,-1.61,-1.96,0.18
9.630481839179993,3,3,3,2,-11.93,-0.92,-1.55,-0.82,-1.73,0.51
9.64048182964325,3,3,3,2,-12.17,-0.49,-1.52,0.37,-2.18,0.21
9.650482058525085,3,3,3,2,-12.86,-0.28,-1.04,0.3,-2.71,-0.11
9.660482048988342,3,3,3,2,-13.7,-0.68,-0.62,0.3,-2.67,-0.43
9.670482039451599,3,3,3,2,-13.67,-0.38,0.42,0.25,-2.75,-0.95
9.680482029914856,3,3,3,2,-13.14,0.43,0.89,-0.11,-2.88,-1.28
9.690482020378113,3,3,3,2,-11.85,1.04,0.95,-0.95,-2.57,-1.67
9.70048201084137,3,3,3,2,-11.36,1.53,1.07,-1.67,-2.11,-1.39
9.710482001304626,3,3,3,2,-9.720000000000001,1.7,0.75,-1.97,-2.02,-1.28
9.720481991767883,3,3,3,2,-9.289999999999999,1.99,0.44,-1.57,-2.24,-1.26
9.73048198223114,3,3,3,2,-8.83,2.31,0.37,-0.79,-2.73,-1.04
9.740481972694397,3,3,3,2,-8.24,2.22,0.14,0.34,-3.02,-0.78
9.750481963157654,3,3,3,2,-7.42,2.84,-0.47,0.87,-2.95,-0.42
9.760481953620911,3,3,3,2,-6.99,2.82,-0.8,1.48,-3.11,-0.02
9.770481944084167,3,3,3,2,-6.55,2.68,-0.8100000000000001,1.77,-3.01,0.07000000000000001
9.780481934547424,3,3,3,2,-6.33,2.28,-0.88,1.37,-2.7,-0.05
9.790481925010681,3,3,3,2,-7,1.43,-0.34,0.99,-2.32,-0.26
9.800481915473938,3,3,3,2,-7.52,1.34,-0.26,0.97,-2.09,-0.4
9.810481905937195,3,3,3,2,-7.93,1.76,0.14,0.9,-2.25,-0.3
9.820481896400452,3,3,3,2,-8.06,1.85,0.74,0.76,-2.32,-0.38
9.830481886863708,3,3,3,2,-8.27,1.44,1.17,0.63,-2.22,-0.17
9.840481877326965,3,3,3,2,-7.95,1.21,0.74,0.62,-2.17,-0.12
9.850481867790222,3,3,3,2,-7.81,1.15,0.26,0.68,-2.33,0.15
9.860481858253479,3,3,3,2,-7.36,2.4,-0.52,0.55,-2.3,0.46
9.870481848716736,3,3,3,2,-7.76,3.04,-1.5,-0.05,-1.83,0.75
9.880481839179993,3,3,3,2,-8.51,3.16,-2.02,-0.13,-1.71,0.83
9.89048182964325,3,3,3,2,-9.27,3.26,-1.92,-0.08,-1.63,0.98
9.900482058525085,3,3,3,2,-10.99,2.41,-0.5,-0.15,-0.85,0.95
9.910482048988342,3,3,3,2,-12.13,2.48,-0.26,-1.02,-0.19,1.16
9.920482039451599,3,3,3,2,-12.55,2.79,0.54,-1.46,-0.08,1.32
9.930482029914856,3,3,3,2,-12.46,3.05,1.02,-1.81,-0.1,1.02
9.940482020378113,3,3,3,2,-11.67,3.91,2.23,-2.03,-0.05,1.05
9.95048201084137,3,3,3,2,-11.69,4.15,2.82,-1.67,0.23,1.51
9.960482001304626,3,3,3,2,-11.81,4.29,2.87,-0.6899999999999999,0.2,2.24
9.970481991767883,3,3,3,2,-11.66,4.36,2.96,1.24,0.24,3.15
9.98048198223114,3,3,3,2,-10.8,3.69,2.44,3.7,0.37,4.21
9.990481972694397,3,3,3,2,-10.53,2.97,2.21,5.58,0.31,4.87
10.00048196315765,3,3,3,2,-10.38,2.27,2.1,6.58,0.08,5.31
10.01048195362091,3,3,3,2,-10.09,1.6,1.76,6.41,0.03,5.44
10.02048194408417,3,3,3,3,-9.74,0.22,1.62,5,0.01,5.43
10.03048193454742,3,3,3,3,-10.02,-1.1,1.14,2.54,0.31,5.15
10.04048192501068,3,3,3,3,-9.630000000000001,-2.47,0.49,-0.85,-0.49,4.1
10.08048188686371,3,3,3,3,-9.800000000000001,-6,1.6,1.72,-3.28,0.19
10.09048187732697,3,3,3,3,-9.710000000000001,-4.46,1.65,1.54,-4.11,0.07000000000000001
10.10048186779022,3,3,3,3,-9.050000000000001,-1.45,1.87,1.54,-4.11,0.07000000000000001
10.11048185825348,3,3,3,3,-8.789999999999999,-1.23,2.31,-0.98,-3.38,0
10.12048184871674,3,3,3,3,-8.710000000000001,-0.61,2.25,-3.73,-3.29,0.17
10.13048183917999,3,3,3,3,-8.76,0.53,2.08,-6.29,-2.9,0.14
10.14048182964325,3,3,3,3,-9.01,1.11,1.51,-9.119999999999999,-2.29,-0.3
10.15048205852509,3,3,3,3,-9.02,1.02,1.64,-10.69,-1.94,-0.87
10.16048204898834,3,3,3,3,-9.050000000000001,0.9399999999999999,1.6,-11.53,-1,-1.51
10.1704820394516,3,3,3,3,-9.57,1.34,1.15,-10.69,0.1,-1.85
10.18048202991486,3,3,3,3,-9.74,0.53,0.64,-8.92,0.62,-2.53
10.19048202037811,3,3,3,3,-9.82,0.36,0.34,-6.34,1.58,-3.15
10.20048201084137,3,3,3,3,-9.380000000000001,0.85,-0.17,-3.9,1.6,-3.97
10.21048200130463,3,3,3,3,-8.98,2.52,-1.01,-1.66,2.28,-3.67
10.22048199176788,3,3,3,3,-11.39,0.7,-0.06,-2.13,2.46,-3.32
10.23048198223114,3,3,3,3,-11.39,-2.36,0.27,-1.76,-0.01,-3.98
10.2404819726944,3,3,3,3,-10.02,-1.8,1,2.44,-1.37,-4.17
10.25048196315765,3,3,3,3,-9.279999999999999,0.92,1.63,6.72,-0.45,-2.81
10.26048195362091,3,3,3,3,-8.539999999999999,3.92,2.45,8.27,0.72,-1.6
10.32048189640045,3,3,3,3,-9.630000000000001,3.74,1.79,9.890000000000001,-1.37,0.15
10.33048188686371,3,3,3,3,-10.11,5.04,2.4,6.95,-2.32,0.5600000000000001
10.34048187732697,3,3,3,3,-10.11,4.19,2.02,2.37,-2.56,0.29
10.35048186779022,3,3,3,3,-9.69,3.5,1.45,-1.66,-0.4,-0.34
10.36048185825348,3,3,3,3,-9.550000000000001,3.26,0.13,-3.29,2.08,-0.48
10.37048184871674,3,3,3,3,-9.82,2.99,-1.02,-4.33,3.45,-0.4
10.38048183917999,3,3,3,3,-10.25,2.16,-1.23,-4.08,3.27,-0.11
10.39048182964325,3,3,3,3,-9.800000000000001,2.28,-0.6899999999999999,-3.72,2.77,0.12
10.4204820394516,3,3,3,3,-9.65,1.28,1.02,-0.28,1.17,-0.28
10.43048202991486,3,3,3,3,-9.48,1.13,1.09,0.36,0.5,-0.33
10.44048202037811,3,3,3,3,-9.449999999999999,0.7,0.9,0.45,0.5600000000000001,-0.31
10.45048201084137,3,3,3,3,-9.369999999999999,0.45,0.73,0.79,1.02,-0.49
10.46048200130463,3,3,3,3,-9.91,1.13,0.14,1.09,1.56,-0.51
10.47048199176788,3,3,3,3,-10.17,1.52,0,0.63,1.65,-0.33
10.48048198223114,3,3,3,3,-10.14,1.68,0.23,0.43,1.48,-0.32
10.4904819726944,3,3,3,3,-9.94,1.85,0.31,0.47,1.58,-0.44
10.50048196315765,3,3,3,3,-9.91,2.12,0.38,0.26,1.35,-0.73
10.51048195362091,3,3,3,3,-9.779999999999999,2.18,0.49,-0.53,1.13,-0.76
10.52048194408417,3,3,3,3,-9.66,2.02,0.59,-1.71,1.32,-0.59
10.53048193454742,3,3,3,3,-9.58,1.57,0.57,-2.86,1.53,-0.66
10.54048192501068,3,3,3,3,-9.550000000000001,0.83,0.28,-3.17,2.02,-0.79
10.55048191547394,3,3,3,3,-9.699999999999999,0.6,0.23,-2.07,1.8,-0.74
10.56048190593719,3,3,3,3,-9.640000000000001,0.53,0.23,-2.07,1.8,-0.74
10.57048189640045,3,3,3,3,-9.699999999999999,0.67,0.18,-1.1,1.78,-0.78
10.58048188686371,3,3,3,3,-10.03,1.12,0.11,-0.73,0.99,-0.6
10.59048187732697,3,3,3,3,-9.710000000000001,1.13,0.29,-0.73,0.99,-0.6
10.60048186779022,3,3,3,3,-9.789999999999999,0.99,0.45,-0.74,1.37,-0.39
10.61048185825348,3,3,3,3,-9.81,0.8100000000000001,0.38,-0.74,1.37,-0.39
10.62048184871674,3,3,3,3,-9.609999999999999,0.85,0.29,-0.5600000000000001,1.56,-0.46
10.63148200511932,3,3,3,3,-9.69,0.99,0.28,0.01,1.7,-0.59
10.64148199558258,3,3,3,3,-9.67,1.37,0.19,-0.29,1.42,-0.19
10.65148198604584,3,3,3,3,-9.58,1.2,0.15,-0.31,1.36,-0.08
10.66148197650909,3,3,3,3,-9.58,1.06,0.16,-0.31,1.36,-0.08
10.67148196697235,3,3,3,3,-9.68,0.85,0.18,0.05,1.16,-0.06
10.68148195743561,3,3,3,3,-9.779999999999999,0.61,0.09,1.1,0.39,-0.13
10.69148194789886,3,3,3,3,-9.789999999999999,1.25,-0.29,1.37,0.43,-0.19
10.70148193836212,3,3,3,3,-9.880000000000001,1.38,-0.05,1.09,0.36,-0.07000000000000001
10.71148192882538,3,3,3,3,-10.01,1.42,-0.01,1.09,0.36,-0.07000000000000001
10.72148191928864,3,3,3,3,-9.81,1.26,0.09,0.51,0.33,-0.16
10.74148190021515,3,3,3,3,-9.67,1.31,-0.14,-0.19,0.51,-0.27
10.75148189067841,3,3,3,3,-9.789999999999999,1.23,-0.12,-0.84,0.63,-0.28
10.76148188114166,3,3,3,3,-9.83,1.14,-0.2,-0.84,0.63,-0.28
10.77148187160492,3,3,3,3,-9.81,0.99,-0.36,-0.6899999999999999,0.8,-0.46
10.78148186206818,3,3,3,3,-9.710000000000001,1.17,-0.25,0.15,0.39,-0.42
10.79148185253143,3,3,3,3,-9.539999999999999,1.52,-0.13,2.34,-0.36,-0.4
10.80148184299469,3,3,3,3,-9.380000000000001,2.05,0.16,2.73,-0.35,-0.31
10.81148183345795,3,3,3,3,-9.09,2.91,0.42,2.73,-0.35,-0.31
10.8214818239212,3,3,3,3,-8.869999999999999,3.12,0.49,2.41,-0.32,-0.16
10.83148205280304,3,3,3,3,-8.699999999999999,3.63,0.58,1.42,-0.11,0.44
10.8414820432663,3,3,3,3,-8.800000000000001,3.98,0.55,0.43,0.03,0.74
10.85148203372955,3,3,3,3,-9.48,2.94,0.6,-0.14,0.64,0.84
10.86148202419281,3,3,3,3,-9.699999999999999,2.67,0.72,-0.14,0.64,0.84
10.87148201465607,3,3,3,3,-10.22,2.15,0.8100000000000001,-1.12,1.57,1.01
10.88148200511932,3,3,3,3,-10.59,1.29,0.63,-3.23,2.08,0.44
10.89148199558258,3,3,3,3,-10.27,-0.62,0.03,0.68,1.59,0.3
10.90148198604584,3,3,3,3,-10.44,-0.58,-0.26,2.87,0.17,0.51
10.91148197650909,3,3,3,3,-10.25,-0.37,-0.07000000000000001,2.87,0.17,0.51
10.92148196697235,3,3,3,3,-9.73,0.02,0.34,4.01,-0.3,0.31
10.93148195743561,3,3,3,3,-9.41,0.39,0.85,2.27,1.53,0.09
10.94148194789886,3,3,3,3,-9.4,0.1,0.58,2.02,2.15,-0.32
10.95148193836212,3,3,3,3,-9.210000000000001,-0.06,0.96,2.58,2.76,-0.19
10.96148192882538,3,3,3,3,-9.529999999999999,-0.1,0.95,2.58,2.76,-0.19
10.97148191928864,3,3,3,3,-9.869999999999999,-0.1,1.02,2.55,2.15,0.1
10.98148190975189,3,3,3,3,-9.49,-0.09,1.24,2.11,1.61,-0.16
10.99148190021515,3,3,3,3,-9.289999999999999,-0.04,1.12,2.02,1.65,-0.44
11.00148189067841,3,3,3,3,-9.359999999999999,0.18,0.96,1.5,1.62,-0.75
11.01148188114166,3,3,3,3,-9.300000000000001,0.49,1.17,1.5,1.62,-0.75
11.02148187160492,3,3,3,3,-9.56,0.87,1.3,1.74,1.88,-0.9
11.03148186206818,3,3,3,3,-9.859999999999999,1.17,1.2,0.35,0.9,-0.58
11.04148185253143,3,3,3,3,-9.91,1.53,1.35,-1.19,0.79,-0.78
11.05148184299469,3,3,3,3,-9.74,0.9399999999999999,1.08,-2.36,1.25,-1.13
11.06148183345795,3,3,3,3,-9.390000000000001,0.66,0.64,-2.36,1.25,-1.13
11.0714818239212,3,3,3,3,-9.359999999999999,0.44,0.22,-3.37,2.2,-1.4
11.08148205280304,3,3,3,3,-10.02,0.58,-0.19,-3.34,2.14,-0.92
11.0914820432663,3,3,3,3,-10.77,1.05,-0.25,-3.56,1.8,-1.06
11.10148203372955,3,3,3,3,-10.66,0.87,-0.19,-4.72,1.71,-1.27
11.11148202419281,3,3,3,3,-10.39,0.74,-0.08,-4.72,1.71,-1.27
11.12148201465607,3,3,3,3,-10.18,0.13,0.19,-6.45,2.01,-1.62
11.13148200511932,3,3,3,3,-10.19,-1.57,0.26,-7.46,2.41,-2.47
11.14148199558258,3,3,3,3,-10.04,-2.08,0.37,-7.34,2.56,-2.97
11.15148198604584,3,3,3,3,-10.15,-2.39,0.18,-6.85,2.34,-3.53
11.16148197650909,3,3,3,3,-9.970000000000001,-2.19,0.28,-6.85,2.34,-3.53
11.17148196697235,3,3,3,3,-9.890000000000001,-1.36,0.87,-7.14,1.97,-4.03
11.18148195743561,3,3,3,3,-9.69,-0.86,0.8,-7.82,1.65,-4.27
11.19148194789886,3,3,3,3,-9.33,0.31,0.72,-7.82,1.25,-4.29
11.20148193836212,3,3,3,3,-9.369999999999999,1.08,0.42,-7.73,0.37,-4.36
11.21148192882538,3,3,3,3,-9.199999999999999,2.09,0.26,-7.73,0.37,-4.36
11.22148191928864,3,3,3,3,-9.220000000000001,2.94,0.15,-7.4,0.11,-4.07
11.23148190975189,3,3,3,3,-9.31,3.44,0.03,-8.25,0.41,-3.2
11.24148190021515,3,3,3,3,-9.449999999999999,2.94,-0.17,-8.01,0.83,-2.9
11.25148189067841,3,3,3,3,-9.93,1.81,-0.82,-7.41,1.19,-2.95
11.26148188114166,3,3,3,3,-9.99,0.7,-1.07,-7.41,1.19,-2.95
11.27148187160492,3,3,3,3,-10.04,0.95,-1.49,-5.78,1.12,-2.98
11.28148186206818,3,3,3,3,-9.880000000000001,1.14,-1.51,-3.63,1.42,-2.4
11.29148185253143,3,3,3,3,-10.15,0.33,-1.81,-2.11,1.78,-2.27
11.30148184299469,3,3,3,3,-10.39,0.06,-1.74,0.19,1.46,-2.08
11.31148183345795,3,3,3,3,-10.44,-0.01,-1.58,0.19,1.46,-2.08
11.3214818239212,3,3,3,3,-10.28,0,-1.49,2.63,1.14,-2.29
11.33148205280304,3,3,3,3,-9.91,0.91,-1.23,5.43,0.09,-2.36
11.3414820432663,3,3,3,3,-9.529999999999999,1.42,-1.2,5.55,-0.07000000000000001,-2.12
11.35148203372955,3,3,3,3,-9.48,1.76,-1.07,5.12,0.12,-1.73
11.36148202419281,3,3,3,3,-9.43,1.91,-0.73,5.12,0.12,-1.73
11.37148201465607,3,3,3,3,-9.51,1.47,-0.49,4.31,0.47,-1.66
11.38148200511932,3,3,3,3,-9.57,1.34,-0.68,4.61,0.66,-1.59
11.39148199558258,3,3,3,3,-9.550000000000001,1.5,-0.92,4.93,0.67,-1.61
11.40148198604584,3,3,3,3,-9.51,1.71,-1.06,4.95,0.48,-1.7
11.41148197650909,3,3,3,3,-9.32,2.19,-0.97,4.95,0.48,-1.7
11.42148196697235,3,3,3,3,-9.300000000000001,2.3,-0.64,5,0.43,-1.78
11.43148195743561,3,3,3,3,-9.619999999999999,2.12,-0.45,4.57,0.35,-1.7
11.44148194789886,3,3,3,3,-9.6,2,-0.34,3.69,0.63,-1.53
11.45148193836212,3,3,3,3,-9.880000000000001,0.83,-0.66,3.43,0.57,-1.66
11.46148192882538,3,3,3,3,-9.93,0,-0.59,3.43,0.57,-1.66
11.47148191928864,3,3,3,3,-10.07,-0.27,-0.46,3.58,0.65,-1.89
11.48148190975189,3,3,3,3,-9.779999999999999,-0.45,-0.6899999999999999,4.27,0.41,-2.74
11.49148190021515,3,3,3,3,-10.03,-0.04,-0.64,4.45,0.1,-3.14
11.50148189067841,3,3,3,3,-10.04,0.5600000000000001,-0.3,4.09,-0.17,-3.4
11.51148188114166,3,3,3,3,-9.550000000000001,0.97,-0.46,4.09,-0.17,-3.4
11.52148187160492,3,3,3,3,-9.74,1.31,-0.91,3.61,0.16,-3.62
11.53148186206818,3,3,3,3,-9.359999999999999,1.58,-0.85,2.28,0.19,-3.42
11.54148185253143,3,3,3,3,-9.23,1.51,-0.91,1.93,0.59,-3.58
11.55148184299469,3,3,3,3,-9.59,1,-0.95,2.32,0.55,-3.7
11.56148183345795,3,3,3,3,-9.73,0.83,-1.08,2.32,0.55,-3.7
11.5714818239212,3,3,3,3,-9.960000000000001,0.66,-1.02,2.55,0.68,-3.88
11.58148205280304,3,3,3,3,-9.789999999999999,0.65,-0.77,2.4,0.27,-3.99
11.5914820432663,3,3,3,3,-9.539999999999999,0.43,-0.78,2.1,0.61,-4.17
11.60148203372955,3,3,3,3,-9.81,-0.22,-0.65,2.73,0.51,-4.3
11.61148202419281,3,3,3,3,-9.65,-0.16,-0.44,2.73,0.51,-4.3
11.62148201465607,3,3,3,3,-9.82,-0.54,-0.5600000000000001,3.34,0.54,-4.72
11.63148200511932,3,3,3,3,-9.789999999999999,-0.18,-0.32,4.66,0.2,-5.1
11.64148199558258,3,3,3,3,-9.619999999999999,0.18,-0.63,5.02,0.06,-5.15
11.65248191356659,3,3,3,3,-9.710000000000001,0.85,-0.74,5.35,0.13,-5.3
11.66248190402985,3,3,3,3,-10,1.15,-0.72,5.35,0.13,-5.3
11.6724818944931,3,3,3,3,-9.949999999999999,1.4,-0.53,5.38,0.11,-5.38
11.68248188495636,3,3,3,3,-9.720000000000001,1.14,-1.2,4.45,0.36,-5.68
11.69248187541962,3,3,3,3,-9.69,0.46,-1.52,3.75,0.11,-5.47
11.70248186588287,3,3,3,3,-9.789999999999999,0.08,-1.58,3.46,0.01,-5.49
11.71248185634613,3,3,3,3,-10.01,-0.48,-1.62,3.46,0.01,-5.49
11.72248184680939,3,3,3,3,-10.33,-1.23,-1.83,4.63,-0.36,-5.49
11.73248183727264,3,3,3,3,-10.17,-0.89,-1.77,6.88,-1.56,-6.19
11.7424818277359,3,3,3,3,-10.04,-0.26,-1.71,6.33,-1.77,-6.7
11.75248205661774,3,3,3,3,-9.779999999999999,-0.34,-1.92,6.99,-2.11,-6.66
11.76248204708099,3,3,3,3,-10.13,1.1,-1.79,6.99,-2.11,-6.66
11.77248203754425,3,3,3,3,-10.45,1.67,-1.58,6.95,-1.93,-6.87
11.78248202800751,3,3,3,3,-10.34,1.84,-1.82,5.86,-1.62,-6.78
11.79248201847076,3,3,3,3,-10.63,2.27,-1.79,4.73,-1.66,-6.7
11.80248200893402,3,3,3,3,-10.48,2.57,-1.11,3.16,-1.63,-6.59
11.81248199939728,3,3,3,3,-10.36,1.96,-1.09,3.16,-1.63,-6.59
11.82248198986053,3,3,3,2,-10.65,1.97,-1.05,2.55,-1.18,-6.25
11.83248198032379,3,3,3,2,-10.44,2.03,-1.11,1.15,-0.5,-5.8
11.84248197078705,3,3,3,2,-11.38,2.33,-1.05,0.08,-0.33,-5.56
11.85248196125031,3,3,3,2,-11.74,2.15,-0.83,-0.41,-0.52,-4.74
11.86248195171356,3,3,3,2,-11.85,2.42,-0.6899999999999999,-0.41,-0.52,-4.74
11.87248194217682,3,3,3,2,-11.84,2.57,-0.67,-0.22,-0.78,-3.89
11.88248193264008,3,3,3,2,-11.1,2.69,-0.83,1.58,-1.04,-2.71
11.89248192310333,3,3,3,2,-10.72,2.41,-0.31,4.35,-1.96,-1.36
11.90248191356659,3,3,3,2,-10.82,2.48,0.58,7.01,-3.26,-0.07000000000000001
11.91248190402985,3,3,3,2,-11.12,2.58,1.31,7.01,-3.26,-0.07000000000000001
11.9224818944931,3,3,3,1,-10.06,1.82,1.64,9.73,-4.92,0.97
11.93248188495636,3,3,3,1,-9.789999999999999,2.78,1.36,15.82,-6.04,4.64
11.94248187541962,3,3,3,1,-8.800000000000001,3.17,1.26,19.94,-5.25,6.47
11.95248186588287,3,3,3,1,-8.66,3.83,1.69,21.43,-3.74,7.84
11.96248185634613,3,3,3,1,-8.699999999999999,4.13,1.53,21.43,-3.74,7.84
11.97248184680939,3,3,3,1,-9.119999999999999,3.58,0.95,20.39,-1.49,8.76
11.98248183727264,3,3,3,1,-8.5,2.67,0.51,15.12,3.11,10.39
11.9924818277359,3,3,3,1,-9.390000000000001,2.44,-0.3,11.73,4.37,10.63
12.00248205661774,3,3,3,1,-9.82,-0.34,-1.39,9.9,5.58,10.96
12.01248204708099,3,3,3,1,-10.18,-0.9399999999999999,-1.74,9.9,5.58,10.96
12.02248203754425,3,3,3,0,-11.02,-0.91,-2.36,9.02,6.49,11.93
12.03248202800751,3,3,3,0,-12.17,-0.55,-1.89,12.15,6.95,11.89
12.04248201847076,3,3,3,0,-13.02,-2.26,-0.55,13.04,7.78,10.61
12.05248200893402,3,3,3,0,-12.4,-2.14,-0.58,12.9,9.42,10.84
12.06248199939728,3,3,3,0,-11.85,-1.56,-0.76,12.9,9.42,10.84
12.07248198986053,3,3,3,0,-11.35,-1.44,-0.39,11.6,10.33,11.16
12.08248198032379,3,3,3,0,-11.46,-1.33,0.5,2.49,8.890000000000001,12.71
12.09248197078705,3,3,3,0,-11.68,-0.9,1.01,-6.59,8.85,11.72
12.10248196125031,3,3,3,0,-11.59,-1.05,0.6,-14.17,8.98,11.44
12.11248195171356,3,3,3,0,-10.52,-2.12,-0.68,-14.17,8.98,11.44
12.12248194217682,3,3,3,0,-10,-1.97,-0.51,-16.04,10.74,13.13
12.13248193264008,3,3,3,0,-10.35,-2.07,-0.75,-19.88,10.93,15
12.14248192310333,3,3,3,0,-10.61,-2.76,-1.74,-16.99,8.35,15.79
12.15248191356659,3,3,3,0,-10.16,-3.54,-2.01,-15.25,7.62,16.57
12.16248190402985,3,3,3,0,-9.880000000000001,-3.28,-0.95,-15.25,7.62,16.57
12.1724818944931,3,3,3,0,-9.6,-3.04,0.04,-13.9,7.03,17.12
12.18248188495636,3,3,3,0,-9.17,-2.44,-0.23,-15.02,6.14,17.2
12.19248187541962,3,3,3,0,-8.720000000000001,-2.75,-0.66,-14.96,5.61,17.57
12.20248186588287,3,3,3,0,-8.43,-2.21,-0.28,-13.38,5.78,17.48
12.21248185634613,3,3,3,0,-7.93,-2.39,-0.32,-13.38,5.78,17.48
12.22248184680939,3,3,3,0,-7.94,-2.49,0.03,-11.7,5.18,17.1
12.23248183727264,3,3,3,0,-7.83,-2.6,0.17,-10,2.35,17.25
12.2424818277359,3,3,3,0,-7.43,-2.3,1.14,-7.6,0.58,18.1
12.25248205661774,3,3,3,0,-7.84,-1.12,2.12,-6.24,-0.59,17.55
12.26248204708099,3,3,3,0,-7.72,-1.47,2.07,-6.24,-0.59,17.55
12.27248203754425,3,3,3,0,-8.19,-1.41,2.44,-4.55,-0.86,16.58
12.28248202800751,3,3,3,0,-8.25,-1.11,2.09,-3.19,-1.74,14.6
12.29248201847076,3,3,3,0,-7.93,-0.19,1.56,-2.49,-2.2,12.14
12.30248200893402,3,3,3,0,-8.119999999999999,1.22,0.96,-1.74,-2.51,9.68
12.31248199939728,3,3,3,0,-7.7,2.95,-0.88,-1.74,-2.51,9.68
12.32248198986053,3,3,3,0,-8.18,4.17,-0.79,-1.03,-3.04,7.93
12.33248198032379,3,3,3,0,-8.18,5.35,-0.84,-0.96,-5.8,4.64
12.34248197078705,3,3,3,0,-8.119999999999999,7,-0.51,-2.71,-6.07,4.13
12.36248195171356,3,3,3,0,-8.02,9.59,0.72,-4.2,-7.23,2.92
12.37248194217682,3,3,3,0,-8.91,9.48,-0.03,-9.42,-5.45,3.34
12.38248193264008,3,3,3,0,-8.85,8.619999999999999,-0.87,-13.29,-1.65,4.2
12.39248192310333,3,3,3,0,-9.630000000000001,7.07,-2.04,-14.02,0.15,4.82
12.40248191356659,3,3,3,0,-9.199999999999999,6.71,-1.91,-12.83,1.7,5.82
12.45248186588287,3,3,3,0,-11.26,3.93,-2.05,-5.97,6.38,5.4
12.46248185634613,3,3,3,0,-13.94,3.38,1.05,-5.97,6.38,5.4
12.47248184680939,3,3,3,0,-10.07,1.13,3.06,-10.03,-4.1,7.1
12.48248183727264,3,3,3,0,-7.76,7.82,-0.45,-1.37,-5.13,-0.77
12.4924818277359,3,3,3,0,-7.18,11.37,-1.21,-2.42,-3.43,-4.11
12.50248205661774,3,3,3,0,-8.529999999999999,9.42,1.31,-7.05,-0.79,-7.02
12.51248204708099,3,3,3,0,-11.08,-3.63,3.85,-7.05,-0.79,-7.02
12.52248203754425,3,3,3,0,-9.869999999999999,-10.38,-0.38,-12.71,4.79,-8.98
12.53248202800751,3,3,3,0,-11.2,-10.81,-2.18,-12.47,8.06,-10.92
12.54248201847076,3,3,3,0,-12.35,-6.83,-2.72,-6.61,3.52,-11.58
12.55248200893402,3,3,3,0,-12.03,-4.71,-0.06,0.91,2.14,-12.2
12.56248199939728,3,3,3,0,-12.24,-2.4,-0.4,0.91,2.14,-12.2
12.57248198986053,3,3,3,0,-12.29,-0.89,-0.85,3.48,2.04,-11.81
12.58248198032379,3,3,3,0,-11.6,-1.62,-0.58,3.72,1.89,-11.52
12.59248197078705,3,3,3,0,-11.14,-1.86,-0.79,4.22,2.05,-12
12.60248196125031,3,3,3,0,-10.98,-0.09,-0.96,4.01,1.66,-11.87
12.61248195171356,3,3,3,0,-10.79,1.45,-0.48,4.01,1.66,-11.87
12.62248194217682,3,3,3,0,-10.04,1.84,-0.27,2.51,1.46,-11.82
12.63248193264008,3,3,3,0,-9.75,1.05,-0.82,-2.72,2.08,-11.45
12.64248192310333,3,3,3,0,-9.75,0.19,-1.07,-4.26,2.13,-11.64
12.65248191356659,3,3,3,0,-9.9,-0.04,-1.27,-4.67,2.21,-11.11
12.66248190402985,3,3,3,0,-9.800000000000001,-0.11,-1.53,-4.67,2.21,-11.11
12.67348206043243,3,3,3,0,-10.28,0.23,-1.96,-3.94,2.44,-10.98
12.68348205089569,3,3,3,0,-10.51,0.39,-1.69,-0.37,1.68,-10.87
12.69348204135895,3,3,3,0,-10.5,0.6,-1.19,0.9399999999999999,1.28,-11.04
12.7034820318222,3,3,3,0,-10.38,0.67,-0.86,2.27,0.87,-11.57
12.71348202228546,3,3,3,0,-10.05,0.95,-0.4,2.27,0.87,-11.57
12.72348201274872,3,3,3,0,-9.99,0.92,-0.24,3.39,0.45,-11.58
12.73348200321198,3,3,3,0,-9.6,1.12,-0.27,4.11,0.42,-11.58
12.75348198413849,3,3,3,0,-9.68,0.75,-0.89,5.16,0.68,-11.47
12.76348197460175,3,3,3,0,-9.710000000000001,1.09,-1.06,5.16,0.68,-11.47
12.773481965065,3,3,3,0,-9.82,1.37,-1.13,5.55,0.68,-11.5
12.78348195552826,3,3,3,0,-9.779999999999999,2.09,-1.1,7.01,-0.8100000000000001,-11.45
12.79348194599152,3,3,3,0,-9.25,2.94,-0.61,6.7,-1.54,-11.06
12.80348193645477,3,3,3,0,-8.949999999999999,2.58,-0.61,5.67,-1.1,-10.76
12.81348192691803,3,3,3,0,-8.94,2.62,-0.9,5.67,-1.1,-10.76
12.82348191738129,3,3,3,0,-8.960000000000001,3.09,-1.27,5.38,-0.65,-10.52
12.83348190784454,3,3,3,0,-8.81,2.63,-1.38,3.62,0.1,-9.970000000000001
12.8434818983078,3,3,3,0,-9.08,2.32,-1.2,3.16,0.09,-9.970000000000001
12.85348188877106,3,3,3,0,-9.18,1.74,-1.13,3.15,0.1,-10.02
12.86348187923431,3,3,3,0,-9.140000000000001,1.35,-1.15,3.15,0.1,-10.02
12.87348186969757,3,3,3,0,-9.26,1.83,-1.62,3.87,-0.02,-10.05
12.88348186016083,3,3,3,0,-9.029999999999999,1.56,-1.67,4.43,-0.71,-9.52
12.89348185062408,3,3,3,0,-9.130000000000001,1.64,-1.79,4.61,-0.76,-9.48
12.90348184108734,3,3,3,0,-9.24,2.03,-1.81,3.88,-0.51,-9.42
12.9134818315506,3,3,3,0,-9.75,1.02,-1.92,3.88,-0.51,-9.42
12.92348206043243,3,3,3,0,-9.859999999999999,0.39,-1.74,3.61,-0.54,-9.210000000000001
12.93348205089569,3,3,3,0,-9.890000000000001,0.71,-1.42,5.21,-0.92,-9.32
12.94348204135895,3,3,3,0,-9.960000000000001,0.16,-1.5,6.33,-1.37,-9.380000000000001
12.9534820318222,3,3,3,0,-9.9,0.68,-0.95,6.93,-2.09,-9.710000000000001
12.96348202228546,3,3,3,0,-9.73,1.32,-0.53,6.93,-2.09,-9.710000000000001
12.97348201274872,3,3,3,0,-9.380000000000001,1.72,-0.44,6.58,-2.29,-9.85
12.98348200321198,3,3,3,0,-9.08,1.85,-0.46,4.59,-1.56,-9.57
12.99348199367523,3,3,3,0,-9.109999999999999,2.05,-1.27,4.14,-1.16,-9.24
13.00348198413849,3,3,3,0,-9.49,2.41,-1.46,3.12,-1.31,-8.890000000000001
13.01348197460175,3,3,3,0,-9.31,1.85,-1.88,3.12,-1.31,-8.890000000000001
13.023481965065,3,3,3,0,-9.58,1.72,-2.09,2.34,-1.47,-8.640000000000001
13.03348195552826,3,3,3,0,-9.99,0.48,-2.79,1.22,-1.52,-8.33
13.04348194599152,3,3,3,0,-10.68,-0.01,-2.96,1.76,-1.67,-8.380000000000001
13.05348193645477,3,3,3,0,-11.4,0.01,-2.96,2.67,-1.88,-8.4
13.06348192691803,3,3,3,0,-11.88,0.41,-2.85,2.67,-1.88,-8.4
13.07348191738129,3,3,3,0,-11.85,2.11,-2.02,2.9,-2.15,-8.720000000000001
13.08348190784454,3,3,3,0,-11.29,2.99,-1.79,3.01,-3.08,-8.68
13.0934818983078,3,3,3,0,-11.08,3.59,-1.87,4.76,-2.88,-7.19
13.10348188877106,3,3,3,0,-11.54,5.49,-1.93,5.52,-2.28,-6.45
13.11348187923431,3,3,3,0,-11.44,8.17,-2.42,5.52,-2.28,-6.45
13.12348186969757,3,3,3,0,-11.28,8.880000000000001,-2.32,5.7,-1.41,-5.36
13.13348186016083,3,3,3,0,-11.64,9.630000000000001,-1.04,6.33,-2.46,-2.28
13.14348185062408,3,3,3,0,-11.73,9.56,-0.19,7.41,-4.12,0.16
13.15348184108734,3,3,3,0,-11.49,7.63,0.38,10.1,-4.54,3.25
13.1634818315506,3,3,3,0,-11.33,7.43,0.46,10.1,-4.54,3.25
13.17348206043243,3,3,3,0,-10.1,6.31,0.51,13.64,-4.84,6.2
13.18348205089569,3,3,3,0,-10.19,6.31,0.51,16.83,-0.49,10.76
13.19348204135895,3,3,3,0,-10.75,2.61,-0.09,14.12,2.54,12.11
13.2034820318222,3,3,3,0,-11.51,0.46,-0.68,11.35,5.25,13.52
13.21348202228546,3,3,3,0,-11.36,-0.77,-0.85,11.35,5.25,13.52
13.22348201274872,3,3,3,0,-14.23,-2.33,-2.11,9.69,5.75,13.58
13.23348200321198,3,3,3,0,-14.9,-1.58,-0.65,17.6,6.32,14.87
13.24348199367523,3,3,3,0,-16,-3.11,1.01,20.85,8.369999999999999,12.26
13.26348197460175,3,3,3,0,-13.19,-3.7,0.28,20.25,9.48,11.52
13.273481965065,3,3,3,0,-12.27,-3.11,0.64,18.8,9.91,13.45
13.28348195552826,3,3,3,0,-14.32,-3.65,0.9399999999999999,10.59,9.34,21.25
13.29348194599152,3,3,3,0,-9.449999999999999,-1.71,1.95,1.76,8.81,16.21
13.30348193645477,3,3,3,0,-10.14,-1.84,0.76,-8.91,7.82,16.1
13.31348192691803,3,3,3,0,-9.77,-2.26,0,-8.91,7.82,16.1
13.32348191738129,3,3,3,0,-9.300000000000001,-3.23,-0.2,-15.12,9.35,15.94
13.33348190784454,3,3,3,0,-9.07,-3.92,-0.02,-20.11,11.12,17
13.3434818983078,3,3,3,0,-8.5,-4.09,-0.85,-20.05,8.550000000000001,17.34
13.35348188877106,3,3,3,0,-8.460000000000001,-4.58,-1.62,-17.53,7.17,18.26
13.36348187923431,3,3,3,0,-8.08,-4.81,-0.99,-17.53,7.17,18.26
13.37348186969757,3,3,3,0,-8.279999999999999,-4.64,0.27,-12.92,6.47,19.7
13.38348186016083,3,3,3,0,-7.31,-5.22,0.03,-12.26,5.23,20.1
13.39348185062408,3,3,3,0,-7.34,-4.66,0.49,-12.22,5.27,20.11
13.40348184108734,3,3,3,0,-7.39,-4,0.26,-10.97,5.3,19.65
13.4134818315506,3,3,3,0,-7.07,-3.87,0.28,-10.97,5.3,19.65
13.42348206043243,3,3,3,0,-6.69,-4.35,0.09,-10.23,4.9,18.72
13.43348205089569,3,3,3,0,-6.86,-4.4,0.39,-9.380000000000001,3.29,17.15
13.44348204135895,3,3,3,0,-6.8,-4.57,0.44,-7.46,2.18,16.88
13.4534820318222,3,3,3,0,-6.88,-4.74,1.07,-4.31,0.24,16.6
13.46348202228546,3,3,3,0,-6.73,-4.65,1.97,-4.31,0.24,16.6
13.47348201274872,3,3,3,0,-6.21,-4.45,1.57,-2.12,-1.53,15.37
13.48348200321198,3,3,3,0,-7.72,-4,1.31,0.59,-3.44,12.63
13.49348199367523,3,3,3,0,-7.79,-2.76,0.43,1.62,-5.8,9.130000000000001
13.50348198413849,3,3,3,0,-8.640000000000001,1.2,0.3,0.85,-6.4,8.75
13.53348195552826,3,3,3,0,-9.619999999999999,7.88,-0.36,1.32,-9.26,4.75
13.54348194599152,3,3,3,0,-7.43,10.87,1.87,1.67,-10.67,4.78
13.56348192691803,3,3,3,0,-9.09,18.23,-0.7,-1.99,-7.35,4.89
13.57348191738129,3,3,3,0,-10.09,19.09,-3.88,-6.34,-2.65,2.45
13.58348190784454,3,3,3,0,-9.4,14.11,-3.97,-16.08,5.72,6.03
13.5934818983078,3,3,3,0,-9.58,10.9,-4.43,-17.93,9.720000000000001,8.640000000000001
13.60348188877106,3,3,3,0,-9.48,7.87,-3.53,-14.48,11.77,10.15
13.61348187923431,3,3,3,0,-9.75,4.75,-1.62,-14.48,11.77,10.15
13.62348186969757,3,3,3,0,-10.56,-0.36,-1.69,-11.13,11.08,9.050000000000001
13.63348186016083,3,3,3,0,-12.03,-3.36,-2.84,-9.33,13.44,5.43
13.64348185062408,3,3,3,0,-13.19,-2.48,-0.77,-11.96,5.43,5.21
13.65348184108734,3,3,3,0,-14.51,3.15,4.14,-12.32,-8.289999999999999,5.25
13.6634818315506,3,3,3,0,-10.31,8.98,6.18,-12.32,-8.289999999999999,5.25
13.67348206043243,3,3,3,0,-7.8,6.3,1.34,-8.220000000000001,-8.380000000000001,1.79
13.68348205089569,3,3,3,0,-11.9,4.12,1.91,-12.41,3.48,-7.33
13.69348204135895,3,3,3,0,-9.52,-12.19,-1.5,-16.73,6.97,-6.96
13.70448195934296,3,3,3,0,-9.5,-13.68,-3.25,-18.31,9.65,-9.949999999999999
13.71448194980621,3,3,3,0,-9.5,-13.68,-3.25,-18.31,9.65,-9.949999999999999
13.72448194026947,3,3,3,0,-10.53,-10.21,-3.89,-13.16,9.34,-10.94
13.73448193073273,3,3,3,0,-12.52,-2.44,-1.29,-3.95,1.78,-12.38
13.74448192119598,3,3,3,0,-12.05,-1.04,-0.37,2.38,1.04,-13.43
13.75448191165924,3,3,3,0,-12.06,-2.27,-0.8100000000000001,1.87,1.57,-13.32
13.7644819021225,3,3,3,0,-12.06,-2.27,-0.8100000000000001,1.87,1.57,-13.32
13.77448189258575,3,3,3,0,-11.69,-3.29,-1.59,0.42,2.53,-13.39
13.78448188304901,3,3,3,0,-10.98,0.14,-0.6,2.66,1.75,-12.68
13.79448187351227,3,3,3,0,-10.2,-0.08,-0.52,1.2,1.38,-12.58
13.80448186397552,3,3,3,0,-10.07,-0.18,-0.59,0.24,1.43,-12.92
13.81448185443878,3,3,3,0,-10.07,-0.18,-0.59,0.24,1.43,-12.92
13.82448184490204,3,3,3,0,-10.61,-0.8100000000000001,-1.09,-0.43,1.55,-12.69
13.8344818353653,3,3,3,0,-10.8,-1.5,-1.23,0.12,1.63,-12.51
13.84448182582855,3,3,3,0,-10.91,-1.53,-1.13,0.93,1.85,-12.46
13.85448205471039,3,3,3,0,-10.7,-1.28,-0.99,2.34,1.89,-12.74
13.86448204517365,3,3,3,0,-10.7,-1.28,-0.99,2.34,1.89,-12.74
13.8744820356369,3,3,3,0,-11.06,-0.9,-0.6899999999999999,5.19,1.39,-13.06
13.88448202610016,3,3,3,0,-10.54,0.17,-0.62,11.54,-0.65,-13.18
13.89448201656342,3,3,3,0,-9.41,0.96,-0.92,13.09,-2,-13.39
13.90448200702667,3,3,3,0,-9.07,1.58,-1.53,13.82,-2.6,-13.48
13.91448199748993,3,3,3,0,-9.07,1.58,-1.53,13.82,-2.6,-13.48
13.92448198795319,3,3,3,0,-8.869999999999999,2.44,-1.84,13.77,-2.32,-13.11
13.93448197841644,3,3,3,0,-9.039999999999999,3.53,-2.04,12.98,-2.17,-11.99
13.9444819688797,3,3,3,0,-9.06,3.39,-2.02,11.64,-2.12,-11.45
13.95448195934296,3,3,3,0,-9.08,2.95,-1.78,10.49,-2.2,-11.17
13.96448194980621,3,3,3,0,-9.08,2.95,-1.78,10.49,-2.2,-11.17
13.97448194026947,3,3,3,0,-9.02,2.98,-1.39,9.91,-2.27,-11.12
13.98448193073273,3,3,3,0,-8.93,2.54,-1.54,7.24,-2.36,-11.15
13.99448192119598,3,3,3,0,-8.99,2.51,-1.55,5.83,-2.07,-11.29
14.00448191165924,3,3,3,0,-9.26,2.35,-1.53,4.84,-1.72,-11.47
14.0144819021225,3,3,3,0,-9.26,2.35,-1.53,4.84,-1.72,-11.47
14.02448189258575,3,3,3,0,-9.18,1.94,-1.23,3.52,-1.59,-11.28
14.03448188304901,3,3,3,0,-9.380000000000001,1.09,-1.16,1.84,-1.6,-11.1
14.04448187351227,3,3,3,0,-9.470000000000001,0.73,-1.35,1.69,-1.57,-11.04
14.05448186397552,3,3,3,0,-9.77,0.32,-1.32,2.6,-1.99,-11.03
14.06448185443878,3,3,3,0,-9.77,0.32,-1.32,2.6,-1.99,-11.03
14.07448184490204,3,3,3,0,-9.710000000000001,0.24,-1.52,2.92,-1.88,-10.88
14.0844818353653,3,3,3,0,-10.47,1.13,-1.51,4.78,-2.53,-10.64
14.09448182582855,3,3,3,0,-10.13,1.21,-1.29,5.19,-2.9,-10.88
14.10448205471039,3,3,3,0,-9.69,2.56,-1.3,5.95,-3.43,-10.91
14.11448204517365,3,3,3,0,-9.69,2.56,-1.3,5.95,-3.43,-10.91
14.1244820356369,3,3,3,0,-8.890000000000001,2.69,-1.25,6.1,-3.83,-10.89
14.13448202610016,3,3,3,0,-8.07,3.9,-1.95,4.61,-3.65,-9.99
14.14448201656342,3,3,3,0,-9.029999999999999,3.11,-2.1,2.96,-2.38,-9.470000000000001
14.15448200702667,3,3,3,0,-9.68,2.18,-2.27,1.66,-1.04,-8.75
14.16448199748993,3,3,3,0,-9.68,2.18,-2.27,1.66,-1.04,-8.75
14.17448198795319,3,3,3,0,-10.46,1.54,-2.55,1.1,-0.65,-8.16
14.18448197841644,3,3,3,0,-9.779999999999999,1.32,-2.47,1.72,-1.74,-7.7
14.1944819688797,3,3,3,0,-10.02,1.34,-2.63,2.13,-2.19,-7.88
14.20448195934296,3,3,3,0,-11.79,2.27,-2.85,2.71,-2.09,-7.79
14.21448194980621,3,3,3,0,-11.79,2.27,-2.85,2.71,-2.09,-7.79
14.22448194026947,3,3,3,0,-12.3,2.89,-2.62,2.64,-2.06,-7.99
14.23448193073273,3,3,3,0,-11.56,4.82,-3.03,1.7,-2.94,-8.26
14.24448192119598,3,3,3,0,-10.74,7.42,-3.09,2.27,-3.21,-7.71
14.25448191165924,3,3,3,0,-10.81,8.43,-1.28,4.09,-2.7,-6.94
14.2644819021225,3,3,3,0,-10.81,8.43,-1.28,4.09,-2.7,-6.94
14.27448189258575,3,3,3,0,-11,8.33,-0.04,4.4,-2.37,-5.23
14.28448188304901,3,3,3,0,-11.6,8.369999999999999,-0.14,5.37,-3.84,-1.75
14.29448187351227,3,3,3,0,-11.45,8.43,0.08,7.91,-4.66,1.65
14.30448186397552,3,3,3,0,-10.77,7.79,0.11,11.66,-4.86,4.7
14.31448185443878,3,3,3,0,-10.77,7.79,0.11,15.18,-1.79,11.52
14.32448184490204,3,3,3,0,-11.01,7.45,-0.41,15.18,-1.79,11.52
14.3344818353653,3,3,3,0,-12.02,2.14,-1.96,10.79,1.09,12.76
14.34448182582855,3,3,3,0,-12.33,-1.02,-2.8,3.98,5.06,13.31
14.35448205471039,3,3,3,0,-12.74,-3.55,-2.92,-0.85,7.78,12.76
14.36448204517365,3,3,3,0,-12.74,-3.55,-2.92,5.62,6.67,15.1
14.3744820356369,3,3,3,0,-15.09,-3.04,-3.45,5.62,6.67,15.1
14.38448202610016,3,3,3,0,-16.94,-4.48,0.49,14.65,7.26,15.61
14.39448201656342,3,3,3,0,-16.22,-4.76,0,18.62,9.73,13.39
14.40448200702667,3,3,3,0,-13.9,-4.96,0.89,18.07,11.6,12.6
14.41448199748993,3,3,3,0,-13.9,-4.96,0.89,9.9,11.52,18.17
14.42448198795319,3,3,3,0,-9.44,-2.91,0.65,9.9,11.52,18.17
14.43448197841644,3,3,3,0,-11.54,-3.41,0.08,3.52,10.7,18.98
14.4444819688797,3,3,3,0,-11.76,-4.18,0.52,-2.44,10.3,18.62
14.45448195934296,3,3,3,0,-10.56,-3.4,0.73,-8.19,9.380000000000001,17.82
14.46448194980621,3,3,3,1,-10.56,-3.4,0.73,-19.27,9.67,18.21
14.47448194026947,3,3,3,1,-9.199999999999999,-3.47,0.35,-19.27,9.67,18.21
14.48448193073273,3,3,3,1,-8.69,-2.82,0.06,-24.01,9.699999999999999,18.48
14.49448192119598,3,3,3,1,-8.91,-4,-1.67,-27.31,8.140000000000001,18.53
14.50448191165924,3,3,3,1,-7.75,-5.82,-1.49,-22.41,6.64,18.4
14.5144819021225,3,3,3,1,-7.75,-5.82,-1.49,-22.41,6.64,18.4
14.52448189258575,3,3,3,1,-7.86,-6.24,-0.2,-18.67,4,19.46
14.53448188304901,3,3,3,1,-7.1,-6.03,1.46,-18.87,3.57,19.18
14.54448187351227,3,3,3,1,-7.02,-5.76,1.04,-17.28,3.56,18.57
14.55448186397552,3,3,3,1,-6.85,-5.72,1.39,-13.6,2.29,19.13
14.56448185443878,3,3,3,1,-6.85,-5.72,1.39,-13.6,2.29,19.13
14.57448184490204,3,3,3,1,-6.07,-6.3,2.28,-11.11,-0.24,19.36
14.5844818353653,3,3,3,1,-6.58,-6.46,2.16,-7.84,-4.28,19.84
14.59448182582855,3,3,3,1,-6.56,-5.77,1.88,-8.800000000000001,-4.09,17.72
14.60448205471039,3,3,3,1,-6.54,-4.43,-0.14,-6,-4.01,16.15
14.61448204517365,3,3,3,1,-6.54,-4.43,-0.14,-6,-4.01,16.15
14.6244820356369,3,3,3,1,-7.69,-3.14,0.27,-5.79,-8.76,9.029999999999999
14.63448202610016,3,3,3,1,-7.12,0.85,0.76,-3.43,-7.34,7.88
14.64448201656342,3,3,3,1,-9.01,4.52,-0.79,-0.21,-7.72,6.55
14.65448200702667,3,3,3,1,-9.48,6.87,0.88,4.14,-11.15,4.41
14.66448199748993,3,3,3,1,-9.48,6.87,0.88,4.14,-11.15,4.41
14.67448198795319,3,3,3,1,-9.529999999999999,8.289999999999999,3.29,6.57,-10.31,4.12
14.68448197841644,3,3,3,1,-9.140000000000001,18.15,-3.81,6.97,-1.45,1.53
14.6944819688797,3,3,3,1,-11.15,17.92,-6.98,-0.99,3.68,-0.31
14.70448195934296,3,3,3,1,-12.2,14.77,-6.99,-12.03,3.55,5.95
14.71448194980621,3,3,3,2,-12.2,14.77,-6.99,-14.92,3.95,12.35
14.72548186779022,3,3,3,2,-7.73,9.609999999999999,-1.91,-12.9,6.7,12.8
14.73548185825348,3,3,3,2,-8.31,5.64,-0.74,-11.03,10.79,10.01
14.74548184871674,3,3,3,2,-10.01,3.63,1.66,-8.73,12.16,8.880000000000001
14.75548183917999,3,3,3,2,-10.92,-0.32,1.47,-12.98,12.19,5.74
14.76548182964325,3,3,3,2,-10.92,-0.32,1.47,-20.69,10.13,4.59
14.77548205852509,3,3,3,2,-13.64,-5.99,-2.55,-14.63,0.67,1.15
14.78548204898834,3,3,3,2,-10.66,5.35,2.06,-3.45,-7.53,-0.8
14.7954820394516,3,3,3,2,-8.390000000000001,12.44,3.03,-6.63,-6.11,-5.48
14.80548202991486,3,3,3,2,-11.64,9.720000000000001,2.23,-8.210000000000001,-0.91,-7.91
14.81548202037811,3,3,3,2,-11.64,9.720000000000001,2.23,-13.16,3.64,-8.01
14.82548201084137,3,3,3,2,-10.88,1.34,2.15,-21.51,9.300000000000001,-7.49
14.83548200130463,3,3,3,2,-8.76,-7.78,-1.55,-26.66,13.82,-10.3
14.84548199176788,3,3,3,2,-12.06,-11.92,-3.33,-23.02,11.95,-12.33
14.85548198223114,3,3,3,2,-10.71,-8.25,-2.37,-16.1,7.15,-12.71
14.8654819726944,3,3,3,1,-9.890000000000001,-6.15,-1.81,-9.09,5.16,-13.25
14.87548196315765,3,3,3,1,-10.18,-5.18,-1.31,-5.54,4.32,-13.84
14.88548195362091,3,3,3,1,-11.96,-3.73,-0.89,-2.26,3.3,-13.64
14.89548194408417,3,3,3,1,-12.07,-4.38,-0.84,3.22,2.35,-13.69
14.90548193454742,3,3,3,1,-11.66,-4.46,-0.58,6.11,2.2,-14.06
14.91548192501068,3,3,3,0,-12.13,0.62,-0.79,5.47,1.06,-12.79
14.92548191547394,3,3,3,0,-11.03,1.5,-0.65,2.74,1.68,-12.1
14.93548190593719,3,3,3,0,-10.08,1.43,-0.82,-1.33,2.18,-12.44
14.94548189640045,3,3,3,0,-10,1.15,-1.04,-4.51,2.79,-13.17
14.95548188686371,3,3,3,0,-10.18,-1.03,-0.8100000000000001,-6.1,3.08,-13.74
14.96548187732697,3,3,3,0,-10.18,-1.03,-0.8100000000000001,-6.1,3.08,-13.74
14.97548186779022,3,3,3,0,-10.76,-2.11,-1.19,-3.85,2.79,-13.79
14.98548185825348,3,3,3,0,-10.86,-2.15,-1.42,-0.35,2.28,-13.44
14.99548184871674,3,3,3,0,-10.91,-1.38,-0.77,3.13,1.6,-13.06
15.00548183917999,3,3,3,0,-10.56,-0.92,-0.8100000000000001,7.19,0,-13.31
15.01548182964325,3,3,3,0,-10.56,-0.92,-0.8100000000000001,9.539999999999999,-0.98,-13.22
15.02548205852509,3,3,3,0,-10.41,0.18,-0.16,10.67,-1.6,-13.2
15.03548204898834,3,3,3,0,-9.619999999999999,0.79,-0.63,11.67,-1.82,-13.21
15.0454820394516,3,3,3,0,-9.31,0.51,-0.64,11.85,-1.57,-13.05
15.05548202991486,3,3,3,0,-9.789999999999999,0.82,-0.85,12.32,-1.28,-13.28
15.06548202037811,3,3,3,0,-9.59,1.47,-1.14,13.27,-1.55,-12.81
15.07548201084137,3,3,3,0,-9.17,2.58,-1.2,14.01,-1.52,-12.29
15.08548200130463,3,3,3,0,-8.710000000000001,2.94,-1.39,13.26,-1.51,-12.09
15.09548199176788,3,3,3,0,-8.69,3.09,-1.5,11.61,-1.22,-11.86
15.10548198223114,3,3,3,0,-8.9,2.86,-1.46,9.51,-0.79,-11.99
15.1154819726944,3,3,3,0,-9.25,2.64,-1.48,9.07,-1.21,-12.04
15.12548196315765,3,3,3,0,-9.279999999999999,2.82,-1.25,8.380000000000001,-1.77,-12.19
15.13548195362091,3,3,3,0,-9.130000000000001,2.92,-1.03,7.07,-2.31,-12.22
15.14548194408417,3,3,3,0,-8.91,2.94,-1.1,5.86,-2.26,-12.34
15.15548193454742,3,3,3,0,-9.44,2.36,-1.11,5.11,-2.01,-12.28
15.16548192501068,3,3,3,0,-9.44,2.36,-1.11,5.11,-2.01,-12.28
15.17548191547394,3,3,3,0,-9.369999999999999,2.42,-1.37,4.62,-1.56,-11.74
15.18548190593719,3,3,3,0,-9.85,2.05,-1.91,5.11,-1.75,-11.79
15.19548189640045,3,3,3,0,-9.91,2.33,-1.97,5.43,-2.21,-11.38
15.20548188686371,3,3,3,0,-9.83,2.76,-1.75,5.82,-2.25,-11.07
15.21548187732697,3,3,3,0,-9.83,2.76,-1.75,5.64,-2.54,-10.72
15.22548186779022,3,3,3,0,-9.44,3.28,-1.53,5.86,-3.01,-10.16
15.23548185825348,3,3,3,0,-8.98,3.66,-1.19,6.37,-2.98,-9.66
15.24548184871674,3,3,3,0,-8.76,3.64,-1.3,6.19,-2.21,-9.119999999999999
15.25548183917999,3,3,3,0,-9.06,3.67,-1.56,5.35,-1.52,-8.529999999999999
15.26548182964325,3,3,3,0,-8.880000000000001,3.62,-1.85,4.32,-1.32,-8.039999999999999
15.27548205852509,3,3,3,0,-9.619999999999999,3.15,-1.95,3.19,-0.86,-7.71
15.28548204898834,3,3,3,0,-9.26,2.04,-2.44,1.42,-1.42,-7.4
15.2954820394516,3,3,3,0,-9.539999999999999,1.27,-2.25,1.33,-1.6,-7.45
15.30548202991486,3,3,3,0,-10.16,1,-1.98,1.41,-1.95,-7.07
15.31548202037811,3,3,3,0,-11.08,0.99,-2.23,1.73,-2.49,-7.2
15.33548200130463,3,3,3,0,-12.41,3,-2.81,4.71,-2.69,-7.1
15.34548199176788,3,3,3,0,-12.1,4.56,-3.01,6.32,-3,-6.76
15.35548198223114,3,3,3,0,-11.44,7.68,-1.5,8.119999999999999,-3.65,-6.36
15.3654819726944,3,3,3,0,-11.14,8.550000000000001,-0.61,9.56,-4.39,-5.98
15.37548196315765,3,3,3,0,-11.14,8.550000000000001,-0.61,10.2,-4.66,-4.2
15.38548195362091,3,3,3,0,-10.48,8.710000000000001,-0.22,11.35,-5.4,-0.87
15.39548194408417,3,3,3,0,-11.37,9.550000000000001,-0.42,13.68,-5.17,2.59
15.40548193454742,3,3,3,0,-11.26,9.449999999999999,-0.4,15.84,-4.38,6.52
15.41548192501068,3,3,3,0,-11.26,9.449999999999999,-0.4,17.07,-2.21,9.380000000000001
15.42548191547394,3,3,3,0,-11.49,8.550000000000001,-0.34,15.36,0.32,11.03
15.43548190593719,3,3,3,0,-12.55,2.05,-2.06,10.36,4.52,12.52
15.44548189640045,3,3,3,0,-12.54,-0.61,-2.69,3.65,8.130000000000001,13.32
15.45548188686371,3,3,3,0,-12.95,-2.84,-2.66,0.54,9.880000000000001,12.8
15.46548187732697,3,3,3,0,-14.83,-4.16,-3.39,2.55,8.65,14.5
15.47548186779022,3,3,3,0,-17.39,-3.76,-1.7,10.24,7.58,15.27
15.48548185825348,3,3,3,0,-17.67,-5.05,-0.07000000000000001,17.74,9.09,13.45
15.49548184871674,3,3,3,0,-16.64,-4.93,-0.06,20.2,11.15,11.69
15.50548183917999,3,3,3,0,-15.32,-4.77,0.57,19.18,11.68,14.89
15.51548182964325,3,3,3,0,-8.92,-2.85,1.68,15.09,11.53,18.07
15.52548205852509,3,3,3,0,-9.140000000000001,-2.72,1.75,9,11.36,17.33
15.53548204898834,3,3,3,0,-11.29,-3.01,1.19,1.71,11.16,17.96
15.5454820394516,3,3,3,0,-12.36,-3.08,1.6,-7.5,9.5,16.83
15.55548202991486,3,3,3,0,-10.1,-3.81,1.17,-17,7.97,15.75
15.56548202037811,3,3,3,0,-8.720000000000001,-4.02,0.72,-20.09,8.960000000000001,16.19
15.57548201084137,3,3,3,0,-8.720000000000001,-4.02,0.72,-23,11.26,17.55
15.58548200130463,3,3,3,0,-8.210000000000001,-5.07,0.41,-24.77,10.72,17.36
15.59548199176788,3,3,3,0,-8.800000000000001,-4.67,-1.31,-26.2,8.49,16.84
15.60548198223114,3,3,3,0,-7.04,-6.21,-1.42,-22.09,6.72,17.29
15.6154819726944,3,3,3,0,-7.04,-6.21,-1.42,-16.14,6.01,18.76
15.62548196315765,3,3,3,0,-6.92,-6.29,0.66,-13.59,4.87,18.87
15.63548195362091,3,3,3,0,-6.59,-5.68,1.1,-12.59,3.84,18.82
15.64548194408417,3,3,3,0,-6.81,-5.25,0.72,-13.39,3.74,18.58
15.65548193454742,3,3,3,0,-6.36,-5,0.61,-10.98,2.97,18.77
15.66548192501068,3,3,3,0,-6.19,-5.09,0.72,-7.69,2,19.18
15.67548191547394,3,3,3,0,-5.8,-5.03,0.8100000000000001,-5.87,0.04,18.63
15.68548190593719,3,3,3,0,-5.87,-5.28,0.79,-3.53,-1.13,18.04
15.69548189640045,3,3,3,0,-6.68,-4.64,1.19,-0.87,-1.27,17.4
15.70548188686371,3,3,3,0,-7.09,-4.42,1.17,0.66,-1.5,15.15
15.71548187732697,3,3,3,0,-7.65,-4.34,0.72,-0.3,-1.74,13.54
15.72548186779022,3,3,3,0,-6.7,-3.28,0.2,-4.43,-3.64,10.04
15.73548185825348,3,3,3,0,-7.71,-2.09,-0.32,-3.88,-4.09,7.86
15.74548184871674,3,3,3,0,-8.56,-0.14,-0.51,2.33,-5.9,6.51
15.75648200511932,3,3,3,0,-9.84,3.75,-0.92,7.01,-6.94,5.75
15.76648199558258,3,3,3,0,-9.83,5.9,-0.04,7.89,-8.77,5.1
15.77648198604584,3,3,3,0,-10.16,8.84,-0.4,10.76,-9.5,4.68
15.78648197650909,3,3,3,0,-8.77,12.25,-0.67,12.56,-8.17,3.18
15.79648196697235,3,3,3,0,-8.31,18.85,-1.83,9.34,-3.16,0.17
15.80648195743561,3,3,3,0,-10.11,18.68,-4.8,2.55,1.78,0.34
15.81648194789886,3,3,3,0,-10.11,18.68,-4.8,-3.03,4.37,6.03
15.82648193836212,3,3,3,0,-9.789999999999999,14.97,-3.34,-8.49,6.15,11.11
15.83648192882538,3,3,3,0,-8.779999999999999,12.14,-1.73,-10.68,8.24,12.05
15.84648191928864,3,3,3,0,-8.779999999999999,8.27,-0.41,-10.72,10.74,10.44
15.85648190975189,3,3,3,0,-8.82,5.25,0.61,-10.14,12.84,9.050000000000001
15.86648190021515,3,3,3,0,-10.79,-2.19,0.75,-12.68,13.51,7.66
15.87648189067841,3,3,3,0,-10.95,-5.1,-0.55,-17,10.64,4.8
15.88648188114166,3,3,3,0,-11.45,-6.06,-2.4,-22.68,9.67,1.43
15.89648187160492,3,3,3,0,-10.48,-1.94,-3.3,-21.01,4.59,-0.23
15.90648186206818,3,3,3,0,-11.83,8.41,2.22,-18.74,-2.02,-3.13
15.91648185253143,3,3,3,0,-11.84,7.52,4.09,-18.46,-6.6,-5.67
15.92648184299469,3,3,3,0,-12.29,9.289999999999999,5.36,-13.95,-6.52,-8.42
15.93648183345795,3,3,3,0,-11.29,10.15,4.03,-13.19,0.85,-7.47
15.9464818239212,3,3,3,0,-10.86,2.04,-0.21,-19.73,7.17,-8.92
15.95648205280304,3,3,3,0,-11.06,-4.93,-3.64,-30.55,11.71,-8.26
15.9664820432663,3,3,3,0,-10.58,-9.949999999999999,-3.69,-27.85,11.07,-9.58
15.97648203372955,3,3,3,0,-9.300000000000001,-10.82,-1.93,-16.97,8.1,-11.14
15.98648202419281,3,3,3,0,-8.51,-6.32,-3.64,-9.43,7.06,-11.65
15.99648201465607,3,3,3,0,-9.26,-3.55,-3.23,-4.81,5.25,-13.65
16.00648200511932,3,3,3,0,-11.08,-4.22,-1.28,1.6,3.9,-14.69
16.01648199558258,3,3,3,0,-12.49,-5.94,-1.2,8.18,1.31,-14.05
16.02648198604584,3,3,3,0,-12.87,-3.07,-0.37,11.06,0.16,-12.93
16.03648197650909,3,3,3,0,-12.41,0.67,0.33,10.69,-1.13,-11.64
16.04648196697235,3,3,3,0,-11.34,1.83,0.28,4.24,0.39,-11.85
16.05648195743561,3,3,3,0,-10.94,1.1,-0.26,-2.19,2.32,-13.01
16.06648194789886,3,3,3,0,-9.77,-1.61,-1.54,-6.19,2.86,-13.31
16.07648193836212,3,3,3,0,-10.11,-2.18,-1.52,-6.11,3.05,-13.52
16.08648192882538,3,3,3,0,-11.04,-2.21,-1.66,-4.78,3.09,-13.58
16.09648191928864,3,3,3,0,-11.61,-2.27,-1.7,-2.47,2.62,-13.94
16.10648190975189,3,3,3,0,-10.94,-2.5,-1.59,0.06,1.89,-14.03
16.11648190021515,3,3,3,0,-10.81,-1.39,-1.1,3.06,0.9,-13.49
16.12648189067841,3,3,3,0,-10.84,-1.26,-0.67,5.08,0.21,-13.53
16.13648188114166,3,3,3,0,-10.92,-0.27,-0.41,7.44,-0.77,-13.7
16.14648187160492,3,3,3,0,-10.17,-0.04,-0.32,8.98,-1.63,-13.76
16.15648186206818,3,3,3,0,-9.789999999999999,0.29,-0.52,9.390000000000001,-1.91,-13.77
16.16648185253143,3,3,3,0,-9.529999999999999,0.09,-0.62,10.57,-2.11,-13.45
16.17648184299469,3,3,3,0,-9.539999999999999,1.34,-0.45,11.84,-2.46,-13.11
16.18648183345795,3,3,3,0,-9.15,1.91,-0.64,11.78,-2.38,-12.66
16.1964818239212,3,3,3,0,-8.82,2.2,-0.99,11.4,-1.83,-12.19
16.20648205280304,3,3,3,0,-8.84,2.46,-1.45,11.36,-1.48,-11.68
16.2164820432663,3,3,3,1,-8.720000000000001,2.77,-1.84,11.07,-0.9399999999999999,-11.32
16.22648203372955,3,3,3,1,-9.199999999999999,3.32,-2.26,10.73,-0.99,-11.2
16.23648202419281,3,3,3,1,-9.279999999999999,3.44,-1.85,9.800000000000001,-1.78,-11.04
16.24648201465607,3,3,3,1,-8.91,2.85,-1.7,8.289999999999999,-2.16,-11.11
16.25648200511932,3,3,3,1,-8.98,2.36,-1.74,7.27,-1.96,-11.25
16.26648199558258,3,3,3,1,-9.300000000000001,2.11,-1.56,6.39,-2.05,-11.08
16.27648198604584,3,3,3,1,-9.27,2.04,-1.48,5.56,-2.26,-11.02
16.28648197650909,3,3,3,1,-9.789999999999999,1.8,-1.32,4.3,-2.35,-10.98
16.29648196697235,3,3,3,1,-9.43,0.84,-1,3.64,-2.35,-10.53
16.30648195743561,3,3,3,1,-9.91,0.16,-1.01,5.02,-2.46,-10.55
16.31648194789886,3,3,3,1,-10.01,0.42,-1.25,6.3,-2.65,-10.61
16.32648193836212,3,3,3,1,-9.779999999999999,0.73,-1.28,7.41,-3.12,-10.3
16.33648192882538,3,3,3,1,-9.789999999999999,1.39,-1.5,8.66,-3.2,-10.22
16.34648191928864,3,3,3,1,-9.59,2.58,-1.68,9.33,-3.32,-10.09
16.35648190975189,3,3,3,1,-8.880000000000001,2.93,-1.86,8.710000000000001,-3.31,-9.890000000000001
16.36648190021515,3,3,3,2,-8.59,3.12,-2,7.81,-2.81,-9.73
16.37648189067841,3,3,3,2,-8.789999999999999,3.37,-2.08,6.48,-2.3,-9.33
16.38648188114166,3,3,3,2,-9.210000000000001,2.43,-2.29,5.36,-2.01,-9.07
16.39648187160492,3,3,3,2,-9.51,2.36,-1.97,5.11,-1.92,-8.76
16.40648186206818,3,3,3,2,-9.57,1.86,-1.89,4.01,-2.48,-8.4
16.41648185253143,3,3,3,2,-9.57,1.42,-1.83,3.36,-2.99,-8.07
16.42648184299469,3,3,3,2,-9.85,0.73,-1.85,2.98,-3.43,-8.130000000000001
16.43648183345795,3,3,3,2,-9.94,0.36,-2.22,2.9,-3.73,-8.460000000000001
16.4464818239212,3,3,3,2,-10.93,0.57,-2.62,3.78,-3.41,-8.33
16.45648205280304,3,3,3,2,-11.94,1.69,-2.98,4.3,-3.12,-8.42
16.4664820432663,3,3,3,2,-12.65,4.14,-2.84,3.91,-3.37,-8.699999999999999
16.47648203372955,3,3,3,2,-12.02,5.36,-2.97,3.59,-3.98,-8.880000000000001
16.48648202419281,3,3,3,2,-11.13,6.7,-2.93,5.08,-4.19,-8.49
16.49648201465607,3,3,3,2,-10.4,7.72,-2.16,7.11,-3.96,-7.65
16.50648200511932,3,3,3,2,-10.8,9.43,0.22,9.470000000000001,-4.23,-4.98
16.51648199558258,3,3,3,2,-10.21,8.77,0.05,11.55,-5.04,-2.89
16.52648198604584,3,3,3,2,-11.13,9.130000000000001,0.16,14.18,-5.87,0.99
16.53648197650909,3,3,3,2,-11.03,8.16,0.48,17.77,-6.39,4.75
16.54648196697235,3,3,3,2,-10.39,8.529999999999999,0.46,20.71,-5.36,8.539999999999999
16.55648195743561,3,3,3,2,-11.03,7.06,0.05,19.18,-2.47,11.23
16.56648194789886,3,3,3,2,-11.09,4.34,-1,14.7,2.49,12.46
16.57648193836212,3,3,3,2,-11.78,1.99,-2,8.52,7.34,13.34
16.58648192882538,3,3,3,2,-13.62,-2.68,-2.14,4.67,8.81,13.71
16.59648191928864,3,3,3,2,-14.16,-3.54,-2.72,4.4,7.85,13.85
16.60648190975189,3,3,3,2,-15.87,-2.96,-3.39,7.77,6.59,14.74
16.61648190021515,3,3,3,2,-16.54,-4.3,1.05,14.67,7.19,14.41
16.62648189067841,3,3,3,2,-15.4,-4.42,1.17,16.56,9.6,12.24
16.63648188114166,3,3,3,2,-13.64,-3.99,1.26,14.76,11.31,11.58
16.64648187160492,3,3,3,2,-14.41,-5.65,0.43,11.92,12.17,14.23
16.65648186206818,3,3,3,2,-9.02,-3.57,2.11,9.9,12.72,17.71
16.66648185253143,3,3,3,2,-10.24,-2.56,2.6,5.28,12.8,15.8
16.67648184299469,3,3,3,2,-11.81,-3.02,1.95,-2.91,11.67,16.32
16.68648183345795,3,3,3,2,-11.74,-4.14,1.63,-10.06,10.26,15.53
16.6964818239212,3,3,3,2,-9.99,-4.53,1.8,-16.42,9.33,15.18
16.70648205280304,3,3,3,2,-8.359999999999999,-4.81,1.13,-21.56,9.17,15.51
16.7164820432663,3,3,3,2,-8.52,-4.5,0.59,-22.79,10.31,16.83
16.72648203372955,3,3,3,2,-8.210000000000001,-4.95,-0.21,-21.8,8.19,17.03
16.73648202419281,3,3,3,2,-7.75,-5.92,-0.65,-20.09,6.09,16.9
16.74648201465607,3,3,3,2,-7.34,-6.64,0.66,-14.71,5.31,18.12
16.75648200511932,3,3,3,2,-7.82,-5.66,1.11,-11.77,4.54,19.52
16.76648199558258,3,3,3,2,-7.03,-5.86,0.66,-11.09,3.3,19.74
16.77748191356659,3,3,3,2,-6.81,-4.4,0.78,-11.5,3.33,19.15
16.78748190402985,3,3,3,2,-6.46,-4.68,-0.29,-12.04,3.97,18.37
16.7974818944931,3,3,3,2,-6.51,-5.04,-0.16,-8.550000000000001,3.71,17.75
16.80748188495636,3,3,3,2,-6.6,-5.11,0.29,-5.85,2.3,17.77
16.81748187541962,3,3,3,2,-6.48,-4.59,0.72,-4.19,0.12,17.1
16.82748186588287,3,3,3,2,-7.3,-3.7,0.86,-2.5,-0.61,16.49
16.83748185634613,3,3,3,2,-7.93,-3.03,1.11,-0.43,-0.04,15.42
16.84748184680939,3,3,3,2,-7.3,-3.23,1.33,1.71,0.06,13.33
16.85748183727264,3,3,3,2,-8.369999999999999,-2.58,1.07,2.77,0.25,12.73
16.8674818277359,3,3,3,2,-7.55,-1.79,0.47,3.42,-1.61,9.85
16.87748205661774,3,3,3,2,-7.39,-1.92,-0.5,1.65,-2.98,6.72
16.88748204708099,3,3,3,2,-8.06,-0.62,-1.08,3.27,-4.03,7.03
16.89748203754425,3,3,3,2,-9.19,4.01,-1.66,7.71,-6.18,6.74
16.90748202800751,3,3,3,2,-10.02,5.97,-1.69,9.18,-6.9,5.91
16.91748201847076,3,3,3,2,-9.390000000000001,7.38,-1.77,9.890000000000001,-7.69,4.72
16.92748200893402,3,3,3,2,-9.27,7.59,-1.17,9.380000000000001,-7.41,4.44
16.93748199939728,3,3,3,2,-8.880000000000001,11.04,-0.21,5.63,-5.71,4.95
16.94748198986053,3,3,3,2,-8.880000000000001,14.12,-0.3,1.93,-4.45,4.75
16.95748198032379,3,3,3,2,-9.4,16.27,-1.23,-1.87,-2.39,4.62
16.96748197078705,3,3,3,2,-9.76,16.68,-1.91,-6.01,1.13,5.48
16.97748196125031,3,3,3,2,-9.699999999999999,12.68,-2.53,-8.140000000000001,4.53,6.32
16.98748195171356,3,3,3,2,-10.13,9.5,-2.09,-9.35,6.9,7.31
16.99748194217682,3,3,3,2,-9.91,7.23,-1.26,-9.81,8.359999999999999,8.449999999999999
17.00748193264008,3,3,3,2,-9.73,4.91,-0.5600000000000001,-9.779999999999999,8.85,8.199999999999999
17.01748192310333,3,3,3,2,-9.130000000000001,0.66,0.41,-10.16,9.44,7.35
17.02748191356659,3,3,3,2,-9.67,-1.43,0.9399999999999999,-10.78,9.470000000000001,5.7
17.03748190402985,3,3,3,2,-9.52,-2.89,0.9,-11.69,7.27,3.86
17.0474818944931,3,3,3,2,-9.99,-3.25,-1.03,-16.7,5.97,0.85
17.05748188495636,3,3,3,2,-9.65,-0.75,-2.87,-18.55,4.95,-1.57
17.07748186588287,3,3,3,2,-10.93,11.38,2.9,-13.1,-5.97,-5.1
17.08748185634613,3,3,3,2,-12.29,15.2,5.08,-14,-9.01,-5.3
17.09748184680939,3,3,3,2,-12.18,8.449999999999999,4.55,-16.57,-3.49,-5.87
17.10748183727264,3,3,3,2,-11.4,5.42,0.64,-20.98,4.49,-7.29
17.1174818277359,3,3,3,2,-11.11,2.58,-1.4,-26.5,9.08,-7.86
17.12748205661774,3,3,3,2,-11.4,-1.39,-3.07,-35.14,12.85,-6.51
17.13748204708099,3,3,3,2,-7.92,-9.880000000000001,-2.93,-34.61,12.91,-7.33
17.14748203754425,3,3,3,2,-7.12,-10.32,-3.01,-19.03,11.12,-9.74
17.15748202800751,3,3,3,2,-6.82,-8.92,-4.93,-9.98,10.19,-9.83
17.16748201847076,3,3,3,2,-7.89,-5.68,-5.47,-2.95,7.18,-10.82
17.17748200893402,3,3,3,2,-12.47,-4.33,-0.97,8.210000000000001,3.65,-11.89
17.18748199939728,3,3,3,2,-13.23,-6.83,-0.97,15.67,0.27,-12.07
17.19748198986053,3,3,3,2,-12.9,-4.08,-0.45,20.61,-2.09,-10.65
17.20748198032379,3,3,3,2,-12.98,-0.22,0.4,19.61,-2.68,-9.84
17.21748197078705,3,3,3,2,-10.38,2.87,0.19,12.02,-0.44,-9.75
17.22748196125031,3,3,3,2,-9.050000000000001,1.65,-0.8100000000000001,1.16,2.87,-10.85
17.23748195171356,3,3,3,2,-8.48,0.33,-1.51,-6.76,4.9,-10.79
17.24748194217682,3,3,3,2,-9.18,-1.13,-1.99,-9.49,5.67,-11.01
17.25748193264008,3,3,3,2,-11.82,-2.69,-1.17,-6.57,4.59,-11.56
17.26748192310333,3,3,3,2,-11.86,-2.54,-0.87,-3.21,3.39,-11.12
17.27748191356659,3,3,3,2,-11.12,-2.42,-1.06,0.37,2.91,-11.44
17.28748190402985,3,3,3,2,-10.82,-1.74,-1.42,3.16,2.35,-11.39
17.2974818944931,3,3,3,2,-10.73,-1.35,-1.35,6.22,0.74,-10.92
17.30748188495636,3,3,3,2,-10.84,-1.02,-1.1,9.1,-0.49,-11.22
17.31748187541962,3,3,3,2,-10.54,-0.37,-1.02,11.21,-1.54,-11.37
17.32748186588287,3,3,3,2,-10.42,-0.45,-0.73,12.01,-1.94,-11.07
17.33748185634613,3,3,3,2,-9.949999999999999,0.5,-1.03,13,-2.01,-11.1
17.34748184680939,3,3,3,2,-9.48,1.6,-0.9399999999999999,14.36,-2.36,-10.75
17.35748183727264,3,3,3,2,-9.390000000000001,1.91,-0.83,14.66,-2.67,-10.33
17.3674818277359,3,3,3,2,-9.08,2.42,-0.8,14,-2.46,-9.76
17.37748205661774,3,3,3,2,-8.970000000000001,2.77,-1.59,12.45,-1.73,-9.369999999999999
17.38748204708099,3,3,3,2,-8.970000000000001,2.85,-1.9,10.94,-1.04,-9.24
17.39748203754425,3,3,3,2,-9.16,2.8,-2.05,9.119999999999999,-0.36,-9.220000000000001
17.40748202800751,3,3,3,2,-9.17,2.59,-2.02,7.66,-0.5,-9.56
17.41748201847076,3,3,3,2,-9.109999999999999,2.06,-1.85,5.98,-0.76,-9.550000000000001
17.42748200893402,3,3,3,2,-9.23,1.77,-1.51,4.86,-1.03,-9.470000000000001
17.43748199939728,3,3,3,2,-9.32,1.44,-1.45,4.11,-1.39,-9.390000000000001
17.44748198986053,3,3,3,2,-9.08,1.05,-1.42,4.1,-1.7,-9.32
17.45748198032379,3,3,3,2,-9.029999999999999,1.47,-1.43,4.73,-1.74,-9.359999999999999
17.46748197078705,3,3,3,2,-9.48,1.72,-1.58,5.15,-1.49,-9.460000000000001
17.47748196125031,3,3,3,2,-9.140000000000001,1.76,-1.52,5.01,-1.74,-8.82
17.48748195171356,3,3,3,2,-9.34,1.81,-1.7,5.24,-1.74,-8.779999999999999
17.49748194217682,3,3,3,2,-9.4,1.89,-1.72,5.67,-1.92,-8.529999999999999
17.50748193264008,3,3,3,2,-9.67,2.18,-1.74,6.55,-1.85,-8.220000000000001
17.51748192310333,3,3,3,3,-9.029999999999999,2.22,-1.82,6.54,-2.14,-7.88
17.52748191356659,3,3,3,3,-8.859999999999999,2.35,-1.92,6.74,-1.98,-7.66
17.53748190402985,3,3,3,3,-8.49,2.23,-2,6.83,-2.07,-7.42
17.5474818944931,3,3,3,3,-8.82,2.37,-1.85,6.66,-2.19,-7.27
17.55748188495636,3,3,3,3,-8.67,2.27,-1.87,5.84,-2.29,-6.89
17.56748187541962,3,3,3,3,-9.19,2.23,-1.84,4.85,-1.94,-6.73
17.57748186588287,3,3,3,3,-9.109999999999999,1.61,-1.71,3.54,-2.04,-6.6
17.58748185634613,3,3,3,3,-9.449999999999999,1.07,-1.56,2.94,-2.22,-6.61
17.59748184680939,3,3,3,3,-9.52,0.61,-1.46,3.33,-2.14,-6.35
17.60748183727264,3,3,3,3,-9.65,0.57,-1.32,4.23,-2.34,-6.25
17.6174818277359,3,3,3,3,-9.890000000000001,0.46,-0.72,4.85,-3.04,-6.18
17.62748205661774,3,3,3,3,-9.84,0.53,-0.7,6.12,-3.44,-5.88
17.63748204708099,3,3,3,3,-9.59,1.25,-1.46,7.06,-3.68,-5.96
17.64748203754425,3,3,3,3,-10.73,3.02,-2.16,7.38,-2.92,-5.76
17.65748202800751,3,3,3,3,-11.47,4.05,-2.4,6.76,-2.99,-5.76
17.66748201847076,3,3,3,3,-11.23,4.7,-2.38,6.4,-2.76,-5.39
17.67848193645477,3,3,3,3,-11.05,5.03,-1.84,6.61,-3.4,-5.23
17.68748199939728,3,3,3,3,-10.65,4.54,-0.95,7.45,-4.25,-5.14
17.69748198986053,3,3,3,3,-11.27,4.89,-0.47,9.800000000000001,-4.89,-4.03
17.70848190784454,3,3,3,3,-11.62,5.14,-0.01,12.36,-4.96,-2.04
17.71748197078705,3,3,3,3,-12.38,5.67,0.08,14.91,-4.78,0.07000000000000001
17.72748196125031,3,3,3,3,-13.84,5.83,0.96,16.93,-4.42,2.52
17.73848187923431,3,3,3,3,-13.58,5.12,1.14,18.07,-3.03,5.7
17.74748194217682,3,3,3,3,-13.3,4.3,1.05,17.58,-1.44,7.69
17.75748193264008,3,3,3,3,-12.33,2.16,0.52,14.23,0,8.17
17.76848185062408,3,3,3,3,-11.57,-1.37,-1.11,8.77,1.42,8.49
17.77748191356659,3,3,3,3,-11.89,-2.72,-1.2,3.11,2.31,8.210000000000001
17.78748190402985,3,3,3,3,-12.54,-4.13,-2,-3.33,2.05,8
17.79848206043243,3,3,3,3,-11.7,-6.19,-2.19,-7.47,1.56,7.86
17.80848205089569,3,3,3,3,-12.37,-5.97,-0.39,-5.43,2.59,8.66
17.81848204135895,3,3,3,3,-12.74,-6.8,0.26,0.46,3.44,9.550000000000001
17.8284820318222,3,3,3,3,-12.09,-7.16,1,4.48,3.42,9.65
17.83848202228546,3,3,3,3,-10.94,-6.46,1.99,6.89,2.61,10.11
17.85848200321198,3,3,3,3,-10.19,-4.41,3.26,2.34,3.25,10.67
17.86848199367523,3,3,3,3,-9.359999999999999,-4.7,2.51,-4.26,1.66,11.13
17.87848198413849,3,3,3,3,-9.119999999999999,-5.41,1.99,-8.279999999999999,1.59,11.4
17.88848197460175,3,3,3,3,-9.460000000000001,-5.94,0.58,-9.369999999999999,2.37,11.23
17.898481965065,3,3,3,3,-9.16,-6.46,0.01,-9.49,2.79,11.39
17.90848195552826,3,3,3,3,-8.92,-6.77,0.3,-8.98,2.24,11.73
17.91848194599152,3,3,3,3,-8.81,-6.33,1,-8.17,0.67,11.63
17.92848193645477,3,3,3,3,-7.35,-6.8,0.8100000000000001,-8.039999999999999,-1.74,12.07
17.93848192691803,3,3,3,3,-7.19,-6.49,1.55,-6.78,-4.04,13.38
17.94848191738129,3,3,3,3,-7.52,-5.53,2.55,-5.04,-4.65,14.66
17.95848190784454,3,3,3,3,-7.44,-4.77,3.38,-4.61,-3.54,14.46
17.9684818983078,3,3,3,3,-7.9,-2.95,3,-4.16,-0.74,14.71
17.97848188877106,3,3,3,3,-8.23,-3.21,1.74,-5.64,0.04,15.42
17.98848187923431,3,3,3,3,-9.029999999999999,-2.13,1.07,-7.01,0.37,14.82
17.99848186969757,3,3,3,3,-9.32,-0.6,0.9399999999999999,-7.24,-0.59,13.55
18.00848186016083,3,3,3,3,-9.050000000000001,-0.54,1.34,-9.77,-1.11,11.56
18.01848185062408,3,3,3,3,-8.619999999999999,-1.31,1.07,-8.91,-0.8,8.640000000000001
18.02848184108734,3,3,3,3,-9.109999999999999,-2.12,0.49,-7.12,0.79,6.45
18.0384818315506,3,3,3,3,-8.81,-2.21,-0.34,-4.35,1.08,5.25
18.04848206043243,3,3,3,3,-8.960000000000001,-0.13,-0.48,-0.46,-0.99,4.68
18.05848205089569,3,3,3,3,-10.02,0.66,0.29,1.87,-3.69,6.17
18.06848204135895,3,3,3,2,-9.57,1.68,1.14,3.59,-5.85,7.85
18.0784820318222,3,3,3,2,-9.77,2.04,1.63,3.64,-5.72,8.23
18.08848202228546,3,3,3,2,-9.32,3.26,0.55,3.72,-5.36,7.87
18.09848201274872,3,3,3,2,-8.98,3.74,0.52,1.38,-2.87,7.1
18.10848200321198,3,3,3,2,-8.23,4.11,0.72,3.29,-2.85,6.39
18.11848199367523,3,3,3,2,-8.859999999999999,3.62,0.6899999999999999,2.4,-2.02,6.37
18.12848198413849,3,3,3,2,-8.66,3.65,-0.13,2.06,-1.36,6.2
18.13848197460175,3,3,3,2,-8.539999999999999,3.79,-0.27,1.33,-1.17,6.18
18.148481965065,3,3,3,2,-9.17,3.93,-0.14,-0.32,-0.4,6.48
18.15848195552826,3,3,3,2,-8.6,3.66,-0.1,-1.44,-0.34,6.29
18.16848194599152,3,3,3,1,-9.119999999999999,2.39,0.9,-3.16,-0.48,4.99
18.17848193645477,3,3,3,1,-8.9,2.21,0.87,-4.68,-0.96,4.2
18.18848192691803,3,3,3,1,-9.01,1.79,0.89,-5.78,-0.67,3.44
18.19848191738129,3,3,3,1,-8.91,1.47,1.04,-6.04,-0.47,2.99
18.20848190784454,3,3,3,1,-8.640000000000001,1.1,0.79,-6.16,0.03,2.45
18.2184818983078,3,3,3,1,-8.550000000000001,0.99,0.89,-5.86,0.33,1.72
18.22848188877106,3,3,3,1,-9.16,0.99,1.41,-5.55,-0.02,0.76
18.23848187923431,3,3,3,1,-9.279999999999999,4.25,0.97,-4.6,-1.43,-0.67
18.24848186969757,3,3,3,1,-10.36,1.93,0.24,-4.63,-0.63,-2.31
18.25848186016083,3,3,3,1,-11.33,0.53,0.88,-8.18,1.18,-3.55
18.26848185062408,3,3,3,1,-11.31,3.13,0.65,-7.07,-1.2,-3.56
18.27848184108734,3,3,3,1,-13.22,6.47,1.08,-6.38,-0.8,-2.87
18.2884818315506,3,3,3,1,-13.1,3.81,1.87,-11.47,1.06,-1.92
18.29848206043243,3,3,3,1,-11.3,1.61,2.57,-12.99,0.45,-1.75
18.30848205089569,3,3,3,1,-9.5,0.64,2.64,-9.550000000000001,1.08,-3.13
18.31848204135895,3,3,3,1,-7.91,-0.25,1.3,-5.76,3.21,-4.68
18.3284820318222,3,3,3,1,-8.289999999999999,0,0.39,-3.4,4.48,-5.43
18.33848202228546,3,3,3,1,-8.710000000000001,0,-0.41,-1.81,4.77,-5.05
18.34848201274872,3,3,3,1,-9.91,0.55,-0.82,-0.79,4.88,-4.26
18.35848200321198,3,3,3,1,-9.83,0.54,-0.4,-0.8100000000000001,3.19,-3.94
18.36848199367523,3,3,3,1,-9.869999999999999,0.54,-0.25,-0.14,2.48,-4.37
18.37848198413849,3,3,3,1,-10.12,0.63,-0.05,0.9,2.3,-4.66
18.38848197460175,3,3,3,1,-10.46,0.36,0.3,1.91,2.25,-4.69
18.398481965065,3,3,3,1,-10.07,1.34,0.46,1.24,2.22,-5.02
18.40848195552826,3,3,3,1,-9.57,1.59,0.42,-0.23,2.02,-5.16
18.41848194599152,3,3,3,0,-9.66,1.85,0.01,-2.08,2.36,-5.04
18.42848193645477,3,3,3,0,-9.77,1.56,-0.24,-4.51,3.34,-4.79
18.43848192691803,3,3,3,0,-9.699999999999999,1.25,-1.13,-5.35,3.48,-4.85
18.44848191738129,3,3,3,0,-9.619999999999999,0.93,-1.31,-5.4,3.04,-4.95
18.45848190784454,3,3,3,0,-9.99,1.1,-0.9399999999999999,-4.46,2.82,-4.67
18.4684818983078,3,3,3,0,-9.960000000000001,1.04,-0.98,-4.08,2.73,-4.09
18.47848188877106,3,3,3,0,-9.98,0.44,-1.19,-3.65,2.76,-3.69
18.48848187923431,3,3,3,0,-10.11,-0.01,-1.28,-2.93,2.84,-3.72
18.49848186969757,3,3,3,0,-10.22,-0.25,-1.32,-2.04,2.71,-3.71
18.50848186016083,3,3,3,0,-10.04,-0.23,-1.36,-0.54,2.38,-3.46
18.51848185062408,3,3,3,0,-10.17,0,-1.12,1.06,2.06,-3.33
18.52848184108734,3,3,3,0,-9.98,-0.13,-0.93,1.5,1.57,-3.02
18.5384818315506,3,3,3,0,-10.19,-0.1,-0.83,1.54,1.3,-2.94
18.54848206043243,3,3,3,0,-10.27,-0.15,-0.5600000000000001,1.33,1.24,-2.89
18.55848205089569,3,3,3,0,-10.06,0.43,-0.28,1.83,1.01,-3.09
18.56848204135895,3,3,3,0,-9.94,0.97,-0.42,2.58,0.84,-3.39
18.5784820318222,3,3,3,0,-9.74,1.34,-0.51,2.6,0.51,-3.4
18.58848202228546,3,3,3,0,-9.640000000000001,1.44,-0.84,1.84,0.68,-3.21
18.59848201274872,3,3,3,0,-9.59,1.22,-1.05,0.72,1.05,-3.03
18.60848200321198,3,3,3,0,-9.75,0.95,-0.95,-0.03,1.18,-2.93
18.61848199367523,3,3,3,0,-9.75,0.74,-0.7,-0.19,1.02,-2.97
18.62848198413849,3,3,3,0,-9.9,0.68,-0.51,0.43,0.67,-2.88
18.63848197460175,3,3,3,0,-9.94,0.65,-0.34,0.84,0.44,-3
18.648481965065,3,3,3,0,-9.960000000000001,0.62,-0.5,1.5,0.28,-3.23
18.65848195552826,3,3,3,0,-9.9,0.39,-0.51,2.09,-0.15,-3.21
18.66848194599152,3,3,3,0,-9.69,0.2,-0.51,2.29,-0.31,-2.98
18.67848193645477,3,3,3,0,-9.890000000000001,0.52,-0.64,2.7,-0.09,-3.12
18.69848191738129,3,3,3,0,-9.93,0.8,-0.35,2.43,-0.07000000000000001,-3.47
18.70848190784454,3,3,3,0,-9.880000000000001,0.9399999999999999,-0.21,2.26,0.09,-3.51
18.7184818983078,3,3,3,0,-9.619999999999999,1.57,-0.33,2.2,0.17,-3.76
18.72848188877106,3,3,3,0,-9.630000000000001,1.88,-0.43,1.68,0.05,-3.87
18.73848187923431,3,3,3,0,-9.720000000000001,1.75,-0.72,0.28,0.11,-3.47
18.74848186969757,3,3,3,0,-9.69,1.45,-0.72,-1.16,0.05,-3.02
18.75848186016083,3,3,3,0,-9.699999999999999,0.92,-0.4,-1.64,-0.01,-2.84
18.76848185062408,3,3,3,0,-9.640000000000001,0.63,-0.53,-1.46,-0.2,-2.59
18.77848184108734,3,3,3,0,-9.68,0.5600000000000001,-0.57,-0.9,-0.2,-2.47
18.7884818315506,3,3,3,0,-9.699999999999999,0.68,-0.52,-0.11,-0.26,-2.27
18.79848206043243,3,3,3,0,-9.76,0.29,-0.24,-0.14,-0.26,-1.85
18.81848204135895,3,3,3,1,-9.720000000000001,-0.5,0.09,0.01,-0.36,-0.85
18.82948195934296,3,3,3,1,-9.66,-0.52,0.33,0.9,-0.53,-0.53
18.83948194980621,3,3,3,1,-9.609999999999999,-0.25,0.33,1.95,-0.73,-0.45
18.84948194026947,3,3,3,1,-9.630000000000001,-0.29,0.38,2.34,-0.93,-0.4
18.85948193073273,3,3,3,1,-9.59,-0.06,0.5,2.37,-1.11,-0.35
18.86948192119598,3,3,3,1,-9.6,0.12,0.43,2.17,-1.1,-0.3
18.87948191165924,3,3,3,1,-9.640000000000001,0.2,0,1.69,-1.03,-0.17
18.8894819021225,3,3,3,1,-9.619999999999999,0.29,-0.12,1.53,-1.11,-0.05
18.89948189258575,3,3,3,1,-9.609999999999999,0.28,-0.07000000000000001,1.5,-1.03,0.01
18.90948188304901,3,3,3,1,-9.77,0.33,0,1.56,-0.88,-0.08
18.91948187351227,3,3,3,1,-9.93,0.34,0.05,1.5,-0.84,-0.11
18.92948186397552,3,3,3,1,-9.91,0.15,0.17,1.35,-0.92,-0.03
18.93948185443878,3,3,3,1,-9.84,0.03,0.04,1.37,-0.99,0.01
18.94948184490204,3,3,3,1,-9.82,0.17,0.08,1.66,-1.02,0.05
18.9594818353653,3,3,3,1,-9.609999999999999,0.41,0.07000000000000001,2.2,-1.17,0.13
18.96948182582855,3,3,3,1,-9.630000000000001,0.74,0.11,2.74,-1.11,-0.02
18.97948205471039,3,3,3,1,-9.609999999999999,1.01,0,3.1,-1.21,0.03
18.98948204517365,3,3,3,1,-9.65,1.05,-0.06,3.07,-1.07,0.15
19.05948197841644,3,3,3,2,-9.68,0.86,-0.01,0.49,-0.28,0.38
19.0694819688797,3,3,3,2,-9.83,0.75,-0.05,-0.22,-0.35,0.36
19.07948195934296,3,3,3,2,-9.75,0.77,-0.07000000000000001,-0.37,-0.29,0.36
19.08948194980621,3,3,3,2,-9.720000000000001,0.8100000000000001,-0.11,-0.53,-0.25,0.37
19.09948194026947,3,3,3,2,-9.73,0.83,0.04,-0.59,-0.33,0.34
19.10948193073273,3,3,3,2,-9.58,0.9,0.14,-0.63,-0.4,0.32
19.11948192119598,3,3,3,2,-9.67,0.9399999999999999,0.12,-0.66,-0.43,0.14
19.12948191165924,3,3,3,2,-9.74,0.88,0.1,-0.74,-0.29,0.08
19.1394819021225,3,3,3,2,-9.74,0.85,-0.06,-0.78,-0.22,0.06
19.14948189258575,3,3,3,2,-9.77,0.99,0,-0.62,-0.13,0.11
19.15948188304901,3,3,3,2,-9.73,0.95,0.11,-0.65,-0.1,0.11
19.16948187351227,3,3,3,2,-9.76,0.74,0.15,-0.87,-0.08,0.15
19.17948186397552,3,3,3,2,-9.82,0.39,0.15,-1.23,0.1,0.11
19.18948185443878,3,3,3,2,-9.970000000000001,-0.09,-0.02,-1.36,0.2,0.09
19.19948184490204,3,3,3,2,-9.93,-0.19,0.04,-1.02,0.17,0.05
19.2094818353653,3,3,3,2,-9.859999999999999,-0.06,0.07000000000000001,-0.5600000000000001,0.09,-0.07000000000000001
19.21948182582855,3,3,3,2,-9.869999999999999,0.01,0.17,-0.16,0.11,-0.15
19.22948205471039,3,3,3,2,-9.83,0.14,0.04,-0.06,0.03,-0.18
19.23948204517365,3,3,3,2,-9.800000000000001,0.24,0,-0.03,-0.06,-0.17
19.2494820356369,3,3,3,2,-9.84,0.34,0.14,0.08,-0.06,-0.26
19.25948202610016,3,3,3,2,-9.83,0.32,0.25,0.08,-0.16,-0.2
19.26948201656342,3,3,3,2,-9.81,0.58,0.08,-0.06,-0.15,-0.17
19.27948200702667,3,3,3,2,-9.869999999999999,0.62,0.12,-0.15,-0.07000000000000001,-0.2
19.28948199748993,3,3,3,2,-9.82,0.48,0.09,-0.37,-0.06,-0.12
19.29948198795319,3,3,3,2,-9.67,0.49,0,-0.55,-0.1,-0.03
19.30948197841644,3,3,3,2,-9.699999999999999,0.51,-0.19,-0.54,0.1,-0.08
19.3194819688797,3,3,3,2,-9.68,0.52,-0.18,-0.39,0.16,-0.11
19.32948195934296,3,3,3,2,-9.82,0.55,-0.05,-0.04,0.22,-0.15
19.33948194980621,3,3,3,2,-9.9,0.52,-0.13,0.27,0.25,-0.22
19.34948194026947,3,3,3,2,-9.82,0.34,-0.03,0.3,0.26,-0.16
19.35948193073273,3,3,3,2,-9.779999999999999,0.16,-0.01,0.35,0.2,-0.06
19.36948192119598,3,3,3,2,-9.81,0.08,0.02,0.49,0.12,-0.06
19.37948191165924,3,3,3,2,-9.93,-0.05,0.07000000000000001,0.68,0.07000000000000001,-0.07000000000000001
19.3894819021225,3,3,3,2,-9.869999999999999,0.22,0.02,0.95,-0.01,-0.04
19.39948189258575,3,3,3,2,-9.93,0.26,0.12,1.17,0.04,-0.15
19.40948188304901,3,3,3,2,-9.779999999999999,0.28,0.14,1.15,0.02,-0.27
19.41948187351227,3,3,3,2,-9.640000000000001,0.34,0.06,0.99,0.01,-0.34
19.42948186397552,3,3,3,2,-9.77,0.8100000000000001,-0.08,0.9399999999999999,0.13,-0.39
19.43948185443878,3,3,3,2,-9.68,0.9399999999999999,-0.17,0.8,0.11,-0.31
19.44948184490204,3,3,3,2,-9.699999999999999,0.92,-0.27,0.61,-0.03,-0.1
19.4594818353653,3,3,3,2,-9.73,0.87,-0.19,0.41,0.03,-0.02
19.46948182582855,3,3,3,2,-9.68,0.74,-0.08,0.3,0.07000000000000001,-0.01
