timestamp,magCalib,accCalib,gyrCalib,sysCalib,accX,accY,accZ,gyrX,gyrY,gyrZ
0.0264819860458374,2,3,3,0,-8.48,2.92,0.45,-1.17,-2.19,-0.26
0.03648197650909424,2,3,3,0,-7.7,2.77,0.59,-1.29,-0.96,0.61
0.04648196697235107,2,3,3,0,-8.6,2.28,0.9,-1.43,0.66,1.28
0.05648195743560791,2,3,3,0,-8.49,2.35,0.74,-1.59,1.51,1.77
0.06648194789886475,2,3,3,0,-9.31,2.44,0.67,-2.13,1.23,2.18
0.07648193836212158,2,3,3,0,-8.9,2.64,0.76,-1.8,1.22,1.79
0.08648192882537842,2,3,3,0,-12.07,2.83,-1.03,-1.26,0.18,1.74
0.09648191928863525,2,3,3,0,-6.23,0.97,0.93,0.55,-0.1,1.27
0.1064819097518921,2,3,3,0,-8.33,1.87,0.34,2.75,2.2,0.82
0.1164819002151489,2,3,3,0,-10.34,1.61,0.46,4.15,1.87,0.87
0.1264818906784058,2,3,3,0,-9.49,1.55,0.66,2.75,2.17,0.2
0.1364818811416626,2,3,3,0,-10.05,1.54,0.8,0.6,2.4,-0.15
0.1464818716049194,2,3,3,0,-9.06,1.49,0.39,-1.56,2.53,-0.32
0.1564818620681763,2,3,3,0,-10.76,1.24,0.26,-4.12,1.88,-0.39
0.1664818525314331,2,3,3,0,-11.69,2.62,-0.31,-3.87,2.02,-0.62
0.1764818429946899,2,3,3,0,-9.119999999999999,3.14,-0.12,-3.16,0.44,-1.58
0.1864818334579468,2,3,3,0,-10.24,3.33,0.34,0.9399999999999999,1.9,1.28
0.1964818239212036,2,3,3,0,-9.99,3.36,0.21,0.9399999999999999,1.9,1.28
0.2064820528030396,2,3,3,0,-9.970000000000001,3.26,-0.06,0.5,1.8,1.18
0.2164820432662964,2,3,3,0,-9.789999999999999,3.06,0.2,0.22,1.43,0.66
0.2264820337295532,2,3,3,0,-9.68,2.81,0.33,-0.14,0.88,0.43
0.2364820241928101,2,3,3,0,-9.619999999999999,2.95,0.03,-0.32,0.4,0.26
0.2464820146560669,2,3,3,0,-9.630000000000001,2.63,-0.06,0.01,0.18,-0.05
0.2564820051193237,2,3,3,0,-9.57,2.66,-0.13,0.29,0.07000000000000001,-0.07000000000000001
0.2664819955825806,2,3,3,0,-9.31,2.54,-0.3,0.83,-0.18,0.15
0.2764819860458374,2,3,3,0,-9.51,2.41,-0.16,1.16,-0.2,0.25
0.2864819765090942,2,3,3,0,-9.300000000000001,2.3,-0.18,0.93,-0.73,0.19
0.2964819669723511,2,3,3,0,-9.06,2.29,-0.35,1.36,-0.85,0.07000000000000001
0.3064819574356079,2,3,3,0,-9.34,2.56,-0.37,1.8,-0.64,0.12
0.3164819478988647,2,3,3,0,-9.06,3.16,-0.2,1.67,-0.58,0.17
0.3264819383621216,2,3,3,0,-9.35,3.06,-0.34,1.39,-0.88,0.05
0.3364819288253784,2,3,3,0,-9.1,3.18,-0.45,0.99,-0.79,0.17
0.3464819192886353,2,3,3,0,-9.050000000000001,3.22,-0.66,0.71,-0.74,0.31
0.3564819097518921,2,3,3,0,-9.02,3.23,-0.79,0.43,-0.55,0.42
0.3664819002151489,2,3,3,0,-9.1,3.17,-0.55,0.25,-0.22,0.45
0.3764818906784058,2,3,3,0,-9.16,3.39,-0.43,0.14,-0.24,0.37
0.3864818811416626,2,3,3,0,-9.08,3.48,-0.34,0.18,-0.32,0.19
0.3964818716049194,2,3,3,0,-8.94,3.45,-0.47,0.16,-0.23,0.15
0.4064818620681763,2,3,3,0,-9.140000000000001,3.42,-0.34,0.1,-0.15,-0.18
0.4164818525314331,2,3,3,0,-9.17,3.36,-0.49,-0.08,-0.62,-0.32
0.4264818429946899,2,3,3,0,-9.390000000000001,3.02,-0.78,-0.05,-0.93,-0.4
0.4364818334579468,2,3,3,0,-9.529999999999999,2.87,-0.61,0.01,-1.57,-0.47
0.4464818239212036,2,3,3,0,-9.09,2.91,-0.49,-0.08,-1.45,-0.26
0.4564820528030396,2,3,3,0,-9.710000000000001,2.65,-0.78,-0.45,-0.36,0.02
0.4664820432662964,2,3,3,0,-8.98,3.01,-0.53,-0.61,-0.25,-0.06
0.4764820337295532,2,3,3,0,-7.7,1.57,-0.05,-1.71,0.91,-1.01
0.4864820241928101,2,3,3,0,-9.82,2.62,-0.64,-2.24,0.75,-0.74
0.4964820146560669,2,3,3,0,-9.74,3.28,-1.22,-1.61,0.85,-0.22
0.5064820051193237,2,3,3,0,-9.17,3.43,-0.39,0.19,1.41,-0.17
0.5164819955825806,2,3,3,0,-8.44,1.43,-0.01,1.86,2.24,-2.42
0.5264819860458374,2,3,3,0,-9.06,2.12,-0.64,0.74,1.07,-0.32
0.5364819765090942,2,3,3,0,-7.47,1.62,-1.07,-0.32,0.32,0.18
0.5464819669723511,2,3,3,0,-8.49,1.67,-0.8100000000000001,-2.06,-5.07,0.28
0.5564819574356079,2,3,3,0,-10.34,2.23,-0.16,-1.29,-5.38,0.49
0.5664819478988647,2,3,3,0,-10.78,2.82,-0.5,0.64,-1.41,0.68
0.5764819383621216,2,3,3,0,-10.34,3.21,-0.31,2.24,2.14,0.38
0.5864819288253784,2,3,3,0,-9.83,3.23,-0.53,2.6,4.03,0.14
0.5964819192886353,2,3,3,0,-9.359999999999999,3.03,-0.58,2.57,4.37,-0.51
0.6064819097518921,2,3,3,0,-9.01,2.67,-0.71,2.3,3.59,-0.68
0.6164819002151489,2,3,3,0,-9.539999999999999,3.23,-0.9,1.84,2.8,-0.19
0.6264818906784058,2,3,3,0,-9,2.34,-0.91,2.12,2.93,-1.14
0.6364818811416626,2,3,3,0,-8.9,2.49,-0.89,1.74,1.26,-0.85
0.6464818716049194,2,3,3,0,-9.35,2.91,-1.01,1.88,1.36,-1.64
0.6564818620681763,2,3,3,0,-9.19,2.68,-1.01,1.25,0.3,-1.5
0.6664818525314331,2,3,3,0,-9.220000000000001,2.81,-1.07,0.6,-0.51,-1.01
0.6764818429946899,2,3,3,0,-8.890000000000001,3.25,-0.54,-0.28,-1.48,-0.43
0.6864818334579468,2,3,3,0,-8.960000000000001,2.94,-0.77,-1.23,-1.7,-0.05
0.6964818239212036,2,3,3,0,-9.130000000000001,2.91,-0.6899999999999999,-0.92,-1.31,-0.5600000000000001
0.7064820528030396,2,3,3,0,-9.18,2.77,-0.74,-0.65,-0.91,-1.39
0.7164820432662964,2,3,3,0,-9.75,3.14,-0.77,-0.12,-0.65,-2.2
0.7264820337295532,2,3,3,0,-9.83,3.3,-0.85,0.77,-0.63,-3.25
0.7464820146560669,2,3,3,0,-9.550000000000001,2.9,-0.64,1.58,-0.22,-7.78
0.7564820051193237,2,3,3,0,-9.43,2.77,-0.74,1.32,0.45,-7.81
0.7664819955825806,2,3,3,0,-9.23,2.52,-0.72,1.69,0.89,-10.12
0.7764819860458374,2,3,3,0,-9.539999999999999,1.85,-0.63,2.13,1.5,-12.16
0.7864819765090942,2,3,3,0,-9.67,1.27,-0.53,1.79,2.04,-13.09
0.7964819669723511,2,3,3,0,-9.94,1.52,-0.77,1.74,2.53,-11.93
0.8064819574356079,2,3,3,0,-9.76,1.54,-0.95,1.39,2.05,-11.61
0.8164819478988647,2,3,3,0,-9.43,1.32,-0.99,1.52,1.57,-10.63
0.8264819383621216,2,3,3,0,-9.27,1.55,-0.82,1.6,1.27,-8.91
0.8364819288253784,2,3,3,0,-9.220000000000001,1.71,-0.92,1.63,0.95,-9.32
0.8464819192886353,2,3,3,0,-9.619999999999999,1.59,-0.8,2.53,0.7,-10.92
0.8564819097518921,2,3,3,0,-9.710000000000001,1.05,-0.79,2.48,0.61,-11.31
0.8664819002151489,2,3,3,0,-9.81,0.67,-0.91,1.81,0.68,-9.619999999999999
0.8764818906784058,2,3,3,0,-9.69,0.8,-0.8,1.82,1.03,-6.33
0.8864818811416626,2,3,3,0,-9.31,0.6,-0.63,1.88,1.45,-4.11
0.8964818716049194,2,3,3,0,-9.220000000000001,0.5600000000000001,-0.45,1.69,1.79,-2.21
0.9064818620681763,2,3,3,0,-9.130000000000001,0.62,-1.08,1.55,1.82,-1.62
0.9164818525314331,2,3,3,0,-9.029999999999999,0.76,-1.11,0.88,1.94,-1.36
0.9264818429946899,2,3,3,0,-9.119999999999999,0.84,-0.86,0.07000000000000001,1.84,-0.64
0.9364818334579468,2,3,3,0,-9.65,0.76,-0.8,-0.76,1.21,0.67
0.9464818239212036,2,3,3,0,-9.859999999999999,1.09,-0.83,-1.58,0.57,2.27
0.9564820528030396,2,3,3,0,-9.460000000000001,1.01,-0.72,-2.27,-0.3,3.42
0.9664820432662964,2,3,3,0,-8.85,1.24,-0.9,-2.63,-0.07000000000000001,3.78
0.9764820337295532,2,3,3,0,-9.199999999999999,1.88,-0.71,-2.68,0.29,3.93
0.9864820241928101,2,3,3,0,-10.29,1.68,-1.08,-1.56,-0.4,1.98
0.9974819421768188,2,3,3,0,-10.77,1.63,-1.22,-0.43,-1.05,-0.64
1.007481932640076,2,3,3,0,-11.13,1.4,-1.17,0.19,-1.32,-2.34
1.017481923103333,2,3,3,0,-10.87,1.31,-1.06,0.07000000000000001,-1.03,-2.13
1.027481913566589,2,3,3,0,-10.54,1.21,-0.89,-0.02,0.13,-1.49
1.037481904029846,2,3,3,0,-10.14,1.05,-0.77,0.03,1.05,-1.1
1.047481894493103,2,3,3,0,-9.4,1.04,-0.59,-0.11,1.17,-0.85
1.05748188495636,2,3,3,0,-8.949999999999999,1.06,-0.8100000000000001,0.34,0.97,-1.31
1.067481875419617,2,3,3,0,-8.84,1.08,-0.64,0.54,1.54,-1.43
1.077481865882874,2,3,3,0,-9.67,0.99,-0.66,0.35,2.56,-0.48
1.08748185634613,2,3,3,0,-11.08,1.51,-1.45,-0.65,2.6,0.52
1.097481846809387,2,3,3,0,-10.76,1.49,-1.43,-0.59,0.99,0.28
1.107481837272644,2,3,3,0,-10.43,1.43,-1.28,-0.08,-1.16,-0.01
1.117481827735901,2,3,3,0,-10.22,1.2,-0.83,-0.43,-1.31,0.44
1.127482056617737,2,3,3,0,-10.75,0.92,-0.9399999999999999,-1.44,-0.96,1.57
1.137482047080994,2,3,3,0,-10.66,0.91,-0.86,-1.96,-0.52,2.92
1.14748203754425,2,3,3,0,-10.46,0.88,-0.79,-2.36,0.09,4.4
1.157482028007507,2,3,3,0,-10.25,1.02,-0.9,-2.95,0.9,5.78
1.167482018470764,2,3,3,0,-10.3,1.26,-0.85,-3.18,1.8,6.94
1.177482008934021,2,3,3,0,-10.3,1.38,-0.83,-3.01,2.98,7.94
1.187481999397278,2,3,3,0,-10.41,1.36,-0.9,-2.68,4.13,9.119999999999999
1.197481989860535,2,3,3,0,-10.37,1.15,-0.88,-2.54,4.93,10.72
1.207481980323792,2,3,3,0,-7.19,0.07000000000000001,-3.01,-2.13,4.74,12.92
1.217481970787048,2,3,3,0,-9.58,2.9,-1.4,-4.11,-12.22,18.38
1.227481961250305,2,3,3,0,-3.65,3.85,1.84,-3.45,-11.44,13.65
1.237481951713562,2,3,3,0,-9.449999999999999,2.41,-1,2.35,0.35,1.64
1.247481942176819,2,3,3,0,-9.81,1.29,-1.17,1.15,0.08,0.65
1.257481932640076,2,3,3,0,-9.58,2.14,-1.12,1.32,0.19,0.5
1.267481923103333,2,3,3,0,-9.73,2.41,-1.12,0.85,0.2,0.61
1.277481913566589,2,3,3,0,-9.5,1.88,-0.43,1.48,-0.11,0.58
1.287481904029846,2,3,3,0,-13.25,3.05,-3.24,1.24,-0.18,0.45
1.297481894493103,2,3,3,0,-7.59,1.51,1.32,1.36,-5.82,0.16
1.30748188495636,2,3,3,0,-8.27,2.69,-0.64,0.24,-2.45,0.83
1.317481875419617,2,3,3,0,-9.529999999999999,2.16,-0.39,0.07000000000000001,-1.63,0.92
1.327481865882874,2,3,3,0,-7.48,1.82,1.88,-0.96,-0.66,1.03
1.33748185634613,2,3,3,0,-7.48,1.82,1.88,-0.87,7.6,1.25
1.347481846809387,2,3,3,0,-11.84,3.53,-3.42,-0.42,-0.75,0.6
1.357481837272644,2,3,3,0,-10.06,2.68,-1.22,-0.45,1.69,0.46
1.367481827735901,2,3,3,0,-9.51,2.46,-0.5600000000000001,-0.66,0.93,0.25
1.377482056617737,2,3,3,0,-9.26,2.61,-0.55,-1.14,0.53,0.25
1.387482047080994,2,3,3,0,-9.26,2.61,-0.55,-1.19,0.55,0.19
1.39748203754425,2,3,3,0,-9.390000000000001,2.68,-0.57,-1.42,0.47,0.12
1.407482028007507,2,3,3,0,-9.32,2.56,-0.68,-1.53,0.41,0.09
1.417482018470764,2,3,3,0,-9.35,2.53,-0.68,-1.72,0.47,0.06
1.427482008934021,2,3,3,0,-9.67,2.56,-0.73,-1.78,0.55,-0.03
1.437481999397278,2,3,3,0,-9.67,2.56,-0.73,-1.78,0.55,-0.03
1.447481989860535,2,3,3,0,-9.640000000000001,2.34,-0.66,-1.94,0.29,0.02
1.457481980323792,2,3,3,0,-9.31,2.32,-0.6,-1.8,0.13,0.15
1.467481970787048,2,3,3,0,-9.279999999999999,2.15,-0.73,-1.3,0.03,0.04
1.477481961250305,2,3,3,0,-9.390000000000001,2.05,-0.75,-1.08,0.08,-0.04
1.487481951713562,2,3,3,0,-9.390000000000001,2.05,-0.75,-1.08,0.08,-0.04
1.497481942176819,2,3,3,0,-9.43,2.05,-0.7,-0.91,0.05,-0.25
1.507481932640076,2,3,3,0,-9.51,1.98,-0.64,-0.66,0.02,-0.4
1.517481923103333,2,3,3,0,-9.73,1.81,-0.82,-0.57,0.04,-0.43
1.527481913566589,2,3,3,0,-9.779999999999999,1.78,-0.78,-0.35,-0.03,-0.41
1.537481904029846,2,3,3,0,-9.779999999999999,1.51,-0.65,-0.2,-0.02,-0.19
1.547481894493103,2,3,3,0,-9.84,1.55,-0.71,-0.03,-0.01,-0.11
1.55748188495636,2,3,3,0,-9.609999999999999,1.68,-0.73,0.22,-0.04,-0.14
1.567481875419617,2,3,3,0,-9.52,1.63,-0.76,0.41,-0.05,-0.17
1.577481865882874,2,3,3,0,-9.44,1.72,-0.78,0.38,-0.15,-0.27
1.58748185634613,2,3,3,0,-9.390000000000001,1.85,-0.7,0.38,-0.15,-0.27
1.597481846809387,2,3,3,0,-9.56,1.87,-0.86,0.41,-0.28,-0.3
1.607481837272644,2,3,3,0,-9.48,2.09,-0.83,0.41,-0.49,-0.7
1.617481827735901,2,3,3,0,-9.17,1.61,-0.53,0.38,-0.22,-1.02
1.627482056617737,2,3,3,0,-9.93,1.46,-0.74,0.49,-0.34,-0.9399999999999999
1.637482047080994,2,3,3,0,-9.789999999999999,1.46,-0.63,0.49,-0.34,-0.9399999999999999
1.64748203754425,2,3,3,0,-10.05,1.44,-0.71,0.6899999999999999,-0.39,-0.63
1.657482028007507,2,3,3,0,-9.82,1.51,-0.54,0.85,-0.7,0.17
1.667482018470764,2,3,3,0,-9.82,1.44,-0.76,0.91,-0.63,0.66
1.677482008934021,2,3,3,0,-9.880000000000001,1.63,-0.6,1.14,-0.46,0.96
1.687481999397278,2,3,3,0,-9.890000000000001,1.53,-0.67,1.14,-0.46,0.96
1.697481989860535,2,3,3,0,-10.06,1.71,-0.72,1.23,-0.44,1.33
1.707481980323792,2,3,3,0,-9.52,1.98,-0.74,1.39,-0.9,1.16
1.717481970787048,2,3,3,0,-9.630000000000001,2.12,-0.79,1.71,-1.18,1
1.727481961250305,2,3,3,0,-9.31,2.06,-0.8,1.88,-1.1,1.13
1.737481951713562,2,3,3,0,-9.23,2.56,-0.66,1.88,-1.1,1.13
1.747481942176819,2,3,3,0,-9.17,2.39,-0.66,1.84,-1.05,1.13
1.757481932640076,2,3,3,0,-9.17,2.72,-0.68,1.77,-1.03,0.95
1.767481923103333,2,3,3,0,-9.300000000000001,2.39,-1.1,2.12,-0.77,0.15
1.777481913566589,2,3,3,0,-9.09,2.89,-0.61,1.82,-0.54,0.06
1.787481904029846,2,3,3,0,-9.789999999999999,2.37,-0.9,1.82,-0.54,0.06
1.797481894493103,2,3,3,0,-8.74,3.56,-0.24,0.96,-0.48,0.13
1.80748188495636,2,3,3,0,-9.140000000000001,3.28,-0.07000000000000001,1.06,-0.13,0.58
1.817481875419617,2,3,3,0,-9.800000000000001,3.38,-0.6899999999999999,0.47,-0.5,0.39
1.827481865882874,2,3,3,0,-8.94,3.46,-0.38,0.16,-0.31,0
1.83748185634613,2,3,3,0,-9.380000000000001,3.02,-0.75,0.16,-0.31,0
1.847481846809387,2,3,3,0,-9.210000000000001,2.62,-0.5600000000000001,-0.11,0.23,-0.16
1.857481837272644,2,3,3,0,-9.460000000000001,3.05,-0.84,-0.65,0.42,-0.48
1.867481827735901,2,3,3,0,-9.43,3.15,-0.82,-0.92,0.47,-0.7
1.877482056617737,2,3,3,0,-9.470000000000001,3.33,-0.72,-1.31,0.62,-0.98
1.887482047080994,2,3,3,0,-9.59,3.27,-0.62,-1.31,0.62,-0.98
1.89748203754425,2,3,3,0,-9.460000000000001,3.16,-0.59,-1.78,0.83,-1.23
1.907482028007507,2,3,3,0,-9.44,3.01,-0.6,-2.79,1.23,-1.32
1.917482018470764,2,3,3,0,-9.449999999999999,2.8,-0.66,-3.23,1.31,-1.25
1.927482008934021,2,3,3,0,-9.42,2.62,-0.64,-3.58,1.37,-1.2
1.937481999397278,2,3,3,0,-9.470000000000001,2.62,-0.5600000000000001,-3.58,1.37,-1.2
1.947481989860535,2,3,3,0,-9.43,2.64,-0.61,-3.91,1.24,-1.08
1.957481980323792,2,3,3,0,-9.43,2.59,-0.62,-4.25,1.13,-0.9
1.967481970787048,2,3,3,0,-9.32,2.57,-0.7,-4.15,1.18,-0.87
1.977481961250305,2,3,3,0,-9.359999999999999,2.51,-0.63,-4.07,1.2,-0.83
1.987481951713562,2,3,3,0,-9.4,2.51,-0.55,-4.07,1.2,-0.83
1.997481942176819,2,3,3,0,-9.41,2.46,-0.51,-4.04,1.12,-0.85
2.007481932640076,2,3,3,0,-9.58,2.42,-0.5600000000000001,-4.28,1.12,-0.9
2.018481850624084,2,3,3,0,-9.619999999999999,2.3,-0.68,-4.28,1.12,-0.9
2.028481841087341,2,3,3,0,-9.66,2.2,-0.5600000000000001,-4.41,1.05,-0.88
2.038481831550598,2,3,3,0,-9.609999999999999,1.89,-0.6,-4.73,0.86,-0.86
2.048482060432434,2,3,3,0,-9.59,1.79,-0.68,-4.9,0.58,-0.78
2.058482050895691,2,3,3,0,-9.619999999999999,1.66,-0.72,-4.81,0.51,-0.66
2.068482041358948,2,3,3,0,-9.65,1.59,-0.78,-4.67,0.34,-0.52
2.098482012748718,2,3,3,0,-9.82,1.59,-0.66,-3.9,0.05,-0.49
2.108482003211975,2,3,3,0,-9.779999999999999,1.58,-0.72,-3.67,-0.08,-0.43
2.118481993675232,2,3,3,0,-9.58,1.51,-0.68,-3.74,-0.08,-0.36
2.128481984138489,2,3,3,0,-9.56,1.39,-0.57,-3.63,-0.28,-0.26
2.138481974601746,2,3,3,0,-9.52,1.43,-0.5,-3.48,-0.58,-0.14
2.148481965065002,2,3,3,0,-9.44,1.44,-0.6899999999999999,-3.2,-1.12,-0.02
2.158481955528259,2,3,3,0,-9.710000000000001,1.44,-0.6899999999999999,-2.72,-1.19,0.03
2.168481945991516,2,3,3,0,-9.73,1.44,-0.8,-2.67,-1.38,0.02
2.178481936454773,2,3,3,0,-9.69,1.46,-0.85,-2.57,-1.54,-0.05
2.18848192691803,2,3,3,0,-9.640000000000001,1.44,-0.82,-2.22,-1.45,-0.09
2.198481917381287,2,3,3,0,-9.56,1.45,-0.78,-1.91,-1.19,-0.12
2.208481907844543,2,3,3,0,-9.619999999999999,1.5,-0.71,-1.64,-0.91,-0.09
2.2184818983078,2,3,3,0,-9.529999999999999,1.57,-0.76,-1.42,-0.63,-0.1
2.228481888771057,2,3,3,0,-9.65,1.78,-0.66,-1.2,-0.38,-0.12
2.238481879234314,2,3,3,0,-9.65,1.9,-0.5600000000000001,-1.04,-0.18,-0.2
2.248481869697571,2,3,3,0,-9.619999999999999,1.96,-0.59,-1.02,-0.2,-0.22
2.258481860160828,2,3,3,0,-9.59,1.98,-0.63,-1.02,-0.26,-0.19
2.268481850624084,2,3,3,0,-9.56,2,-0.9399999999999999,-1,-0.27,-0.13
2.278481841087341,2,3,3,0,-9.57,1.87,-0.9399999999999999,-0.95,-0.13,-0.07000000000000001
2.288481831550598,2,3,3,0,-9.56,1.73,-0.88,-0.9399999999999999,0.01,-0.13
2.298482060432434,2,3,3,0,-9.539999999999999,1.66,-0.76,-0.87,0.22,-0.23
2.308482050895691,2,3,3,0,-9.550000000000001,1.62,-0.7,-0.84,0.2,-0.25
2.318482041358948,2,3,3,0,-9.609999999999999,1.69,-0.83,-0.72,0.03,-0.23
2.328482031822205,2,3,3,0,-9.630000000000001,1.75,-0.83,-0.55,-0.07000000000000001,-0.11
2.338482022285461,2,3,3,0,-9.66,1.79,-0.77,-0.47,-0.1,-0.02
2.348482012748718,2,3,3,0,-9.67,1.9,-0.67,-0.33,0.01,0.07000000000000001
2.358482003211975,2,3,3,0,-9.640000000000001,1.97,-0.67,-0.12,0.1,0.12
2.368481993675232,2,3,3,0,-9.6,2.01,-0.8,-0.06,0.16,0.09
2.378481984138489,2,3,3,0,-9.48,2.01,-0.76,0.08,0.27,0.07000000000000001
2.388481974601746,2,3,3,0,-9.44,1.98,-0.7,0.15,0.36,0.04
2.398481965065002,2,3,3,0,-9.470000000000001,1.97,-0.6,0.08,0.45,0.03
2.408481955528259,2,3,3,0,-9.460000000000001,1.97,-0.54,-0.07000000000000001,0.44,-0.08
2.418481945991516,2,3,3,0,-9.6,2.01,-0.62,-0.03,0.37,-0.17
2.458481907844543,2,3,3,0,-9.6,1.9,-0.59,-0.29,0.53,-0.18
2.4684818983078,2,3,3,0,-9.640000000000001,1.9,-0.62,-0.38,0.67,-0.14
2.478481888771057,2,3,3,0,-9.619999999999999,1.89,-0.58,-0.45,0.6,-0.03
2.488481879234314,2,3,3,0,-9.6,1.87,-0.52,-0.48,0.53,0.07000000000000001
2.498481869697571,2,3,3,0,-9.66,1.92,-0.48,-0.53,0.49,0.1
2.508481860160828,2,3,3,0,-9.640000000000001,1.99,-0.46,-0.53,0.42,0.17
2.518481850624084,2,3,3,0,-9.640000000000001,2,-0.52,-0.49,0.39,0.2
2.528481841087341,2,3,3,0,-9.65,2.03,-0.42,-0.38,0.44,0.24
2.538481831550598,2,3,3,0,-9.619999999999999,2.01,-0.44,-0.32,0.41,0.28
2.548482060432434,2,3,3,0,-9.609999999999999,2.12,-0.43,-0.18,0.39,0.31
2.558482050895691,2,3,3,0,-9.630000000000001,2.02,-0.38,-0.27,0.3,0.3
2.568482041358948,2,3,3,0,-9.52,2.17,-0.57,-0.2,0.1,0.32
2.578482031822205,2,3,3,0,-9.5,2.14,-0.52,-0.17,0,0.38
2.588482022285461,2,3,3,0,-9.5,2.09,-0.5,-0.23,0.02,0.37
2.598482012748718,2,3,3,0,-9.51,2.06,-0.44,-0.39,0.06,0.25
2.608482003211975,2,3,3,0,-9.6,2,-0.42,-0.38,0.06,0.14
2.618481993675232,2,3,3,0,-9.630000000000001,1.99,-0.57,-0.37,-0.11,0.12
2.628481984138489,2,3,3,0,-9.619999999999999,2.04,-0.54,-0.27,-0.16,0.15
2.638481974601746,2,3,3,0,-9.619999999999999,2.03,-0.47,-0.13,-0.25,0.27
2.648481965065002,2,3,3,0,-9.57,2.04,-0.44,0.05,-0.31,0.38
2.658481955528259,2,3,3,0,-9.529999999999999,2.13,-0.45,0.14,-0.32,0.48
2.668481945991516,2,3,3,0,-9.529999999999999,2.21,-0.52,0.27,-0.29,0.54
2.678481936454773,2,3,3,0,-9.5,2.32,-0.47,0.33,-0.2,0.53
2.68848192691803,2,3,3,0,-9.49,2.34,-0.47,0.26,-0.12,0.44
2.698481917381287,2,3,3,0,-9.460000000000001,2.32,-0.47,0.15,0.01,0.32
2.708481907844543,2,3,3,0,-9.43,2.31,-0.45,0.04,0.12,0.22
2.728481888771057,2,3,3,0,-9.460000000000001,2.28,-0.54,-0.26,0.22,0.02
2.738481879234314,2,3,3,0,-9.51,2.3,-0.51,-0.33,0.22,-0.03
2.748481869697571,2,3,3,0,-9.51,2.31,-0.52,-0.39,0.13,-0.01
2.758481860160828,2,3,3,0,-9.57,2.21,-0.57,-0.31,0.07000000000000001,0.04
2.768481850624084,2,3,3,0,-9.57,2.18,-0.59,-0.2,0.21,0.12
2.778481841087341,2,3,3,0,-9.56,2.22,-0.5600000000000001,-0.29,0.24,0.11
2.788481831550598,2,3,3,0,-9.550000000000001,2.16,-0.5,-0.29,0.3,0.15
2.798482060432434,2,3,3,0,-9.529999999999999,2.1,-0.47,-0.32,0.36,0.2
2.808482050895691,2,3,3,0,-9.5,2.09,-0.54,-0.38,0.37,0.22
2.818482041358948,2,3,3,0,-9.52,2.08,-0.62,-0.4,0.36,0.21
2.828482031822205,2,3,3,0,-9.529999999999999,2.08,-0.5600000000000001,-0.48,0.38,0.15
2.838482022285461,2,3,3,0,-9.52,2.1,-0.57,-0.41,0.38,0.09
2.848482012748718,2,3,3,0,-9.539999999999999,2.12,-0.5600000000000001,-0.34,0.33,0.01
2.858482003211975,2,3,3,0,-9.57,2.1,-0.57,-0.33,0.32,-0.04
2.868481993675232,2,3,3,0,-9.640000000000001,2.22,-0.67,-0.32,0.34,-0.14
2.878481984138489,2,3,3,0,-9.6,2.24,-0.65,-0.43,0.28,-0.22
2.888481974601746,2,3,3,0,-9.550000000000001,2.22,-0.64,-0.5,0.13,-0.26
2.898481965065002,2,3,3,0,-9.51,2.1,-0.58,-0.61,0.25,-0.38
2.908481955528259,2,3,3,0,-9.5,1.92,-0.53,-0.61,0.25,-0.38
2.918481945991516,2,3,3,0,-9.539999999999999,1.84,-0.6,-0.6,0.25,-0.38
2.928481936454773,2,3,3,0,-9.529999999999999,1.8,-0.66,-0.53,0.21,-0.39
2.93848192691803,2,3,3,0,-9.58,1.77,-0.66,-0.21,0.09,-0.34
2.948481917381287,2,3,3,0,-9.619999999999999,1.83,-0.61,0.2,-0.22,-0.2
2.958481907844543,2,3,3,0,-9.66,1.86,-0.65,0.2,-0.22,-0.2
2.9684818983078,2,3,3,0,-9.68,1.84,-0.6899999999999999,0.37,-0.28,-0.15
2.978481888771057,2,3,3,0,-9.640000000000001,1.88,-0.62,0.6,-0.4,-0.06
2.988481879234314,2,3,3,0,-9.619999999999999,1.9,-0.63,0.6899999999999999,-0.38,-0.01
2.998481869697571,2,3,3,0,-9.619999999999999,1.95,-0.62,0.78,-0.32,0.06
3.008481860160828,2,3,3,0,-9.609999999999999,1.98,-0.63,0.83,-0.27,0.08
3.018481850624084,2,3,3,0,-9.57,2.1,-0.67,0.98,-0.3,0.1
3.028481841087341,2,3,3,0,-9.550000000000001,2.14,-0.63,0.98,-0.34,0.14
3.038481831550598,2,3,3,0,-9.529999999999999,2.19,-0.54,1,-0.36,0.2
3.049481987953186,2,3,3,0,-9.48,2.17,-0.54,1.03,-0.31,0.24
3.059481978416443,2,3,3,0,-9.42,2.2,-0.61,0.91,-0.22,0.19
3.0694819688797,2,3,3,0,-9.42,2.21,-0.6899999999999999,0.87,-0.1,0.13
3.079481959342957,2,3,3,0,-9.449999999999999,2.23,-0.6,0.86,-0.07000000000000001,0.09
3.089481949806213,2,3,3,0,-9.5,2.21,-0.55,0.78,-0.04,0.06
3.09948194026947,2,3,3,0,-9.49,2.21,-0.54,0.6899999999999999,0.02,0.01
3.109481930732727,2,3,3,0,-9.5,2.17,-0.5600000000000001,0.66,0.11,-0.03
3.119481921195984,2,3,3,0,-9.52,2.14,-0.68,0.66,0.23,-0.04
3.129481911659241,2,3,3,0,-9.529999999999999,2.16,-0.6,0.61,0.27,-0.03
3.139481902122498,2,3,3,0,-9.539999999999999,2.14,-0.6,0.62,0.31,0
3.149481892585754,2,3,3,0,-9.56,2.12,-0.5600000000000001,0.64,0.29,0
3.159481883049011,2,3,3,0,-9.59,2.11,-0.58,0.5,0.31,-0.05
3.169481873512268,2,3,3,0,-9.6,2.02,-0.75,0.32,0.3,-0.07000000000000001
3.179481863975525,2,3,3,0,-9.6,1.95,-0.66,0.37,0.2,-0.08
3.189481854438782,2,3,3,0,-9.619999999999999,1.89,-0.65,0.35,0.15,-0.08
3.199481844902039,2,3,3,0,-9.619999999999999,1.91,-0.61,0.4,0.09,-0.02
3.209481835365295,2,3,3,0,-9.59,1.99,-0.65,0.43,0.08,0.03
3.219481825828552,2,3,3,0,-9.56,2.03,-0.7,0.6,0.07000000000000001,0.13
3.229482054710388,2,3,3,0,-9.51,2.07,-0.66,0.64,0.06,0.2
3.239482045173645,2,3,3,0,-9.48,2.12,-0.66,0.7,0.04,0.23
3.249482035636902,2,3,3,0,-9.529999999999999,2.23,-0.64,0.77,0.03,0.22
3.259482026100159,2,3,3,0,-9.51,2.25,-0.65,0.82,0,0.13
3.269482016563416,2,3,3,0,-9.5,2.35,-0.72,0.64,0.01,0.04
3.329481959342957,2,3,3,0,-9.57,2.32,-0.64,0.57,-0.07000000000000001,-0.16
3.339481949806213,2,3,3,0,-9.550000000000001,2.33,-0.52,0.6,-0.28,-0.17
3.34948194026947,2,3,3,0,-9.630000000000001,2.3,-0.3,0.32,-0.5,-0.28
3.359481930732727,2,3,3,0,-9.380000000000001,2.39,-0.95,0.04,-0.53,-0.37
3.369481921195984,2,3,3,0,-9.470000000000001,2.32,-0.91,0.08,-0.25,-0.27
3.379481911659241,2,3,3,0,-9.550000000000001,2.21,-0.64,0.06,-0.21,-0.06
3.389481902122498,2,3,3,0,-9.59,2.19,-0.59,-0.01,-0.36,0.07000000000000001
3.399481892585754,2,3,3,0,-9.550000000000001,2.23,-0.65,-0.01,-0.58,0.2
3.409481883049011,2,3,3,0,-9.57,2.2,-0.73,0.13,-0.7,0.34
3.419481873512268,2,3,3,0,-9.66,2.29,-0.65,0.14,-0.8100000000000001,0.43
3.429481863975525,2,3,3,0,-9.65,2.4,-0.62,0.16,-1.15,0.5
3.439481854438782,2,3,3,0,-9.609999999999999,2.35,-0.67,0.32,-1.42,0.51
3.449481844902039,2,3,3,0,-9.41,2.41,-0.71,0.27,-1.61,0.52
3.459481835365295,2,3,3,0,-9.220000000000001,2.33,-0.78,0.33,-1.55,0.58
3.469481825828552,2,3,3,0,-9.19,2.28,-0.61,0.34,-1.35,0.54
3.479482054710388,2,3,3,0,-9.27,2.34,-0.44,0.17,-1.46,0.49
3.489482045173645,2,3,3,0,-9.4,2.53,-0.51,0.37,-1.55,0.41
3.499482035636902,2,3,3,0,-9.6,2.53,-0.57,0.82,-1.54,0.45
3.509482026100159,2,3,3,0,-9.77,2.62,-0.5600000000000001,1.15,-1.36,0.71
3.519482016563416,2,3,3,0,-9.73,2.7,-0.57,1.37,-1.12,1.11
3.529482007026672,2,3,3,0,-9.640000000000001,2.89,-0.49,1.47,-1.07,1.61
3.539481997489929,2,3,3,0,-9.49,3.14,-0.46,1.43,-1.18,2.08
3.549481987953186,2,3,3,0,-9.02,3.53,-0.54,1.5,-1.22,2.47
3.5694819688797,2,3,3,0,-8.67,3.8,-0.67,1.72,-0.9399999999999999,2.69
3.579481959342957,2,3,3,0,-8.539999999999999,3.99,-0.6899999999999999,1.8,-0.84,2.66
3.589481949806213,2,3,3,0,-8.1,4.38,-0.58,1.93,-0.6899999999999999,2.67
3.59948194026947,2,3,3,0,-7.73,4.53,-0.54,1.99,-0.47,2.74
3.609481930732727,2,3,3,0,-7.26,4.7,-0.47,1.92,-0.03,2.91
3.619481921195984,2,3,3,0,-6.12,4.72,-0.37,1.78,0.53,3.18
3.629481911659241,2,3,3,0,-5.71,4.68,-0.23,1.39,1.15,3.64
3.639481902122498,2,3,3,0,-5.5,4.21,-0.29,1.01,1.47,4.21
3.649481892585754,2,3,3,0,-4.88,3.72,-0.2,0.54,1.57,4.83
3.689481854438782,2,3,3,0,-3.46,1.75,-0.32,-1.4,-1.56,4.87
3.699481844902039,2,3,3,0,-4.03,0.63,-0.48,-1.18,-1.84,4.77
3.709481835365295,2,3,3,0,-4.05,0.04,-0.03,-1.23,-1.62,4.91
3.719481825828552,2,3,3,0,-4.06,-0.18,0.21,-1.36,-1.78,4.75
3.729482054710388,2,3,3,0,-4.25,-0.04,0.13,-1.37,-2.22,4.36
3.739482045173645,2,3,3,0,-5.12,0.44,-0.25,-1.04,-2.22,3.87
3.749482035636902,2,3,3,0,-5.3,0.95,-0.13,-0.33,-1,4.08
3.759482026100159,2,3,3,0,-5.63,1.35,0.12,0.7,1.55,5.53
3.769482016563416,2,3,3,0,-7.71,1.44,0.08,1.5,4.18,6.22
3.779482007026672,2,3,3,0,-10.05,1.27,0.52,1.7,6.29,5.76
3.789481997489929,2,3,3,0,-11.34,1.29,0.79,2.25,6.28,5.64
3.799481987953186,2,3,3,0,-11.48,1.61,0.64,3.83,4.59,6.43
3.809481978416443,2,3,3,0,-12.11,2.68,-0.54,4.9,2.29,8.529999999999999
3.8194819688797,2,3,3,0,-11.52,3.27,-1.18,3.89,-0.15,10.48
3.829481959342957,2,3,3,0,-11.02,3.37,-1.7,1.84,-1.09,11.07
3.839481949806213,2,3,3,0,-11.11,2.7,-1.78,0.01,-1.01,10.5
3.84948194026947,2,3,3,0,-12.76,2.23,-1.14,-1.53,-0.09,9.789999999999999
3.859481930732727,2,3,3,0,-12.76,2.23,-1.14,-2.72,0.96,9.390000000000001
3.869481921195984,2,3,3,0,-14.19,1.63,-0.24,-3,0.51,5.7
3.879481911659241,2,3,3,0,-14.44,1.96,-0.2,-1.1,-0.58,4.53
3.889481902122498,2,3,3,0,-14.89,2.85,0.55,0.62,-2.42,3
3.899481892585754,2,3,3,0,-14.89,2.85,0.55,2.16,-4.33,0.62
3.909481883049011,2,3,3,0,-14.65,3.03,-0.1,2.86,-4.18,0.43
3.919481873512268,2,3,3,0,-14.22,3.2,-0.79,1.57,-2.41,-0.08
3.929481863975525,2,3,3,0,-14.33,3.46,-0.59,0.5,-1.87,-0.2
3.939481854438782,2,3,3,0,-14.83,3.93,-0.18,-0.18,-1.61,-1.21
3.949481844902039,2,3,3,0,-14.83,3.93,-0.18,-0.22,-2.32,-2.82
3.959481835365295,2,3,3,0,-15.97,4.38,0.05,-0.08,-3.65,-4.01
3.969481825828552,2,3,3,0,-19.38,5.17,-0.07000000000000001,-0.09,-3.76,-4.14
3.979482054710388,2,3,3,0,-20.48,5.42,0.45,-0.38,-3.39,-3.84
3.989482045173645,2,3,3,0,-21.16,5.59,1.06,-1.5,-2.64,-3.84
3.999482035636902,2,3,3,0,-21.16,5.59,1.06,-1.5,-2.64,-3.84
4.009482026100159,2,3,3,0,-23.44,4.77,0.79,-3.45,-2.11,-4.84
4.019482016563416,2,3,3,0,-25.45,3.25,-0.1,-4.83,-4.7,-9.6
4.029482007026672,2,3,3,0,-26.85,2.85,-0.09,-4.56,-4.52,-11.88
4.039481997489929,2,3,3,0,-29.89,1.71,0.07000000000000001,-4.4,-3.23,-13.55
4.049481987953186,2,3,3,0,-29.89,1.71,0.07000000000000001,-4.4,-3.23,-13.55
4.059481978416443,2,3,3,0,-31.13,1.33,0.33,-3.61,-1.57,-13.77
4.070481896400452,2,3,3,0,-31.57,1.16,0.27,-0.46,3.02,-10.08
4.080481886863708,2,3,3,0,-31.21,1.42,-0.05,1.51,5.8,-7.11
4.090481877326965,2,3,3,0,-27.21,4.35,0.18,2.52,7.29,-3.91
4.100481867790222,2,3,3,0,-23.99,6.19,-0.17,2.52,7.29,-3.91
4.110481858253479,2,3,3,0,-21.6,7.79,0.23,3.99,8.390000000000001,-0.74
4.120481848716736,2,3,3,0,-15.33,8.130000000000001,0.07000000000000001,7.9,7.26,20.05
4.130481839179993,2,3,3,0,-10.22,11.62,-0.66,10.4,6.94,25.09
4.14048182964325,2,3,3,0,-7.65,10.61,-1.5,12.83,6.6,21.47
4.150482058525085,2,3,3,0,-6.4,8.66,-2.06,12.83,6.6,21.47
4.160482048988342,2,3,3,0,1.07,5.69,0.33,13.34,6.66,14.41
4.170482039451599,2,3,3,0,4.46,5.97,-0.15,10.37,2.45,8.880000000000001
4.180482029914856,2,3,3,0,7.54,5.91,-0.84,11.47,-0.74,7.76
4.190482020378113,2,3,3,0,10.08,6.5,-1.44,10.04,-1.61,5.91
4.20048201084137,2,3,3,0,10.29,5.19,-2.43,10.04,-1.61,5.91
4.210482001304626,2,3,3,0,8.57,3.59,-1.69,10.12,-0.01,3.09
4.220481991767883,2,3,3,0,5.19,2.83,-0.87,10.7,-1.54,-3.79
4.23048198223114,2,3,3,0,0.65,3.19,-1.16,12.13,-2.1,-8.35
4.240481972694397,2,3,3,0,-0.36,3.26,-0.7,10.48,-1.25,-11.76
4.250481963157654,2,3,3,0,-0.9,3.36,-0.43,10.48,-1.25,-11.76
4.260481953620911,2,3,3,0,-1.65,3.31,-0.43,7.11,-0.46,-12.95
4.270481944084167,2,3,3,0,-2.23,2.19,-0.37,-2.09,1.18,-9.970000000000001
4.280481934547424,2,3,3,0,-2.27,1.11,-0.35,-5.53,2.11,-6.45
4.290481925010681,2,3,3,0,-1.99,-0.36,-0.25,-6.84,3.26,-3.2
4.300481915473938,2,3,3,0,-1.18,-1.22,-0.03,-6.84,3.26,-3.2
4.310481905937195,2,3,3,0,-0.11,-2.05,0.06,-6.73,3.99,-1.28
4.320481896400452,2,3,3,0,0.32,-2.24,0.12,-4.21,2.99,0.92
4.330481886863708,2,3,3,0,0.5600000000000001,-2.19,-0.06,-1.8,1.58,1.74
4.340481877326965,2,3,3,0,0.86,-1.88,-0.32,0.52,0.34,2.46
4.350481867790222,2,3,3,0,0.91,-0.39,-0.43,0.52,0.34,2.46
4.360481858253479,2,3,3,0,0.89,0.45,-0.41,2.16,-0.86,3.12
4.370481848716736,2,3,3,0,1,0.86,-0.45,2.2,-1.56,2.63
4.380481839179993,2,3,3,0,0.78,1.24,-0.31,1.26,-1.3,1.65
4.39048182964325,2,3,3,0,0.41,1.28,-0.25,0.39,-0.84,0.73
4.400482058525085,2,3,3,0,0.44,1.01,-0.21,0.39,-0.84,0.73
4.410482048988342,2,3,3,0,0.36,0.41,0,-0.07000000000000001,0.04,0.21
4.420482039451599,2,3,3,0,0.27,-0.68,-0.21,-1.2,1.18,-0.46
4.430482029914856,2,3,3,0,0.19,-1.03,-0.28,-0.97,1.35,-0.64
4.440482020378113,2,3,3,0,0.05,-1.33,-0.15,-0.54,1.03,-0.76
4.45048201084137,2,3,3,0,0.01,-1.38,-0.15,-0.54,1.03,-0.76
4.460482001304626,2,3,3,0,-0.13,-1.01,-0.45,0.26,0.29,-0.9
4.470481991767883,2,3,3,0,-0.37,-0.68,-0.53,1.72,-0.85,-1.27
4.48048198223114,2,3,3,0,-0.59,-0.24,-0.49,1.54,-1.46,-1.53
4.490481972694397,2,3,3,0,-0.6,0.31,-0.51,0.98,-1.73,-1.76
4.500481963157654,2,3,3,0,-0.64,1.3,-0.44,0.98,-1.73,-1.76
4.510481953620911,2,3,3,0,-0.73,1.87,-0.38,-0.16,-1.96,-1.98
4.520481944084167,2,3,3,0,-0.77,2.33,-0.37,-2.19,-3.42,-2.15
4.530481934547424,2,3,3,0,-0.93,2.52,-0.3,-2.63,-4.06,-2.44
4.540481925010681,2,3,3,0,-0.83,2.4,-0.17,-2.63,-4.06,-2.44
4.550481915473938,2,3,3,0,-0.67,2.12,-0.19,-2.56,-4.1,-3.05
4.560481905937195,2,3,3,0,-1.02,3.45,-1.85,-2.25,-4.51,-4.03
4.570481896400452,2,3,3,0,-4.75,8.220000000000001,-3.04,-3.04,-10.46,-6.51
4.580481886863708,2,3,3,0,-12.37,7.31,2.1,-0.19,-15.1,-9.73
4.590481877326965,2,3,3,0,-17.66,11.39,1.42,-4.88,-16.86,-15.03
4.600481867790222,2,3,3,0,-27.59,12.55,-1.07,-6.21,-17.6,-18.91
4.610481858253479,2,3,3,0,-35.87,7.41,0.75,-11.65,-8.59,-20.46
4.620481848716736,2,3,3,0,-39.23,13.79,-8.529999999999999,-9.890000000000001,0.11,-12.69
4.630481839179993,2,3,3,0,-39.24,11.91,-3.23,-1.09,-3.88,2.17
4.64048182964325,2,3,3,0,-32.7,10.04,-0.36,1.4,2.57,7.35
4.650482058525085,2,3,3,0,-21.47,-12.15,6.88,-6.79,3.98,-1.8
4.660482048988342,2,3,3,0,-16.14,-14.34,4.84,-0.96,-2.15,-16.82
4.670482039451599,2,3,3,0,-20.54,-9.48,1.84,18.07,-6.18,-23.66
4.680482029914856,2,3,3,0,-23.21,-4.37,0.8100000000000001,25.51,-7.88,-15.38
4.690482020378113,2,3,3,0,-18.1,4.59,-0.7,23.64,-7.65,-5.33
4.70048201084137,2,3,3,0,-16.94,7.2,-1.22,17.37,-3.7,2.3
4.710482001304626,2,3,3,0,-17.85,7.87,-2.34,11.53,-0.2,5.89
4.720481991767883,2,3,3,0,-18.27,6.02,-1.87,5.76,0.54,7.46
4.73048198223114,2,3,3,0,-18.34,5.39,-2.39,0.21,0.45,8.050000000000001
4.740481972694397,2,3,3,0,-17.84,3.97,-2.15,-2.98,1.36,8.09
4.750481963157654,2,3,3,0,-16.51,2.79,-0.92,-3.94,1.33,8.119999999999999
4.760481953620911,2,3,3,0,-12.27,0.33,-0.38,-2.77,2.03,8.220000000000001
4.770481944084167,2,3,3,0,-9.300000000000001,0.11,0,0.7,2.85,7.21
4.780481934547424,2,3,3,0,-7.06,1.24,-0.36,3.46,2.11,7.96
4.790481925010681,2,3,3,0,-4.86,2.25,-0.37,6.29,1.13,8.23
4.800481915473938,2,3,3,0,-4.42,4.67,-0.68,7.59,0.46,7.79
4.810481905937195,2,3,3,0,-4.97,5.61,-1.08,6.81,0.13,7.33
4.820481896400452,2,3,3,0,-4.53,5.79,-1.34,5.1,0.23,6.3
4.830481886863708,2,3,3,0,-4.36,5.45,-1.21,2.41,1.23,5.29
4.840481877326965,2,3,3,0,-5.64,4.38,-1.04,-1,2.88,4.51
4.850481867790222,2,3,3,0,-5.69,3.67,-0.87,-3.43,3.82,3.36
4.860481858253479,2,3,3,0,-5.92,3.29,-0.64,-5.02,3.96,2.3
4.870481848716736,0,3,3,0,-7.24,2.62,-0.68,-6.14,3.67,1.72
4.880481839179993,0,3,3,0,-7.59,2.57,-0.79,-6.31,3.03,1.3
4.89048182964325,0,3,3,0,-7.75,2.38,-0.9,-5.9,2.29,1.18
4.900482058525085,0,3,3,0,-7.77,2.06,-0.86,-5.28,1.84,1.23
4.910482048988342,0,3,3,0,-7.69,2.01,-1.09,-4.71,1.61,1.32
4.920482039451599,0,3,3,0,-7.69,2.02,-1.02,-4.33,1.43,1.34
4.930482029914856,0,3,3,0,-7.6,2.12,-1.21,-4.36,1.01,0.97
4.940482020378113,0,3,3,0,-7.66,2.33,-1.22,-4.52,0.64,0.62
4.95048201084137,0,3,3,0,-8.029999999999999,2.95,-1.21,-4.79,0.58,0.15
4.960482001304626,0,3,3,0,-7.52,2.62,-1.15,-5.1,0.57,-0.5
4.970481991767883,2,3,3,0,-8.050000000000001,2.44,-1.18,-5.4,0.73,-1.06
4.98048198223114,2,3,3,0,-8.58,2.2,-1.19,-5.63,0.98,-1.33
4.990481972694397,2,3,3,0,-9.69,1.94,-1.12,-5.18,0.88,-1.58
5.000481963157654,2,3,3,0,-10.1,1.95,-0.98,-4.48,0.5,-1.59
5.010481953620911,2,3,3,0,-10.35,2.03,-0.77,-3.62,-0.08,-1.53
5.020481944084167,2,3,3,0,-10.35,2.18,-0.66,-2.8,-0.68,-1.34
5.030481934547424,2,3,3,0,-10.02,2.23,-0.84,-2.28,-1.12,-1.27
5.040481925010681,2,3,3,0,-9.720000000000001,2.24,-0.76,-2.08,-1.33,-1.41
5.050481915473938,2,3,3,0,-9.34,2.21,-0.75,-2.08,-1.35,-1.62
5.060481905937195,2,3,3,0,-9.16,2.34,-0.68,-2.34,-0.89,-1.71
5.070481896400452,2,3,3,0,-9.19,2.19,-0.58,-2.56,-0.25,-1.78
5.080481886863708,2,3,3,0,-9.279999999999999,2.08,-0.66,-2.64,0.31,-1.78
5.091482043266296,2,3,3,0,-9.470000000000001,1.98,-0.67,-2.7,0.76,-1.61
5.101482033729553,2,3,3,0,-9.74,1.67,-0.54,-2.51,1.09,-1.43
5.11148202419281,2,3,3,0,-9.83,1.58,-0.52,-2.21,1.19,-1.34
5.121482014656067,2,3,3,0,-9.859999999999999,1.5,-0.45,-1.64,1.33,-1.29
5.131482005119324,2,3,3,0,-9.880000000000001,1.63,-0.47,-1.14,1.54,-1.25
5.141481995582581,2,3,3,0,-9.949999999999999,2.08,-0.29,-0.73,1.31,-1.14
5.151481986045837,2,3,3,0,-9.83,2.33,-0.2,-0.39,0.67,-0.95
5.161481976509094,2,3,3,0,-9.470000000000001,2.66,-0.19,-0.38,0.02,-0.7
5.171481966972351,2,3,3,0,-9.02,2.91,-0.13,-0.54,-0.28,-0.23
5.181481957435608,2,3,3,0,-8.359999999999999,3.19,-0.33,-0.65,-0.21,0.25
5.191481947898865,2,3,3,0,-8.31,3.13,-0.34,-0.82,0.25,0.66
5.201481938362122,2,3,3,0,-8.52,2.84,-0.33,-1.09,0.97,0.87
5.211481928825378,2,3,3,0,-9.07,2.28,-0.38,-1,1.41,0.68
5.221481919288635,2,3,3,0,-9.27,2.09,-0.49,-0.72,1.59,0.27
5.231481909751892,2,3,3,0,-9.380000000000001,1.99,-0.6,-0.55,1.56,-0.21
5.241481900215149,2,3,3,0,-9.52,2.02,-0.65,-0.35,1.43,-0.61
5.251481890678406,2,3,3,0,-10.08,2.12,-0.6,0.02,1.2,-0.9
5.261481881141663,2,3,3,0,-10.29,2.26,-0.46,0.32,1,-1.06
5.271481871604919,2,3,3,0,-10.18,2.39,-0.48,0.29,0.62,-1.02
5.281481862068176,2,3,3,0,-10.07,2.47,-0.67,0.22,0.13,-0.75
5.291481852531433,2,3,3,0,-10.02,2.43,-0.61,0.21,-0.08,-0.36
5.30148184299469,2,3,3,0,-9.960000000000001,2.39,-0.58,0.21,-0.28,0.01
5.311481833457947,2,3,3,0,-9.83,2.44,-0.53,0.26,-0.5,0.29
5.321481823921204,2,3,3,0,-9.630000000000001,2.55,-0.5,0.34,-0.57,0.6
5.33148205280304,2,3,3,0,-9.369999999999999,2.84,-0.53,0.3,-0.38,0.9399999999999999
5.341482043266296,2,3,3,0,-9.279999999999999,2.93,-0.55,0.14,-0.2,1.2
5.351482033729553,2,3,3,0,-9.289999999999999,2.97,-0.43,0.03,0.03,1.44
5.36148202419281,2,3,3,0,-9.35,3.04,-0.29,-0.2,0.43,1.62
5.371482014656067,2,3,3,0,-9.26,3.01,-0.27,-0.5600000000000001,0.73,1.8
5.381482005119324,2,3,3,0,-9.210000000000001,2.96,-0.32,-0.83,0.9,2.03
5.391481995582581,2,3,3,0,-9.1,2.97,-0.35,-1.07,0.98,2.11
5.401481986045837,2,3,3,0,-8.970000000000001,2.8,-0.37,-1.07,1.01,2.11
5.411481976509094,2,3,3,0,-9.01,2.79,-0.42,-0.91,1.16,1.95
5.421481966972351,2,3,3,0,-9,2.85,-0.35,-0.99,1.24,1.62
5.431481957435608,2,3,3,0,-9.01,2.85,-0.43,-1.1,1.1,1.24
5.441481947898865,2,3,3,0,-9.09,2.83,-0.57,-1.17,0.74,0.9
5.451481938362122,2,3,3,0,-9.15,2.86,-0.51,-0.96,0.55,0.66
5.461481928825378,2,3,3,0,-9.279999999999999,2.97,-0.46,-0.74,0.73,0.5
5.471481919288635,2,3,3,0,-9.23,2.95,-0.41,-0.68,0.73,0.31
5.481481909751892,2,3,3,0,-9.24,3.03,-0.6899999999999999,-0.64,0.57,0.18
5.491481900215149,2,3,3,0,-9.31,3.12,-0.67,-0.72,0.44,0.33
5.501481890678406,2,3,3,0,-9.5,2.96,-0.6,-0.75,0.43,0.42
5.511481881141663,2,3,3,0,-9.470000000000001,2.91,-0.55,-0.64,0.24,0.41
5.521481871604919,2,3,3,0,-9.41,2.93,-0.53,-0.5600000000000001,0.04,0.42
5.531481862068176,2,3,3,0,-9.25,2.95,-0.51,-0.37,-0.06,0.42
5.541481852531433,2,3,3,0,-9.25,3,-0.44,-0.22,-0.1,0.32
5.55148184299469,2,3,3,0,-9.18,2.98,-0.34,-0.16,-0.17,0.31
5.561481833457947,2,3,3,0,-9.15,2.94,-0.47,0.03,-0.27,0.34
5.571481823921204,2,3,3,0,-9.15,3.1,-0.55,-0.09,-0.12,0.46
5.58148205280304,2,3,3,0,-9.140000000000001,3.22,-0.54,-0.47,0.14,0.64
5.591482043266296,2,3,3,0,-9.199999999999999,3.21,-0.53,-0.58,0.11,0.83
5.601482033729553,2,3,3,0,-9.27,3.18,-0.45,-0.59,0.17,0.85
5.61148202419281,2,3,3,0,-9.279999999999999,3.23,-0.39,-0.8,0.18,0.74
5.621482014656067,2,3,3,0,-9.18,3.27,-0.51,-0.99,-0.02,0.61
5.631482005119324,2,3,3,0,-9.07,3.08,-0.68,-1.06,-0.16,0.55
5.641481995582581,2,3,3,0,-8.98,3.09,-0.57,-1.07,-0.17,0.57
5.651481986045837,2,3,3,0,-8.970000000000001,3.11,-0.62,-1.28,-0.1,0.55
5.661481976509094,2,3,3,0,-9.109999999999999,3.1,-0.64,-0.93,-0.01,0.43
5.671481966972351,2,3,3,0,-9.199999999999999,3.19,-0.75,-0.93,-0.01,0.43
5.701481938362122,2,3,3,0,-9.25,3.3,-0.4,-0.36,-0.5600000000000001,0.62
5.711481928825378,2,3,3,0,-9.17,3.22,-0.39,-0.66,-0.98,0.65
5.721481919288635,2,3,3,0,-9.050000000000001,3.28,-0.49,-0.86,-1.38,0.67
5.731481909751892,2,3,3,0,-8.91,3.44,-0.76,-0.87,-1.7,0.67
5.741481900215149,2,3,3,0,-8.9,3.88,-0.97,-0.8,-1.78,0.55
5.751481890678406,2,3,3,0,-8.93,4.22,-0.92,-0.84,-1.96,0.39
5.761481881141663,2,3,3,0,-8.880000000000001,4.54,-0.91,-0.84,-2.05,0.16
5.771481871604919,2,3,3,0,-8.699999999999999,4.82,-0.85,-0.71,-1.99,-0.07000000000000001
5.781481862068176,2,3,3,0,-8.039999999999999,5.19,-0.76,-0.63,-1.83,-0.18
5.791481852531433,2,3,3,0,-7.59,5.36,-0.61,-0.7,-1.69,-0.04
5.851482033729553,2,3,3,0,-3.99,2.38,-0.42,-2.81,2.31,0.68
5.86148202419281,2,3,3,0,-4.13,2.02,-0.23,-2.45,1.54,-0.82
5.871482014656067,2,3,3,0,-4.49,1.87,-0.24,-1.91,0.53,-2.44
5.881482005119324,2,3,3,0,-5.22,1.97,-0.26,-1.81,-0.47,-4.25
5.891481995582581,2,3,3,0,-6.34,2.39,0.07000000000000001,-2.28,-1.35,-5.84
5.901481986045837,2,3,3,0,-7,2.68,-0.06,-2.99,-1.43,-6.51
5.911481976509094,2,3,3,0,-7.31,2.61,-0.2,-3.22,-1.66,-5.99
5.921481966972351,2,3,3,0,-7.4,2.62,-0.39,-2.84,-1.98,-4.53
5.931481957435608,2,3,3,0,-7.4,2.46,-0.57,-2.25,-2.02,-2.52
5.941481947898865,2,3,3,0,-7.45,2.19,-0.78,-1.98,-0.78,-0.58
5.951481938362122,2,3,3,0,-7.21,1.82,-0.5600000000000001,-1.92,1.24,1.22
5.961481928825378,2,3,3,0,-6.71,0.6899999999999999,0.24,-0.72,3.51,3.71
5.971481919288635,2,3,3,0,-7.56,0.73,0.88,0.6899999999999999,5.28,6.35
5.981481909751892,2,3,3,0,-8.460000000000001,1.3,0.63,0.9,4.54,7.07
5.991481900215149,2,3,3,0,-9.32,1.96,0.29,1.28,2.02,6.61
6.001481890678406,2,3,3,0,-9.82,3.27,0.49,2.45,0.63,6.75
6.011481881141663,2,3,3,0,-10.52,4.17,0.33,3.51,0.13,7.44
6.021481871604919,2,3,3,0,-10.19,4.34,0.23,4.25,-0.86,8.08
6.031481862068176,2,3,3,0,-9.789999999999999,4.3,-0.33,3.44,-0.8,7.82
6.041481852531433,2,3,3,0,-9.32,3.6,-0.61,1.33,0.44,6.87
6.05148184299469,2,3,3,0,-9.08,2.85,-0.34,0.45,2.66,5.93
6.061481833457947,2,3,3,0,-9.32,2,-0.43,0.41,3.67,5.54
6.071481823921204,2,3,3,0,-10.2,1.47,-0.44,-0.31,3.72,4.74
6.08148205280304,2,3,3,0,-11.58,2.67,-0.74,-1.13,2.99,3.85
6.091482043266296,2,3,3,0,-11.76,2.89,-0.52,-0.32,1.94,3.49
6.101482033729553,2,3,3,0,-11.61,3.07,-0.44,1.03,0.97,3.26
6.11148202419281,2,3,3,0,-12.26,3.28,-0.72,0.9,0.15,2.94
6.122481942176819,2,3,3,0,-12.55,3.25,-0.58,0.13,0.75,2.72
6.132481932640076,2,3,3,0,-12.36,3.18,-0.79,0,1.17,2.29
6.142481923103333,2,3,3,0,-11.62,2.7,-0.79,-0.03,2.18,1.77
6.152481913566589,2,3,3,0,-11.34,2.87,-0.85,-0.59,2.61,1.08
6.162481904029846,2,3,3,0,-11.92,3.27,-0.7,-1.02,2.04,0.45
6.172481894493103,2,3,3,0,-12.62,3.39,-0.67,-1.01,1.25,1
6.18248188495636,2,3,3,0,-12.55,3.45,-1.13,-1.25,-0.03,0.93
6.192481875419617,2,3,3,0,-13.33,2.7,-0.89,-1.44,-0.35,0.95
6.202481865882874,2,3,3,0,-13.29,2.68,-0.87,-1.34,-0.55,1.1
6.21248185634613,2,3,3,0,-13.69,2.69,-0.85,-1.25,-0.57,0.75
6.222481846809387,2,3,3,0,-13.97,2.65,-0.93,-1.02,-0.57,-0.33
6.232481837272644,2,3,3,0,-14.11,2.94,-0.72,-0.7,-0.6,-1.08
6.242481827735901,2,3,3,0,-14.17,3.11,-0.58,-0.68,-0.6,-1.43
6.252482056617737,2,3,3,0,-14.53,3.41,-0.28,-0.36,-1.25,-1.48
6.262482047080994,2,3,3,0,-14.91,3.81,-0.22,0.08,-1.74,-1.02
6.27248203754425,2,3,3,0,-16.22,4.58,-0.11,0.18,-1.99,-0.92
6.282482028007507,2,3,3,0,-17.02,4.68,-0.26,0.15,-2.93,-1.29
6.292482018470764,2,3,3,0,-17.59,4.99,-0.39,0.49,-4.3,-1.39
6.302482008934021,2,3,3,0,-19.19,5.25,-0.19,0.66,-4.03,-1.43
6.312481999397278,2,3,3,0,-20.02,5.06,0.17,0.19,-3.6,-1.81
6.322481989860535,2,3,3,0,-20.37,4.74,0.38,-0.43,-4.12,-2.66
6.332481980323792,2,3,3,0,-20.76,3.91,0.48,-1.26,-3.71,-4.3
6.342481970787048,2,3,3,0,-21.68,2.93,0.86,-1.56,-3.54,-6.19
6.352481961250305,2,3,3,0,-22.59,3.07,0.05,-1.48,-4.4,-7.94
6.362481951713562,2,3,3,0,-24.37,3.37,-0.31,-1.1,-5.15,-10
6.372481942176819,2,3,3,0,-26.26,3.21,-0.63,-1,-5.56,-11.66
6.382481932640076,2,3,3,0,-29,1.89,-1.09,-0.9399999999999999,-3.75,-12.15
6.392481923103333,2,3,3,0,-29.27,1.53,-0.97,-0.55,0.14,-10.57
6.402481913566589,2,3,3,0,-28.4,2.14,-0.72,0.55,3.63,-6.78
6.412481904029846,2,3,3,0,-28.4,2.14,-0.72,2.82,5.11,-2.37
6.422481894493103,2,3,3,0,-26.12,3.53,-0.8,5.29,5.04,2.16
6.43248188495636,2,3,3,0,-14.69,7.97,-0.58,7.13,4.05,8.17
6.442481875419617,2,3,3,0,-14.04,10.05,-1.78,8.039999999999999,4.29,13.39
6.452481865882874,2,3,3,0,-8.529999999999999,7.89,-1.88,10.04,6.05,15.07
6.46248185634613,2,3,3,0,-8.529999999999999,7.89,-1.88,11.27,8.289999999999999,16.47
6.472481846809387,2,3,3,0,-5.03,6.03,-0.45,12.52,8.09,22.48
6.482481837272644,2,3,3,0,5.53,8.369999999999999,0,10.67,4.85,20.58
6.492481827735901,2,3,3,0,9.35,8.119999999999999,-1.28,8.68,1.26,15.25
6.502482056617737,2,3,3,0,10.3,8.109999999999999,-2.25,8.470000000000001,-1.91,12.78
6.512482047080994,2,3,3,0,10.3,8.109999999999999,-2.25,8.470000000000001,-1.91,12.78
6.52248203754425,2,3,3,0,11.07,6.93,-2.52,7.26,-2.52,8.4
6.532482028007507,2,3,3,0,1.57,4.99,-0.12,2.56,4.04,-2.06
6.542482018470764,2,3,3,0,0.9,4.01,0.54,3.14,1.38,-8.51
6.552482008934021,2,3,3,0,0.9,4.01,0.54,2.14,0.2,-12.47
6.562481999397278,2,3,3,0,0.05,3.19,0.78,2.14,0.2,-12.47
6.572481989860535,2,3,3,0,-0.87,2.09,0.5,1.42,-0.17,-14.28
6.582481980323792,2,3,3,0,-2.2,-0.25,0,0.6,0.88,-13.14
6.592481970787048,2,3,3,0,-2.72,-1.21,-0.48,-0.12,0.49,-9.58
6.602481961250305,2,3,3,0,-2.17,-2.15,-0.3,-0.7,0.7,-4.81
6.612481951713562,2,3,3,0,-1.22,-1.34,-0.33,-0.7,0.7,-4.81
6.622481942176819,2,3,3,0,-0.79,-1.07,-0.53,-0.8100000000000001,0.9399999999999999,-0.99
6.632481932640076,2,3,3,0,-0.53,-0.6899999999999999,-0.45,-0.01,1,2.79
6.642481923103333,2,3,3,0,-0.03,-0.12,-0.45,0.31,0.75,3.62
6.652481913566589,2,3,3,0,0.9,1,-0.39,0.28,0.5600000000000001,3.96
6.662481904029846,2,3,3,0,1.35,1.26,-0.39,0.28,0.5600000000000001,3.96
6.672481894493103,2,3,3,0,1.51,1.13,-0.24,0.15,0.87,3.75
6.68248188495636,2,3,3,0,1.5,0.73,-0.22,-0.31,1.61,2.59
6.692481875419617,2,3,3,0,0.6,-0.02,-0.26,-0.48,2.04,1.79
6.702481865882874,2,3,3,0,0.12,-0.14,-0.19,-0.38,1.94,0.72
6.71248185634613,2,3,3,0,0.02,-0.23,-0.17,-0.38,1.94,0.72
6.722481846809387,2,3,3,0,-0.04,-0.43,-0.17,0.02,1.32,0.04
6.732481837272644,2,3,3,0,-0.06,-0.48,0.06,1.14,-0.29,-0.17
6.742481827735901,2,3,3,0,0.09,-0.26,-0.16,1.38,-0.74,-0.28
6.752482056617737,2,3,3,0,0.4,-0.1,-0.3,1.14,-0.37,-0.48
6.762482047080994,2,3,3,0,0.28,0.22,-0.4,1.14,-0.37,-0.48
6.77248203754425,2,3,3,0,-0.01,0,-0.45,0.85,-0.03,-0.75
6.782482028007507,2,3,3,0,-0.18,-0.22,-0.42,1.22,0.04,-0.74
6.792482018470764,2,3,3,0,-0.44,-0.29,-0.39,1.47,-0.34,-0.46
6.802482008934021,2,3,3,0,-0.65,-0.31,-0.29,1.53,-0.34,-0.2
6.812481999397278,2,3,3,0,-0.72,-0.14,-0.19,1.53,-0.34,-0.2
6.822481989860535,2,3,3,0,-0.6,0.1,-0.26,1.45,-0.25,-0.01
6.832481980323792,2,3,3,0,-0.35,0.37,-0.43,1.66,-0.23,0.53
6.842481970787048,2,3,3,0,-0.1,0.74,-0.53,1.31,-0.62,0.71
6.852481961250305,2,3,3,0,-0.19,1.06,-0.38,0.5600000000000001,-1.7,0.8100000000000001
6.862481951713562,2,3,3,0,-0.3,1.46,-0.43,0.5600000000000001,-1.7,0.8100000000000001
6.872481942176819,2,3,3,0,-0.45,2.37,-0.16,-0.44,-3.81,0.68
6.882481932640076,2,3,3,0,-0.03,4.59,-1.35,-0.97,-11.45,-0.9
6.892481923103333,2,3,3,0,-1,8.43,-4.76,-2.16,-15.83,-4.76
6.902481913566589,2,3,3,0,-1.66,11.18,-5.02,-2.56,-9.380000000000001,-9.19
6.912481904029846,2,3,3,0,-15.68,14.59,2.95,-2.56,-9.380000000000001,-9.19
6.922481894493103,2,3,3,0,-20.94,15.53,-1.84,-10.33,-17.23,-16.52
6.93248188495636,2,3,3,0,-33.24,12.02,-1.06,-12.33,-7.28,-24.84
6.942481875419617,2,3,3,0,-34.57,6.68,-1.3,-7.77,-1.88,-13.67
6.952481865882874,2,3,3,0,-39.24,16.89,-8.449999999999999,-0.41,-0.5,3.42
6.96248185634613,2,3,3,0,-36.52,12.3,-0.47,-0.41,-0.5,3.42
6.972481846809387,2,3,3,0,-27.5,0.47,1.45,-1.55,1.59,3.22
6.982481837272644,2,3,3,0,-23.65,7.77,-0.9399999999999999,-7.03,-2.58,-20.8
6.992481827735901,2,3,3,0,-15.14,-12.79,4.8,7.91,-4.38,-25.78
7.002482056617737,2,3,3,0,-20.08,-8.220000000000001,1.41,12.67,-4.1,-15.23
7.012482047080994,2,3,3,0,-22.77,-4.19,-0.13,12.67,-4.1,-15.23
7.02248203754425,2,3,3,0,-22.21,-0.08,-0.13,10.48,-2.41,-5
7.032482028007507,2,3,3,0,-18.73,4.65,-0.88,0.84,3.11,6.08
7.042482018470764,2,3,3,0,-18.78,4.63,-1.41,0.84,3.11,6.08
7.052482008934021,2,3,3,0,-19.15,4.45,-1.28,-3.33,2.8,7.03
7.062481999397278,2,3,3,0,-17.37,3.46,-1.41,-3.33,2.8,7.03
7.072481989860535,2,3,3,0,-16.8,4.02,-1.23,-2.62,2.59,7.9
7.082481980323792,2,3,3,0,-16.26,3.8,-0.87,-1.89,3.89,9.15
7.092481970787048,2,3,3,0,-13.93,2.43,-0.7,-0.07000000000000001,4.68,9.109999999999999
7.102481961250305,2,3,3,0,-9.52,1.04,0.13,2.59,4.5,9.67
7.112481951713562,2,3,3,0,-7.38,1.13,0.4,5.07,3.56,9.609999999999999
7.122481942176819,2,3,3,0,-6.09,1.74,0.53,7.26,2.57,8.539999999999999
7.132481932640076,2,3,3,0,-4.89,2.45,0.5,8.140000000000001,1.83,7.19
7.143481850624084,2,3,3,0,-4.85,3.78,0.22,7.55,1.03,5.86
7.153481841087341,2,3,3,0,-4.81,4.25,0.15,6.13,0.6,4.1
7.163481831550598,2,3,3,0,-4.76,4.38,-0.04,4.08,0.36,2.65
7.173482060432434,2,3,3,0,-4.79,4.34,-0.29,2.1,0.59,1.73
7.183482050895691,2,3,3,0,-5.24,3.89,-0.65,0.25,1.05,1.13
7.193482041358948,2,3,3,0,-5.55,3.74,-0.76,-1.09,1.13,0.75
7.203482031822205,2,3,3,0,-5.85,3.42,-0.93,-2.29,1.61,0.72
7.213482022285461,2,3,3,0,-6.19,3.09,-0.85,-3.16,1.76,0.89
7.223482012748718,2,3,3,0,-6.26,2.57,-0.85,-3.61,1.69,1.15
7.233482003211975,2,3,3,0,-5.99,2.23,-0.66,-3.33,1.46,1.19
7.243481993675232,2,3,3,0,-5.97,2.17,-0.5600000000000001,-2.65,1.32,0.97
7.253481984138489,2,3,3,0,-5.92,2.7,-0.21,-2.44,1.35,0.62
7.263481974601746,2,3,3,0,-6,3.16,0.12,-2.3,1.38,0.35
7.273481965065002,2,3,3,0,-6.12,3.59,0.34,-2.29,1.4,0.01
7.283481955528259,2,3,3,0,-6.19,4.11,0.26,-2.78,1.33,-0.41
7.293481945991516,2,3,3,0,-7.02,4.72,0.04,-3.3,1.88,-0.98
7.303481936454773,2,3,3,0,-7.61,4.78,-0.07000000000000001,-3.93,2.79,-1.53
7.31348192691803,2,3,3,0,-8.279999999999999,4.5,-0.2,-4.55,3.02,-2.04
7.323481917381287,2,3,3,0,-8.970000000000001,4.32,-0.42,-4.92,2.66,-2.39
7.333481907844543,2,3,3,0,-10.63,3.84,-1.14,-4.98,1.94,-2.55
7.3434818983078,2,3,3,0,-11.36,3.36,-1.47,-4.42,1.19,-2.81
7.353481888771057,2,3,3,0,-11.74,3.02,-1.49,-3.99,0.88,-3.04
7.363481879234314,2,3,3,0,-11.66,2.76,-1.46,-3.4,0.62,-2.92
7.373481869697571,2,3,3,0,-10.66,2.12,-1.14,-2.53,0.2,-2.53
7.383481860160828,2,3,3,0,-10.29,1.82,-1.01,-1.87,-0.09,-2.02
7.393481850624084,2,3,3,0,-10.08,1.76,-0.88,-1.52,0.28,-1.62
7.403481841087341,2,3,3,0,-9.93,2.19,-0.5,-1.73,0.8100000000000001,-1.41
7.413481831550598,2,3,3,0,-10.06,2.24,-0.33,-1.72,1.04,-1.17
7.423482060432434,2,3,3,0,-10.15,2.29,-0.21,-1.56,1.06,-0.92
7.433482050895691,2,3,3,0,-10.16,2.39,-0.18,-1.62,0.92,-0.84
7.443482041358948,2,3,3,0,-9.869999999999999,2.41,-0.36,-1.75,0.77,-0.72
7.453482031822205,2,3,3,0,-9.630000000000001,2.28,-0.46,-1.76,0.5600000000000001,-0.35
7.463482022285461,2,3,3,0,-9.34,2.14,-0.61,-1.78,0.31,0.22
7.473482012748718,2,3,3,0,-9.1,2.23,-0.62,-1.93,0.44,0.8100000000000001
7.483482003211975,2,3,3,0,-8.779999999999999,2.3,-0.88,-1.52,0.42,1.24
7.493481993675232,2,3,3,0,-8.630000000000001,2.42,-1.02,-1.06,0.43,1.46
7.503481984138489,2,3,3,0,-8.49,2.61,-0.96,-0.72,0.66,1.51
7.513481974601746,2,3,3,0,-8.43,2.7,-0.9399999999999999,-0.21,0.77,1.65
7.523481965065002,2,3,3,0,-8.52,2.92,-0.84,0.05,0.93,1.6
7.533481955528259,2,3,3,0,-8.630000000000001,2.96,-0.82,0.06,1.06,1.34
7.543481945991516,2,3,3,0,-8.73,2.97,-0.86,0.05,1.16,0.9
7.553481936454773,2,3,3,0,-9.07,3.05,-0.76,-0.18,1.07,0.4
7.583481907844543,2,3,3,0,-9.289999999999999,3.19,-0.55,-0.75,0.46,-1.41
7.5934818983078,2,3,3,0,-9.16,2.86,-0.62,-0.62,0.42,-1.59
7.603481888771057,2,3,3,0,-9.109999999999999,2.56,-0.62,-0.36,0.47,-1.54
7.613481879234314,2,3,3,0,-9.18,2.42,-0.52,0.02,0.71,-1.4
7.623481869697571,2,3,3,0,-9.33,2.35,-0.57,0.34,0.86,-1.23
7.633481860160828,2,3,3,0,-9.69,2.23,-0.73,0.79,0.72,-0.92
7.643481850624084,2,3,3,0,-9.880000000000001,2.3,-0.85,1.03,0.59,-0.62
7.653481841087341,2,3,3,0,-9.98,2.46,-0.88,1.06,0.5,-0.3
7.663481831550598,2,3,3,0,-10.04,2.59,-0.95,1.07,0.33,-0.01
7.673482060432434,2,3,3,0,-9.98,2.84,-0.73,1.08,0.27,0.16
7.683482050895691,2,3,3,0,-9.73,2.92,-0.83,0.8100000000000001,0.13,0.32
7.693482041358948,2,3,3,0,-9.619999999999999,2.93,-0.85,0.59,-0.11,0.57
7.703482031822205,2,3,3,0,-9.32,2.92,-0.68,0.35,-0.23,0.89
7.713482022285461,2,3,3,0,-9.07,2.9,-0.8,0.24,-0.48,1.18
7.723482012748718,2,3,3,0,-9.029999999999999,2.84,-0.8100000000000001,0.34,-0.52,1.41
7.733482003211975,2,3,3,0,-9.02,2.89,-0.63,0.4,-0.26,1.4
7.743481993675232,2,3,3,0,-8.83,2.94,-0.84,0.27,-0.19,1.22
7.753481984138489,2,3,3,0,-8.91,2.77,-0.86,0.5,-0.22,1.02
7.763481974601746,2,3,3,0,-8.960000000000001,2.79,-0.9,0.86,-0.12,0.82
7.773481965065002,2,3,3,0,-9.130000000000001,2.83,-0.91,0.99,-0.02,0.64
7.783481955528259,2,3,3,0,-9.390000000000001,2.82,-0.85,1.07,0.08,0.48
7.793481945991516,2,3,3,0,-9.529999999999999,2.91,-0.9,1.18,0.02,0.28
7.803481936454773,2,3,3,0,-9.52,3.09,-0.9,1.34,-0.33,0.09
7.81348192691803,2,3,3,0,-9.43,3.24,-0.9399999999999999,1.48,-0.79,-0.03
7.823481917381287,2,3,3,0,-9.26,3.47,-0.89,1.61,-1.03,0
7.833481907844543,2,3,3,0,-8.859999999999999,3.37,-0.83,1.48,-0.96,0.12
7.8434818983078,2,3,3,0,-9.109999999999999,3.4,-0.95,1.07,-0.38,0.2
7.853481888771057,2,3,3,0,-9.18,3.17,-0.86,0.79,0.12,0.18
7.863481879234314,2,3,3,0,-9.140000000000001,2.95,-0.79,0.5600000000000001,0.24,0.15
7.873481869697571,2,3,3,0,-9.140000000000001,2.94,-0.77,0.26,0.44,0.07000000000000001
7.883481860160828,2,3,3,0,-9.279999999999999,2.95,-0.77,-0.01,0.63,0.1
7.893481850624084,2,3,3,0,-9.529999999999999,2.99,-1.05,0.11,0.53,0.07000000000000001
7.903481841087341,2,3,3,0,-9.550000000000001,2.91,-0.99,0.18,0.55,0.12
7.913481831550598,2,3,3,0,-9.56,2.83,-0.97,0.01,0.5600000000000001,0.23
7.923482060432434,2,3,3,0,-9.57,2.78,-1,-0.03,0.45,0.3
7.933482050895691,2,3,3,0,-9.48,2.97,-1.08,-0.07000000000000001,0.01,0.47
7.943482041358948,2,3,3,0,-9.41,3.16,-1.24,0.16,-0.43,0.76
7.953482031822205,2,3,3,0,-9.279999999999999,3.32,-1.28,0.37,-0.61,1
7.963482022285461,2,3,3,0,-9.23,3.4,-1.23,0.39,-0.52,1.19
7.973482012748718,2,3,3,0,-9.07,3.39,-0.93,0.29,-0.35,1.23
7.983482003211975,2,3,3,0,-8.98,3.32,-0.91,0.17,-0.27,1.1
7.993481993675232,2,3,3,0,-9.01,3.25,-0.98,0.13,-0.19,0.84
8.003481984138489,2,3,3,0,-8.99,3.28,-0.89,0.11,-0.18,0.5600000000000001
8.013481974601746,2,3,3,0,-9.1,3.3,-0.82,-0.14,-0.16,0.38
8.023481965065002,2,3,3,0,-9.18,3.4,-0.83,-0.32,-0.19,0.27
8.033481955528259,2,3,3,0,-9.18,3.54,-0.93,-0.47,-0.25,0.18
8.043481945991516,2,3,3,0,-9.199999999999999,3.54,-1.01,-0.47,-0.35,0.27
8.053481936454773,2,3,3,0,-9.140000000000001,3.38,-1.06,-0.49,-0.43,0.43
8.06348192691803,2,3,3,0,-9.23,3.28,-1.07,-0.47,-0.44,0.68
8.073481917381287,2,3,3,0,-9.359999999999999,3.25,-1.02,-0.53,-0.25,0.77
8.083481907844543,2,3,3,0,-9.390000000000001,3.35,-0.9399999999999999,-0.75,-0.22,0.83
8.0934818983078,2,3,3,0,-9.4,3.35,-1.04,-0.76,-0.21,0.82
8.103481888771057,2,3,3,0,-9.380000000000001,3.38,-0.96,-0.8100000000000001,-0.09,0.76
8.113481879234314,2,3,3,0,-9.300000000000001,3.4,-0.89,-1.05,0.03,0.82
8.123481869697571,2,3,3,0,-9.25,3.26,-0.74,-1.11,0.27,0.96
8.133481860160828,2,3,3,0,-9.24,3.22,-0.82,-1.04,0.34,1.16
8.143481850624084,2,3,3,0,-9.279999999999999,3.12,-0.9,-0.9,0.19,1.32
8.153481841087341,2,3,3,0,-9.220000000000001,3.12,-0.93,-0.8100000000000001,0.09,1.45
8.163481831550598,2,3,3,0,-9.17,3.33,-0.7,-0.72,-0.04,1.63
8.174481987953186,2,3,3,0,-9.050000000000001,3.46,-0.72,-0.52,-0.45,1.73
8.184481978416443,2,3,3,0,-8.859999999999999,3.55,-0.84,-0.45,-0.67,1.78
8.1944819688797,2,3,3,0,-8.640000000000001,3.65,-0.9399999999999999,-0.33,-0.63,1.75
8.204481959342957,2,3,3,0,-8.59,3.67,-0.76,-0.21,-0.37,1.63
8.214481949806213,2,3,3,0,-8.56,3.63,-0.68,-0.3,-0.18,1.46
8.22448194026947,2,3,3,0,-8.5,3.65,-0.77,-0.35,-0.19,1.19
8.234481930732727,2,3,3,0,-8.56,3.81,-0.95,-0.33,-0.31,0.9399999999999999
8.244481921195984,2,3,3,0,-8.59,3.9,-0.97,-0.39,-0.32,0.83
8.254481911659241,2,3,3,0,-8.49,3.99,-1.09,-0.4,-0.47,0.8
8.264481902122498,2,3,3,0,-8.41,4.12,-1.1,-0.27,-0.57,1.01
8.274481892585754,2,3,3,0,-8.02,4.52,-0.83,-0.18,-0.46,1.22
8.284481883049011,2,3,3,0,-7.69,4.71,-0.78,-0.34,-0.36,1.49
8.294481873512268,2,3,3,0,-7.3,4.82,-0.79,-0.31,-0.51,1.82
8.304481863975525,2,3,3,0,-6.85,4.9,-0.6899999999999999,-0.29,-0.55,2.27
8.314481854438782,2,3,3,0,-6.04,4.98,-0.6899999999999999,-0.53,-0.43,2.89
8.324481844902039,2,3,3,0,-5.77,4.85,-0.63,-0.88,-0.32,3.53
8.334481835365295,2,3,3,0,-5.45,4.75,-0.58,-1.36,-0.07000000000000001,3.72
8.344481825828552,2,3,3,0,-4.55,4.32,-0.6899999999999999,-2.01,-0.14,3.66
8.354482054710388,2,3,3,0,-4.16,4,-0.67,-2.36,-0.47,3.51
8.364482045173645,2,3,3,0,-3.82,3.7,-0.5,-2.27,-0.65,3.42
8.374482035636902,2,3,3,0,-3.29,3.31,-0.45,-2.55,-1.16,3.67
8.384482026100159,2,3,3,0,-2.74,2.47,-0.59,-2.55,-1.16,3.67
8.394482016563416,2,3,3,0,-2.57,2.27,-0.7,-2.74,-0.85,4.08
8.404482007026672,2,3,3,0,-3.36,2.41,-0.79,-3.36,1.05,4.09
8.414481997489929,2,3,3,0,-3.62,2.18,-0.42,-4.12,1,2.63
8.424481987953186,2,3,3,0,-4.12,2.23,-0.36,-4.44,0.8100000000000001,1.34
8.434481978416443,2,3,3,0,-3.95,1.98,-0.23,-3.89,1.79,0.31
8.4444819688797,2,3,3,0,-4.44,1.88,0.02,-3.8,3.69,-0.19
8.454481959342957,2,3,3,0,-5.23,1.94,0.2,-4.02,4.21,0.13
8.464481949806213,2,3,3,0,-6.4,2.74,0.4,-3.76,3.93,0.83
8.47448194026947,2,3,3,0,-7.38,3.4,0.43,-2.77,2.52,2.49
8.484481930732727,2,3,3,0,-7.81,3.93,-0.3,0.75,1.28,5.47
8.494481921195984,2,3,3,0,-9.93,2.87,-0.87,4.54,3.11,8.880000000000001
8.504481911659241,2,3,3,0,-11.63,2.47,-0.58,4.24,4.54,9.470000000000001
8.514481902122498,2,3,3,0,-12.24,2.71,-0.15,2.75,3.74,9.16
8.524481892585754,2,3,3,0,-12.16,3.55,-0.61,2.57,2.38,9.390000000000001
8.534481883049011,2,3,3,0,-11.27,4.15,-1.33,2.29,2.47,10.02
8.544481873512268,2,3,3,0,-11.01,4.37,-1.26,-0.04,2.08,7.77
8.554481863975525,2,3,3,0,-10.89,4.87,-0.33,-2.53,3.41,6.2
8.564481854438782,2,3,3,0,-10.85,5.33,-0.35,-3.09,3.05,4.08
8.574481844902039,2,3,3,0,-14.68,4.11,-1.85,-2.56,0.19,2.05
8.584481835365295,2,3,3,0,-16.21,3.95,-2.02,-1.6,-1.38,0.55
8.594481825828552,2,3,3,0,-16.89,3.26,-1.91,0.66,-2.31,0.08
8.604482054710388,2,3,3,0,-16.79,3.56,-1.65,1.07,-2.81,0.17
8.614482045173645,2,3,3,0,-16.86,5.48,-1.54,1.05,-3.8,0.96
8.624482035636902,2,3,3,0,-16.39,5.8,-0.99,1.07,-3.75,1.13
8.634482026100159,2,3,3,0,-16.81,5.65,-0.88,0.51,-3.22,0.68
8.644482016563416,2,3,3,0,-17.06,5.17,-0.76,-0.5,-3.11,0.04
8.654482007026672,2,3,3,0,-17.6,5.32,-0.71,-0.95,-3.05,-0.5600000000000001
8.664481997489929,2,3,3,0,-17.62,4.96,-1.02,-1.25,-3.34,-1.27
8.674481987953186,2,3,3,0,-18.44,5.1,-1.17,-1.73,-3.51,-2.64
8.684481978416443,2,3,3,0,-21.21,5.17,-0.47,-2.39,-4.08,-4.59
8.6944819688797,2,3,3,0,-22.68,5.42,-0.92,-3.02,-4.54,-6.77
8.704481959342957,2,3,3,0,-24.27,5.46,-0.96,-2.54,-6.55,-8.43
8.714481949806213,2,3,3,0,-25.04,5.21,-1,-2.72,-7.96,-9.94
8.72448194026947,2,3,3,0,-26.93,4.68,-0.79,-3.14,-7.68,-10.86
8.734481930732727,2,3,3,0,-27.89,4.5,-0.74,-3.79,-6.88,-11.11
8.744481921195984,2,3,3,0,-28.49,4.35,-0.72,-3.81,-5.2,-11.08
8.754481911659241,2,3,3,0,-29.04,4.43,-0.42,-3.03,-3.81,-11.07
8.764481902122498,2,3,3,0,-30.75,5.22,-0.22,-1.5,-2.54,-11.44
8.774481892585754,2,3,3,0,-31.47,5.42,-0.21,0.01,-0.62,-11.46
8.784481883049011,2,3,3,0,-30.55,6.27,-0.11,0.44,2.18,-10.09
8.794481873512268,2,3,3,0,-25.91,8.01,-0.6,0.37,4.87,-7.37
8.804481863975525,2,3,3,0,-22.48,8.039999999999999,-0.74,1.81,7.05,-5.14
8.814481854438782,2,3,3,0,-17.33,7.02,-0.52,3.64,8.039999999999999,-0.87
8.824481844902039,2,3,3,0,-12.42,6.72,0.3,4.34,6.34,7.57
8.834481835365295,2,3,3,0,-8.449999999999999,7.56,1.13,5.11,7.21,14.29
8.844481825828552,2,3,3,0,-2.87,7.61,-1.23,8.76,7.75,14.86
8.854482054710388,2,3,3,0,1.92,7.76,-2.27,14.29,0.05,20.32
8.864482045173645,2,3,3,0,10.79,11.5,-0.11,15.72,-0.86,23.72
8.874482035636902,2,3,3,0,13.46,11.02,-2.84,14.53,3.65,20.22
8.884482026100159,2,3,3,0,13.46,11.02,-2.84,10.57,5.01,15.31
8.894482016563416,2,3,3,0,9.6,5.54,-0.63,7.04,1.09,6.99
8.904482007026672,2,3,3,0,5.87,3.52,-0.25,9.74,-1.19,-1.81
8.914481997489929,2,3,3,0,2.84,1.71,-1.61,12,-1.9,-7.74
8.924481987953186,2,3,3,0,2.84,1.71,-1.61,10.92,-3.92,-11.98
8.934481978416443,2,3,3,0,2.02,1.97,-1.11,8.67,-5.39,-14.41
8.9444819688797,2,3,3,0,0.36,2.95,-0.45,5.35,-4.06,-14.58
8.964481949806213,2,3,3,0,-2.47,2.42,-0.66,-3.09,-0.28,-8.52
8.97448194026947,2,3,3,0,-2.47,2.42,-0.66,-5.87,1.73,-4.42
8.984481930732727,2,3,3,0,-2.2,1.88,-0.38,-6.84,3.7,-1.69
8.994481921195984,2,3,3,0,0.42,-0.15,0.17,-7.17,4.63,0.06
9.004481911659241,2,3,3,0,1,-0.88,0.14,-6.54,4.78,1.35
9.014481902122498,2,3,3,0,1.72,-1.44,0.11,-5.61,4.56,2.7
9.024481892585754,2,3,3,0,1.72,-1.44,0.11,-5.61,4.56,2.7
9.034481883049011,2,3,3,0,2.06,-2.04,-0.31,-3.92,4.03,3.97
9.044481873512268,2,3,3,0,0.85,-1.27,-0.84,0.76,2.1,5.05
9.054481863975525,2,3,3,0,0.33,-0.32,-0.65,2.33,1.8,4.31
9.064481854438782,2,3,3,0,-1.09,0.21,-0.29,3.16,1.58,3.02
9.074481844902039,2,3,3,0,-1.09,0.21,-0.29,3.16,1.58,3.02
9.084481835365295,2,3,3,0,-1.03,0.08,0.08,3.34,1.23,1.85
9.094481825828552,2,3,3,0,-0.58,0.16,0.53,1.08,0.18,0.44
9.104482054710388,2,3,3,0,-0.46,-0.05,0.62,-0.09,-0.3,-0.09
9.114482045173645,2,3,3,0,0.19,-0.23,0.29,-0.95,-0.17,-0.91
9.124482035636902,2,3,3,0,0.27,-0.36,0.43,-0.95,-0.17,-0.91
9.134482026100159,2,3,3,0,0.37,-0.46,0.55,-1.71,-0.28,-1.71
9.144482016563416,2,3,3,0,0.21,-0.28,0.44,-1.79,-0.98,-1.87
9.154482007026672,2,3,3,0,-0.03,-0.26,0.27,-1.5,-1.04,-1.39
9.164481997489929,2,3,3,0,-0.33,-0.28,0.16,-1.21,-0.79,-0.37
9.174481987953186,2,3,3,0,-0.54,-0.14,0.06,-1.21,-0.79,-0.37
9.184481978416443,2,3,3,0,-0.79,-0.14,-0.2,-0.88,-0.14,0.7
9.195481896400452,2,3,3,0,-0.92,-0.09,-0.36,-0.7,0.38,2.3
9.205481886863708,2,3,3,0,-1.05,-0.02,-0.57,-0.89,0.21,2.99
9.215481877326965,2,3,3,0,-0.79,0.09,-0.53,-0.48,0.07000000000000001,3.53
9.225481867790222,2,3,3,0,-0.3,0.16,-0.85,-0.48,0.07000000000000001,3.53
9.235481858253479,2,3,3,0,-0.21,0.38,-0.75,-0.21,0.05,3.51
9.245481848716736,2,3,3,0,0,1.08,-0.5,-0.05,-1.29,1.9
9.255481839179993,2,3,3,0,0.36,1.88,-0.26,-0.14,-2.41,0.96
9.26548182964325,2,3,3,0,0.58,3.84,-0.04,-0.85,-3.57,0.17
9.275482058525085,2,3,3,0,1.07,4.79,-0.33,-0.85,-3.57,0.17
9.285482048988342,2,3,3,0,1.63,5.65,-0.67,-0.99,-4.1,-0.17
9.295482039451599,2,3,3,0,2.55,5.28,-2.04,-0.47,-3.21,-2.4
9.305482029914856,2,3,3,0,1.87,2.95,-3.02,-1.51,-2.52,-6.05
9.315482020378113,2,3,3,0,0.35,0.01,-2.52,-4.29,-3.32,-9.68
9.32548201084137,2,3,3,0,-0.68,0.71,-0.96,-4.29,-3.32,-9.68
9.335482001304626,2,3,3,0,-6.41,9.15,-2.14,-8.050000000000001,-7.96,-12.74
9.345481991767883,2,3,3,0,-16.4,10,2.16,-12.86,-14.34,-21.38
9.35548198223114,2,3,3,0,-27.27,12.38,-2.74,-19.58,-4.7,-14.72
9.365481972694397,2,3,3,0,-39.24,15.75,-2.99,-19.22,10.67,4.27
9.375481963157654,2,3,3,0,-39.21,29.76,-7.19,-19.22,10.67,4.27
9.385481953620911,2,3,3,0,-39.24,11.92,-7.57,-7.2,7.59,19.76
9.395481944084167,2,3,3,0,-39.24,2.43,-4.16,10.37,-11.68,-4.68
9.405481934547424,2,3,3,0,-31.96,1.13,-3.76,3.43,-4.11,-14.23
9.415481925010681,2,3,3,0,-13.86,3.19,0.01,-3.27,3.66,-19.28
9.425481915473938,2,3,3,0,-14.94,-12.48,4.74,-3.27,3.66,-19.28
9.435481905937195,2,3,3,0,-20.02,-8.59,4.39,3.6,0.86,-19.76
9.445481896400452,2,3,3,0,-24.26,2.4,1.19,4.27,-5.76,-3.02
9.455481886863708,2,3,3,0,-24.69,4.25,0.79,2.29,-5.34,1.93
9.465481877326965,2,3,3,0,-22.57,4.54,0.02,1.87,-2.31,4.53
9.475481867790222,2,3,3,0,-23.79,4.94,-0.47,1.87,-2.31,4.53
9.485481858253479,2,3,3,0,-24.94,7.89,-1.72,1.71,0.13,9.880000000000001
9.495481848716736,2,3,3,0,-21.05,7.31,-0.45,1.31,2.32,12.09
9.505481839179993,2,3,3,0,-18.56,7.16,0.06,0.43,3.02,9.029999999999999
9.51548182964325,2,3,3,0,-16.18,6.4,-0.59,0.4,3.18,5.1
9.525482058525085,2,3,3,0,-11.04,2.83,0.14,0.4,3.18,5.1
9.535482048988342,2,3,3,0,-9.130000000000001,2.25,0.72,0.74,2.91,2.17
9.545482039451599,2,3,3,0,-8.449999999999999,2.78,0.97,1.18,3.07,-1.98
9.555482029914856,2,3,3,0,-8.5,2.76,0.8100000000000001,0.5600000000000001,2.19,-3.73
9.565482020378113,2,3,3,0,-10.29,3.64,0.77,-0.23,1.22,-4.03
9.57548201084137,2,3,3,0,-10.47,3.72,0.92,-0.23,1.22,-4.03
9.585482001304626,2,3,3,0,-10.4,3.85,0.83,-0.37,0.79,-2.2
9.595481991767883,2,3,3,0,-8.81,4.15,0.42,0.15,0.61,0.9
9.60548198223114,2,3,3,0,-7.53,4.63,0.26,0.97,0.39,4.09
9.615481972694397,2,3,3,0,-6.6,4.8,0,1.73,0.09,6.32
9.625481963157654,2,3,3,0,-5.32,4.38,0.07000000000000001,2.95,-0.06,7.5
9.635481953620911,2,3,3,0,-2.59,3.7,0.4,3.29,0.19,8.039999999999999
9.645481944084167,2,3,3,0,-2.04,3.3,0.35,2.71,1.37,7.79
9.655481934547424,2,3,3,0,-1.84,3.22,0.06,1.6,2.38,6.4
9.665481925010681,2,3,3,0,-1.53,3.64,0.14,0.87,2.44,4.06
9.675481915473938,2,3,3,0,-1.66,4.46,0.09,1.59,2.41,1.68
9.685481905937195,2,3,3,0,-2.01,4.06,-0.1,3.05,2.64,-0.09
9.695481896400452,2,3,3,0,-2.53,3.27,-0.51,2.89,2.92,-1.2
9.705481886863708,2,3,3,0,-2.98,2.75,-0.57,0.43,4.17,-2
9.715481877326965,2,3,3,0,-3.29,2.96,0.48,-1.18,4.66,-2.27
9.725481867790222,2,3,3,0,-3.33,2.99,0.43,-0.97,3.61,-2.13
9.735481858253479,2,3,3,0,-3.71,2.67,0.47,-0.75,2.79,-2.56
9.745481848716736,2,3,3,0,-4.74,3.4,-0.16,-1.92,2.31,-3.54
9.755481839179993,2,3,3,0,-6.07,3.09,-1.34,-1.87,0.02,-4.57
9.76548182964325,2,3,3,0,-6.9,3.23,-0.97,-1.36,-0.58,-4.73
9.775482058525085,2,3,3,0,-7.47,3.77,-1.29,-2.12,-0.28,-3.8
9.785482048988342,2,3,3,0,-8.390000000000001,4.01,-0.47,-2.81,1.22,-2.91
9.795482039451599,2,3,3,0,-8.140000000000001,4.07,0.36,-3.32,2.2,-2.6
9.805482029914856,2,3,3,0,-8.050000000000001,4.07,0.9,-3.08,2.28,-2.56
9.815482020378113,2,3,3,0,-8.130000000000001,3.71,1,-2.29,1.16,-2.18
9.82548201084137,2,3,3,0,-9.4,2.47,0.36,-1.7,0.54,-1.6
9.835482001304626,2,3,3,0,-10.24,2.52,-0.11,-1.95,0.84,-1.49
9.845481991767883,2,3,3,0,-11.39,2.51,-0.63,-1.49,0.61,-1.32
9.85548198223114,2,3,3,0,-12.73,2.03,-1,0.04,0.45,-0.88
9.865481972694397,2,3,3,0,-14.58,2.65,-1.61,1.22,0.09,-0.11
9.875481963157654,2,3,3,0,-14.98,3.59,-1.45,1.81,-0.34,0.67
9.885481953620911,2,3,3,0,-14.75,4.17,-1.51,2.44,-1.04,1.35
9.895481944084167,2,3,3,0,-13.95,4.24,-1.46,2.52,-1.25,1.82
9.905481934547424,2,3,3,0,-11.53,4.41,-0.96,2.1,-0.37,1.91
9.915481925010681,2,3,3,0,-10.67,4.58,-0.3,1.83,0.43,1.48
9.925481915473938,2,3,3,0,-10.07,4.46,-0.29,2.15,0.15,0.9
9.935481905937195,2,3,3,0,-9.83,3.96,-0.33,2.04,0.3,0.42
9.945481896400452,2,3,3,0,-9.710000000000001,3.68,-0.39,1.47,0.59,-0.06
9.955481886863708,2,3,3,0,-9.4,3.45,-0.53,0.98,0.77,-0.25
9.965481877326965,2,3,3,0,-9.029999999999999,3.22,-0.47,0.63,1.1,-0.18
9.975481867790222,2,3,3,0,-7.95,2.83,-0.35,0.35,1.47,0.02
9.985481858253479,2,3,3,0,-7.24,2.5,-0.53,0.47,1.42,0.29
9.995481848716736,2,3,3,0,-6.73,2.34,-0.92,0.75,1.22,0.73
10.00548183917999,2,3,3,0,-6.34,2.14,-1.22,1.33,1,1.24
10.01548182964325,2,3,3,0,-5.87,2.4,-1,1.9,0.9399999999999999,1.5
10.02548205852509,2,3,3,0,-5.46,2.69,-0.83,2.59,0.98,1.47
10.03548204898834,2,3,3,0,-5.27,3.02,-0.59,2.94,1.35,1.17
10.0454820394516,2,3,3,0,-5.07,3.41,-0.45,2.63,1.6,0.78
10.05548202991486,2,3,3,0,-5.36,3.88,-0.28,2.14,1.68,0.18
10.06548202037811,2,3,3,0,-6.06,3.96,-0.38,1.51,1.71,-0.77
10.07548201084137,2,3,3,0,-7.08,4.04,-0.46,0.97,1.63,-2.05
10.08548200130463,2,3,3,0,-9.109999999999999,4.5,-0.45,0.5,1.02,-3.41
10.09548199176788,2,3,3,0,-9.75,4.68,-0.6,0.02,-0.11,-4.45
10.10548198223114,2,3,3,0,-9.77,4.44,-1.09,-0.5600000000000001,-2.1,-4.84
10.1154819726944,2,3,3,0,-9.779999999999999,4.24,-1.2,-0.53,-2.99,-4.45
10.12548196315765,2,3,3,0,-8.949999999999999,3.99,-1.13,-0.84,-3.23,-3.45
10.13548195362091,2,3,3,0,-8.51,3.84,-0.97,-0.82,-2.84,-2.38
10.14548194408417,2,3,3,0,-8.359999999999999,3.95,-0.88,-0.78,-2.36,-1.58
10.15548193454742,2,3,3,0,-8.76,4.21,-0.78,-0.84,-1.53,-1.26
10.16548192501068,2,3,3,0,-11.32,5.05,-0.45,-1.24,-1.41,-1.72
10.17548191547394,2,3,3,0,-12.39,4.98,-0.79,-1.73,-2.66,-2.69
10.18548190593719,2,3,3,0,-13.55,4.77,-0.36,-1.71,-3.55,-3.57
10.19548189640045,2,3,3,0,-12.81,4.31,-1.21,-1.7,-4.24,-3.93
10.20548188686371,2,3,3,0,-10.99,3.21,-1.17,-1.15,-3.09,-3.46
10.2164820432663,2,3,3,0,-10.04,2.95,-0.92,-0.91,-1.7,-2.47
10.22648203372955,2,3,3,0,-9.4,2.76,-0.95,-0.42,-0.91,-1.38
10.23648202419281,2,3,3,0,-8.82,2.82,-1.48,0.12,-0.6899999999999999,-0.38
10.24648201465607,2,3,3,0,-8.529999999999999,3.02,-1.85,0.37,-0.79,0.36
10.25648200511932,2,3,3,0,-8.49,3.13,-2.1,0.8100000000000001,-1.01,0.84
10.26648199558258,2,3,3,0,-8.619999999999999,3.25,-2.14,0.97,-1.31,0.97
10.27648198604584,2,3,3,0,-8.82,3.64,-1.98,0.66,-1.32,0.66
10.28648197650909,2,3,3,0,-8.91,3.5,-2.02,0.08,-1.3,0.04
10.29648196697235,2,3,3,0,-8.960000000000001,3.49,-1.9,-0.51,-0.93,-0.85
10.30648195743561,2,3,3,0,-8.82,3.33,-2.02,-1.16,-0.53,-1.65
10.31648194789886,2,3,3,0,-8.630000000000001,3.05,-2.02,-1.79,0.08,-2.24
10.32648193836212,2,3,3,0,-8.69,2.99,-2.05,-2.55,0.8,-2.51
10.33648192882538,2,3,3,0,-8.83,2.92,-2.07,-3.08,1.3,-2.47
10.34648191928864,2,3,3,0,-9.130000000000001,2.85,-2.01,-3.52,1.73,-2.26
10.35648190975189,2,3,3,0,-9.41,2.47,-2.12,-3.85,1.93,-2.04
10.36648190021515,2,3,3,0,-9.59,2.21,-2,-3.8,1.96,-1.81
10.37648189067841,2,3,3,0,-9.67,1.97,-2.22,-3.46,1.68,-1.61
10.38648188114166,2,3,3,0,-9.75,1.64,-2.36,-2.98,1.25,-1.59
10.39648187160492,2,3,3,0,-9.859999999999999,1.6,-2.44,-2.59,1.01,-1.61
10.40648186206818,2,3,3,0,-9.890000000000001,1.59,-2.55,-2.16,0.74,-1.65
10.41648185253143,2,3,3,0,-9.92,1.6,-2.36,-1.83,0.6,-1.69
10.42648184299469,2,3,3,0,-9.94,1.73,-2.25,-1.67,0.41,-1.72
10.43648183345795,2,3,3,0,-9.92,1.84,-2.15,-1.08,0.22,-1.73
10.4464818239212,2,3,3,0,-9.85,2.02,-2.16,-0.41,0.06,-1.58
10.45648205280304,2,3,3,0,-9.76,2.13,-2.11,0.31,-0.12,-1.12
10.4664820432663,2,3,3,0,-9.550000000000001,2.3,-1.73,0.93,0.04,-0.62
10.47648203372955,2,3,3,0,-9.460000000000001,2.43,-1.56,1.54,0.12,-0.15
10.48648202419281,2,3,3,0,-9.41,2.52,-1.39,2.09,0.24,0.22
10.49648201465607,2,3,3,0,-9.289999999999999,2.53,-1.29,2.69,0.4,0.43
10.50648200511932,2,3,3,0,-9.02,2.4,-1.22,3.14,0.53,0.53
10.51648199558258,2,3,3,0,-9.02,2.35,-1.16,3.52,0.8,0.38
10.52648198604584,2,3,3,0,-9.15,2.26,-1.07,3.82,0.97,0.14
10.53648197650909,2,3,3,0,-9.34,2.23,-1.01,4.02,1.04,-0.22
10.54648196697235,2,3,3,0,-9.75,2.15,-1.04,4.24,0.71,-0.61
10.55648195743561,2,3,3,0,-9.890000000000001,2.27,-1.1,4.35,0.13,-0.88
10.56648194789886,2,3,3,0,-9.880000000000001,2.4,-0.93,4.53,-0.27,-0.92
10.57648193836212,2,3,3,0,-9.619999999999999,3.02,-0.87,4.64,-0.77,-0.82
10.58648192882538,2,3,3,0,-9.26,3.53,-0.83,4.67,-1.04,-0.52
10.59648191928864,2,3,3,0,-8.93,3.8,-0.88,4.64,-0.83,-0.05
10.60648190975189,2,3,3,0,-8.99,3.6,-0.85,5.07,-0.04,0.29
10.61648190021515,2,3,3,0,-9.01,3.55,-0.9399999999999999,4.99,0.59,0.24
10.62648189067841,2,3,3,0,-8.98,3.68,-0.89,4.3,0.9399999999999999,0.33
10.63648188114166,2,3,3,0,-9.16,3.7,-0.67,3.65,1.46,0.4
10.64648187160492,2,3,3,0,-9.25,3.76,-0.62,2.8,1.51,0.25
10.65648186206818,2,3,3,0,-9.24,3.61,-0.89,1.95,1.25,0.17
10.67648184299469,2,3,3,0,-9.130000000000001,3.63,-0.83,0.41,1.24,0.24
10.68648183345795,2,3,3,0,-9.19,3.71,-0.82,-0.38,1.1,0.24
10.6964818239212,2,3,3,0,-9.18,3.7,-0.85,-1.08,0.88,0.18
10.70648205280304,2,3,3,0,-9.15,3.62,-0.92,-1.7,0.8,0.12
10.7164820432663,2,3,3,0,-9.109999999999999,3.54,-0.74,-2.12,1.05,-0.03
10.72648203372955,2,3,3,0,-9.1,3.13,-0.37,-2.15,1.42,-0.19
10.73648202419281,2,3,3,0,-9.15,2.79,-0.32,-1.91,1.68,-0.36
10.74648201465607,2,3,3,0,-9.18,2.41,-0.32,-1.71,1.86,-0.54
10.75648200511932,2,3,3,0,-9.17,2.1,-0.44,-1.76,2.02,-0.6
10.76648199558258,2,3,3,0,-9.31,1.93,-0.47,-1.69,2,-0.59
10.77648198604584,2,3,3,0,-9.300000000000001,1.98,-0.57,-1.42,1.76,-0.53
10.78648197650909,2,3,3,0,-9.300000000000001,2.12,-0.68,-0.97,1.42,-0.35
10.79648196697235,2,3,3,0,-9.26,2.28,-0.71,-0.7,1.13,-0.25
10.80648195743561,2,3,3,0,-9.18,2.51,-0.96,-0.52,0.91,-0.2
10.82648193836212,2,3,3,0,-9.34,2.64,-0.92,-0.1,0.89,-0.28
10.83648192882538,2,3,3,0,-9.460000000000001,2.65,-0.9,0.19,0.98,-0.44
10.84648191928864,2,3,3,0,-9.539999999999999,2.43,-0.88,0.64,1.1,-0.54
10.85648190975189,2,3,3,0,-9.44,2.43,-0.84,1.04,1.28,-0.51
10.86648190021515,2,3,3,0,-9.34,2.42,-0.8100000000000001,1.17,1.37,-0.49
10.87648189067841,2,3,3,0,-9.4,2.59,-0.79,1.36,1.33,-0.44
10.88648188114166,2,3,3,0,-9.470000000000001,2.66,-0.83,1.58,0.99,-0.33
10.89648187160492,2,3,3,0,-9.48,2.68,-0.88,1.82,0.6,-0.19
10.90648186206818,2,3,3,0,-9.550000000000001,2.66,-0.98,1.9,0.3,-0.03
10.91648185253143,2,3,3,0,-9.52,2.72,-0.96,1.73,0.13,0.02
10.92648184299469,2,3,3,0,-9.48,2.71,-0.93,1.51,-0.03,0.05
10.93648183345795,2,3,3,0,-9.42,2.73,-0.9399999999999999,1.44,-0.04,0
10.9464818239212,2,3,3,0,-9.41,2.79,-0.9,1.34,0.19,-0.07000000000000001
10.95648205280304,2,3,3,0,-9.31,2.86,-0.98,1.16,0.21,-0.15
10.9664820432663,2,3,3,0,-9.380000000000001,2.87,-0.8100000000000001,0.96,0.05,-0.08
10.97648203372955,2,3,3,0,-9.52,2.91,-0.47,0.74,-0.05,0
10.98648202419281,2,3,3,0,-9.470000000000001,3.02,-0.47,0.09,-0.54,-0.08
10.99648201465607,2,3,3,0,-8.789999999999999,3.25,-0.87,-0.48,-1.39,-0.11
11.00648200511932,2,3,3,0,-8.66,3.17,-1.57,-0.85,-1.49,0.2
11.01648199558258,2,3,3,0,-8.93,2.79,-1.54,-0.51,-0.8,0.86
11.02648198604584,2,3,3,0,-9.17,2.76,-1.07,-1.03,-0.52,1.1
11.03648197650909,2,3,3,0,-9.18,3.11,-1.35,-2.12,-0.79,0.99
11.04648196697235,2,3,3,0,-9.34,3.22,-1.42,-2.01,-1.28,1.14
11.05648195743561,2,3,3,0,-9.390000000000001,3.28,-1.8,-1.46,-1.81,1.19
11.06648194789886,2,3,3,0,-9.59,3.38,-2.08,-1.59,-1.97,1.02
11.07648193836212,2,3,3,0,-9.69,3.55,-2.03,-1.89,-1.8,0.86
11.08648192882538,2,3,3,0,-9.69,3.63,-1.91,-2.18,-1.82,0.7
11.09648191928864,2,3,3,0,-9.359999999999999,3.6,-2,-2.17,-2.01,0.5600000000000001
11.10648190975189,2,3,3,0,-9.050000000000001,3.41,-1.88,-1.82,-1.73,0.58
11.11648190021515,2,3,3,0,-8.949999999999999,3.34,-1.7,-1.71,-1.18,0.49
11.12648189067841,2,3,3,0,-9.01,3.23,-1.65,-1.68,-0.76,0.34
11.13648188114166,2,3,3,0,-9.029999999999999,3.08,-1.69,-1.22,0.18,-0.22
11.14648187160492,2,3,3,0,-9.109999999999999,2.56,-1.76,-1.22,0.18,-0.22
11.15648186206818,2,3,3,0,-9.08,2.31,-1.98,-1.26,0.43,-0.46
11.16648185253143,2,3,3,0,-9.19,2.22,-1.9,-1.28,0.73,-0.54
11.17648184299469,2,3,3,0,-9.43,2.23,-1.77,-1.37,1,-0.64
11.18648183345795,2,3,3,0,-9.42,2.23,-1.89,-1.93,0.44,-0.5600000000000001
11.1964818239212,2,3,3,0,-9.52,2.17,-2.01,-1.93,0.44,-0.5600000000000001
11.20648205280304,2,3,3,0,-9.57,2.12,-2.11,-2.01,0.29,-0.35
11.2164820432663,2,3,3,0,-9.609999999999999,2.12,-2.13,-2.27,0.06,0.29
11.22648203372955,2,3,3,0,-9.56,2.13,-2.11,-2.21,-0.14,0.71
11.23648202419281,2,3,3,0,-9.48,2.14,-2.13,-1.99,-0.32,1.21
11.24748194217682,2,3,3,0,-9.4,2.23,-2.09,-1.61,-0.4,1.67
11.25748193264008,2,3,3,0,-9.210000000000001,2.37,-1.91,-1.3,-0.42,2.06
11.26748192310333,2,3,3,0,-9.18,2.55,-1.9,-1.09,-0.5,2.31
11.27748191356659,2,3,3,0,-9.23,2.72,-1.85,-0.73,-0.63,2.35
11.28748190402985,2,3,3,0,-9.210000000000001,2.89,-1.8,-0.4,-0.66,2.26
11.2974818944931,2,3,3,0,-9.220000000000001,3.02,-1.81,-0.15,-0.55,2.12
11.30748188495636,2,3,3,0,-9.17,3.11,-1.71,-0.23,-0.04,2.03
11.31748187541962,2,3,3,0,-9.16,3.14,-1.36,-0.76,0.65,1.98
11.32748186588287,2,3,3,0,-9.17,3.13,-1.14,-1.33,1.07,1.97
11.33748185634613,2,3,3,0,-9.17,3.13,-1.14,-1.46,1.31,1.98
11.34748184680939,2,3,3,0,-9.32,2.79,-0.99,-1.49,1.38,2.06
11.35748183727264,2,3,3,0,-9.279999999999999,2.86,-1.21,-1.53,1.23,2.1
11.3674818277359,2,3,3,0,-9.550000000000001,3.25,-1.22,-1.36,1.3,2.14
11.37748205661774,2,3,3,0,-9.710000000000001,3.43,-1.31,-1.56,1.33,2.2
11.38748204708099,2,3,3,0,-9.710000000000001,3.43,-1.31,-1.93,1.23,2.22
11.39748203754425,2,3,3,0,-9.74,3.66,-1.32,-2.39,1.28,2.1
11.40748202800751,2,3,3,0,-9.35,4.13,-1.18,-2.73,1.36,1.92
11.41748201847076,2,3,3,0,-9.140000000000001,4.26,-0.92,-3.29,1.43,1.61
11.42748200893402,2,3,3,0,-8.9,4.29,-0.74,-3.68,1.26,1.3
11.43748199939728,2,3,3,0,-8.9,4.29,-0.74,-3.75,0.96,0.93
11.44748198986053,2,3,3,0,-8.59,3.93,-0.86,-3.76,0.49,0.48
11.45748198032379,2,3,3,0,-8.529999999999999,3.86,-0.96,-3.51,0.57,0.07000000000000001
11.46748197078705,2,3,3,0,-8.43,3.71,-0.84,-3.07,0.87,-0.27
11.47748196125031,2,3,3,0,-8.359999999999999,3.5,-0.68,-2.53,0.99,-0.44
11.48748195171356,2,3,3,0,-8.359999999999999,3.5,-0.68,-2.53,0.99,-0.44
11.49748194217682,2,3,3,0,-8.56,3.02,-0.63,-1.91,1.06,-0.51
11.50748193264008,2,3,3,0,-9.06,2.53,-0.57,-0.92,1.49,-1.02
11.51748192310333,2,3,3,0,-9.69,1.85,-0.53,-0.44,1.5,-1.49
11.52748191356659,2,3,3,0,-10.11,1.5,-0.45,0.25,1.59,-2.2
11.53748190402985,2,3,3,0,-10.11,1.5,-0.45,0.25,1.59,-2.2
11.5474818944931,2,3,3,0,-10.73,1.3,-0.39,1.65,0.07000000000000001,-3.26
11.55748188495636,2,3,3,0,-10.99,1.04,-0.59,2.82,-1.05,-3.47
11.56748187541962,2,3,3,0,-10.98,1.11,-0.68,3.85,-2.06,-3.37
11.57748186588287,2,3,3,0,-10.98,1.16,-0.68,4.63,-2.94,-2.99
11.58748185634613,2,3,3,0,-10.98,1.16,-0.68,5.27,-3.63,-2.29
11.59748184680939,2,3,3,0,-10.87,1.2,-0.65,5.27,-3.63,-2.29
11.60748183727264,2,3,3,0,-10.2,1.48,-0.58,6.14,-4.68,-0.52
11.6174818277359,2,3,3,0,-10.06,1.6,-0.61,6.51,-4.97,0.23
11.62748205661774,2,3,3,0,-9.789999999999999,1.69,-0.62,6.58,-5.29,0.75
11.63748204708099,2,3,3,0,-9.789999999999999,1.69,-0.62,6.58,-5.29,0.75
11.64748203754425,2,3,3,0,-9.16,1.96,-0.74,6.75,-5.12,1.04
11.65748202800751,2,3,3,0,-8.92,2.29,-0.63,6.94,-4.61,0.58
11.66748201847076,2,3,3,0,-8.92,2.29,-0.63,6.75,-4.39,0.19
11.67748200893402,2,3,3,0,-8.630000000000001,2.56,-0.35,6.59,-4.05,-0.26
11.68748199939728,2,3,3,0,-8.630000000000001,2.57,-0.27,6.59,-4.05,-0.26
11.69748198986053,2,3,3,0,-8.69,2.62,-0.26,6.27,-3.74,-0.73
11.70748198032379,2,3,3,0,-8.83,2.56,-0.31,4.95,-2.61,-1.75
11.71748197078705,2,3,3,0,-8.99,2.42,-0.34,4.14,-2.27,-2.02
11.72748196125031,2,3,3,0,-8.960000000000001,2.28,-0.22,3.41,-1.67,-2.13
11.73748195171356,2,3,3,0,-9.130000000000001,2.12,-0.18,3.41,-1.67,-2.13
11.74748194217682,2,3,3,0,-9.24,1.93,-0.16,2.74,-1.27,-2.12
11.75748193264008,2,3,3,0,-9.51,1.48,-0.22,2.4,-0.78,-1.59
11.76748192310333,2,3,3,0,-9.59,1.25,-0.16,2.74,-0.75,-1.21
11.77748191356659,2,3,3,0,-9.550000000000001,1.08,-0.21,3.17,-0.9,-0.66
11.78748190402985,2,3,3,0,-9.52,1.06,-0.28,3.17,-0.9,-0.66
11.7974818944931,2,3,3,0,-9.48,1.05,-0.5,3.69,-0.75,-0.2
11.80748188495636,2,3,3,0,-9.52,1.06,-0.51,3.91,-0.36,0.14
11.81748187541962,2,3,3,0,-9.529999999999999,1.02,-0.6,3.86,-0.15,0.16
11.82748186588287,2,3,3,0,-9.68,0.8100000000000001,-0.42,3.61,0.09,0.1
11.83748185634613,2,3,3,0,-9.43,0.72,-0.53,3.61,0.09,0.1
11.84748184680939,2,3,3,0,-9.23,0.63,-0.43,3.48,0.23,0.23
11.85748183727264,2,3,3,0,-9.16,0.52,-0.39,3.59,1.35,0.53
11.8674818277359,2,3,3,0,-9.119999999999999,0.25,-0.31,3.65,1.74,0.68
11.87748205661774,2,3,3,0,-9.119999999999999,0.14,-0.19,3.73,1.9,0.84
11.88748204708099,2,3,3,0,-9.16,0.21,0,3.73,1.9,0.84
11.89748203754425,2,3,3,0,-9.109999999999999,0.41,0,4.02,1.68,1.2
11.90748202800751,2,3,3,0,-9.35,0.76,0.02,4.94,0.82,2.01
11.91748201847076,2,3,3,0,-9.6,0.95,-0.12,5.36,0.2,2.03
11.92748200893402,2,3,3,0,-9.84,0.91,-0.14,5.65,-0.01,1.8
11.93748199939728,2,3,3,0,-9.99,0.88,-0.09,5.65,-0.01,1.8
11.94748198986053,2,3,3,0,-10.57,1.7,0.52,5.68,-0.41,1.47
11.95748198032379,2,3,3,0,-10.5,2.12,0.47,5.1,-2.65,0.9
11.96748197078705,2,3,3,0,-10.55,2.13,0.57,4.25,-3.99,0.98
11.97748196125031,2,3,3,0,-10.24,2,0.7,3.79,-4.22,1.42
11.98748195171356,2,3,3,0,-9.539999999999999,1.27,0.46,3.79,-4.22,1.42
11.99748194217682,2,3,3,0,-9.98,1.34,0.52,3.09,-3.37,1.49
12.00748193264008,2,3,3,0,-10.24,1.24,0.45,3.32,-5.12,1.51
12.01748192310333,2,3,3,0,-12.03,2.67,-0.8100000000000001,4.25,-7.49,1.27
12.02748191356659,2,3,3,0,-12.58,3.14,-1.39,4.78,-7.75,1.11
12.03748190402985,2,3,3,0,-13,3.48,-1.11,4.78,-7.75,1.11
12.0474818944931,2,3,3,0,-12.98,3.94,-0.68,4.5,-7.35,1.49
12.05748188495636,2,3,3,0,-12.67,5.02,-0.54,3.23,-8.380000000000001,0.9
12.06748187541962,2,3,3,0,-12.65,5.85,-0.17,2.35,-9.699999999999999,-0.05
12.07748186588287,2,3,3,0,-11.72,6.15,-0.29,1.27,-9.029999999999999,-0.02
12.08748185634613,2,3,3,0,-11.14,5.35,-0.22,1.27,-9.029999999999999,-0.02
12.09748184680939,2,3,3,0,-9.74,2.25,1.17,-2.08,-7.25,-0.61
12.10748183727264,2,3,3,0,-8.800000000000001,1.14,1.04,-2.45,-4.75,-1.82
12.1174818277359,2,3,3,0,-7.86,0.44,0.8,-1.76,-3.48,-1.54
12.12748205661774,2,3,3,0,-7.12,0.61,0.54,-0.8100000000000001,-3.32,-1.43
12.13748204708099,2,3,3,0,-8.23,2.58,-0.54,-0.8100000000000001,-3.32,-1.43
12.14748203754425,2,3,3,0,-8.369999999999999,3.09,-0.59,-0.17,-2.95,-2.51
12.15748202800751,2,3,3,0,-9.33,4.6,-0.8,-1.11,-2.21,-0.95
12.16748201847076,2,3,3,0,-8.75,3.69,-1.32,-1.11,-2.21,-0.95
12.17748200893402,2,3,3,0,-10.37,4.99,-1.17,-1.82,-0.97,-0.01
12.18748199939728,2,3,3,0,-9.609999999999999,4.43,-0.91,-2.29,0.08,2.5
12.19748198986053,2,3,3,0,-8.58,3.79,-0.5,-3.15,0.7,2.52
12.20748198032379,2,3,3,0,-7.24,3.49,-0.68,-3.66,1.64,2.52
12.21748197078705,2,3,3,0,-6.82,3.78,-0.9,-3.3,1.9,2.5
12.22748196125031,2,3,3,0,-6.74,3.94,-1.11,-2.6,1.57,2.28
12.23748195171356,2,3,3,0,-6.78,4.19,-1.27,-2.11,1.14,1.9
12.24748194217682,2,3,3,0,-7.14,4.55,-1.59,-1.8,0.66,1.42
12.25748193264008,2,3,3,0,-7.43,4.76,-1.66,-1.7,0.3,0.9
12.26848185062408,2,3,3,0,-8.08,4.92,-1.46,-1.9,0.05,0.24
12.27848184108734,2,3,3,0,-8.06,4.95,-1.46,-2.65,-0.05,-0.54
12.2884818315506,2,3,3,0,-8.49,4.84,-1.25,-3.2,0.5600000000000001,-1.03
12.29848206043243,2,3,3,0,-8.640000000000001,4.63,-1.09,-3.81,1.06,-1.46
12.30848205089569,2,3,3,0,-8.630000000000001,4.3,-0.96,-4.44,1.5,-1.76
12.31848204135895,2,3,3,0,-8.83,3.59,-0.75,-4.82,2.06,-1.95
12.3284820318222,2,3,3,0,-8.99,3.19,-0.72,-5.05,2.65,-2.02
12.33848202228546,2,3,3,0,-9.17,2.83,-0.68,-5.05,3.13,-2.01
12.34848201274872,2,3,3,0,-9.26,2.72,-0.71,-4.94,3.52,-1.77
12.35848200321198,2,3,3,0,-9.289999999999999,2.54,-1,-4.78,3.9,-1.23
12.36848199367523,2,3,3,0,-9.35,2.7,-1.18,-4.76,4.21,-0.38
12.37848198413849,2,3,3,0,-9.24,2.8,-1.2,-4.84,4.34,0.2
12.38848197460175,2,3,3,0,-9.119999999999999,2.75,-1.26,-4.95,4.39,0.6
12.398481965065,2,3,3,0,-8.91,2.74,-1.03,-5.16,4.4,0.78
12.40848195552826,2,3,3,0,-8.92,2.69,-1.07,-5.29,4.4,0.8100000000000001
12.41848194599152,2,3,3,0,-9.109999999999999,2.81,-1.07,-5.32,4.36,0.73
12.42848193645477,2,3,3,0,-8.99,2.91,-1,-5.72,4.13,0.6
12.43848192691803,2,3,3,0,-8.99,2.47,-0.97,-5.91,3.86,0.39
12.44848191738129,2,3,3,0,-9.08,2.28,-0.88,-6.26,3.53,0.09
12.45848190784454,2,3,3,0,-9.15,2,-0.95,-6.39,3.05,-0.13
12.4684818983078,2,3,3,0,-9.289999999999999,1.71,-1.16,-6.54,2.7,-0.28
12.47848188877106,2,3,3,0,-9.42,1.42,-1.15,-6.39,2.4,-0.34
12.48848187923431,2,3,3,0,-9.43,1.4,-0.9399999999999999,-6.08,1.93,-0.01
12.49848186969757,2,3,3,0,-9.31,1.5,-1.15,-5.73,1.39,0.67
12.50848186016083,2,3,3,0,-9.31,1.62,-0.95,-5.33,1.07,1.46
12.51848185062408,2,3,3,0,-9.220000000000001,1.79,-0.92,-5.03,0.75,2.08
12.52848184108734,2,3,3,0,-9.16,1.93,-0.71,-4.84,0.33,2.7
12.5384818315506,2,3,3,0,-9.1,2,-0.51,-4.84,0.11,3.16
12.54848206043243,2,3,3,0,-9.050000000000001,2,-0.46,-4.77,0.02,3.38
12.55848205089569,2,3,3,0,-9,1.98,-0.52,-4.64,-0.03,3.34
12.56848204135895,2,3,3,0,-9.039999999999999,1.95,-0.64,-4.72,0.02,3.1
12.5784820318222,2,3,3,0,-9.039999999999999,2.02,-0.63,-4.77,0.1,2.77
12.58848202228546,2,3,3,0,-8.890000000000001,2.06,-0.66,-4.84,0.43,2.24
12.59848201274872,2,3,3,0,-8.91,1.88,-0.75,-5.01,0.9,1.59
12.60848200321198,2,3,3,0,-8.92,1.5,-0.98,-5.62,1.2,1.17
12.61848199367523,2,3,3,0,-8.92,1.18,-1.13,-6.34,1.55,0.91
12.62848198413849,2,3,3,0,-9.140000000000001,0.87,-1.68,-6.9,2.17,0.71
12.63848197460175,2,3,3,0,-9.289999999999999,0.77,-1.9,-7.16,2.88,0.65
12.648481965065,2,3,3,0,-9.470000000000001,0.73,-2.05,-7.16,3.58,0.65
12.65848195552826,2,3,3,0,-9.49,0.65,-1.94,-6.82,4.34,0.51
12.66848194599152,2,3,3,0,-9.48,0.58,-1.8,-6.4,5.56,0.2
12.67848193645477,2,3,3,0,-9.51,0.42,-1.59,-5.92,7.23,-0.18
12.68848192691803,2,3,3,0,-9.539999999999999,0.47,-1.48,-5.3,8.82,-0.4
12.69848191738129,2,3,3,0,-10.3,1.14,-1.53,-4.97,10.71,-0.36
12.70848190784454,2,3,3,0,-10.42,1.03,-1.9,-4.3,12.12,-0.51
12.7184818983078,2,3,3,0,-10.7,0.68,-2.17,-2.77,12.71,-0.93
12.72848188877106,2,3,3,0,-11.02,0.75,-2.08,-0.93,12.72,-1.42
12.73848187923431,2,3,3,0,-12.04,1.67,-1.81,1.16,12.48,-1.79
12.74848186969757,2,3,3,0,-12.83,2.62,-1.72,3.34,12.03,-2.06
12.75848186016083,2,3,3,0,-12.74,3.53,-2.07,4.87,9.43,-0.6899999999999999
12.76848185062408,2,3,3,0,-13.22,4.27,-1.89,5.77,7.04,-0.63
12.77848184108734,2,3,3,0,-13.19,6.44,-1.83,4.6,5.64,-0.57
12.7884818315506,2,3,3,0,-12.63,6.58,-1.7,3.37,4.3,-0.58
12.79848206043243,2,3,3,0,-11.84,6.39,-1.53,2.6,3.9,-0.71
12.80848205089569,2,3,3,0,-10.37,6.3,-1.17,2.5,3.89,-0.64
12.81848204135895,2,3,3,0,-9.609999999999999,6.31,-1.1,3.04,3.73,-0.38
12.8284820318222,2,3,3,0,-8.9,6.28,-1,3.75,3.17,-0.06
12.83848202228546,2,3,3,0,-8.33,6.16,-0.96,4.48,2.11,-0.06
12.84848201274872,2,3,3,0,-7.84,5.94,-1.06,4.8,1,-0.41
12.86848199367523,2,3,3,0,-8.27,5.67,-1.35,3.48,-0.42,-2.81
12.87848198413849,2,3,3,0,-8.609999999999999,5.32,-1.82,2.34,-0.55,-4.15
12.88848197460175,2,3,3,0,-9.75,4.06,-1.48,1.18,-0.6899999999999999,-5.57
12.898481965065,2,3,3,0,-10.29,3.78,-1.35,0.12,-1.09,-6.51
12.90848195552826,2,3,3,0,-10.67,3.44,-1.09,-0.74,-1.56,-7.19
12.91848194599152,2,3,3,0,-10.91,3.06,-1.01,-1.07,-2.57,-7.61
12.92848193645477,2,3,3,0,-10.33,2.65,-0.68,-0.09,-3.41,-7.34
12.93848192691803,2,3,3,0,-9.9,2.27,-0.45,1.25,-4.16,-6.46
12.94848191738129,2,3,3,0,-9.65,1.92,-0.45,2.62,-5.03,-5.08
12.95848190784454,2,3,3,0,-8.83,1.72,-0.6,3.88,-5.78,-3.23
12.9684818983078,2,3,3,0,-8.48,1.56,-0.74,5.28,-6.28,-1.68
12.98848187923431,2,3,3,0,-8.43,1.8,-0.88,7.64,-6.52,-0.35
12.99848186969757,2,3,3,0,-8.08,1.79,-0.6899999999999999,7.96,-6.61,-0.29
13.00848186016083,2,3,3,0,-7.89,1.85,-0.49,8.029999999999999,-6.25,-0.19
13.01848185062408,2,3,3,0,-7.58,2.01,-0.44,7.64,-6.03,0.14
13.02848184108734,2,3,3,0,-7.35,2.02,-0.38,7.26,-5.49,0.65
13.0384818315506,2,3,3,0,-7.98,1.88,-0.18,6.5,-4.43,1.32
13.04848206043243,2,3,3,0,-8.300000000000001,1.82,-0.01,5.82,-3.7,1.52
13.05848205089569,2,3,3,0,-7.97,1.67,-0.16,5.44,-3.74,1.27
13.06848204135895,2,3,3,0,-7.23,1.45,-0.46,5.83,-3.45,1.37
13.0784820318222,2,3,3,0,-7.27,1.24,0.04,6.46,-1.56,1.78
13.08848202228546,2,3,3,0,-7.28,1.35,0.11,6.48,-0.32,1.9
13.09848201274872,2,3,3,0,-7.41,1.38,0.04,6.25,0.16,1.81
13.10848200321198,2,3,3,0,-7.92,1.34,-0.12,5.83,0.61,1.66
13.11848199367523,2,3,3,0,-8.01,1.22,-0.14,5.26,0.79,1.47
13.12848198413849,2,3,3,0,-8.039999999999999,0.95,-0.21,4.58,0.92,1.33
13.13848197460175,2,3,3,0,-8.19,0.63,-0.21,4.1,1.16,1.29
13.148481965065,2,3,3,0,-8.43,0.14,-0.14,3.64,1.3,1.22
13.15848195552826,2,3,3,0,-8.279999999999999,-0.06,-0.38,3.34,0.67,1.22
13.16848194599152,2,3,3,0,-8.550000000000001,-0.25,-0.62,3.96,0.72,1.5
13.17848193645477,2,3,3,0,-9.01,-0.25,-0.62,4.64,1.26,1.55
13.18848192691803,2,3,3,0,-9.800000000000001,0.17,-0.48,4.78,1.18,1.13
13.19848191738129,2,3,3,0,-10.08,0.64,-0.44,5.12,0.21,0.63
13.20848190784454,2,3,3,0,-10.18,1.25,-0.41,5.94,-1.21,0.37
13.22848188877106,2,3,3,0,-11,2.27,-0.85,8.039999999999999,-1.53,0.62
13.23848187923431,2,3,3,0,-11.04,2.26,-0.9399999999999999,8.83,-1.4,1.24
13.24848186969757,2,3,3,0,-11.01,1.97,-0.77,9.75,-1.23,2.04
13.25848186016083,2,3,3,0,-11.63,2.15,-0.59,10.37,-0.46,2.61
13.26848185062408,2,3,3,0,-11.98,2.28,-0.97,10.36,-1.01,2.77
13.27848184108734,2,3,3,0,-12.9,2.89,-1.09,10.53,-2.72,2.85
13.2884818315506,2,3,3,0,-13.88,4.15,-1.63,9.710000000000001,-4.88,2.59
13.29948198795319,2,3,3,0,-14.4,5.45,-1.61,8.289999999999999,-7.59,1.56
13.30948197841644,2,3,3,0,-13.99,5.49,-0.8,5.68,-9.01,0.03
13.3194819688797,2,3,3,0,-13.12,5.18,-0.37,2.13,-10.4,-1.15
13.32948195934296,2,3,3,0,-11.83,5.1,-1.6,-0.33,-13.1,-1.82
13.33948194980621,2,3,3,0,-11.14,1.72,0.92,0.28,-12.9,-1.79
13.34948194026947,2,3,3,0,-11.16,2,2,-1.14,-9.300000000000001,-1.81
13.35948193073273,2,3,3,0,-9.99,2.53,0.91,-4.34,-9.26,-1.89
13.36948192119598,2,3,3,0,-10.01,2.12,1.47,-3.45,-8.9,-1.2
13.37948191165924,2,3,3,0,-8.9,2.38,0.5600000000000001,-3.74,-7.49,-0.71
13.3894819021225,2,3,3,0,-8.74,3.31,-0.01,-4.41,-6.19,0.19
13.39948189258575,2,3,3,0,-9.220000000000001,4.5,-0.6899999999999999,-3.65,-5.45,1.56
13.40948188304901,2,3,3,0,-9.16,5.58,-1.24,-3.89,-4.79,2.36
13.41948187351227,2,3,3,0,-8.67,5.71,-2.13,-4.52,-4.01,2.39
13.42948186397552,2,3,3,0,-8.65,5.41,-2.25,-5.17,-2.7,2.39
13.43948185443878,2,3,3,0,-8.720000000000001,4.98,-2.14,-5.3,-1.07,2.73
13.44948184490204,2,3,3,0,-7.98,3.83,-1.1,-5.14,0.21,2.99
13.4594818353653,2,3,3,0,-7.45,3.44,-0.51,-4.67,0.83,3.07
13.46948182582855,2,3,3,0,-7.28,3.44,-0.42,-4.16,0.85,3.18
13.47948205471039,2,3,3,0,-7.3,3.57,-0.13,-3.27,0.78,3
13.48948204517365,2,3,3,0,-7.42,4.27,-0.34,-2.28,0.88,2.52
13.4994820356369,2,3,3,0,-7.61,4.2,-0.6899999999999999,-1.66,1.43,1.87
13.50948202610016,2,3,3,0,-7.84,4.09,-0.96,-1.39,2.22,1.09
13.51948201656342,2,3,3,0,-7.96,3.98,-1.21,-1.4,3,0.42
13.52948200702667,2,3,3,0,-8.07,4,-1.27,-1.73,3.83,0.03
13.53948199748993,2,3,3,0,-8.18,4.03,-1.41,-2.65,4.5,0.02
13.54948198795319,2,3,3,0,-8.210000000000001,3.79,-1.48,-3.76,5.05,-0.22
13.55948197841644,2,3,3,0,-8.17,3.44,-1.47,-4.96,5.52,-0.41
13.5694819688797,2,3,3,0,-8.24,2.98,-1.68,-6.05,5.61,-0.41
13.57948195934296,2,3,3,0,-8.23,2.85,-1.68,-6.81,5.54,-0.49
13.58948194980621,2,3,3,0,-8.07,2.67,-1.69,-7.26,5.18,-0.5
13.59948194026947,2,3,3,1,-7.97,2.08,-1.66,-7.47,4.87,-0.42
13.60948193073273,2,3,3,1,-8.07,2.03,-1.78,-7.58,4.4,-0.06
13.61948192119598,2,3,3,1,-8.09,1.99,-1.8,-7.37,3.77,0.4
13.62948191165924,2,3,3,1,-8.210000000000001,2.06,-1.69,-6.97,3.34,0.53
13.6394819021225,2,3,3,1,-8.59,1.89,-1.65,-6.39,2.76,0.5600000000000001
13.64948189258575,2,3,3,1,-8.77,1.78,-1.59,-5.86,1.89,0.39
13.65948188304901,2,3,3,1,-8.98,1.63,-1.5,-5.46,1.18,0.39
13.66948187351227,2,3,3,1,-8.98,1.29,-1.58,-5.17,0.48,0.4
13.67948186397552,2,3,3,1,-9.19,0.88,-1.24,-4.78,0.12,0.63
13.68948185443878,2,3,3,1,-9.23,0.79,-1.11,-4.68,-0.05,1.31
13.69948184490204,2,3,3,1,-9.140000000000001,0.6899999999999999,-1.09,-4.51,-0.22,2.22
13.7094818353653,2,3,3,1,-8.970000000000001,0.58,-1.23,-4.26,-0.45,3.29
13.71948182582855,2,3,3,1,-8.9,0.84,-1.31,-3.96,-0.42,4.35
13.72948205471039,2,3,3,1,-9.039999999999999,1.23,-1.14,-3.59,-0.34,5.14
13.73948204517365,2,3,3,1,-9.15,1.74,-0.9,-3.13,-0.36,5.64
13.7494820356369,2,3,3,1,-9.140000000000001,2.47,-0.84,-2.77,-0.21,5.75
13.75948202610016,2,3,3,1,-9.02,2.73,-0.72,-2.56,0.09,5.36
13.76948201656342,2,3,3,1,-8.789999999999999,3,-0.75,-2.31,0.34,4.49
13.77948200702667,2,3,3,1,-8.73,3.21,-0.85,-2.48,0.47,3.7
13.78948199748993,2,3,3,1,-8.68,3,-1.26,-3.05,0.97,2.91
13.79948198795319,2,3,3,1,-8.66,2.64,-1.51,-4.06,1.62,1.81
13.80948197841644,2,3,3,1,-8.83,2.19,-1.66,-5.31,2.82,0.88
13.8194819688797,2,3,3,1,-9.07,1.65,-1.93,-6.3,4.4,0.23
13.82948195934296,2,3,3,1,-9.5,0.63,-1.72,-6.69,5.76,-0.14
13.83948194980621,2,3,3,1,-9.48,0.5,-1.32,-6.27,6.26,-0.4
13.84948194026947,2,3,3,1,-9.42,0.5,-0.96,-5.66,6.43,-0.28
13.85948193073273,2,3,3,1,-9.619999999999999,0.57,-0.8,-5.23,7.38,-0.02
13.86948192119598,2,3,3,1,-10.24,1.44,-0.9,-4.86,8.58,0.31
13.87948191165924,2,3,3,1,-10.69,1.95,-0.5600000000000001,-4.7,10.4,0.59
13.8894819021225,2,3,3,1,-10.88,1.98,-0.71,-4.95,12.49,0.41
13.89948189258575,2,3,3,1,-10.88,1.98,-0.71,-1.78,13.34,-0.64
13.90948188304901,2,3,3,1,-11.16,1.75,-1.51,-1.78,13.34,-0.64
13.91948187351227,2,3,3,1,-12.49,2.68,-2.09,0.37,13.05,-1.13
13.92948186397552,2,3,3,1,-13.01,3.81,-2.52,2.57,11.61,-1.46
13.93948185443878,2,3,3,1,-13.11,5.77,-3.94,7.09,5.52,-1.06
13.94948184490204,2,3,3,1,-13.11,5.77,-3.94,6.94,4.32,-1.23
13.9594818353653,2,3,3,1,-11.74,8.01,-3.6,6.94,4.32,-1.23
13.96948182582855,2,3,3,1,-10.69,8.92,-2.9,1.18,6.33,-2.5
13.97948205471039,2,3,3,1,-8.970000000000001,8.9,-1.43,-2.01,6.86,-3.21
13.98948204517365,2,3,3,1,-8.35,8.09,-0.99,-3.83,6.23,-3.99
13.9994820356369,2,3,3,1,-8.35,8.09,-0.99,-4.09,4.78,-4.96
14.00948202610016,2,3,3,1,-8.06,7.09,-0.8100000000000001,-3.44,2.83,-6.03
14.01948201656342,2,3,3,1,-9.69,4.91,-1.59,-2.12,0.85,-7.02
14.02948200702667,2,3,3,1,-10.35,4.3,-2.09,-0.88,-0.24,-7.52
14.03948199748993,2,3,3,1,-11.21,3.76,-2.22,-0.27,-0.79,-7.41
14.04948198795319,2,3,3,1,-11.21,3.76,-2.22,-0.27,-0.79,-7.41
14.05948197841644,2,3,3,1,-11.96,2.91,-2.01,0.51,-1.96,-5.95
14.0694819688797,2,3,3,1,-11.89,2.35,-1.69,0.79,-2.55,-5.08
14.07948195934296,2,3,3,1,-11.32,1.98,-1.44,1.73,-3.65,-4.19
14.08948194980621,2,3,3,1,-10.04,1.11,-0.9,3.27,-5.17,-3.01
14.09948194026947,2,3,3,1,-10.04,1.11,-0.9,3.27,-5.17,-3.01
14.10948193073273,2,3,3,1,-9.25,0.9,-0.8100000000000001,5.09,-6.79,-1.63
14.11948192119598,2,3,3,1,-7.72,1.26,-0.8,9.9,-8.77,-0.18
14.12948191165924,2,3,3,1,-7.31,1.76,-0.9,11.73,-9.17,0.19
14.1394819021225,2,3,3,1,-7.21,2.21,-0.98,12.28,-8.6,0.72
14.14948189258575,2,3,3,2,-7.21,2.21,-0.98,12.28,-8.6,0.72
14.15948188304901,2,3,3,2,-7.25,2.45,-1.05,12.54,-8.01,0.67
14.16948187351227,2,3,3,2,-6.91,2.56,-0.87,11.03,-6.97,0.72
14.17948186397552,2,3,3,2,-6.94,2.57,-0.75,10.1,-5.98,0.9399999999999999
14.18948185443878,2,3,3,2,-7.09,2.49,-0.74,9.27,-4.72,1.13
14.19948184490204,2,3,3,2,-7.09,2.49,-0.74,9.27,-4.72,1.13
14.2094818353653,2,3,3,2,-7.29,2.32,-0.64,8.630000000000001,-3.33,1.08
14.21948182582855,2,3,3,2,-7.7,1.73,-0.25,7.49,-1.28,0.88
14.22948205471039,2,3,3,2,-7.7,1.73,-0.25,7.39,-0.75,1.31
14.23948204517365,2,3,3,2,-7.66,1.65,-0.26,7.69,0.12,2.05
14.25048196315765,2,3,3,1,-7.18,1.55,-0.22,7.69,0.12,2.05
14.25948202610016,2,3,3,1,-7.31,1.54,0.09,7.75,1.15,2.7
14.26948201656342,2,3,3,1,-7.18,1.4,0,6.42,1.4,3.39
14.28048193454742,2,3,3,1,-7,1.51,-0.22,5.67,1.79,3.5
14.28948199748993,2,3,3,1,-7.14,1.35,-0.36,4.66,2.25,3.38
14.29948198795319,2,3,3,1,-7.42,1.35,-0.23,4.66,2.25,3.38
14.31048190593719,2,3,3,1,-7.75,1.26,-0.15,3.69,2.25,3.02
14.32048189640045,2,3,3,1,-8.050000000000001,1.2,-0.12,3.01,1,1.82
14.33048188686371,2,3,3,1,-8.58,1.02,-0.49,3.71,0.35,1.14
14.34048187732697,2,3,3,1,-9.02,0.74,-0.97,4.07,-0.16,0.14
14.35048186779022,2,3,3,1,-9.77,0.45,-1.31,4.07,-0.16,0.14
14.36048185825348,2,3,3,1,-10.58,0.61,-1.6,3.89,-1.5,-0.9399999999999999
14.37048184871674,2,3,3,1,-11.21,1.73,-2.06,6.28,-1.85,-1.24
14.38048183917999,2,3,3,1,-11.58,2.13,-1.95,7.75,-1.2,-0.46
14.39048182964325,2,3,3,1,-12.15,2.34,-1.43,9.4,-1.53,0.89
14.40048205852509,2,3,3,1,-11.64,1.66,-0.8100000000000001,9.4,-1.53,0.89
14.41048204898834,2,3,3,1,-11.39,1,-0.5,10.57,-1.01,2.1
14.4204820394516,2,3,3,1,-11.34,0.4,-0.21,10.45,-1.46,2.93
14.43048202991486,2,3,3,1,-11.41,0.09,-0.15,9.75,-4.48,2.56
14.44048202037811,2,3,3,1,-13.63,1.74,-0.87,8.99,-8.01,1.47
14.45048201084137,2,3,3,1,-14.52,2.95,-0.87,8.99,-8.01,1.47
14.46048200130463,2,3,3,1,-14.89,4.18,-1.1,7.09,-11.6,0.22
14.47048199176788,2,3,3,1,-14.25,4.6,-1.19,2.28,-14.53,-1.57
14.4904819726944,2,3,3,1,-10.28,5.02,-1.26,-0.98,-12.22,-0.6899999999999999
14.50048196315765,2,3,3,1,-9.74,4.89,-1.3,-0.98,-12.22,-0.6899999999999999
14.51048195362091,2,3,3,1,-10.74,4.59,0.06,-3.8,-10.81,-0.83
14.52048194408417,2,3,3,1,-11.16,6.56,0.45,-7.88,-10.39,-1.08
14.53048193454742,2,3,3,1,-11.09,5.59,0.96,-10.14,-8.18,-1.3
14.54048192501068,2,3,3,1,-9.890000000000001,4.42,0.8100000000000001,-10.54,-5.9,-1.09
14.55048191547394,2,3,3,1,-7.93,2.82,-0.14,-10.54,-5.9,-1.09
14.56048190593719,2,3,3,1,-7.51,3.42,-0.91,-9.65,-4.09,-0.61
14.57048189640045,2,3,3,1,-7.53,4.13,-1.59,-6.67,-2.5,0.9399999999999999
14.58048188686371,2,3,3,1,-7.27,4.59,-2.14,-5.55,-2.19,1.53
14.59048187732697,2,3,3,1,-7.78,4.94,-2.28,-4.23,-1.15,1.73
14.60048186779022,2,3,3,1,-8.33,4.84,-2.16,-4.23,-1.15,1.73
14.61048185825348,2,3,3,1,-8.67,4.81,-1.89,-3.44,0,2.27
14.62048184871674,2,3,3,1,-8.720000000000001,4.74,-1.47,-3.36,1.35,3.23
14.63048183917999,2,3,3,1,-7.53,4.56,-0.46,-3.33,2.3,3.65
14.64048182964325,2,3,3,1,-7.43,4.53,-0.22,-3.32,3.08,3.53
14.65048205852509,2,3,3,1,-7.21,4.55,-0.25,-3.32,3.08,3.53
14.66048204898834,2,3,3,1,-6.91,4.38,-0.29,-3.27,3.61,2.85
14.6704820394516,2,3,3,1,-7.3,4.52,-0.8100000000000001,-3.87,5.31,0.92
14.68048202991486,2,3,3,1,-7.41,4.42,-1.12,-5.09,5.86,0.26
14.69048202037811,2,3,3,1,-7.79,4.45,-1.29,-6.49,6.63,-0.48
14.70048201084137,2,3,3,1,-8.130000000000001,4.04,-1.58,-6.49,6.63,-0.48
14.71048200130463,2,3,3,1,-8.06,3.92,-1.68,-8.19,7.19,-0.48
14.72048199176788,2,3,3,1,-7.98,3.58,-1.56,-9.81,7.27,-0.5
14.73048198223114,2,3,3,1,-7.92,3.34,-1.72,-11.4,7.21,-0.41
14.7404819726944,2,3,3,1,-8.01,2.57,-1.78,-12.57,7.16,-0.2
14.75048196315765,2,3,3,1,-7.98,2.1,-1.75,-13.11,6.92,-0.01
14.76048195362091,2,3,3,1,-8.140000000000001,1.73,-1.78,-13.08,6.46,0.18
14.77048194408417,2,3,3,1,-8.15,1.57,-1.76,-12.46,5.88,0.18
14.78048193454742,2,3,3,1,-8.470000000000001,1.46,-1.65,-11.37,5.11,0.16
14.79048192501068,2,3,3,1,-8.609999999999999,1.5,-1.5,-10.16,4.27,0.06
14.80048191547394,2,3,3,1,-8.869999999999999,1.46,-1.4,-9.23,3.46,0.04
14.81048190593719,2,3,3,1,-8.890000000000001,1.37,-1.39,-8.27,2.89,0.45
14.82048189640045,2,3,3,1,-8.9,1.48,-1.32,-7.46,2.43,1.04
14.83048188686371,2,3,3,1,-9.08,1.54,-1.4,-6.89,2.09,1.82
14.84048187732697,2,3,3,1,-9.039999999999999,1.48,-1.36,-6.67,1.81,3
14.85048186779022,2,3,3,1,-9.220000000000001,1.35,-1.53,-6.56,1.92,3.99
14.86048185825348,2,3,3,1,-9.210000000000001,1.41,-1.43,-6.37,1.92,4.51
14.87048184871674,2,3,3,1,-9.09,1.51,-1.4,-6.12,1.7,4.59
14.88048183917999,2,3,3,1,-9.029999999999999,1.68,-1.46,-5.7,1.47,4.28
14.89048182964325,2,3,3,1,-9.25,2.03,-1.3,-5.31,1.24,3.44
14.90048205852509,2,3,3,1,-9.09,2.29,-1.13,-4.94,0.8,2.4
14.91048204898834,2,3,3,1,-8.99,2.44,-0.96,-5.01,0.88,1.48
14.9204820394516,2,3,3,1,-8.800000000000001,2.55,-0.83,-5.5,1.35,0.73
14.93048202991486,2,3,3,1,-8.74,2.42,-1.24,-6.62,2.2,0.21
14.94048202037811,2,3,3,1,-8.949999999999999,1.98,-1.34,-7.95,3.3,-0.16
14.95048201084137,2,3,3,1,-9.34,1.32,-1.63,-8.77,4.22,-0.32
14.96048200130463,2,3,3,1,-9.67,0.58,-1.78,-8.630000000000001,4.53,-0.17
14.97048199176788,2,3,3,1,-9.9,-0.15,-1.53,-7.84,4.24,-0.06
14.98048198223114,2,3,3,1,-9.960000000000001,-0.3,-1.63,-6.64,3.72,0.02
14.9904819726944,2,3,3,1,-9.970000000000001,-0.45,-1.56,-5.69,3.81,0.01
15.00048196315765,2,3,3,1,-10.03,-0.43,-1.49,-5.94,5.37,0.1
15.01048195362091,2,3,3,1,-10.73,-0.29,-1.39,-6.04,7.91,0.24
15.02048194408417,2,3,3,1,-11.06,-0.33,-1.48,-5.29,10.34,0.22
15.03048193454742,2,3,3,1,-11.16,-0.55,-1.8,-3.36,11.54,0.34
15.04048192501068,2,3,3,1,-10.8,0.74,-1.93,-0.27,11.67,0.73
15.05048191547394,2,3,3,1,-10.82,1.85,-2.11,2.8,11.52,1.17
15.06048190593719,2,3,3,1,-11.14,3.01,-1.92,4.78,12,1.22
15.07048189640045,2,3,3,1,-11.52,4.43,-1.7,5.91,11.66,0.76
15.08048188686371,2,3,3,1,-11.28,6.81,-1.97,7.08,9.119999999999999,-0.03
15.09048187732697,2,3,3,1,-11.1,7.72,-2.35,7.97,6.6,-0.67
15.10048186779022,2,3,3,1,-10.92,8.470000000000001,-2.55,7.73,5.5,-1.53
15.11048185825348,2,3,3,0,-10.57,9.25,-2.34,5.86,5.73,-2.71
15.12048184871674,2,3,3,0,-9.31,9.82,-1.48,2.76,6.59,-3.92
15.13048183917999,2,3,3,0,-8.779999999999999,9.27,-1.25,-0.57,7.19,-4.86
15.14048182964325,2,3,3,0,-8.390000000000001,8.220000000000001,-1.07,-3.24,6.87,-5.74
15.15048205852509,2,3,3,0,-8.44,6.97,-1.02,-4.42,5.9,-6.67
15.16048204898834,2,3,3,0,-9.890000000000001,5.19,-1.06,-4.37,4.17,-7.9
15.1704820394516,2,3,3,0,-10.87,4.53,-1.29,-3.48,1.73,-9.07
15.18048202991486,2,3,3,0,-11.59,4.12,-2.03,-2.2,-0.19,-9.369999999999999
15.19048202037811,2,3,3,0,-13.02,2.95,-2.01,-0.67,-1.48,-8.66
15.21048200130463,2,3,3,0,-13.63,2.57,-1.8,0.03,-3.76,-5.56
15.22048199176788,2,3,3,0,-12.98,2.53,-1.58,-0.07000000000000001,-5.4,-4.21
15.23048198223114,2,3,3,0,-11,1.63,-1.47,0.9399999999999999,-6.53,-2.67
15.2404819726944,2,3,3,0,-10.22,1.22,-1.15,2.5,-7.51,-1.05
15.25048196315765,2,3,3,0,-9.119999999999999,1.06,-0.99,4.15,-8.630000000000001,-0.18
15.26048195362091,2,3,3,0,-8.34,0.93,-0.89,6.24,-9.76,-0.14
15.27048194408417,2,3,3,0,-8.039999999999999,1.07,-0.87,8.25,-10.32,-0.16
15.28048193454742,2,3,3,0,-7.57,1.25,-1.01,9.99,-10.91,-0.31
15.29048192501068,2,3,3,0,-6.92,1.38,-1.04,11.38,-10.91,-0.16
15.30048191547394,2,3,3,0,-6.42,1.45,-0.78,11.92,-9.44,0.24
15.31048190593719,2,3,3,0,-6.11,1.87,-0.67,11.48,-7.8,0.72
15.32048189640045,2,3,3,0,-6.12,1.84,-0.62,10.69,-6.63,1.35
15.33048188686371,2,3,3,0,-6.3,1.79,-0.64,9.81,-5.35,1.54
15.3414820432663,2,3,3,0,-6.62,1.45,-0.39,8.92,-4.02,1.22
15.35148203372955,2,3,3,0,-6.57,1.24,-0.36,8.16,-2.92,0.84
15.36148202419281,2,3,3,0,-6.3,1.06,-0.44,7.59,-1.78,0.77
15.37148201465607,2,3,3,0,-6.44,0.9399999999999999,-0.27,7.44,0.08,0.99
15.38148200511932,2,3,3,0,-7.07,0.72,-0.28,6.99,1.5,1.35
15.39148199558258,2,3,3,0,-7.24,0.66,-0.3,6.46,2.18,1.68
15.40148198604584,2,3,3,0,-7.45,0.58,-0.35,6.09,2.79,2.14
15.41148197650909,2,3,3,0,-7.73,0.53,-0.25,5.89,3.46,2.69
15.42148196697235,2,3,3,0,-8.51,0.6899999999999999,0,5.3,3.37,3.05
15.43148195743561,2,3,3,0,-8.460000000000001,0.82,-0.24,4.57,1.79,3.18
15.44148194789886,2,3,3,0,-8.24,0.79,-0.73,4.55,-0.01,3.28
15.45148193836212,2,3,3,0,-8.5,0.65,-0.8,5.44,-0.6,3.13
15.46148192882538,2,3,3,0,-9.68,0.87,-0.61,5.64,-0.93,2.35
15.47148191928864,2,3,3,0,-10.23,1.3,-0.68,5.83,-1.72,0.84
15.48148190975189,2,3,3,0,-10.63,1.79,-1.01,6.35,-2.63,-0.72
15.49148190021515,2,3,3,0,-11.14,2.41,-1.54,7.55,-3.73,-1.41
15.50148189067841,2,3,3,0,-11.78,2.54,-1.68,9.539999999999999,-3.74,-1.14
15.51148188114166,2,3,3,0,-12.54,2.69,-1.24,10.69,-2.15,-0.63
15.52148187160492,2,3,3,0,-12.32,2.59,-0.58,9.869999999999999,-1.71,-0.08
15.53148186206818,2,3,3,0,-10.96,1.31,-0.12,8.890000000000001,-2.18,0.78
15.54148185253143,2,3,3,0,-11.16,0.77,-0.02,8.42,-1.94,1.89
15.55148184299469,2,3,3,0,-11.94,0.98,-0.11,7.42,-2.44,2.52
15.56148183345795,2,3,3,0,-12.43,1.37,-0.16,6.27,-5.16,2.45
15.5714818239212,2,3,3,0,-13.66,3.34,-0.98,5.43,-7.92,1.93
15.58148205280304,2,3,3,0,-13.64,3.99,-1.15,4.25,-10.08,0.7
15.5914820432663,2,3,3,0,-12.8,4,-1.6,2.74,-12.82,-0.25
15.60148203372955,2,3,3,0,-11.67,4.3,-1.95,1.54,-13.81,-0.89
15.61148202419281,2,3,3,0,-11.28,4.66,-0.96,0.29,-12.78,-1.27
15.62148201465607,2,3,3,0,-11.96,5.12,-0.14,-2.15,-11.27,-1.93
15.63148200511932,2,3,3,0,-11.79,6.25,-0.02,-4.52,-11.83,-2.73
15.64148199558258,2,3,3,0,-10.88,4.89,0.77,-5.74,-11.52,-2
15.65148198604584,2,3,3,0,-9.4,3.83,0.47,-7.98,-8.65,-1.71
15.66148197650909,2,3,3,0,-8.26,3.2,0.01,-8.130000000000001,-6.64,-0.53
15.67148196697235,2,3,3,0,-7.53,3.87,-0.75,-7.57,-4.98,0.71
15.68148195743561,2,3,3,0,-7.13,4.7,-1.73,-6.22,-3.58,1.69
15.69148194789886,2,3,3,0,-7.14,4.74,-1.56,-5.11,-2.98,1.84
15.70148193836212,2,3,3,0,-7.41,4.81,-1.49,-4,-3.05,1.65
15.71148192882538,2,3,3,0,-7.92,4.92,-1.7,-3.09,-2.46,1.67
15.72148191928864,2,3,3,0,-8.710000000000001,4.89,-1.5,-2.33,-1.07,1.62
15.73148190975189,2,3,3,0,-8.699999999999999,4.68,-1.25,-2.11,0.67,1.94
15.74148190021515,2,3,3,0,-8.43,4.45,-0.78,-2.11,2.24,2.29
15.75148189067841,2,3,3,0,-8.06,4.34,-0.57,-2.53,3.29,2.51
15.76148188114166,2,3,3,0,-7.84,4.27,-0.37,-2.82,3.92,2.17
15.77148187160492,2,3,3,0,-7.62,4.21,-0.6,-3.01,4.62,1.52
15.78148186206818,2,3,3,0,-7.46,4.15,-0.66,-3.45,5.05,0.78
15.79148185253143,2,3,3,0,-7.8,4.19,-0.89,-4.4,5.42,0.29
15.80148184299469,2,3,3,0,-8.26,4.02,-1.38,-5.57,5.94,-0.3
15.81148183345795,2,3,3,0,-8.25,4.02,-1.61,-6.92,6.23,-0.72
15.8214818239212,2,3,3,0,-8.029999999999999,3.75,-1.61,-8.449999999999999,6.56,-0.87
15.83148205280304,2,3,3,0,-7.9,2.97,-1.77,-9.75,6.58,-0.95
15.8414820432663,2,3,3,0,-7.76,2.4,-1.61,-10.75,6.63,-1.02
15.85148203372955,2,3,3,0,-7.79,2.02,-1.48,-11.53,6.58,-1.02
15.86148202419281,2,3,3,0,-7.89,1.63,-1.46,-11.45,6.29,-0.89
15.87148201465607,2,3,3,0,-8.09,1.15,-1.48,-10.98,5.74,-0.64
15.88148200511932,2,3,3,0,-8.289999999999999,0.91,-1.6,-10.12,4.9,-0.48
15.89148199558258,2,3,3,0,-8.619999999999999,0.78,-1.62,-9.130000000000001,4.12,-0.33
15.90148198604584,2,3,3,0,-8.98,0.62,-1.46,-8.130000000000001,3.21,-0.19
15.91148197650909,2,3,3,0,-9.33,0.38,-1.38,-7.1,2.07,0.19
15.92148196697235,2,3,3,0,-9.44,0.33,-1.31,-6.19,1.32,0.83
15.93148195743561,2,3,3,0,-9.369999999999999,0.28,-1.38,-5.88,0.55,1.68
15.94148194789886,2,3,3,0,-9.380000000000001,0.1,-1.43,-5.25,0.09,2.74
15.95148193836212,2,3,3,0,-9.15,0.21,-1.37,-4.85,-0.45,4.01
15.96148192882538,2,3,3,0,-9,0.53,-1.35,-4.39,-0.8,5.48
15.97148191928864,2,3,3,0,-8.99,0.83,-1.43,-3.6,-1.07,6.45
15.98148190975189,2,3,3,0,-8.9,1.21,-1.19,-2.59,-1.16,6.6
15.99148190021515,2,3,3,0,-8.85,1.41,-1.02,-1.83,-1.15,6.17
16.00148189067841,2,3,3,0,-8.970000000000001,1.66,-0.8,-1.42,-1.1,5.23
16.01148188114166,2,3,3,0,-9.1,1.93,-0.58,-1.33,-1.17,4.19
16.02148187160492,2,3,3,0,-9.07,2.33,-0.79,-1.51,-1.04,3.33
16.03148186206818,2,3,3,0,-8.85,2.39,-0.99,-2.1,-0.47,2.7
16.04148185253143,2,3,3,0,-8.77,2.38,-1.02,-3.13,0.57,2.34
16.05148184299469,2,3,3,0,-8.869999999999999,2.34,-1.16,-4.34,1.72,2.17
16.06148183345795,2,3,3,0,-9.49,1.22,-1.47,-5.02,2.72,1.95
16.0714818239212,2,3,3,0,-9.800000000000001,0.65,-1.46,-5.1,3.26,1.73
16.08148205280304,2,3,3,0,-9.970000000000001,0.37,-1.38,-4.31,3.16,1.47
16.0914820432663,2,3,3,0,-10,0.36,-1.19,-2.84,3.01,1.39
16.10148203372955,2,3,3,0,-9.94,0.91,-1.01,-1.71,3.18,1.6
16.11148202419281,2,3,3,0,-9.859999999999999,1.32,-1.02,-1.55,4.13,1.94
16.12148201465607,2,3,3,0,-9.890000000000001,1.66,-1.13,-2.6,6.25,2.18
16.13148200511932,2,3,3,0,-10.24,1.64,-1.73,-3.79,8.710000000000001,2.08
16.14148199558258,2,3,3,0,-10.42,1.49,-1.74,-4.6,10.82,1.63
16.15148198604584,2,3,3,0,-10.46,1.63,-1.54,-4.6,12.5,0.99
16.17148196697235,2,3,3,0,-11.13,3.37,-2.13,-2,13.01,-0.09
16.18148195743561,2,3,3,0,-11.36,4.1,-2.36,-0.96,12.77,-0.78
16.19148194789886,2,3,3,0,-11.85,4.97,-2.4,-0.25,12.35,-1.49
16.20148193836212,2,3,3,0,-12.28,6.09,-2.37,1.07,10.48,-2.07
16.21148192882538,2,3,3,0,-11.6,7.75,-2.76,2.85,7.32,-2.1
16.22148191928864,2,3,3,0,-10.87,8.289999999999999,-2.58,4.11,5.27,-2.08
16.23148190975189,2,3,3,0,-10.03,8.85,-1.98,3.3,5.1,-2.5
16.24148190021515,2,3,3,0,-9.26,8.93,-1.54,0.59,5.43,-3.27
16.25148189067841,2,3,3,0,-8.24,6.97,-1.43,-2.52,5.34,-4.14
16.26148188114166,2,3,3,0,-8.41,5.82,-1.37,-5.03,5.06,-5.02
16.27148187160492,2,3,3,0,-9.17,4.75,-1.23,-6.43,4.68,-6.31
16.28148186206818,2,3,3,0,-11.37,3.54,-1.31,-6.19,3.68,-7.94
16.29148185253143,2,3,3,0,-12.17,3.34,-1.36,-4.82,1.77,-9.26
16.30148184299469,2,3,3,0,-12.74,3.05,-1.35,-2.78,-0.14,-9.77
16.31148183345795,2,3,3,0,-12.79,2.93,-1.42,-0.73,-2.06,-9.18
16.3214818239212,2,3,3,0,-12.58,2.59,-2.03,1.23,-3.66,-7.67
16.33148205280304,2,3,3,0,-12.18,2.37,-2.06,2.62,-4.58,-5.75
16.3414820432663,2,3,3,0,-11.5,1.99,-1.8,3.24,-4.79,-4.03
16.35148203372955,2,3,3,0,-10.64,1.78,-1.4,3.43,-5.38,-2.66
16.36148202419281,2,3,3,0,-8.77,1.56,-1.11,3.83,-6.47,-1.48
16.37248194217682,2,3,3,0,-7.68,1.46,-0.89,5.04,-7.76,-0.62
16.38248193264008,2,3,3,0,-7.31,1.41,-0.82,7.23,-8.220000000000001,-0.04
16.39248192310333,2,3,3,0,-7.52,1.44,-0.86,9.18,-8.06,-0.01
16.40248191356659,2,3,3,0,-6.89,1.6,-0.67,10.51,-8.32,-0.31
16.41248190402985,2,3,3,0,-6.71,1.76,-0.65,11.23,-7.93,-0.41
16.4224818944931,2,3,3,0,-6.66,1.88,-0.6899999999999999,11.54,-7.11,-0.26
16.43248188495636,2,3,3,0,-6.43,1.68,-0.61,11.38,-6.03,0.08
16.44248187541962,2,3,3,0,-6.68,1.7,-0.49,10.98,-4.9,0.47
16.45248186588287,2,3,3,0,-6.93,1.69,-0.52,10.47,-3.56,0.85
16.46248185634613,2,3,3,0,-6.95,1.66,-0.44,10.28,-2.41,1.04
16.47248184680939,2,3,3,0,-7.07,1.57,-0.13,10.2,-1.19,1.08
16.48248183727264,2,3,3,0,-7.23,1.76,-0.23,9.859999999999999,-0.2,1.29
16.4924818277359,2,3,3,0,-7.14,1.78,-0.43,9.27,-0.1,1.58
16.50248205661774,2,3,3,0,-6.96,1.66,-0.43,9.039999999999999,-0.28,2.08
16.51248204708099,2,3,3,0,-7.25,1.45,-0.19,8.84,0.7,2.7
16.52248203754425,2,3,3,0,-7.57,1.5,-0.03,8.08,1.75,3.09
16.53248202800751,2,3,3,0,-8.01,1.46,0.03,6.82,2.17,2.94
16.54248201847076,2,3,3,0,-7.85,1.34,-0.16,5.73,1.26,2.88
16.55248200893402,2,3,3,0,-8.02,0.95,-0.63,5.47,0.12,3.19
16.56248199939728,2,3,3,0,-8.460000000000001,0.86,-0.76,5.58,-0.18,3.19
16.57248198986053,2,3,3,0,-8.75,0.95,-0.75,5.31,-0.32,2.37
16.58248198032379,2,3,3,0,-9.029999999999999,0.98,-1.11,5.01,-0.7,1.21
16.59248197078705,2,3,3,0,-10.08,0.5,-1.72,5.56,-1.04,0.09
16.60248196125031,2,3,3,0,-10.62,0.49,-1.74,5.97,-1.21,-1.07
16.61248195171356,2,3,3,0,-10.62,0.49,-1.74,6.4,-1.84,-1.99
16.62248194217682,2,3,3,0,-10.77,0.72,-1.52,7.49,-2.41,-1.86
16.63248193264008,2,3,3,0,-11.9,1.45,-1.09,9.050000000000001,-1.89,-0.97
16.64248192310333,2,3,3,0,-11.74,1.46,-0.89,10.04,-1.7,0.07000000000000001
16.65248191356659,2,3,3,0,-11.39,1.21,-0.76,10.76,-2.18,1.34
16.66248190402985,2,3,3,0,-11.39,1.21,-0.76,11.38,-1.71,2.25
16.6724818944931,2,3,3,0,-11.15,0.7,0,11.17,-1.05,2.71
16.68248188495636,2,3,3,0,-12.98,2.11,-0.34,10.51,-1.46,3.15
16.69248187541962,2,3,3,0,-14.06,3.41,-0.3,8.82,-4,3.01
16.70248186588287,2,3,3,0,-13.77,5.06,-1.28,7,-7.99,2.63
16.71248185634613,2,3,3,0,-13.77,5.06,-1.28,7,-7.99,2.63
16.72248184680939,2,3,3,0,-13.03,4.7,-1.96,2.59,-11.62,1.22
16.73248183727264,2,3,3,0,-10.78,4.58,-1.4,-0.95,-11.34,-0.27
16.7424818277359,2,3,3,0,-11.33,5.09,-1.26,-2.86,-11.84,-0.64
16.75248205661774,2,3,3,0,-11.7,6.31,-0.9,-5.37,-12.99,-0.6899999999999999
16.76248204708099,2,3,3,0,-11.7,6.31,-0.9,-5.37,-12.99,-0.6899999999999999
16.77248203754425,2,3,3,0,-11.41,6.98,-0.79,-7.06,-9.01,0.27
16.78248202800751,2,3,3,0,-10.12,4.27,-0.1,-7.62,-6.65,1.68
16.79248201847076,2,3,3,0,-8.66,3.56,-0.37,-6.67,-5.04,2.94
16.80248200893402,2,3,3,0,-7.6,3.53,-1,-5.07,-4.01,3.36
16.81248199939728,2,3,3,0,-7.4,3.77,-1.38,-5.07,-4.01,3.36
16.82248198986053,2,3,3,0,-7.28,4.25,-1.98,-3.64,-3.78,2.99
16.83248198032379,2,3,3,0,-7.09,4.52,-1.95,-1.47,-3.51,1.65
16.84248197078705,2,3,3,0,-7.12,4.65,-1.97,-0.5,-1.79,1.55
16.85248196125031,2,3,3,0,-7.8,4.78,-1.99,-0.03,0.09,1.77
16.86248195171356,2,3,3,0,-9.07,4.92,-1.78,-0.03,0.09,1.77
16.87248194217682,2,3,3,0,-8.449999999999999,4.6,-1.36,-0.13,1.58,2.34
16.88248193264008,2,3,3,0,-7.83,4.7,-0.91,-1.27,3.9,2.81
16.89248192310333,2,3,3,0,-7.4,4.69,-0.8,-1.67,4.65,2.24
16.90248191356659,2,3,3,0,-7.27,4.45,-0.85,-2.33,4.93,1.65
16.91248190402985,2,3,3,0,-7.34,4.42,-0.96,-2.33,4.93,1.65
16.9224818944931,2,3,3,0,-7.53,4.6,-1.15,-3.28,5.39,1.03
16.93248188495636,2,3,3,0,-8.16,4.34,-1.55,-5.86,6.29,0.07000000000000001
16.94248187541962,2,3,3,0,-8.199999999999999,4.45,-1.72,-7.19,6.34,-0.54
16.95248186588287,2,3,3,0,-8.27,4.05,-1.64,-8.6,6.56,-0.68
16.96248185634613,2,3,3,0,-8.31,3.82,-1.65,-8.6,6.56,-0.68
16.97248184680939,2,3,3,0,-8.359999999999999,2.98,-1.58,-9.85,6.57,-0.79
16.98248183727264,2,3,3,0,-8.43,2.6,-1.58,-10.75,5.98,-0.8100000000000001
16.9924818277359,2,3,3,0,-8.529999999999999,2.21,-1.67,-10.33,5.5,-0.91
17.00248205661774,2,3,3,0,-8.550000000000001,1.82,-1.66,-9.300000000000001,4.63,-1.12
17.01248204708099,2,3,3,0,-8.789999999999999,1.54,-1.58,-9.300000000000001,4.63,-1.12
17.02248203754425,2,3,3,0,-8.800000000000001,1.35,-1.47,-7.99,3.5,-1.13
17.03248202800751,2,3,3,0,-8.84,1.43,-1.43,-6.26,2.14,-0.24
17.04248201847076,2,3,3,0,-8.94,1.44,-1.52,-5.53,1.45,0.06
17.05248200893402,2,3,3,0,-9,1.39,-1.45,-5.03,1.01,0.5
17.06248199939728,2,3,3,0,-9.050000000000001,1.31,-1.38,-5.03,1.01,0.5
17.07248198986053,2,3,3,0,-8.99,1.27,-1.33,-4.8,0.68,0.99
17.08248198032379,2,3,3,0,-8.699999999999999,1.08,-1.53,-3.88,0.03,2.29
17.09248197078705,2,3,3,0,-8.75,0.92,-1.61,-3.56,-0.13,2.93
17.10248196125031,2,3,3,0,-8.699999999999999,0.97,-1.62,-3.04,-0.35,3.54
17.11248195171356,2,3,3,0,-8.81,0.98,-1.57,-3.04,-0.35,3.54
17.12248194217682,2,3,3,0,-8.98,1.41,-1.69,-2.6,-0.6,3.96
17.13248193264008,2,3,3,0,-8.98,1.61,-1.6,-2.12,-0.8100000000000001,4.35
17.14248192310333,2,3,3,0,-8.94,1.73,-1.61,-2.04,-0.64,4.11
17.15248191356659,2,3,3,0,-8.91,1.95,-1.39,-2.38,-0.7,3.59
17.16248190402985,2,3,3,0,-9.029999999999999,2.37,-1.1,-2.38,-0.7,3.59
17.1724818944931,2,3,3,0,-9.25,2.33,-1.05,-2.94,-0.66,2.86
17.18248188495636,2,3,3,0,-9.460000000000001,2.29,-1,-4.04,-0.03,1.51
17.19248187541962,2,3,3,0,-9.52,2.2,-1.09,-4.29,0.59,1.22
17.20248186588287,2,3,3,0,-9.23,1.95,-1.18,-4.4,1.37,1.16
17.21248185634613,2,3,3,0,-9.26,1.88,-1.27,-4.4,1.37,1.16
17.22248184680939,2,3,3,0,-9.18,1.6,-1.29,-4.34,2.1,1.23
17.23248183727264,2,3,3,0,-9.31,0.84,-1.69,-3.76,3.51,1.42
17.2424818277359,2,3,3,0,-9.56,0.63,-1.61,-3.31,3.81,1.22
17.25248205661774,2,3,3,0,-9.800000000000001,0.66,-1.4,-3.13,3.98,1.1
17.26248204708099,2,3,3,0,-9.99,0.8100000000000001,-1.22,-3.13,3.98,1.1
17.27248203754425,2,3,3,0,-9.98,1.14,-1.16,-3.29,4.11,1.08
17.28248202800751,2,3,3,0,-9.800000000000001,1.21,-1.54,-4.09,6.77,0.93
17.29248201847076,2,3,3,0,-9.74,1.21,-1.74,-4.09,6.77,0.93
17.30248200893402,2,3,3,0,-9.92,1.21,-1.99,-4.51,8.369999999999999,0.58
17.31248199939728,2,3,3,0,-10.21,1.34,-1.9,-4.81,9.789999999999999,0.29
17.32248198986053,2,3,3,0,-10.26,1.78,-1.91,-4.49,11.03,0
17.33248198032379,2,3,3,0,-10.21,2.08,-1.87,-3.04,11.75,-0.33
17.34248197078705,2,3,3,0,-10.14,2.53,-1.91,-1.38,12.43,-0.54
17.35248196125031,2,3,3,0,-10.14,3.46,-2.32,0.41,12.78,-0.79
17.36248195171356,2,3,3,0,-10.61,3.95,-2.36,2.8,11.91,-1.13
17.37248194217682,2,3,3,0,-11.23,5,-2.19,5.6,8.48,-1.48
17.38248193264008,2,3,3,0,-11.55,6.46,-2.26,8.130000000000001,4.36,-1.86
17.39348185062408,2,3,3,0,-10.98,9.06,-2.99,8.970000000000001,2.08,-2.39
17.40348184108734,2,3,3,0,-10.2,9.619999999999999,-2.49,6.94,1.66,-3.24
17.4134818315506,2,3,3,0,-9.220000000000001,9.52,-1.79,2.81,2.49,-4.35
17.42348206043243,2,3,3,0,-7.91,7.74,-1.03,-1.56,3.57,-5.14
17.43348205089569,2,3,3,0,-8.06,6.44,-1.01,-4.99,4.49,-5.86
17.44348204135895,2,3,3,0,-8.83,5.1,-1.03,-6.5,4.88,-7
17.4534820318222,2,3,3,0,-10.09,3.92,-0.79,-6.13,3.79,-8.18
17.46348202228546,2,3,3,0,-11.29,2.99,-0.77,-3.78,1.59,-8.779999999999999
17.47348201274872,2,3,3,0,-11.99,2.88,-0.99,-0.37,-0.6,-8.58
17.48348200321198,2,3,3,0,-12.43,2.68,-1.3,2.75,-2.6,-7.66
17.49348199367523,2,3,3,0,-12.51,2.88,-1.71,4.77,-3.74,-6.16
17.50348198413849,2,3,3,0,-12.3,2.82,-1.81,5.27,-4.44,-4.56
17.51348197460175,2,3,3,0,-11.73,2.71,-1.88,5.07,-5.19,-3.21
17.523481965065,2,3,3,0,-10.82,2.35,-1.81,5.22,-5.82,-2.22
17.53348195552826,2,3,3,0,-9.949999999999999,2,-1.54,5.68,-6.34,-1.6
17.54348194599152,2,3,3,0,-8.6,1.67,-1.35,6.36,-7.03,-1.31
17.55348193645477,2,3,3,0,-7.82,1.6,-1.18,7.96,-7.25,-1.41
17.56348192691803,2,3,3,0,-7.66,1.73,-1.07,9.43,-7.1,-1.17
17.57348191738129,2,3,3,0,-7.52,1.74,-0.97,10.59,-6.96,-1.2
17.58348190784454,2,3,3,0,-7.4,1.89,-0.98,11.5,-6.58,-1.31
17.5934818983078,2,3,3,0,-7.31,2.01,-1.01,12.28,-5.79,-1.22
17.60348188877106,2,3,3,0,-7.37,2.22,-0.97,12.38,-5.21,-0.82
17.61348187923431,2,3,3,0,-7.16,2.43,-0.8,12.04,-4.56,-0.3
17.62348186969757,2,3,3,0,-7.09,2.34,-0.77,11.72,-3.57,0.33
17.63348186016083,2,3,3,0,-7.03,2.16,-0.76,11.37,-2.33,1
17.64348185062408,2,3,3,0,-6.96,2.03,-0.75,10.74,-0.78,1.6
17.65348184108734,2,3,3,0,-7.37,2.08,-0.44,9.69,0.45,1.95
17.6634818315506,2,3,3,0,-7.46,2.21,-0.24,8.51,0.83,2.08
17.67348206043243,2,3,3,0,-7.59,2.31,-0.06,7.39,0.24,2.18
17.68348205089569,2,3,3,0,-7.53,2.48,-0.13,6.35,-0.4,2.29
17.69348204135895,2,3,3,0,-7.43,2.33,-0.67,5.71,-0.14,2.52
17.7034820318222,2,3,3,0,-7.44,2.13,-0.62,4.92,1.21,2.43
17.71348202228546,2,3,3,0,-7.71,1.78,-0.33,3.75,1.99,2.12
17.72348201274872,2,3,3,0,-8.06,1.34,-0.68,2.73,1.55,1.82
17.73348200321198,2,3,3,0,-8.33,1,-0.87,2.65,1.1,1.49
17.74348199367523,2,3,3,0,-8.710000000000001,0.86,-1.04,2.94,0.86,0.9399999999999999
17.75348198413849,2,3,3,0,-9.210000000000001,0.66,-0.92,3.6,-0.47,0.59
17.76348197460175,2,3,3,0,-9.9,0.44,-1.43,4.59,-2.9,0.24
17.773481965065,2,3,3,0,-9.949999999999999,0.42,-1.76,6.25,-4.03,-0.05
17.78348195552826,2,3,3,0,-10.3,0.59,-1.65,7.4,-2.96,0.04
17.79348194599152,2,3,3,0,-10.65,0.87,-1.89,7.64,-2.15,0.74
17.80348193645477,2,3,3,0,-11.04,1.28,-1.5,7.7,-1.59,1.7
17.81348192691803,2,3,3,0,-10.91,1.54,-1.27,7.68,-1.14,2.42
17.82348191738129,2,3,3,0,-10.54,1.85,-1.26,7.64,-1.02,2.81
17.83348190784454,2,3,3,0,-10.23,1.88,-1.06,7.58,-0.96,3.01
17.8434818983078,2,3,3,0,-9.789999999999999,0.88,-0.67,7.47,-0.54,2.79
17.85348188877106,2,3,3,0,-9.6,0.31,-0.45,7.39,-0.16,2.3
17.86348187923431,2,3,3,0,-9.779999999999999,0.06,-0.26,7.8,0.14,1.75
17.87348186969757,2,3,3,0,-11.63,1.3,-0.61,8.380000000000001,-1.16,1.05
17.88348186016083,2,3,3,0,-12.14,2.43,-0.76,9.01,-4.18,0.57
17.89348185062408,2,3,3,0,-12.34,3.72,-1.35,9.02,-6.94,0.3
17.90348184108734,2,3,3,0,-12.66,4.59,-1.78,7.7,-8.779999999999999,0.05
17.9134818315506,2,3,3,0,-13.31,5.73,-2.59,5.45,-11.07,-0.53
17.92348206043243,2,3,3,0,-13.44,6.72,-2.87,2.82,-13.42,-1.08
17.93348205089569,2,3,3,0,-13.49,7.08,-2.95,0.38,-14.75,-0.93
17.94348204135895,2,3,3,0,-13.34,7.23,-2.35,-1.88,-14.1,-0.63
17.9534820318222,2,3,3,0,-12.01,7.02,-0.51,-4.66,-12.99,-0.34
17.96348202228546,2,3,3,0,-10.17,5.08,0.07000000000000001,-6.9,-10.8,-0.2
17.97348201274872,2,3,3,0,-7.98,3.11,0.24,-8.34,-7.07,-0.57
17.98348200321198,2,3,3,0,-6.8,1.72,0.5600000000000001,-8.01,-3.87,-0.52
17.99348199367523,2,3,3,0,-6.01,1.39,-0.49,-6.27,-2.13,-0.52
18.00348198413849,2,3,3,0,-6.4,2.16,-1.26,-3.64,-1.84,-0.27
18.01348197460175,2,3,3,0,-7.33,3.2,-2.12,-1.09,-2.15,0.07000000000000001
18.023481965065,2,3,3,0,-8.720000000000001,4.79,-2.89,1.01,-2.32,0.21
18.03348195552826,2,3,3,0,-9.44,5.54,-3.1,1.85,-1.77,0.34
18.04348194599152,2,3,3,0,-9.93,5.95,-3.35,1.5,-0.5600000000000001,0.49
18.05348193645477,2,3,3,0,-9.99,6,-3.1,0.73,1.3,0.84
18.06348192691803,2,3,3,0,-8.779999999999999,5.48,-2.12,-0.3,3.06,1.54
18.07348191738129,2,3,3,0,-8.25,5.2,-1.71,-1.62,4.32,2.34
18.08348190784454,2,3,3,0,-7.98,4.92,-1.47,-2.68,5.22,2.78
18.0934818983078,2,3,3,0,-7.97,4.76,-1.5,-3.26,5.56,2.59
18.10348188877106,2,3,3,0,-7.69,4.15,-1.41,-3.11,5.71,2.01
18.11348187923431,2,3,3,0,-7.73,4.02,-1.45,-2.73,5.54,1.48
18.12348186969757,2,3,3,0,-7.99,4.07,-1.68,-2.37,5.43,1.06
18.13348186016083,2,3,3,0,-8.09,4.1,-1.86,-1.86,5.22,0.84
18.14348185062408,2,3,3,0,-8.27,4.33,-2.26,-1.58,5.23,1
18.15348184108734,2,3,3,0,-8.23,4.37,-2.25,-1.73,5.21,1.37
18.1634818315506,2,3,3,0,-8.029999999999999,4.32,-2.27,-2.07,5.01,1.74
18.17348206043243,2,3,3,0,-8.199999999999999,4.2,-1.87,-2.6,4.87,2.03
18.18448197841644,2,3,3,0,-8.15,4.06,-2.05,-3.15,4.16,2.19
18.19348204135895,2,3,3,0,-8.460000000000001,3.47,-1.95,-2.8,3.25,2.52
18.2034820318222,2,3,3,0,-8.859999999999999,2.91,-1.89,-2.63,2.58,2.51
18.21448194980621,2,3,3,0,-8.92,2.51,-1.92,-3.02,1.94,1.92
18.22348201274872,2,3,3,0,-8.77,2.04,-1.74,-3.01,1.53,1.54
18.23348200321198,2,3,3,0,-8.4,1.89,-1.89,-2.79,1.37,1.55
18.24448192119598,2,3,3,0,-8.4,1.96,-2,-2.11,1.62,1.68
18.25348198413849,2,3,3,0,-8.470000000000001,2.05,-1.84,-1.04,1.45,1.85
18.26348197460175,2,3,3,0,-8.699999999999999,2.5,-2.03,-0.37,1.12,1.83
18.27448189258575,2,3,3,0,-9.08,2.77,-2.05,0.23,0.31,1.78
18.28348195552826,2,3,3,0,-9.41,3.12,-2.22,0.43,-0.32,1.73
18.29348194599152,2,3,3,0,-9.789999999999999,3.79,-2.3,0.45,-0.93,1.82
18.30448186397552,2,3,3,0,-9.81,3.82,-2.03,0.01,-1.3,2.03
18.31348192691803,2,3,3,0,-9.630000000000001,3.72,-1.95,-0.66,-1.56,2.22
18.32348191738129,2,3,3,0,-9.16,3.32,-1.57,-1.24,-1.58,2.33
18.3344818353653,2,3,3,0,-8.970000000000001,3.06,-1.38,-1.59,-1.6,2.33
18.3434818983078,2,3,3,0,-8.6,2.87,-1.57,-1.5,-1.87,2.48
18.35348188877106,2,3,3,0,-8.369999999999999,2.86,-1.65,-1.18,-1.86,2.63
18.36448204517365,2,3,3,0,-8.34,3.04,-1.67,-0.95,-1.96,2.71
18.37348186969757,2,3,3,0,-8.58,3.38,-1.89,-0.7,-2.17,2.74
18.38348186016083,2,3,3,0,-8.880000000000001,3.61,-1.96,-0.67,-2.46,2.68
18.39448201656342,2,3,3,0,-9.050000000000001,3.81,-2.12,-1.07,-2.76,2.53
18.40348184108734,2,3,3,0,-9.57,3.64,-1.83,-1.63,-2.69,2.31
18.4134818315506,2,3,3,0,-9.470000000000001,3.52,-1.65,-2.21,-2.57,1.82
18.42448198795319,2,3,3,0,-9.210000000000001,3.13,-1.75,-2.75,-2.61,1.35
18.43448197841644,2,3,3,0,-9.23,2.89,-1.62,-3.48,-2.38,0.9399999999999999
18.4444819688797,2,3,3,0,-9.67,2.34,-1.62,-4.18,-2.37,0.52
18.45448195934296,2,3,3,0,-9.789999999999999,2.12,-1.63,-4.65,-2.73,0.08
18.46448194980621,2,3,3,0,-9.77,1.95,-1.76,-4.76,-2.94,-0.21
18.47448194026947,2,3,3,0,-9.65,1.93,-1.9,-4.71,-2.71,-0.26
18.48448193073273,2,3,3,0,-9.789999999999999,1.88,-1.9,-4.57,-2.26,-0.39
18.49448192119598,2,3,3,0,-9.779999999999999,2.13,-1.52,-4.26,-1.8,-0.86
18.50448191165924,2,3,3,0,-9.52,2.24,-1.14,-4.07,-0.97,-1.26
18.5144819021225,2,3,3,0,-9.050000000000001,2.2,-0.39,-3.63,0.64,-1.73
18.52448189258575,2,3,3,0,-8.94,2.44,-0.25,-3.04,2.16,-2.11
18.53448188304901,2,3,3,0,-8.93,2.61,-0.34,-2.14,3.21,-2.35
18.54448187351227,2,3,3,0,-8.970000000000001,2.7,-0.59,-1.01,3.88,-2.42
18.55448186397552,2,3,3,0,-8.859999999999999,2.96,-0.97,0.37,4.33,-2.41
18.56448185443878,2,3,3,0,-8.710000000000001,3.16,-1,1.6,4.5,-2.31
18.57448184490204,2,3,3,0,-8.470000000000001,3.51,-1.07,2.31,4.59,-1.99
18.5844818353653,2,3,3,0,-8.26,3.87,-1.05,2.2,4.77,-1.71
18.59448182582855,2,3,3,0,-7.9,4.32,-1.22,1.24,4.87,-1.66
18.60448205471039,2,3,3,0,-7.82,4.38,-1.04,0.2,5.22,-1.78
18.61448204517365,2,3,3,0,-8.029999999999999,4.39,-0.87,-1.14,5.57,-2.24
18.6244820356369,2,3,3,0,-8.32,4.44,-0.7,-2.52,5.74,-2.92
18.63448202610016,2,3,3,0,-9.279999999999999,4.34,-0.62,-3.45,5.4,-3.55
18.64448201656342,2,3,3,0,-9.69,4.32,-0.6899999999999999,-3.98,4.76,-4.13
18.65448200702667,2,3,3,0,-10.05,4.26,-0.61,-4.22,4.19,-4.59
18.66448199748993,2,3,3,0,-10.24,4.26,-0.08,-4.43,4.07,-4.71
18.67448198795319,2,3,3,0,-10.19,4.16,0.22,-4.67,3.84,-4.54
18.68448197841644,2,3,3,0,-10.08,3.9,0.13,-4.67,3.39,-4.08
18.6944819688797,2,3,3,0,-10.02,3.6,0,-4.25,2.37,-3.42
18.70448195934296,2,3,3,0,-10.25,2.65,-0.68,-3.55,1.58,-2.69
18.71448194980621,2,3,3,0,-10.59,2.53,-0.89,-3.15,0.95,-1.89
18.72448194026947,2,3,3,0,-10.61,2.53,-0.79,-3.03,0.27,-1.49
18.73448193073273,2,3,3,0,-11.12,2.78,-0.71,-2.81,-0.31,-1.26
18.74448192119598,2,3,3,0,-11.58,3.13,-0.57,-1.97,-1.69,-0.97
18.75448191165924,2,3,3,0,-10.98,3.02,-0.47,-0.85,-3.17,-0.44
18.7644819021225,2,3,3,0,-10.59,3.02,-0.26,-0.33,-3.47,0.23
18.77448189258575,2,3,3,0,-10.33,3.04,-0.06,0.02,-3.09,0.96
18.78448188304901,2,3,3,0,-9.81,2.91,0,0.83,-3.07,1.54
18.79448187351227,2,3,3,0,-9.49,2.83,-0.2,1.21,-2.93,1.76
18.80448186397552,2,3,3,0,-9.16,2.96,-0.08,0.85,-2.7,1.92
18.81448185443878,2,3,3,0,-8.789999999999999,2.96,0.36,0.21,-2.21,2.19
18.82448184490204,2,3,3,0,-8.57,2.84,0.4,-0.32,-1.92,2.21
18.8344818353653,2,3,3,0,-8.539999999999999,2.83,0.51,-1.04,-1.61,1.96
18.84448182582855,2,3,3,0,-8.43,2.86,0.42,-1.37,-1.39,1.81
18.85448205471039,2,3,3,0,-8.27,2.54,0.28,-0.92,-1.46,1.84
18.86448204517365,2,3,3,0,-8.039999999999999,2.62,0.16,-0.85,-1.09,1.55
18.8744820356369,2,3,3,0,-7.9,2.65,0.16,-0.87,-0.77,1.26
18.88448202610016,2,3,3,0,-7.88,2.56,0.05,-0.34,-0.18,1.05
18.89448201656342,2,3,3,0,-7.73,2.58,-0.4,0.02,0.28,0.91
18.90448200702667,2,3,3,0,-7.85,2.8,-0.42,0.25,0.93,0.74
18.91448199748993,2,3,3,0,-8.07,2.93,-0.3,0.51,1.4,0.46
18.92448198795319,2,3,3,0,-8.25,3.02,-0.52,0.57,1.93,-0.01
18.93448197841644,2,3,3,0,-8.789999999999999,2.85,-0.6,0.13,2.62,-0.62
18.9444819688797,2,3,3,0,-9.130000000000001,2.73,-0.93,-0.52,2.67,-1.12
18.95448195934296,2,3,3,0,-9.59,2.64,-0.95,-1.17,2.56,-1.63
18.96448194980621,2,3,3,0,-10.13,2.82,-0.8,-1.54,2.32,-2.2
18.97448194026947,2,3,3,0,-10.33,2.91,-0.8100000000000001,-1.54,1.84,-2.34
18.98448193073273,2,3,3,0,-10.32,2.93,-0.71,-1.5,1.57,-2.27
18.99448192119598,2,3,3,0,-10.38,2.96,-1.06,-1.33,1.1,-1.99
19.00448191165924,2,3,3,0,-10.42,3.07,-1.13,-0.79,0.62,-1.5
19.0144819021225,2,3,3,0,-10.15,3.06,-1.22,-0.53,0.16,-0.93
19.02448189258575,2,3,3,0,-9.93,2.9,-0.99,0.04,-0.25,-0.25
19.03448188304901,2,3,3,0,-9.52,2.81,-0.97,0.16,-0.44,0.27
19.04448187351227,2,3,3,0,-9.119999999999999,2.58,-1.22,0.46,-0.64,0.77
19.05448186397552,2,3,3,0,-9.24,2.57,-1.24,0.67,-0.51,0.9
19.06448185443878,2,3,3,0,-9.289999999999999,2.5,-1.25,0.89,-0.49,0.89
19.07448184490204,2,3,3,0,-9.300000000000001,2.43,-1.28,1.23,-0.64,1.04
19.0844818353653,2,3,3,0,-9.31,2.3,-1.31,1.54,-0.75,1.27
19.09448182582855,2,3,3,0,-9.449999999999999,2.29,-1.2,1.62,-0.78,1.51
19.10448205471039,2,3,3,0,-9.52,2.36,-1.15,1.87,-0.71,1.72
19.11448204517365,2,3,3,0,-9.41,2.43,-1.3,2.09,-0.98,1.98
19.1244820356369,2,3,3,0,-9.41,2.43,-1.3,2.45,-0.9399999999999999,2.25
19.13448202610016,2,3,3,0,-9.27,2.37,-1.29,2.58,-0.87,2.37
19.14448201656342,2,3,3,0,-9.09,2.42,-1.37,2.83,-0.89,2.49
19.15448200702667,2,3,3,0,-9.06,2.73,-1.31,3.05,-0.75,2.6
19.16448199748993,2,3,3,0,-9.109999999999999,2.84,-1.14,3.1,-0.63,2.72
19.17448198795319,2,3,3,0,-9.109999999999999,2.84,-1.14,3.14,-0.58,2.75
19.18448197841644,2,3,3,0,-9.140000000000001,2.92,-1.26,3.26,-0.79,2.78
19.1944819688797,2,3,3,0,-9.17,3.26,-1.46,3.47,-0.74,2.77
19.20448195934296,2,3,3,0,-9.17,3.38,-1.3,3.45,-0.66,2.71
19.21448194980621,2,3,3,0,-9.140000000000001,3.42,-1.45,3.44,-0.76,2.69
19.22448194026947,2,3,3,0,-9.140000000000001,3.42,-1.45,3.44,-0.76,2.69
19.23448193073273,2,3,3,0,-9.1,3.54,-1.43,3.7,-0.79,2.68
19.24448192119598,2,3,3,0,-8.91,3.78,-1.36,3.26,-0.55,2.2
