timestamp,magCalib,accCalib,gyrCalib,sysCalib,accX,accY,accZ,gyrX,gyrY,gyrZ
0.04548203945159912,3,3,3,3,-9.779999999999999,-0.63,0.9,-3.7,0.04,-0.57
0.05548202991485596,3,3,3,3,-9.65,-0.8,0.73,-5.41,0.24,-1.1
0.06548202037811279,3,3,3,3,-9.619999999999999,-0.6,0.44,-6.34,0.12,-1.3
0.07548201084136963,3,3,3,3,-9.56,-0.12,0.32,-6.97,-0.3,-1.64
0.08548200130462646,3,3,3,3,-9.609999999999999,-0.27,0.35,-6.97,-0.3,-1.64
0.0954819917678833,3,3,3,3,-9.619999999999999,-0.41,0.33,-7.42,-0.79,-1.86
0.1054819822311401,3,3,3,3,-9.69,-0.54,0.21,-5.64,-1.57,-1.92
0.115481972694397,3,3,3,3,-9.85,0.03,-0.28,-1.62,-2.14,-1.83
0.1254819631576538,3,3,3,3,-9.68,1.9,0.27,2.25,-2.75,-1.48
0.1354819536209106,3,3,3,3,-9.289999999999999,3.45,0.6,2.25,-2.75,-1.48
0.1454819440841675,3,3,3,3,-9.07,4.64,0.08,2.55,-2.19,-0.5
0.1554819345474243,3,3,3,3,-9.300000000000001,4.46,-0.08,0.97,-0.61,-0.45
0.1654819250106812,3,3,3,3,-9.460000000000001,4.39,-0.03,0.96,-0.7,-0.35
0.175481915473938,3,3,3,3,-9.42,4.49,0.09,0.55,-0.5600000000000001,-0.09
0.1854819059371948,3,3,3,3,-9.9,1.03,0.05,0.55,-0.5600000000000001,-0.09
0.1954818964004517,3,3,3,3,-10.75,-0.33,0.06,-2.34,0.03,0.13
0.2054818868637085,3,3,3,3,-11.29,-1.8,1.11,-3.74,0.04,-0.4
0.2154818773269653,3,3,3,3,-11.17,-3.48,0.5600000000000001,-1.27,-0.08,0.07000000000000001
0.2254818677902222,3,3,3,3,-9.06,1.65,-0.98,2.78,1.23,0.45
0.235481858253479,3,3,3,3,-8.91,1.56,-0.53,2.78,1.23,0.45
0.2454818487167358,3,3,3,3,-10.02,-1.07,-0.41,1.96,2.06,0.75
0.2554818391799927,3,3,3,3,-10.71,-2.34,-0.53,0.45,1.23,0.35
0.2654818296432495,3,3,3,3,-10.33,-1.11,0.08,1.89,1.08,0.29
0.2754820585250854,3,3,3,3,-9.99,-0.55,0.64,2.75,1.35,1.03
0.2854820489883423,3,3,3,3,-9.779999999999999,0.2,0.84,2.75,1.35,1.03
0.2954820394515991,3,3,3,3,-9.550000000000001,0.47,0.82,3.41,1.61,1.69
0.305482029914856,3,3,3,3,-9.58,0,0.89,1.98,1.59,1.86
0.3154820203781128,3,3,3,3,-9.83,-0.01,0.79,1.98,1.61,1.7
0.3254820108413696,3,3,3,3,-9.960000000000001,0.09,0.71,1.82,1.62,1.34
0.3354820013046265,3,3,3,3,-9.84,-0.07000000000000001,0.57,1.82,1.62,1.34
0.3454819917678833,3,3,3,3,-9.68,-0.35,0.01,1.03,1.88,1.16
0.3554819822311401,3,3,3,3,-9.56,-0.39,-0.15,0.95,1.75,0.89
0.365481972694397,3,3,3,3,-9.630000000000001,-0.43,-0.26,0.89,1.83,0.88
0.3754819631576538,3,3,3,3,-9.699999999999999,-0.28,-0.24,0.98,1.68,0.93
0.3854819536209106,3,3,3,3,-9.699999999999999,-0.28,-0.24,0.98,1.68,0.93
0.3954819440841675,3,3,3,3,-9.76,-0.19,-0.16,1.38,1.47,0.98
0.4054819345474243,3,3,3,3,-9.65,0.14,-0.06,1.97,1.27,0.77
0.4154819250106812,3,3,3,3,-9.859999999999999,0.03,-0.08,1.61,1.37,0.72
0.425481915473938,3,3,3,3,-9.949999999999999,0.11,0,1.21,1.45,0.57
0.4354819059371948,3,3,3,3,-9.949999999999999,0.11,0,1.21,1.45,0.57
0.4454818964004517,3,3,3,3,-9.869999999999999,0.26,0.14,0.9399999999999999,1.25,0.31
0.4554818868637085,3,3,3,3,-9.85,0.43,-0.05,0.03,1.07,-0.01
0.4654818773269653,3,3,3,3,-9.73,0.27,-0.1,-0.44,1.04,-0.18
0.4754818677902222,3,3,3,3,-9.779999999999999,0.12,-0.19,-0.76,1.21,-0.29
0.485481858253479,3,3,3,3,-9.779999999999999,0.12,-0.19,-0.76,1.21,-0.29
0.4954818487167358,3,3,3,3,-9.84,0.1,-0.4,-0.68,1.24,-0.34
0.5054818391799927,3,3,3,3,-9.779999999999999,0.25,-0.42,-0.38,0.93,-0.3
0.5154818296432495,3,3,3,3,-9.82,0.36,-0.42,-0.36,1.14,-0.36
0.5254820585250854,3,3,3,3,-9.98,0.2,-0.51,-0.18,1.26,-0.31
0.5354820489883423,3,3,3,3,-9.98,0.2,-0.51,-0.18,1.26,-0.31
0.5454820394515991,3,3,3,3,-9.949999999999999,-0.03,-0.5600000000000001,0.01,1,-0.09
0.555482029914856,3,3,3,3,-9.699999999999999,0.06,-0.72,0.1,0.98,0.17
0.5654820203781128,3,3,3,3,-9.640000000000001,0.16,-0.63,0.41,0.93,-0.03
0.5754820108413696,3,3,3,3,-9.85,0.44,-0.59,0.87,1.05,-0.1
0.5854820013046265,3,3,3,3,-9.85,0.44,-0.59,0.87,1.05,-0.1
0.5954819917678833,3,3,3,3,-9.83,0.62,-0.5,0.95,1.08,0.04
0.6054819822311401,3,3,3,3,-10.01,0.29,-0.5600000000000001,0.14,1.11,0.22
0.615481972694397,3,3,3,3,-9.99,0.29,-0.27,0.05,1.02,0.57
0.6254819631576538,3,3,3,3,-9.869999999999999,0.19,-0.26,0.13,0.98,0.72
0.6354819536209106,3,3,3,2,-9.869999999999999,0.19,-0.26,0.13,0.98,0.72
0.6454819440841675,3,3,3,2,-9.82,0.24,-0.28,0.06,1.04,0.67
0.6554819345474243,3,3,3,2,-9.81,0.31,-0.76,0.74,1,0.32
0.6654819250106812,3,3,3,2,-9.960000000000001,0.41,-0.63,0.97,0.93,0.35
0.675481915473938,3,3,3,2,-9.93,0.47,-0.5600000000000001,0.93,0.88,0.32
0.6854819059371948,3,3,3,2,-9.93,0.47,-0.5600000000000001,0.93,0.88,0.32
0.7064820528030396,3,3,3,2,-9.81,0.39,-0.73,0.14,0.67,0.46
0.7164820432662964,3,3,3,2,-9.65,0.39,-0.7,0.31,0.61,0.22
0.7264820337295532,3,3,3,2,-9.74,0.5,-0.54,0.34,0.53,0.05
0.7364820241928101,3,3,3,2,-9.779999999999999,0.54,-0.55,0.32,0.48,0.11
0.7464820146560669,3,3,3,2,-9.779999999999999,0.54,-0.55,0.32,0.48,0.11
0.7564820051193237,3,3,3,2,-9.869999999999999,0.2,-0.57,-0.18,0.26,0.2
0.7664819955825806,3,3,3,2,-9.880000000000001,0.26,-0.45,-0.12,0.27,0.23
0.7764819860458374,3,3,3,2,-9.81,0.32,-0.58,0.04,0.31,0.19
0.7864819765090942,3,3,3,2,-9.81,0.32,-0.58,0.04,0.31,0.19
0.7964819669723511,3,3,3,2,-9.890000000000001,0.47,-0.61,0.24,0.48,0.24
0.8064819574356079,3,3,3,2,-9.800000000000001,0.9,-0.7,0.63,0.46,0.07000000000000001
0.8164819478988647,3,3,3,2,-9.84,0.66,-0.79,0.21,0.41,0.21
0.8264819383621216,3,3,3,2,-9.92,0.62,-0.73,-0.18,0.42,0.38
0.8364819288253784,3,3,3,2,-9.92,0.62,-0.73,-0.21,0.28,0.52
0.8464819192886353,3,3,3,2,-9.83,0.44,-0.75,-0.25,0.19,0.5600000000000001
0.8564819097518921,3,3,3,2,-9.75,0.12,-0.7,-0.06,0.16,0.49
0.8664819002151489,3,3,3,2,-9.710000000000001,0.17,-0.62,0.2,0.2,0.45
0.8764818906784058,3,3,3,2,-9.82,0.22,-0.65,0.43,0.31,0.46
0.8864818811416626,3,3,3,2,-9.82,0.22,-0.65,0.57,0.29,0.46
0.8964818716049194,3,3,3,2,-9.880000000000001,0.35,-0.5600000000000001,1,0.11,0.38
0.9064818620681763,3,3,3,2,-9.83,0.55,-0.61,0.89,0.14,0.32
0.9164818525314331,3,3,3,2,-9.75,0.68,-0.55,0.9399999999999999,0.14,0.37
0.9264818429946899,3,3,3,2,-9.789999999999999,0.6,-0.6,0.58,0.24,0.53
0.9364818334579468,3,3,3,3,-9.789999999999999,0.6,-0.6,0.08,0.32,0.57
0.9464818239212036,3,3,3,3,-9.84,0.37,-0.62,-0.2,0.29,0.58
0.9564820528030396,3,3,3,3,-9.720000000000001,0.14,-0.5600000000000001,0.04,0.24,0.52
0.9664820432662964,3,3,3,3,-9.710000000000001,0.19,-0.5,0.24,0.19,0.5
0.9764820337295532,3,3,3,3,-9.83,0.2,-0.54,0.33,0.32,0.39
0.9864820241928101,3,3,3,3,-9.83,0.2,-0.54,0.5600000000000001,0.27,0.33
0.9964820146560669,3,3,3,3,-9.83,0.41,-0.49,0.68,0.09,0.25
1.006482005119324,3,3,3,3,-9.85,0.45,-0.6899999999999999,0.43,0.14,0.21
1.016481995582581,3,3,3,3,-9.93,0.52,-0.64,0.42,0.07000000000000001,0.27
1.026481986045837,3,3,3,3,-9.800000000000001,0.55,-0.51,0.52,-0.06,0.33
1.036481976509094,3,3,3,3,-9.800000000000001,0.42,-0.5600000000000001,0.23,0.04,0.36
1.046481966972351,3,3,3,3,-9.83,0.42,-0.61,-0.06,0.14,0.4
1.056481957435608,3,3,3,3,-9.82,0.34,-0.67,-0.23,0.09,0.47
1.066481947898865,3,3,3,3,-9.949999999999999,0.34,-0.61,-0.1,0.01,0.51
1.076481938362122,3,3,3,3,-9.85,0.76,-0.47,0.29,-0.04,0.45
1.086481928825378,3,3,3,3,-9.720000000000001,0.79,-0.51,0.16,0.08,0.28
1.096481919288635,3,3,3,3,-9.67,0.9,-0.45,-0.11,0.06,0.22
1.106481909751892,3,3,3,3,-9.68,0.93,-0.58,-0.36,0,0.24
1.116481900215149,3,3,3,3,-9.869999999999999,0.79,-0.64,-0.6,0.09,0.2
1.126481890678406,3,3,3,3,-9.789999999999999,0.65,-0.49,-0.3,0.06,0.16
1.136481881141663,3,3,3,3,-9.800000000000001,0.49,-0.48,-0.43,0.05,0.33
1.146481871604919,3,3,3,3,-9.84,0.43,-0.46,-0.52,0.1,0.62
1.156481862068176,3,3,3,3,-9.800000000000001,0.23,-0.5600000000000001,-0.44,0.05,0.58
1.166481852531433,3,3,3,3,-9.81,0.25,-0.5600000000000001,-0.22,0.08,0.48
1.17648184299469,3,3,3,3,-9.93,0.43,-0.58,0.08,0.17,0.34
1.186481833457947,3,3,3,3,-9.93,0.66,-0.5600000000000001,0.4,0.03,0.35
1.196481823921204,3,3,3,3,-9.720000000000001,0.91,-0.64,0.49,-0.05,0.27
1.20648205280304,3,3,3,3,-9.720000000000001,0.88,-0.75,0.16,-0.13,0.26
1.216482043266296,3,3,3,3,-9.77,0.8,-0.74,-0.28,-0.19,0.32
1.226482033729553,3,3,3,3,-9.710000000000001,0.7,-0.5600000000000001,-0.53,-0.16,0.32
1.23648202419281,3,3,3,3,-9.74,0.62,-0.62,-0.6899999999999999,-0.13,0.35
1.246482014656067,3,3,3,3,-9.74,0.6,-0.64,-0.8,-0.09,0.46
1.256482005119324,3,3,3,3,-9.800000000000001,0.66,-0.67,-0.54,-0.13,0.41
1.266481995582581,3,3,3,3,-9.67,0.54,-0.64,-0.39,-0.09,0.31
1.276481986045837,3,3,3,3,-9.75,0.57,-0.65,-0.26,-0.01,0.4
1.286481976509094,3,3,3,3,-9.859999999999999,0.35,-0.61,-0.42,0.05,0.35
1.296481966972351,3,3,3,3,-9.92,0.29,-0.54,-0.5,-0.09,0.39
1.306481957435608,3,3,3,3,-9.93,0.34,-0.64,-0.57,-0.19,0.43
1.316481947898865,3,3,3,3,-9.800000000000001,0.67,-0.49,-0.05,-0.25,0.3
1.326481938362122,3,3,3,3,-9.92,0.72,-0.47,0.25,-0.32,0.23
1.336481928825378,3,3,3,3,-9.779999999999999,0.86,-0.45,0.24,-0.3,0.46
1.346481919288635,3,3,3,3,-9.77,1.27,-0.49,0.04,-0.12,0.41
1.356481909751892,3,3,3,3,-9.73,1.09,-0.55,-0.52,-0.18,0.27
1.366481900215149,3,3,3,3,-9.81,1.07,-0.49,-1.13,-0.13,0.25
1.376481890678406,3,3,3,3,-9.98,0.96,-0.42,-1.55,-0.11,0.18
1.386481881141663,3,3,3,3,-9.859999999999999,0.5,-0.42,-1.87,-0.11,0.26
1.396481871604919,3,3,3,3,-9.949999999999999,0.68,-0.21,-1.93,-0.04,0.27
1.406481862068176,3,3,3,3,-9.699999999999999,0.74,-0.24,-1.55,-0.12,-0.07000000000000001
1.416481852531433,3,3,3,3,-9.619999999999999,0.68,-0.2,-1.52,-0.08,-0.2
1.42648184299469,3,3,3,3,-9.77,0.9,-0.18,-1.34,-0.02,-0.16
1.436481833457947,3,3,3,3,-9.789999999999999,0.8,-0.28,-0.97,0.04,-0.16
1.446481823921204,3,3,3,3,-9.800000000000001,0.85,-0.37,-1.27,-0.03,-0.26
1.45648205280304,3,3,3,3,-9.83,0.91,-0.46,-1.2,-0.19,-0.45
1.466482043266296,3,3,3,3,-9.779999999999999,0.8100000000000001,-0.51,-1.06,-0.19,-0.46
1.476482033729553,3,3,3,3,-9.68,0.73,-0.51,-1.09,-0.14,-0.44
1.48648202419281,3,3,3,3,-9.59,0.62,-0.38,-1.27,-0.19,-0.43
1.496482014656067,3,3,3,3,-9.550000000000001,0.46,-0.44,-1.3,-0.08,-0.33
1.506482005119324,3,3,3,3,-9.69,0.41,-0.49,-1.17,0,-0.32
1.516481995582581,3,3,3,3,-9.82,0.15,-0.44,-1.17,0.05,-0.41
1.526481986045837,3,3,3,3,-9.960000000000001,0.26,-0.35,-0.91,0.14,-0.44
1.536481976509094,3,3,3,3,-9.92,0.34,-0.44,-0.38,0.03,-0.4
1.546481966972351,3,3,3,3,-9.869999999999999,0.34,-0.5,0.16,-0.11,-0.46
1.556481957435608,3,3,3,3,-9.84,0.42,-0.54,0.42,-0.23,-0.43
1.566481947898865,3,3,3,3,-9.76,0.43,-0.47,0.71,-0.31,-0.38
1.576481938362122,3,3,3,3,-9.800000000000001,0.55,-0.33,0.66,-0.23,-0.21
1.586481928825378,3,3,3,3,-9.75,0.53,-0.35,0.42,-0.01,0.01
1.596481919288635,3,3,3,3,-9.640000000000001,0.44,-0.4,0.27,0.09,0.09
1.606481909751892,3,3,3,3,-9.640000000000001,0.29,-0.5600000000000001,0.18,0.08,0.12
1.616481900215149,3,3,3,3,-9.800000000000001,0.1,-0.51,0.24,-0.02,0.12
1.626481890678406,3,3,3,3,-9.789999999999999,0.12,-0.46,0.59,-0.08,0.1
1.636481881141663,3,3,3,3,-9.77,0.06,-0.41,0.93,-0.05,0.1
1.646481871604919,3,3,3,3,-9.83,0.11,-0.41,1.13,-0.06,0.13
1.656481862068176,3,3,3,3,-9.82,0.27,-0.41,1.3,-0.04,0.08
1.666481852531433,3,3,3,3,-9.859999999999999,0.36,-0.37,1.34,0.06,0.19
1.67648184299469,3,3,3,3,-9.789999999999999,0.34,-0.4,1.26,0,0.35
1.686481833457947,3,3,3,3,-9.83,0.29,-0.38,1.15,-0.03,0.47
1.696481823921204,3,3,3,3,-9.9,0.35,-0.4,1.26,-0.05,0.54
1.70648205280304,3,3,3,3,-9.949999999999999,0.57,-0.39,1.6,-0.14,0.58
1.716482043266296,3,3,3,3,-10.01,0.7,-0.35,1.71,-0.02,0.64
1.726482033729553,3,3,3,3,-9.92,0.78,-0.41,1.58,0.17,0.64
1.737481951713562,3,3,3,3,-9.82,0.82,-0.48,1.41,0.21,0.74
1.747481942176819,3,3,3,3,-9.720000000000001,0.74,-0.59,1.4,0.21,0.79
1.757481932640076,3,3,3,3,-9.630000000000001,0.8100000000000001,-0.7,1.68,0.22,0.8
1.767481923103333,3,3,3,3,-9.56,1.03,-0.57,1.96,0.24,0.6899999999999999
1.777481913566589,3,3,3,3,-9.51,1,-0.54,2.08,0.17,0.74
1.787481904029846,3,3,3,3,-9.69,0.93,-0.6,1.78,0.23,0.71
1.797481894493103,3,3,3,3,-9.789999999999999,0.86,-0.57,1.6,0.13,0.61
1.80748188495636,3,3,3,3,-9.85,0.68,-0.52,1.49,0,0.54
1.817481875419617,3,3,3,3,-9.75,0.6899999999999999,-0.54,1.23,0.12,0.54
1.827481865882874,3,3,3,3,-9.77,0.7,-0.55,1.12,0.19,0.43
1.83748185634613,3,3,3,3,-9.85,0.53,-0.63,1.29,0.1,0.26
1.847481846809387,3,3,3,3,-9.84,0.95,-0.37,1.55,0.08,-0.08
1.857481837272644,3,3,3,3,-9.58,0.91,-0.45,1.28,-0.05,-0.15
1.867481827735901,3,3,3,3,-9.800000000000001,1.19,-0.38,0.87,0.03,-0.09
1.877482056617737,3,3,3,3,-9.880000000000001,1.14,-0.32,0.19,-0.06,-0.2
1.887482047080994,3,3,3,3,-9.949999999999999,0.98,-0.31,-0.52,-0.05,-0.38
1.89748203754425,3,3,3,3,-10.08,0.92,-0.48,-1.01,-0.11,-0.54
1.907482028007507,3,3,3,3,-9.99,0.92,-0.52,-1.25,-0.05,-0.64
1.917482018470764,3,3,3,3,-9.859999999999999,1.14,-0.49,-1.16,0.08,-0.68
1.927482008934021,3,3,3,3,-9.76,1.47,-0.58,-1.24,0.11,-0.75
1.937481999397278,3,3,3,3,-9.75,1.53,-0.4,-1.79,0.05,-0.85
1.947481989860535,3,3,3,3,-9.69,1.42,-0.45,-2.38,0.02,-0.89
1.957481980323792,3,3,3,3,-9.789999999999999,1.21,-0.59,-2.76,0.02,-0.9399999999999999
1.967481970787048,3,3,3,3,-9.779999999999999,1.17,-0.4,-2.83,0.04,-0.93
1.977481961250305,3,3,3,3,-9.69,1.02,-0.36,-2.92,-0.01,-0.9399999999999999
1.987481951713562,3,3,3,3,-9.66,0.84,-0.36,-2.9,0,-0.89
1.997481942176819,3,3,3,3,-9.69,0.8100000000000001,-0.28,-2.87,0.01,-0.88
2.007481932640076,3,3,3,3,-9.75,0.62,-0.61,-2.68,0.16,-0.95
2.017481923103333,3,3,3,3,-9.880000000000001,0.91,-0.59,-2.63,0.49,-0.97
2.027481913566589,3,3,3,3,-9.94,0.93,-0.45,-2.8,0.65,-1.01
2.037481904029846,3,3,3,3,-9.84,0.76,-0.42,-3.56,0.59,-1
2.047481894493103,3,3,3,3,-9.73,0.62,-0.5,-4.09,0.47,-1.01
2.05748188495636,3,3,3,3,-9.68,0.58,-0.43,-3.75,0.17,-1.04
2.067481875419617,3,3,3,3,-9.69,0.37,-0.44,-3.26,0.22,-1.01
2.077481865882874,3,3,3,3,-9.789999999999999,0.24,-0.4,-2.85,0.17,-0.92
2.08748185634613,3,3,3,3,-9.960000000000001,0.2,-0.18,-2.22,0.09,-0.97
2.097481846809387,3,3,3,3,-9.960000000000001,0.11,-0.25,-1.77,0.15,-1.17
2.107481837272644,3,3,3,3,-9.93,0.16,-0.46,-1.26,0.22,-1.2
2.117481827735901,3,3,3,3,-9.970000000000001,0.45,-0.55,-0.73,0.29,-1.06
2.127482056617737,3,3,3,3,-9.76,0.53,-0.5600000000000001,-0.66,0.18,-1
2.137482047080994,3,3,3,3,-9.59,0.28,-0.55,-1.15,0.04,-0.89
2.14748203754425,3,3,3,3,-9.630000000000001,-0.15,-0.76,-1.46,0.01,-0.77
2.157482028007507,3,3,3,3,-9.75,-0.03,-0.68,-0.57,-0.19,-0.71
2.167482018470764,3,3,3,3,-9.640000000000001,-0.16,-0.5,0.1,-0.39,-0.63
2.177482008934021,3,3,3,3,-9.800000000000001,-0.27,-0.43,0.46,-0.25,-0.45
2.187481999397278,3,3,3,3,-9.869999999999999,-0.02,-0.28,1.12,-0.16,-0.47
2.197481989860535,3,3,3,3,-9.779999999999999,-0.07000000000000001,-0.3,1.6,-0.1,-0.48
2.207481980323792,3,3,3,3,-9.9,0.05,-0.55,2.03,-0.02,-0.46
2.217481970787048,3,3,3,3,-9.74,0.25,-0.52,2.62,0.01,-0.54
2.227481961250305,3,3,3,3,-9.69,0.13,-0.64,2.26,0.09,-0.51
2.237481951713562,3,3,3,3,-9.85,0.19,-0.6,1.87,0.22,-0.52
2.247481942176819,3,3,3,3,-9.85,0.19,-0.65,1.46,0.1,-0.57
2.257481932640076,3,3,3,3,-9.75,0.24,-0.64,1.01,0.04,-0.57
2.267481923103333,3,3,3,3,-9.77,0.25,-0.64,0.5,0.07000000000000001,-0.51
2.277481913566589,3,3,3,3,-9.789999999999999,0.3,-0.5600000000000001,0.31,0,-0.47
2.287481904029846,3,3,3,3,-9.82,0.14,-0.72,0.33,-0.07000000000000001,-0.41
2.297481894493103,3,3,3,3,-9.91,0.35,-0.59,0.54,-0.09,-0.41
2.30748188495636,3,3,3,3,-9.800000000000001,0.37,-0.67,0.8100000000000001,-0.17,-0.44
2.317481875419617,3,3,3,3,-9.73,0.5600000000000001,-0.71,0.67,-0.02,-0.31
2.327481865882874,3,3,3,3,-9.75,0.67,-0.67,0.49,0.11,-0.14
2.33748185634613,3,3,3,3,-9.73,0.44,-0.65,-0.02,0.08,-0.09
2.347481846809387,3,3,3,3,-9.789999999999999,0.08,-0.68,-0.58,0.1,0.04
2.357481837272644,3,3,3,3,-9.83,0.16,-0.57,-0.39,0.07000000000000001,0.12
2.367481827735901,3,3,3,3,-9.75,-0.05,-0.65,-0.24,0.05,0.07000000000000001
2.377482056617737,3,3,3,3,-9.880000000000001,-0.09,-0.66,-0.17,0.23,0.11
2.387482047080994,3,3,3,3,-9.890000000000001,0.18,-0.44,0.11,0.21,-0.02
2.39748203754425,3,3,3,3,-9.81,-0.02,-0.6,-0.19,0.14,0.02
2.407482028007507,3,3,3,3,-9.74,-0.01,-0.7,-0.09,0.04,0.03
2.417482018470764,3,3,3,3,-9.75,0,-0.68,0.04,-0.08,0.01
2.427482008934021,3,3,3,3,-9.789999999999999,0.09,-0.54,0.15,-0.08,0.09
2.437481999397278,3,3,3,3,-9.85,0.22,-0.5,-0.01,-0.14,0.12
2.447481989860535,3,3,3,3,-9.869999999999999,0.28,-0.51,-0.05,-0.22,0.01
2.457481980323792,3,3,3,3,-9.800000000000001,0.27,-0.63,0.05,-0.34,0
2.467481970787048,3,3,3,3,-9.75,0.34,-0.63,0.06,-0.3,-0.01
2.477481961250305,3,3,3,3,-9.800000000000001,0.42,-0.44,0.06,-0.16,0.02
2.487481951713562,3,3,3,3,-9.77,0.5600000000000001,-0.45,-0.22,-0.12,0.05
2.497481942176819,3,3,3,3,-9.74,0.59,-0.49,-0.47,-0.21,0.16
2.507481932640076,3,3,3,3,-9.789999999999999,0.48,-0.58,-0.71,-0.2,0.16
2.517481923103333,3,3,3,3,-9.94,0.38,-0.52,-0.74,-0.16,0.19
2.527481913566589,3,3,3,3,-9.880000000000001,0.36,-0.38,-0.62,-0.17,0.24
2.537481904029846,3,3,3,3,-9.85,0.29,-0.41,-0.6899999999999999,-0.17,0.21
2.547481894493103,3,3,3,3,-9.869999999999999,0.25,-0.42,-0.64,-0.17,0.14
2.55748188495636,3,3,3,3,-9.859999999999999,0.3,-0.36,-0.43,-0.17,0.05
2.567481875419617,3,3,3,3,-9.789999999999999,0.64,-0.24,-0.2,-0.14,0.09
2.577481865882874,3,3,3,3,-9.74,0.75,-0.3,-0.2,-0.1,0.12
2.58748185634613,3,3,3,3,-9.77,0.64,-0.36,-0.45,0.01,0.06
2.597481846809387,3,3,3,3,-9.869999999999999,0.38,-0.4,-0.5,-0.07000000000000001,0.1
2.607481837272644,3,3,3,3,-9.800000000000001,0.6,-0.45,-0.27,-0.09,0.14
2.617481827735901,3,3,3,3,-9.81,0.74,-0.44,-0.09,-0.16,0.14
2.627482056617737,3,3,3,3,-9.83,0.63,-0.46,-0.09,-0.15,0.17
2.637482047080994,3,3,3,3,-9.779999999999999,0.66,-0.44,-0.2,-0.11,0.13
2.64748203754425,3,3,3,3,-9.720000000000001,0.51,-0.45,-0.35,-0.03,0.18
2.657482028007507,3,3,3,3,-9.77,0.45,-0.51,-0.49,0.09,0.29
2.667482018470764,3,3,3,3,-9.77,0.21,-0.38,-0.51,0.11,0.34
2.677482008934021,3,3,3,3,-9.81,0.16,-0.31,-0.4,0.09,0.33
2.687481999397278,3,3,3,3,-9.859999999999999,0.19,-0.3,-0.07000000000000001,0.14,0.26
2.697481989860535,3,3,3,3,-9.85,0.32,-0.31,0.29,0.07000000000000001,0.17
2.707481980323792,3,3,3,3,-9.789999999999999,0.45,-0.44,0.5,-0.01,0.09
2.717481970787048,3,3,3,3,-9.75,0.53,-0.41,0.5600000000000001,-0.08,0.07000000000000001
2.727481961250305,3,3,3,3,-9.77,0.61,-0.42,0.43,0,0.05
2.737481951713562,3,3,3,3,-9.75,0.61,-0.44,0.24,-0.02,0.02
2.747481942176819,3,3,3,3,-9.77,0.45,-0.47,-0.15,-0.05,0.07000000000000001
2.758481860160828,3,3,3,3,-9.789999999999999,0.34,-0.54,-0.4,0,0.09
2.768481850624084,3,3,3,3,-9.82,0.28,-0.54,-0.49,0.03,0.07000000000000001
2.778481841087341,3,3,3,3,-9.85,0.26,-0.49,-0.43,0.01,0.04
2.788481831550598,3,3,3,3,-9.83,0.47,-0.44,-0.16,-0.1,-0.01
2.798482060432434,3,3,3,3,-9.83,0.5600000000000001,-0.44,0.17,-0.15,-0.09
2.808482050895691,3,3,3,3,-9.82,0.6899999999999999,-0.49,0.2,-0.18,-0.1
2.818482041358948,3,3,3,3,-9.77,0.83,-0.51,0.02,-0.18,-0.01
2.828482031822205,3,3,3,3,-9.81,0.76,-0.46,-0.33,-0.06,0.05
2.838482022285461,3,3,3,3,-9.859999999999999,0.67,-0.43,-0.55,-0.05,0.07000000000000001
2.848482012748718,3,3,3,3,-9.800000000000001,0.44,-0.38,-0.73,-0.12,0.05
2.858482003211975,3,3,3,3,-9.789999999999999,0.39,-0.42,-0.82,-0.06,0.03
2.868481993675232,3,3,3,3,-9.76,0.26,-0.33,-0.6,0.02,0.04
2.878481984138489,3,3,3,3,-9.859999999999999,0.19,-0.34,-0.64,0.13,0.04
2.888481974601746,3,3,3,3,-9.94,0.22,-0.35,-0.6,0.2,0.02
2.898481965065002,3,3,3,3,-9.880000000000001,0.23,-0.31,-0.4,0.11,-0.03
2.908481955528259,3,3,3,3,-9.779999999999999,0.1,-0.53,-0.39,0.15,-0.03
2.918481945991516,3,3,3,3,-9.779999999999999,0.2,-0.55,-0.3,0.16,-0.03
2.928481936454773,3,3,3,3,-9.82,0.26,-0.5,-0.05,0.06,-0.05
2.93848192691803,3,3,3,3,-9.81,0.35,-0.49,0.1,-0.1,-0.06
2.948481917381287,3,3,3,3,-9.699999999999999,0.34,-0.41,0.11,-0.15,-0.12
2.958481907844543,3,3,3,3,-9.76,0.36,-0.54,-0.11,-0.02,-0.07000000000000001
2.9684818983078,3,3,3,3,-9.83,0.41,-0.46,-0.06,-0.01,-0.04
2.978481888771057,3,3,3,3,-9.85,0.43,-0.39,0.11,-0.08,-0.06
2.988481879234314,3,3,3,3,-9.84,0.53,-0.44,0.35,-0.06,-0.05
2.998481869697571,3,3,3,3,-9.789999999999999,0.59,-0.44,0.62,-0.01,-0.04
3.008481860160828,3,3,3,3,-9.81,0.6,-0.63,0.67,0.04,0
3.018481850624084,3,3,3,3,-9.789999999999999,0.53,-0.49,0.8,-0.04,0.12
3.028481841087341,3,3,3,3,-9.800000000000001,0.48,-0.47,0.7,-0.02,0.21
3.038481831550598,3,3,3,3,-9.81,0.42,-0.41,0.6,0.1,0.26
3.048482060432434,3,3,3,3,-9.800000000000001,0.37,-0.39,0.55,0.17,0.26
3.058482050895691,3,3,3,3,-9.81,0.3,-0.5,0.5600000000000001,0.23,0.27
3.068482041358948,3,3,3,3,-9.800000000000001,0.3,-0.43,0.48,0.28,0.25
3.078482031822205,3,3,3,3,-9.73,0.31,-0.4,0.5600000000000001,0.16,0.22
3.088482022285461,3,3,3,3,-9.74,0.31,-0.43,0.53,0.06,0.19
3.098482012748718,3,3,3,3,-9.82,0.34,-0.46,0.49,0,0.12
3.108482003211975,3,3,3,3,-9.77,0.33,-0.5600000000000001,0.53,-0.06,0.06
3.118481993675232,3,3,3,3,-9.73,0.38,-0.55,0.44,0.01,0.04
3.128481984138489,3,3,3,3,-9.75,0.41,-0.44,0.36,-0.05,0.03
3.138481974601746,3,3,3,3,-9.83,0.46,-0.4,0.27,-0.09,-0.04
3.148481965065002,3,3,3,3,-9.800000000000001,0.57,-0.39,0.33,-0.1,-0.07000000000000001
3.158481955528259,3,3,3,3,-9.800000000000001,0.53,-0.6,0.19,-0.13,-0.06
3.168481945991516,3,3,3,3,-9.800000000000001,0.59,-0.48,0.11,-0.16,-0.07000000000000001
3.178481936454773,3,3,3,3,-9.85,0.57,-0.48,-0.04,-0.14,-0.06
3.18848192691803,3,3,3,3,-9.859999999999999,0.6,-0.39,0.02,-0.25,-0.05
3.198481917381287,3,3,3,3,-9.85,0.79,-0.36,0.18,-0.24,-0.08
3.208481907844543,3,3,3,3,-9.85,0.91,-0.6,0.16,-0.11,-0.1
3.2184818983078,3,3,3,3,-9.82,0.68,-0.42,0.04,-0.13,-0.04
3.228481888771057,3,3,3,3,-9.73,0.52,-0.44,-0.16,-0.11,0.01
3.238481879234314,3,3,3,3,-9.76,0.38,-0.37,-0.28,-0.09,0.17
3.248481869697571,3,3,3,3,-9.77,0.09,-0.44,-0.17,-0.02,0.2
3.258481860160828,3,3,3,3,-9.74,0.34,-0.59,0.47,0.09,0.04
3.268481850624084,3,3,3,3,-9.75,0.39,-0.47,0.83,0.02,0
3.288481831550598,3,3,3,3,-9.77,0.46,-0.35,0.5,-0.05,-0.04
3.298482060432434,3,3,3,3,-9.84,0.19,-0.4,0.26,-0.03,0
3.308482050895691,3,3,3,3,-9.81,0.11,-0.49,0.21,-0.22,0.07000000000000001
3.318482041358948,3,3,3,3,-9.84,0.1,-0.43,0.24,-0.23,0
3.328482031822205,3,3,3,3,-9.9,0.09,-0.36,0.3,-0.21,-0.07000000000000001
3.338482022285461,3,3,3,3,-9.800000000000001,0.24,-0.34,0.53,-0.28,-0.16
3.348482012748718,3,3,3,3,-9.789999999999999,0.44,-0.34,0.73,-0.31,-0.18
3.358482003211975,3,3,3,3,-9.81,0.64,-0.51,0.71,-0.15,-0.27
3.368481993675232,3,3,3,3,-9.859999999999999,0.9,-0.52,0.57,-0.23,-0.32
3.378481984138489,3,3,3,3,-9.779999999999999,0.91,-0.36,0.36,-0.36,-0.37
3.388481974601746,3,3,3,3,-9.81,0.93,-0.32,-0.07000000000000001,-0.48,-0.32
3.398481965065002,3,3,3,3,-9.85,0.89,-0.21,-0.2,-0.5600000000000001,-0.35
3.408481955528259,3,3,3,3,-9.85,0.95,-0.34,-0.31,-0.55,-0.52
3.418481945991516,3,3,3,3,-9.779999999999999,0.89,-0.33,-0.31,-0.53,-0.63
3.428481936454773,3,3,3,3,-9.77,0.68,-0.36,-0.45,-0.34,-0.75
3.43848192691803,3,3,3,3,-9.779999999999999,0.48,-0.48,-0.02,-0.26,-0.6899999999999999
3.448481917381287,3,3,3,3,-9.880000000000001,0.64,-0.42,0.59,-0.21,-0.63
3.458481907844543,3,3,3,3,-9.949999999999999,0.46,-0.36,0.91,-0.36,-0.6899999999999999
3.4684818983078,3,3,3,3,-10.08,0.28,-0.21,0.93,-0.24,-0.9399999999999999
3.478481888771057,3,3,3,3,-10.19,0.25,-0.23,0.98,-0.15,-1.65
3.488481879234314,3,3,3,3,-9.35,-0.44,-0.5600000000000001,0.96,-0.19,-2.49
3.498481869697571,3,3,3,3,-9.300000000000001,-0.62,-0.53,1.15,-0.36,-2.26
3.508481860160828,3,3,3,3,-9.609999999999999,-0.51,-0.46,1.67,-0.53,-1.72
3.518481850624084,3,3,3,3,-9.98,-0.33,-0.31,1.95,-0.46,-1.65
3.528481841087341,3,3,3,3,-10.1,-0.75,-0.14,1.61,-0.45,-1.84
3.538481831550598,3,3,3,3,-9.859999999999999,-0.55,-0.06,1.31,-0.52,-2
3.548482060432434,3,3,3,3,-9.66,-0.36,-0.04,0.96,-0.55,-1.92
3.558482050895691,3,3,3,3,-9.67,-0.16,-0.1,0.08,-0.59,-1.81
3.568482041358948,3,3,3,3,-9.6,-0.83,-0.22,-1.03,-0.6899999999999999,-1.96
3.578482031822205,3,3,3,3,-9.65,-1.42,-0.2,-1.98,-0.73,-2.12
3.588482022285461,3,3,3,3,-9.640000000000001,-1.42,-0.04,-1.77,-1.03,-2.26
3.598482012748718,3,3,3,3,-9.49,-1.27,0,-1.08,-1.26,-2.39
3.608482003211975,3,3,3,3,-9.359999999999999,-1.81,-0.01,-0.99,-1.56,-2.56
3.618481993675232,3,3,3,3,-9.199999999999999,-2.18,0.12,-1.63,-1.88,-2.84
3.628481984138489,3,3,3,3,-8.949999999999999,-2.77,0.41,-3.1,-2.11,-3.26
3.638481974601746,3,3,3,3,-8.76,-3.54,0.87,-5.15,-2.39,-3.72
3.648481965065002,3,3,3,3,-8.33,-5.55,1.46,-7.36,-2.55,-4.64
3.658481955528259,3,3,3,3,-8.289999999999999,-6.53,1.3,-8.18,-2.58,-5.83
3.668481945991516,3,3,3,3,-8.34,-6.77,1.36,-7.18,-2.49,-7.36
3.678481936454773,3,3,3,3,-8.18,-5.96,1.33,-5.7,-2.37,-8.619999999999999
3.68848192691803,3,3,3,3,-7.49,-4.19,0.91,-3.97,-2.73,-9.279999999999999
3.698481917381287,3,3,3,3,-7.13,-3.22,0.17,-2.52,-2.86,-9.369999999999999
3.708481907844543,3,3,3,3,-6.95,-1.26,0.24,-0.72,-3,-9.109999999999999
3.7184818983078,3,3,3,3,-6.76,1.1,0.58,-2.56,-3,-8.94
3.728481888771057,3,3,3,3,-7.19,0.73,0.66,-7.45,-2.07,-9.09
3.738481879234314,3,3,3,3,-7.72,0,0.55,-12.04,-1.05,-9.58
3.748481869697571,3,3,3,3,-8.48,-0.57,0.68,-14.82,-0.28,-10.47
3.758481860160828,3,3,3,3,-8.039999999999999,-0.27,1.23,-15.71,0.13,-11.61
3.768481850624084,3,3,3,3,-7.89,-0.91,0.23,-18.1,3.05,-12.32
3.779482007026672,3,3,3,3,-8.119999999999999,-1.55,-0.02,-20.13,6.83,-12.37
3.789481997489929,3,3,3,3,-9.06,-1.94,-1,-19.68,8.98,-12.05
3.799481987953186,3,3,3,3,-9.529999999999999,-0.47,-0.6899999999999999,-15.76,8.050000000000001,-12.01
3.809481978416443,3,3,3,3,-9.77,-0.06,-1.8,-12.69,8.710000000000001,-12.24
3.8194819688797,3,3,3,3,-10.46,0.79,-1.63,-11.42,9.27,-11.76
3.829481959342957,3,3,3,3,-11.37,-0.89,-1.77,-11.84,9.09,-11.33
3.839481949806213,3,3,3,3,-12.72,-0.84,-1.12,-10.62,9.890000000000001,-10.61
3.84948194026947,3,3,3,3,-12.57,0.65,-0.61,-7.18,9.84,-11.48
3.859481930732727,3,3,3,3,-11.2,0.96,-1.24,-6.8,9.869999999999999,-12.62
3.869481921195984,3,3,3,3,-10.07,-0.51,-1.01,-8.390000000000001,10.4,-13.26
3.879481911659241,3,3,3,3,-11.34,-1.35,0.55,-9.619999999999999,11.14,-12.74
3.889481902122498,3,3,3,3,-11,-1.29,-1.11,-7.23,9.1,-13.5
3.899481892585754,3,3,3,3,-9.84,-0.34,-0.58,-4.2,6.99,-13.64
3.909481883049011,3,3,3,3,-9.039999999999999,-0.09,-1.89,-4.64,6.6,-11.26
3.919481873512268,3,3,3,3,-9.279999999999999,-4.06,-2.9,-4.3,6.16,-8.44
3.929481863975525,3,3,3,3,-10.17,-4.63,-2.85,-3.36,5.56,-5.54
3.939481854438782,3,3,3,3,-10.99,-4.05,-2.62,-1.61,4.59,-3.38
3.949481844902039,3,3,3,3,-10.69,-3.05,-2.33,-0.23,3.49,-3.19
3.959481835365295,3,3,3,3,-9.539999999999999,-1.28,-2.4,0.9,1.92,-3.7
3.969481825828552,3,3,3,3,-9.51,-1.46,-3.05,1.44,0.88,-3.65
3.979482054710388,3,3,3,3,-9.9,-1.67,-3.41,1.85,0.06,-2.32
3.989482045173645,3,3,3,3,-10.55,-1.41,-3.38,2.44,-0.25,0.14
3.999482035636902,3,3,3,3,-14.19,-1.28,-2.51,2.11,-0.23,3.02
4.009482026100159,3,3,3,3,-15.03,0.5600000000000001,-1.9,2.45,-1.63,5.37
4.019482016563416,3,3,3,3,-15.15,0.83,-1.46,1.94,-2.54,7.51
4.029482007026672,3,3,3,3,-15,0.16,-0.41,0.22,-3.06,9.470000000000001
4.039481997489929,3,3,3,3,-14.96,2.6,0.6899999999999999,0.47,-4.19,12.93
4.049481987953186,3,3,3,3,-14.83,1.31,0.53,-1.02,-5.33,12.62
4.059481978416443,3,3,3,3,-17.5,-1.4,-0.12,-3.36,-6.07,13.75
4.0694819688797,3,3,3,3,-24.64,-2.48,-0.55,1.68,-11.27,17.1
4.079481959342957,3,3,3,3,-27.73,-0.7,-0.79,1.68,-11.27,17.1
4.089481949806213,3,3,3,3,-28.3,2.91,-0.84,8.109999999999999,-14.52,19.64
4.09948194026947,3,3,3,3,-28.07,6.61,-0.97,13.45,-19.07,20.61
4.109481930732727,3,3,3,3,-30.58,11.56,-2.24,14.42,-20.6,19.14
4.119481921195984,3,3,3,3,-30.92,12.27,-3.5,15.02,-20.64,15.72
4.129481911659241,3,3,3,3,-31.46,10.21,-5.66,15.02,-20.64,15.72
4.139481902122498,3,3,3,3,-30.64,5.21,-6.78,15.5,-19.4,11.84
4.149481892585754,3,3,3,3,-25.77,-3,-3.84,18.83,-10.33,8.640000000000001
4.159481883049011,3,3,3,3,-19.34,-7.5,-1.88,27.5,-1.18,11.3
4.169481873512268,3,3,3,3,-12.37,-6.59,-1.64,34.79,8.57,11.09
4.179481863975525,3,3,3,3,-3.46,0.11,-0.27,34.79,8.57,11.09
4.189481854438782,3,3,3,3,-0.2,-19.82,5.77,1.04,14.1,7.77
4.199481844902039,3,3,3,3,-7.15,-35.97,4.9,-8.800000000000001,7.36,8.9
4.209481835365295,3,3,3,3,-7.21,-32.82,0.77,15.95,6.63,12.11
4.219481825828552,3,3,3,3,-1.97,-8.33,-3.15,-0.4,3.65,10.65
4.229482054710388,3,3,3,3,-2.82,-3.63,-1.44,-0.4,3.65,10.65
4.239482045173645,3,3,3,3,-0.79,-10.79,0.28,-14.63,-1.68,4.43
4.249482035636902,3,3,3,3,0.13,-10.01,1.65,-5.02,-0.18,-0.27
4.259482026100159,3,3,3,3,-0.85,-8.789999999999999,2.44,-0.72,1.38,-0.15
4.269482016563416,3,3,3,3,-0.12,-5.2,1.21,5.99,2.46,2.3
4.279482007026672,3,3,3,3,-1.06,-1.35,-0.22,5.99,2.46,2.3
4.289481997489929,3,3,3,3,-0.98,1.57,-0.97,9.93,2.29,0.88
4.299481987953186,3,3,3,3,0.09,3.73,-0.76,9.75,2.37,-1.46
4.309481978416443,3,3,3,3,1.64,4.89,-0.9399999999999999,9.94,2.35,-0.38
4.3194819688797,3,3,3,3,0.84,5.32,-1.44,7.75,1.67,-0.04
4.329481959342957,3,3,3,3,0.65,4.52,-1.34,7.75,1.67,-0.04
4.339481949806213,3,3,3,3,0.57,3.89,-0.42,5.09,1.07,1.07
4.34948194026947,3,3,3,3,0.32,1.76,0.1,3.62,1.24,0.68
4.359481930732727,3,3,3,3,0.17,1.2,0.48,2.93,1.16,-0.4
4.369481921195984,3,3,3,3,0.15,0.32,0.97,2.25,1.21,-1.34
4.379481911659241,3,3,3,3,-0.04,-0.67,1.2,2.25,1.21,-1.34
4.389481902122498,3,3,3,3,-0.36,-1.09,1.22,2.34,1.46,-2.13
4.399481892585754,3,3,3,3,-0.54,-0.5600000000000001,1.13,1.6,1.22,-2.6
4.409481883049011,3,3,3,3,-0.43,0.24,1.11,-0.02,0.58,-2.47
4.419481873512268,3,3,3,3,-0.17,0.74,0.87,-1.75,-0.85,-2.14
4.429481863975525,3,3,3,3,0.01,0.37,0.66,-1.75,-0.85,-2.14
4.439481854438782,3,3,3,3,0.22,-0.24,0.59,-3.41,-2.1,-1.63
4.449481844902039,3,3,3,3,0.5,-0.97,0.71,-6.01,-2.24,-0.98
4.459481835365295,3,3,3,3,0.74,-2.25,0.86,-6.69,-1.36,-0.91
4.469481825828552,3,3,3,3,0.67,-2.63,0.87,-5.61,-0.63,-0.73
4.479482054710388,3,3,3,3,0.27,-3.07,0.66,-5.61,-0.63,-0.73
4.489482045173645,3,3,3,3,-0.36,-3.24,0.49,-3.43,-0.75,-0.31
4.499482035636902,3,3,3,3,-0.78,-2.51,1.61,1.22,-2.32,0.65
4.509482026100159,3,3,3,3,-0.72,-2.48,1.77,1.21,-2.7,0.93
4.519482016563416,3,3,3,3,-0.6,-2.8,1.29,1.05,-2.43,1.14
4.529482007026672,3,3,3,3,-0.76,-3.44,0.64,1.05,-2.43,1.14
4.539481997489929,3,3,3,3,-1.56,-6.04,0.14,0.91,-1.85,0.74
4.549481987953186,3,3,3,3,-1.85,-7.23,-0.38,11.42,-3.01,-0.33
4.559481978416443,3,3,3,3,-1.87,-6.58,-1.55,18.8,-4.48,-0.34
4.5694819688797,3,3,3,3,-1.34,-3.49,-1.42,20.49,-4.13,0.12
4.579481959342957,3,3,3,3,-0.67,6.06,2.44,20.49,-4.13,0.12
4.589481949806213,3,3,3,3,-8.289999999999999,-5.27,11.05,2.02,-3.85,-0.17
4.59948194026947,3,3,3,3,-18.51,-38.67,-9.039999999999999,54.8,-0.14,-1.46
4.609481930732727,3,3,3,3,-20.13,-9.73,-15.18,47.03,1.68,10.69
4.619481921195984,3,3,3,3,-33.47,23.37,-16.34,-28,0.6899999999999999,-2.72
4.629481911659241,3,3,3,3,-29.49,-18.81,-14.76,-28,0.6899999999999999,-2.72
4.639481902122498,3,3,3,3,-20.99,-13.58,-9.529999999999999,-35.21,11.99,-12.81
4.649481892585754,3,3,3,3,-31.8,-30.8,1.29,-49.52,4.71,-19.09
4.659481883049011,3,3,3,3,-34.21,-37.33,0.38,97.68000000000001,26.52,-11.62
4.669481873512268,3,3,3,3,-20.34,26.03,-18.22,125.38,17.01,5.47
4.679481863975525,3,3,3,3,-23.15,39.43,-10.1,125.38,17.01,5.47
4.689481854438782,3,3,3,3,-16.82,39.07,-1.8,46.22,11.7,-10.09
4.699481844902039,3,3,3,3,4.11,37.79,-5.61,-74.78,0.59,-2.91
4.709481835365295,3,3,3,3,-5.32,20.17,-9.779999999999999,-77.84,0.84,11.37
4.719481825828552,3,3,3,3,-15.91,4.05,-7.8,-44.44,-0.62,5.9
4.729482054710388,3,3,3,3,-19.42,-7.25,-4.06,-44.44,-0.62,5.9
4.739482045173645,3,3,3,3,-22.13,-9.550000000000001,-6.76,-1.9,-2.94,-0.14
4.749482035636902,3,3,3,3,-21.37,3.16,-7.31,21.74,-1.49,5.32
4.759482026100159,3,3,3,3,-20.46,0.22,-5.05,22.93,-0.5600000000000001,2.65
4.769482016563416,3,3,3,3,-15.08,-8.94,-1.58,39.43,0.5600000000000001,0.59
4.779482007026672,3,3,3,3,-12.21,-0.7,-2.78,39.43,0.5600000000000001,0.59
4.789481997489929,3,3,3,3,-9.949999999999999,7.13,-2.55,40.72,1.59,3.17
4.799481987953186,3,3,3,3,-9.1,8.859999999999999,-0.89,11.29,0.61,7.02
4.810481905937195,3,3,3,3,-10.05,6.58,0.5600000000000001,-2.75,-0.45,6.85
4.820481896400452,3,3,3,3,-7.33,3.96,1.28,-8.380000000000001,-1.01,8.630000000000001
4.830481886863708,3,3,3,3,-6.99,0.54,1.67,-8.380000000000001,-1.01,8.630000000000001
4.840481877326965,3,3,3,3,-8.84,-0.83,2.11,-7.54,-1.44,8.16
4.850481867790222,3,3,3,3,-9.24,-1.93,2.76,-3.96,-1.99,1.97
4.860481858253479,3,3,3,3,-8.76,-2.71,2.19,-0.43,-1.86,0.23
4.870481848716736,3,3,3,3,-7.98,-2.52,1.44,5.01,-1.59,-0.01
4.880481839179993,3,3,3,3,-7.15,-1.38,0.71,5.01,-1.59,-0.01
4.89048182964325,3,3,3,3,-7.49,0.24,-0.1,7.08,-1.4,-0.12
4.900482058525085,3,3,3,3,-7.54,-0.27,-0.65,3.33,-1.4,-0.03
4.910482048988342,3,3,3,3,-8.09,-1.19,-0.95,0.21,-1.28,0.63
4.920482039451599,3,3,3,3,-8.09,-1.19,-0.95,-2.06,-0.91,1.22
4.930482029914856,3,3,3,3,-7.88,-3.33,-1.24,-2.06,-0.91,1.22
4.940482020378113,3,3,3,3,-7.73,-4.78,-1.38,-1.42,-0.17,1.22
4.95048201084137,3,3,3,3,-7.74,-4.75,-1.61,3.36,0.83,0.47
4.960482001304626,3,3,3,3,-7.78,-3.94,-1.56,2.51,0.54,0.83
4.970481991767883,3,3,3,3,-8.470000000000001,-3,-1.65,1.21,-0.15,0.97
4.98048198223114,3,3,3,3,-8.69,-3.03,-1.29,1.21,-0.15,0.97
4.990481972694397,3,3,3,3,-8.73,-3.05,-1.35,0.95,-0.48,0.84
5.000481963157654,3,3,3,3,-8.9,-2.65,-0.98,2.97,-0.31,0.53
5.010481953620911,3,3,3,3,-9.19,-0.96,-0.6899999999999999,3.34,-0.27,0.67
5.020481944084167,3,3,3,3,-10.25,-0.2,-0.58,2.17,-0.43,0.5600000000000001
5.030481934547424,3,3,3,3,-10.25,-0.2,-0.58,2.17,-0.43,0.5600000000000001
5.040481925010681,3,3,3,3,-10.3,-0.44,-0.4,0.72,-0.58,0.63
5.050481915473938,3,3,3,3,-10.03,-2.11,-0.28,-0.86,-0.52,0.6899999999999999
5.060481905937195,3,3,3,3,-10.01,-2.12,-0.09,0.37,-0.36,0.52
5.070481896400452,3,3,3,3,-9.76,-1.67,0,1.25,-0.18,0.3
5.080481886863708,3,3,3,3,-9.76,-1.67,0,1.25,-0.18,0.3
5.090481877326965,3,3,3,3,-9.449999999999999,-1.76,0.26,1.3,-0.11,0.35
5.100481867790222,3,3,3,3,-9.73,-1.51,0.2,0.18,-0.03,0.48
5.110481858253479,3,3,3,3,-9.5,-1.68,0.05,-0.31,-0.21,0.15
5.120481848716736,3,3,3,3,-9.82,-0.33,0,0.43,0.01,0.48
5.130481839179993,3,3,3,3,-9.82,-0.33,0,0.43,0.01,0.48
5.14048182964325,3,3,3,3,-10.11,0.2,-0.23,1.29,0.24,0.09
5.150482058525085,3,3,3,3,-10.32,1.42,-0.44,-0.08,0.04,0.55
5.160482048988342,3,3,3,3,-10.34,0.93,-0.43,-2.1,-0.17,0.39
5.170482039451599,3,3,3,3,-9.92,-0.05,-0.64,-3.7,-0.42,0.46
5.180482029914856,3,3,3,3,-9.92,-0.05,-0.64,-4.87,-0.55,0.86
5.190482020378113,3,3,3,3,-9.5,-1.62,-0.7,-4.54,-0.57,1.46
5.20048201084137,3,3,3,3,-9.039999999999999,-3.66,-0.55,-3.21,-0.59,1.35
5.210482001304626,3,3,3,3,-8.890000000000001,-3.77,-0.19,-1.68,-0.51,0.82
5.220481991767883,3,3,3,3,-9.01,-2.95,-0.19,0.5,-0.42,0.5
5.23048198223114,3,3,3,2,-9.01,-2.95,-0.19,2.18,-0.49,0.1
5.240481972694397,3,3,3,2,-9.49,-0.61,-0.33,1.9,-0.55,-0.18
5.250481963157654,3,3,3,2,-10,0.7,-0.28,0.49,-0.68,-0.2
5.260481953620911,3,3,3,2,-10.14,1.23,-0.32,-0.74,-0.8100000000000001,0.07000000000000001
5.270481944084167,3,3,3,2,-10.28,1.19,-0.47,-1.76,-0.93,0.17
5.280481934547424,3,3,3,2,-10.28,1.19,-0.47,-2.58,-1.07,0.58
5.290481925010681,3,3,3,2,-10.2,0.74,-0.38,-2.37,-1.01,0.85
5.300481915473938,3,3,3,2,-10.3,0.57,-0.67,-1.6,-0.88,0.95
5.310481905937195,3,3,3,2,-10.09,0.38,-0.67,-0.9,-0.72,1.05
5.320481896400452,3,3,3,2,-10.02,0.21,-0.57,-0.5,-0.35,1.27
5.330481886863708,3,3,3,2,-10.02,0.21,-0.57,-0.17,-0.01,1.57
5.340481877326965,3,3,3,2,-9.949999999999999,0.33,-0.55,0.04,0.18,1.78
5.350481867790222,3,3,3,2,-9.84,0.39,-0.63,-0.28,-0.02,1.93
5.360481858253479,3,3,3,2,-9.880000000000001,0.08,-0.53,-1.42,-0.05,2.07
5.370481848716736,3,3,3,2,-10.01,-0.15,-0.27,-2.14,-0.13,2.12
5.380481839179993,3,3,3,2,-10.01,-0.15,-0.27,-2.37,-0.16,2.09
5.39048182964325,3,3,3,2,-9.869999999999999,-0.26,-0.22,-2.59,-0.09,2.11
5.400482058525085,3,3,3,2,-9.609999999999999,-0.11,-0.27,-2.82,-0.14,2.15
5.410482048988342,3,3,3,2,-9.66,-0.3,-0.19,-3.17,-0.16,1.97
5.420482039451599,3,3,3,2,-9.65,-0.58,-0.04,-3.51,-0.19,1.71
5.430482029914856,3,3,3,2,-9.65,-0.58,-0.04,-2.83,-0.3,1.44
5.440482020378113,3,3,3,2,-9.66,-0.8,0.12,-2.49,-0.21,1.1
5.45048201084137,3,3,3,2,-9.630000000000001,-0.84,-0.08,-1.97,-0.18,0.87
5.460482001304626,3,3,3,2,-9.65,-0.87,-0.07000000000000001,-1.28,-0.39,0.74
5.470481991767883,3,3,3,2,-9.640000000000001,-1,-0.05,-1.08,-0.45,0.67
5.48048198223114,3,3,3,2,-9.65,-0.73,-0.09,-0.54,-0.52,0.54
5.490481972694397,3,3,3,2,-9.609999999999999,-0.64,-0.15,-0.35,-0.51,0.48
5.500481963157654,3,3,3,2,-9.85,-0.52,-0.61,0.05,-0.51,0.44
5.510481953620911,3,3,3,2,-9.869999999999999,0.09,-0.4,1.04,-0.61,0.39
5.520481944084167,3,3,3,2,-9.85,0.23,-0.54,0.89,-0.49,0.42
5.530481934547424,3,3,3,2,-9.92,0.58,-0.25,0.66,-0.45,0.34
5.540481925010681,3,3,3,2,-9.91,0.92,-0.24,0.31,-0.35,0.45
5.550481915473938,3,3,3,2,-9.85,0.59,-0.24,-0.26,-0.35,0.55
5.560481905937195,3,3,3,2,-9.83,0.25,-0.18,-0.51,-0.43,0.45
5.570481896400452,3,3,3,2,-9.859999999999999,0.35,-0.1,0.06,-0.4,0.59
5.580481886863708,3,3,3,2,-9.630000000000001,0.44,-0.07000000000000001,0.2,-0.36,0.64
5.590481877326965,3,3,3,2,-9.58,0.42,-0.2,0.1,-0.36,0.65
5.600481867790222,3,3,3,2,-9.68,0.34,-0.29,0,-0.41,0.65
5.610481858253479,3,3,3,2,-9.82,0.15,-0.24,-0.19,-0.6,0.57
5.620481848716736,3,3,3,2,-9.779999999999999,0.05,-0.26,0.09,-0.5600000000000001,0.47
5.630481839179993,3,3,3,2,-9.69,0.44,-0.05,0.59,-0.45,0.24
5.64048182964325,3,3,3,2,-9.630000000000001,0.53,-0.02,0.44,-0.36,0.26
5.650482058525085,3,3,3,2,-9.77,0.67,-0.32,0.74,-0.46,0.23
5.660482048988342,3,3,3,2,-9.58,1.02,-0.25,1.16,-0.62,0.15
5.670482039451599,3,3,3,2,-9.66,0.92,-0.49,1.1,-0.7,0.17
5.680482029914856,3,3,3,2,-9.699999999999999,0.77,-0.31,1.47,-0.75,0.15
5.690482020378113,3,3,3,2,-9.69,0.52,-0.23,1.39,-0.58,0.24
5.70048201084137,3,3,3,2,-9.93,0.12,-0.42,1.55,-0.47,0.21
5.710482001304626,3,3,3,2,-9.91,0.18,-0.23,2.05,-0.42,-0.07000000000000001
5.720481991767883,3,3,3,2,-9.81,0.2,-0.07000000000000001,2.48,-0.29,-0.38
5.73048198223114,3,3,3,3,-9.84,0.06,0,2.63,0.02,-0.86
5.740481972694397,3,3,3,3,-9.380000000000001,-0.09,0.02,2.41,0.14,-0.75
5.750481963157654,3,3,3,3,-9.67,-0.61,0.05,1.7,0.05,-0.45
5.760481953620911,3,3,3,3,-9.77,-1.41,0.02,0.96,0.11,-0.89
5.770481944084167,3,3,3,3,-9.59,-2.37,0,0.59,0.1,-1.08
5.780481934547424,3,3,3,3,-9.51,-3.78,0.16,0.86,0.04,-0.79
5.790481925010681,3,3,3,3,-9.42,-4.18,0.34,0.46,-0.1,-0.83
5.800481915473938,3,3,3,3,-9.19,-4.74,0.41,-0.61,-0.44,-1.06
5.811481833457947,3,3,3,3,-8.57,-7.55,0.8,-2.46,-0.99,-1.57
5.820481896400452,3,3,3,3,-8.31,-8.93,1.41,-4.02,-1.8,-2.1
5.83148205280304,3,3,3,3,-8.029999999999999,-9.119999999999999,2.56,-5.54,-2.61,-2.64
5.841482043266296,3,3,3,3,-7.9,-8.720000000000001,2.69,-6.48,-2.97,-3.59
5.851482033729553,3,3,3,3,-7.53,-6.12,1.7,-3.91,-3.25,-6.03
5.86148202419281,3,3,3,3,-7.17,-4.73,0.93,-0.77,-3.1,-7.67
5.871482014656067,3,3,3,3,-7.44,-1.51,1.04,1.92,-3.13,-8.31
5.881482005119324,3,3,3,3,-7.68,0.96,1.16,-0.9,-4.58,-7.88
5.891481995582581,3,3,3,3,-9.32,2.3,0.52,-6.95,-5.94,-7.24
5.901481986045837,3,3,3,3,-10.12,2.33,0.86,-9.65,-6.1,-8.359999999999999
5.911481976509094,3,3,3,3,-10.32,1.59,-0.5600000000000001,-11.25,-4.27,-9.68
5.921481966972351,3,3,3,3,-9.699999999999999,1.78,-1.55,-9.91,-1.69,-9.85
5.931481957435608,3,3,3,3,-7.9,3.84,0.18,-10.93,0.39,-8.4
5.941481947898865,3,3,3,3,-7.83,2.54,0,-17.54,1.36,-7.12
5.951481938362122,3,3,3,3,-8.74,0.1,-0.66,-22.13,1.88,-7.6
5.961481928825378,3,3,3,3,-9.300000000000001,-1.77,-0.3,-20.07,1.25,-7.91
5.971481919288635,3,3,3,3,-8.779999999999999,-2.05,0.24,-17,2.88,-8.43
5.981481909751892,3,3,3,3,-9.01,-1.27,-0.66,-15.43,5.63,-9.380000000000001
5.991481900215149,3,3,3,3,-9.720000000000001,-1.01,-0.82,-14.49,6.57,-10.26
6.001481890678406,3,3,3,3,-10.38,-1.26,-1.38,-12.03,7.02,-9.720000000000001
6.011481881141663,3,3,3,3,-10.88,2.96,-0.57,-7.48,8.380000000000001,-8.880000000000001
6.021481871604919,3,3,3,3,-10.07,4.94,-1.01,-6.39,9.5,-8.65
6.031481862068176,3,3,3,3,-9.34,4.63,-1.45,-8.57,9.699999999999999,-8.23
6.041481852531433,3,3,3,3,-9.550000000000001,2.26,-1.36,-9.789999999999999,9.4,-8.5
6.05148184299469,3,3,3,3,-11.92,-2.39,-0.28,-8.029999999999999,7.35,-8.65
6.061481833457947,3,3,3,3,-12.18,-2.71,0.04,-6.02,7.26,-8.699999999999999
6.071481823921204,3,3,3,3,-11.13,-1.52,-0.1,-5.18,7.65,-8.56
6.08148205280304,3,3,3,3,-10.61,-1.16,-0.5600000000000001,-6.4,7.69,-9.74
6.091482043266296,3,3,3,3,-9.92,-1.23,0.26,-7.08,7.05,-11.02
6.101482033729553,3,3,3,3,-9.73,-1.05,-1.8,-6.86,7.59,-11.47
6.11148202419281,3,3,3,3,-9.51,-0.74,-1.37,-4.54,6.83,-10.83
6.121482014656067,3,3,3,3,-9.81,-0.63,-2.03,-3.68,5.88,-8.69
6.131482005119324,3,3,3,3,-10.07,-2.17,-1,-2.01,5.23,-6.93
6.141481995582581,3,3,3,3,-10.38,-2.14,-0.87,0.42,4.71,-6.42
6.151481986045837,3,3,3,3,-10.3,-1.96,-1.08,1.34,3.82,-6.23
6.161481976509094,3,3,3,3,-9.869999999999999,-2.11,-1.31,0.31,3.4,-6.29
6.171481966972351,3,3,3,3,-10.05,-2.87,-1,-1.69,3.65,-6.2
6.181481957435608,3,3,3,3,-10.27,-3.4,-0.67,-3.28,4.38,-5.3
6.191481947898865,3,3,3,3,-10.93,-2.5,-0.75,-4.4,4.97,-3.11
6.201481938362122,3,3,3,3,-11.22,-3.64,-0.8,-4.6,3.16,-3.88
6.211481928825378,3,3,3,3,-10.3,-3.33,-0.91,-3.27,1.86,-4
6.221481919288635,3,3,3,3,-10.62,-3.27,-1.34,-2.96,1.61,-3
6.231481909751892,3,3,3,3,-10.3,-3.52,-1.43,-2.2,0.53,-3.25
6.241481900215149,3,3,3,3,-9.789999999999999,-2.68,-1.49,-0.35,-1.37,-2.75
6.251481890678406,3,3,3,3,-9.32,-2.37,-1.76,0.89,-2.66,-1.93
6.261481881141663,3,3,3,3,-9.220000000000001,-2.09,-1.99,1.08,-2.65,-0.85
6.271481871604919,3,3,3,3,-9.58,-2.24,-2.2,0.4,-2.29,0.46
6.281481862068176,3,3,3,3,-11.67,-3.25,-3.04,-0.29,-2.07,1.94
6.291481852531433,3,3,3,3,-12.83,-4.15,-3.16,-1.12,-1.93,3.05
6.30148184299469,3,3,3,3,-13.8,-3.81,-3.11,-0.55,-2.11,3.43
6.311481833457947,3,3,3,3,-14.33,-2.72,-2.93,1.07,-2.69,4.36
6.321481823921204,3,3,3,3,-13.82,-0.47,-2.74,2.56,-3.18,5.4
6.33148205280304,3,3,3,3,-13.5,0.95,-2.08,3.47,-3.79,6.68
6.341482043266296,3,3,3,3,-13.4,3.34,-1.42,4.21,-4.69,8.25
6.351482033729553,3,3,3,3,-13.18,5.52,-0.51,4.41,-5.82,10.33
6.36148202419281,3,3,3,3,-10.47,8.15,-1.27,3.58,-6.31,10.75
6.371482014656067,3,3,3,3,-12.58,5.02,-2.74,0.82,-5.55,10.71
6.381482005119324,3,3,3,3,-16.32,1.65,-3.61,-1.89,-5.49,12.06
6.391481995582581,3,3,3,3,-22.15,-4.29,-3.19,-0.37,-8.23,15.56
6.401481986045837,3,3,3,3,-31.89,-5.43,-0.29,8.449999999999999,-13.02,19.19
6.411481976509094,3,3,3,3,-29.85,0.25,0.11,18.23,-16.36,19.37
6.421481966972351,3,3,3,3,-27.97,7.11,0.25,23.53,-17.99,17.63
6.431481957435608,3,3,3,3,-27.12,11.06,0.11,24.42,-18.33,17.32
6.441481947898865,3,3,3,3,-32.05,10.97,-0.06,25.14,-18.21,17.25
6.451481938362122,3,3,3,3,-30.99,8.460000000000001,0.17,23.74,-16.98,14.79
6.461481928825378,3,3,3,3,-28.31,5.21,0.61,21.21,-14.07,13.53
6.471481919288635,3,3,3,3,-25.72,0.54,1.44,20.72,-8.58,11.59
6.481481909751892,3,3,3,3,-14.66,-2.6,-1.91,27.29,1.05,10.36
6.491481900215149,3,3,3,3,-5.2,2.21,-1.45,22.97,9.51,8.31
6.501481890678406,3,3,3,3,0.99,-3.47,-0.46,-12,11.35,7.11
6.511481881141663,3,3,3,3,-6.33,-38.26,-1.12,-33.49,8.800000000000001,7.58
6.521481871604919,3,3,3,3,-1.58,-37.21,-2.32,-18.21,2.63,7.84
6.531481862068176,3,3,3,3,0.31,-17.34,-1.61,1.79,2.54,8.73
6.541481852531433,3,3,3,3,-3.66,0.61,4.24,0.77,-1.78,11.38
6.55148184299469,3,3,3,3,-3.13,-4.5,4.32,-13.23,-5.06,8.029999999999999
6.561481833457947,3,3,3,3,-1,-8.92,3.17,-18.42,-4.38,1.25
6.571481823921204,3,3,3,3,0.06,-10.1,1.03,-12.49,-1.56,-3.51
6.58148205280304,3,3,3,3,1.09,-9.6,-0.76,-2.36,1.55,-2.88
6.591482043266296,3,3,3,3,0.38,-1.52,-2.82,6.3,3.28,-0.22
6.601482033729553,3,3,3,3,1.16,1.21,-2.56,9.470000000000001,3.61,0.27
6.61148202419281,3,3,3,3,1.97,3.5,-1.81,9.52,2.94,0.32
6.621482014656067,3,3,3,3,1.87,4.84,-1.25,7.31,2.27,0.97
6.631482005119324,3,3,3,3,0.02,4.7,-0.1,4.64,1.08,1.28
6.641481995582581,3,3,3,3,-0.11,2.38,-0.07000000000000001,2.03,0.03,0.61
6.651481986045837,3,3,3,3,-0.03,-0.15,-0.38,2.02,-0.11,0.85
6.661481976509094,3,3,3,3,0.15,-1.05,-0.08,4.2,0.82,0.19
6.671481966972351,3,3,3,3,0.27,-0.88,0.52,5.19,1.62,-0.22
6.681481957435608,3,3,3,3,0.14,-1.05,0.79,4.73,1.79,-0.28
6.691481947898865,3,3,3,3,0.02,-1.16,1.09,4.56,1.77,-0.67
6.701481938362122,3,3,3,3,-0.32,-1,0.89,5.02,1.63,-1.03
6.711481928825378,3,3,3,3,-0.3,0.24,0.28,5.22,1.51,-1.25
6.721481919288635,3,3,3,3,-0.33,1.59,0.52,3.66,1.29,-1.1
6.731481909751892,3,3,3,2,-0.4,2.44,0.33,1.13,1.02,-0.97
6.741481900215149,3,3,3,2,-0.25,2.58,0,-0.95,0.82,-0.8
6.751481890678406,3,3,3,2,0.03,1.12,-0.05,-2.25,0.31,-0.76
6.761481881141663,3,3,3,2,0.1,0,0,-2.57,-0.57,-0.66
6.771481871604919,3,3,3,2,0.21,-0.78,0.04,-2.04,-1.15,-0.66
6.781481862068176,3,3,3,2,0.37,-1.38,0.39,-0.55,-1.37,-0.37
6.791481852531433,3,3,3,2,-0.01,-1.89,1.01,0.74,-0.89,-0.08
6.802482008934021,3,3,3,2,-0.35,-1.48,1.23,1.18,-0.44,0.2
6.811481833457947,3,3,3,2,-0.42,-0.86,1.25,0.57,-0.44,0.48
6.821481823921204,3,3,3,2,-0.58,-1.16,0.96,-0.42,-0.53,0.51
6.832481980323792,3,3,3,2,-0.18,-1.34,0.39,1.58,-1.43,0.51
6.841482043266296,3,3,3,2,0.19,-0.83,0.73,2.44,-1.83,0.98
6.851482033729553,3,3,3,2,0.26,-0.92,0.4,1.67,-0.83,0.91
6.862481951713562,3,3,3,2,-0.15,-1.43,0.11,1.59,-0.05,0.64
6.872481942176819,3,3,3,2,-1.2,-3.11,-0.28,2.59,-0.39,0.15
6.882481932640076,3,3,3,2,-1.32,-4.07,0.02,4.77,-1.63,-0.34
6.892481923103333,3,3,3,2,-1.31,-4.68,0.03,8.68,-2.5,-0.6899999999999999
6.902481913566589,3,3,3,2,-2,0.02,3.13,13.23,-2.55,-0.88
6.912481904029846,3,3,3,2,-9.16,-7.65,13.58,-12.46,-5.9,0.13
6.922481894493103,3,3,3,2,-16.37,-38.81,-2.81,-40.64,-14.52,-0.33
6.93248188495636,3,3,3,2,-13.39,-20.92,-25.85,84.23999999999999,7.89,-0.79
6.942481875419617,3,3,3,2,-39.27,26.78,-13.79,35.91,-3.77,11.92
6.952481865882874,3,3,3,2,-35.61,-20.79,-10.45,-37.14,-1.54,-10.78
6.96248185634613,3,3,3,2,-19.84,-13.01,-8.98,-26.42,10.79,-14.76
6.972481846809387,3,3,3,2,-21.89,-16.64,4.09,-95.28,-4.51,-13.74
6.982481837272644,3,3,3,2,-38.92,-39.01,2.04,-58.58,1.46,-11.39
6.992481827735901,3,3,3,2,-25.09,3.83,-9.4,86.63,25.6,-12.15
7.002482056617737,3,3,3,2,-20.52,39.43,-9.82,114.61,18.14,3.28
7.012482047080994,3,3,3,2,-13.6,39.16,-0.45,35.93,9.5,-12
7.02248203754425,3,3,3,2,0.04,38.68,-3.37,-32.73,0.63,-20.97
7.032482028007507,3,3,3,2,-4.49,22.84,-7.36,-79.51000000000001,-1.17,-0.5600000000000001
7.042482018470764,3,3,3,2,-15.47,2.65,-7.46,-81.36,-1.87,10.32
7.052482008934021,3,3,3,2,-22.84,-9.82,-3.55,-40.61,-2.12,7.74
7.062481999397278,3,3,3,2,-19.88,-1.86,-4.21,3.4,-4.14,0.97
7.072481989860535,3,3,3,2,-16.02,8.06,-5.18,21.11,-4.03,4.42
7.082481980323792,3,3,3,2,-14.92,5.34,-4.35,6.92,-3.55,4.86
7.092481970787048,3,3,3,2,-18.88,-3.56,-2.45,0.82,-3.84,-0.65
7.102481961250305,3,3,3,2,-15.84,-11.89,0.05,16.41,-3.53,-0.9
7.112481951713562,3,3,3,2,-12.03,-2.14,-0.5,26.87,-3.51,2.59
7.122481942176819,3,3,3,2,-11.31,4.87,-0.17,19.58,-3.38,3.9
7.132481932640076,3,3,3,2,-11.99,7.17,-0.8,9.050000000000001,-2.76,2.61
7.142481923103333,3,3,3,2,-7.77,4.49,-1.39,0.92,-2.2,6.4
7.152481913566589,3,3,3,2,-6.69,4.68,-1.38,-2.2,-2.16,8.199999999999999
7.162481904029846,3,3,3,2,-6.26,4.32,-1.03,-3,-2.37,6.35
7.172481894493103,3,3,3,2,-6.24,3.39,-0.68,-3.17,-2.19,5.2
7.18248188495636,3,3,3,2,-7.07,-0.5600000000000001,0.23,-3,-1.89,4.83
7.192481875419617,3,3,3,2,-7.38,-2.14,0.79,-2.65,-1.81,4.92
7.202481865882874,3,3,3,2,-7.75,-3.33,1.18,-1.27,-1.77,4.32
7.21248185634613,3,3,3,2,-7.95,-3.83,1.33,1.36,-1.87,3.09
7.222481846809387,3,3,3,2,-7.24,-2.62,1.93,3.84,-1.52,2.24
7.232481837272644,3,3,3,2,-6.95,-2.11,1.92,4.13,-0.88,1.99
7.242481827735901,3,3,3,2,-6.97,-2.17,1.86,4.43,-0.55,2.3
7.252482056617737,3,3,3,2,-7.02,-1.23,1.93,5.58,-0.4,2.77
7.262482047080994,3,3,3,2,-7.09,-0.43,1.51,6.15,0.37,2.67
7.27248203754425,3,3,3,2,-7.13,-0.17,1.18,5.08,0.86,2.21
7.282482028007507,3,3,3,2,-7.19,-0.37,0.71,2.58,1.21,1.88
7.292482018470764,3,3,3,2,-7.81,-1.9,-0.71,0.06,1.01,1.53
7.302482008934021,3,3,3,2,-8.02,-2.82,-1.26,-0.76,0.55,0.89
7.312481999397278,3,3,3,2,-8.199999999999999,-3.35,-1.54,-0.1,0.3,0.36
7.322481989860535,3,3,3,2,-8.31,-3.4,-1.46,0.99,0.23,0.02
7.332481980323792,3,3,3,2,-9.619999999999999,-3.59,-0.91,1.94,0.15,-0.05
7.342481970787048,3,3,3,2,-10.49,-3.12,-0.3,2.24,-0.3,-0.16
7.352481961250305,3,3,3,2,-11.31,-3.15,0.38,0.92,-1.14,0.12
7.362481951713562,3,3,3,2,-12.02,-3.57,1.29,1.36,-1.85,0.28
7.372481942176819,3,3,3,2,-11.23,-1.57,1.69,3.14,-0.96,0.14
7.382481932640076,3,3,3,2,-10.63,0.17,1.53,4.02,-0.14,0.15
7.392481923103333,3,3,3,2,-10.28,1.59,1.22,4.02,-0.14,0.15
7.402481913566589,3,3,3,2,-10.24,2.2,0.61,3.39,0.04,-0.1
7.412481904029846,3,3,3,2,-10.69,2.39,-0.2,-0.5600000000000001,-0.64,-0.42
7.422481894493103,3,3,3,2,-10.53,2.41,-0.48,-2.54,-0.66,-0.77
7.43248188495636,3,3,3,2,-10.23,1.69,-0.68,-3.65,-1.08,-0.8
7.442481875419617,3,3,3,2,-10.11,0.83,-0.37,-3.65,-1.08,-0.8
7.452481865882874,3,3,3,2,-10.32,0.5600000000000001,-0.01,-3.87,-1.17,-0.23
7.46248185634613,3,3,3,2,-10.08,0.27,0.32,-3.34,-0.91,0.52
7.472481846809387,3,3,3,2,-10.09,0.1,0.52,-2.73,-0.31,1.05
7.482481837272644,3,3,3,2,-10.1,-0.6,0.36,-2.74,0.32,1.08
7.492481827735901,3,3,3,2,-9.32,-1.73,0.37,-2.74,0.32,1.08
7.502482056617737,3,3,3,2,-9.06,-1.47,0.16,-1.6,0.49,0.9
7.512482047080994,3,3,3,2,-9.140000000000001,-0.68,0.22,0.52,0.79,0.39
7.52248203754425,3,3,3,2,-9.039999999999999,-0.6,0.14,1.58,0.93,0.39
7.532482028007507,3,3,3,2,-9.18,-0.58,0.16,1.12,0.21,0.34
7.542482018470764,3,3,3,2,-9.27,-0.55,0.14,1.12,0.21,0.34
7.552482008934021,3,3,3,2,-9.33,-0.63,-0.02,0.8,0.07000000000000001,0.11
7.562481999397278,3,3,3,2,-9.26,-0.58,-0.01,1.08,0.07000000000000001,-0.15
7.572481989860535,3,3,3,2,-9.76,0.3,-0.08,1.65,0.04,-0.18
7.582481980323792,3,3,3,2,-9.869999999999999,0.65,0.06,2.07,-0.02,0.22
7.592481970787048,3,3,3,2,-9.85,0.57,0.2,1.73,-0.15,0.46
7.602481961250305,3,3,3,2,-9.859999999999999,-0.37,0.21,0.35,-0.02,0.46
7.612481951713562,3,3,3,2,-9.77,-0.55,0.28,-0.62,-0.09,0.51
7.622481942176819,3,3,3,2,-9.699999999999999,-0.92,0.15,-1.05,-0.24,0.55
7.632481932640076,3,3,3,2,-9.529999999999999,-0.78,0.18,-0.99,-0.4,0.47
7.642481923103333,3,3,3,2,-9.550000000000001,0.38,0.05,0.24,-0.3,0.35
7.652481913566589,3,3,3,2,-9.699999999999999,0.6899999999999999,0.02,0.39,-0.12,0.31
7.662481904029846,3,3,3,2,-9.9,0.8100000000000001,0.01,0.36,-0.08,0.48
7.672481894493103,3,3,3,2,-10.09,0.65,0.02,0.29,-0.05,0.6899999999999999
7.68248188495636,3,3,3,3,-10.46,0.33,0.24,0.37,-0.1,0.82
7.692481875419617,3,3,3,3,-10.33,0.16,0.16,0.73,-0.12,0.75
7.702481865882874,3,3,3,3,-10.15,0.08,0.15,1.01,0.07000000000000001,0.85
7.71248185634613,3,3,3,3,-9.960000000000001,0.2,0.18,1.81,0.26,1.12
7.722481846809387,3,3,3,3,-9.710000000000001,0.42,0.18,2.81,0.6,1.23
7.732481837272644,3,3,3,3,-9.619999999999999,0,0.21,2.85,0.92,1.27
7.742481827735901,3,3,3,3,-9.69,-0.5,0.21,2.38,0.87,1.12
7.752482056617737,3,3,3,3,-9.720000000000001,-0.54,0.17,2.18,0.75,1.08
7.762482047080994,3,3,3,3,-9.6,-0.55,0.21,2.17,0.8,1.03
7.77248203754425,3,3,3,3,-9.57,-0.45,0.27,2.35,0.62,0.89
7.782482028007507,3,3,3,3,-9.640000000000001,-0.31,0.33,2.66,0.38,0.78
7.792482018470764,3,3,3,3,-9.77,-0.02,0.38,2.88,0.39,0.76
7.802482008934021,3,3,3,3,-9.890000000000001,0.67,0.14,2.83,0.42,0.57
7.812481999397278,3,3,3,3,-9.880000000000001,0.82,0.24,2.42,0.35,0.45
7.822481989860535,3,3,3,3,-9.890000000000001,0.8100000000000001,0.18,1.59,0.26,0.5600000000000001
7.832481980323792,3,3,3,3,-9.98,0.52,0.12,0.82,0.33,0.66
7.842481970787048,3,3,3,3,-9.66,-0.33,0.41,0.13,0.31,0.71
7.852481961250305,3,3,3,3,-9.720000000000001,-1.04,0.29,-0.8,0.4,0.73
7.862481951713562,3,3,3,3,-9.93,-1.53,0.09,-1.18,0.49,0.64
7.872481942176819,3,3,3,3,-9.84,-1.19,0.26,-0.27,0.4,0.3
7.883481860160828,3,3,3,3,-9.609999999999999,-0.47,0.05,1.09,0.4,-0.41
7.893481850624084,3,3,3,3,-9.779999999999999,0.3,0.13,2.08,0.44,-0.32
7.903481841087341,3,3,3,3,-9.84,0.93,0.11,1.89,0.31,-0.42
7.913481831550598,3,3,3,3,-9.859999999999999,0.95,0.11,0.52,0.42,-0.35
7.923482060432434,3,3,3,3,-10.14,0.87,-0.07000000000000001,-0.7,0.49,-0.06
7.933482050895691,3,3,3,3,-10.06,1.03,-0.01,-1.14,0.15,-0.07000000000000001
7.943482041358948,3,3,3,3,-10.05,1.01,-0.05,-1.31,0,0.16
7.953482031822205,3,3,3,3,-10.03,0.79,-0.23,-1.75,-0.07000000000000001,0.41
7.963482022285461,3,3,3,3,-9.91,0.23,-0.02,-1.78,-0.06,0.45
7.973482012748718,3,3,3,3,-9.880000000000001,-0.2,0.05,-1.66,-0.03,0.33
7.983482003211975,3,3,3,3,-9.880000000000001,-0.67,0.06,-1.47,0,0.21
7.993481993675232,3,3,3,3,-9.82,-1.45,-0.05,-0.87,-0.04,0.13
8.003481984138489,3,3,3,3,-9.779999999999999,-0.23,0,0.41,-0.03,-0.14
8.013481974601746,3,3,3,3,-9.56,0.93,0.06,2.42,0.12,-0.28
8.023481965065002,3,3,3,3,-9.5,1.25,0,2.8,0.35,-0.42
8.033481955528259,3,3,3,3,-9.880000000000001,1.64,0.01,1.85,0.6,-0.29
8.043481945991516,3,3,3,3,-10.02,1.36,-0.04,0.87,0.5,0.04
8.053481936454773,3,3,3,3,-9.99,1.15,-0.04,-0.2,0.2,0.04
8.06348192691803,3,3,3,3,-9.859999999999999,1.03,-0.05,-0.74,0.01,-0.13
8.073481917381287,3,3,3,3,-9.869999999999999,0.6,-0.08,-1.15,-0.11,-0.1
8.083481907844543,3,3,3,3,-9.94,0.58,-0.14,-1.02,-0.14,-0.19
8.0934818983078,3,3,3,3,-9.92,0.39,-0.11,-0.42,-0.15,-0.29
8.103481888771057,3,3,3,3,-9.85,0.38,0,0.1,-0.24,-0.54
8.113481879234314,3,3,3,3,-10.07,0.54,0,0.23,-0.14,-0.5
8.123481869697571,3,3,3,3,-10.14,0.15,-0.02,0.24,-0.03,-0.41
8.133481860160828,3,3,3,3,-10.03,0.16,-0.09,0.13,-0.24,-0.35
8.143481850624084,3,3,3,3,-10.09,0.31,0.02,0.12,-0.41,-0.27
8.153481841087341,3,3,3,3,-9.710000000000001,0.54,-0.07000000000000001,-0.05,-0.49,-0.2
8.163481831550598,3,3,3,3,-9.75,0.36,-0.08,-0.2,-0.31,-0.13
8.173482060432434,3,3,3,3,-9.67,0.44,-0.02,0.08,-0.01,-0.31
8.183482050895691,3,3,3,3,-9.81,0.3,0,0.58,0.02,-0.22
8.193482041358948,3,3,3,3,-9.699999999999999,0.11,0.06,0.8,-0.01,-0.34
8.203482031822205,3,3,3,3,-9.69,-0.18,0.03,0.74,0.11,-0.47
8.213482022285461,3,3,3,3,-9.73,-0.18,0.12,0.58,0.31,-0.39
8.223482012748718,3,3,3,3,-9.619999999999999,-0.4,0.17,0.48,0.17,-0.45
8.233482003211975,3,3,3,3,-9.529999999999999,-1.12,0.18,0.14,0.09,-0.68
8.243481993675232,3,3,3,3,-9.550000000000001,-0.9,0.46,0.89,0,-0.83
8.253481984138489,3,3,3,3,-9.359999999999999,-0.5,0.47,1.83,-0.39,-0.97
8.263481974601746,3,3,3,3,-9.380000000000001,-0.04,0.53,1.56,-0.27,-0.97
8.273481965065002,3,3,3,3,-9.65,-0.66,0.5600000000000001,0.92,-0.43,-1.18
8.283481955528259,3,3,3,3,-9.630000000000001,-1.18,0.66,-0.3,-0.87,-1.36
8.293481945991516,3,3,3,3,-9.5,-1.6,0.66,-1.36,-1.31,-1.42
8.303481936454773,3,3,3,3,-9.279999999999999,-2.22,0.65,-2.08,-1.67,-1.73
8.31348192691803,3,3,3,3,-8.699999999999999,-3.99,1.07,-2.82,-1.76,-2.13
8.323481917381287,3,3,3,3,-8.51,-4.78,1.26,-3.89,-1.53,-2.61
8.333481907844543,3,3,3,3,-8.449999999999999,-5.94,1.42,-5.6,-1.13,-3.22
8.3434818983078,3,3,3,3,-8.800000000000001,-7.92,1.06,-6.94,-0.92,-4.31
8.353481888771057,3,3,3,3,-8.92,-7.44,1.1,-6.66,-0.96,-5.82
8.363481879234314,3,3,3,3,-8.15,-5.67,2.07,-3.94,-2.16,-6.84
8.373481869697571,3,3,3,3,-7.28,-4.07,2.39,-2.71,-3.11,-6.86
8.383481860160828,3,3,3,3,-7.91,-2.32,2.28,-3.92,-2.81,-6.48
8.393481850624084,3,3,3,3,-8.4,-1.93,2.32,-5.7,-3.24,-7.03
8.403481841087341,3,3,3,3,-8.630000000000001,-2.42,1.59,-10.26,-3.52,-8.4
8.413481831550598,3,3,3,3,-8.529999999999999,-2.34,1.28,-13.29,-2.44,-9.94
8.423482060432434,3,3,3,3,-7.86,-2.09,-0.1,-13.5,-1.5,-10.94
8.433482050895691,3,3,3,3,-8.279999999999999,-0.47,-0.42,-12.18,-0.39,-10.35
8.443482041358948,3,3,3,3,-7.67,2.48,0.05,-7.76,0.58,-10.62
8.453482031822205,3,3,3,3,-6.99,4.54,-0.24,-7.72,3.16,-11.65
8.463482022285461,3,3,3,3,-6.7,5.1,-0.07000000000000001,-12.79,6.43,-12.2
8.473482012748718,3,3,3,3,-7.24,3.31,-0.74,-18.47,6.92,-12.4
8.483482003211975,3,3,3,3,-7.9,1.67,-0.65,-21.21,6.32,-11.76
8.493481993675232,3,3,3,3,-8.539999999999999,-0.09,-0.49,-21.95,6.72,-10.64
8.503481984138489,3,3,3,3,-10.01,0.33,-1.86,-20.01,9.34,-10.2
8.513481974601746,3,3,3,3,-10.06,-0.45,-0.64,-16.67,11.66,-10.92
8.523481965065002,3,3,3,3,-10.43,-2.17,-0.58,-14.28,10.93,-11.96
8.533481955528259,3,3,3,3,-11.95,-2.53,-1.12,-12.23,11.48,-11.96
8.543481945991516,3,3,3,3,-13.09,-1.28,-1.86,-8.52,9.83,-12.7
8.553481936454773,3,3,3,3,-12.48,-1.35,-1.67,-6.42,9.800000000000001,-12.52
8.56348192691803,3,3,3,3,-11.73,-1.87,-0.95,-4.37,9.880000000000001,-13.59
8.573481917381287,3,3,3,3,-11.05,-2.65,-1.15,-3.97,9.6,-14.1
8.583481907844543,3,3,3,3,-11.05,-2.16,0.07000000000000001,-2.79,8.6,-13.26
8.5934818983078,3,3,3,3,-11.08,-1.73,0.11,-3.47,8.220000000000001,-11.65
8.603481888771057,3,3,3,3,-11.27,-0.37,-0.21,-3.16,8.1,-10.08
8.613481879234314,3,3,3,3,-11.98,0.8,-0.35,-1.85,6.48,-9.300000000000001
8.623481869697571,3,3,3,3,-9.73,1.33,-2.3,0.93,2.52,-9.58
8.633481860160828,3,3,3,3,-9.84,0.39,-2.93,0.74,1.41,-7.38
8.643481850624084,3,3,3,3,-10.88,-3.43,-3.19,-4.58,1.87,-3.69
8.653481841087341,3,3,3,3,-12.77,-5.57,-3.63,-3.84,1.66,-2.95
8.663481831550598,3,3,3,3,-15.29,-6.23,-1.64,-0.72,0.32,-2.51
8.673482060432434,3,3,3,3,-14.3,-3.08,-1.03,-0.72,0.32,-2.51
8.683482050895691,3,3,3,3,-12.54,-1.45,-0.4,3.44,-1.32,-2.13
8.693482041358948,3,3,3,3,-10.24,-0.95,-0.12,3.21,-2.82,0.11
8.703482031822205,3,3,3,3,-10.41,-0.96,-1.09,1.87,-3.49,2.11
8.713482022285461,3,3,3,3,-11.58,-1.32,-1.44,0.85,-3.95,4.75
8.723482012748718,3,3,3,3,-12.04,-1.1,-2.52,0.85,-3.95,4.75
8.733482003211975,3,3,3,3,-12.82,-1.69,-4.07,0.79,-4.61,6.69
8.743481993675232,3,3,3,3,-14.26,-1.26,-4.62,0.63,-4.86,9.74
8.753481984138489,3,3,3,3,-16.7,-2.53,-4.23,0.33,-5.09,12.09
8.763481974601746,3,3,3,3,-20.72,-4.52,-3.76,4.59,-7.3,14.74
8.773481965065002,3,3,3,3,-23.2,0.01,-1.77,4.59,-7.3,14.74
8.783481955528259,3,3,3,3,-24.83,2.58,-1.41,9.949999999999999,-10.32,16.09
8.793481945991516,3,3,3,3,-27.16,5.95,-0.31,16.31,-15.83,20.16
8.803481936454773,3,3,3,3,-29.62,8.880000000000001,0.95,18.68,-18.42,21.08
8.81348192691803,3,3,3,3,-34.08,13.21,2.37,22.59,-20.69,21.23
8.823481917381287,3,3,3,3,-34.61,15.37,2.23,22.59,-20.69,21.23
8.833481907844543,3,3,3,3,-35.27,14.62,1.99,25.84,-20.97,20.62
8.8434818983078,3,3,3,3,-35.62,11.69,0.24,28.04,-15.53,17.41
8.853481888771057,3,3,3,3,-29.17,0.95,-5.26,26.77,-6.12,13.55
8.863481879234314,3,3,3,3,-19.82,-2.05,-6.33,21.7,7.35,8.970000000000001
8.873481869697571,3,3,3,3,-6.86,-6.69,1.29,21.7,7.35,8.970000000000001
8.883481860160828,3,3,3,3,-2.62,-30.41,5.17,-25.31,11.07,10.03
8.893481850624084,3,3,3,3,-1.86,-38.9,1.36,-2.83,2.2,7.23
8.904482007026672,3,3,3,3,6.93,-18.8,-3.88,34.81,10.27,15.4
8.914481997489929,3,3,3,3,0.03,15.87,3.18,13.25,4.39,17.11
8.924481987953186,3,3,3,3,-6.71,8.369999999999999,3.83,13.25,4.39,17.11
8.934481978416443,3,3,3,3,1.25,1.36,0.76,-6.46,1.39,9.289999999999999
8.9444819688797,3,3,3,3,-0.88,-2.39,-1.35,3.17,-0.3,-1.56
8.954481959342957,3,3,3,3,-1.4,-5.84,-1.6,11.46,-2.92,0.75
8.964481949806213,3,3,3,3,-0.14,-2.73,-1.31,15.27,-1.93,2.01
8.984481930732727,3,3,3,3,1.89,0.29,0.17,10.89,-0.75,0.71
8.994481921195984,3,3,3,3,1.64,2.28,0.24,4.54,-0.12,-0.9
9.004481911659241,3,3,3,3,0.46,4.15,0.55,-0.9,-0.77,-1.21
9.014481902122498,3,3,3,3,0.9399999999999999,1.52,0.15,-1.62,-0.77,-1.05
9.024481892585754,3,3,3,3,1.41,1.9,-0.18,-1.62,-0.77,-1.05
9.034481883049011,3,3,3,3,0.83,2.43,-0.66,-0.07000000000000001,-0.24,-0.44
9.044481873512268,3,3,3,3,0.95,1.85,-1.33,-0.01,-0.48,-2.06
9.054481863975525,3,3,3,3,1.19,1.59,-1.07,0.66,-0.8,-2.21
9.064481854438782,3,3,3,3,0.84,0.4,-0.97,0.63,-1.41,-1.94
9.074481844902039,3,3,3,3,0.26,0.36,0.08,0.63,-1.41,-1.94
9.084481835365295,3,3,3,3,-0.68,-2.56,0.93,-0.65,-1.82,-1.63
9.094481825828552,3,3,3,3,-0.73,-3.16,0.89,-0.9,-0.42,-1.8
9.104482054710388,3,3,3,3,-0.61,-2.39,0.68,-1.65,0.17,-1.16
9.114482045173645,3,3,3,3,-0.33,-0.8,0.57,-3.28,0.7,-0.74
9.124482035636902,3,3,3,3,0.68,1.72,-0.55,-3.28,0.7,-0.74
9.134482026100159,3,3,3,3,0.87,2.47,-0.75,-3.73,1.01,-0.59
9.144482016563416,3,3,3,3,1.05,2.45,-0.79,-2.07,0.89,0.79
9.154482007026672,3,3,3,3,1.21,1.64,-1.22,-0.76,1.5,1.5
9.164481997489929,3,3,3,3,-0.09,0.91,-0.6899999999999999,1.24,1.88,1.55
9.174481987953186,3,3,3,3,-0.3,0.6899999999999999,-0.57,1.24,1.88,1.55
9.184481978416443,3,3,3,3,0,-0.43,-0.34,2.31,1.98,1.08
9.1944819688797,3,3,3,3,-0.01,-1.05,0.51,4.39,1.64,1.7
9.204481959342957,3,3,3,3,-0.37,-0.6899999999999999,1.9,4.4,1.65,2
9.214481949806213,3,3,3,3,-0.43,0,1.68,2.7,1.59,1.79
9.22448194026947,3,3,3,3,-0.5600000000000001,0.27,1.19,2.7,1.59,1.79
9.234481930732727,3,3,3,3,-0.76,-0.52,0.99,-1.02,1.1,1.67
9.244481921195984,3,3,3,3,-0.62,-1.5,0.35,-7.14,-0.36,1.17
9.254481911659241,3,3,3,3,-0.74,-1.94,0.3,-7.72,-1.38,0.83
9.264481902122498,3,3,3,3,-0.5,-1.67,0.45,-8.109999999999999,-1.62,0.96
9.274481892585754,3,3,3,3,-0.57,-2.97,1.08,-8.109999999999999,-1.62,0.96
9.284481883049011,3,3,3,3,-0.96,-6.83,2.12,-9.1,-1.05,0.89
9.294481873512268,3,3,3,3,-1.09,-9.68,2.9,-4.44,0.02,-0.84
9.304481863975525,3,3,3,3,-1.2,-12.11,3.18,-2.09,1.71,-2.31
9.314481854438782,3,3,3,3,-1.25,-13.65,1.3,5.68,2.33,-3.02
9.324481844902039,3,3,3,3,-1.93,-5.89,-4.28,5.68,2.33,-3.02
9.334481835365295,3,3,3,3,-2.17,5.08,-2.6,19.94,0.77,-2.24
9.344481825828552,3,3,3,3,-2.88,17.2,-3.04,7.23,1.38,0.14
9.354482054710388,3,3,3,3,-6.02,27.27,15.62,-64.64,-10.36,-2.92
9.364482045173645,3,3,3,3,-23.96,-26.24,-11.04,21.92,-5.21,-5.29
9.374482035636902,3,3,3,3,-30.52,39.43,1.81,21.92,-5.21,-5.29
9.384482026100159,3,3,3,3,-37.44,22.7,-7.35,28.52,-4.87,12.34
9.394482016563416,3,3,3,3,-27.91,-29.29,-16.85,-61.19,9.17,-14.39
9.404482007026672,3,3,3,3,-39.08,-39.01,-1.79,-97.36,-3.26,-22.23
9.414481997489929,3,3,3,3,-39.27,-39.01,8.460000000000001,40.94,23.43,-18.58
9.424481987953186,3,3,3,3,-31.35,-5.28,1.78,40.94,23.43,-18.58
9.434481978416443,3,3,3,3,7.07,39.26,4.93,126.41,32.72,-7.93
9.4444819688797,3,3,3,3,9.369999999999999,39.38,5.84,-20.3,7.14,-13.44
9.454481959342957,3,3,3,3,2.56,35.74,0.3,-67.48,4.26,-11.04
9.464481949806213,3,3,3,3,-8.65,14.45,-9.640000000000001,-84.88,1.86,-0.47
9.47448194026947,3,3,3,3,-33.88,-18.22,-3.62,-84.88,1.86,-0.47
9.484481930732727,3,3,3,3,-36.65,-23.36,-2.83,-55.88,-0.19,13.51
9.494481921195984,3,3,3,3,-26.48,-10.71,-5.71,17.91,-2.55,-0.27
9.504481911659241,3,3,3,3,-19.13,3.82,-3.67,20.51,-3.68,7.22
9.514481902122498,3,3,3,3,-19.96,-1.27,-1.55,13.23,-3.87,2.84
9.524481892585754,3,3,3,3,-19.96,-1.27,-1.55,13.23,-3.87,2.84
9.534481883049011,3,3,3,3,-18.04,-0.66,-0.01,10.04,-4.75,0.48
9.544481873512268,3,3,3,3,-13.13,3.56,0.5600000000000001,5.36,-5.41,2.78
9.554481863975525,3,3,3,3,-13.71,4.75,0.16,4.11,-5.31,5.38
9.564481854438782,3,3,3,3,-11.92,6.9,-0.5,4.32,-4.95,8.35
9.574481844902039,3,3,3,3,-11.92,6.9,-0.5,4.32,-4.95,8.35
9.584481835365295,3,3,3,3,-8.539999999999999,5.49,-0.92,0.76,-4.75,8.050000000000001
9.594481825828552,3,3,3,3,-10.24,1.6,0.23,2.74,-6.84,6.28
9.604482054710388,3,3,3,3,-11.83,1.23,0.83,8.220000000000001,-7.12,6.28
9.614482045173645,3,3,3,3,-11.74,-0.29,1.58,8.550000000000001,-6.39,5.74
9.624482035636902,3,3,3,3,-11.74,-0.29,1.58,8.550000000000001,-6.39,5.74
9.634482026100159,3,3,3,3,-9.75,-1.87,2.81,6.43,-5.47,4.25
9.644482016563416,3,3,3,3,-6.4,-3.15,1.44,7.39,-2.83,1.76
9.654482007026672,3,3,3,3,-5.19,-3.87,0.67,10.54,-1.79,2
9.664481997489929,3,3,3,3,-3.75,-2.8,-0.67,16.08,-0.73,3.08
9.674481987953186,3,3,3,3,-3.75,-2.8,-0.67,16.08,-0.73,3.08
9.684481978416443,3,3,3,3,-4.14,-0.79,-0.4,21.35,0.95,2.75
9.6944819688797,3,3,3,3,-5.9,5.51,1.29,25.14,1.62,4.03
9.704481959342957,3,3,3,3,-5.82,7.22,1.01,22.31,0.68,4.63
9.714481949806213,3,3,3,3,-5.79,3.58,0.98,15.42,-0.34,2.84
9.72448194026947,3,3,3,3,-5.79,3.58,0.98,3.51,-1.57,0.15
9.734481930732727,3,3,3,3,-6,-1.46,1.93,-2.64,-2.97,-0.85
9.744481921195984,3,3,3,3,-5.59,-5.47,1.44,-0.2,-2.07,-1.34
9.754481911659241,3,3,3,3,-5.46,-4.72,1.96,6.15,0.25,-1.43
9.764481902122498,3,3,3,3,-6.36,-8.25,4.75,5.26,0.55,-1.09
9.774481892585754,3,3,3,3,-6.36,-8.25,4.75,-3.97,-1.25,-0.78
9.784481883049011,3,3,3,3,-6.35,-5.34,-1.19,12.84,-1.25,2.41
9.794481873512268,3,3,3,3,-7.58,13.11,3.78,21.5,0.06,8.279999999999999
9.804481863975525,3,3,3,3,-9.19,-2.47,1.18,-6.56,-2.26,5.26
9.814481854438782,3,3,3,3,-6.95,-1.16,-1.35,-16.68,-1.58,-2.87
9.824481844902039,3,3,3,3,-6.95,-1.16,-1.35,-9.57,-0.08,-4.38
9.834481835365295,3,3,3,3,-10.98,-5.05,-2.47,-12.99,0.89,-0.88
9.844481825828552,3,3,3,3,-10.26,-6.28,-1.76,-14.36,0.39,-0.3
9.854482054710388,3,3,3,3,-10.66,-3.85,1.15,-8.99,-0.51,-0.6
9.864482045173645,3,3,3,3,-11.76,-3.29,1.24,-1.71,-0.36,0.21
9.874482035636902,3,3,3,3,-13.17,-0.64,1.04,5.95,0.7,-0.2
9.884482026100159,3,3,3,3,-14.4,2.58,1.35,10.24,1.34,0.8100000000000001
9.894482016563416,3,3,3,3,-13.9,2.14,1.45,8.49,1.66,1.28
9.904482007026672,3,3,3,3,-14.2,1.52,1.36,6.05,1.96,0.62
9.914481997489929,3,3,3,3,-13.71,1.48,1.21,4.55,2.22,-0.5600000000000001
9.924481987953186,3,3,3,3,-12.35,1.24,1.02,3.14,2.57,-0.85
9.935481905937195,3,3,3,3,-11.83,2.36,0.7,2.3,2.85,0.06
9.945481896400452,3,3,3,3,-11.51,1.64,0.39,0.9,2.29,0.48
9.955481886863708,3,3,3,3,-10.75,0.51,0.16,-1.03,1.62,0.46
9.965481877326965,3,3,3,3,-10.55,-0.1,0.02,-1.43,1.32,1.06
9.975481867790222,3,3,3,3,-9.93,-0.47,0.11,-0.47,1.37,1
9.985481858253479,3,3,3,3,-9.35,0.2,0.11,0.04,1.61,1.33
9.995481848716736,3,3,3,3,-8.07,0.76,0.06,0.92,1.94,1.24
10.00548183917999,3,3,3,3,-8.27,0.61,0.11,0.48,1.98,1.13
10.01548182964325,3,3,3,3,-7.46,0.23,0.44,-0.04,1.91,2.01
10.02548205852509,3,3,3,3,-6.7,-0.22,0.41,-1.36,2,1.35
10.03548204898834,3,3,3,3,-6.44,-0.6,0.5,-1.81,2.13,0.54
10.0454820394516,3,3,3,3,-7.1,-0.28,0.26,-1.12,2.21,0.36
10.05548202991486,3,3,3,3,-6.13,-1.21,-0.23,-1.22,2.31,0.19
10.06548202037811,3,3,3,3,-6.49,-1.69,-0.15,-1.29,2.38,0.28
10.07548201084137,3,3,3,3,-7.09,-2.15,-0.33,-1.02,2.3,0.5
10.08548200130463,3,3,3,3,-7.76,-2.08,-0.84,-0.39,2.35,0.46
10.09548199176788,3,3,3,3,-8.76,-1.61,-0.35,1.5,2.09,-0.29
10.10548198223114,3,3,3,3,-9.26,-0.77,0.17,2.21,1.92,-0.5
10.1154819726944,3,3,3,3,-9.75,0.32,0.32,2.51,2.4,0.1
10.12548196315765,3,3,3,3,-10.01,1.16,1.02,1.95,2.75,-0.32
10.13548195362091,3,3,3,3,-10.01,0.79,0.9,0.91,2.58,-0.71
10.14548194408417,3,3,3,3,-9.640000000000001,0.63,0.63,-0.07000000000000001,2.29,-0.72
10.15548193454742,3,3,3,3,-8.98,0.29,0.47,-0.37,2.32,-0.55
10.16548192501068,3,3,3,3,-9.859999999999999,-0.36,-0.35,0.24,2.54,-0.27
10.17548191547394,3,3,3,3,-11.21,-0.39,-0.68,1.62,2.53,-0.42
10.18548190593719,3,3,3,3,-12.4,0.02,-0.6899999999999999,3.11,2.15,-1.22
10.19548189640045,3,3,3,3,-13.7,0.29,-0.17,3.8,1.8,-1.57
10.20548188686371,3,3,3,3,-13.15,1.81,0.52,3.87,1.42,-1.25
10.21548187732697,3,3,3,3,-12.38,1.8,0.42,4.37,1.76,-0.93
10.22548186779022,3,3,3,3,-11.21,1.67,-0.04,4.79,2.41,-0.49
10.23548185825348,3,3,3,3,-10.16,2.63,-0.27,5.66,2.89,0.04
10.24548184871674,3,3,3,3,-9.84,2.45,-0.9,4.55,3.06,0.19
10.25548183917999,3,3,3,3,-9.800000000000001,1.29,-1,2.12,2.63,-0.05
10.26548182964325,3,3,3,3,-9.49,0.45,-1.05,0.49,2.22,-0.27
10.27548205852509,3,3,3,3,-9.449999999999999,-0.18,-0.86,0.22,2.14,-0.46
10.28548204898834,3,3,3,3,-9.82,-0.78,-0.96,0.38,2.08,-0.53
10.2954820394516,3,3,3,3,-9.949999999999999,-0.6899999999999999,-1.18,0.61,2.14,-0.78
10.30548202991486,3,3,3,3,-10.02,-0.64,-1.3,0.49,2.15,-1
10.31548202037811,3,3,3,3,-10.05,-0.68,-1.41,0.04,2.1,-1.07
10.32548201084137,3,3,3,3,-9.529999999999999,-0.53,-1.41,-0.7,1.92,-1.02
10.33548200130463,3,3,3,3,-9.41,-0.75,-1.48,-1.87,1.61,-0.8100000000000001
10.34548199176788,3,3,3,3,-9.4,-1.25,-1.57,-2.81,1.1,-0.7
10.35548198223114,3,3,3,3,-9.49,-1.83,-1.28,-3.66,0.78,-0.79
10.3654819726944,3,3,3,3,-9.380000000000001,-2.69,-1.17,-3.86,0.76,-1.22
10.37548196315765,3,3,3,3,-9.52,-2.53,-0.93,-3.31,0.65,-1.23
10.38548195362091,3,3,3,3,-9.630000000000001,-2.18,-0.92,-2.81,0.42,-1.22
10.39548194408417,3,3,3,3,-9.699999999999999,-1.76,-1.01,-2.24,0.13,-1.35
10.40548193454742,3,3,3,3,-9.93,-0.32,-1.22,-1.57,-0.28,-1.28
10.41548192501068,3,3,3,3,-10.09,0.21,-1.46,-1.32,-0.67,-1.2
10.42548191547394,3,3,3,3,-10.04,0.8100000000000001,-1.78,-1.02,-0.82,-1.03
10.43548190593719,3,3,3,3,-9.970000000000001,1.2,-2.03,-1.14,-0.64,-0.54
10.44548189640045,3,3,3,3,-10.2,0.8100000000000001,-2.26,-1.23,-0.44,0.09
10.45548188686371,3,3,3,3,-10.26,0.43,-1.92,-1.56,-0.39,0.62
10.46548187732697,3,3,3,3,-10.17,0.06,-1.52,-2.03,-0.41,0.8
10.47548186779022,3,3,3,3,-9.85,-0.73,-0.92,-1.87,-0.46,0.9
10.48548185825348,3,3,3,3,-9.869999999999999,-1.11,-1.02,-1.52,-0.64,1.04
10.49548184871674,3,3,3,3,-9.85,-1.16,-1.16,-0.72,-0.8100000000000001,1.06
10.50548183917999,3,3,3,3,-9.66,-1.21,-1.24,0.11,-0.84,0.88
10.51548182964325,3,3,3,3,-9.4,-0.6899999999999999,-1.08,0.48,-0.8100000000000001,0.84
10.52548205852509,3,3,3,3,-9.359999999999999,-0.65,-0.9,-0.14,-0.9,0.84
10.53548204898834,3,3,3,3,-9.529999999999999,-0.6,-0.6899999999999999,-0.72,-1,1.04
10.5454820394516,3,3,3,3,-9.779999999999999,-0.39,-0.62,-1.19,-0.98,0.98
10.55548202991486,3,3,3,3,-9.890000000000001,0.15,-0.35,-1.24,-1.19,0.74
10.56548202037811,3,3,3,3,-10.07,0.16,-0.31,-1.45,-1.14,0.61
10.57548201084137,3,3,3,3,-10.13,0.23,-0.27,-1.46,-1.08,0.73
10.58548200130463,3,3,3,3,-10.19,0.42,-0.48,-0.98,-0.87,0.82
10.59548199176788,3,3,3,3,-9.9,0.29,-0.44,-0.59,-0.77,1.06
10.60548198223114,3,3,3,3,-9.73,-0.01,-0.44,-0.85,-0.73,1.31
10.6154819726944,3,3,3,3,-9.69,0.03,-0.03,-1.42,-0.46,1.33
10.62548196315765,3,3,3,3,-9.83,0.08,-0.09,-1.37,-0.36,1.29
10.63548195362091,3,3,3,3,-9.970000000000001,0.49,-0.29,-1.33,-0.7,1.41
10.64548194408417,3,3,3,3,-9.92,0.7,-0.16,-1.24,-0.88,1.18
10.65548193454742,3,3,3,3,-9.970000000000001,1.23,-0.04,-1.51,-0.95,0.95
10.66548192501068,3,3,3,3,-10.08,1.46,0.06,-2.01,-0.96,0.64
10.67548191547394,3,3,3,3,-10.13,1.73,0.15,-3.12,-1.01,0.46
10.68548190593719,3,3,3,3,-10.02,1.79,0.09,-4.01,-1.17,0.31
10.69548189640045,3,3,3,3,-9.91,1.61,-0.01,-5.36,-1.42,0.36
10.70548188686371,3,3,3,3,-9.99,1.2,0,-6.54,-1.49,0.39
10.71548187732697,3,3,3,3,-10.03,0.22,-0.19,-7.22,-1.5,0.12
10.72548186779022,3,3,3,3,-9.82,-0.39,-0.1,-7.55,-1.76,-0.02
10.73548185825348,3,3,3,3,-9.539999999999999,-0.74,-0.09,-7.06,-1.76,-0.03
10.74548184871674,3,3,3,3,-9.529999999999999,-0.73,-0.03,-6.24,-1.59,0.13
10.75548183917999,3,3,3,3,-9.56,-0.85,-0.23,-5.86,-1.4,0.24
10.76548182964325,3,3,3,3,-9.49,-0.62,-0.25,-4.99,-1.5,0.31
10.77548205852509,3,3,3,3,-9.33,-0.1,-0.33,-3.41,-1.52,0.3
10.78548204898834,3,3,3,3,-9.34,0.36,-0.22,-2.54,-1.43,0.22
10.7954820394516,3,3,3,3,-9.56,0.65,-0.43,-1.88,-1.26,0.23
10.80548202991486,3,3,3,3,-9.52,0.47,-0.33,-1.5,-1.18,0.44
10.81548202037811,3,3,3,3,-9.59,0.19,-0.35,-0.75,-1.24,0.79
10.82548201084137,3,3,3,3,-9.69,-0.38,-0.12,0.45,-1.17,1.02
10.83548200130463,3,3,3,3,-9.65,-0.4,-0.08,1.82,-0.95,1.15
10.84548199176788,3,3,3,3,-9.720000000000001,-0.17,-0.05,2.82,-0.51,1.02
10.85548198223114,3,3,3,3,-9.800000000000001,0.23,0.04,3.28,-0.04,0.96
10.8654819726944,3,3,3,3,-9.859999999999999,0.09,-0.05,2.66,0.1,0.89
10.87548196315765,3,3,3,3,-9.85,-0.26,0.07000000000000001,1.69,-0.29,0.99
10.88548195362091,3,3,3,3,-9.720000000000001,-0.49,0.21,1.21,-0.67,1.12
10.89548194408417,3,3,3,3,-9.609999999999999,-0.66,0.22,1.15,-0.8,1.12
10.90548193454742,3,3,3,3,-9.82,-0.03,0.34,1.99,-0.72,1.14
10.91548192501068,3,3,3,3,-9.800000000000001,0.06,0.32,2.67,-0.71,0.75
10.92548191547394,3,3,3,3,-9.84,0.26,0.42,2.91,-0.76,0.74
10.93548190593719,3,3,3,3,-9.859999999999999,0.4,0.34,3.01,-0.72,0.71
10.94548189640045,3,3,3,3,-10,0.61,0.33,3.28,-0.43,0.67
10.95648205280304,3,3,3,3,-10.05,0.99,0.19,3.55,-0.08,0.63
10.9664820432663,3,3,3,3,-9.98,1.42,0.13,3.79,0.04,0.7
10.97648203372955,3,3,3,3,-9.880000000000001,1.39,0.07000000000000001,3.57,-0.05,0.8
10.98648202419281,3,3,3,3,-9.800000000000001,1.24,-0.05,3.44,-0.08,0.89
10.99648201465607,3,3,3,3,-9.76,1.27,-0.09,3.64,-0.16,0.9399999999999999
11.00648200511932,3,3,3,3,-9.83,1.36,-0.12,3.8,-0.02,0.92
11.01648199558258,3,3,3,3,-9.83,1.46,-0.13,4.48,-0.07000000000000001,0.64
11.02648198604584,3,3,3,3,-9.630000000000001,1.08,-0.2,5.15,-0.18,0.5
11.03648197650909,3,3,3,3,-9.539999999999999,1.11,-0.18,6.42,-0.36,0.38
11.04648196697235,3,3,3,3,-9.48,1.1,-0.12,7.33,-0.41,0.57
11.05648195743561,3,3,3,3,-9.609999999999999,0.61,-0.23,7.29,-0.46,0.98
11.06648194789886,3,3,3,3,-9.94,0.65,-0.08,7.79,-0.51,0.97
11.07648193836212,3,3,3,3,-10.09,0.49,0.32,7.65,-0.4,0.79
11.08648192882538,3,3,3,3,-10.2,0.53,0.33,6.74,-0.02,0.96
11.09648191928864,3,3,3,3,-10.3,0.57,0.47,5.77,-0.01,1
11.10648190975189,3,3,3,3,-10.39,-0.22,0.53,4.13,-0.12,0.93
11.11648190021515,3,3,3,3,-10.01,-0.24,0.46,3.02,-0.05,0.89
11.12648189067841,3,3,3,3,-9.609999999999999,-1.12,0.06,1.42,-0.14,0.8
11.13648188114166,3,3,3,3,-9.609999999999999,-1.34,-0.21,1.35,-0.16,0.74
11.14648187160492,3,3,3,3,-9.800000000000001,-0.9,-0.55,1.61,-0.06,0.37
11.15648186206818,3,3,3,3,-9.880000000000001,-0.7,-0.62,0.88,0.06,-0.08
11.16648185253143,3,3,3,3,-9.67,-0.59,-0.68,-0.2,-0.23,-0.11
11.17648184299469,3,3,3,3,-9.869999999999999,0.52,-0.34,-0.44,-0.58,-0.03
11.18648183345795,3,3,3,3,-9.800000000000001,0.57,-0.55,-1.58,-1.13,0.1
11.1964818239212,3,3,3,3,-9.779999999999999,0.64,-0.64,-2.17,-1.58,0.04
11.20648205280304,3,3,3,3,-9.92,0.54,-0.58,-2.43,-1.72,0.06
11.2164820432663,3,3,3,3,-9.949999999999999,0.7,-0.5600000000000001,-2,-1.73,0.11
11.22648203372955,3,3,3,3,-9.91,1.29,-0.67,-0.73,-1.53,0.32
11.23648202419281,3,3,3,3,-9.93,1.55,-0.68,0.18,-1.45,0.45
11.24648201465607,3,3,3,3,-10.03,1.53,-0.62,0.26,-1.42,0.67
11.25648200511932,3,3,3,3,-9.9,1.1,-0.38,-0.07000000000000001,-1.48,0.8100000000000001
11.26648199558258,3,3,3,3,-9.73,1.25,-0.27,0.35,-1.66,0.97
11.27648198604584,3,3,3,3,-9.65,0.71,-0.43,0.25,-1.65,1.07
11.28648197650909,3,3,3,3,-9.699999999999999,0.67,-0.29,0.64,-1.52,1.22
11.29648196697235,3,3,3,3,-9.91,0.53,-0.31,0.87,-1.46,1.35
11.30648195743561,3,3,3,3,-9.890000000000001,0.48,-0.19,0.62,-1.5,1.51
11.31648194789886,3,3,3,3,-9.98,0.13,-0.12,0.3,-1.42,1.65
11.32648193836212,3,3,3,3,-9.93,-0.04,-0.17,0.12,-1.38,1.57
11.33648192882538,3,3,3,3,-9.869999999999999,0.07000000000000001,-0.63,0.42,-1.46,1.44
11.34648191928864,3,3,3,3,-9.869999999999999,0.35,-0.51,0.91,-1.64,1.27
11.35648190975189,3,3,3,3,-9.869999999999999,0.83,-0.07000000000000001,0.97,-1.81,1.15
11.36648190021515,3,3,3,3,-9.949999999999999,1.41,0.02,0.54,-2.03,1.48
11.37648189067841,3,3,3,3,-10.09,1.54,0.08,-0.51,-2.25,1.56
11.38648188114166,3,3,3,3,-10.05,1.08,0.16,-1.4,-2.58,1.78
11.39648187160492,3,3,3,3,-10.05,0.72,0.25,-1.95,-2.79,1.98
11.40648186206818,3,3,3,3,-10.06,0.6899999999999999,0.44,-2.11,-2.56,2.11
11.41648185253143,3,3,3,3,-10.13,-0.02,0.8100000000000001,-2.63,-2.21,2.05
11.42648184299469,3,3,3,3,-9.960000000000001,-0.33,0.91,-3.16,-2.05,2.03
11.43648183345795,3,3,3,3,-9.68,-1.41,1.17,-4.4,-2.01,1.7
11.4464818239212,3,3,3,3,-9.42,-2.39,1.18,-5.21,-1.57,1.59
11.45648205280304,3,3,3,3,-8.85,-5.1,1.99,-6.79,-0.68,1.06
11.4664820432663,3,3,3,3,-8.880000000000001,-5.76,2.38,-8.140000000000001,0.34,0.62
11.47648203372955,3,3,3,3,-9.109999999999999,-6.21,2.37,-9.51,1.44,0.16
11.48648202419281,3,3,3,3,-9.539999999999999,-6.86,2.14,-11.16,2.11,-0.68
11.49648201465607,3,3,3,3,-10.06,-7.19,1.47,-11.71,1.79,-1.72
11.50648200511932,3,3,3,3,-10.25,-6.82,1.13,-11.39,0.89,-3.13
11.51648199558258,3,3,3,3,-10.57,-6.74,0.67,-10.09,-0.33,-4.71
11.52648198604584,3,3,3,3,-11.38,-5.57,0.65,-7.81,-1.37,-6.07
11.53648197650909,3,3,3,3,-11.19,-4.07,0.66,-5.43,-2.69,-6.89
11.54648196697235,3,3,3,3,-11.09,-2.5,0.33,-4.15,-3.57,-6.88
11.55648195743561,3,3,3,3,-10.83,-1.74,0,-4.85,-3.11,-6.62
11.56648194789886,3,3,3,3,-10.97,-0.1,-0.41,-6.44,-1.75,-5.88
11.57648193836212,3,3,3,3,-11.32,-0.02,-0.39,-8.619999999999999,-0.31,-5.07
11.58648192882538,3,3,3,3,-11.73,-0.09,-0.28,-9.91,0.6,-4.89
11.59648191928864,3,3,3,3,-12.04,-0.15,-0.05,-10.15,0.38,-4.97
11.60648190975189,3,3,3,3,-11.59,0.82,0.25,-9.470000000000001,-0.17,-5.32
11.61648190021515,3,3,3,3,-10.82,0.66,0.16,-9.58,-0.11,-6.07
11.62648189067841,3,3,3,3,-10.16,0.01,0.11,-10.34,1.09,-6.89
11.63648188114166,3,3,3,3,-9.76,0.06,0.22,-9.77,2.85,-7.76
11.64648187160492,3,3,3,3,-9.880000000000001,0.44,-0.05,-7.66,4.4,-8.35
11.65648186206818,3,3,3,3,-9.98,0.43,-0.32,-5.05,5.51,-8.85
11.66648185253143,3,3,3,3,-9.880000000000001,0.9399999999999999,-0.53,-2.11,5.86,-9.23
11.67648184299469,3,3,3,3,-9.68,1.15,-0.6899999999999999,-0.3,5.46,-9.800000000000001
11.68648183345795,3,3,3,3,-9.27,0.26,-0.97,0.23,4.71,-10.58
11.6964818239212,3,3,3,3,-9.289999999999999,-0.34,-1.07,1.02,4.16,-10.9
11.70648205280304,3,3,3,3,-9.449999999999999,-0.55,-0.96,3.08,3.81,-10.95
11.7164820432663,3,3,3,3,-9.51,-0.38,-0.78,5.88,3.5,-11.09
11.72648203372955,3,3,3,3,-9.449999999999999,-0.51,-0.22,7.98,3.45,-11.36
11.73648202419281,3,3,3,3,-9.369999999999999,-0.06,0,9.720000000000001,3.32,-11.62
11.74648201465607,3,3,3,3,-9.289999999999999,-0.11,0.08,10.87,3.32,-11.9
11.75648200511932,3,3,3,3,-9.279999999999999,0.01,0.41,11.65,3.49,-12.05
11.76648199558258,3,3,3,3,-9.43,0.11,0.86,12.2,3.52,-12.1
11.77648198604584,3,3,3,3,-9.43,0.17,0.88,12.32,3.3,-12.32
11.78648197650909,3,3,3,3,-9.300000000000001,0.21,0.74,11.91,2.72,-12.36
11.79648196697235,3,3,3,3,-8.93,0.25,0.57,11.04,2.12,-12.37
11.80648195743561,3,3,3,3,-8.699999999999999,-0.36,0.35,9.48,1.73,-12.53
11.81648194789886,3,3,3,3,-8.960000000000001,-0.75,0.47,7.88,1.44,-12.57
11.82648193836212,3,3,3,3,-9.02,-0.6899999999999999,0.75,7.26,1.09,-12.3
11.83648192882538,3,3,3,3,-8.98,-0.03,1.24,6.99,1.17,-11.72
11.84648191928864,3,3,3,3,-8.699999999999999,-0.1,1.41,5.84,1.5,-11.36
11.85648190975189,3,3,3,3,-8.59,-0.98,1.62,4.59,1.51,-11.08
11.86648190021515,3,3,3,3,-8.470000000000001,-1.54,2.01,4.25,1.24,-10.57
11.87648189067841,3,3,3,3,-7.99,-1.44,2.22,4.92,1.04,-9.58
11.88648188114166,3,3,3,3,-7.35,-2.1,1.9,4.51,1.4,-8.27
11.89648187160492,3,3,3,3,-7.34,-2.94,1.51,3.65,1.88,-6.82
11.90648186206818,3,3,3,3,-7.44,-3.72,1.41,3.75,2.16,-5.31
11.91648185253143,3,3,3,3,-7.81,-5.05,0.5,5.01,2.3,-3.62
11.92648184299469,3,3,3,3,-8.07,-4.87,0.18,7.8,2.26,-2.05
11.93648183345795,3,3,3,3,-8.31,-4.12,0.18,10.57,1.97,-0.95
11.9464818239212,3,3,3,3,-8.460000000000001,-3.8,0.43,10.67,1.35,-0.23
11.95648205280304,3,3,3,3,-8.960000000000001,-4.04,1.34,10.14,0.57,0.48
11.9664820432663,3,3,3,3,-9.17,-3.94,1.97,9.23,0.14,0.71
11.97648203372955,3,3,3,3,-8.99,-3.99,1.98,6.14,0.57,0.59
11.98748195171356,3,3,3,3,-8.65,-4.41,1.04,0.22,2.41,0.46
11.99748194217682,3,3,3,3,-8.26,-4.56,-0.35,-5.52,4.05,0.38
12.00748193264008,3,3,3,3,-8.41,-4.49,-0.83,-9.17,4.24,0.75
12.01748192310333,3,3,3,3,-8.789999999999999,-4.43,-1.18,-10.52,3.49,1.23
12.02748191356659,3,3,3,3,-9.210000000000001,-5.82,-1.79,-10.56,3.49,1.57
12.03748190402985,3,3,3,3,-12.22,-4.54,-1.54,-5.57,3.91,1.7
12.0474818944931,3,3,3,3,-13.41,-1.86,3.7,1.88,0.63,3.22
12.05748188495636,3,3,3,3,-13.07,-6.01,6.73,1.71,-3.38,5.42
12.06748187541962,3,3,3,3,-12.17,-11.29,5.57,5.78,-1.4,5.52
12.07748186588287,3,3,3,3,-12.34,-6.72,4.47,15.07,1.2,3.85
12.08748185634613,3,3,3,3,-11.73,-4.68,2.49,19.73,0,3.04
12.09748184680939,3,3,3,3,-11.79,-6.61,-0.7,20.32,0.68,3.73
12.10748183727264,3,3,3,3,-11.47,-6.07,-3.73,25.09,3.03,4.45
12.1174818277359,3,3,3,3,-7.91,5.55,-2.87,29.71,2.76,7.09
12.12748205661774,3,3,3,3,-7.74,8.35,-2,24.51,2.96,9.539999999999999
12.16748201847076,3,3,3,3,-10.37,3.22,-0.9,-6.72,4.48,9.31
12.17748200893402,3,3,3,3,-10.47,3.02,0.66,-7.58,4.29,9.51
12.18748199939728,3,3,3,3,-11.27,1.79,0.8,-5.78,4.7,8.710000000000001
12.19748198986053,3,3,3,3,-11.24,-1.51,-0.01,-2.84,4.89,8.5
12.20748198032379,3,3,3,3,-10.33,-2.02,-0.39,1.08,5.28,8.710000000000001
12.21748197078705,3,3,3,3,-9.75,-0.87,-0.88,5.6,5.6,9.23
12.22748196125031,3,3,3,3,-9.380000000000001,0.21,-1.06,7.04,5.64,9.49
12.23748195171356,3,3,3,3,-9.119999999999999,0.39,-1.55,6.65,5.39,9.69
12.24748194217682,3,3,3,3,-8.85,-0.02,-1.8,5.36,5.29,9.470000000000001
12.25748193264008,3,3,3,3,-8.949999999999999,-0.27,-1.76,3.43,5.08,9.369999999999999
12.26748192310333,3,3,3,3,-9.82,-1.61,-0.85,1.61,4.65,8.76
12.27748191356659,3,3,3,3,-9.92,-2.25,-0.63,0.34,4.33,8.029999999999999
12.28748190402985,3,3,3,3,-9.51,-2.59,-0.54,0.25,4.04,7.72
12.2974818944931,3,3,3,3,-9.5,-2.1,-0.52,0.51,3.7,7.55
12.30748188495636,3,3,3,3,-9.869999999999999,-1.2,-0.74,0.38,3.44,7.2
12.31748187541962,3,3,3,3,-9.94,-1.01,-0.91,-0.6899999999999999,3,7.11
12.32748186588287,3,3,3,3,-9.970000000000001,-1.02,-1.35,-1.97,2.7,6.73
12.33748185634613,3,3,3,3,-9.75,-1.13,-1.83,-2.56,2.51,6.3
12.34748184680939,3,3,3,3,-9.5,-0.07000000000000001,-2.34,-2.74,2.42,6.21
12.35748183727264,3,3,3,3,-9.630000000000001,0.13,-2.17,-3.51,2.48,6.13
12.3674818277359,3,3,3,3,-9.800000000000001,0.19,-1.97,-3.73,2.54,6.21
12.37748205661774,3,3,3,2,-9.93,0.24,-1.81,-3.6,2.53,6.3
12.38748204708099,3,3,3,2,-10.06,0.58,-1.32,-3.28,2.3,6.7
12.39748203754425,3,3,3,2,-9.98,0.79,-1.24,-3.16,2.06,7.02
12.40748202800751,3,3,3,2,-10.19,0.57,-1.01,-3.45,2.17,7.02
12.41748201847076,3,3,3,2,-9.880000000000001,0.43,-0.85,-3.37,2.33,6.96
12.42748200893402,3,3,3,2,-9.800000000000001,0.65,-1.03,-4.07,2.37,7.22
12.43748199939728,3,3,3,2,-10.06,-0.04,-1.28,-5.08,2.34,7.23
12.44748198986053,3,3,3,2,-9.779999999999999,-0.39,-1.42,-5.22,2.36,6.83
12.45748198032379,3,3,3,2,-9.550000000000001,-0.16,-1.34,-5.03,2.57,6.88
12.46748197078705,3,3,3,2,-9.789999999999999,-0.18,-1.21,-4.74,2.59,7.16
12.47748196125031,3,3,3,2,-9.69,0.14,-1.06,-4.42,2.47,7.33
12.48748195171356,3,3,3,2,-9.76,0.31,-1.13,-4.55,2.44,7.55
12.49748194217682,3,3,3,2,-9.84,0.33,-1.13,-4.89,2.21,7.96
12.50748193264008,3,3,3,2,-9.66,-0.07000000000000001,-0.92,-5.34,2.05,8.369999999999999
12.51748192310333,3,3,3,2,-9.76,0.05,-0.73,-5.24,2.07,8.51
12.52748191356659,3,3,3,2,-9.640000000000001,0.18,-0.79,-5.85,1.86,8.74
12.53748190402985,3,3,3,2,-9.57,-0.1,-0.9399999999999999,-6.75,1.56,8.789999999999999
12.5474818944931,3,3,3,2,-9.42,-0.73,-1.09,-7.12,1.4,8.539999999999999
12.55748188495636,3,3,3,2,-9.449999999999999,-0.89,-1.1,-7.32,1.35,8.220000000000001
12.56748187541962,3,3,3,2,-9.42,-1.13,-1.15,-7.55,1.18,8.109999999999999
12.57748186588287,3,3,3,2,-9.31,-1.69,-1.21,-7.66,1.11,7.98
12.58748185634613,3,3,3,2,-9.41,-1.99,-1.38,-7.16,1.01,8.02
12.59748184680939,3,3,3,2,-9.67,-1.72,-1.35,-6.47,1.41,8.1
12.60748183727264,3,3,3,2,-9.710000000000001,-1.41,-1.45,-6.29,1.6,8.07
12.6174818277359,3,3,3,2,-9.31,-1.28,-1.73,-6.49,1.5,8.210000000000001
12.62748205661774,3,3,3,2,-9.31,-1.26,-1.61,-6.55,1.57,8.44
12.63748204708099,3,3,3,2,-9.1,-1.14,-1.65,-6.59,1.63,8.65
12.64748203754425,3,3,3,2,-9.16,-1.38,-1.76,-6.95,1.48,8.74
12.65748202800751,3,3,3,2,-9.33,-2.03,-1.69,-6.85,1.49,8.859999999999999
12.66748201847076,3,3,3,2,-9.48,-2.04,-1.7,-6.35,1.35,9.130000000000001
12.67748200893402,3,3,3,2,-9.74,-1.87,-1.89,-6.05,1.46,9.52
12.68748199939728,3,3,3,2,-9.9,-1.64,-2.18,-5.84,1.39,9.85
12.69748198986053,3,3,3,2,-9.949999999999999,-1.48,-2.45,-5.8,1.4,9.76
12.70748198032379,3,3,3,2,-9.890000000000001,-1.45,-2.34,-6.14,1.38,9.42
12.71748197078705,3,3,3,2,-10.32,-0.99,-2.17,-6.25,1.11,9.130000000000001
12.72748196125031,3,3,3,2,-11.14,-0.83,-1.59,-6.56,0.59,8.449999999999999
12.73748195171356,3,3,3,2,-11.67,-1.48,-0.5600000000000001,-6.79,-0.22,7.96
12.74748194217682,3,3,3,2,-11.77,-1.7,-0.66,-6.8,-1.01,7.65
12.75748193264008,3,3,3,2,-11.79,-2.61,-0.37,-7.35,-1.37,7.5
12.76748192310333,3,3,3,2,-11.79,-3.34,-0.32,-7.72,-1.46,6.76
12.77748191356659,3,3,3,2,-12.36,-5.32,-0.37,-7.68,-1.19,5.81
12.78748190402985,3,3,3,2,-12.58,-5.96,-0.15,-7.41,-0.95,4.23
12.7974818944931,3,3,3,2,-13.13,-6.25,0.88,-8.06,-1.3,3.01
12.80748188495636,3,3,3,2,-13.67,-5.61,2.21,-9.19,-3.09,2.36
12.81748187541962,3,3,3,2,-13.98,-5.34,3.46,-10.29,-5.54,1.45
12.82748186588287,3,3,3,2,-13.58,-4.42,3.69,-11.35,-7.87,-0.26
12.83748185634613,3,3,3,2,-12.78,-4.05,3.45,-13.41,-9.02,-2.07
12.84748184680939,3,3,3,2,-11.84,-3.62,2.57,-15.28,-8.5,-3.88
12.85748183727264,3,3,3,2,-11.28,-1.92,0.59,-14.39,-6.51,-7.13
12.8674818277359,3,3,3,2,-11.9,-0.15,-0.06,-11.22,-4.17,-9.26
12.87748205661774,3,3,3,2,-11.7,1.78,-0.89,-8.4,-1.32,-12.32
12.88748204708099,3,3,3,2,-12.07,2.7,-1.08,-7.2,0.58,-12.63
12.89748203754425,3,3,3,2,-13.32,5.3,-0.73,-9.81,1.46,-13.41
12.90748202800751,3,3,3,2,-14.5,5.65,0.33,-16.44,2.39,-14.47
12.91748201847076,3,3,3,2,-14.85,6.11,0.83,-22.21,3.04,-13.76
12.92748200893402,3,3,3,2,-13.85,6.21,0.22,-24.43,4.29,-13.29
12.93748199939728,3,3,3,2,-11.99,5.69,-0.61,-24.77,5.68,-14.08
12.94748198986053,3,3,3,2,-11.13,4.68,-0.6899999999999999,-18.02,6.75,-16.08
12.95748198032379,3,3,3,2,-10.49,3.73,-0.91,-18.02,6.75,-16.08
12.96748197078705,3,3,3,2,-9.94,2.85,-1.35,-10.94,6.55,-16.58
12.97748196125031,3,3,3,2,-9.93,3.27,-1.64,-3.92,6.24,-17.54
12.98748195171356,3,3,3,2,-9.550000000000001,4.07,-1.41,1.46,5.76,-17.89
12.99748194217682,3,3,3,2,-10.14,4.27,-1.59,5.08,5.96,-18.37
13.00848186016083,3,3,3,2,-8.970000000000001,4.14,-0.83,8.18,6.33,-18.88
13.0384818315506,3,3,3,2,-8.949999999999999,5.14,-1.14,10.03,1.97,-21.86
13.04848206043243,3,3,3,2,-7.82,6.15,-1.18,8.41,0.82,-22.62
13.05848205089569,3,3,3,2,-7.38,6.33,-1,7.54,0.39,-23.03
13.06848204135895,3,3,3,2,-7.06,5.75,-0.78,7.54,0.39,-23.03
13.0784820318222,3,3,3,2,-6.89,4.95,-1.05,7.42,0.8,-22.62
13.08848202228546,3,3,3,2,-6.31,4.84,-1.25,10.28,0.43,-21.32
13.09848201274872,3,3,3,2,-6.02,5.13,-1.6,9.81,0.25,-20.47
13.10848200321198,3,3,3,2,-6.09,5.24,-1.49,9.359999999999999,0.18,-19.65
13.11848199367523,3,3,3,2,-5.93,5.05,-0.98,9.359999999999999,0.18,-19.65
13.12848198413849,3,3,3,2,-5.39,3.85,-0.36,9.050000000000001,0.36,-19.41
13.13848197460175,3,3,3,2,-5.51,3.6,0.11,12.67,0.88,-16.79
13.148481965065,3,3,3,2,-5.71,4.06,0.24,11.92,1.57,-14.78
13.15848195552826,3,3,3,2,-6.11,4.63,0.2,9.85,1.67,-12.44
13.16848194599152,3,3,3,2,-7.15,2.47,1.75,9.85,1.67,-12.44
13.17848193645477,3,3,3,2,-7.64,0.83,1.89,8.699999999999999,1.74,-9.34
13.18848192691803,3,3,3,2,-7.98,-0.91,0.98,9.949999999999999,1,-6.33
13.19848191738129,3,3,3,2,-8.58,-2.73,0.42,13.58,-0.98,-5.7
13.20848190784454,3,3,3,2,-9.51,-4.52,2.08,14.75,-2.39,-5.08
13.2184818983078,3,3,3,2,-9.859999999999999,-5.84,3.1,14.75,-2.39,-5.08
13.22848188877106,3,3,3,2,-9.23,-7.22,3.4,15.2,-3.47,-3.99
13.23848187923431,3,3,3,2,-8.369999999999999,-9.58,2.77,13.13,2.16,-2.17
13.24848186969757,3,3,3,2,-10.65,-13.68,-0.16,12.19,0.78,-1.83
13.25848186016083,3,3,3,2,-11.11,-13.19,-0.01,11.08,-1.51,-2.88
13.26848185062408,3,3,3,2,-10.46,-11.75,0.83,11.08,-1.51,-2.88
13.27848184108734,3,3,3,2,-9.77,-11.22,0.71,9.43,-1.01,-4.63
13.2884818315506,3,3,3,2,-10.81,-6.94,-0.3,5.12,3.34,-5.6
13.29848206043243,3,3,3,2,-11.11,-4.76,-0.44,3.53,6.04,-4.75
13.30848205089569,3,3,3,2,-11.73,-3.46,-2.87,5.47,4.19,-3.62
13.31848204135895,3,3,3,2,-13.64,2.17,-2.41,5.47,4.19,-3.62
13.3284820318222,3,3,3,2,-13.37,-4.85,5.62,-2.81,-1.41,-3.23
13.33848202228546,3,3,3,2,-15.27,-15.11,4.85,15.19,-3.36,-5.04
13.34848201274872,3,3,3,2,-17.41,-16.08,3.4,29.5,-8.300000000000001,3.23
13.35848200321198,3,3,3,2,-5.21,7.1,5.32,23.65,-3.28,9.960000000000001
13.36848199367523,3,3,3,2,-4.36,8.24,0.25,23.65,-3.28,9.960000000000001
13.37848198413849,3,3,3,2,-7.26,3.98,-2.85,14.49,3.8,8.69
13.38848197460175,3,3,3,2,-10.55,2.5,-4.74,20.17,5.87,9.32
13.398481965065,3,3,3,2,-10.51,10.48,-3.51,15.6,6.45,10.49
13.40848195552826,3,3,3,2,-8.789999999999999,11.83,-6.03,4.71,6.44,11.38
13.41848194599152,3,3,3,2,-8.9,8.85,-6.39,4.71,6.44,11.38
13.42848193645477,3,3,3,2,-9.890000000000001,4.18,-4.23,-4,5.95,11.98
13.43848192691803,3,3,3,2,-11.34,2.36,0.38,1.18,6.22,12.8
13.44848191738129,3,3,3,2,-12.51,4.02,1.06,0.02,6.61,12.54
13.45848190784454,3,3,3,2,-12.34,3.63,1.38,-1.2,6.51,11.71
13.4684818983078,3,3,3,1,-11.28,1.68,1.23,-1.2,6.51,11.71
13.47848188877106,3,3,3,1,-10.01,0.48,0.59,-0.5600000000000001,6.2,10.81
13.48848187923431,3,3,3,1,-9.859999999999999,0.54,-0.11,0.9,5.29,11.42
13.49848186969757,3,3,3,1,-9.789999999999999,0.54,-1.36,0.62,5.08,11.29
13.50848186016083,3,3,3,1,-9.66,1.09,-2.54,-1.08,5,10.88
13.51848185062408,3,3,3,1,-9.42,1.13,-3.68,-1.08,5,10.88
13.52848184108734,3,3,3,1,-9.640000000000001,-0.02,-3.58,-4.56,4.79,10.92
13.5384818315506,3,3,3,1,-9.789999999999999,-0.58,-3.15,-7.57,4.48,10.63
13.54848206043243,3,3,3,1,-9.94,-0.7,-2.65,-7.97,4.25,10.44
13.55848205089569,3,3,3,1,-9.91,-1.4,-1.5,-7.6,4.1,10.6
13.56848204135895,3,3,3,1,-9.699999999999999,-1.63,-0.95,-7.6,4.1,10.6
13.5784820318222,3,3,3,1,-9.75,-1.71,-0.78,-5.86,4.17,10.83
13.58848202228546,3,3,3,1,-9.789999999999999,-0.77,-0.59,-4.09,4.28,11.2
13.59848201274872,3,3,3,1,-9.83,0.59,-1.17,-5.45,4.2,11.32
13.60848200321198,3,3,3,1,-9.75,0.51,-1.39,-7.4,4.06,11.44
13.61848199367523,3,3,3,1,-9.65,0.46,-1.39,-7.4,4.06,11.44
13.62848198413849,3,3,3,1,-9.449999999999999,0.3,-1.57,-9.26,3.78,11.8
13.63848197460175,3,3,3,1,-9.6,-1.35,-1.6,-12.46,2.12,11.97
13.648481965065,3,3,3,1,-9.859999999999999,-1.39,-1.22,-10.61,2.1,11.73
13.65848195552826,3,3,3,1,-9.4,-1.78,-1.16,-8.75,2.11,11.54
13.66848194599152,3,3,3,0,-9.199999999999999,-2.32,-1.08,-8.75,2.11,11.54
13.67848193645477,3,3,3,0,-9.529999999999999,-1.7,-0.9399999999999999,-6.96,2.08,11.52
13.68848192691803,3,3,3,0,-9.56,-1.46,-1,-4.4,1.6,12.01
13.69848191738129,3,3,3,0,-9.6,-1.57,-1.21,-3.42,1.21,12.46
13.70848190784454,3,3,3,0,-9.390000000000001,-0.79,-1.4,-2.76,0.95,12.64
13.7184818983078,3,3,3,0,-9.359999999999999,-0.26,-1.55,-2.76,0.95,12.64
13.72848188877106,3,3,3,0,-9.27,0.2,-1.57,-2.6,1,12.71
13.73848187923431,3,3,3,0,-9.220000000000001,0.42,-1.31,-4.89,0.66,12.75
13.74848186969757,3,3,3,0,-9.4,-0.4,-1.4,-5.69,0.58,12.57
13.75848186016083,3,3,3,0,-9.619999999999999,-1.14,-1.26,-6.16,0.67,12.35
13.76848185062408,3,3,3,0,-9.859999999999999,-1.56,-1.35,-6.16,0.67,12.35
13.77848184108734,3,3,3,0,-9.880000000000001,-1.65,-1.28,-6.34,0.78,12.43
13.7884818315506,3,3,3,0,-10.29,-2.2,-1.76,-6.52,0.85,12.08
13.79848206043243,3,3,3,0,-10,-2.66,-1.69,-5.75,0.9,11.59
13.80848205089569,3,3,3,0,-9.869999999999999,-3.06,-1.55,-5.22,0.97,10.93
13.81848204135895,3,3,3,0,-9.77,-2.95,-1.49,-5.22,0.97,10.93
13.8284820318222,3,3,3,0,-9.529999999999999,-2.55,-1.02,-4.94,1.01,10.38
13.83848202228546,3,3,3,0,-9.359999999999999,-2.58,-0.91,-4.4,0.97,9.210000000000001
13.84848201274872,3,3,3,0,-9.33,-2.56,-1.05,-3.73,1.07,8.5
13.85848200321198,3,3,3,0,-9.630000000000001,-1.12,-1.49,-3.22,0.8,7.98
13.86848199367523,3,3,3,0,-9.630000000000001,-1.12,-1.49,-3.22,0.8,7.98
13.87848198413849,3,3,3,0,-9.640000000000001,-0.65,-1.68,-2.73,0.5600000000000001,7.71
13.88848197460175,3,3,3,0,-10.07,-0.2,-1.82,-3.42,0.05,7.46
13.898481965065,3,3,3,0,-11.23,-1.04,-2.04,-4.46,-0.2,7.56
13.90848195552826,3,3,3,0,-11.87,-1.92,-1.65,-5.29,-0.37,7.68
13.91848194599152,3,3,3,0,-11.87,-1.92,-1.65,-5.29,-0.37,7.68
13.92848193645477,3,3,3,0,-12.06,-3.24,-1.12,-6.66,-0.65,7.65
13.93848192691803,3,3,3,0,-12.53,-6.05,0.6899999999999999,-9.9,-0.72,5.89
13.94848191738129,3,3,3,0,-13.51,-6.54,1.72,-10.63,-1.82,4.41
13.95848190784454,3,3,3,0,-14.65,-6.84,2.64,-10.66,-3.95,2.46
13.9684818983078,3,3,3,0,-14.65,-6.84,2.64,-10.66,-3.95,2.46
13.97848188877106,3,3,3,0,-14.71,-6.06,4.92,-12.58,-6.51,-0.28
13.98848187923431,3,3,3,0,-13.12,-5.31,3.28,-19.92,-9.01,-5.19
13.99848186969757,3,3,3,0,-12.32,-5.18,1.32,-19.92,-7.81,-7.32
14.00848186016083,3,3,3,0,-12.55,-3.34,-1.85,-16.02,-5.22,-9.59
14.01848185062408,3,3,3,0,-12.55,-3.34,-1.85,-9.51,-1.8,-11
14.02948200702667,3,3,3,0,-12.67,-1.59,-2.91,-3.73,1.01,-12.47
14.03948199748993,3,3,3,0,-14.08,3.71,-2.43,-2.32,2.25,-14.23
14.04948198795319,3,3,3,0,-15.29,4.94,-1.71,-7.01,2.55,-16.42
14.05948197841644,3,3,3,0,-16.34,5.51,-0.58,-13,2.99,-15.55
14.0694819688797,3,3,3,0,-16.34,5.51,-0.58,-18.13,4.41,-14.18
14.07948195934296,3,3,3,0,-16.34,6.46,0,-20.07,6.28,-13.2
14.08948194980621,3,3,3,0,-11.25,6.55,-1.6,-18.67,7.54,-14.46
14.09948194026947,3,3,3,0,-10.79,5.52,-1.67,-16.26,7.97,-16.25
14.10948193073273,3,3,3,0,-10.62,4.75,-1.54,-12.09,7.37,-17.79
14.11948192119598,3,3,3,0,-10.62,4.75,-1.54,-7.19,6.23,-18.81
14.12948191165924,3,3,3,0,-10.33,4.79,-1.6,-3.37,5.82,-18.88
14.1394819021225,3,3,3,0,-9.07,5.33,-1.96,-0.06,6.03,-18.4
14.14948189258575,3,3,3,0,-8.51,5.21,-1.57,3.73,6.31,-18.73
14.15948188304901,3,3,3,0,-9.06,4.56,-1.88,8.4,6.69,-19.36
14.16948187351227,3,3,3,1,-9.06,4.56,-1.88,13.48,7.5,-20.98
14.17948186397552,3,3,3,1,-7.57,3.85,-1.76,17.33,5.97,-21.5
14.18948185443878,3,3,3,1,-8.25,5.73,-1.89,17.74,3.22,-21.38
14.19948184490204,3,3,3,1,-8.06,6.53,-1.36,15.67,1.06,-21.68
14.2094818353653,3,3,3,1,-7.05,6.7,-0.74,13.76,-0.14,-21.9
14.21948182582855,3,3,3,1,-7.05,6.7,-0.74,13.11,-0.53,-22.04
14.22948205471039,3,3,3,1,-6.54,6.66,-0.91,12.61,-0.4,-21.68
14.23948204517365,3,3,3,1,-6.14,6.48,-1,12.8,-0.46,-21.2
14.2494820356369,3,3,3,1,-5.72,6.56,-0.67,13.19,-0.93,-20.62
14.25948202610016,3,3,3,1,-5.49,6.66,-0.11,12.84,-1.37,-20.06
14.26948201656342,3,3,3,1,-5.15,6.69,0.07000000000000001,10.85,-1.2,-19.81
14.27948200702667,3,3,3,1,-4.95,6.19,0.3,7.88,-0.72,-19.32
14.28948199748993,3,3,3,1,-4.98,4.42,0.9,7.57,-0.15,-18.06
14.29948198795319,3,3,3,1,-5.33,4.2,0.91,8.460000000000001,0.6899999999999999,-16.48
14.30948197841644,3,3,3,1,-5.81,3.71,1.1,8.42,1.66,-14.5
14.3194819688797,3,3,3,1,-6.37,2.33,1.16,6.9,3.1,-12.03
14.32948195934296,3,3,3,1,-7.76,-1.18,1.04,6.17,4.34,-9.880000000000001
14.33948194980621,3,3,3,1,-8.630000000000001,-2.63,0.31,7.38,5.22,-9.08
14.34948194026947,3,3,3,1,-9.57,-4.04,-0.13,9.609999999999999,4.38,-8.67
14.35948193073273,3,3,3,1,-10.63,-6.31,1.75,10.41,2.13,-7.74
14.36948192119598,3,3,3,1,-10.07,-7.58,3.14,12.04,-1.43,-6.04
14.37948191165924,3,3,3,1,-9.43,-9.880000000000001,3.17,12.42,-2.41,-3.85
14.3894819021225,3,3,3,1,-10.27,-13.13,2,12.33,1.49,-2.96
14.39948189258575,3,3,3,1,-11.61,-13.8,0.34,12.86,1.92,-2.88
14.40948188304901,3,3,3,1,-10.66,-13.69,0.65,11.75,-0.99,-3.66
14.41948187351227,3,3,3,1,-10.45,-12.94,0.05,9.74,-1.12,-4.31
14.42948186397552,3,3,3,1,-9.91,-10.09,-0.26,5.6,1.06,-6.22
14.44948184490204,3,3,3,1,-10.88,-1.41,-1.27,5.88,2.65,-4.98
14.4594818353653,3,3,3,1,-12.5,5.27,-3.46,12.04,1.53,-2.96
14.46948182582855,3,3,3,2,-13.18,9.99,-2.4,9.77,-1.25,-1.06
14.47948205471039,3,3,3,2,-10.85,-3.71,4.52,-2.54,-3.15,-0.11
14.48948204517365,3,3,3,2,-11.9,-12.45,6.01,-4.81,-3.83,1.14
14.4994820356369,3,3,3,2,-12.02,-11.94,7.04,9.210000000000001,-4.77,5.61
14.50948202610016,3,3,3,2,-10.08,-5.64,4.98,18.99,-0.44,8.470000000000001
14.51948201656342,3,3,3,2,-9.970000000000001,-1.56,-0.2,18.72,3.57,7.08
14.52948200702667,3,3,3,2,-9.699999999999999,-0.07000000000000001,-1.79,18.72,3.57,7.08
14.53948199748993,3,3,3,2,-11.58,2.23,-5.27,21.66,6.13,8.44
14.54948198795319,3,3,3,2,-13.16,6.92,-6.03,25.03,6.45,10.68
14.55948197841644,3,3,3,2,-8.539999999999999,13.37,-4.73,14.89,5.45,10.79
14.5694819688797,3,3,3,2,-7.78,7.7,-5.89,1.42,6.9,11.57
14.57948195934296,3,3,3,2,-8.609999999999999,2.88,-5.06,1.42,6.9,11.57
14.58948194980621,3,3,3,2,-9.19,3.06,-2.83,-0.72,7.47,11.97
14.59948194026947,3,3,3,2,-11.73,4.7,-0.65,-1.58,6.6,14.58
14.60948193073273,3,3,3,2,-12.46,2.62,-0.18,-1.58,6.6,14.58
14.61948192119598,3,3,3,2,-11.74,1.16,0.18,-1.38,5.84,12.08
14.62948191165924,3,3,3,2,-10.77,1.2,0.33,-1.38,5.84,12.08
14.6394819021225,3,3,3,2,-10.21,1.49,-1.28,-0.07000000000000001,5.46,11.93
14.64948189258575,3,3,3,2,-9.869999999999999,1.58,-2.24,1.09,5.09,11.44
14.65948188304901,3,3,3,2,-9.43,1.21,-3.22,1.32,4.83,11.22
14.66948187351227,3,3,3,2,-9.56,1.4,-3.69,-2.54,4.74,11.58
14.67948186397552,3,3,3,2,-9.960000000000001,1.36,-3.59,-2.54,4.74,11.58
14.68948185443878,3,3,3,2,-9.800000000000001,1.1,-3.17,-6.68,4.67,11.7
14.69948184490204,3,3,3,2,-9.720000000000001,0.57,-2.39,-10.46,4.42,11.67
14.7094818353653,3,3,3,2,-9.869999999999999,-1.67,-1.28,-13.38,4.08,11.27
14.71948182582855,3,3,3,2,-9.890000000000001,-1.91,-0.68,-11.8,3.59,11.11
14.72948205471039,3,3,3,2,-9.81,-1.06,-0.42,-11.8,3.59,11.11
14.73948204517365,3,3,3,2,-9.74,0.16,-0.66,-9.25,3.58,11.32
14.7494820356369,3,3,3,2,-9.85,0.15,-1.56,-8.44,3.58,11.65
14.75948202610016,3,3,3,2,-9.52,0,-1.8,-8.9,3.53,11.72
14.76948201656342,3,3,3,2,-9.57,-0.06,-1.59,-10.33,3.16,11.9
14.77948200702667,3,3,3,2,-9.48,-0.18,-1.7,-10.34,3.26,11.86
14.78948199748993,3,3,3,2,-9.390000000000001,-1.33,-1.52,-11.13,2.82,11.93
14.79948198795319,3,3,3,2,-9.5,-1.52,-1.49,-11.26,2.46,11.96
14.80948197841644,3,3,3,2,-9.710000000000001,-1.92,-1.42,-10.85,2.1,11.93
14.8194819688797,3,3,3,2,-9.6,-2.44,-1.4,-10.44,1.68,12.05
14.82948195934296,3,3,3,2,-9.02,-2.83,-1.58,-9.18,1.45,12.44
14.83948194980621,3,3,3,2,-9.07,-2.71,-1.66,-7.94,1.37,12.88
14.84948194026947,3,3,3,2,-9.09,-2.5,-1.72,-6.72,1.52,13.22
14.85948193073273,3,3,3,2,-9.140000000000001,-2.15,-1.57,-5.62,1.55,13.47
14.86948192119598,3,3,3,2,-9.32,-1.53,-1.37,-5.05,1.56,13.58
14.87948191165924,3,3,3,2,-9.539999999999999,-1.03,-1.36,-5.02,1.55,13.43
14.8894819021225,3,3,3,2,-9.869999999999999,-0.82,-1.41,-5.33,1.62,13
14.89948189258575,3,3,3,2,-9.970000000000001,-1.11,-1.48,-5.99,1.46,12.51
14.90948188304901,3,3,3,2,-10.28,-1.33,-1.46,-6.62,1.2,11.86
14.91948187351227,3,3,3,2,-10.18,-1.98,-1.36,-7.3,1.16,11.11
14.92948186397552,3,3,3,2,-9.720000000000001,-2.32,-1.47,-8.24,1.06,10.67
14.93948185443878,3,3,3,2,-9.460000000000001,-2.48,-1.52,-8.56,1,10.42
14.94948184490204,3,3,3,2,-9.16,-3.06,-1.21,-8.9,1.02,9.9
14.9594818353653,3,3,3,2,-9.17,-3.32,-1.18,-9.08,1.1,9.32
14.96948182582855,3,3,3,2,-9.550000000000001,-3.16,-1.2,-8.640000000000001,1.35,8.6
14.97948205471039,3,3,3,2,-9.92,-2.71,-1.08,-7.39,1.24,7.93
14.98948204517365,3,3,3,2,-10,-1.2,-1.41,-5.71,0.68,7.55
14.9994820356369,3,3,3,2,-10.14,-0.51,-1.64,-3.97,0.01,7.21
15.00948202610016,3,3,3,2,-10.28,0.5,-1.7,-2.4,-0.44,6.96
15.01948201656342,3,3,3,2,-10.38,1.4,-2.08,-1.89,-0.74,6.94
15.02948200702667,3,3,3,2,-10.72,0.11,-2.35,-2.8,-1.02,6.98
15.03948199748993,3,3,3,2,-11.63,-0.63,-2.16,-3.98,-1.23,7.6
15.04948198795319,3,3,3,2,-12.06,-1.11,-1.93,-4.4,-1.01,8.16
15.06048190593719,3,3,3,2,-11.54,-2.94,-1.25,-4.72,-1.09,8.57
15.07048189640045,3,3,3,2,-11.33,-4.51,-0.78,-6.01,-1.47,8.84
15.08048188686371,3,3,3,2,-11.5,-5.89,-0.41,-8.06,-1.75,8.6
15.09048187732697,3,3,3,2,-11.86,-7,-0.13,-9.85,-2.28,8.1
15.10048186779022,3,3,3,2,-13.05,-8.9,1.68,-11.16,-3.2,6.34
15.11048185825348,3,3,3,2,-13.27,-8.31,2.88,-11.46,-4.29,3.55
15.12048184871674,3,3,3,2,-12.89,-7.52,3.58,-12.59,-6.03,1.64
15.13048183917999,3,3,3,2,-12.69,-7.04,2.95,-14.84,-7.55,-1.96
15.14048182964325,3,3,3,2,-12.7,-5.61,0.59,-17.18,-7.58,-5.68
15.15048205852509,3,3,3,2,-12.87,-4.06,-0.36,-16.54,-5.85,-8.800000000000001
15.16048204898834,3,3,3,2,-12.95,-2.1,-1.38,-13.1,-3.05,-10.8
15.1704820394516,3,3,3,2,-13.7,0.93,-1.45,-8.220000000000001,0.1,-12.19
15.18048202991486,3,3,3,2,-15.36,6.57,-0.55,-4.49,1.98,-13.37
15.19048202037811,3,3,3,2,-14.8,6.54,-0.44,-5.15,1.99,-14.31
15.20048201084137,3,3,3,2,-15.95,4.67,-0.57,-11.24,3.62,-18.2
15.21048200130463,3,3,3,2,-17.33,6.76,0.18,-17.75,4.35,-17.67
15.22048199176788,3,3,3,2,-15.18,6.62,-0.44,-19.95,6.33,-15.91
15.23048198223114,3,3,3,2,-13.78,5.77,-0.67,-22.81,8.65,-15.64
15.2404819726944,3,3,3,2,-12.09,5.47,-0.62,-20.43,9.94,-16.08
15.25048196315765,3,3,3,2,-11.54,5.02,-0.97,-16.05,9.529999999999999,-17.26
15.26048195362091,3,3,3,2,-11.52,5.37,-1.28,-10.57,8.17,-18.42
15.27048194408417,3,3,3,2,-11.41,6.06,-1.12,-5.31,6.43,-18.98
15.28048193454742,3,3,3,2,-9.460000000000001,6.62,-0.92,-1.64,5.67,-18.11
15.29048192501068,3,3,3,2,-7.08,5.67,-1.13,1.54,6.59,-19.81
15.30048191547394,3,3,3,2,-8.720000000000001,4.12,-0.97,4.59,7.27,-22.72
15.31048190593719,3,3,3,2,-8.800000000000001,4.32,-0.9,9.49,7.19,-23.79
15.32048189640045,3,3,3,2,-8.44,4.89,-0.98,14.77,5.67,-24.37
15.33048188686371,3,3,3,2,-7.72,5.57,-0.85,16.47,3.29,-24.19
15.34048187732697,3,3,3,2,-6.63,7.29,-0.9399999999999999,15.43,1.17,-24.31
15.35048186779022,3,3,3,2,-6.2,7.02,-0.74,14.32,-0.79,-24.47
15.36048185825348,3,3,3,2,-5.85,6.38,-0.74,14.25,-2.03,-24.18
15.37048184871674,3,3,3,1,-5.63,6.2,-1,15.01,-2.29,-23.63
15.44048202037811,3,3,3,0,-5.38,3.62,1.83,7.2,-5.16,-16.72
15.45048201084137,3,3,3,0,-7.05,0.57,2.83,5.6,-4.5,-13.19
15.46048200130463,3,3,3,0,-7.44,-0.35,2.74,6.45,-2.54,-10.01
15.47048199176788,3,3,3,0,-8.17,-1.45,1.92,10.59,-0.2,-9.109999999999999
15.48048198223114,3,3,3,0,-9.01,-2.28,1.36,16.19,3.37,-8.300000000000001
15.4904819726944,3,3,3,0,-9.76,-6.91,2.15,16.2,7.01,-7.92
15.50048196315765,3,3,3,0,-10.58,-9.859999999999999,1.49,11.42,6.89,-7.06
15.51048195362091,3,3,3,0,-11.26,-12.56,-0.71,8.710000000000001,2.63,-4.51
15.52048194408417,3,3,3,0,-12.39,-16.55,-3.69,7.92,0.39,-3.76
15.53048193454742,3,3,3,0,-12.36,-17.3,-0.22,8.609999999999999,-1.36,-3.68
15.54048192501068,3,3,3,0,-9.710000000000001,-13.55,1.12,14.15,-7.99,-2.4
15.55048191547394,3,3,3,0,-7.99,-9.4,0.53,15.49,-8.08,-2.96
15.56048190593719,3,3,3,0,-7.83,-5.38,-0.21,10.6,0.31,-5.02
15.57048189640045,3,3,3,0,-10.66,0.78,-2.6,4.29,6.26,-6.04
15.58048188686371,3,3,3,0,-12.85,3.81,-4.81,3.15,5.86,-4.97
15.59048187732697,3,3,3,0,-13.6,4.58,-3.01,8.539999999999999,3.92,-3.55
15.60048186779022,3,3,3,0,-12.79,1.54,1.39,9.369999999999999,-1.03,-3.15
15.61048185825348,3,3,3,0,-11.15,-6.89,8.300000000000001,2.89,-6.22,-2.16
15.62048184871674,3,3,3,0,-10.62,-5.07,7.29,2.43,-8.23,2.07
15.63048183917999,3,3,3,0,-10.74,-3.47,3.7,8.75,-3.74,7.6
15.64048182964325,3,3,3,0,-11.34,-4.63,0.87,7.48,4.26,7.4
15.65048205852509,3,3,3,0,-10.2,-0.1,-2.41,13.13,5.55,6.82
15.66048204898834,3,3,3,0,-12.63,5.25,-4.66,20.15,8.27,9.73
15.6704820394516,3,3,3,0,-12.59,11.47,-5.07,27.96,9.4,10.19
15.68048202991486,3,3,3,0,-9.75,13.97,-4.14,24.47,7.45,10.14
15.69048202037811,3,3,3,0,-8.640000000000001,5.1,-4.65,7.51,6.88,11.95
15.70048201084137,3,3,3,0,-9.300000000000001,3.82,-3.3,-0.51,7.08,11.82
15.71048200130463,3,3,3,0,-9.99,4.11,-1.98,-0.77,6.97,11.47
15.72048199176788,3,3,3,0,-10.9,2.87,-1.78,-2.42,6.64,12.61
15.73048198223114,3,3,3,0,-11.44,1.96,-1.15,-2.76,6.39,12.63
15.7404819726944,3,3,3,0,-10.92,1.32,-0.86,-1.87,6.05,11.97
15.75048196315765,3,3,3,0,-10.74,0.66,-0.77,-1.35,5.73,11.15
15.76048195362091,3,3,3,0,-9.98,0.9,-1.35,-0.29,5.43,10.69
15.77048194408417,3,3,3,0,-9.85,1.06,-2.08,0.57,5.24,10.84
15.78048193454742,3,3,3,0,-9.82,1.32,-2.6,1.25,5.14,10.96
15.79048192501068,3,3,3,0,-10,1.83,-2.88,1.27,5.12,11.01
15.80048191547394,3,3,3,0,-10.06,1.98,-2.39,-0.66,5.19,11.04
15.81048190593719,3,3,3,0,-10.01,1.51,-1.98,-4.58,5.14,11.17
15.82048189640045,3,3,3,0,-9.960000000000001,0.7,-1.61,-8.75,4.9,11.21
15.83048188686371,3,3,3,0,-10.09,-0.01,-1.17,-11.69,4.5,11.17
15.84048187732697,3,3,3,0,-10.17,-0.93,-0.72,-12.9,4.17,11.11
15.85048186779022,3,3,3,0,-9.779999999999999,-1.35,-0.76,-12.74,3.92,11
15.86048185825348,3,3,3,0,-9.52,-1.04,-0.61,-11.53,3.76,11.09
15.87048184871674,3,3,3,0,-9.529999999999999,-0.59,-0.8,-9.789999999999999,3.8,11.26
15.88048183917999,3,3,3,0,-9.41,-1.07,-1.4,-10.3,3.49,11.44
15.89048182964325,3,3,3,0,-9.19,-1.24,-1.65,-9.69,3.76,11.39
15.90048205852509,3,3,3,0,-9.01,-1.8,-1.67,-9.300000000000001,3.87,11.27
15.91048204898834,3,3,3,0,-9.140000000000001,-2.42,-1.47,-9.949999999999999,3.74,11.08
15.9204820394516,3,3,3,0,-9.369999999999999,-2.34,-1.26,-9.43,3.37,10.78
15.93048202991486,3,3,3,0,-9.449999999999999,-2.22,-1.14,-8.35,2.99,10.78
15.94048202037811,3,3,3,0,-9.529999999999999,-2.04,-1.37,-7.17,2.77,11.21
15.95048201084137,3,3,3,0,-9.460000000000001,-1.75,-1.37,-6.14,2.45,11.61
15.96048200130463,3,3,3,0,-9.06,-1.37,-1.44,-5.52,2.07,12.15
15.97048199176788,3,3,3,0,-9.15,-1.48,-1.31,-4.88,1.76,12.88
15.98048198223114,3,3,3,0,-9.43,-1.46,-1.13,-4.44,1.56,13.41
15.9904819726944,3,3,3,0,-9.390000000000001,-1.91,-1.15,-4.39,1.07,13.63
16.00048196315765,3,3,3,0,-9.5,-2.35,-1.02,-4.8,0.79,13.56
16.01048195362091,3,3,3,0,-9.6,-2.26,-1.32,-4.54,0.92,13.14
16.02048194408417,3,3,3,0,-9.81,-2.08,-1.36,-4.38,1.36,12.74
16.03048193454742,3,3,3,0,-9.98,-2.02,-1.32,-4.93,1.65,12.11
16.04148185253143,3,3,3,0,-10.03,-1.78,-1.29,-5.51,1.61,11.62
16.05048191547394,3,3,3,0,-9.84,-2.14,-1.1,-5.72,1.44,11.24
16.06048190593719,3,3,3,0,-9.57,-2.52,-1.13,-5.57,1.18,11.07
16.07048189640045,3,3,3,0,-9.210000000000001,-2.91,-1.13,-5.22,1.01,10.79
16.08148205280304,3,3,3,0,-9.44,-2.64,-1.23,-4.22,0.97,10.43
16.0914820432663,3,3,3,0,-9.800000000000001,-2.03,-1.35,-3.05,0.97,10.14
16.10148203372955,3,3,3,0,-10.25,-1.49,-1.36,-2.34,0.9,9.779999999999999
16.11148202419281,3,3,3,0,-10.12,0.05,-1.66,-1.55,0.76,9.23
16.12148201465607,3,3,3,0,-10.09,0.02,-1.53,-0.85,0.55,8.56
16.13148200511932,3,3,3,0,-10.01,0.79,-1.19,-0.86,0.42,8.15
16.14148199558258,3,3,3,0,-10.09,0.84,-1.68,-1.62,0.37,8.199999999999999
16.15148198604584,3,3,3,0,-10.64,0.29,-2.29,-3.1,0.47,8.529999999999999
16.16148197650909,3,3,3,0,-11.34,-0.6,-2.1,-5.28,0.53,8.84
16.17148196697235,3,3,3,0,-11.92,-1.98,-1.81,-8.09,0.42,8.789999999999999
16.18148195743561,3,3,3,0,-11.72,-3.27,-1.19,-10.61,-0.06,9.16
16.19148194789886,3,3,3,0,-11.56,-6.15,-0.42,-12.74,-0.77,9.41
16.20148193836212,3,3,3,0,-12.18,-7.34,0.95,-14.1,-1.59,9.23
16.21148192882538,3,3,3,0,-12.94,-7.8,1.63,-15.04,-2.49,7.34
16.22148191928864,3,3,3,0,-13.54,-8.06,2.8,-15.24,-3.71,4.77
16.23148190975189,3,3,3,0,-14.62,-7.65,3.74,-16.02,-5.74,2.58
16.24148190021515,3,3,3,0,-13.91,-7.24,2.97,-17.46,-8.25,-0.35
16.25148189067841,3,3,3,0,-12.47,-7.45,1.93,-18.53,-9.18,-3.46
16.26148188114166,3,3,3,0,-12.25,-6.69,0.48,-17.43,-7.76,-6.7
16.27148187160492,3,3,3,0,-12.64,-2.74,-1.74,-12.5,-5.19,-8.99
16.28148186206818,3,3,3,0,-13.4,0.64,-2.23,-5.13,-2.39,-10.52
16.29148185253143,3,3,3,0,-14.33,3.38,-2.25,0.44,0.08,-13.22
16.30148184299469,3,3,3,0,-15.22,5.43,-1.73,1.28,1.46,-15.09
16.31148183345795,3,3,3,0,-15.99,4.53,-1.75,-3.57,1.11,-16.32
16.3214818239212,3,3,3,0,-16.36,5.23,-0.96,-9.380000000000001,1.48,-15.51
16.33148205280304,3,3,3,0,-16.12,6.62,-0.33,-11.25,2.76,-14.22
16.3414820432663,3,3,3,0,-14.83,7.31,-0.51,-14.77,3.91,-12.83
16.35148203372955,3,3,3,0,-11.99,6.01,-0.86,-18.62,5.72,-13.49
16.36148202419281,3,3,3,0,-11.43,5.85,-1.12,-17.6,6.58,-16.26
16.37148201465607,3,3,3,0,-11.44,5.61,-1.28,-14.58,6.85,-17.92
16.38148200511932,3,3,3,0,-11.16,5.38,-1.32,-11.5,6.64,-18.53
16.39148199558258,3,3,3,0,-10.33,5.11,-1.6,-8.449999999999999,6.03,-18.99
16.40148198604584,3,3,3,0,-10.32,4.69,-1.44,-4.83,5.64,-18.19
16.41148197650909,3,3,3,0,-9.17,4.82,-1.13,-0.3,5.06,-17.55
16.42148196697235,3,3,3,0,-7.05,4.96,-1.45,5.56,5.5,-20.55
16.43148195743561,3,3,3,0,-8.34,4.31,-1.33,10.16,5.76,-23.53
16.44148194789886,3,3,3,0,-8.56,4.65,-1.55,14.01,4.43,-23.22
16.45148193836212,3,3,3,0,-8.19,5.33,-1.52,14.82,2.49,-22.89
16.46148192882538,3,3,3,0,-6.98,6.29,-1.29,14.26,0.77,-22.57
16.47148191928864,3,3,3,0,-6.32,6.33,-1.31,15.12,-0.75,-22.52
16.48148190975189,3,3,3,0,-5.8,6.61,-1.24,14.86,-2,-22.41
16.49148190021515,3,3,3,0,-5.62,6.88,-1.41,13.38,-2.57,-22.41
16.50148189067841,3,3,3,0,-5.28,6.64,-1.29,11.96,-2.41,-22.1
16.51148188114166,3,3,3,0,-5.07,6.78,-1.06,11.88,-2.26,-21.3
16.52148187160492,3,3,3,0,-4.92,6.99,-0.73,12.42,-2.76,-20.61
16.53148186206818,3,3,3,0,-4.64,7.21,-0.53,12.56,-3.7,-20.68
16.54148185253143,3,3,3,0,-4.94,6.24,0.59,10.9,-3.95,-20.22
16.55148184299469,3,3,3,0,-4.91,5.08,1.46,8.77,-4.36,-18.75
16.56148183345795,3,3,3,0,-5.57,3.48,2.09,6.72,-4.06,-17.53
16.5714818239212,3,3,3,0,-6.62,1.34,2.5,3.95,-2.54,-15.36
16.58148205280304,3,3,3,0,-7.73,-0.13,2.82,4.79,-0.87,-12.08
16.5914820432663,3,3,3,0,-8.15,-0.53,1.75,9.08,0.68,-11.04
16.60148203372955,3,3,3,0,-8.380000000000001,-1.46,0.41,12.32,2.19,-10.46
16.61148202419281,3,3,3,0,-8.57,-2.75,0.34,14.13,4.34,-9.550000000000001
16.62148201465607,3,3,3,0,-10.08,-7.78,2.15,14.59,6.62,-8.24
16.63148200511932,3,3,3,0,-11.11,-10.37,1.92,12.99,4.16,-5.56
16.64148199558258,3,3,3,0,-10.84,-12.3,0.3,14.13,-1.41,-3.72
16.65148198604584,3,3,3,0,-10.65,-15.89,-1.49,14.39,-3.06,-3.75
16.66148197650909,3,3,3,0,-11.44,-14.92,0.79,15.93,-2.61,-2.85
16.67148196697235,3,3,3,0,-9.44,-11.26,1.14,18.14,-4.66,-2.18
16.68148195743561,3,3,3,0,-8.57,-7.86,0.16,15.35,-3.04,-2.7
16.69148194789886,3,3,3,0,-9.23,-4.75,-0.15,10.27,1.55,-4.85
16.70148193836212,3,3,3,0,-10.99,-0.31,-0.61,4.61,3.49,-7.22
16.71148192882538,3,3,3,0,-12.2,3.46,-2.97,3.9,2.8,-7.26
16.72148191928864,3,3,3,0,-13.32,6.01,-3.27,10.11,1.78,-4.33
16.73148190975189,3,3,3,0,-13.03,4.04,1.02,11.64,-1.16,-1.37
16.74148190021515,3,3,3,0,-9.710000000000001,-8.029999999999999,6.48,0.63,-5.81,1.34
16.75148189067841,3,3,3,0,-12.14,-9.26,5.92,-4.33,-5.16,5.96
16.76148188114166,3,3,3,0,-11.48,-4.13,4.65,5.63,-1.95,8.710000000000001
16.77148187160492,3,3,3,0,-10.98,-1.69,2.64,9.59,4.26,7.45
16.78148186206818,3,3,3,0,-11.08,-0.4,-1.58,12.6,6.2,7.34
16.79148185253143,3,3,3,0,-13.83,2.12,-5.59,15.82,8.82,10.03
16.80148184299469,3,3,3,0,-14.31,7.77,-5.19,23.31,9.15,10.33
16.81148183345795,3,3,3,0,-11.17,12.9,-3.12,20.5,7.11,9.960000000000001
16.8214818239212,3,3,3,0,-7,6.09,-5.42,5.95,7.12,10.67
16.83148205280304,3,3,3,0,-8.369999999999999,2.98,-4.74,-1.39,7.18,10.35
16.8414820432663,3,3,3,0,-9.52,2.62,-3.08,-2.04,6.82,10.66
16.85148203372955,3,3,3,0,-11.93,4.38,-1.94,-2.55,6.42,13.02
16.86148202419281,3,3,3,0,-11.89,2.23,-1.17,-4.65,5.79,12.51
16.87148201465607,3,3,3,0,-11.14,0,-0.64,-6.79,5.1,11.11
16.88148200511932,3,3,3,0,-10.8,-1.18,-0.67,-5.07,4.75,11.31
16.89148199558258,3,3,3,0,-9.960000000000001,-0.14,-1.29,-0.54,4.76,11.21
16.90148198604584,3,3,3,0,-9.130000000000001,0.15,-1.86,2.6,4.88,10.87
16.91148197650909,3,3,3,0,-9.07,0.45,-2.37,3.3,4.88,10.69
16.92148196697235,3,3,3,1,-9.859999999999999,0.92,-2.56,2.69,4.83,10.66
16.93148195743561,3,3,3,1,-10.14,0.87,-2.15,0.29,4.79,10.24
16.94148194789886,3,3,3,1,-9.960000000000001,0.45,-1.88,-3.41,4.68,10.62
16.95148193836212,3,3,3,1,-9.800000000000001,0.23,-1.41,-6.68,4.34,10.43
16.96148192882538,3,3,3,1,-9.890000000000001,-0.16,-1.08,-9.130000000000001,3.82,10.28
16.97148191928864,3,3,3,1,-9.92,-0.78,-0.59,-10.29,3.42,10.26
16.98148190975189,3,3,3,1,-9.81,-0.41,-0.58,-9.56,3.07,10.24
16.99148190021515,3,3,3,1,-9.84,-0.27,-0.75,-8.43,2.78,10.2
17.00148189067841,3,3,3,1,-9.869999999999999,0.29,-0.89,-8.06,3,9.82
17.01148188114166,3,3,3,1,-9.48,0.01,-1.23,-8.869999999999999,3.3,9.57
17.02148187160492,3,3,3,2,-9.300000000000001,-0.75,-1.16,-10.38,3.4,9.619999999999999
17.03148186206818,3,3,3,2,-9.67,-0.8,-0.8100000000000001,-11.5,3.1,10.36
17.04148185253143,3,3,3,2,-9.75,-1.23,-0.79,-10.22,3.4,10.27
17.05148184299469,3,3,3,2,-9.720000000000001,-1.91,-0.79,-9.640000000000001,3.12,10.17
17.06148183345795,3,3,3,2,-9.529999999999999,-2.33,-0.99,-8.73,2.96,9.84
17.0714818239212,3,3,3,2,-9.460000000000001,-2.29,-1.15,-7.45,2.64,10.05
17.08148205280304,3,3,3,2,-9.43,-1.91,-1.42,-5.82,2.42,10.16
17.0914820432663,3,3,3,2,-9.31,-1.72,-1.88,-4.74,2.15,10.36
17.10148203372955,3,3,3,2,-9.199999999999999,-1.6,-1.74,-3.94,1.85,10.6
17.11248195171356,3,3,3,2,-9.1,-1.18,-1.58,-3.32,1.63,10.9
17.12248194217682,3,3,3,2,-9.039999999999999,-0.78,-1.65,-2.76,1.37,11.09
17.13248193264008,3,3,3,2,-9.109999999999999,-0.88,-1.49,-2.78,1.22,11.14
17.14248192310333,3,3,3,2,-9.24,-1.13,-1.47,-3.13,0.79,11.13
17.15248191356659,3,3,3,2,-9.369999999999999,-1.04,-1.19,-3.41,0.54,11.04
17.16248190402985,3,3,3,2,-9.49,-1.1,-1.03,-3.49,0.58,10.71
17.1724818944931,3,3,3,2,-9.56,-1.18,-1.1,-3.29,0.68,10.36
17.18248188495636,3,3,3,2,-9.720000000000001,-0.68,-1.25,-2.56,0.76,9.94
17.19248187541962,3,3,3,2,-9.93,-0.83,-1.46,-2.72,0.72,9.880000000000001
17.20248186588287,3,3,3,2,-10.34,-0.45,-1.38,-3.17,0.5600000000000001,9.869999999999999
17.21248185634613,3,3,3,2,-10.23,-0.24,-1.33,-3.76,0.32,9.98
17.22248184680939,3,3,3,2,-9.94,-0.5,-1.35,-3.95,0.14,10.08
17.23248183727264,3,3,3,2,-9.619999999999999,-1.05,-1.35,-4.25,-0.04,10.2
17.2424818277359,3,3,3,2,-9.44,-1.33,-1.46,-4.01,-0.16,10.06
17.25248205661774,3,3,3,2,-9.6,-1.35,-1.44,-3.61,-0.32,9.949999999999999
17.26248204708099,3,3,3,2,-9.81,-0.96,-1.2,-2.38,-0.21,9.460000000000001
17.27248203754425,3,3,3,2,-10.2,-0.6,-1.46,-1.45,-0.19,9.210000000000001
17.28248202800751,3,3,3,2,-10.26,-0.37,-1.64,-1.32,-0.28,9.07
17.29248201847076,3,3,3,2,-10.29,-0.33,-1.67,-1.81,-0.32,9.220000000000001
17.30248200893402,3,3,3,2,-10.28,-0.43,-1.63,-2.98,-0.58,9.35
17.31248199939728,3,3,3,2,-10.2,-0.68,-1.7,-4.15,-0.77,9.32
17.32248198986053,3,3,3,3,-10.66,-1.61,-1.39,-5.37,-0.77,9.529999999999999
17.33248198032379,3,3,3,3,-11.21,-2.29,-1.17,-6.61,-0.97,9.56
17.34248197078705,3,3,3,3,-11.24,-3.14,-1.13,-7.81,-1.34,9.640000000000001
17.35248196125031,3,3,3,3,-11.1,-4.45,-0.74,-9.42,-1.67,9.41
17.36248195171356,3,3,3,3,-11.21,-6.5,0.6,-10.97,-1.99,9.029999999999999
17.37248194217682,3,3,3,3,-11.45,-6.81,1.36,-11.86,-2.62,8.24
17.38248193264008,3,3,3,3,-11.84,-6.85,1.76,-11.99,-3.79,6.68
17.39248192310333,3,3,3,3,-12.67,-6.88,1.96,-11.51,-5.38,4.62
17.40248191356659,3,3,3,3,-12.91,-6.37,1.92,-12.45,-8.15,-1.56
17.41248190402985,3,3,3,3,-13.27,-6.5,1.36,-12.45,-8.15,-1.56
17.4224818944931,3,3,3,3,-12.96,-6.73,0.41,-12.96,-7.76,-4.39
17.43248188495636,3,3,3,3,-12.55,-6.03,-0.31,-6.6,-4.32,-8.56
17.44248187541962,3,3,3,3,-12.53,-1.82,-1.9,-1.48,-2.29,-10.17
17.45248186588287,3,3,3,3,-12.64,1.1,-2.14,2.15,-0.43,-12.26
17.46248185634613,3,3,3,3,-13.23,3.55,-2.41,2.15,-0.43,-12.26
17.47248184680939,3,3,3,3,-14,4.72,-2.16,2.51,0.77,-13.69
17.48248183727264,3,3,3,3,-14.7,5.06,-1.33,-6.59,1.41,-13.94
17.4924818277359,3,3,3,3,-14.84,6.3,-1.12,-8.369999999999999,2.5,-13.22
17.50248205661774,3,3,3,3,-15.02,7.59,-0.87,-12.28,3.83,-12.82
17.51248204708099,3,3,3,3,-14.17,7.85,-1.04,-12.28,3.83,-12.82
17.52248203754425,3,3,3,3,-12.03,6.08,-1.03,-15.23,5.62,-14.08
17.53248202800751,3,3,3,3,-11.04,6.07,-1.05,-11.2,7.18,-15.79
17.54248201847076,3,3,3,3,-10.97,5.85,-1.25,-7.88,7.2,-15.99
17.55248200893402,3,3,3,3,-10.19,4.99,-1.35,-3.91,6.85,-17.66
17.56248199939728,3,3,3,3,-10,4.66,-1.24,-3.91,6.85,-17.66
17.57248198986053,3,3,3,3,-10.06,4.34,-1,0.79,6.38,-18.99
17.58248198032379,3,3,3,3,-9.99,4.07,-0.75,11.63,5.22,-19.04
17.59248197078705,3,3,3,3,-9.59,4.82,-1.12,13.73,3.53,-18.92
17.60248196125031,3,3,3,3,-8.07,5.49,-0.98,13.1,2.42,-20.53
17.61248195171356,3,3,3,3,-7.66,5.89,-0.9,13.1,2.42,-20.53
17.62248194217682,3,3,3,3,-7.97,6.3,-0.9,12.13,1.08,-21.28
17.63248193264008,3,3,3,3,-7.71,6.28,-0.99,11.33,-1.13,-21.4
17.64248192310333,3,3,3,3,-7.23,6.25,-1.11,10.96,-1.73,-21.55
17.65248191356659,3,3,3,3,-6.72,6.7,-1.24,10.84,-2.61,-21.5
17.66248190402985,3,3,3,3,-6.26,6.39,-0.8,10.84,-2.61,-21.5
17.6724818944931,3,3,3,3,-5.76,6.53,-1.11,12.08,-3.24,-21.34
17.68248188495636,3,3,3,3,-5.77,6.6,-0.93,12.35,-4.05,-20.75
17.69248187541962,3,3,3,3,-5.66,6.64,-0.95,11.66,-4.11,-20.81
17.70248186588287,3,3,3,3,-5.64,6.67,-0.7,10.51,-4.36,-20.48
17.71248185634613,3,3,3,3,-5.46,5.26,0.57,10.51,-4.36,-20.48
17.72248184680939,3,3,3,3,-5.68,4.98,0.8100000000000001,9.789999999999999,-4.39,-19.33
17.73248183727264,3,3,3,3,-6.02,4.59,0.66,5.52,-1.37,-15.21
17.7424818277359,3,3,3,3,-6.78,2.63,1.19,3.78,1.61,-11.81
17.75248205661774,3,3,3,3,-8.1,0,1.29,5.04,4.06,-10.17
17.76248204708099,3,3,3,3,-8.880000000000001,-0.88,1.28,5.04,4.06,-10.17
17.77248203754425,3,3,3,3,-9.369999999999999,-1.62,1.69,8.73,3.16,-10
17.78248202800751,3,3,3,3,-8.960000000000001,-1.84,1.82,13.45,4.05,-9.470000000000001
17.79248201847076,3,3,3,3,-8.970000000000001,-3.91,-0.19,11.85,3.97,-8.710000000000001
17.80248200893402,3,3,3,3,-9.779999999999999,-6.08,-0.19,11.68,-0.88,-7.37
17.81248199939728,3,3,3,3,-10.99,-8.109999999999999,0.23,11.68,-0.88,-7.37
17.82248198986053,3,3,3,3,-11.44,-9.199999999999999,0.88,14.35,-4.85,-6.39
17.83248198032379,3,3,3,3,-10.09,-12.44,0.32,16.72,-4.43,-6.05
17.84248197078705,3,3,3,3,-9.970000000000001,-11.87,1.05,18.14,-4.45,-5.41
17.85248196125031,3,3,3,3,-9.5,-9.539999999999999,2.25,16.79,-3.02,-5
17.86248195171356,3,3,3,3,-8.529999999999999,-7.31,1.81,16.79,-3.02,-5
17.87248194217682,3,3,3,3,-8.960000000000001,-4.01,0.34,14.64,-0.88,-4.97
17.88248193264008,3,3,3,3,-9.23,-2.6,0.55,10.78,1.86,-5.56
17.89248192310333,3,3,3,3,-8.880000000000001,-1.69,-0.05,12.43,1.77,-3.47
17.90248191356659,3,3,3,3,-10.4,0.75,-3.5,20.31,1.15,-0.93
17.91248190402985,3,3,3,3,-11.18,3.05,-2.37,20.31,1.15,-0.93
17.9224818944931,3,3,3,3,-10.09,3.31,1.14,20.42,-0.54,0.84
17.93248188495636,3,3,3,3,-10.9,-4.21,4.39,-0.44,0.38,5.07
17.94248187541962,3,3,3,3,-15.05,-11.95,6.77,7.44,2.63,6.37
17.95248186588287,3,3,3,3,-14.87,-7.22,5.87,13.76,4.65,5.17
17.96248185634613,3,3,3,3,-13.61,-3.9,5.78,13.76,4.65,5.17
17.97248184680939,3,3,3,3,-11.35,-2.11,3.11,13.46,5.67,4.35
17.98248183727264,3,3,3,3,-12.5,-0.37,-5.14,18.46,9.109999999999999,5.72
17.9924818277359,3,3,3,3,-11.14,4.4,-3.46,21.07,7.58,7.1
18.00248205661774,3,3,3,3,-8.66,9.35,-1.65,11.97,7.2,6.97
18.01248204708099,3,3,3,3,-7.26,8.94,-3.65,11.97,7.2,6.97
18.02248203754425,3,3,3,3,-7.72,3.68,-4.32,3.59,6.79,7.06
18.03248202800751,3,3,3,3,-8.380000000000001,3.91,-2.82,-4.99,5.25,9.34
18.04248201847076,3,3,3,3,-10.24,3.76,-2.03,-7.99,4.5,9.17
18.05348193645477,3,3,3,3,-11.77,3.03,-1.6,-9.300000000000001,3.99,7.64
18.06248199939728,3,3,3,3,-11.97,-0.78,-0.41,-9.300000000000001,3.99,7.64
18.07248198986053,3,3,3,3,-11.56,-1.21,-0.37,-7.53,3.79,6.73
18.08248198032379,3,3,3,3,-11.01,0.61,-0.68,-0.47,3.93,6.81
18.09248197078705,3,3,3,3,-10.5,1.6,-1.11,-1.15,3.81,6.39
18.10248196125031,3,3,3,3,-9.68,2.36,-2.17,-2.95,3.6,6.39
18.11348187923431,3,3,3,3,-9.91,2.02,-2.44,-2.95,3.6,6.39
18.12248194217682,3,3,3,3,-10.21,0.5,-2.44,-5.75,3.27,6.49
18.13348186016083,3,3,3,3,-10,-0.26,-1.88,-4.96,2.94,6.74
18.14348185062408,3,3,3,3,-9.9,0.16,-0.79,-4.38,2.63,6.47
18.15348184108734,3,3,3,3,-9.81,0,-0.49,-4.9,2.28,5.87
18.1634818315506,3,3,3,3,-9.720000000000001,-0.35,-0.48,-4.9,2.28,5.87
18.17348206043243,3,3,3,3,-9.82,-0.8,-0.72,-4.93,2.01,5.63
18.18348205089569,3,3,3,3,-9.83,-1.48,-1.23,-5.67,1.88,4.62
18.19348204135895,3,3,3,3,-9.49,-1.72,-1.46,-5.38,1.69,4.77
18.2034820318222,3,3,3,3,-9.31,-1.85,-1.47,-4.79,1.63,5.06
18.21348202228546,3,3,3,3,-9.27,-1.68,-1.3,-4.79,1.63,5.06
18.22348201274872,3,3,3,3,-9.52,-1,-0.9,-3.8,1.43,5.02
18.23348200321198,3,3,3,3,-9.51,0.04,-0.98,-2.18,0.8100000000000001,5.33
18.24348199367523,3,3,3,3,-9.51,0.04,-0.98,-1.83,0.71,5.52
18.25348198413849,3,3,3,3,-8.84,-0.27,-1.06,-1.47,0.65,5.56
18.26348197460175,3,3,3,3,-8.630000000000001,-0.57,-0.97,-1.47,0.65,5.56
18.273481965065,3,3,3,3,-8.57,-0.45,-1.2,-0.21,0.85,5.73
18.28348195552826,3,3,3,3,-10.1,-0.62,-1.78,1.07,1.16,6.24
18.29348194599152,3,3,3,3,-10.33,-0.03,-1.17,1.91,1.15,5.95
18.30348193645477,3,3,3,3,-10.3,0.08,-0.58,2.08,1.03,5.96
18.31348192691803,3,3,3,3,-10.3,0.08,-0.58,2.08,1.03,5.96
18.32348191738129,3,3,3,3,-10.23,-0.17,-0.15,1.67,0.77,6.25
18.33348190784454,3,3,3,3,-10.18,-0.23,-0.64,1.56,0.48,5.85
18.3434818983078,3,3,3,3,-9.960000000000001,0.68,-0.75,2.96,0.46,5.51
18.35348188877106,3,3,3,3,-9.609999999999999,1.2,-0.9,2.95,0.34,5.67
18.36348187923431,3,3,3,3,-9.609999999999999,1.2,-0.9,2.95,0.34,5.67
18.37348186969757,3,3,3,3,-9.380000000000001,0.66,-0.78,1.39,0.4,6.11
18.38348186016083,3,3,3,3,-9.06,-1.3,-0.64,-1.77,0.2,5.98
18.39348185062408,3,3,3,3,-9.369999999999999,-2.17,-0.67,-2.09,0.3,5.56
18.40348184108734,3,3,3,3,-10.32,-1.95,0.11,-1.45,0.32,5.29
18.4134818315506,3,3,3,3,-10.32,-1.95,0.11,-1.4,0.39,4.94
18.42348206043243,3,3,3,3,-10.4,-1.93,0.07000000000000001,-1.76,0.21,4.62
18.43348205089569,3,3,3,3,-10.21,-1.84,-0.74,-1.49,-0.08,4.53
18.44348204135895,3,3,3,3,-9.52,-2.06,-1.54,-1.3,-0.35,4.34
18.4534820318222,3,3,3,3,-9.51,-2.46,-1.73,-1.35,-0.33,4.22
18.46348202228546,3,3,3,3,-9.51,-2.46,-1.73,-1.35,-0.33,4.22
18.47348201274872,3,3,3,3,-9.710000000000001,-2.38,-1.83,-0.77,-0.2,4.07
18.48348200321198,3,3,3,3,-9.9,-2.04,-0.76,-1.66,0.09,4.39
18.49348199367523,3,3,3,3,-9.69,-2.29,-0.72,-3.04,-0.15,4.91
18.50348198413849,3,3,3,3,-10.23,-2.28,-0.8,-3.84,-0.43,5.36
18.51348197460175,3,3,3,3,-10.23,-2.28,-0.8,-3.84,-0.43,5.36
18.523481965065,3,3,3,3,-10.51,-2.96,-1.05,-4.71,-0.73,4.82
18.53348195552826,3,3,3,3,-9.31,-4.68,-2.02,-3.66,-0.5,3.78
18.54348194599152,3,3,3,3,-9.18,-4.52,-1.76,-2.78,-0.26,3.9
18.55348193645477,3,3,3,3,-9.44,-3.93,-1.34,-2.63,-0.06,3.99
18.56348192691803,3,3,3,3,-9.44,-3.93,-1.34,-2.63,-0.06,3.99
18.57348191738129,3,3,3,3,-9.449999999999999,-3.61,-0.07000000000000001,-3,-0.11,3.6
18.58348190784454,3,3,3,3,-9.289999999999999,-4.21,0.72,-3.93,-0.86,3.01
18.5934818983078,3,3,3,3,-9.630000000000001,-4.13,1.01,-2.11,-1.28,2.3
18.60348188877106,3,3,3,3,-9.1,-1.56,2.01,-0.31,-1.49,1.37
18.61348187923431,3,3,3,3,-9.1,-1.56,2.01,-0.31,-1.49,1.37
18.62348186969757,3,3,3,3,-9.33,-1.01,1.99,-1.33,-1.25,1.05
18.63348186016083,3,3,3,3,-10.17,0.47,1.22,-4.46,-1.64,0.33
18.64348185062408,3,3,3,3,-10.66,0.54,1.31,-7.74,-2.4,-0.33
18.65348184108734,3,3,3,3,-10.95,-0.21,1.16,-11.67,-3.45,-0.21
18.6634818315506,3,3,3,3,-10.95,-0.21,1.16,-11.67,-3.45,-0.21
18.67348206043243,3,3,3,3,-11.48,-1.27,1.28,-12.08,-5.22,-1.45
18.68348205089569,3,3,3,3,-11.48,0.04,1.47,-10.56,-5.79,-1.77
