timestamp,magCalib,accCalib,gyrCalib,sysCalib,accX,accY,accZ,gyrX,gyrY,gyrZ
timestamp,magCalib,accCalib,gyrCalib,sysCalib,accX,accY,accZ,gyrX,gyrY,gyrZ
0.05153489112854004,2,3,3,2,-9.49,1.22,-2.05,0.01,-0.06,-0.09
0.05153489112854004,2,3,3,2,-9.49,1.22,-2.05,0.01,-0.06,-0.09
0.07153511047363281,2,3,3,2,-9.48,1.22,-1.99,0.2,0.01,-0.09
0.07153511047363281,2,3,3,2,-9.48,1.22,-1.99,0.2,0.01,-0.09
0.09153509140014648,2,3,3,2,-9.49,1.28,-2.08,0.4,0.05,-0.09
0.09153509140014648,2,3,3,2,-9.49,1.28,-2.08,0.4,0.05,-0.09
0.1115350723266602,2,3,3,2,-9.52,1.34,-1.98,0.52,-0.03,0.01
0.1115350723266602,2,3,3,2,-9.52,1.34,-1.98,0.52,-0.03,0.01
0.1315350532531738,2,3,3,2,-9.52,1.33,-2.1,0.52,-0.01,0.03
0.1315350532531738,2,3,3,2,-9.52,1.33,-2.1,0.52,-0.01,0.03
0.1515350341796875,2,3,3,2,-9.4,1.37,-2.09,0.42,0.03,0.02
0.1515350341796875,2,3,3,2,-9.4,1.37,-2.09,0.42,0.03,0.02
0.1715350151062012,2,3,3,2,-9.460000000000001,1.32,-2.05,0.32,-0.01,0
0.1715350151062012,2,3,3,2,-9.460000000000001,1.32,-2.05,0.32,-0.01,0
0.1915349960327148,2,3,3,2,-9.48,1.32,-2.08,0.29,-0.07000000000000001,-0.01
0.1915349960327148,2,3,3,2,-9.48,1.32,-2.08,0.29,-0.07000000000000001,-0.01
0.2115349769592285,2,3,3,2,-9.5,1.26,-2,0.22,-0.08,0
0.2115349769592285,2,3,3,2,-9.5,1.26,-2,0.22,-0.08,0
0.2315349578857422,2,3,3,2,-9.460000000000001,1.2,-2.12,0.35,-0.03,-0.04
0.2315349578857422,2,3,3,2,-9.460000000000001,1.2,-2.12,0.35,-0.03,-0.04
0.2515349388122559,2,3,3,2,-9.529999999999999,1.25,-2,0.59,-0.04,-0.03
0.2515349388122559,2,3,3,2,-9.529999999999999,1.25,-2,0.59,-0.04,-0.03
0.2715349197387695,2,3,3,2,-9.539999999999999,1.27,-2.04,0.76,-0.04,0.01
0.2715349197387695,2,3,3,2,-9.539999999999999,1.27,-2.04,0.76,-0.04,0.01
0.2915349006652832,2,3,3,2,-9.41,1.38,-2.09,0.66,-0.1,-0.05
0.2915349006652832,2,3,3,2,-9.41,1.38,-2.09,0.66,-0.1,-0.05
0.3115348815917969,2,3,3,2,-9.42,1.44,-2.09,0.55,-0.03,-0.13
0.3115348815917969,2,3,3,2,-9.42,1.44,-2.09,0.55,-0.03,-0.13
0.3315351009368896,2,3,3,2,-9.41,1.47,-2.19,0.34,-0.12,-0.17
0.3315351009368896,2,3,3,2,-9.41,1.47,-2.19,0.34,-0.12,-0.17
0.3515350818634033,2,3,3,2,-9.51,1.44,-2.12,0.08,-0.06,-0.23
0.3515350818634033,2,3,3,2,-9.51,1.44,-2.12,0.08,-0.06,-0.23
0.371535062789917,2,3,3,2,-9.48,1.39,-2.02,-0.06,-0.06,-0.24
0.371535062789917,2,3,3,2,-9.48,1.39,-2.02,-0.06,-0.06,-0.24
0.3915350437164307,2,3,3,2,-9.460000000000001,1.33,-2.11,-0.1,-0.1,-0.33
0.3915350437164307,2,3,3,2,-9.460000000000001,1.33,-2.11,-0.1,-0.1,-0.33
0.4115350246429443,2,3,3,2,-9.49,1.41,-2.12,-0.06,-0.14,-0.44
0.4115350246429443,2,3,3,2,-9.49,1.41,-2.12,-0.06,-0.14,-0.44
0.431535005569458,2,3,3,2,-9.42,1.5,-2.22,-0.1,-0.07000000000000001,-0.49
0.431535005569458,2,3,3,2,-9.42,1.5,-2.22,-0.1,-0.07000000000000001,-0.49
0.4515349864959717,2,3,3,2,-9.449999999999999,1.54,-2.18,-0.22,-0.12,-0.53
0.4515349864959717,2,3,3,2,-9.449999999999999,1.54,-2.18,-0.22,-0.12,-0.53
0.4715349674224854,2,3,3,2,-9.43,1.48,-2.12,-0.4,-0.24,-0.59
0.4715349674224854,2,3,3,2,-9.43,1.48,-2.12,-0.4,-0.24,-0.59
0.491534948348999,2,3,3,2,-9.43,1.43,-2.12,-0.49,-0.33,-0.7
0.491534948348999,2,3,3,2,-9.43,1.43,-2.12,-0.49,-0.33,-0.7
0.5115349292755127,2,3,3,2,-9.48,1.44,-2.11,-0.65,-0.24,-0.82
0.5115349292755127,2,3,3,2,-9.48,1.44,-2.11,-0.65,-0.24,-0.82
0.5315349102020264,2,3,3,2,-9.449999999999999,1.47,-2.22,-0.78,-0.11,-0.95
0.5315349102020264,2,3,3,2,-9.449999999999999,1.47,-2.22,-0.78,-0.11,-0.95
0.55153489112854,2,3,3,2,-9.42,1.42,-2.12,-0.9,-0.16,-0.98
0.55153489112854,2,3,3,2,-9.42,1.42,-2.12,-0.9,-0.16,-0.98
0.5715351104736328,2,3,3,2,-9.470000000000001,1.31,-2.05,-0.82,-0.31,-0.97
0.5715351104736328,2,3,3,2,-9.470000000000001,1.31,-2.05,-0.82,-0.31,-0.97
0.5915350914001465,2,3,3,2,-9.51,1.28,-2.12,-0.75,-0.29,-0.99
0.5915350914001465,2,3,3,2,-9.51,1.28,-2.12,-0.75,-0.29,-0.99
0.6115350723266602,2,3,3,2,-9.41,1.17,-2.01,-0.73,-0.21,-1.04
0.6115350723266602,2,3,3,2,-9.41,1.17,-2.01,-0.73,-0.21,-1.04
0.6325349807739258,2,3,3,2,-9.49,1.09,-2.07,-0.5,-0.29,-1.08
0.6325349807739258,2,3,3,2,-9.49,1.09,-2.07,-0.5,-0.29,-1.08
0.6525349617004395,2,3,3,2,-9.57,1.11,-1.96,-0.19,-0.35,-1.04
0.6525349617004395,2,3,3,2,-9.57,1.11,-1.96,-0.19,-0.35,-1.04
0.6725349426269531,2,3,3,2,-9.539999999999999,1.11,-2.01,0.04,-0.27,-1.01
0.6725349426269531,2,3,3,2,-9.539999999999999,1.11,-2.01,0.04,-0.27,-1.01
0.6925349235534668,2,3,3,2,-9.449999999999999,1.12,-2.01,0.22,-0.25,-0.97
0.6925349235534668,2,3,3,2,-9.449999999999999,1.12,-2.01,0.22,-0.25,-0.97
0.7125349044799805,2,3,3,2,-9.51,1.09,-1.88,0.33,-0.24,-0.9399999999999999
0.7125349044799805,2,3,3,2,-9.51,1.09,-1.88,0.33,-0.24,-0.9399999999999999
0.7325348854064941,2,3,3,2,-9.57,1.02,-1.97,0.33,-0.27,-0.93
0.7325348854064941,2,3,3,2,-9.57,1.02,-1.97,0.33,-0.27,-0.93
0.7525351047515869,2,3,3,2,-9.52,0.87,-1.83,0.3,-0.05,-0.88
0.7525351047515869,2,3,3,2,-9.52,0.87,-1.83,0.3,-0.05,-0.88
0.7725350856781006,2,3,3,2,-9.68,0.62,-1.7,0.11,-0.18,-0.91
0.7725350856781006,2,3,3,2,-9.68,0.62,-1.7,0.11,-0.18,-0.91
0.7925350666046143,2,3,3,2,-9.640000000000001,0.5600000000000001,-1.76,-0.08,-0.31,-1.06
0.7925350666046143,2,3,3,2,-9.640000000000001,0.5600000000000001,-1.76,-0.08,-0.31,-1.06
0.8125350475311279,2,3,3,2,-9.529999999999999,0.51,-1.76,-0.13,-0.18,-1.11
0.8125350475311279,2,3,3,2,-9.529999999999999,0.51,-1.76,-0.13,-0.18,-1.11
0.8325350284576416,2,3,3,2,-9.619999999999999,0.57,-1.81,-0.1,-0.06,-0.98
0.8325350284576416,2,3,3,2,-9.619999999999999,0.57,-1.81,-0.1,-0.06,-0.98
0.8525350093841553,2,3,3,2,-9.539999999999999,0.59,-1.76,-0.2,-0.2,-0.8100000000000001
0.8525350093841553,2,3,3,2,-9.539999999999999,0.59,-1.76,-0.2,-0.2,-0.8100000000000001
0.8725349903106689,2,3,3,2,-9.56,0.62,-1.83,-0.23,-0.21,-0.68
0.8725349903106689,2,3,3,2,-9.56,0.62,-1.83,-0.23,-0.21,-0.68
0.8925349712371826,2,3,3,2,-9.609999999999999,0.5600000000000001,-1.93,-0.1,-0.2,-0.59
0.8925349712371826,2,3,3,2,-9.609999999999999,0.5600000000000001,-1.93,-0.1,-0.2,-0.59
0.9125349521636963,2,3,3,2,-9.51,0.58,-1.78,0.17,-0.12,-0.6
0.9125349521636963,2,3,3,2,-9.51,0.58,-1.78,0.17,-0.12,-0.6
0.93253493309021,2,3,3,2,-9.6,0.42,-1.79,0.17,-0.11,-0.44
0.93253493309021,2,3,3,2,-9.6,0.42,-1.79,0.17,-0.11,-0.44
0.9525349140167236,2,3,3,2,-9.66,0.55,-1.87,0.25,-0.06,-0.36
0.9525349140167236,2,3,3,2,-9.66,0.55,-1.87,0.25,-0.06,-0.36
0.9725348949432373,2,3,3,2,-9.529999999999999,0.44,-1.75,0.33,-0.08,-0.34
0.9725348949432373,2,3,3,2,-9.529999999999999,0.44,-1.75,0.33,-0.08,-0.34
0.992534875869751,2,3,3,2,-9.59,0.46,-1.8,0.44,-0.14,-0.24
0.992534875869751,2,3,3,2,-9.59,0.46,-1.8,0.44,-0.14,-0.24
1.012535095214844,2,3,3,2,-9.630000000000001,0.55,-1.73,0.31,-0.1,-0.2
1.012535095214844,2,3,3,2,-9.630000000000001,0.55,-1.73,0.31,-0.1,-0.2
1.032535076141357,2,3,3,2,-9.56,0.64,-1.89,0.11,0.05,-0.22
1.032535076141357,2,3,3,2,-9.56,0.64,-1.89,0.11,0.05,-0.22
1.052535057067871,2,3,3,2,-9.59,0.67,-1.9,0.08,0.12,-0.18
1.052535057067871,2,3,3,2,-9.59,0.67,-1.9,0.08,0.12,-0.18
1.072535037994385,2,3,3,2,-9.539999999999999,0.66,-2,0.26,-0.06,-0.12
1.072535037994385,2,3,3,2,-9.539999999999999,0.66,-2,0.26,-0.06,-0.12
1.092535018920898,2,3,3,2,-9.539999999999999,0.86,-2.01,0.33,0.02,-0.01
1.092535018920898,2,3,3,2,-9.539999999999999,0.86,-2.01,0.33,0.02,-0.01
1.112534999847412,2,3,3,2,-9.609999999999999,0.77,-1.9,0.23,0.03,0.07000000000000001
1.112534999847412,2,3,3,2,-9.609999999999999,0.77,-1.9,0.23,0.03,0.07000000000000001
1.132534980773926,2,3,3,2,-9.550000000000001,0.73,-2.01,0.18,0.06,-0.01
1.132534980773926,2,3,3,2,-9.550000000000001,0.73,-2.01,0.18,0.06,-0.01
1.152534961700439,2,3,3,2,-9.539999999999999,0.7,-1.85,0.14,0.04,-0.03
1.152534961700439,2,3,3,2,-9.539999999999999,0.7,-1.85,0.14,0.04,-0.03
1.172534942626953,2,3,3,2,-9.619999999999999,0.71,-1.86,0.12,-0.05,-0.08
1.172534942626953,2,3,3,2,-9.619999999999999,0.71,-1.86,0.12,-0.05,-0.08
1.192534923553467,2,3,3,2,-9.57,0.6899999999999999,-1.93,-0.05,0.04,-0.22
1.192534923553467,2,3,3,2,-9.57,0.6899999999999999,-1.93,-0.05,0.04,-0.22
1.21253490447998,2,3,3,2,-9.58,0.62,-1.83,-0.2,-0.04,-0.36
1.21253490447998,2,3,3,2,-9.58,0.62,-1.83,-0.2,-0.04,-0.36
1.232534885406494,2,3,3,2,-9.550000000000001,0.8,-2.01,-0.3,0.04,-0.41
1.232534885406494,2,3,3,2,-9.550000000000001,0.8,-2.01,-0.3,0.04,-0.41
1.252535104751587,2,3,3,2,-9.59,0.83,-1.98,-0.32,0.01,-0.41
1.252535104751587,2,3,3,2,-9.59,0.83,-1.98,-0.32,0.01,-0.41
1.272535085678101,2,3,3,2,-9.51,0.83,-2,-0.33,0.01,-0.28
1.272535085678101,2,3,3,2,-9.51,0.83,-2,-0.33,0.01,-0.28
1.292535066604614,2,3,3,2,-9.529999999999999,0.8100000000000001,-1.96,-0.16,0.01,-0.19
1.292535066604614,2,3,3,2,-9.529999999999999,0.8100000000000001,-1.96,-0.16,0.01,-0.19
1.312535047531128,2,3,3,2,-9.6,0.83,-1.86,0.05,0.05,0
1.312535047531128,2,3,3,2,-9.6,0.83,-1.86,0.05,0.05,0
1.332535028457642,2,3,3,2,-9.52,0.78,-1.92,0.11,0.08,0.03
1.332535028457642,2,3,3,2,-9.52,0.78,-1.92,0.11,0.08,0.03
1.352535009384155,2,3,3,2,-9.56,0.67,-1.86,0.15,0.14,0
1.352535009384155,2,3,3,2,-9.56,0.67,-1.86,0.15,0.14,0
1.372534990310669,2,3,3,2,-9.59,0.75,-1.89,0.07000000000000001,0.01,0.03
1.372534990310669,2,3,3,2,-9.59,0.75,-1.89,0.07000000000000001,0.01,0.03
1.392534971237183,2,3,3,2,-9.529999999999999,0.82,-1.95,0.11,0.06,0.01
1.392534971237183,2,3,3,2,-9.529999999999999,0.82,-1.95,0.11,0.06,0.01
1.412534952163696,2,3,3,2,-9.56,0.77,-1.83,0.01,0.04,0.04
1.412534952163696,2,3,3,2,-9.56,0.77,-1.83,0.01,0.04,0.04
1.43253493309021,2,3,3,2,-9.57,0.8,-1.98,-0.04,0.12,0.03
1.43253493309021,2,3,3,2,-9.57,0.8,-1.98,-0.04,0.12,0.03
1.452534914016724,2,3,3,2,-9.57,0.77,-1.86,-0.21,0.11,-0.01
1.452534914016724,2,3,3,2,-9.57,0.77,-1.86,-0.21,0.11,-0.01
1.472534894943237,2,3,3,2,-9.58,0.73,-1.86,-0.12,0.11,-0.01
1.472534894943237,2,3,3,2,-9.58,0.73,-1.86,-0.12,0.11,-0.01
1.492534875869751,2,3,3,2,-9.57,0.77,-2,-0.08,0.06,0.01
1.492534875869751,2,3,3,2,-9.57,0.77,-2,-0.08,0.06,0.01
1.512535095214844,2,3,3,2,-9.550000000000001,0.8,-1.93,-0.02,0.06,0.03
1.512535095214844,2,3,3,2,-9.550000000000001,0.8,-1.93,-0.02,0.06,0.03
1.532535076141357,2,3,3,2,-9.52,0.74,-2.01,-0.02,0.13,0.04
1.532535076141357,2,3,3,2,-9.52,0.74,-2.01,-0.02,0.13,0.04
1.553534984588623,2,3,3,2,-9.539999999999999,0.74,-1.93,0.04,0.08,0.11
1.553534984588623,2,3,3,2,-9.539999999999999,0.74,-1.93,0.04,0.08,0.11
1.572535037994385,2,3,3,2,-9.630000000000001,0.76,-1.85,0.04,0.02,0.14
1.572535037994385,2,3,3,2,-9.630000000000001,0.76,-1.85,0.04,0.02,0.14
1.592535018920898,2,3,3,2,-9.529999999999999,0.73,-1.92,0.01,0.11,0.14
1.592535018920898,2,3,3,2,-9.529999999999999,0.73,-1.92,0.01,0.11,0.14
1.613534927368164,2,3,3,2,-9.539999999999999,0.8100000000000001,-1.91,-0.12,0.12,0.17
1.613534927368164,2,3,3,2,-9.539999999999999,0.8100000000000001,-1.91,-0.12,0.12,0.17
1.632534980773926,2,3,3,2,-9.58,0.79,-2.05,-0.19,0.1,0.21
1.632534980773926,2,3,3,2,-9.58,0.79,-2.05,-0.19,0.1,0.21
1.653534889221191,2,3,3,2,-9.52,0.83,-1.93,-0.1,0.03,0.15
1.653534889221191,2,3,3,2,-9.52,0.83,-1.93,-0.1,0.03,0.15
1.673535108566284,2,3,3,2,-9.529999999999999,0.88,-2.01,-0.09,0.12,0.24
1.673535108566284,2,3,3,2,-9.529999999999999,0.88,-2.01,-0.09,0.12,0.24
1.693535089492798,2,3,3,2,-9.51,0.74,-1.99,-0.18,0.1,0.27
1.693535089492798,2,3,3,2,-9.51,0.74,-1.99,-0.18,0.1,0.27
1.713535070419312,2,3,3,2,-9.539999999999999,0.64,-1.93,-0.14,0.08,0.25
1.713535070419312,2,3,3,2,-9.539999999999999,0.64,-1.93,-0.14,0.08,0.25
1.733535051345825,2,3,3,2,-9.619999999999999,0.75,-2.02,-0.04,0.11,0.24
1.733535051345825,2,3,3,2,-9.619999999999999,0.75,-2.02,-0.04,0.11,0.24
1.753535032272339,2,3,3,2,-9.539999999999999,0.75,-1.98,-0.07000000000000001,0.01,0.22
1.753535032272339,2,3,3,2,-9.539999999999999,0.75,-1.98,-0.07000000000000001,0.01,0.22
1.773535013198853,2,3,3,2,-9.51,0.89,-2.05,-0.05,0.05,0.29
1.773535013198853,2,3,3,2,-9.51,0.89,-2.05,-0.05,0.05,0.29
1.793534994125366,2,3,3,2,-9.56,0.83,-2.08,-0.11,0,0.27
1.793534994125366,2,3,3,2,-9.56,0.83,-2.08,-0.11,0,0.27
1.81353497505188,2,3,3,2,-9.539999999999999,0.78,-1.97,-0.02,-0.03,0.28
1.81353497505188,2,3,3,2,-9.539999999999999,0.78,-1.97,-0.02,-0.03,0.28
1.833534955978394,2,3,3,2,-9.51,0.71,-2.01,0.07000000000000001,0.01,0.2
1.833534955978394,2,3,3,2,-9.51,0.71,-2.01,0.07000000000000001,0.01,0.2
1.853534936904907,2,3,3,2,-9.619999999999999,0.76,-1.87,0.13,-0.03,0.27
1.853534936904907,2,3,3,2,-9.619999999999999,0.76,-1.87,0.13,-0.03,0.27
1.873534917831421,2,3,3,2,-9.550000000000001,0.82,-1.94,0.14,0.12,0.2
1.873534917831421,2,3,3,2,-9.550000000000001,0.82,-1.94,0.14,0.12,0.2
1.893534898757935,2,3,3,2,-9.51,0.79,-1.97,0.08,0.05,0.16
1.893534898757935,2,3,3,2,-9.51,0.79,-1.97,0.08,0.05,0.16
1.913534879684448,2,3,3,2,-9.52,0.8,-1.98,0.18,-0.04,0.15
1.913534879684448,2,3,3,2,-9.52,0.8,-1.98,0.18,-0.04,0.15
1.933535099029541,2,3,3,2,-9.619999999999999,0.87,-2.03,0.21,-0.09,0.24
1.933535099029541,2,3,3,2,-9.619999999999999,0.87,-2.03,0.21,-0.09,0.24
1.953535079956055,2,3,3,2,-9.539999999999999,0.87,-1.95,0.18,-0.01,0.16
1.953535079956055,2,3,3,2,-9.539999999999999,0.87,-1.95,0.18,-0.01,0.16
1.973535060882568,2,3,3,2,-9.51,0.78,-1.92,0.12,-0.02,0.14
1.973535060882568,2,3,3,2,-9.51,0.78,-1.92,0.12,-0.02,0.14
1.993535041809082,2,3,3,2,-9.550000000000001,0.89,-2.02,0.1,-0.06,0.1
1.993535041809082,2,3,3,2,-9.550000000000001,0.89,-2.02,0.1,-0.06,0.1
2.013535022735596,2,3,3,2,-9.56,0.9399999999999999,-1.98,0.14,-0.08,0.14
2.013535022735596,2,3,3,2,-9.56,0.9399999999999999,-1.98,0.14,-0.08,0.14
2.033535003662109,2,3,3,2,-9.51,0.95,-2.03,0.14,-0.07000000000000001,0.12
2.033535003662109,2,3,3,2,-9.51,0.95,-2.03,0.14,-0.07000000000000001,0.12
2.053534984588623,2,3,3,2,-9.550000000000001,0.83,-2,0.08,0.03,0.11
2.053534984588623,2,3,3,2,-9.550000000000001,0.83,-2,0.08,0.03,0.11
2.073534965515137,2,3,3,2,-9.56,0.83,-1.95,0.11,0,0
2.073534965515137,2,3,3,2,-9.56,0.83,-1.95,0.11,0,0
2.09353494644165,2,3,3,2,-9.56,0.83,-2,0.02,-0.11,-0.05
2.09353494644165,2,3,3,2,-9.56,0.83,-2,0.02,-0.11,-0.05
2.113534927368164,2,3,3,2,-9.529999999999999,0.87,-1.87,0.05,-0.01,-0.06
2.113534927368164,2,3,3,2,-9.529999999999999,0.87,-1.87,0.05,-0.01,-0.06
2.133534908294678,2,3,3,2,-9.550000000000001,0.83,-2.03,0.08,0.01,-0.09
2.133534908294678,2,3,3,2,-9.550000000000001,0.83,-2.03,0.08,0.01,-0.09
2.153534889221191,2,3,3,2,-9.539999999999999,0.84,-1.92,0.01,-0.06,-0.15
2.153534889221191,2,3,3,2,-9.539999999999999,0.84,-1.92,0.01,-0.06,-0.15
2.173535108566284,2,3,3,2,-9.6,0.71,-1.8,-0.06,-0.03,-0.25
2.173535108566284,2,3,3,2,-9.6,0.71,-1.8,-0.06,-0.03,-0.25
2.193535089492798,2,3,3,2,-9.58,0.78,-1.89,-0.19,0.01,-0.28
2.193535089492798,2,3,3,2,-9.58,0.78,-1.89,-0.19,0.01,-0.28
2.213535070419312,2,3,3,2,-9.51,0.88,-1.91,-0.33,0.04,-0.37
2.213535070419312,2,3,3,2,-9.51,0.88,-1.91,-0.33,0.04,-0.37
2.233535051345825,2,3,3,2,-9.51,0.99,-2.05,-0.15,0.09,-0.22
2.233535051345825,2,3,3,2,-9.51,0.99,-2.05,-0.15,0.09,-0.22
2.253535032272339,2,3,3,2,-9.52,1.04,-1.98,-0.06,0.05,-0.07000000000000001
2.253535032272339,2,3,3,2,-9.52,1.04,-1.98,-0.06,0.05,-0.07000000000000001
2.273535013198853,2,3,3,2,-9.529999999999999,0.93,-2.03,-0.09,0.07000000000000001,0.02
2.273535013198853,2,3,3,2,-9.529999999999999,0.93,-2.03,-0.09,0.07000000000000001,0.02
2.293534994125366,2,3,3,2,-9.58,0.8100000000000001,-1.96,-0.14,0.03,-0.03
2.293534994125366,2,3,3,2,-9.58,0.8100000000000001,-1.96,-0.14,0.03,-0.03
2.31353497505188,2,3,3,2,-9.59,0.77,-1.84,-0.13,0.16,-0.04
2.31353497505188,2,3,3,2,-9.59,0.77,-1.84,-0.13,0.16,-0.04
2.333534955978394,2,3,3,2,-9.59,0.7,-1.95,-0.23,0.15,-0.09
2.333534955978394,2,3,3,2,-9.59,0.7,-1.95,-0.23,0.15,-0.09
2.353534936904907,2,3,3,2,-9.51,0.8100000000000001,-1.95,-0.13,0.04,-0.08
2.353534936904907,2,3,3,2,-9.51,0.8100000000000001,-1.95,-0.13,0.04,-0.08
2.373534917831421,2,3,3,2,-9.56,0.84,-1.88,-0.06,0.06,-0.04
2.373534917831421,2,3,3,2,-9.56,0.84,-1.88,-0.06,0.06,-0.04
2.393534898757935,2,3,3,2,-9.58,0.97,-1.99,-0.14,0.13,0.08
2.393534898757935,2,3,3,2,-9.58,0.97,-1.99,-0.14,0.13,0.08
2.413534879684448,2,3,3,2,-9.539999999999999,0.87,-1.97,-0.26,0.19,0.05
2.413534879684448,2,3,3,2,-9.539999999999999,0.87,-1.97,-0.26,0.19,0.05
2.433535099029541,2,3,3,2,-9.51,0.74,-2.11,-0.31,0.15,0.01
2.433535099029541,2,3,3,2,-9.51,0.74,-2.11,-0.31,0.15,0.01
2.453535079956055,2,3,3,2,-9.56,0.75,-1.99,-0.16,0.08,-0.04
2.453535079956055,2,3,3,2,-9.56,0.75,-1.99,-0.16,0.08,-0.04
2.473535060882568,2,3,3,2,-9.529999999999999,0.96,-2.01,-0.09,0.09,0.07000000000000001
2.473535060882568,2,3,3,2,-9.529999999999999,0.96,-2.01,-0.09,0.09,0.07000000000000001
2.493535041809082,2,3,3,2,-9.52,0.88,-2.04,-0.24,0.06,0.1
2.493535041809082,2,3,3,2,-9.52,0.88,-2.04,-0.24,0.06,0.1
2.513535022735596,2,3,3,2,-9.49,0.63,-2.02,-0.23,0.08,0.12
2.513535022735596,2,3,3,2,-9.49,0.63,-2.02,-0.23,0.08,0.12
2.533535003662109,2,3,3,2,-9.59,0.47,-2.06,-0.13,-0.05,0.2
2.533535003662109,2,3,3,2,-9.59,0.47,-2.06,-0.13,-0.05,0.2
2.553534984588623,2,3,3,2,-9.59,0.52,-1.98,-0.03,-0.17,0.22
2.553534984588623,2,3,3,2,-9.59,0.52,-1.98,-0.03,-0.17,0.22
2.573534965515137,2,3,3,2,-9.539999999999999,0.58,-2,0.07000000000000001,-0.16,0.22
2.573534965515137,2,3,3,2,-9.539999999999999,0.58,-2,0.07000000000000001,-0.16,0.22
2.59353494644165,2,3,3,2,-9.52,0.62,-2.1,0.34,-0.22,0.24
2.59353494644165,2,3,3,2,-9.52,0.62,-2.1,0.34,-0.22,0.24
2.613534927368164,2,3,3,2,-9.52,0.76,-1.96,0.58,-0.1,0.35
2.613534927368164,2,3,3,2,-9.52,0.76,-1.96,0.58,-0.1,0.35
2.634535074234009,2,3,3,2,-9.56,0.87,-2.06,0.7,-0.11,0.42
2.634535074234009,2,3,3,2,-9.56,0.87,-2.06,0.7,-0.11,0.42
2.653534889221191,2,3,3,2,-9.59,0.92,-1.99,0.66,-0.11,0.44
2.653534889221191,2,3,3,2,-9.59,0.92,-1.99,0.66,-0.11,0.44
2.674535036087036,2,3,3,2,-9.51,0.87,-1.96,0.53,-0.17,0.37
2.674535036087036,2,3,3,2,-9.51,0.87,-1.96,0.53,-0.17,0.37
2.69453501701355,2,3,3,2,-9.52,0.9,-1.99,0.41,-0.05,0.33
2.69453501701355,2,3,3,2,-9.52,0.9,-1.99,0.41,-0.05,0.33
2.714534997940063,2,3,3,2,-9.550000000000001,0.89,-1.78,0.24,-0.07000000000000001,0.27
2.714534997940063,2,3,3,2,-9.550000000000001,0.89,-1.78,0.24,-0.07000000000000001,0.27
2.734534978866577,2,3,3,2,-9.6,0.96,-1.93,0.07000000000000001,0.03,0.19
2.734534978866577,2,3,3,2,-9.6,0.96,-1.93,0.07000000000000001,0.03,0.19
2.754534959793091,2,3,3,2,-9.48,0.97,-1.94,-0.07000000000000001,-0.02,0.11
2.754534959793091,2,3,3,2,-9.48,0.97,-1.94,-0.07000000000000001,-0.02,0.11
2.774534940719604,2,3,3,2,-9.52,0.96,-1.97,-0.09,0.18,0.11
2.774534940719604,2,3,3,2,-9.52,0.96,-1.97,-0.09,0.18,0.11
2.794534921646118,2,3,3,2,-9.52,0.86,-1.94,-0.03,0.12,0.1
2.794534921646118,2,3,3,2,-9.52,0.86,-1.94,-0.03,0.12,0.1
2.814534902572632,2,3,3,2,-9.56,0.8100000000000001,-1.87,0.17,-0.03,0.09
2.814534902572632,2,3,3,2,-9.56,0.8100000000000001,-1.87,0.17,-0.03,0.09
2.834534883499146,2,3,3,2,-9.56,0.8100000000000001,-1.94,0.17,-0.02,0.13
2.834534883499146,2,3,3,2,-9.56,0.8100000000000001,-1.94,0.17,-0.02,0.13
2.854535102844238,2,3,3,2,-9.550000000000001,0.84,-1.86,0.14,0.17,0.12
2.854535102844238,2,3,3,2,-9.550000000000001,0.84,-1.86,0.14,0.17,0.12
2.874535083770752,2,3,3,2,-9.51,0.9,-1.93,0.16,0.13,0.13
2.874535083770752,2,3,3,2,-9.51,0.9,-1.93,0.16,0.13,0.13
2.894535064697266,2,3,3,2,-9.609999999999999,1.09,-2.06,0.19,0.13,0.22
2.894535064697266,2,3,3,2,-9.609999999999999,1.09,-2.06,0.19,0.13,0.22
2.914535045623779,2,3,3,2,-9.51,1.05,-2.04,0.2,0.1,0.28
2.914535045623779,2,3,3,2,-9.51,1.05,-2.04,0.2,0.1,0.28
2.934535026550293,2,3,3,2,-9.449999999999999,1.1,-2.1,0.24,0.25,0.36
2.934535026550293,2,3,3,2,-9.449999999999999,1.1,-2.1,0.24,0.25,0.36
2.954535007476807,2,3,3,2,-9.550000000000001,0.92,-1.99,0.14,0.22,0.4
2.954535007476807,2,3,3,2,-9.550000000000001,0.92,-1.99,0.14,0.22,0.4
2.97453498840332,2,3,3,2,-9.529999999999999,0.89,-2.01,0.07000000000000001,0.07000000000000001,0.37
2.97453498840332,2,3,3,2,-9.529999999999999,0.89,-2.01,0.07000000000000001,0.07000000000000001,0.37
2.994534969329834,2,3,3,2,-9.529999999999999,1.02,-2.11,0.14,0.07000000000000001,0.36
2.994534969329834,2,3,3,2,-9.529999999999999,1.02,-2.11,0.14,0.07000000000000001,0.36
3.014534950256348,2,3,3,2,-9.48,1.11,-2.01,0.28,0.09,0.36
3.014534950256348,2,3,3,2,-9.48,1.11,-2.01,0.28,0.09,0.36
3.034534931182861,2,3,3,2,-9.5,1.2,-2.2,0.42,0.1,0.46
3.034534931182861,2,3,3,2,-9.5,1.2,-2.2,0.42,0.1,0.46
3.054534912109375,2,3,3,2,-9.5,1.03,-2.01,0.29,-0.02,0.47
3.054534912109375,2,3,3,2,-9.5,1.03,-2.01,0.29,-0.02,0.47
3.094535112380981,2,3,3,2,-9.5,1.05,-2.06,-0.05,0.16,0.35
3.094535112380981,2,3,3,2,-9.5,1.05,-2.06,-0.05,0.16,0.35
3.114535093307495,2,3,3,2,-9.48,0.95,-2.03,-0.19,0.06,0.23
3.114535093307495,2,3,3,2,-9.48,0.95,-2.03,-0.19,0.06,0.23
3.134535074234009,2,3,3,2,-9.539999999999999,1.01,-2.08,-0.13,0.09,0.23
3.134535074234009,2,3,3,2,-9.539999999999999,1.01,-2.08,-0.13,0.09,0.23
3.154535055160522,2,3,3,2,-9.550000000000001,0.93,-2.01,-0.02,0.11,0.22
3.154535055160522,2,3,3,2,-9.550000000000001,0.93,-2.01,-0.02,0.11,0.22
3.174535036087036,2,3,3,2,-9.539999999999999,0.86,-2,-0.07000000000000001,0.02,0.16
3.174535036087036,2,3,3,2,-9.539999999999999,0.86,-2,-0.07000000000000001,0.02,0.16
3.19453501701355,2,3,3,2,-9.58,0.95,-2.14,0.06,-0.01,0.05
3.19453501701355,2,3,3,2,-9.58,0.95,-2.14,0.06,-0.01,0.05
3.214534997940063,2,3,3,2,-9.550000000000001,1.03,-2.1,0.24,0.08,-0.13
3.214534997940063,2,3,3,2,-9.550000000000001,1.03,-2.1,0.24,0.08,-0.13
3.234534978866577,2,3,3,2,-9.44,0.91,-2.19,0.28,-0.02,-0.16
3.234534978866577,2,3,3,2,-9.44,0.91,-2.19,0.28,-0.02,-0.16
3.254534959793091,2,3,3,2,-9.51,0.66,-1.89,0.17,-0.02,-0.22
3.254534959793091,2,3,3,2,-9.51,0.66,-1.89,0.17,-0.02,-0.22
3.274534940719604,2,3,3,2,-9.68,0.46,-1.78,0.2,-0.03,-0.37
3.274534940719604,2,3,3,2,-9.68,0.46,-1.78,0.2,-0.03,-0.37
3.294534921646118,2,3,3,2,-9.56,0.83,-1.85,0.08,-0.11,-0.61
3.294534921646118,2,3,3,2,-9.56,0.83,-1.85,0.08,-0.11,-0.61
3.314534902572632,2,3,3,2,-9.52,0.57,-1.83,-0.31,-0.08,-0.9399999999999999
3.314534902572632,2,3,3,2,-9.52,0.57,-1.83,-0.31,-0.08,-0.9399999999999999
3.334534883499146,2,3,3,2,-9.619999999999999,0.37,-2.04,-0.49,-0.16,-1.13
3.334534883499146,2,3,3,2,-9.619999999999999,0.37,-2.04,-0.49,-0.16,-1.13
3.354535102844238,2,3,3,2,-9.460000000000001,0.71,-1.91,-0.58,-0.39,-1.34
3.354535102844238,2,3,3,2,-9.460000000000001,0.71,-1.91,-0.58,-0.39,-1.34
3.374535083770752,2,3,3,2,-9.42,0.95,-2.07,-0.39,-0.19,-1.29
3.374535083770752,2,3,3,2,-9.42,0.95,-2.07,-0.39,-0.19,-1.29
3.394535064697266,2,3,3,2,-9.41,1.03,-2.15,-0.31,-0.31,-1.1
3.394535064697266,2,3,3,2,-9.41,1.03,-2.15,-0.31,-0.31,-1.1
3.414535045623779,2,3,3,2,-9.44,1.57,-2.27,-0.16,-0.18,-0.71
3.414535045623779,2,3,3,2,-9.44,1.57,-2.27,-0.16,-0.18,-0.71
3.434535026550293,2,3,3,2,-9.5,1.66,-2.42,-0.02,-0.1,-0.21
3.434535026550293,2,3,3,2,-9.5,1.66,-2.42,-0.02,-0.1,-0.21
3.454535007476807,2,3,3,2,-9.52,1.78,-2.39,0.04,-0.21,0.4
3.454535007476807,2,3,3,2,-9.52,1.78,-2.39,0.04,-0.21,0.4
3.47453498840332,2,3,3,2,-9.369999999999999,1.64,-2.36,0.1,-0.21,0.8
3.47453498840332,2,3,3,2,-9.369999999999999,1.64,-2.36,0.1,-0.21,0.8
3.494534969329834,2,3,3,2,-9.49,0.9,-1.97,0.5600000000000001,-0.06,1.2
3.494534969329834,2,3,3,2,-9.49,0.9,-1.97,0.5600000000000001,-0.06,1.2
3.514534950256348,2,3,3,2,-9.51,0.47,-1.65,0.51,-0.14,1.23
3.514534950256348,2,3,3,2,-9.51,0.47,-1.65,0.51,-0.14,1.23
3.534534931182861,2,3,3,2,-9.619999999999999,0.07000000000000001,-1.67,0.38,-0.06,0.83
3.534534931182861,2,3,3,2,-9.619999999999999,0.07000000000000001,-1.67,0.38,-0.06,0.83
3.554534912109375,2,3,3,2,-9.76,0.52,-1.73,0.31,-0.12,0.52
3.554534912109375,2,3,3,2,-9.76,0.52,-1.73,0.31,-0.12,0.52
3.574534893035889,2,3,3,2,-9.4,1.22,-2.04,0.11,0.01,0.43
3.574534893035889,2,3,3,2,-9.4,1.22,-2.04,0.11,0.01,0.43
3.594535112380981,2,3,3,2,-9.32,1.67,-2.42,-0.2,0.21,0.47
3.594535112380981,2,3,3,2,-9.32,1.67,-2.42,-0.2,0.21,0.47
3.614535093307495,2,3,3,2,-9.529999999999999,1.76,-2.25,-0.45,0.29,0.76
3.614535093307495,2,3,3,2,-9.529999999999999,1.76,-2.25,-0.45,0.29,0.76
3.634535074234009,2,3,3,2,-9.56,1.57,-2.12,-0.72,0.07000000000000001,1.01
3.634535074234009,2,3,3,2,-9.56,1.57,-2.12,-0.72,0.07000000000000001,1.01
3.654535055160522,2,3,3,2,-9.609999999999999,1.21,-1.97,-0.99,0.1,1.23
3.654535055160522,2,3,3,2,-9.609999999999999,1.21,-1.97,-0.99,0.1,1.23
3.674535036087036,2,3,3,2,-9.529999999999999,0.61,-2.1,-0.91,0,1.22
3.674535036087036,2,3,3,2,-9.529999999999999,0.61,-2.1,-0.91,0,1.22
3.69453501701355,2,3,3,2,-9.43,0.54,-1.99,-0.44,0.01,1.1
3.69453501701355,2,3,3,2,-9.43,0.54,-1.99,-0.44,0.01,1.1
3.715534925460815,2,3,3,2,-9.56,0.97,-1.91,0.41,0.14,1.16
3.715534925460815,2,3,3,2,-9.56,0.97,-1.91,0.41,0.14,1.16
3.735534906387329,2,3,3,2,-9.619999999999999,1.2,-2.23,0.83,0.14,1.15
3.735534906387329,2,3,3,2,-9.619999999999999,1.2,-2.23,0.83,0.14,1.15
3.755534887313843,2,3,3,2,-9.41,1.26,-2.02,0.5600000000000001,0.02,0.92
3.755534887313843,2,3,3,2,-9.41,1.26,-2.02,0.5600000000000001,0.02,0.92
3.775535106658936,2,3,3,2,-9.44,1.12,-1.87,0.17,0.04,0.88
3.775535106658936,2,3,3,2,-9.44,1.12,-1.87,0.17,0.04,0.88
3.795535087585449,2,3,3,2,-9.58,0.93,-1.95,-0.45,0.12,0.57
3.795535087585449,2,3,3,2,-9.58,0.93,-1.95,-0.45,0.12,0.57
3.815535068511963,2,3,3,2,-9.5,0.85,-1.82,-1.04,0.15,0.16
3.815535068511963,2,3,3,2,-9.5,0.85,-1.82,-1.04,0.15,0.16
3.835535049438477,2,3,3,2,-9.5,1.03,-2.03,-0.93,0.14,0.04
3.835535049438477,2,3,3,2,-9.5,1.03,-2.03,-0.93,0.14,0.04
3.85553503036499,2,3,3,2,-9.57,1.05,-2.11,-0.7,-0.04,0.09
3.85553503036499,2,3,3,2,-9.57,1.05,-2.11,-0.7,-0.04,0.09
3.875535011291504,2,3,3,2,-9.51,1.19,-2.14,0.03,-0.14,0.22
3.875535011291504,2,3,3,2,-9.51,1.19,-2.14,0.03,-0.14,0.22
3.895534992218018,2,3,3,2,-9.369999999999999,1.2,-2.13,0.29,-0.17,0.23
3.895534992218018,2,3,3,2,-9.369999999999999,1.2,-2.13,0.29,-0.17,0.23
3.915534973144531,2,3,3,2,-9.51,1.25,-1.93,0.5,-0.12,0.25
3.915534973144531,2,3,3,2,-9.51,1.25,-1.93,0.5,-0.12,0.25
3.935534954071045,2,3,3,2,-9.550000000000001,1.09,-2.09,0.65,-0.06,0.14
3.935534954071045,2,3,3,2,-9.550000000000001,1.09,-2.09,0.65,-0.06,0.14
3.955534934997559,2,3,3,3,-9.59,0.84,-1.81,0.5,-0.05,0.01
3.955534934997559,2,3,3,3,-9.59,0.84,-1.81,0.5,-0.05,0.01
3.975534915924072,2,3,3,3,-9.57,0,-1.53,0.51,0.01,-0.87
3.975534915924072,2,3,3,3,-9.57,0,-1.53,0.51,0.01,-0.87
3.995534896850586,2,3,3,3,-9.52,-1.17,-1.06,0.1,0.02,-1.81
3.995534896850586,2,3,3,3,-9.52,-1.17,-1.06,0.1,0.02,-1.81
4.0155348777771,2,3,3,3,-10.04,-1.12,-0.82,0.18,-0.11,-2.35
4.0155348777771,2,3,3,3,-10.04,-1.12,-0.82,0.18,-0.11,-2.35
4.035535097122192,2,3,3,3,-9.81,-0.47,-1.18,-0.89,-0.23,-3.61
4.035535097122192,2,3,3,3,-9.81,-0.47,-1.18,-0.89,-0.23,-3.61
4.055535078048706,2,3,3,3,-9.52,-0.87,-1.29,-0.72,-0.38,-3.78
4.055535078048706,2,3,3,3,-9.52,-0.87,-1.29,-0.72,-0.38,-3.78
4.07553505897522,2,3,3,3,-9.460000000000001,-0.74,-1.27,-0.06,-1.26,-4.5
4.07553505897522,2,3,3,3,-9.460000000000001,-0.74,-1.27,-0.06,-1.26,-4.5
4.095535039901733,2,3,3,3,-9.119999999999999,-0.22,-0.95,0.51,-1.21,-4.67
4.095535039901733,2,3,3,3,-9.119999999999999,-0.22,-0.95,0.51,-1.21,-4.67
4.115535020828247,2,3,3,3,-9.390000000000001,-0.38,-0.6899999999999999,0.72,-1.39,-5.03
4.115535020828247,2,3,3,3,-9.390000000000001,-0.38,-0.6899999999999999,0.72,-1.39,-5.03
4.135535001754761,2,3,3,3,-9.19,-0.84,-0.46,-1.21,-3.14,-5.58
4.135535001754761,2,3,3,3,-9.19,-0.84,-0.46,-1.21,-3.14,-5.58
4.155534982681274,2,3,3,3,-8.890000000000001,-0.32,-0.98,-1.77,-3.47,-6.09
4.155534982681274,2,3,3,3,-8.890000000000001,-0.32,-0.98,-1.77,-3.47,-6.09
4.175534963607788,2,3,3,3,-8.9,-0.67,-0.7,-1.02,-3.38,-6.7
4.175534963607788,2,3,3,3,-8.9,-0.67,-0.7,-1.02,-3.38,-6.7
4.195534944534302,2,3,3,3,-8.83,-1.23,-0.72,-0.38,-3.68,-7.33
4.195534944534302,2,3,3,3,-8.83,-1.23,-0.72,-0.38,-3.68,-7.33
4.215534925460815,2,3,3,3,-8.720000000000001,-0.21,-0.99,-1.07,-2.76,-7.22
4.215534925460815,2,3,3,3,-8.720000000000001,-0.21,-0.99,-1.07,-2.76,-7.22
4.235534906387329,2,3,3,3,-8.84,-0.82,-0.5600000000000001,-2.55,-2.73,-7.29
4.235534906387329,2,3,3,3,-8.84,-0.82,-0.5600000000000001,-2.55,-2.73,-7.29
4.255534887313843,2,3,3,3,-8.67,-0.22,-1.39,-1.54,-3.13,-8.16
4.255534887313843,2,3,3,3,-8.67,-0.22,-1.39,-1.54,-3.13,-8.16
4.275535106658936,2,3,3,3,-9.33,-0.63,-0.99,-2.31,-2.6,-9.859999999999999
4.275535106658936,2,3,3,3,-9.33,-0.63,-0.99,-2.31,-2.6,-9.859999999999999
4.295535087585449,2,3,3,3,-8.75,-0.17,-1.39,-0.64,-3.08,-10.04
4.295535087585449,2,3,3,3,-8.75,-0.17,-1.39,-0.64,-3.08,-10.04
4.315535068511963,2,3,3,3,-9.119999999999999,0.72,-1.81,0.31,-2.68,-10.31
4.315535068511963,2,3,3,3,-9.119999999999999,0.72,-1.81,0.31,-2.68,-10.31
4.335535049438477,2,3,3,3,-10.1,1.38,-1.76,-2.54,-2.9,-9.34
4.335535049438477,2,3,3,3,-10.1,1.38,-1.76,-2.54,-2.9,-9.34
4.35553503036499,2,3,3,3,-10.78,1.22,-1.75,-2.68,-3.07,-8.800000000000001
4.35553503036499,2,3,3,3,-10.78,1.22,-1.75,-2.68,-3.07,-8.800000000000001
4.375535011291504,2,3,3,3,-10.7,-0.34,-1.69,-3.16,-1.28,-8.35
4.375535011291504,2,3,3,3,-10.7,-0.34,-1.69,-3.16,-1.28,-8.35
4.395534992218018,2,3,3,3,-10.89,-1.17,-1.89,-1.94,-0.95,-7.82
4.395534992218018,2,3,3,3,-10.89,-1.17,-1.89,-1.94,-0.95,-7.82
4.415534973144531,2,3,3,3,-10.58,0.21,-1.6,-1.94,-1.36,-7.28
4.415534973144531,2,3,3,3,-10.58,0.21,-1.6,-1.94,-1.36,-7.28
4.435534954071045,2,3,3,3,-10.08,0.48,-2.03,-1.45,-0.88,-6.37
4.435534954071045,2,3,3,3,-10.08,0.48,-2.03,-1.45,-0.88,-6.37
4.455534934997559,2,3,3,3,-10.4,-1.91,-1.7,-2.62,-1.15,-5.87
4.455534934997559,2,3,3,3,-10.4,-1.91,-1.7,-2.62,-1.15,-5.87
4.475534915924072,2,3,3,3,-10.77,-2.6,-1.38,-1.54,-0.08,-5.25
4.475534915924072,2,3,3,3,-10.77,-2.6,-1.38,-1.54,-0.08,-5.25
4.495534896850586,2,3,3,3,-10.75,-3.1,-1.08,-0.17,-0.12,-5.97
4.495534896850586,2,3,3,3,-10.75,-3.1,-1.08,-0.17,-0.12,-5.97
4.5155348777771,2,3,3,3,-10.14,-1.54,-1.24,1.16,-0.41,-6.57
4.5155348777771,2,3,3,3,-10.14,-1.54,-1.24,1.16,-0.41,-6.57
4.535535097122192,2,3,3,3,-7.97,1.01,-1.75,2.15,-1.32,-6.56
4.535535097122192,2,3,3,3,-7.97,1.01,-1.75,2.15,-1.32,-6.56
4.555535078048706,2,3,3,2,-6.75,1.46,-1.97,1.25,-0.63,-6.1
4.555535078048706,2,3,3,2,-6.75,1.46,-1.97,1.25,-0.63,-6.1
4.57553505897522,2,3,3,2,-8.33,-4.44,-1.08,-4.27,-0.24,-5.14
4.57553505897522,2,3,3,2,-8.33,-4.44,-1.08,-4.27,-0.24,-5.14
4.595535039901733,2,3,3,2,-11.4,-8.31,-0.09,-2.93,-0.79,-6.72
4.595535039901733,2,3,3,2,-11.4,-8.31,-0.09,-2.93,-0.79,-6.72
4.615535020828247,2,3,3,2,-11.48,-3.2,0.34,0.04,-1.47,-7.43
4.615535020828247,2,3,3,2,-11.48,-3.2,0.34,0.04,-1.47,-7.43
4.635535001754761,2,3,3,2,-9.140000000000001,0.02,-0.29,0.53,-0.82,-7.98
4.635535001754761,2,3,3,2,-9.140000000000001,0.02,-0.29,0.53,-0.82,-7.98
4.655534982681274,2,3,3,2,-6.7,-1.07,-1.33,-1.49,-0.08,-7.48
4.655534982681274,2,3,3,2,-6.7,-1.07,-1.33,-1.49,-0.08,-7.48
4.675534963607788,2,3,3,2,-8.73,-1.47,-2.21,-3.82,2.69,-2.15
4.675534963607788,2,3,3,2,-8.73,-1.47,-2.21,-3.82,2.69,-2.15
4.695534944534302,2,3,3,2,-11.93,0.8100000000000001,-4.5,-3.23,2.77,2.68
4.695534944534302,2,3,3,2,-11.93,0.8100000000000001,-4.5,-3.23,2.77,2.68
4.715534925460815,2,3,3,2,-14.99,-0.47,-4.58,-4.3,2.03,4.68
4.715534925460815,2,3,3,2,-14.99,-0.47,-4.58,-4.3,2.03,4.68
4.73653507232666,2,3,3,2,-17.14,-2.14,-2.7,-4.77,0.13,7.74
4.73653507232666,2,3,3,2,-17.14,-2.14,-2.7,-4.77,0.13,7.74
4.756535053253174,2,3,3,2,-18.34,0.34,-1.23,-3.95,-0.36,8.619999999999999
4.756535053253174,2,3,3,2,-18.34,0.34,-1.23,-3.95,-0.36,8.619999999999999
4.776535034179688,2,3,3,2,-19.49,5.31,-0.18,-6.9,-3.16,14.55
4.776535034179688,2,3,3,2,-19.49,5.31,-0.18,-6.9,-3.16,14.55
4.796535015106201,2,3,3,2,-20.82,5.91,-2.07,-11.27,-6.29,20.83
4.796535015106201,2,3,3,2,-20.82,5.91,-2.07,-11.27,-6.29,20.83
4.816534996032715,2,3,3,2,-26.38,6.91,-6.95,-11.47,-7.49,23.85
4.816534996032715,2,3,3,2,-26.38,6.91,-6.95,-11.47,-7.49,23.85
4.836534976959229,2,3,3,2,-27.83,6.47,-11.83,-7.56,0.29,26.24
4.836534976959229,2,3,3,2,-27.83,6.47,-11.83,-7.56,0.29,26.24
4.856534957885742,2,3,3,2,-24.77,-0.8,-12.86,-4.95,4.18,26.73
4.856534957885742,2,3,3,2,-24.77,-0.8,-12.86,-4.95,4.18,26.73
4.876534938812256,2,3,3,2,-23.1,-6.31,-5.55,9.050000000000001,9.529999999999999,27.03
4.876534938812256,2,3,3,2,-23.1,-6.31,-5.55,9.050000000000001,9.529999999999999,27.03
4.89653491973877,2,3,3,2,-10.19,0.57,3.79,5.8,10.6,24.67
4.89653491973877,2,3,3,2,-10.19,0.57,3.79,5.8,10.6,24.67
4.916534900665283,2,3,3,2,-4.02,-13.69,3,-10.04,7.34,23.26
4.916534900665283,2,3,3,2,-4.02,-13.69,3,-10.04,7.34,23.26
4.936534881591797,2,3,3,2,-3.37,-39.08,19.26,0.35,1.02,0.41
4.936534881591797,2,3,3,2,-3.37,-39.08,19.26,0.35,1.02,0.41
4.95653510093689,2,3,3,2,-8.130000000000001,0.49,3.55,12.97,4.65,-2.15
4.95653510093689,2,3,3,2,-8.130000000000001,0.49,3.55,12.97,4.65,-2.15
4.976535081863403,2,3,3,2,-4.27,10.15,-0.19,-10.51,1.62,-7.94
4.976535081863403,2,3,3,2,-4.27,10.15,-0.19,-10.51,1.62,-7.94
4.996535062789917,2,3,3,2,2.75,1.17,-5.9,-12.67,-6.43,-13.07
4.996535062789917,2,3,3,2,2.75,1.17,-5.9,-12.67,-6.43,-13.07
5.016535043716431,2,3,3,2,3.19,5.93,-4.52,-7.14,-6.13,-12.58
5.016535043716431,2,3,3,2,3.19,5.93,-4.52,-7.14,-6.13,-12.58
5.036535024642944,2,3,3,2,0.14,7.31,-2.44,2.89,-3.55,-3.98
5.036535024642944,2,3,3,2,0.14,7.31,-2.44,2.89,-3.55,-3.98
5.056535005569458,2,3,3,2,0.28,2.88,-1.93,-1.19,-4.24,-2.36
5.056535005569458,2,3,3,2,0.28,2.88,-1.93,-1.19,-4.24,-2.36
5.076534986495972,2,3,3,2,1.51,-1.85,-0.76,-3.49,-5,-1.9
5.076534986495972,2,3,3,2,1.51,-1.85,-0.76,-3.49,-5,-1.9
5.096534967422485,2,3,3,2,0.38,-1.77,0.53,1.78,-3.24,-3.19
5.096534967422485,2,3,3,2,0.38,-1.77,0.53,1.78,-3.24,-3.19
5.116534948348999,2,3,3,2,0.13,-0.1,0.12,4.08,-2.67,-2.79
5.116534948348999,2,3,3,2,0.13,-0.1,0.12,4.08,-2.67,-2.79
5.136534929275513,2,3,3,2,0.57,0.24,-0.87,12.14,-0.28,-2.95
5.136534929275513,2,3,3,2,0.57,0.24,-0.87,12.14,-0.28,-2.95
5.156534910202026,2,3,3,2,0.36,1.2,-0.98,14.44,-0.24,-2.27
5.156534910202026,2,3,3,2,0.36,1.2,-0.98,14.44,-0.24,-2.27
5.17653489112854,2,3,3,2,-0.12,3.82,-0.49,11.43,0.44,1.03
5.17653489112854,2,3,3,2,-0.12,3.82,-0.49,11.43,0.44,1.03
5.196535110473633,2,3,3,2,1.71,4.79,-0.71,7.12,-0.03,2.06
5.196535110473633,2,3,3,2,1.71,4.79,-0.71,7.12,-0.03,2.06
5.216535091400146,2,3,3,2,1.59,4.2,-1.01,4.88,-0.24,1.82
5.216535091400146,2,3,3,2,1.59,4.2,-1.01,4.88,-0.24,1.82
5.23653507232666,2,3,3,2,-1.1,-2.98,2.92,-0.89,-1.73,-1.43
5.23653507232666,2,3,3,2,-1.1,-2.98,2.92,-0.89,-1.73,-1.43
5.256535053253174,2,3,3,2,-1.88,-4.78,3.25,1.79,0.2,-1.72
5.256535053253174,2,3,3,2,-1.88,-4.78,3.25,1.79,0.2,-1.72
5.276535034179688,2,3,3,2,-6.14,-30.81,-4.38,-2.45,2.89,-4.8
5.276535034179688,2,3,3,2,-6.14,-30.81,-4.38,-2.45,2.89,-4.8
5.296535015106201,2,3,3,2,-18.1,8.199999999999999,2.71,-14.17,-6.4,-2.36
5.296535015106201,2,3,3,2,-18.1,8.199999999999999,2.71,-14.17,-6.4,-2.36
5.316534996032715,2,3,3,2,-24.5,2.87,-0.4,-3.04,-23.64,-2.3
5.316534996032715,2,3,3,2,-24.5,2.87,-0.4,-3.04,-23.64,-2.3
5.336534976959229,2,3,3,2,-12.29,6.47,-6.57,-4.1,4.65,-21.87
5.336534976959229,2,3,3,2,-12.29,6.47,-6.57,-4.1,4.65,-21.87
5.356534957885742,2,3,3,2,-13.68,12.27,-4.51,-2.17,-1.06,-18.44
5.356534957885742,2,3,3,2,-13.68,12.27,-4.51,-2.17,-1.06,-18.44
5.376534938812256,2,3,3,2,-26.6,-4.96,-5.42,-10.21,-2.06,-12.43
5.376534938812256,2,3,3,2,-26.6,-4.96,-5.42,-10.21,-2.06,-12.43
5.39653491973877,2,3,3,2,-24.8,5.14,-5.39,4.4,1.33,-9.300000000000001
5.39653491973877,2,3,3,2,-24.8,5.14,-5.39,4.4,1.33,-9.300000000000001
5.416534900665283,2,3,3,2,-18.91,8.83,-4.72,12.63,1.51,-7.82
5.416534900665283,2,3,3,2,-18.91,8.83,-4.72,12.63,1.51,-7.82
5.436534881591797,2,3,3,2,-17.07,5.77,0.18,8.74,1.53,-2.9
5.436534881591797,2,3,3,2,-17.07,5.77,0.18,8.74,1.53,-2.9
5.45653510093689,2,3,3,2,-16.16,5.33,0.2,6.1,0.23,-2.13
5.45653510093689,2,3,3,2,-16.16,5.33,0.2,6.1,0.23,-2.13
5.476535081863403,2,3,3,2,-13.56,3.6,-0.72,3.79,-0.05,0.66
5.476535081863403,2,3,3,2,-13.56,3.6,-0.72,3.79,-0.05,0.66
5.496535062789917,2,3,3,2,-12.8,1.32,-2.2,2.29,-0.51,3.78
5.496535062789917,2,3,3,2,-12.8,1.32,-2.2,2.29,-0.51,3.78
5.516535043716431,2,3,3,2,-12.35,1.03,-2.45,1.54,-0.08,4.54
5.516535043716431,2,3,3,2,-12.35,1.03,-2.45,1.54,-0.08,4.54
5.536535024642944,2,3,3,2,-10.53,0.42,-2.04,0.57,0.29,5.29
5.536535024642944,2,3,3,2,-10.53,0.42,-2.04,0.57,0.29,5.29
5.556535005569458,2,3,3,2,-10.32,0.67,-1.82,-1.37,0.6899999999999999,5.71
5.556535005569458,2,3,3,2,-10.32,0.67,-1.82,-1.37,0.6899999999999999,5.71
5.576534986495972,2,3,3,2,-9.49,0.51,-1.55,-3.75,1.56,5.78
5.576534986495972,2,3,3,2,-9.49,0.51,-1.55,-3.75,1.56,5.78
5.596534967422485,2,3,3,2,-9.380000000000001,-0.68,-1.14,-6.27,1.65,5.37
5.596534967422485,2,3,3,2,-9.380000000000001,-0.68,-1.14,-6.27,1.65,5.37
5.616534948348999,2,3,3,2,-9.279999999999999,-1.43,-0.95,-6.74,1.73,5.28
5.616534948348999,2,3,3,2,-9.279999999999999,-1.43,-0.95,-6.74,1.73,5.28
5.636534929275513,2,3,3,2,-8.76,-3.64,-0.6,-4.77,1.89,5.36
5.636534929275513,2,3,3,2,-8.76,-3.64,-0.6,-4.77,1.89,5.36
5.656534910202026,2,3,3,2,-8.029999999999999,-3.54,-0.75,-1.56,2.01,5.29
5.656534910202026,2,3,3,2,-8.029999999999999,-3.54,-0.75,-1.56,2.01,5.29
5.67653489112854,2,3,3,2,-7.91,-3.05,-0.96,0.71,1.67,4.91
5.67653489112854,2,3,3,2,-7.91,-3.05,-0.96,0.71,1.67,4.91
5.696535110473633,2,3,3,2,-8.140000000000001,-2.46,-0.74,1.67,1.78,4.25
5.696535110473633,2,3,3,2,-8.140000000000001,-2.46,-0.74,1.67,1.78,4.25
5.716535091400146,2,3,3,2,-8.220000000000001,-2.46,-0.83,1.98,1.61,3.46
5.716535091400146,2,3,3,2,-8.220000000000001,-2.46,-0.83,1.98,1.61,3.46
5.73653507232666,2,3,3,2,-8.869999999999999,-2.13,-0.9,2.57,1.8,2.66
5.73653507232666,2,3,3,2,-8.869999999999999,-2.13,-0.9,2.57,1.8,2.66
5.757534980773926,2,3,3,2,-9.039999999999999,-1.84,-0.76,2.37,0.93,2.15
5.757534980773926,2,3,3,2,-9.039999999999999,-1.84,-0.76,2.37,0.93,2.15
5.777534961700439,2,3,3,2,-9.17,-1.15,-1.17,1.62,0.68,1.86
5.777534961700439,2,3,3,2,-9.17,-1.15,-1.17,1.62,0.68,1.86
5.797534942626953,2,3,3,2,-9.27,-0.5,-1.43,1.22,0.95,1.41
5.797534942626953,2,3,3,2,-9.27,-0.5,-1.43,1.22,0.95,1.41
5.817534923553467,2,3,3,2,-9.720000000000001,-0.05,-1.32,0.54,0.6899999999999999,1.45
5.817534923553467,2,3,3,2,-9.720000000000001,-0.05,-1.32,0.54,0.6899999999999999,1.45
5.83753490447998,2,3,3,2,-10,-0.39,-1.23,-0.38,0.28,1.56
5.83753490447998,2,3,3,2,-10,-0.39,-1.23,-0.38,0.28,1.56
5.857534885406494,2,3,3,2,-9.75,-0.84,-0.74,-0.82,0.01,1.54
5.857534885406494,2,3,3,2,-9.75,-0.84,-0.74,-0.82,0.01,1.54
5.877535104751587,2,3,3,2,-9.66,-0.7,-0.82,-0.66,0.05,1.48
5.877535104751587,2,3,3,2,-9.66,-0.7,-0.82,-0.66,0.05,1.48
5.897535085678101,2,3,3,2,-9.720000000000001,-0.25,-0.95,-0.23,0.11,1.47
5.897535085678101,2,3,3,2,-9.720000000000001,-0.25,-0.95,-0.23,0.11,1.47
5.917535066604614,2,3,3,2,-9.81,0.13,-1.28,0.02,0.32,1.24
5.917535066604614,2,3,3,2,-9.81,0.13,-1.28,0.02,0.32,1.24
5.937535047531128,2,3,3,2,-9.51,0.19,-2.05,0.52,0.73,1.2
5.937535047531128,2,3,3,2,-9.51,0.19,-2.05,0.52,0.73,1.2
5.957535028457642,2,3,3,2,-9.460000000000001,-0.84,-1.98,1.14,0.68,1.46
5.957535028457642,2,3,3,2,-9.460000000000001,-0.84,-1.98,1.14,0.68,1.46
5.977535009384155,2,3,3,2,-9.57,-0.64,-1.76,2.15,0.39,1.82
5.977535009384155,2,3,3,2,-9.57,-0.64,-1.76,2.15,0.39,1.82
5.997534990310669,2,3,3,2,-9.93,0.22,-1.46,3.66,0.6,2.09
5.997534990310669,2,3,3,2,-9.93,0.22,-1.46,3.66,0.6,2.09
6.017534971237183,2,3,3,2,-10.02,0.62,-1.33,4.05,0.5600000000000001,2.3
6.017534971237183,2,3,3,2,-10.02,0.62,-1.33,4.05,0.5600000000000001,2.3
6.037534952163696,2,3,3,2,-9.73,0.96,-1.14,3,0.84,2.51
6.037534952163696,2,3,3,2,-9.73,0.96,-1.14,3,0.84,2.51
6.05753493309021,2,3,3,2,-9.69,1.42,-1.29,2,1.28,2.45
6.05753493309021,2,3,3,2,-9.69,1.42,-1.29,2,1.28,2.45
6.077534914016724,2,3,3,2,-9.550000000000001,0.8100000000000001,-1.3,0.74,1.04,2.35
6.077534914016724,2,3,3,2,-9.550000000000001,0.8100000000000001,-1.3,0.74,1.04,2.35
6.097534894943237,2,3,3,2,-9.68,-0.11,-0.97,-0.62,0.98,2.42
6.097534894943237,2,3,3,2,-9.68,-0.11,-0.97,-0.62,0.98,2.42
6.117534875869751,2,3,3,2,-9.5,-0.89,-0.85,-1.24,0.71,2.22
6.117534875869751,2,3,3,2,-9.5,-0.89,-0.85,-1.24,0.71,2.22
6.137535095214844,2,3,3,2,-9.449999999999999,-0.65,-0.91,-1.06,0.65,1.89
6.137535095214844,2,3,3,2,-9.449999999999999,-0.65,-0.91,-1.06,0.65,1.89
6.157535076141357,2,3,3,2,-9.640000000000001,-0.72,-0.91,-0.24,0.57,1.53
6.157535076141357,2,3,3,2,-9.640000000000001,-0.72,-0.91,-0.24,0.57,1.53
6.177535057067871,2,3,3,2,-9.470000000000001,-0.89,-1.13,-0.01,0.19,1.35
6.177535057067871,2,3,3,2,-9.470000000000001,-0.89,-1.13,-0.01,0.19,1.35
6.197535037994385,2,3,3,2,-9.42,-0.15,-1.3,0.3,-0.09,0.83
6.197535037994385,2,3,3,2,-9.42,-0.15,-1.3,0.3,-0.09,0.83
6.217535018920898,2,3,3,2,-9.48,-0.07000000000000001,-1.27,0.82,0.02,0.61
6.217535018920898,2,3,3,2,-9.48,-0.07000000000000001,-1.27,0.82,0.02,0.61
6.237534999847412,2,3,3,2,-9.220000000000001,-0.42,-1.4,0.57,0.02,0.29
6.237534999847412,2,3,3,2,-9.220000000000001,-0.42,-1.4,0.57,0.02,0.29
6.257534980773926,2,3,3,2,-9.16,-0.8100000000000001,-1.41,0.57,0.25,-0.15
6.257534980773926,2,3,3,2,-9.16,-0.8100000000000001,-1.41,0.57,0.25,-0.15
6.277534961700439,2,3,3,2,-9.470000000000001,-1.36,-0.83,1.05,-0.04,-0.54
6.277534961700439,2,3,3,2,-9.470000000000001,-1.36,-0.83,1.05,-0.04,-0.54
6.297534942626953,2,3,3,2,-9.24,-1.59,-0.36,1.18,-0.6,-1.11
6.297534942626953,2,3,3,2,-9.24,-1.59,-0.36,1.18,-0.6,-1.11
6.317534923553467,2,3,3,2,-8.949999999999999,-1.88,-0.06,1.52,-0.53,-1.76
6.317534923553467,2,3,3,2,-8.949999999999999,-1.88,-0.06,1.52,-0.53,-1.76
6.33753490447998,2,3,3,2,-9.24,-2.74,0.36,1.76,-0.96,-2.32
6.33753490447998,2,3,3,2,-9.24,-2.74,0.36,1.76,-0.96,-2.32
6.357534885406494,2,3,3,2,-8.869999999999999,-3.45,1.25,1.3,-2.33,-3.34
6.357534885406494,2,3,3,2,-8.869999999999999,-3.45,1.25,1.3,-2.33,-3.34
6.377535104751587,2,3,3,2,-8.52,-1.82,0.33,1.42,-2.39,-5.23
6.377535104751587,2,3,3,2,-8.52,-1.82,0.33,1.42,-2.39,-5.23
6.397535085678101,2,3,3,2,-8.43,-0.8,0.13,1.23,-3.41,-6.6
6.397535085678101,2,3,3,2,-8.43,-0.8,0.13,1.23,-3.41,-6.6
6.417535066604614,2,3,3,2,-8.74,-1.61,0.16,0.03,-4.37,-7.21
6.417535066604614,2,3,3,2,-8.74,-1.61,0.16,0.03,-4.37,-7.21
6.437535047531128,2,3,3,2,-8.289999999999999,-2.63,0.58,-2.75,-5.39,-8.300000000000001
6.437535047531128,2,3,3,2,-8.289999999999999,-2.63,0.58,-2.75,-5.39,-8.300000000000001
6.457535028457642,2,3,3,2,-8.02,-2.07,-1,-1.84,-3.91,-11.2
6.457535028457642,2,3,3,2,-8.02,-2.07,-1,-1.84,-3.91,-11.2
6.477535009384155,2,3,3,2,-8.08,-1.28,-1.53,-0.02,-2.86,-12.66
6.477535009384155,2,3,3,2,-8.08,-1.28,-1.53,-0.02,-2.86,-12.66
6.497534990310669,2,3,3,2,-7.93,0.33,-1.52,1.49,-3.15,-13.42
6.497534990310669,2,3,3,2,-7.93,0.33,-1.52,1.49,-3.15,-13.42
6.517534971237183,2,3,3,2,-9.390000000000001,0.17,-1.14,-2.38,-3.83,-13.2
6.517534971237183,2,3,3,2,-9.390000000000001,0.17,-1.14,-2.38,-3.83,-13.2
6.537534952163696,2,3,3,2,-10.12,-1.06,-1.64,-4.32,-3.4,-13.11
6.537534952163696,2,3,3,2,-10.12,-1.06,-1.64,-4.32,-3.4,-13.11
6.55753493309021,2,3,3,2,-10.34,-1.73,-1.4,-0.9399999999999999,-1.61,-13.31
6.55753493309021,2,3,3,2,-10.34,-1.73,-1.4,-0.9399999999999999,-1.61,-13.31
6.577534914016724,2,3,3,2,-11.1,-0.77,-1.61,-2.4,0.07000000000000001,-12.65
6.577534914016724,2,3,3,2,-11.1,-0.77,-1.61,-2.4,0.07000000000000001,-12.65
6.597534894943237,2,3,3,2,-10.93,0.61,-2.63,-1,1.45,-11.44
6.597534894943237,2,3,3,2,-10.93,0.61,-2.63,-1,1.45,-11.44
6.617534875869751,2,3,3,2,-11.85,-1.27,-2.27,-2.35,1.83,-10.17
6.617534875869751,2,3,3,2,-11.85,-1.27,-2.27,-2.35,1.83,-10.17
6.637535095214844,2,3,3,2,-12.73,-1.05,-2.97,-2.12,0.93,-7.4
6.637535095214844,2,3,3,2,-12.73,-1.05,-2.97,-2.12,0.93,-7.4
6.657535076141357,2,3,3,2,-13.67,0.16,-3.05,-1.72,0.47,-4.06
6.657535076141357,2,3,3,2,-13.67,0.16,-3.05,-1.72,0.47,-4.06
6.677535057067871,2,3,3,2,-14.52,1.12,-3.08,-1.42,1.09,-0.99
6.677535057067871,2,3,3,2,-14.52,1.12,-3.08,-1.42,1.09,-0.99
6.697535037994385,2,3,3,2,-16.14,-0.44,-3.08,-2.92,1.22,2.8
6.697535037994385,2,3,3,2,-16.14,-0.44,-3.08,-2.92,1.22,2.8
6.717535018920898,2,3,3,2,-17.05,0.02,-3.21,-2.36,-0.23,6.72
6.717535018920898,2,3,3,2,-17.05,0.02,-3.21,-2.36,-0.23,6.72
6.737534999847412,2,3,3,2,-19.15,3.52,-2.23,-0.53,-1.71,11.05
6.737534999847412,2,3,3,2,-19.15,3.52,-2.23,-0.53,-1.71,11.05
6.757534980773926,2,3,3,2,-20.8,6.3,-1.5,-1.17,-2.68,15.85
6.757534980773926,2,3,3,2,-20.8,6.3,-1.5,-1.17,-2.68,15.85
6.778534889221191,2,3,3,2,-23.96,10.13,-2.85,-3.9,-2.85,21.13
6.778534889221191,2,3,3,2,-23.96,10.13,-2.85,-3.9,-2.85,21.13
6.798535108566284,2,3,3,2,-26.63,10.29,-5.18,-8.859999999999999,-1.56,25.83
6.798535108566284,2,3,3,2,-26.63,10.29,-5.18,-8.859999999999999,-1.56,25.83
6.818535089492798,2,3,3,2,-27.36,-2.07,-7.05,-14.6,2.9,27.45
6.818535089492798,2,3,3,2,-27.36,-2.07,-7.05,-14.6,2.9,27.45
6.838535070419312,2,3,3,2,-25.24,-12.88,-5.78,-10.89,4.68,24.95
6.838535070419312,2,3,3,2,-25.24,-12.88,-5.78,-10.89,4.68,24.95
6.858535051345825,2,3,3,2,-11.74,-7.05,-3,3.8,7.88,21.37
6.858535051345825,2,3,3,2,-11.74,-7.05,-3,3.8,7.88,21.37
6.878535032272339,2,3,3,2,-5.25,-13.01,-2.84,-3.92,7.45,19.88
6.878535032272339,2,3,3,2,-5.25,-13.01,-2.84,-3.92,7.45,19.88
6.898535013198853,2,3,3,2,1.01,-36.3,21,3.41,-2.36,12.44
6.898535013198853,2,3,3,2,1.01,-36.3,21,3.41,-2.36,12.44
6.918534994125366,2,3,3,2,-4.97,-15.73,12.63,15.93,1.04,0.11
6.918534994125366,2,3,3,2,-4.97,-15.73,12.63,15.93,1.04,0.11
6.93853497505188,2,3,3,2,-3.33,12.02,0.09,8.449999999999999,0.31,-3.98
6.93853497505188,2,3,3,2,-3.33,12.02,0.09,8.449999999999999,0.31,-3.98
6.958534955978394,2,3,3,2,-1.56,2.8,-1.75,-11.1,-3.06,-9.43
6.958534955978394,2,3,3,2,-1.56,2.8,-1.75,-11.1,-3.06,-9.43
6.978534936904907,2,3,3,2,1.63,-0.78,-5.86,-14.89,-5.19,-14.94
6.978534936904907,2,3,3,2,1.63,-0.78,-5.86,-14.89,-5.19,-14.94
6.998534917831421,2,3,3,2,1.01,2.55,-3.33,-0.75,-5.7,-12.48
6.998534917831421,2,3,3,2,1.01,2.55,-3.33,-0.75,-5.7,-12.48
7.018534898757935,2,3,3,2,0.39,4.87,-0.58,4.28,-5.67,-7.19
7.018534898757935,2,3,3,2,0.39,4.87,-0.58,4.28,-5.67,-7.19
7.038534879684448,2,3,3,2,0.77,3.72,-1.23,-0.25,-4.24,-4.52
7.038534879684448,2,3,3,2,0.77,3.72,-1.23,-0.25,-4.24,-4.52
7.058535099029541,2,3,3,2,0.49,1.18,-2.36,-6.52,-2.04,-3.93
7.058535099029541,2,3,3,2,0.49,1.18,-2.36,-6.52,-2.04,-3.93
7.078535079956055,2,3,3,2,1.03,0.86,-1.26,-6.2,-3.03,-3.44
7.078535079956055,2,3,3,2,1.03,0.86,-1.26,-6.2,-3.03,-3.44
7.098535060882568,2,3,3,2,0.66,-0.74,-0.74,-1.66,-1.66,-2.15
7.098535060882568,2,3,3,2,0.66,-0.74,-0.74,-1.66,-1.66,-2.15
7.118535041809082,2,3,3,2,0.99,-0.55,-0.73,5.1,-0.24,-1.24
7.118535041809082,2,3,3,2,0.99,-0.55,-0.73,5.1,-0.24,-1.24
7.138535022735596,2,3,3,2,0.62,-0.04,-0.97,10.66,0.59,-0.02
7.138535022735596,2,3,3,2,0.62,-0.04,-0.97,10.66,0.59,-0.02
7.158535003662109,2,3,3,2,0.46,0.6,-0.9,12.05,0.35,1.34
7.158535003662109,2,3,3,2,0.46,0.6,-0.9,12.05,0.35,1.34
7.178534984588623,2,3,3,2,0.49,0,-0.19,11.31,-0.28,1.91
7.178534984588623,2,3,3,2,0.49,0,-0.19,11.31,-0.28,1.91
7.198534965515137,2,3,3,2,0.3,-1.15,-0.2,12.58,-0.32,1.4
7.198534965515137,2,3,3,2,0.3,-1.15,-0.2,12.58,-0.32,1.4
7.21853494644165,2,3,3,2,-0.83,-3.78,-0.76,14.33,0.68,0.09
7.21853494644165,2,3,3,2,-0.83,-3.78,-0.76,14.33,0.68,0.09
7.238534927368164,2,3,3,2,-4.44,-14.59,9.27,12.44,1.02,-1.41
7.238534927368164,2,3,3,2,-4.44,-14.59,9.27,12.44,1.02,-1.41
7.258534908294678,2,3,3,2,-9.449999999999999,-20.16,8.84,-1.26,-2.33,-4.13
7.258534908294678,2,3,3,2,-9.449999999999999,-20.16,8.84,-1.26,-2.33,-4.13
7.278534889221191,2,3,3,2,-25.69,14.31,4.2,5.73,-8.93,-4.21
7.278534889221191,2,3,3,2,-25.69,14.31,4.2,5.73,-8.93,-4.21
7.298535108566284,2,3,3,2,-26.68,2.27,-1.22,-11.01,-4.17,-10.97
7.298535108566284,2,3,3,2,-26.68,2.27,-1.22,-11.01,-4.17,-10.97
7.318535089492798,2,3,3,2,-9.09,7.83,-6.42,-17.5,4.51,-16.48
7.318535089492798,2,3,3,2,-9.09,7.83,-6.42,-17.5,4.51,-16.48
7.338535070419312,2,3,3,2,-35.72,-39.08,-6.64,-38.85,2.52,-14.8
7.338535070419312,2,3,3,2,-35.72,-39.08,-6.64,-38.85,2.52,-14.8
7.358535051345825,2,3,3,2,-9.18,27.23,-8.43,19.15,-4.88,-13.85
7.358535051345825,2,3,3,2,-9.18,27.23,-8.43,19.15,-4.88,-13.85
7.378535032272339,2,3,3,2,-5.9,32.1,-1.49,29.46,8.119999999999999,-15.62
7.378535032272339,2,3,3,2,-5.9,32.1,-1.49,29.46,8.119999999999999,-15.62
7.398535013198853,2,3,3,2,-17.8,0.07000000000000001,-1.39,-17.29,0.48,-5.46
7.398535013198853,2,3,3,2,-17.8,0.07000000000000001,-1.39,-17.29,0.48,-5.46
7.418534994125366,2,3,3,2,-21.03,-3.95,-0.7,-21.38,-1.61,1.07
7.418534994125366,2,3,3,2,-21.03,-3.95,-0.7,-21.38,-1.61,1.07
7.43853497505188,2,3,3,2,-17.07,0.93,-2.94,-1.78,-1.35,1.87
7.43853497505188,2,3,3,2,-17.07,0.93,-2.94,-1.78,-1.35,1.87
7.458534955978394,2,3,3,2,-13.6,2.05,-3.34,5.36,-0.7,0.8100000000000001
7.458534955978394,2,3,3,2,-13.6,2.05,-3.34,5.36,-0.7,0.8100000000000001
7.478534936904907,2,3,3,2,-13.24,0.52,-3.19,3.82,-0.91,3.62
7.478534936904907,2,3,3,2,-13.24,0.52,-3.19,3.82,-0.91,3.62
7.498534917831421,2,3,3,2,-13.48,-0.85,-2.56,4.9,-0.83,6.51
7.498534917831421,2,3,3,2,-13.48,-0.85,-2.56,4.9,-0.83,6.51
7.518534898757935,2,3,3,2,-11.71,2.38,-2.37,10.14,0.22,8.81
7.518534898757935,2,3,3,2,-11.71,2.38,-2.37,10.14,0.22,8.81
7.538534879684448,2,3,3,2,-10.72,4.48,-1.86,9.66,1.05,10.34
7.538534879684448,2,3,3,2,-10.72,4.48,-1.86,9.66,1.05,10.34
7.558535099029541,2,3,3,2,-9.210000000000001,3.95,-0.79,3.31,2.16,9.07
7.558535099029541,2,3,3,2,-9.210000000000001,3.95,-0.79,3.31,2.16,9.07
7.578535079956055,2,3,3,2,-8.49,2.52,-0.76,-4.36,3.68,7.46
7.578535079956055,2,3,3,2,-8.49,2.52,-0.76,-4.36,3.68,7.46
7.598535060882568,2,3,3,2,-8.15,-1.04,-0.57,-9.58,5.21,7.17
7.598535060882568,2,3,3,2,-8.15,-1.04,-0.57,-9.58,5.21,7.17
7.618535041809082,2,3,3,2,-7.82,-3.55,-0.16,-10.16,4.88,7.43
7.618535041809082,2,3,3,2,-7.82,-3.55,-0.16,-10.16,4.88,7.43
7.638535022735596,2,3,3,2,-6.54,-4.95,0,-7.4,4.05,6.99
7.638535022735596,2,3,3,2,-6.54,-4.95,0,-7.4,4.05,6.99
7.658535003662109,2,3,3,2,-6.02,-4.3,-0.39,-3.31,4.21,5.63
7.658535003662109,2,3,3,2,-6.02,-4.3,-0.39,-3.31,4.21,5.63
7.678534984588623,2,3,3,2,-6.9,-4.43,-0.64,-0.9399999999999999,3.85,3.89
7.678534984588623,2,3,3,2,-6.9,-4.43,-0.64,-0.9399999999999999,3.85,3.89
7.698534965515137,2,3,3,2,-7.9,-4.73,0.1,0.01,2.6,2.68
7.698534965515137,2,3,3,2,-7.9,-4.73,0.1,0.01,2.6,2.68
7.71853494644165,2,3,3,2,-8.77,-4.6,0.01,1.61,1.58,1.95
7.71853494644165,2,3,3,2,-8.77,-4.6,0.01,1.61,1.58,1.95
7.738534927368164,2,3,3,2,-9.01,-3.31,-0.73,3.9,1.81,0.8100000000000001
7.738534927368164,2,3,3,2,-9.01,-3.31,-0.73,3.9,1.81,0.8100000000000001
7.758534908294678,2,3,3,2,-9.279999999999999,-1.94,-0.96,4.53,1.02,0.11
7.758534908294678,2,3,3,2,-9.279999999999999,-1.94,-0.96,4.53,1.02,0.11
7.778534889221191,2,3,3,2,-9.49,-1.38,-1.11,4.5,0.53,0.08
7.778534889221191,2,3,3,2,-9.49,-1.38,-1.11,4.5,0.53,0.08
7.799535036087036,2,3,3,2,-10.14,0.12,-1.39,3.43,0.1,0.25
7.799535036087036,2,3,3,2,-10.14,0.12,-1.39,3.43,0.1,0.25
7.81953501701355,2,3,3,2,-10.28,1.14,-1.65,2.44,0.26,0.21
7.81953501701355,2,3,3,2,-10.28,1.14,-1.65,2.44,0.26,0.21
7.839534997940063,2,3,3,2,-10.18,1.56,-1.79,0.78,0.44,0.65
7.839534997940063,2,3,3,2,-10.18,1.56,-1.79,0.78,0.44,0.65
7.859534978866577,2,3,3,2,-10.23,1.91,-1.83,-0.72,0.66,1.51
7.859534978866577,2,3,3,2,-10.23,1.91,-1.83,-0.72,0.66,1.51
7.879534959793091,2,3,3,2,-10.18,1.31,-2.31,-1.53,1.04,2.17
7.879534959793091,2,3,3,2,-10.18,1.31,-2.31,-1.53,1.04,2.17
7.899534940719604,2,3,3,2,-9.970000000000001,0.38,-1.97,-2.25,1.28,2.87
7.899534940719604,2,3,3,2,-9.970000000000001,0.38,-1.97,-2.25,1.28,2.87
7.919534921646118,2,3,3,2,-9.44,-0.37,-1.78,-2.21,1.37,3.25
7.919534921646118,2,3,3,2,-9.44,-0.37,-1.78,-2.21,1.37,3.25
7.939534902572632,2,3,3,2,-9.119999999999999,-1,-1.78,-1.2,1.52,3.27
7.939534902572632,2,3,3,2,-9.119999999999999,-1,-1.78,-1.2,1.52,3.27
7.959534883499146,2,3,3,2,-9.07,-1.17,-1.58,0.53,1.27,3.52
7.959534883499146,2,3,3,2,-9.07,-1.17,-1.58,0.53,1.27,3.52
7.979535102844238,2,3,3,2,-9.609999999999999,-1.02,-1.19,2.3,1.2,3.77
7.979535102844238,2,3,3,2,-9.609999999999999,-1.02,-1.19,2.3,1.2,3.77
7.999535083770752,2,3,3,2,-9.529999999999999,-0.35,-1.2,3.76,0.84,3.75
7.999535083770752,2,3,3,2,-9.529999999999999,-0.35,-1.2,3.76,0.84,3.75
8.019535064697266,2,3,3,2,-9.43,0.34,-1.21,4.32,0.8100000000000001,3.73
8.019535064697266,2,3,3,2,-9.43,0.34,-1.21,4.32,0.8100000000000001,3.73
8.039535045623779,2,3,3,2,-9.49,0.3,-0.99,3.44,0.73,3.45
8.039535045623779,2,3,3,2,-9.49,0.3,-0.99,3.44,0.73,3.45
8.059535026550293,2,3,3,2,-9.56,0.2,-1.02,2,0.43,2.81
8.059535026550293,2,3,3,2,-9.56,0.2,-1.02,2,0.43,2.81
8.079535007476807,2,3,3,2,-9.539999999999999,0.01,-1.11,0.42,0.25,2.09
8.079535007476807,2,3,3,2,-9.539999999999999,0.01,-1.11,0.42,0.25,2.09
8.09953498840332,2,3,3,2,-9.550000000000001,-0.26,-0.72,-0.91,0.17,1.66
8.09953498840332,2,3,3,2,-9.550000000000001,-0.26,-0.72,-0.91,0.17,1.66
8.119534969329834,2,3,3,2,-9.640000000000001,-0.45,-0.68,-1.26,-0.17,1.36
8.119534969329834,2,3,3,2,-9.640000000000001,-0.45,-0.68,-1.26,-0.17,1.36
8.139534950256348,2,3,3,2,-9.710000000000001,-0.18,-1.07,-1.77,-0.58,0.65
8.139534950256348,2,3,3,2,-9.710000000000001,-0.18,-1.07,-1.77,-0.58,0.65
8.159534931182861,2,3,3,2,-9.52,0.46,-1.06,-1.9,-0.34,0.23
8.159534931182861,2,3,3,2,-9.52,0.46,-1.06,-1.9,-0.34,0.23
8.179534912109375,2,3,3,2,-9.56,0.6,-1.81,-1.56,0.14,0.34
8.179534912109375,2,3,3,2,-9.56,0.6,-1.81,-1.56,0.14,0.34
8.199534893035889,2,3,3,2,-9.789999999999999,0.72,-1.93,-1.13,-0.08,0.5
8.199534893035889,2,3,3,2,-9.789999999999999,0.72,-1.93,-1.13,-0.08,0.5
8.219535112380981,2,3,3,2,-9.699999999999999,1.06,-2.16,0.51,0.23,0.76
8.219535112380981,2,3,3,2,-9.699999999999999,1.06,-2.16,0.51,0.23,0.76
8.239535093307495,2,3,3,2,-9.48,0.93,-2.01,1.81,0.29,1.36
8.239535093307495,2,3,3,2,-9.48,0.93,-2.01,1.81,0.29,1.36
8.259535074234009,2,3,3,2,-9.390000000000001,0.55,-1.21,2.5,0.01,1.71
8.259535074234009,2,3,3,2,-9.390000000000001,0.55,-1.21,2.5,0.01,1.71
8.279535055160522,2,3,3,2,-9.630000000000001,0.57,-1.29,2.25,0.07000000000000001,1.49
8.279535055160522,2,3,3,2,-9.630000000000001,0.57,-1.29,2.25,0.07000000000000001,1.49
8.299535036087036,2,3,3,2,-9.85,0.43,-1.28,1.61,-0.24,1.01
8.299535036087036,2,3,3,2,-9.85,0.43,-1.28,1.61,-0.24,1.01
8.31953501701355,2,3,3,2,-9.51,0.43,-1.28,1.26,-0.01,0.85
8.31953501701355,2,3,3,2,-9.51,0.43,-1.28,1.26,-0.01,0.85
8.339534997940063,2,3,3,2,-9.15,-0.53,-1.3,1.1,0.13,0.6899999999999999
8.339534997940063,2,3,3,2,-9.15,-0.53,-1.3,1.1,0.13,0.6899999999999999
8.359534978866577,2,3,3,2,-9.119999999999999,-1.72,-0.47,1.01,0,-0.1
8.359534978866577,2,3,3,2,-9.119999999999999,-1.72,-0.47,1.01,0,-0.1
8.379534959793091,2,3,3,2,-9.210000000000001,-2.52,0.28,1.54,-0.53,-1.2
8.379534959793091,2,3,3,2,-9.210000000000001,-2.52,0.28,1.54,-0.53,-1.2
8.399534940719604,2,3,3,2,-9.35,-3.59,0.73,1.39,-0.52,-2.42
8.399534940719604,2,3,3,2,-9.35,-3.59,0.73,1.39,-0.52,-2.42
8.419534921646118,2,3,3,2,-9.06,-3.5,0.78,2.65,-1.42,-3.65
8.419534921646118,2,3,3,2,-9.06,-3.5,0.78,2.65,-1.42,-3.65
8.439534902572632,2,3,3,2,-8.960000000000001,-2.19,0.1,3.52,-1.42,-4.31
8.439534902572632,2,3,3,2,-8.960000000000001,-2.19,0.1,3.52,-1.42,-4.31
8.459534883499146,2,3,3,2,-8.859999999999999,-3.2,1.4,3.9,-3.93,-5.19
8.459534883499146,2,3,3,2,-8.859999999999999,-3.2,1.4,3.9,-3.93,-5.19
8.479535102844238,2,3,3,2,-8.380000000000001,-4.23,1.67,2.57,-5.95,-7.18
8.479535102844238,2,3,3,2,-8.380000000000001,-4.23,1.67,2.57,-5.95,-7.18
8.499535083770752,2,3,3,2,-7.17,-1.71,0.65,3.85,-4.85,-9.949999999999999
8.499535083770752,2,3,3,2,-7.17,-1.71,0.65,3.85,-4.85,-9.949999999999999
8.519535064697266,2,3,3,2,-7.54,-0.01,-0.32,4.33,-4.1,-11.39
8.519535064697266,2,3,3,2,-7.54,-0.01,-0.32,4.33,-4.1,-11.39
8.539535045623779,2,3,3,2,-8.109999999999999,0.57,-0.83,-0.64,-6.87,-12.52
8.539535045623779,2,3,3,2,-8.109999999999999,0.57,-0.83,-0.64,-6.87,-12.52
8.559535026550293,2,3,3,2,-8.24,1.51,-2.92,-2.89,-5.06,-13.03
8.559535026550293,2,3,3,2,-8.24,1.51,-2.92,-2.89,-5.06,-13.03
8.579535007476807,2,3,3,2,-8.800000000000001,1.69,-1.33,-4.66,-4.86,-13.52
8.579535007476807,2,3,3,2,-8.800000000000001,1.69,-1.33,-4.66,-4.86,-13.52
8.59953498840332,2,3,3,2,-10.07,0,-1.11,-4.28,-3.03,-13.36
8.59953498840332,2,3,3,2,-10.07,0,-1.11,-4.28,-3.03,-13.36
8.619534969329834,2,3,3,2,-11.42,-2.31,-0.65,-5.52,-2.78,-13.51
8.619534969329834,2,3,3,2,-11.42,-2.31,-0.65,-5.52,-2.78,-13.51
8.639534950256348,2,3,3,2,-12.46,-0.48,-0.07000000000000001,-4.88,-1.69,-13.82
8.639534950256348,2,3,3,2,-12.46,-0.48,-0.07000000000000001,-4.88,-1.69,-13.82
8.659534931182861,2,3,3,2,-12.53,1.45,-0.9399999999999999,-3.16,-0.62,-13.76
8.659534931182861,2,3,3,2,-12.53,1.45,-0.9399999999999999,-3.16,-0.62,-13.76
8.679534912109375,2,3,3,2,-12.19,1.7,-2.4,-4.99,-1.59,-13.12
8.679534912109375,2,3,3,2,-12.19,1.7,-2.4,-4.99,-1.59,-13.12
8.699534893035889,2,3,3,2,-11.58,0.6899999999999999,-2.79,-5.79,-1.41,-11.03
8.699534893035889,2,3,3,2,-11.58,0.6899999999999999,-2.79,-5.79,-1.41,-11.03
8.719535112380981,2,3,3,2,-12.25,0.75,-4.21,-4.8,-1.09,-8.02
8.719535112380981,2,3,3,2,-12.25,0.75,-4.21,-4.8,-1.09,-8.02
8.739535093307495,2,3,3,2,-13.58,0.5600000000000001,-3.88,-3.57,-1.12,-3.53
8.739535093307495,2,3,3,2,-13.58,0.5600000000000001,-3.88,-3.57,-1.12,-3.53
8.759535074234009,2,3,3,2,-14.65,0.23,-4.08,-1.47,-0.44,0.64
8.759535074234009,2,3,3,2,-14.65,0.23,-4.08,-1.47,-0.44,0.64
8.779535055160522,2,3,3,2,-15.43,0.34,-4.01,0.01,0.24,3.86
8.779535055160522,2,3,3,2,-15.43,0.34,-4.01,0.01,0.24,3.86
8.799535036087036,2,3,3,2,-16.87,1.31,-2.89,0.11,0.22,6.3
8.799535036087036,2,3,3,2,-16.87,1.31,-2.89,0.11,0.22,6.3
8.81953501701355,2,3,3,2,-17.59,3.01,-1.22,-1.41,-0.33,8.84
8.81953501701355,2,3,3,2,-17.59,3.01,-1.22,-1.41,-0.33,8.84
8.840534925460815,2,3,3,2,-19.08,5.12,-0.21,-4.85,-1.57,13.54
8.840534925460815,2,3,3,2,-19.08,5.12,-0.21,-4.85,-1.57,13.54
8.860534906387329,2,3,3,2,-20.95,6.18,-1.89,-8.99,-3.82,19.31
8.860534906387329,2,3,3,2,-20.95,6.18,-1.89,-8.99,-3.82,19.31
8.880534887313843,2,3,3,2,-26.54,8.06,-8,-11.6,-4.51,24.07
8.880534887313843,2,3,3,2,-26.54,8.06,-8,-11.6,-4.51,24.07
8.900535106658936,2,3,3,2,-28.01,6.09,-9.619999999999999,-9.93,1.1,25.54
8.900535106658936,2,3,3,2,-28.01,6.09,-9.619999999999999,-9.93,1.1,25.54
8.920535087585449,2,3,3,2,-27.39,-6.47,-6.56,-5.78,7.42,27.17
8.920535087585449,2,3,3,2,-27.39,-6.47,-6.56,-5.78,7.42,27.17
8.940535068511963,2,3,3,2,-19.42,-8.52,-0.3,1.32,8.199999999999999,26.77
8.940535068511963,2,3,3,2,-19.42,-8.52,-0.3,1.32,8.199999999999999,26.77
8.960535049438477,2,3,3,2,-5.08,-10.17,0.26,-7.41,8.43,25.82
8.960535049438477,2,3,3,2,-5.08,-10.17,0.26,-7.41,8.43,25.82
8.98053503036499,2,3,3,2,0.36,-37.03,20.1,-6.38,1.96,16.14
8.98053503036499,2,3,3,2,0.36,-37.03,20.1,-6.38,1.96,16.14
9.000535011291504,2,3,3,2,-7.67,-16.8,12.46,13.71,5.38,-2.13
9.000535011291504,2,3,3,2,-7.67,-16.8,12.46,13.71,5.38,-2.13
9.020534992218018,2,3,3,2,-6.77,17.02,2.32,10.98,1.44,-7.68
9.020534992218018,2,3,3,2,-6.77,17.02,2.32,10.98,1.44,-7.68
9.040534973144531,2,3,3,2,-0.46,0.57,-3.82,-18,-2.54,-12
9.040534973144531,2,3,3,2,-0.46,0.57,-3.82,-18,-2.54,-12
9.060534954071045,2,3,3,2,3.6,-1.7,-6.86,-15.64,-4.43,-17.64
9.060534954071045,2,3,3,2,3.6,-1.7,-6.86,-15.64,-4.43,-17.64
9.080534934997559,2,3,3,2,1.52,3.78,-3.4,2.04,-1.94,-10.94
9.080534934997559,2,3,3,2,1.52,3.78,-3.4,2.04,-1.94,-10.94
9.100534915924072,2,3,3,2,0.52,3.57,-1.04,6.96,-3.41,-4.8
9.100534915924072,2,3,3,2,0.52,3.57,-1.04,6.96,-3.41,-4.8
9.120534896850586,2,3,3,2,2.11,1.41,-2.52,-1.81,-5.16,-1.83
9.120534896850586,2,3,3,2,2.11,1.41,-2.52,-1.81,-5.16,-1.83
9.1405348777771,2,3,3,2,1.03,2.17,-1.48,-1.17,-3.74,-3.09
9.1405348777771,2,3,3,2,1.03,2.17,-1.48,-1.17,-3.74,-3.09
9.160535097122192,2,3,3,2,-0.22,2.22,-0.05,1.6,-2.47,-3.57
9.160535097122192,2,3,3,2,-0.22,2.22,-0.05,1.6,-2.47,-3.57
9.180535078048706,2,3,3,2,-0.55,1.06,0.08,7.03,-1.27,-4.11
9.180535078048706,2,3,3,2,-0.55,1.06,0.08,7.03,-1.27,-4.11
9.20053505897522,2,3,3,2,0.21,0.19,-0.64,10.82,-0.34,-3.48
9.20053505897522,2,3,3,2,0.21,0.19,-0.64,10.82,-0.34,-3.48
9.220535039901733,2,3,3,2,0.58,0.31,-1.33,13.07,-0.3,0.41
9.220535039901733,2,3,3,2,0.58,0.31,-1.33,13.07,-0.3,0.41
9.240535020828247,2,3,3,2,0.97,0.47,-1.32,13.52,-1.7,2.54
9.240535020828247,2,3,3,2,0.97,0.47,-1.32,13.52,-1.7,2.54
9.260535001754761,2,3,3,2,1.67,-1.05,-0.12,14.07,-2.63,2.54
9.260535001754761,2,3,3,2,1.67,-1.05,-0.12,14.07,-2.63,2.54
9.280534982681274,2,3,3,2,0.5,-3.06,0.13,14.54,-0.6,1.51
9.280534982681274,2,3,3,2,0.5,-3.06,0.13,14.54,-0.6,1.51
9.300534963607788,2,3,3,2,-1.69,-5.54,0.49,12.81,1.48,0.09
9.300534963607788,2,3,3,2,-1.69,-5.54,0.49,12.81,1.48,0.09
9.320534944534302,2,3,3,2,-4.37,-6.1,4.81,7.14,1.52,-0.27
9.320534944534302,2,3,3,2,-4.37,-6.1,4.81,7.14,1.52,-0.27
9.340534925460815,2,3,3,2,-11.66,-4.31,5.9,-6.26,0,-2.94
9.340534925460815,2,3,3,2,-11.66,-4.31,5.9,-6.26,0,-2.94
9.360534906387329,2,3,3,2,-17.59,-2.78,7.91,-15,-12.58,-3.15
9.360534906387329,2,3,3,2,-17.59,-2.78,7.91,-15,-12.58,-3.15
9.380534887313843,2,3,3,2,-30.92,1.23,-2.34,-11.55,-1.72,-6.86
9.380534887313843,2,3,3,2,-30.92,1.23,-2.34,-11.55,-1.72,-6.86
9.400535106658936,2,3,3,2,-15.72,3.93,-12.38,-19.29,6.57,-13.77
9.400535106658936,2,3,3,2,-15.72,3.93,-12.38,-19.29,6.57,-13.77
9.420535087585449,2,3,3,2,-32.2,-29.75,-11.8,-18.92,0.22,-11.25
9.420535087585449,2,3,3,2,-32.2,-29.75,-11.8,-18.92,0.22,-11.25
9.440535068511963,2,3,3,2,-39.22,-17.57,-3.6,9.42,0.03,-11.57
9.440535068511963,2,3,3,2,-39.22,-17.57,-3.6,9.42,0.03,-11.57
9.460535049438477,2,3,3,2,-5.04,39.35,-2.41,50.03,8.720000000000001,-2.78
9.460535049438477,2,3,3,2,-5.04,39.35,-2.41,50.03,8.720000000000001,-2.78
9.48053503036499,2,3,3,2,-19.84,19.79,3.86,7.76,5.83,0.47
9.48053503036499,2,3,3,2,-19.84,19.79,3.86,7.76,5.83,0.47
9.500535011291504,2,3,3,2,-16.14,0.64,0.93,-15.55,-1.51,5.11
9.500535011291504,2,3,3,2,-16.14,0.64,0.93,-15.55,-1.51,5.11
9.520534992218018,2,3,3,2,-16.39,0.08,-0.64,-6.09,-1.65,7.41
9.520534992218018,2,3,3,2,-16.39,0.08,-0.64,-6.09,-1.65,7.41
9.540534973144531,2,3,3,2,-12.37,2.34,-2.82,3.54,1.15,8
9.540534973144531,2,3,3,2,-12.37,2.34,-2.82,3.54,1.15,8
9.560534954071045,2,3,3,2,-9.050000000000001,1.52,-3.01,4.18,4.07,7.41
9.560534954071045,2,3,3,2,-9.050000000000001,1.52,-3.01,4.18,4.07,7.41
9.580534934997559,2,3,3,2,-8.539999999999999,-1.18,-1.41,4.1,4.59,9.07
9.580534934997559,2,3,3,2,-8.539999999999999,-1.18,-1.41,4.1,4.59,9.07
9.600534915924072,2,3,3,2,-7.08,-0.65,-1.28,6.69,5.26,10.6
9.600534915924072,2,3,3,2,-7.08,-0.65,-1.28,6.69,5.26,10.6
9.620534896850586,2,3,3,2,-4.81,2.34,-3.22,4.52,5.82,9.5
9.620534896850586,2,3,3,2,-4.81,2.34,-3.22,4.52,5.82,9.5
9.6405348777771,2,3,3,2,-4.41,3.51,-3.02,-0.43,6.8,7.37
9.6405348777771,2,3,3,2,-4.41,3.51,-3.02,-0.43,6.8,7.37
9.660535097122192,2,3,3,2,-4.33,-0.08,-1.74,-5.94,6.87,6.76
9.660535097122192,2,3,3,2,-4.33,-0.08,-1.74,-5.94,6.87,6.76
9.680535078048706,2,3,3,2,-4.59,-2.1,-1.03,-7.88,5,6.96
9.680535078048706,2,3,3,2,-4.59,-2.1,-1.03,-7.88,5,6.96
9.70053505897522,2,3,3,2,-5.63,-4.82,-0.39,-4.04,3.24,7
9.70053505897522,2,3,3,2,-5.63,-4.82,-0.39,-4.04,3.24,7
9.720535039901733,2,3,3,2,-13.24,-9.48,3.19,1.56,0.72,2.83
9.720535039901733,2,3,3,2,-13.24,-9.48,3.19,1.56,0.72,2.83
9.740535020828247,2,3,3,2,-21.54,-2.95,5.84,14.06,0.29,2.32
9.740535020828247,2,3,3,2,-21.54,-2.95,5.84,14.06,0.29,2.32
9.760535001754761,2,3,3,2,-8.5,1.39,0.2,12.55,4.85,3.82
9.760535001754761,2,3,3,2,-8.5,1.39,0.2,12.55,4.85,3.82
9.780534982681274,2,3,3,2,-7.85,0.16,-3.21,0.74,3.09,1.15
9.780534982681274,2,3,3,2,-7.85,0.16,-3.21,0.74,3.09,1.15
9.800534963607788,2,3,3,2,-8.140000000000001,-0.95,-4.47,1.38,2.11,0.96
9.800534963607788,2,3,3,2,-8.140000000000001,-0.95,-4.47,1.38,2.11,0.96
9.820534944534302,2,3,3,2,-10.14,3.23,-3.92,5.5,1.14,2.38
9.820534944534302,2,3,3,2,-10.14,3.23,-3.92,5.5,1.14,2.38
9.840534925460815,2,3,3,2,-9.77,5.4,-3.32,2.93,0.32,4.5
9.840534925460815,2,3,3,2,-9.77,5.4,-3.32,2.93,0.32,4.5
9.86153507232666,2,3,3,2,-9.24,4.01,-1.49,-2.36,-0.7,5.24
9.86153507232666,2,3,3,2,-9.24,4.01,-1.49,-2.36,-0.7,5.24
9.881535053253174,2,3,3,2,-9.359999999999999,1.08,-0.2,-3.33,-1.31,5.72
9.881535053253174,2,3,3,2,-9.359999999999999,1.08,-0.2,-3.33,-1.31,5.72
9.901535034179688,2,3,3,2,-9.26,-0.61,-0.51,-2.9,-1.55,5.96
9.901535034179688,2,3,3,2,-9.26,-0.61,-0.51,-2.9,-1.55,5.96
9.921535015106201,2,3,3,2,-9.16,-2.91,-0.31,-2.94,0.34,5.08
9.921535015106201,2,3,3,2,-9.16,-2.91,-0.31,-2.94,0.34,5.08
9.941534996032715,2,3,3,2,-9.619999999999999,-3.25,-0.75,1.43,1.41,4.52
9.941534996032715,2,3,3,2,-9.619999999999999,-3.25,-0.75,1.43,1.41,4.52
9.961534976959229,2,3,3,2,-9.949999999999999,-1.9,-1.78,6.3,0.19,4.27
9.961534976959229,2,3,3,2,-9.949999999999999,-1.9,-1.78,6.3,0.19,4.27
9.981534957885742,2,3,3,2,-9.91,0.05,-2.6,8.92,-1.33,4.23
9.981534957885742,2,3,3,2,-9.91,0.05,-2.6,8.92,-1.33,4.23
10.00153493881226,2,3,3,2,-10.39,3.08,-2.28,7.91,-1.36,2
10.00153493881226,2,3,3,2,-10.39,3.08,-2.28,7.91,-1.36,2
10.02153491973877,2,3,3,2,-9.66,3.18,-1.84,4.11,-1.19,0.7
10.02153491973877,2,3,3,2,-9.66,3.18,-1.84,4.11,-1.19,0.7
10.04153490066528,2,3,3,2,-9.17,2.61,-1.18,-0.53,-0.47,0.88
10.04153490066528,2,3,3,2,-9.17,2.61,-1.18,-0.53,-0.47,0.88
10.0615348815918,2,3,3,2,-8.98,2.06,-0.74,-3.1,-0.57,1.03
10.0615348815918,2,3,3,2,-8.98,2.06,-0.74,-3.1,-0.57,1.03
10.08153510093689,2,3,3,2,-9.26,1.33,-1.01,-4.55,0.16,0.87
10.08153510093689,2,3,3,2,-9.26,1.33,-1.01,-4.55,0.16,0.87
10.1015350818634,2,3,3,2,-9.630000000000001,0.98,-1.63,-4.9,1.08,0.25
10.1015350818634,2,3,3,2,-9.630000000000001,0.98,-1.63,-4.9,1.08,0.25
10.12153506278992,2,3,3,2,-9.76,0.88,-2.14,-3.14,0.88,-0.34
10.12153506278992,2,3,3,2,-9.76,0.88,-2.14,-3.14,0.88,-0.34
10.14153504371643,2,3,3,2,-9.5,0.98,-2.59,-0.72,0.39,0.23
10.14153504371643,2,3,3,2,-9.5,0.98,-2.59,-0.72,0.39,0.23
10.16153502464294,2,3,3,2,-9.17,1.04,-2.47,1.78,-0.9,0.83
10.16153502464294,2,3,3,2,-9.17,1.04,-2.47,1.78,-0.9,0.83
10.18153500556946,2,3,3,2,-9.699999999999999,1.5,-1.84,4.06,-1.31,0.83
10.18153500556946,2,3,3,2,-9.699999999999999,1.5,-1.84,4.06,-1.31,0.83
10.20153498649597,2,3,3,2,-9.74,1.77,-1.32,4.77,-1.52,0.16
10.20153498649597,2,3,3,2,-9.74,1.77,-1.32,4.77,-1.52,0.16
10.22153496742249,2,3,3,2,-9.5,1.94,-1.12,4.29,-0.98,-0.98
10.22153496742249,2,3,3,2,-9.5,1.94,-1.12,4.29,-0.98,-0.98
10.241534948349,2,3,3,2,-9.140000000000001,2.27,-1.46,2.58,-0.18,-0.66
10.241534948349,2,3,3,2,-9.140000000000001,2.27,-1.46,2.58,-0.18,-0.66
10.26153492927551,2,3,3,2,-9.06,2.12,-2.11,0.86,0.11,-0.23
10.26153492927551,2,3,3,2,-9.06,2.12,-2.11,0.86,0.11,-0.23
10.28153491020203,2,3,3,2,-9.880000000000001,2.45,-1.71,-0.12,0.58,-1.01
10.28153491020203,2,3,3,2,-9.880000000000001,2.45,-1.71,-0.12,0.58,-1.01
10.30153489112854,2,3,3,2,-9.59,2.29,-2.11,-0.85,1.08,-1.19
10.30153489112854,2,3,3,2,-9.59,2.29,-2.11,-0.85,1.08,-1.19
10.32153511047363,2,3,3,2,-9.34,1.3,-1.95,-1.32,0.97,-1.76
10.32153511047363,2,3,3,2,-9.34,1.3,-1.95,-1.32,0.97,-1.76
10.34153509140015,2,3,3,2,-9.16,1.24,-1.41,-0.01,0.5,-1.11
10.34153509140015,2,3,3,2,-9.16,1.24,-1.41,-0.01,0.5,-1.11
10.36153507232666,2,3,3,2,-9.5,1.38,-1.74,0.47,0.28,-0.62
10.36153507232666,2,3,3,2,-9.5,1.38,-1.74,0.47,0.28,-0.62
10.38153505325317,2,3,3,2,-9.640000000000001,1.51,-2.18,1.87,-0.42,-0.34
10.38153505325317,2,3,3,2,-9.640000000000001,1.51,-2.18,1.87,-0.42,-0.34
10.40153503417969,2,3,3,2,-9.449999999999999,1.87,-1.63,1.96,-0.23,-0.45
10.40153503417969,2,3,3,2,-9.449999999999999,1.87,-1.63,1.96,-0.23,-0.45
10.4215350151062,2,3,3,2,-9.279999999999999,1.92,-1.66,1.04,-0.07000000000000001,0.06
10.4215350151062,2,3,3,2,-9.279999999999999,1.92,-1.66,1.04,-0.07000000000000001,0.06
10.44153499603271,2,3,3,2,-9.210000000000001,1.71,-1.97,0.33,-0.3,0.01
10.44153499603271,2,3,3,2,-9.210000000000001,1.71,-1.97,0.33,-0.3,0.01
10.46153497695923,2,3,3,2,-9.699999999999999,1.66,-1.7,-0.09,0.07000000000000001,-0.33
10.46153497695923,2,3,3,2,-9.699999999999999,1.66,-1.7,-0.09,0.07000000000000001,-0.33
10.48153495788574,2,3,3,2,-9.51,1.66,-1.79,-1.33,0.31,-0.78
10.48153495788574,2,3,3,2,-9.51,1.66,-1.79,-1.33,0.31,-0.78
10.50153493881226,2,3,3,2,-9.460000000000001,1.58,-1.8,-1.62,0.14,-0.67
10.50153493881226,2,3,3,2,-9.460000000000001,1.58,-1.8,-1.62,0.14,-0.67
10.52153491973877,2,3,3,2,-9.48,1.58,-1.83,-1.7,-0.3,-0.43
10.52153491973877,2,3,3,2,-9.48,1.58,-1.83,-1.7,-0.3,-0.43
10.54153490066528,2,3,3,2,-9.5,1.48,-1.99,-1.01,-0.19,-0.55
10.54153490066528,2,3,3,2,-9.5,1.48,-1.99,-1.01,-0.19,-0.55
10.5615348815918,2,3,3,2,-9.44,1.54,-1.65,-0.88,0.13,-0.6
10.5615348815918,2,3,3,2,-9.44,1.54,-1.65,-0.88,0.13,-0.6
10.58153510093689,2,3,3,2,-9.43,1.51,-1.83,-0.32,-0.11,-0.21
10.58153510093689,2,3,3,2,-9.43,1.51,-1.83,-0.32,-0.11,-0.21
10.6015350818634,2,3,3,2,-9.619999999999999,1.43,-1.98,-0.17,-0.14,-0.19
10.6015350818634,2,3,3,2,-9.619999999999999,1.43,-1.98,-0.17,-0.14,-0.19
10.62153506278992,2,3,3,2,-9.619999999999999,1.48,-1.69,0.24,-0.15,-0.34
10.62153506278992,2,3,3,2,-9.619999999999999,1.48,-1.69,0.24,-0.15,-0.34
10.64153504371643,2,3,3,2,-9.470000000000001,1.54,-1.75,0.02,-0.46,-0.15
10.64153504371643,2,3,3,2,-9.470000000000001,1.54,-1.75,0.02,-0.46,-0.15
10.66153502464294,2,3,3,2,-9.44,1.63,-1.55,-0.4,-0.35,-0.28
10.66153502464294,2,3,3,2,-9.44,1.63,-1.55,-0.4,-0.35,-0.28
10.68153500556946,2,3,3,2,-9.43,1.5,-1.81,-0.74,-0.27,-0.23
10.68153500556946,2,3,3,2,-9.43,1.5,-1.81,-0.74,-0.27,-0.23
10.70153498649597,2,3,3,2,-9.640000000000001,1.34,-1.78,-0.99,-0.32,-0.28
10.70153498649597,2,3,3,2,-9.640000000000001,1.34,-1.78,-0.99,-0.32,-0.28
10.72153496742249,2,3,3,2,-9.57,1.43,-1.61,-0.9399999999999999,-0.21,-0.34
10.72153496742249,2,3,3,2,-9.57,1.43,-1.61,-0.9399999999999999,-0.21,-0.34
10.741534948349,2,3,3,2,-9.49,1.42,-1.71,-0.91,-0.14,-0.19
10.741534948349,2,3,3,2,-9.49,1.42,-1.71,-0.91,-0.14,-0.19
10.76153492927551,2,3,3,2,-9.449999999999999,1.35,-1.61,-0.82,-0.29,-0.04
10.76153492927551,2,3,3,2,-9.449999999999999,1.35,-1.61,-0.82,-0.29,-0.04
10.78153491020203,2,3,3,2,-9.529999999999999,1.48,-1.7,0.05,-0.32,0.34
10.78153491020203,2,3,3,2,-9.529999999999999,1.48,-1.7,0.05,-0.32,0.34
10.80153489112854,2,3,3,2,-9.56,1.45,-1.67,0.25,-0.38,0.5
10.80153489112854,2,3,3,2,-9.56,1.45,-1.67,0.25,-0.38,0.5
10.82153511047363,2,3,3,2,-9.550000000000001,1.44,-1.7,0.42,-0.27,0.66
10.82153511047363,2,3,3,2,-9.550000000000001,1.44,-1.7,0.42,-0.27,0.66
10.84153509140015,2,3,3,2,-9.59,1.43,-1.77,0.32,-0.18,0.45
10.84153509140015,2,3,3,2,-9.59,1.43,-1.77,0.32,-0.18,0.45
10.86153507232666,2,3,3,2,-9.5,1.46,-1.51,0.16,-0.18,0.4
10.86153507232666,2,3,3,2,-9.5,1.46,-1.51,0.16,-0.18,0.4
10.88253498077393,2,3,3,2,-9.48,1.47,-1.61,0.1,-0.05,0.36
10.88253498077393,2,3,3,2,-9.48,1.47,-1.61,0.1,-0.05,0.36
10.90253496170044,2,3,3,2,-9.539999999999999,1.49,-1.45,0.06,-0.05,0.28
10.90253496170044,2,3,3,2,-9.539999999999999,1.49,-1.45,0.06,-0.05,0.28
10.92253494262695,2,3,3,2,-9.56,1.49,-1.51,-0.01,-0.15,0.51
10.92253494262695,2,3,3,2,-9.56,1.49,-1.51,-0.01,-0.15,0.51
10.94253492355347,2,3,3,2,-9.66,1.49,-1.73,0.11,-0.22,0.48
10.94253492355347,2,3,3,2,-9.66,1.49,-1.73,0.11,-0.22,0.48
10.96253490447998,2,3,3,2,-9.59,1.43,-1.62,0.23,-0.18,0.35
10.96253490447998,2,3,3,2,-9.59,1.43,-1.62,0.23,-0.18,0.35
10.98253488540649,2,3,3,2,-9.390000000000001,1.5,-1.6,0.33,-0.07000000000000001,0.09
10.98253488540649,2,3,3,2,-9.390000000000001,1.5,-1.6,0.33,-0.07000000000000001,0.09
11.00253510475159,2,3,3,2,-9.4,1.53,-1.46,0.37,-0.08,0.15
11.00253510475159,2,3,3,2,-9.4,1.53,-1.46,0.37,-0.08,0.15
11.0225350856781,2,3,3,2,-9.58,1.7,-1.68,0.57,0.13,0.13
11.0225350856781,2,3,3,2,-9.58,1.7,-1.68,0.57,0.13,0.13
11.04253506660461,2,3,3,2,-9.48,1.93,-1.59,0.34,0.08,0.2
11.04253506660461,2,3,3,2,-9.48,1.93,-1.59,0.34,0.08,0.2
11.06253504753113,2,3,3,2,-9.51,1.7,-1.71,0.03,0.22,0.17
11.06253504753113,2,3,3,2,-9.51,1.7,-1.71,0.03,0.22,0.17
11.08253502845764,2,3,3,2,-9.44,1.56,-1.78,0.05,0.26,-0.03
11.08253502845764,2,3,3,2,-9.44,1.56,-1.78,0.05,0.26,-0.03
11.10253500938416,2,3,3,2,-9.44,1.54,-1.51,0.01,0.38,-0.11
11.10253500938416,2,3,3,2,-9.44,1.54,-1.51,0.01,0.38,-0.11
11.12253499031067,2,3,3,2,-9.42,1.53,-1.46,0.01,0.18,0.38
11.12253499031067,2,3,3,2,-9.42,1.53,-1.46,0.01,0.18,0.38
11.14253497123718,2,3,3,2,-9.56,1.51,-1.76,0.2,-0.02,0.5
11.14253497123718,2,3,3,2,-9.56,1.51,-1.76,0.2,-0.02,0.5
11.1625349521637,2,3,3,2,-9.699999999999999,1.67,-1.78,0.27,0.03,0.32
11.1625349521637,2,3,3,2,-9.699999999999999,1.67,-1.78,0.27,0.03,0.32
11.18253493309021,2,3,3,2,-9.390000000000001,1.75,-1.73,0.12,-0.01,0.33
11.18253493309021,2,3,3,2,-9.390000000000001,1.75,-1.73,0.12,-0.01,0.33
11.20253491401672,2,3,3,2,-9.41,1.57,-1.81,-0.01,0.06,0.4
11.20253491401672,2,3,3,2,-9.41,1.57,-1.81,-0.01,0.06,0.4
11.22253489494324,2,3,3,2,-9.470000000000001,1.63,-1.58,0.29,0.15,0.33
11.22253489494324,2,3,3,2,-9.470000000000001,1.63,-1.58,0.29,0.15,0.33
11.24253487586975,2,3,3,2,-9.619999999999999,1.58,-1.67,-0.02,0.3,0.18
11.24253487586975,2,3,3,2,-9.619999999999999,1.58,-1.67,-0.02,0.3,0.18
11.26253509521484,2,3,3,2,-9.5,1.52,-1.71,0.02,0.1,0.26
11.26253509521484,2,3,3,2,-9.5,1.52,-1.71,0.02,0.1,0.26
11.28253507614136,2,3,3,2,-9.42,1.74,-1.6,0.28,-0.02,0.18
11.28253507614136,2,3,3,2,-9.42,1.74,-1.6,0.28,-0.02,0.18
11.30253505706787,2,3,3,2,-9.460000000000001,1.9,-1.65,0.12,-0.01,0.36
11.30253505706787,2,3,3,2,-9.460000000000001,1.9,-1.65,0.12,-0.01,0.36
11.32253503799438,2,3,3,2,-9.49,1.55,-1.97,-0.4,0.06,0.38
11.32253503799438,2,3,3,2,-9.49,1.55,-1.97,-0.4,0.06,0.38
11.3425350189209,2,3,3,2,-9.66,1.5,-1.84,-0.22,0.3,-0.18
11.3425350189209,2,3,3,2,-9.66,1.5,-1.84,-0.22,0.3,-0.18
11.36253499984741,2,3,3,2,-9.359999999999999,1.84,-1.45,-0.26,0.42,-0.37
11.36253499984741,2,3,3,2,-9.359999999999999,1.84,-1.45,-0.26,0.42,-0.37
11.38253498077393,2,3,3,2,-9.27,2.03,-1.58,-1.32,0.38,-0.05
11.38253498077393,2,3,3,2,-9.27,2.03,-1.58,-1.32,0.38,-0.05
11.40253496170044,2,3,3,2,-9.42,1.82,-2,-1.4,0.22,0.23
11.40253496170044,2,3,3,2,-9.42,1.82,-2,-1.4,0.22,0.23
11.42253494262695,2,3,3,2,-9.75,1.37,-2.37,-0.88,0.06,0.2
11.42253494262695,2,3,3,2,-9.75,1.37,-2.37,-0.88,0.06,0.2
11.44253492355347,2,3,3,2,-9.66,1.47,-2.02,-0.18,0.14,-0.11
11.44253492355347,2,3,3,2,-9.66,1.47,-2.02,-0.18,0.14,-0.11
11.46253490447998,2,3,3,2,-9.43,1.62,-1.67,-0.18,0.47,-0.38
11.46253490447998,2,3,3,2,-9.43,1.62,-1.67,-0.18,0.47,-0.38
11.48253488540649,2,3,3,2,-9.24,1.67,-1.71,-0.82,0.16,-0.25
11.48253488540649,2,3,3,2,-9.24,1.67,-1.71,-0.82,0.16,-0.25
11.50253510475159,2,3,3,2,-9.32,1.65,-1.7,-0.82,0.11,-0.23
11.50253510475159,2,3,3,2,-9.32,1.65,-1.7,-0.82,0.11,-0.23
11.5225350856781,2,3,3,2,-9.34,1.63,-2.22,-0.42,0.42,-0.33
11.5225350856781,2,3,3,2,-9.34,1.63,-2.22,-0.42,0.42,-0.33
11.54253506660461,2,3,3,2,-9.33,1.73,-1.8,-0.35,0.39,-0.05
11.54253506660461,2,3,3,2,-9.33,1.73,-1.8,-0.35,0.39,-0.05
11.56253504753113,2,3,3,2,-9.33,1.73,-1.76,-0.22,0.2,0.17
11.56253504753113,2,3,3,2,-9.33,1.73,-1.76,-0.22,0.2,0.17
11.58253502845764,2,3,3,2,-9.44,1.56,-2.01,0.27,-0.66,0.65
11.58253502845764,2,3,3,2,-9.44,1.56,-2.01,0.27,-0.66,0.65
11.60253500938416,2,3,3,2,-9.369999999999999,1.5,-2.09,0.51,-0.91,0.9
11.60253500938416,2,3,3,2,-9.369999999999999,1.5,-2.09,0.51,-0.91,0.9
11.62253499031067,2,3,3,2,-9.449999999999999,1.54,-2.39,0.36,-1.01,0.84
11.62253499031067,2,3,3,2,-9.449999999999999,1.54,-2.39,0.36,-1.01,0.84
11.64253497123718,2,3,3,2,-9.619999999999999,1.4,-2.23,-0.07000000000000001,-1.28,1.09
11.64253497123718,2,3,3,2,-9.619999999999999,1.4,-2.23,-0.07000000000000001,-1.28,1.09
11.6625349521637,2,3,3,2,-9.67,1.27,-2.06,-0.53,-1.59,1.33
11.6625349521637,2,3,3,2,-9.67,1.27,-2.06,-0.53,-1.59,1.33
11.68253493309021,2,3,3,2,-9.59,0.45,-1.49,-0.71,-1.81,1.53
11.68253493309021,2,3,3,2,-9.59,0.45,-1.49,-0.71,-1.81,1.53
11.70253491401672,2,3,3,2,-9.58,0.2,-1.23,-0.79,-2.22,1.91
11.70253491401672,2,3,3,2,-9.58,0.2,-1.23,-0.79,-2.22,1.91
11.72253489494324,2,3,3,2,-9.52,0.02,-1.35,-0.89,-1.94,2.5
11.72253489494324,2,3,3,2,-9.52,0.02,-1.35,-0.89,-1.94,2.5
11.74253487586975,2,3,3,2,-9.66,-0.49,-1.58,-1.05,-1.07,2.64
11.74253487586975,2,3,3,2,-9.66,-0.49,-1.58,-1.05,-1.07,2.64
11.76253509521484,2,3,3,2,-9.800000000000001,-0.65,-1.47,1.04,-0.34,1.93
11.76253509521484,2,3,3,2,-9.800000000000001,-0.65,-1.47,1.04,-0.34,1.93
11.78253507614136,2,3,3,2,-10.84,-2.32,-0.36,4.01,-1.49,0.33
11.78253507614136,2,3,3,2,-10.84,-2.32,-0.36,4.01,-1.49,0.33
11.80253505706787,2,3,3,2,-10.86,-2.79,0.07000000000000001,6.6,-3.82,-2.69
11.80253505706787,2,3,3,2,-10.86,-2.79,0.07000000000000001,6.6,-3.82,-2.69
11.82253503799438,2,3,3,2,-10.86,-4.4,0.71,7.8,-5.78,-6.55
11.82253503799438,2,3,3,2,-10.86,-4.4,0.71,7.8,-5.78,-6.55
11.8425350189209,2,3,3,2,-10.96,-3.73,0.16,7.61,-7.06,-9.74
11.8425350189209,2,3,3,2,-10.96,-3.73,0.16,7.61,-7.06,-9.74
11.86253499984741,2,3,3,2,-11.63,-2.77,-0.07000000000000001,5.86,-7.71,-11.55
11.86253499984741,2,3,3,2,-11.63,-2.77,-0.07000000000000001,5.86,-7.71,-11.55
11.88253498077393,2,3,3,2,-12.31,-1.86,-0.15,0.87,-6.83,-12.98
11.88253498077393,2,3,3,2,-12.31,-1.86,-0.15,0.87,-6.83,-12.98
11.90353488922119,2,3,3,2,-11.08,-0.51,-0.79,-2.74,-5.94,-11.12
11.90353488922119,2,3,3,2,-11.08,-0.51,-0.79,-2.74,-5.94,-11.12
11.92353510856628,2,3,3,2,-11.07,-0.61,-1.53,-2.09,-3.02,-10.25
11.92353510856628,2,3,3,2,-11.07,-0.61,-1.53,-2.09,-3.02,-10.25
11.9435350894928,2,3,3,2,-11.32,2.04,-0.27,-0.96,-5.06,-10.17
11.9435350894928,2,3,3,2,-11.32,2.04,-0.27,-0.96,-5.06,-10.17
11.96353507041931,2,3,3,2,-10.48,3.7,0.35,-1.39,-5.6,-9.220000000000001
11.96353507041931,2,3,3,2,-10.48,3.7,0.35,-1.39,-5.6,-9.220000000000001
11.98353505134583,2,3,3,2,-9.83,4.31,-1.47,-4.3,-3.17,-9.220000000000001
11.98353505134583,2,3,3,2,-9.83,4.31,-1.47,-4.3,-3.17,-9.220000000000001
12.00353503227234,2,3,3,2,-9.81,2.19,-1.98,-6.26,-1.79,-10.65
12.00353503227234,2,3,3,2,-9.81,2.19,-1.98,-6.26,-1.79,-10.65
12.02353501319885,2,3,3,2,-9.84,0.83,-2.32,-5.9,-0.79,-11.64
12.02353501319885,2,3,3,2,-9.84,0.83,-2.32,-5.9,-0.79,-11.64
12.04353499412537,2,3,3,2,-9.43,0.37,-2.5,-3.88,-0.25,-11.72
12.04353499412537,2,3,3,2,-9.43,0.37,-2.5,-3.88,-0.25,-11.72
12.06353497505188,2,3,3,2,-9.02,-0.25,-2.26,-0.73,0.29,-11.37
12.06353497505188,2,3,3,2,-9.02,-0.25,-2.26,-0.73,0.29,-11.37
12.08353495597839,2,3,3,2,-9.300000000000001,-0.44,-2.08,3.26,0.73,-10.58
12.08353495597839,2,3,3,2,-9.300000000000001,-0.44,-2.08,3.26,0.73,-10.58
12.10353493690491,2,3,3,2,-8.91,-0.9399999999999999,-1.19,7.56,0.68,-9.52
12.10353493690491,2,3,3,2,-8.91,-0.9399999999999999,-1.19,7.56,0.68,-9.52
12.12353491783142,2,3,3,2,-8.94,-1.09,-0.77,10.46,0.96,-8.74
12.12353491783142,2,3,3,2,-8.94,-1.09,-0.77,10.46,0.96,-8.74
12.14353489875793,2,3,3,2,-8.470000000000001,-0.5600000000000001,-0.04,12.59,0.83,-7.99
12.14353489875793,2,3,3,2,-8.470000000000001,-0.5600000000000001,-0.04,12.59,0.83,-7.99
12.16353487968445,2,3,3,2,-8.609999999999999,-0.83,-0.21,13.6,1.36,-7.31
12.16353487968445,2,3,3,2,-8.609999999999999,-0.83,-0.21,13.6,1.36,-7.31
12.18353509902954,2,3,3,2,-8.68,-0.68,-0.54,12.27,2.75,-7.03
12.18353509902954,2,3,3,2,-8.68,-0.68,-0.54,12.27,2.75,-7.03
12.20353507995605,2,3,3,2,-8.24,-0.34,0.11,11.05,1.72,-6.42
12.20353507995605,2,3,3,2,-8.24,-0.34,0.11,11.05,1.72,-6.42
12.22353506088257,2,3,3,2,-8.17,-0.85,-0.1,9.369999999999999,1.37,-5.88
12.22353506088257,2,3,3,2,-8.17,-0.85,-0.1,9.369999999999999,1.37,-5.88
12.24353504180908,2,3,3,2,-8.199999999999999,-1.46,0.65,6.67,1.44,-5.12
12.24353504180908,2,3,3,2,-8.199999999999999,-1.46,0.65,6.67,1.44,-5.12
12.2635350227356,2,3,3,2,-7.89,-2.53,1.24,4.17,-1,-3.76
12.2635350227356,2,3,3,2,-7.89,-2.53,1.24,4.17,-1,-3.76
12.28353500366211,2,3,3,2,-8.69,-3.52,0.82,4.8,-0.25,-2.46
12.28353500366211,2,3,3,2,-8.69,-3.52,0.82,4.8,-0.25,-2.46
12.30353498458862,2,3,3,2,-9.59,-3.49,1.69,3.17,0.41,-1.87
12.30353498458862,2,3,3,2,-9.59,-3.49,1.69,3.17,0.41,-1.87
12.32353496551514,2,3,3,2,-9.34,-4.66,3.19,3.6,-0.8,-0.7
12.32353496551514,2,3,3,2,-9.34,-4.66,3.19,3.6,-0.8,-0.7
12.34353494644165,2,3,3,2,-9.33,-6.04,3.02,2.9,0.05,-0.89
12.34353494644165,2,3,3,2,-9.33,-6.04,3.02,2.9,0.05,-0.89
12.36353492736816,2,3,3,2,-9.380000000000001,-6.18,1.54,2.03,1.77,-1.63
12.36353492736816,2,3,3,2,-9.380000000000001,-6.18,1.54,2.03,1.77,-1.63
12.38353490829468,2,3,3,2,-8.970000000000001,-4.9,0.59,1.71,2.1,-1.18
12.38353490829468,2,3,3,2,-8.970000000000001,-4.9,0.59,1.71,2.1,-1.18
12.40353488922119,2,3,3,2,-7.68,-2.87,-0.39,0.93,2.42,-0.09
12.40353488922119,2,3,3,2,-7.68,-2.87,-0.39,0.93,2.42,-0.09
12.42353510856628,2,3,3,2,-8.09,-1.84,-1.26,0.16,4.8,1.83
12.42353510856628,2,3,3,2,-8.09,-1.84,-1.26,0.16,4.8,1.83
12.4435350894928,2,3,3,2,-10.33,0.43,-1.62,0.4,3.78,3.97
12.4435350894928,2,3,3,2,-10.33,0.43,-1.62,0.4,3.78,3.97
12.46353507041931,2,3,3,2,-12.07,-2.59,2.32,0.76,2.84,3.57
12.46353507041931,2,3,3,2,-12.07,-2.59,2.32,0.76,2.84,3.57
12.48353505134583,2,3,3,2,-14.56,-8.640000000000001,2.95,1.48,4.4,1.82
12.48353505134583,2,3,3,2,-14.56,-8.640000000000001,2.95,1.48,4.4,1.82
12.50353503227234,2,3,3,2,-13.86,-5.3,1.27,3.39,5.4,3.2
12.50353503227234,2,3,3,2,-13.86,-5.3,1.27,3.39,5.4,3.2
12.52353501319885,2,3,3,2,-9.380000000000001,5.63,-0.51,1.42,5.26,6.14
12.52353501319885,2,3,3,2,-9.380000000000001,5.63,-0.51,1.42,5.26,6.14
12.54353499412537,2,3,3,2,-7.26,5.84,-3.65,0.11,8.02,7.44
12.54353499412537,2,3,3,2,-7.26,5.84,-3.65,0.11,8.02,7.44
12.56353497505188,2,3,3,2,-7.73,-0.33,-5.07,-3.13,7.22,7.4
12.56353497505188,2,3,3,2,-7.73,-0.33,-5.07,-3.13,7.22,7.4
12.58353495597839,2,3,3,2,-8.050000000000001,-0.17,-4.7,0.65,6.29,8.31
12.58353495597839,2,3,3,2,-8.050000000000001,-0.17,-4.7,0.65,6.29,8.31
12.60353493690491,2,3,3,2,-10.37,2.56,-2.79,2.07,5.25,8.890000000000001
12.60353493690491,2,3,3,2,-10.37,2.56,-2.79,2.07,5.25,8.890000000000001
12.62353491783142,2,3,3,2,-10.04,1.96,-1.74,0.48,5.67,9.550000000000001
12.62353491783142,2,3,3,2,-10.04,1.96,-1.74,0.48,5.67,9.550000000000001
12.64353489875793,2,3,3,2,-9.949999999999999,-0.33,-0.75,-0.49,6.39,9.74
12.64353489875793,2,3,3,2,-9.949999999999999,-0.33,-0.75,-0.49,6.39,9.74
12.66353487968445,2,3,3,2,-9.77,-0.55,-0.92,-0.32,6.21,9.91
12.66353487968445,2,3,3,2,-9.77,-0.55,-0.92,-0.32,6.21,9.91
12.68353509902954,2,3,3,2,-8.869999999999999,0.86,-3.17,0.39,6.03,10.32
12.68353509902954,2,3,3,2,-8.869999999999999,0.86,-3.17,0.39,6.03,10.32
12.70353507995605,2,3,3,2,-8.710000000000001,0.22,-3.56,1.56,5.62,10.34
12.70353507995605,2,3,3,2,-8.710000000000001,0.22,-3.56,1.56,5.62,10.34
12.72353506088257,2,3,3,2,-9.48,1.28,-3.16,2.87,4.99,10.62
12.72353506088257,2,3,3,2,-9.48,1.28,-3.16,2.87,4.99,10.62
12.74353504180908,2,3,3,2,-9.74,1.67,-2.46,2.13,4.91,10.71
12.74353504180908,2,3,3,2,-9.74,1.67,-2.46,2.13,4.91,10.71
12.7635350227356,2,3,3,2,-9.43,1.19,-3,0.06,4.95,10.53
12.7635350227356,2,3,3,2,-9.43,1.19,-3,0.06,4.95,10.53
12.78353500366211,2,3,3,2,-9.02,0.01,-3.47,-1.45,4.98,10.4
12.78353500366211,2,3,3,2,-9.02,0.01,-3.47,-1.45,4.98,10.4
12.80353498458862,2,3,3,2,-8.94,-0.54,-3.75,-2.59,4.43,10.61
12.80353498458862,2,3,3,2,-8.94,-0.54,-3.75,-2.59,4.43,10.61
12.82353496551514,2,3,3,2,-9.800000000000001,0.16,-2.7,-2.84,4.3,10.21
12.82353496551514,2,3,3,2,-9.800000000000001,0.16,-2.7,-2.84,4.3,10.21
12.84353494644165,2,3,3,2,-9.890000000000001,-1.44,-2.05,-3.7,3.72,9.18
12.84353494644165,2,3,3,2,-9.890000000000001,-1.44,-2.05,-3.7,3.72,9.18
12.8645350933075,2,3,3,2,-10.28,-1.71,-1.63,-3.83,3.52,7.39
12.8645350933075,2,3,3,2,-10.28,-1.71,-1.63,-3.83,3.52,7.39
12.88353490829468,2,3,3,2,-9.800000000000001,-0.6,-1.77,-3.83,3.75,5.07
12.88353490829468,2,3,3,2,-9.800000000000001,-0.6,-1.77,-3.83,3.75,5.07
12.90353488922119,2,3,3,2,-9.07,1.57,-2.81,-4.89,3.8,4.22
12.90353488922119,2,3,3,2,-9.07,1.57,-2.81,-4.89,3.8,4.22
12.92453503608704,2,3,3,2,-8.720000000000001,2.49,-3.27,-6.43,3.02,4.69
12.92453503608704,2,3,3,2,-8.720000000000001,2.49,-3.27,-6.43,3.02,4.69
12.94453501701355,2,3,3,2,-8.76,2.4,-2.87,-7.86,2.7,5.6
12.94453501701355,2,3,3,2,-8.76,2.4,-2.87,-7.86,2.7,5.6
12.96453499794006,2,3,3,2,-8.949999999999999,1.59,-2.51,-9.42,2.84,6.53
12.96453499794006,2,3,3,2,-8.949999999999999,1.59,-2.51,-9.42,2.84,6.53
12.98453497886658,2,3,3,2,-8.859999999999999,0.68,-2.86,-11.27,3.63,6.97
12.98453497886658,2,3,3,2,-8.859999999999999,0.68,-2.86,-11.27,3.63,6.97
13.00453495979309,2,3,3,2,-9.16,0.66,-3.61,-9.779999999999999,4.5,6.53
13.00453495979309,2,3,3,2,-9.16,0.66,-3.61,-9.779999999999999,4.5,6.53
13.0245349407196,2,3,3,2,-9.66,1.58,-3.24,-5.78,2.13,5.36
13.0245349407196,2,3,3,2,-9.66,1.58,-3.24,-5.78,2.13,5.36
13.04453492164612,2,3,3,2,-9.76,1.52,-2.7,-3.43,1.72,4.98
13.04453492164612,2,3,3,2,-9.76,1.52,-2.7,-3.43,1.72,4.98
13.06453490257263,2,3,3,2,-9.51,1.55,-1.86,-3.39,1.19,5.38
13.06453490257263,2,3,3,2,-9.51,1.55,-1.86,-3.39,1.19,5.38
13.08453488349915,2,3,3,2,-9.74,1.4,-1.67,-5.1,2.13,5.21
13.08453488349915,2,3,3,2,-9.74,1.4,-1.67,-5.1,2.13,5.21
13.10453510284424,2,3,3,2,-9.43,2.22,-2.57,-7.28,2.75,4.75
13.10453510284424,2,3,3,2,-9.43,2.22,-2.57,-7.28,2.75,4.75
13.12453508377075,2,3,3,2,-9.33,2.17,-2.87,-9.130000000000001,2.87,4.57
13.12453508377075,2,3,3,2,-9.33,2.17,-2.87,-9.130000000000001,2.87,4.57
13.14453506469727,2,3,3,2,-9.539999999999999,1.43,-2.8,-8.470000000000001,2.47,4.77
13.14453506469727,2,3,3,2,-9.539999999999999,1.43,-2.8,-8.470000000000001,2.47,4.77
13.16453504562378,2,3,3,2,-9.57,1.49,-2.77,-6.84,1.99,4.92
13.16453504562378,2,3,3,2,-9.57,1.49,-2.77,-6.84,1.99,4.92
13.18453502655029,2,3,3,2,-9.42,1.43,-2.83,-6.31,1.94,4.97
13.18453502655029,2,3,3,2,-9.42,1.43,-2.83,-6.31,1.94,4.97
13.20453500747681,2,3,3,2,-9.710000000000001,1.8,-2.92,-5.81,1.35,4.82
13.20453500747681,2,3,3,2,-9.710000000000001,1.8,-2.92,-5.81,1.35,4.82
13.22453498840332,2,3,3,2,-10.33,2.14,-2.45,-5.82,0.72,4.42
13.22453498840332,2,3,3,2,-10.33,2.14,-2.45,-5.82,0.72,4.42
13.24453496932983,2,3,3,2,-10.51,1.6,-2.54,-7.53,1.27,3.67
13.24453496932983,2,3,3,2,-10.51,1.6,-2.54,-7.53,1.27,3.67
13.26453495025635,2,3,3,2,-11.13,0.04,-2.81,-9.869999999999999,2.08,3.11
13.26453495025635,2,3,3,2,-11.13,0.04,-2.81,-9.869999999999999,2.08,3.11
13.28453493118286,2,3,3,2,-11.7,-1.15,-2,-9.720000000000001,1.39,2.19
13.28453493118286,2,3,3,2,-11.7,-1.15,-2,-9.720000000000001,1.39,2.19
13.30453491210938,2,3,3,2,-12.02,-3.02,-1.86,-9.050000000000001,0.28,1.64
13.30453491210938,2,3,3,2,-12.02,-3.02,-1.86,-9.050000000000001,0.28,1.64
13.32453489303589,2,3,3,2,-12.53,-3.22,-0.87,-6.05,-1.24,0.47
13.32453489303589,2,3,3,2,-12.53,-3.22,-0.87,-6.05,-1.24,0.47
13.34453511238098,2,3,3,2,-13.31,-4.25,-0.1,-2.79,-4.68,-2.39
13.34453511238098,2,3,3,2,-13.31,-4.25,-0.1,-2.79,-4.68,-2.39
13.3645350933075,2,3,3,2,-12.88,-4.54,1.02,0.49,-7.55,-6.43
13.3645350933075,2,3,3,2,-12.88,-4.54,1.02,0.49,-7.55,-6.43
13.38453507423401,2,3,3,2,-11.8,-1.18,3.29,-0.32,-10.01,-9.109999999999999
13.38453507423401,2,3,3,2,-11.8,-1.18,3.29,-0.32,-10.01,-9.109999999999999
13.40453505516052,2,3,3,2,-9.6,-1.8,1.14,-9.85,-9.710000000000001,-10.92
13.40453505516052,2,3,3,2,-9.6,-1.8,1.14,-9.85,-9.710000000000001,-10.92
13.42453503608704,2,3,3,2,-11.18,-0.13,-2.38,-8.34,-8.48,-15.04
13.42453503608704,2,3,3,2,-11.18,-0.13,-2.38,-8.34,-8.48,-15.04
13.44453501701355,2,3,3,2,-12.16,1.88,-2.13,-4.38,-9.19,-16.75
13.44453501701355,2,3,3,2,-12.16,1.88,-2.13,-4.38,-9.19,-16.75
13.46453499794006,2,3,3,2,-12.57,4.02,-2.59,-2.7,-8.31,-16.85
13.46453499794006,2,3,3,2,-12.57,4.02,-2.59,-2.7,-8.31,-16.85
13.48453497886658,2,3,3,2,-11.43,4.36,-2.7,-3.83,-6.48,-17.51
13.48453497886658,2,3,3,2,-11.43,4.36,-2.7,-3.83,-6.48,-17.51
13.50453495979309,2,3,3,2,-11.37,4.12,-2.17,-3.99,-5.26,-18.75
13.50453495979309,2,3,3,2,-11.37,4.12,-2.17,-3.99,-5.26,-18.75
13.5245349407196,2,3,3,2,-11.41,5.11,-2.75,-2.95,-3.98,-18.95
13.5245349407196,2,3,3,2,-11.41,5.11,-2.75,-2.95,-3.98,-18.95
13.54453492164612,2,3,3,2,-11,4.92,-3.02,-2.46,-2.51,-19.11
13.54453492164612,2,3,3,2,-11,4.92,-3.02,-2.46,-2.51,-19.11
13.56453490257263,2,3,3,2,-10.81,2.79,-3.44,-1.55,-1.49,-19.94
13.56453490257263,2,3,3,2,-10.81,2.79,-3.44,-1.55,-1.49,-19.94
13.58453488349915,2,3,3,2,-10.22,2.07,-3.25,2.63,-1.25,-20.65
13.58453488349915,2,3,3,2,-10.22,2.07,-3.25,2.63,-1.25,-20.65
13.60453510284424,2,3,3,2,-9.44,2.71,-2.79,8.27,-1.34,-20.2
13.60453510284424,2,3,3,2,-9.44,2.71,-2.79,8.27,-1.34,-20.2
13.62453508377075,2,3,3,2,-9.06,3.37,-2.86,11.96,-1.09,-19.06
13.62453508377075,2,3,3,2,-9.06,3.37,-2.86,11.96,-1.09,-19.06
13.64453506469727,2,3,3,2,-8.91,4.08,-2.5,13.32,-2.13,-18.44
13.64453506469727,2,3,3,2,-8.91,4.08,-2.5,13.32,-2.13,-18.44
13.66453504562378,2,3,3,2,-8.390000000000001,3.95,-2.45,12.7,-2.66,-17.92
13.66453504562378,2,3,3,2,-8.390000000000001,3.95,-2.45,12.7,-2.66,-17.92
13.68453502655029,2,3,3,2,-7.73,3.87,-2.16,14.15,-2.24,-16.68
13.68453502655029,2,3,3,2,-7.73,3.87,-2.16,14.15,-2.24,-16.68
13.70453500747681,2,3,3,1,-7.19,4.4,-2.31,12.23,-1.3,-13.8
13.70453500747681,2,3,3,1,-7.19,4.4,-2.31,12.23,-1.3,-13.8
13.72453498840332,2,3,3,1,-6.25,3.64,-2.28,9.74,-0.55,-11.69
13.72453498840332,2,3,3,1,-6.25,3.64,-2.28,9.74,-0.55,-11.69
13.74453496932983,2,3,3,1,-6.22,3.32,-2.07,8.23,0.55,-9.880000000000001
13.74453496932983,2,3,3,1,-6.22,3.32,-2.07,8.23,0.55,-9.880000000000001
13.76453495025635,2,3,3,1,-5.83,2.9,-1.86,5.92,1.38,-8.15
13.76453495025635,2,3,3,1,-5.83,2.9,-1.86,5.92,1.38,-8.15
13.78453493118286,2,3,3,1,-5.63,2.08,-1.79,5.23,3.3,-6.26
13.78453493118286,2,3,3,1,-5.63,2.08,-1.79,5.23,3.3,-6.26
13.80453491210938,2,3,3,1,-5.52,0.49,-1.61,4.12,4.86,-4.06
13.80453491210938,2,3,3,1,-5.52,0.49,-1.61,4.12,4.86,-4.06
13.82453489303589,2,3,3,1,-6,-0.92,-1.69,3.4,6.3,-1.79
13.82453489303589,2,3,3,1,-6,-0.92,-1.69,3.4,6.3,-1.79
13.84453511238098,2,3,3,1,-8.970000000000001,-3.39,0.46,8.25,6.99,-0.91
13.84453511238098,2,3,3,1,-8.970000000000001,-3.39,0.46,8.25,6.99,-0.91
13.8645350933075,2,3,3,1,-10.68,-5.91,2.7,15.44,4.1,-1.22
13.8645350933075,2,3,3,1,-10.68,-5.91,2.7,15.44,4.1,-1.22
13.88453507423401,2,3,3,1,-12.88,-10.83,5.62,17.15,-1.31,-2.3
13.88453507423401,2,3,3,1,-12.88,-10.83,5.62,17.15,-1.31,-2.3
13.90453505516052,2,3,3,1,-14.47,-14.08,4.09,14.03,-6.97,-3.64
13.90453505516052,2,3,3,1,-14.47,-14.08,4.09,14.03,-6.97,-3.64
13.92453503608704,2,3,3,1,-11.62,-7.3,2.86,5.57,-6.65,-5.01
13.92453503608704,2,3,3,1,-11.62,-7.3,2.86,5.57,-6.65,-5.01
13.94453501701355,2,3,3,1,-9.65,-0.87,0.83,4.22,-1.86,-5.34
13.94453501701355,2,3,3,1,-9.65,-0.87,0.83,4.22,-1.86,-5.34
13.96553492546082,2,3,3,1,-6.08,0.83,-1.59,-3.05,6.8,-7.38
13.96553492546082,2,3,3,1,-6.08,0.83,-1.59,-3.05,6.8,-7.38
13.98553490638733,2,3,3,1,-3.28,4.57,-3.65,-12.6,9.800000000000001,8.67
13.98553490638733,2,3,3,1,-3.28,4.57,-3.65,-12.6,9.800000000000001,8.67
14.00553488731384,2,3,3,1,-17.04,-11.51,4.1,0.11,3.07,3.18
14.00553488731384,2,3,3,1,-17.04,-11.51,4.1,0.11,3.07,3.18
14.02553510665894,2,3,3,1,-17.58,-12.78,3.49,10.85,4.86,3.82
14.02553510665894,2,3,3,1,-17.58,-12.78,3.49,10.85,4.86,3.82
14.04553508758545,2,3,3,1,-11.16,7,-0.72,14.54,3.34,10.24
14.04553508758545,2,3,3,1,-11.16,7,-0.72,14.54,3.34,10.24
14.06553506851196,2,3,3,1,-8.630000000000001,11.14,-4.19,7.59,9.56,11.28
14.06553506851196,2,3,3,1,-8.630000000000001,11.14,-4.19,7.59,9.56,11.28
14.08553504943848,2,3,3,1,-7.63,2.22,-8.15,-1.93,11.58,11.4
14.08553504943848,2,3,3,1,-7.63,2.22,-8.15,-1.93,11.58,11.4
14.10553503036499,2,3,3,1,-8.15,2.55,-4.93,-0.22,8.24,12.88
14.10553503036499,2,3,3,1,-8.15,2.55,-4.93,-0.22,8.24,12.88
14.1255350112915,2,3,3,1,-9.789999999999999,5.28,-4.69,2.15,7.98,13.18
14.1255350112915,2,3,3,1,-9.789999999999999,5.28,-4.69,2.15,7.98,13.18
14.14553499221802,2,3,3,1,-9.99,0.64,-1.95,-0.12,7.16,12.27
14.14553499221802,2,3,3,1,-9.99,0.64,-1.95,-0.12,7.16,12.27
14.16553497314453,2,3,3,1,-10.67,1.02,-0.95,1.68,7.33,13.58
14.16553497314453,2,3,3,1,-10.67,1.02,-0.95,1.68,7.33,13.58
14.18553495407104,2,3,3,1,-9.279999999999999,1.96,-2.3,1.43,7.36,14.3
14.18553495407104,2,3,3,1,-9.279999999999999,1.96,-2.3,1.43,7.36,14.3
14.20553493499756,2,3,3,1,-8.720000000000001,0.95,-3.01,-0.2,6.81,14.21
14.20553493499756,2,3,3,1,-8.720000000000001,0.95,-3.01,-0.2,6.81,14.21
14.22553491592407,2,3,3,1,-8.91,0.09,-3.67,0.05,6.6,13.9
14.22553491592407,2,3,3,1,-8.91,0.09,-3.67,0.05,6.6,13.9
14.24553489685059,2,3,3,1,-8.779999999999999,1.27,-3.58,-0.2,6.34,13.67
14.24553489685059,2,3,3,1,-8.779999999999999,1.27,-3.58,-0.2,6.34,13.67
14.2655348777771,2,3,3,1,-9.01,1.52,-2.8,-2.7,5.47,13.19
14.2655348777771,2,3,3,1,-9.01,1.52,-2.8,-2.7,5.47,13.19
14.28553509712219,2,3,3,1,-9.23,0.77,-2.73,-7.42,4.79,13.35
14.28553509712219,2,3,3,1,-9.23,0.77,-2.73,-7.42,4.79,13.35
14.30553507804871,2,3,3,1,-9.199999999999999,-1.68,-3.11,-12.86,3.04,13.66
14.30553507804871,2,3,3,1,-9.199999999999999,-1.68,-3.11,-12.86,3.04,13.66
14.32553505897522,2,3,3,1,-9.51,-3.84,-3.08,-13.2,3.56,12.62
14.32553505897522,2,3,3,1,-9.51,-3.84,-3.08,-13.2,3.56,12.62
14.34553503990173,2,3,3,1,-10.05,-3.45,-1.48,-10.86,5.39,10.78
14.34553503990173,2,3,3,1,-10.05,-3.45,-1.48,-10.86,5.39,10.78
14.36553502082825,2,3,3,1,-10.06,-0.67,-3.21,-8.23,5.79,8.1
14.36553502082825,2,3,3,1,-10.06,-0.67,-3.21,-8.23,5.79,8.1
14.38553500175476,2,3,3,1,-10.11,2.11,-3.48,-4.69,2.67,5.63
14.38553500175476,2,3,3,1,-10.11,2.11,-3.48,-4.69,2.67,5.63
14.40553498268127,2,3,3,1,-9.119999999999999,2.55,-3.06,-4.56,1.85,5.47
14.40553498268127,2,3,3,1,-9.119999999999999,2.55,-3.06,-4.56,1.85,5.47
14.42553496360779,2,3,3,1,-8.85,1.71,-2.76,-5.95,2.54,6.08
14.42553496360779,2,3,3,1,-8.85,1.71,-2.76,-5.95,2.54,6.08
14.4455349445343,2,3,3,1,-8.880000000000001,1.28,-2.03,-7.24,3.48,6.15
14.4455349445343,2,3,3,1,-8.880000000000001,1.28,-2.03,-7.24,3.48,6.15
14.46553492546082,2,3,3,1,-9.390000000000001,1.68,-2.27,-10.28,4.07,5.41
14.46553492546082,2,3,3,1,-9.390000000000001,1.68,-2.27,-10.28,4.07,5.41
14.48553490638733,2,3,3,1,-9.27,1.51,-2.64,-11.46,3.53,5.31
14.48553490638733,2,3,3,1,-9.27,1.51,-2.64,-11.46,3.53,5.31
14.50553488731384,2,3,3,1,-9.16,1.38,-2.98,-10.1,2.87,5.61
14.50553488731384,2,3,3,1,-9.16,1.38,-2.98,-10.1,2.87,5.61
14.52553510665894,2,3,3,1,-9.24,1.49,-2.77,-6.89,2.57,5.97
14.52553510665894,2,3,3,1,-9.24,1.49,-2.77,-6.89,2.57,5.97
14.54553508758545,2,3,3,1,-9.34,2.01,-2.35,-4.79,2.76,6.11
14.54553508758545,2,3,3,1,-9.34,2.01,-2.35,-4.79,2.76,6.11
14.56553506851196,2,3,3,1,-9.460000000000001,2.38,-2.33,-4.6,2.68,6.32
14.56553506851196,2,3,3,1,-9.460000000000001,2.38,-2.33,-4.6,2.68,6.32
14.58553504943848,2,3,3,1,-9.48,2.1,-2.12,-5.44,2.08,6.59
14.58553504943848,2,3,3,1,-9.48,2.1,-2.12,-5.44,2.08,6.59
14.60553503036499,2,3,3,1,-9.18,1.3,-1.91,-6.63,2.21,6.75
14.60553503036499,2,3,3,1,-9.18,1.3,-1.91,-6.63,2.21,6.75
14.6255350112915,2,3,3,1,-9.27,0.92,-1.82,-7.23,2.81,6.95
14.6255350112915,2,3,3,1,-9.27,0.92,-1.82,-7.23,2.81,6.95
14.64553499221802,2,3,3,1,-9.609999999999999,0.92,-1.97,-7.64,2.53,7.35
14.64553499221802,2,3,3,1,-9.609999999999999,0.92,-1.97,-7.64,2.53,7.35
14.66553497314453,2,3,3,1,-10.65,0.1,-2.97,-7.45,0.89,6.96
14.66553497314453,2,3,3,1,-10.65,0.1,-2.97,-7.45,0.89,6.96
14.68553495407104,2,3,3,1,-11.24,0.24,-2.3,-5.67,0.28,5.53
14.68553495407104,2,3,3,1,-11.24,0.24,-2.3,-5.67,0.28,5.53
14.70553493499756,2,3,3,1,-11.7,0.38,-2.54,-7.56,1.08,4.13
14.70553493499756,2,3,3,1,-11.7,0.38,-2.54,-7.56,1.08,4.13
14.72553491592407,2,3,3,1,-12.39,-0.87,-2.17,-9.66,1.7,3.28
14.72553491592407,2,3,3,1,-12.39,-0.87,-2.17,-9.66,1.7,3.28
14.74553489685059,2,3,3,1,-12.9,-3.77,-0.76,-9.02,-0.43,2.14
14.74553489685059,2,3,3,1,-12.9,-3.77,-0.76,-9.02,-0.43,2.14
14.7655348777771,2,3,3,2,-12.62,-5.11,-0.17,-6.34,-3.4,0.65
14.7655348777771,2,3,3,2,-12.62,-5.11,-0.17,-6.34,-3.4,0.65
14.78553509712219,2,3,3,2,-14.31,-7.17,1.18,-3.11,-7.03,-3.09
14.78553509712219,2,3,3,2,-14.31,-7.17,1.18,-3.11,-7.03,-3.09
14.80553507804871,2,3,3,2,-13.34,-4.08,3.87,1.39,-10.38,-9.48
14.80553507804871,2,3,3,2,-13.34,-4.08,3.87,1.39,-10.38,-9.48
14.82553505897522,2,3,3,2,-10.64,-6.1,2.23,-6.11,-10.43,-13.5
14.82553505897522,2,3,3,2,-10.64,-6.1,2.23,-6.11,-10.43,-13.5
14.84553503990173,2,3,3,2,-11.5,-0.95,-4.41,-7.38,-9.32,-16.65
14.84553503990173,2,3,3,2,-11.5,-0.95,-4.41,-7.38,-9.32,-16.65
14.86553502082825,2,3,3,2,-14.65,1.94,-4.17,-1.64,-9.27,-19.42
14.86553502082825,2,3,3,2,-14.65,1.94,-4.17,-1.64,-9.27,-19.42
14.88553500175476,2,3,3,2,-16.05,5.15,-3.2,3.77,-9.289999999999999,-19.91
14.88553500175476,2,3,3,2,-16.05,5.15,-3.2,3.77,-9.289999999999999,-19.91
14.90553498268127,2,3,3,2,-14.44,6.99,-2.62,2.87,-7.62,-20.79
14.90553498268127,2,3,3,2,-14.44,6.99,-2.62,2.87,-7.62,-20.79
14.92553496360779,2,3,3,2,-11.75,5.63,-1.74,-0.64,-6.32,-22.88
14.92553496360779,2,3,3,2,-11.75,5.63,-1.74,-0.64,-6.32,-22.88
14.9455349445343,2,3,3,2,-11.79,5.61,-1.79,-1.1,-5.15,-22.75
14.9455349445343,2,3,3,2,-11.79,5.61,-1.79,-1.1,-5.15,-22.75
14.96553492546082,2,3,3,2,-11.22,7.07,-2.6,0.6899999999999999,-3.95,-22.12
14.96553492546082,2,3,3,2,-11.22,7.07,-2.6,0.6899999999999999,-3.95,-22.12
14.98653507232666,2,3,3,2,-10.86,6.19,-3.08,-0.37,-3.1,-22.7
14.98653507232666,2,3,3,2,-10.86,6.19,-3.08,-0.37,-3.1,-22.7
15.00653505325317,2,3,3,2,-9.99,4.57,-3.4,-0.57,-2.27,-22.91
15.00653505325317,2,3,3,2,-9.99,4.57,-3.4,-0.57,-2.27,-22.91
15.02653503417969,2,3,3,2,-8.710000000000001,3.93,-3.58,2.35,-1.68,-22.28
15.02653503417969,2,3,3,2,-8.710000000000001,3.93,-3.58,2.35,-1.68,-22.28
15.0465350151062,2,3,3,2,-7.28,3.39,-3.21,6.82,-1.57,-21.2
15.0465350151062,2,3,3,2,-7.28,3.39,-3.21,6.82,-1.57,-21.2
15.06653499603271,2,3,3,2,-7.22,4.18,-3.33,11.62,-1.4,-19.84
15.06653499603271,2,3,3,2,-7.22,4.18,-3.33,11.62,-1.4,-19.84
15.08653497695923,2,3,3,2,-6.85,4.89,-2.9,14.39,-1.62,-17.79
15.08653497695923,2,3,3,2,-6.85,4.89,-2.9,14.39,-1.62,-17.79
15.10653495788574,2,3,3,2,-6.68,4.84,-3.01,13.76,-0.91,-15.86
15.10653495788574,2,3,3,2,-6.68,4.84,-3.01,13.76,-0.91,-15.86
15.12653493881226,2,3,3,2,-6.64,4.78,-2.39,13.66,0.09,-13.33
15.12653493881226,2,3,3,2,-6.64,4.78,-2.39,13.66,0.09,-13.33
15.14653491973877,2,3,3,2,-6.25,4.21,-2.54,11.63,1.41,-11.47
15.14653491973877,2,3,3,2,-6.25,4.21,-2.54,11.63,1.41,-11.47
15.16653490066528,2,3,3,2,-5.79,3.81,-1.83,10.64,1.65,-9.67
15.16653490066528,2,3,3,2,-5.79,3.81,-1.83,10.64,1.65,-9.67
15.1865348815918,2,3,3,2,-4.93,3.83,-2.09,8.73,3,-7.39
15.1865348815918,2,3,3,2,-4.93,3.83,-2.09,8.73,3,-7.39
15.20653510093689,2,3,3,2,-5.13,1.35,-2.34,4.31,4.92,-4.7
15.20653510093689,2,3,3,2,-5.13,1.35,-2.34,4.31,4.92,-4.7
15.2265350818634,2,3,3,2,-6.34,0.17,-1.91,3.2,6.09,-2.43
15.2265350818634,2,3,3,2,-6.34,0.17,-1.91,3.2,6.09,-2.43
15.24653506278992,2,3,3,2,-8.42,-1.61,-0.42,5.17,4.53,-0.73
15.24653506278992,2,3,3,2,-8.42,-1.61,-0.42,5.17,4.53,-0.73
15.26653504371643,2,3,3,1,-9.74,-4.72,1.46,8.09,3.59,-0.27
15.26653504371643,2,3,3,1,-9.74,-4.72,1.46,8.09,3.59,-0.27
15.28653502464294,2,3,3,1,-11.99,-9.460000000000001,3.74,10.8,2.63,-1.16
15.28653502464294,2,3,3,1,-11.99,-9.460000000000001,3.74,10.8,2.63,-1.16
15.30653500556946,2,3,3,1,-14.26,-13.69,4.8,12.89,-3.66,-1.91
15.30653500556946,2,3,3,1,-14.26,-13.69,4.8,12.89,-3.66,-1.91
15.32653498649597,2,3,3,1,-13.14,-12.35,4.21,8.9,-5.88,-5.29
15.32653498649597,2,3,3,1,-13.14,-12.35,4.21,8.9,-5.88,-5.29
15.34653496742249,2,3,3,1,-9.890000000000001,-2.18,0.8100000000000001,5.92,-0.93,-2.91
15.34653496742249,2,3,3,1,-9.890000000000001,-2.18,0.8100000000000001,5.92,-0.93,-2.91
15.366534948349,2,3,3,1,-6.69,0.63,-2.91,2.92,5.65,-1.33
15.366534948349,2,3,3,1,-6.69,0.63,-2.91,2.92,5.65,-1.33
15.38653492927551,2,3,3,1,-6.36,-0.54,-3.59,-4.99,14.59,-0.64
15.38653492927551,2,3,3,1,-6.36,-0.54,-3.59,-4.99,14.59,-0.64
15.40653491020203,2,3,3,1,-13.13,-6.08,1.78,5.16,6.63,8.42
15.40653491020203,2,3,3,1,-13.13,-6.08,1.78,5.16,6.63,8.42
15.42653489112854,2,3,3,1,-16.07,-12.62,6.12,15.71,-0.08,4.37
15.42653489112854,2,3,3,1,-16.07,-12.62,6.12,15.71,-0.08,4.37
15.44653511047363,2,3,3,1,-15.69,0.76,-0.04,19.75,4.45,9.84
15.44653511047363,2,3,3,1,-15.69,0.76,-0.04,19.75,4.45,9.84
15.46653509140015,2,3,3,1,-11.36,7.95,2.96,9.300000000000001,5.89,11.29
15.46653509140015,2,3,3,1,-11.36,7.95,2.96,9.300000000000001,5.89,11.29
15.48653507232666,3,3,3,1,-7.64,8,-9.17,-0.58,11.87,10.55
15.48653507232666,3,3,3,1,-7.64,8,-9.17,-0.58,11.87,10.55
15.50653505325317,3,3,3,0,-5.99,2.39,-6.12,-6.04,12.23,10.69
15.50653505325317,3,3,3,0,-5.99,2.39,-6.12,-6.04,12.23,10.69
15.52653503417969,3,3,3,0,-8.85,2.74,-6.1,-5.02,7.95,11.35
15.52653503417969,3,3,3,0,-8.85,2.74,-6.1,-5.02,7.95,11.35
15.5465350151062,3,3,3,0,-9.15,1.96,-4.34,-1.1,6.26,11.29
15.5465350151062,3,3,3,0,-9.15,1.96,-4.34,-1.1,6.26,11.29
15.56653499603271,3,3,3,0,-11.02,0.49,-1.79,2.41,5.45,12.83
15.56653499603271,3,3,3,0,-11.02,0.49,-1.79,2.41,5.45,12.83
15.58653497695923,3,3,3,0,-10.32,2.73,-2.88,4.31,7.48,14.19
15.58653497695923,3,3,3,0,-10.32,2.73,-2.88,4.31,7.48,14.19
15.60653495788574,3,3,3,0,-8.720000000000001,2.28,-2.94,2.91,6.69,14.05
15.60653495788574,3,3,3,0,-8.720000000000001,2.28,-2.94,2.91,6.69,14.05
15.62653493881226,3,3,3,0,-8.52,0.67,-3.68,2.36,6.86,13.68
15.62653493881226,3,3,3,0,-8.52,0.67,-3.68,2.36,6.86,13.68
15.64653491973877,3,3,3,0,-8.800000000000001,0.79,-3.62,0.75,7,12.84
15.64653491973877,3,3,3,0,-8.800000000000001,0.79,-3.62,0.75,7,12.84
15.66653490066528,3,3,3,0,-8.970000000000001,1.37,-2.38,-2.42,5.56,11.8
15.66653490066528,3,3,3,0,-8.970000000000001,1.37,-2.38,-2.42,5.56,11.8
15.6865348815918,3,3,3,0,-9.130000000000001,1.62,-2.23,-8.9,5.09,11.51
15.6865348815918,3,3,3,0,-9.130000000000001,1.62,-2.23,-8.9,5.09,11.51
15.70653510093689,3,3,3,0,-9.6,-0.32,-2.46,-15.76,4.89,11.61
15.70653510093689,3,3,3,0,-9.6,-0.32,-2.46,-15.76,4.89,11.61
15.7265350818634,3,3,3,0,-9.59,-2.82,-2.77,-16.84,5.14,11.03
15.7265350818634,3,3,3,0,-9.59,-2.82,-2.77,-16.84,5.14,11.03
15.74653506278992,3,3,3,0,-9.640000000000001,-2.5,-2.28,-13.36,7.3,10.4
15.74653506278992,3,3,3,0,-9.640000000000001,-2.5,-2.28,-13.36,7.3,10.4
15.76653504371643,3,3,3,0,-10.09,-1.15,-3.67,-9.130000000000001,6.04,8.09
15.76653504371643,3,3,3,0,-10.09,-1.15,-3.67,-9.130000000000001,6.04,8.09
15.78653502464294,3,3,3,0,-9.69,0.6899999999999999,-3.41,-4.99,2.85,6.06
15.78653502464294,3,3,3,0,-9.69,0.6899999999999999,-3.41,-4.99,2.85,6.06
15.80653500556946,3,3,3,0,-9.32,1.49,-2.55,-4.3,2.65,6.16
15.80653500556946,3,3,3,0,-9.32,1.49,-2.55,-4.3,2.65,6.16
15.82653498649597,3,3,3,0,-8.720000000000001,1.41,-2.11,-5.12,2.82,6.74
15.82653498649597,3,3,3,0,-8.720000000000001,1.41,-2.11,-5.12,2.82,6.74
15.84653496742249,3,3,3,0,-9.24,1.6,-2.28,-6.89,3.98,7.02
15.84653496742249,3,3,3,0,-9.24,1.6,-2.28,-6.89,3.98,7.02
15.866534948349,3,3,3,1,-9.470000000000001,2.03,-2.25,-9.109999999999999,4.36,6.78
15.866534948349,3,3,3,1,-9.470000000000001,2.03,-2.25,-9.109999999999999,4.36,6.78
15.88653492927551,3,3,3,1,-9.52,1.89,-2.47,-10.59,3.87,6.52
15.88653492927551,3,3,3,1,-9.52,1.89,-2.47,-10.59,3.87,6.52
15.90653491020203,3,3,3,1,-9.34,1.88,-2.55,-10.1,2.83,6.61
15.90653491020203,3,3,3,1,-9.34,1.88,-2.55,-10.1,2.83,6.61
15.92653489112854,3,3,3,1,-9.09,1.56,-2.88,-9.279999999999999,2.93,6.58
15.92653489112854,3,3,3,1,-9.09,1.56,-2.88,-9.279999999999999,2.93,6.58
15.94653511047363,3,3,3,1,-9.289999999999999,1.5,-2.55,-7.81,3.12,6.76
15.94653511047363,3,3,3,1,-9.289999999999999,1.5,-2.55,-7.81,3.12,6.76
15.96653509140015,3,3,3,1,-9.31,1.54,-2.64,-7.59,3.05,7.01
15.96653509140015,3,3,3,1,-9.31,1.54,-2.64,-7.59,3.05,7.01
15.98653507232666,3,3,3,1,-9.300000000000001,0.7,-2.59,-7.95,3.14,7.32
15.98653507232666,3,3,3,1,-9.300000000000001,0.7,-2.59,-7.95,3.14,7.32
16.00753498077393,3,3,3,1,-9.34,0.44,-2.42,-6.96,2.89,7.63
16.00753498077393,3,3,3,1,-9.34,0.44,-2.42,-6.96,2.89,7.63
16.02753496170044,3,3,3,1,-9.880000000000001,0.8,-2.61,-5.99,2.05,7.87
16.02753496170044,3,3,3,1,-9.880000000000001,0.8,-2.61,-5.99,2.05,7.87
16.04753494262695,3,3,3,1,-10.82,1.41,-2.49,-5.18,0.61,7.04
16.04753494262695,3,3,3,1,-10.82,1.41,-2.49,-5.18,0.61,7.04
16.06753492355347,3,3,3,1,-11.05,1.32,-2.13,-6.41,1.17,5.74
16.06753492355347,3,3,3,1,-11.05,1.32,-2.13,-6.41,1.17,5.74
16.08753490447998,3,3,3,1,-11.53,1.49,-2.11,-9.550000000000001,2.07,4.23
16.08753490447998,3,3,3,1,-11.53,1.49,-2.11,-9.550000000000001,2.07,4.23
16.10753488540649,3,3,3,1,-11.58,-1.35,-2.23,-13.57,3.09,3.5
16.10753488540649,3,3,3,1,-11.58,-1.35,-2.23,-13.57,3.09,3.5
16.12753510475159,3,3,3,1,-12.87,-2.93,-1.63,-12.05,1.1,2.99
16.12753510475159,3,3,3,1,-12.87,-2.93,-1.63,-12.05,1.1,2.99
16.1475350856781,3,3,3,1,-11.92,-4.23,-0.92,-7.68,-2.31,1.96
16.1475350856781,3,3,3,1,-11.92,-4.23,-0.92,-7.68,-2.31,1.96
16.16753506660461,3,3,3,2,-14.55,-5.28,1.29,-3.5,-5.91,-0.7
16.16753506660461,3,3,3,2,-14.55,-5.28,1.29,-3.5,-5.91,-0.7
16.18753504753113,3,3,3,2,-14.96,-5.35,2.67,-0.84,-10.14,-6.8
16.18753504753113,3,3,3,2,-14.96,-5.35,2.67,-0.84,-10.14,-6.8
16.20753502845764,3,3,3,2,-11.43,-4.67,3.5,-5.08,-11.34,-12.25
16.20753502845764,3,3,3,2,-11.43,-4.67,3.5,-5.08,-11.34,-12.25
16.22753500938416,3,3,3,2,-9.619999999999999,-3.09,-1.78,-12.19,-9.19,-14.5
16.22753500938416,3,3,3,2,-9.619999999999999,-3.09,-1.78,-12.19,-9.19,-14.5
16.24753499031067,3,3,3,2,-12.85,1.09,-4.79,-6.85,-8.74,-18.16
16.24753499031067,3,3,3,2,-12.85,1.09,-4.79,-6.85,-8.74,-18.16
16.26753497123718,3,3,3,2,-14.44,1.46,-4.16,0.59,-9.050000000000001,-19.8
16.26753497123718,3,3,3,2,-14.44,1.46,-4.16,0.59,-9.050000000000001,-19.8
16.2875349521637,3,3,3,2,-14.68,5.16,-3.74,4.39,-7.55,-20.15
16.2875349521637,3,3,3,2,-14.68,5.16,-3.74,4.39,-7.55,-20.15
16.30753493309021,3,3,3,2,-12.11,5.84,-2.8,2.81,-6.16,-21.4
16.30753493309021,3,3,3,2,-12.11,5.84,-2.8,2.81,-6.16,-21.4
16.32753491401672,3,3,3,2,-11.89,5.6,-1.66,2.64,-5.4,-22.66
16.32753491401672,3,3,3,2,-11.89,5.6,-1.66,2.64,-5.4,-22.66
16.34753489494324,3,3,3,2,-11.96,6.4,-1.78,4,-4.32,-21.75
16.34753489494324,3,3,3,2,-11.96,6.4,-1.78,4,-4.32,-21.75
16.36753487586975,3,3,3,2,-11.48,7.21,-2.25,2.11,-3.47,-21.52
16.36753487586975,3,3,3,2,-11.48,7.21,-2.25,2.11,-3.47,-21.52
16.38753509521484,3,3,3,2,-10.64,5.94,-2.63,1.06,-2.82,-21.46
16.38753509521484,3,3,3,2,-10.64,5.94,-2.63,1.06,-2.82,-21.46
16.40753507614136,3,3,3,2,-9.02,4.48,-2.88,2.06,-2.62,-21.5
16.40753507614136,3,3,3,2,-9.02,4.48,-2.88,2.06,-2.62,-21.5
16.42753505706787,3,3,3,2,-8.02,3.5,-3.25,8.890000000000001,-1.9,-20.09
16.42753505706787,3,3,3,2,-8.02,3.5,-3.25,8.890000000000001,-1.9,-20.09
16.44753503799438,3,3,3,2,-7.68,3.18,-3.3,11.74,-2.07,-19.54
16.44753503799438,3,3,3,2,-7.68,3.18,-3.3,11.74,-2.07,-19.54
16.4675350189209,3,3,3,2,-7.47,4.98,-3.25,13.96,-3,-17.3
16.4675350189209,3,3,3,2,-7.47,4.98,-3.25,13.96,-3,-17.3
16.48753499984741,3,3,3,2,-7.12,4.91,-2.69,11.98,-1.6,-15.98
16.48753499984741,3,3,3,2,-7.12,4.91,-2.69,11.98,-1.6,-15.98
16.50753498077393,3,3,3,2,-7.5,4.29,-2.24,11.8,-1.18,-15.07
16.50753498077393,3,3,3,2,-7.5,4.29,-2.24,11.8,-1.18,-15.07
16.52753496170044,3,3,3,2,-6.68,4.37,-2.56,8.33,0.59,-11.89
16.52753496170044,3,3,3,2,-6.68,4.37,-2.56,8.33,0.59,-11.89
16.54753494262695,3,3,3,2,-6.4,3.8,-2.51,6.37,1.1,-11.1
16.54753494262695,3,3,3,2,-6.4,3.8,-2.51,6.37,1.1,-11.1
16.56753492355347,3,3,3,2,-5.84,3.06,-2.55,2.73,3.1,-8.300000000000001
16.56753492355347,3,3,3,2,-5.84,3.06,-2.55,2.73,3.1,-8.300000000000001
16.58753490447998,3,3,3,2,-5.45,2.54,-2.72,0.48,4,-5.84
16.58753490447998,3,3,3,2,-5.45,2.54,-2.72,0.48,4,-5.84
16.60753488540649,3,3,3,2,-5.68,0.07000000000000001,-1.8,0.79,4.31,-4.17
16.60753488540649,3,3,3,2,-5.68,0.07000000000000001,-1.8,0.79,4.31,-4.17
16.62753510475159,3,3,3,2,-6.3,-0.76,-1.86,6.8,4.97,-0.24
16.62753510475159,3,3,3,2,-6.3,-0.76,-1.86,6.8,4.97,-0.24
16.6475350856781,3,3,3,2,-8.710000000000001,-1.86,-0.53,10.57,4.35,-0.18
16.6475350856781,3,3,3,2,-8.710000000000001,-1.86,-0.53,10.57,4.35,-0.18
16.66753506660461,3,3,3,2,-10.21,-4.41,1.32,16,0.91,-0.95
16.66753506660461,3,3,3,2,-10.21,-4.41,1.32,16,0.91,-0.95
16.68753504753113,3,3,3,2,-12.2,-9.44,4.82,15.96,-3.44,-1.8
16.68753504753113,3,3,3,2,-12.2,-9.44,4.82,15.96,-3.44,-1.8
16.70753502845764,3,3,3,2,-13.77,-13.27,4.95,14.78,-5.69,-2.92
16.70753502845764,3,3,3,2,-13.77,-13.27,4.95,14.78,-5.69,-2.92
16.72753500938416,3,3,3,2,-11.5,-10.43,3.75,6.73,-3.29,-4.25
16.72753500938416,3,3,3,2,-11.5,-10.43,3.75,6.73,-3.29,-4.25
16.74753499031067,3,3,3,2,-9.81,-1.72,0.86,6.72,-0.54,-3.75
16.74753499031067,3,3,3,2,-9.81,-1.72,0.86,6.72,-0.54,-3.75
16.76753497123718,3,3,3,2,-6.22,1.35,-2.61,-2.35,9.68,-3.82
16.76753497123718,3,3,3,2,-6.22,1.35,-2.61,-2.35,9.68,-3.82
16.7875349521637,3,3,3,2,-4.12,2.03,-3.44,-8.109999999999999,8.609999999999999,8.67
16.7875349521637,3,3,3,2,-4.12,2.03,-3.44,-8.109999999999999,8.609999999999999,8.67
16.80753493309021,3,3,3,2,-12.6,-1.47,-0.1,-1.49,5.32,8.210000000000001
16.80753493309021,3,3,3,2,-12.6,-1.47,-0.1,-1.49,5.32,8.210000000000001
16.82753491401672,3,3,3,2,-17.71,-13.65,6.95,10.12,4.62,4.71
16.82753491401672,3,3,3,2,-17.71,-13.65,6.95,10.12,4.62,4.71
16.84753489494324,3,3,3,2,-17.22,-3.38,0.97,13.01,6.65,8.210000000000001
16.84753489494324,3,3,3,2,-17.22,-3.38,0.97,13.01,6.65,8.210000000000001
16.86753487586975,3,3,3,2,-11.12,7.13,1.35,4.75,8.84,9.359999999999999
16.86753487586975,3,3,3,2,-11.12,7.13,1.35,4.75,8.84,9.359999999999999
16.88753509521484,3,3,3,2,-9.57,8.1,-9.220000000000001,-1.42,12.33,11.66
16.88753509521484,3,3,3,2,-9.57,8.1,-9.220000000000001,-1.42,12.33,11.66
16.90753507614136,3,3,3,2,-5.18,1.88,-7.11,-5.51,12.48,12.03
16.90753507614136,3,3,3,2,-5.18,1.88,-7.11,-5.51,12.48,12.03
16.92753505706787,3,3,3,2,-8.25,1.26,-6.15,0.71,6.51,12.68
16.92753505706787,3,3,3,2,-8.25,1.26,-6.15,0.71,6.51,12.68
16.94753503799438,3,3,3,2,-8.720000000000001,3.05,-3.82,2.53,6.22,12.34
16.94753503799438,3,3,3,2,-8.720000000000001,3.05,-3.82,2.53,6.22,12.34
16.9675350189209,3,3,3,2,-9.94,1.46,-2.45,3.67,5.99,13.14
16.9675350189209,3,3,3,2,-9.94,1.46,-2.45,3.67,5.99,13.14
16.98753499984741,3,3,3,2,-11.4,1.36,-0.47,3.3,6.81,13.19
16.98753499984741,3,3,3,2,-11.4,1.36,-0.47,3.3,6.81,13.19
17.00753498077393,3,3,3,2,-9.44,1.97,-1.83,1.84,6.65,12.98
17.00753498077393,3,3,3,2,-9.44,1.97,-1.83,1.84,6.65,12.98
17.02853488922119,3,3,3,2,-8.539999999999999,-0.03,-3.36,0.15,6.23,12.19
17.02853488922119,3,3,3,2,-8.539999999999999,-0.03,-3.36,0.15,6.23,12.19
17.04853510856628,3,3,3,2,-8.41,-0.52,-3.92,0,6.34,11.82
17.04853510856628,3,3,3,2,-8.41,-0.52,-3.92,0,6.34,11.82
17.0685350894928,3,3,3,2,-8.84,-0.13,-3.19,-0.99,4.77,10.9
17.0685350894928,3,3,3,2,-8.84,-0.13,-3.19,-0.99,4.77,10.9
17.08853507041931,3,3,3,2,-9.27,0.8,-2.38,-4.63,4.01,10.74
17.08853507041931,3,3,3,2,-9.27,0.8,-2.38,-4.63,4.01,10.74
17.10853505134583,3,3,3,2,-9.859999999999999,1.07,-1.92,-6.92,4.14,10.48
17.10853505134583,3,3,3,2,-9.859999999999999,1.07,-1.92,-6.92,4.14,10.48
17.12853503227234,3,3,3,2,-10.25,0.9,-1.67,-12.45,3.91,9.130000000000001
17.12853503227234,3,3,3,2,-10.25,0.9,-1.67,-12.45,3.91,9.130000000000001
17.14853501319885,3,3,3,2,-9.220000000000001,-1.61,-2.79,-12.22,4.32,9.039999999999999
17.14853501319885,3,3,3,2,-9.220000000000001,-1.61,-2.79,-12.22,4.32,9.039999999999999
17.16853499412537,3,3,3,2,-9.33,-1.62,-2.89,-10.91,4.74,9.31
17.16853499412537,3,3,3,2,-9.33,-1.62,-2.89,-10.91,4.74,9.31
17.18853497505188,3,3,3,2,-9.23,-0.19,-2.84,-9.949999999999999,4.2,8.470000000000001
17.18853497505188,3,3,3,2,-9.23,-0.19,-2.84,-9.949999999999999,4.2,8.470000000000001
17.20853495597839,3,3,3,2,-9.109999999999999,0.22,-2.33,-9.81,4.17,8.08
17.20853495597839,3,3,3,2,-9.109999999999999,0.22,-2.33,-9.81,4.17,8.08
17.22853493690491,3,3,3,2,-9.25,-0.12,-2.71,-7.09,4.48,6.78
17.22853493690491,3,3,3,2,-9.25,-0.12,-2.71,-7.09,4.48,6.78
17.24853491783142,3,3,3,2,-9.91,0.76,-3.01,-5.52,3.73,6.36
17.24853491783142,3,3,3,2,-9.91,0.76,-3.01,-5.52,3.73,6.36
17.26853489875793,3,3,3,2,-9.57,2.63,-2.72,-5.46,2.67,5.83
17.26853489875793,3,3,3,2,-9.57,2.63,-2.72,-5.46,2.67,5.83
17.28853487968445,3,3,3,2,-9.039999999999999,2,-2.2,-7.3,2.89,5.71
17.28853487968445,3,3,3,2,-9.039999999999999,2,-2.2,-7.3,2.89,5.71
17.30853509902954,3,3,3,2,-8.9,1.43,-2.22,-7.97,3.37,5.85
17.30853509902954,3,3,3,2,-8.9,1.43,-2.22,-7.97,3.37,5.85
17.32853507995605,3,3,3,2,-9.06,1.2,-2.42,-7.74,3.48,5.89
17.32853507995605,3,3,3,2,-9.06,1.2,-2.42,-7.74,3.48,5.89
17.34853506088257,3,3,3,2,-9.74,1.84,-2.79,-7.28,3.34,5.96
17.34853506088257,3,3,3,2,-9.74,1.84,-2.79,-7.28,3.34,5.96
17.36853504180908,3,3,3,2,-9.619999999999999,1.79,-2.84,-7.2,2.78,6.05
17.36853504180908,3,3,3,2,-9.619999999999999,1.79,-2.84,-7.2,2.78,6.05
17.3885350227356,3,3,3,2,-9.4,0.95,-2.82,-7.24,3,5.62
17.3885350227356,3,3,3,2,-9.4,0.95,-2.82,-7.24,3,5.62
17.40853500366211,3,3,3,2,-9.4,0.86,-2.09,-6.55,2.93,5.51
17.40853500366211,3,3,3,2,-9.4,0.86,-2.09,-6.55,2.93,5.51
17.42853498458862,3,3,3,2,-9.5,1.06,-1.98,-6.42,3.05,6.02
17.42853498458862,3,3,3,2,-9.5,1.06,-1.98,-6.42,3.05,6.02
17.44853496551514,3,3,3,2,-9.84,1.12,-2.28,-6.56,3,6.22
17.44853496551514,3,3,3,2,-9.84,1.12,-2.28,-6.56,3,6.22
17.46853494644165,3,3,3,2,-10.6,0.8100000000000001,-2.52,-5.92,1.17,5.46
17.46853494644165,3,3,3,2,-10.6,0.8100000000000001,-2.52,-5.92,1.17,5.46
17.48853492736816,3,3,3,2,-10.72,0.9399999999999999,-2.45,-6.68,1.41,4.39
17.48853492736816,3,3,3,2,-10.72,0.9399999999999999,-2.45,-6.68,1.41,4.39
17.50853490829468,3,3,3,2,-11.14,0.88,-2.28,-8.93,2,3.56
17.50853490829468,3,3,3,2,-11.14,0.88,-2.28,-8.93,2,3.56
17.52853488922119,3,3,3,2,-10.99,-1.8,-1.98,-11.57,2.1,3.16
17.52853488922119,3,3,3,2,-10.99,-1.8,-1.98,-11.57,2.1,3.16
17.54853510856628,3,3,3,2,-12.1,-2.53,-1.7,-11.95,2.39,3.34
17.54853510856628,3,3,3,2,-12.1,-2.53,-1.7,-11.95,2.39,3.34
17.5685350894928,3,3,3,2,-11.73,-3.83,-0.47,-7.57,-1.59,2.69
17.5685350894928,3,3,3,2,-11.73,-3.83,-0.47,-7.57,-1.59,2.69
17.58853507041931,3,3,3,2,-12.97,-5.27,0.64,-5.07,-4.11,0.36
17.58853507041931,3,3,3,2,-12.97,-5.27,0.64,-5.07,-4.11,0.36
17.60853505134583,3,3,3,2,-13.67,-5.12,1.86,-2.73,-5.94,-1.94
17.60853505134583,3,3,3,2,-13.67,-5.12,1.86,-2.73,-5.94,-1.94
17.62853503227234,3,3,3,2,-12.01,-2.41,2.63,-3.17,-10.36,-9.109999999999999
17.62853503227234,3,3,3,2,-12.01,-2.41,2.63,-3.17,-10.36,-9.109999999999999
17.64853501319885,3,3,3,2,-9.98,-3.06,-0.65,-8.41,-9.92,-10.45
17.64853501319885,3,3,3,2,-9.98,-3.06,-0.65,-8.41,-9.92,-10.45
17.66853499412537,3,3,3,2,-12.04,0.52,-4.21,-8.869999999999999,-7.48,-16.98
17.66853499412537,3,3,3,2,-12.04,0.52,-4.21,-8.869999999999999,-7.48,-16.98
17.68853497505188,3,3,3,2,-13.98,2.31,-3.15,-1.95,-8.19,-18.54
17.68853497505188,3,3,3,2,-13.98,2.31,-3.15,-1.95,-8.19,-18.54
17.70853495597839,3,3,3,2,-14.66,3.34,-3.39,0.54,-7.49,-18.24
17.70853495597839,3,3,3,2,-14.66,3.34,-3.39,0.54,-7.49,-18.24
17.72853493690491,3,3,3,2,-11.89,5.97,-1.88,0.31,-6.78,-18.74
17.72853493690491,3,3,3,2,-11.89,5.97,-1.88,0.31,-6.78,-18.74
17.74853491783142,3,3,3,2,-11.72,5.17,-1.34,-0.13,-6.17,-19.73
17.74853491783142,3,3,3,2,-11.72,5.17,-1.34,-0.13,-6.17,-19.73
17.76853489875793,3,3,3,2,-11.97,6.59,-1.9,1.36,-4.19,-20.07
17.76853489875793,3,3,3,2,-11.97,6.59,-1.9,1.36,-4.19,-20.07
17.78853487968445,3,3,3,2,-10.92,6.63,-1.94,0.58,-3.44,-19.52
17.78853487968445,3,3,3,2,-10.92,6.63,-1.94,0.58,-3.44,-19.52
17.80853509902954,3,3,3,2,-10.29,5.43,-2.21,-0.35,-3.5,-19.75
17.80853509902954,3,3,3,2,-10.29,5.43,-2.21,-0.35,-3.5,-19.75
17.82853507995605,3,3,3,2,-9.15,2.6,-2.67,2.54,-2.3,-19.86
17.82853507995605,3,3,3,2,-9.15,2.6,-2.67,2.54,-2.3,-19.86
17.84853506088257,3,3,3,2,-8.789999999999999,2.97,-2.87,5.47,-2.08,-19.69
17.84853506088257,3,3,3,2,-8.789999999999999,2.97,-2.87,5.47,-2.08,-19.69
17.86853504180908,3,3,3,2,-8.380000000000001,4.2,-3.29,11.43,-2.37,-18.92
17.86853504180908,3,3,3,2,-8.380000000000001,4.2,-3.29,11.43,-2.37,-18.92
17.8885350227356,3,3,3,2,-7.9,5.09,-3.24,11.96,-3.42,-18.3
17.8885350227356,3,3,3,2,-7.9,5.09,-3.24,11.96,-3.42,-18.3
17.90853500366211,3,3,3,2,-7.22,4.45,-2.78,10.88,-3.24,-17.42
17.90853500366211,3,3,3,2,-7.22,4.45,-2.78,10.88,-3.24,-17.42
17.92853498458862,3,3,3,2,-7.44,4.03,-2.47,10.56,-1.61,-16.44
17.92853498458862,3,3,3,2,-7.44,4.03,-2.47,10.56,-1.61,-16.44
17.94853496551514,3,3,3,2,-7.25,4.19,-2.28,10.79,-1.3,-15.72
17.94853496551514,3,3,3,2,-7.25,4.19,-2.28,10.79,-1.3,-15.72
17.96853494644165,3,3,3,2,-6.57,3.84,-2.11,9.49,-0.8100000000000001,-12.6
17.96853494644165,3,3,3,2,-6.57,3.84,-2.11,9.49,-0.8100000000000001,-12.6
17.98853492736816,3,3,3,2,-6.16,2.88,-2.09,7.81,0.36,-10.06
17.98853492736816,3,3,3,2,-6.16,2.88,-2.09,7.81,0.36,-10.06
18.00853490829468,3,3,3,2,-6.34,0.57,-1.88,4.3,2.14,-7.8
18.00853490829468,3,3,3,2,-6.34,0.57,-1.88,4.3,2.14,-7.8
18.02853488922119,3,3,3,2,-7.27,-1.32,-0.85,3.77,2.99,-5.69
18.02853488922119,3,3,3,2,-7.27,-1.32,-0.85,3.77,2.99,-5.69
18.04953503608704,3,3,3,2,-7.71,-1.73,-0.84,6.91,2.8,-3.56
18.04953503608704,3,3,3,2,-7.71,-1.73,-0.84,6.91,2.8,-3.56
18.06953501701355,3,3,3,2,-9.76,-2.47,-0.02,11.92,2.75,-2.61
18.06953501701355,3,3,3,2,-9.76,-2.47,-0.02,11.92,2.75,-2.61
18.08953499794006,3,3,3,2,-9.92,-3.81,0.47,15.8,-0.22,-2.27
18.08953499794006,3,3,3,2,-9.92,-3.81,0.47,15.8,-0.22,-2.27
18.10953497886658,3,3,3,2,-10.04,-3.65,1.91,14.94,-3.47,-2.47
18.10953497886658,3,3,3,2,-10.04,-3.65,1.91,14.94,-3.47,-2.47
18.12953495979309,3,3,3,2,-10.65,-4.87,2.36,9.26,-6.87,-2.16
18.12953495979309,3,3,3,2,-10.65,-4.87,2.36,9.26,-6.87,-2.16
18.1495349407196,3,3,3,2,-10.61,-6.45,3.3,4.13,-7.3,-2.67
18.1495349407196,3,3,3,2,-10.61,-6.45,3.3,4.13,-7.3,-2.67
18.16953492164612,3,3,3,2,-9.06,-5.37,2.4,-0.42,-3.96,-4.53
18.16953492164612,3,3,3,2,-9.06,-5.37,2.4,-0.42,-3.96,-4.53
18.18953490257263,3,3,3,2,-8.09,-1.82,-0.34,-2.68,-0.46,-4.66
18.18953490257263,3,3,3,2,-8.09,-1.82,-0.34,-2.68,-0.46,-4.66
18.20953488349915,3,3,3,2,-7.76,-0.25,-0.53,-7.42,4.98,-3.47
18.20953488349915,3,3,3,2,-7.76,-0.25,-0.53,-7.42,4.98,-3.47
18.22953510284424,3,3,3,2,-6.18,2.85,-1.2,-13.78,8.529999999999999,4.39
18.22953510284424,3,3,3,2,-6.18,2.85,-1.2,-13.78,8.529999999999999,4.39
18.24953508377075,3,3,3,2,-9.619999999999999,3.17,-1.86,-7.97,9.359999999999999,6.19
18.24953508377075,3,3,3,2,-9.619999999999999,3.17,-1.86,-7.97,9.359999999999999,6.19
18.26953506469727,3,3,3,2,-17.37,-13.95,5.17,-7.97,3.17,4.36
18.26953506469727,3,3,3,2,-17.37,-13.95,5.17,-7.97,3.17,4.36
18.28953504562378,3,3,3,2,-20.24,-10.79,4.75,-2.87,2.15,2.76
18.28953504562378,3,3,3,2,-20.24,-10.79,4.75,-2.87,2.15,2.76
18.30953502655029,3,3,3,2,-10.64,3.76,1.55,2.34,0.91,7.59
18.30953502655029,3,3,3,2,-10.64,3.76,1.55,2.34,0.91,7.59
18.32953500747681,3,3,3,2,-7.71,6.08,-5.72,1.01,7.66,6.73
18.32953500747681,3,3,3,2,-7.71,6.08,-5.72,1.01,7.66,6.73
18.34953498840332,3,3,3,2,-6.16,-0.27,-8.460000000000001,-3.94,8.710000000000001,6.59
18.34953498840332,3,3,3,2,-6.16,-0.27,-8.460000000000001,-3.94,8.710000000000001,6.59
18.36953496932983,3,3,3,2,-10.96,-1.82,-4.25,-3.4,6.42,7.18
18.36953496932983,3,3,3,2,-10.96,-1.82,-4.25,-3.4,6.42,7.18
18.38953495025635,3,3,3,2,-8.98,5.79,-2.62,1.74,3.65,9.970000000000001
18.38953495025635,3,3,3,2,-8.98,5.79,-2.62,1.74,3.65,9.970000000000001
18.40953493118286,3,3,3,2,-8.869999999999999,3.77,-2.76,-0.36,5.26,9.130000000000001
18.40953493118286,3,3,3,2,-8.869999999999999,3.77,-2.76,-0.36,5.26,9.130000000000001
18.42953491210938,3,3,3,2,-10.94,-0.86,-1.89,-4.11,4.52,7.82
18.42953491210938,3,3,3,2,-10.94,-0.86,-1.89,-4.11,4.52,7.82
18.44953489303589,3,3,3,2,-9.35,-1.04,-2.64,-3.03,3.83,8.01
18.44953489303589,3,3,3,2,-9.35,-1.04,-2.64,-3.03,3.83,8.01
18.46953511238098,3,3,3,2,-8.960000000000001,-1.05,-3.08,-1.65,3.13,8.050000000000001
18.46953511238098,3,3,3,2,-8.960000000000001,-1.05,-3.08,-1.65,3.13,8.050000000000001
18.4895350933075,3,3,3,2,-9.08,-1.01,-3.21,-0.65,2.91,7.87
18.4895350933075,3,3,3,2,-9.08,-1.01,-3.21,-0.65,2.91,7.87
18.50953507423401,3,3,3,2,-9.49,-0.54,-2.82,0.8,2.82,7.44
18.50953507423401,3,3,3,2,-9.49,-0.54,-2.82,0.8,2.82,7.44
18.52953505516052,3,3,3,2,-9.619999999999999,0.35,-2.1,1.7,2.78,7.27
18.52953505516052,3,3,3,2,-9.619999999999999,0.35,-2.1,1.7,2.78,7.27
18.54953503608704,3,3,3,2,-9.529999999999999,0.61,-2.31,2.07,2.6,7.56
18.54953503608704,3,3,3,2,-9.529999999999999,0.61,-2.31,2.07,2.6,7.56
18.56953501701355,3,3,3,2,-9.039999999999999,1.08,-2.76,1.82,2.45,7.46
18.56953501701355,3,3,3,2,-9.039999999999999,1.08,-2.76,1.82,2.45,7.46
18.58953499794006,3,3,3,2,-9.18,0.35,-2.74,1.71,2.74,7.08
18.58953499794006,3,3,3,2,-9.18,0.35,-2.74,1.71,2.74,7.08
18.60953497886658,3,3,3,2,-9.56,-0.96,-2.63,1.27,2.52,6.45
18.60953497886658,3,3,3,2,-9.56,-0.96,-2.63,1.27,2.52,6.45
18.62953495979309,3,3,3,2,-9.550000000000001,-1.65,-2.11,0.53,2.29,5.77
18.62953495979309,3,3,3,2,-9.550000000000001,-1.65,-2.11,0.53,2.29,5.77
18.6495349407196,3,3,3,2,-9.710000000000001,-1.73,-1.53,0.52,2.36,4.77
18.6495349407196,3,3,3,2,-9.710000000000001,-1.73,-1.53,0.52,2.36,4.77
18.66953492164612,3,3,3,2,-9.77,-1.52,-1.48,0.55,2.17,3.71
18.66953492164612,3,3,3,2,-9.77,-1.52,-1.48,0.55,2.17,3.71
