timestamp,magCalib,accCalib,gyrCalib,sysCalib,accX,accY,accZ,gyrX,gyrY,gyrZ
-0.02246499061584473,2,3,3,3,-9.539999999999999,-0.75,2.28,0.05,-0.08,0.15
-0.01246500015258789,2,3,3,3,-9.539999999999999,-0.75,2.18,0.07000000000000001,-0.09,0.12
-0.002465009689331055,2,3,3,3,-9.52,-0.71,2.24,0.19,-0.2,0.13
0.007534980773925781,2,3,3,3,-9.52,-0.74,2.28,0.21,-0.37,0.16
0.01753497123718262,2,3,3,3,-9.49,-0.73,2.34,0.18,-0.47,0.21
0.02753496170043945,2,3,3,3,-9.48,-0.74,2.3,0.12,-0.5,0.27
0.03753495216369629,2,3,3,3,-9.49,-0.77,2.23,0.09,-0.46,0.34
0.04753494262695312,2,3,3,3,-9.48,-0.78,2.26,0.08,-0.57,0.39
0.05753493309020996,2,3,3,3,-9.460000000000001,-0.77,2.25,-0.05,-0.7,0.44
0.0675349235534668,2,3,3,3,-9.550000000000001,-0.82,2.29,-0.11,-0.68,0.45
0.07753491401672363,2,3,3,3,-9.550000000000001,-0.8100000000000001,2.22,-0.03,-0.67,0.49
0.08753490447998047,2,3,3,3,-9.57,-0.8,2.17,0.04,-0.75,0.52
0.0975348949432373,2,3,3,3,-9.59,-0.77,2.25,0.21,-0.79,0.54
0.1075348854064941,2,3,3,3,-9.5,-0.78,2.34,0.33,-1,0.57
0.117534875869751,2,3,3,3,-9.470000000000001,-0.78,2.38,0.35,-1.14,0.58
0.1275351047515869,2,3,3,3,-9.48,-0.79,2.46,0.24,-1.12,0.58
0.1375350952148438,2,3,3,3,-9.5,-0.85,2.36,0.17,-1.09,0.54
0.1475350856781006,2,3,3,3,-9.529999999999999,-0.87,2.24,0.04,-1.13,0.5
0.1575350761413574,2,3,3,3,-9.56,-0.87,2.34,0.03,-1.02,0.44
0.1675350666046143,2,3,3,3,-9.529999999999999,-0.9,2.34,0.15,-1.06,0.39
0.1775350570678711,2,3,3,3,-9.51,-0.9399999999999999,2.34,0.13,-1.24,0.32
0.1875350475311279,2,3,3,3,-9.51,-1,2.29,0.2,-1.25,0.3
0.1975350379943848,2,3,3,3,-9.449999999999999,-1.01,2.32,0.34,-1.28,0.32
0.2075350284576416,2,3,3,3,-9.43,-1.05,2.34,0.38,-1.29,0.36
0.2175350189208984,2,3,3,3,-9.41,-1.07,2.38,0.54,-1.21,0.41
0.2275350093841553,2,3,3,3,-9.32,-1.12,2.26,0.63,-1.19,0.42
0.2375349998474121,2,3,3,3,-9.390000000000001,-1.07,2.17,0.68,-0.92,0.42
0.2475349903106689,2,3,3,3,-9.470000000000001,-1,2.29,0.91,-0.57,0.47
0.2575349807739258,2,3,3,3,-9.539999999999999,-0.78,2.49,1.09,-0.44,0.4
0.2675349712371826,2,3,3,3,-9.5,-0.73,2.51,1.08,-0.41,0.32
0.2775349617004395,2,3,3,3,-9.449999999999999,-0.71,2.49,0.99,-0.26,0.27
0.2875349521636963,2,3,3,3,-9.44,-0.73,2.43,0.91,-0.1,0.2
0.2975349426269531,2,3,3,3,-9.52,-0.6899999999999999,2.47,0.91,0.07000000000000001,0.12
0.3175349235534668,2,3,3,3,-9.550000000000001,-0.73,2.6,0.85,0.1,0.04
0.3275349140167236,2,3,3,3,-9.539999999999999,-0.78,2.51,0.47,-0.02,0.02
0.3375349044799805,2,3,3,3,-9.470000000000001,-0.8,2.34,0.27,0.08,-0.06
0.3475348949432373,2,3,3,3,-9.449999999999999,-0.84,2.38,0.27,0.21,-0.07000000000000001
0.3575348854064941,2,3,3,3,-9.44,-0.89,2.44,0.27,0.23,-0.07000000000000001
0.367534875869751,2,3,3,3,-9.48,-0.92,2.44,0.18,0.13,0
0.3775351047515869,2,3,3,3,-9.460000000000001,-0.8100000000000001,2.48,0.26,0.09,0.09
0.3875350952148438,2,3,3,3,-9.41,-0.71,2.43,0.39,0.11,0.18
0.3975350856781006,2,3,3,3,-9.359999999999999,-0.67,2.55,0.33,0.13,0.24
0.4075350761413574,2,3,3,3,-9.31,-0.66,2.59,0.18,0.29,0.22
0.4175350666046143,2,3,3,3,-9.4,-0.79,2.54,-0.15,0.52,0.15
0.4275350570678711,2,3,3,3,-9.56,-0.83,2.45,-0.54,0.78,0.09
0.4375350475311279,2,3,3,3,-9.74,-0.8,2.32,-0.8100000000000001,1.03,-0.09
0.4475350379943848,2,3,3,3,-9.779999999999999,-0.65,2.34,-0.78,1.08,-0.34
0.4575350284576416,2,3,3,3,-9.65,-0.64,2.39,-0.77,1.06,-0.63
0.4675350189208984,2,3,3,3,-9.44,-0.65,2.42,-0.72,1,-0.8100000000000001
0.4775350093841553,2,3,3,3,-9.34,-0.71,2.44,-0.54,1.09,-0.93
0.4875349998474121,2,3,3,3,-9.369999999999999,-0.83,2.38,-0.5,1.16,-1.06
0.4975349903106689,2,3,3,3,-9.449999999999999,-0.87,2.33,-0.52,1.23,-1.29
0.5075349807739258,2,3,3,3,-9.51,-0.86,2.36,-0.64,1.3,-1.5
0.5175349712371826,2,3,3,3,-9.57,-0.85,2.43,-0.7,1.33,-1.77
0.5275349617004395,2,3,3,3,-9.59,-0.76,2.41,-0.95,1.46,-1.99
0.5375349521636963,2,3,3,3,-9.57,-0.76,2.33,-1.15,1.65,-2.15
0.5475349426269531,2,3,3,3,-9.5,-0.75,2.32,-1.32,1.69,-2.25
0.55753493309021,2,3,3,3,-9.449999999999999,-0.77,2.31,-1.36,1.73,-2.3
0.5775349140167236,2,3,3,3,-9.42,-0.97,2.26,-0.97,1.73,-2.39
0.618535041809082,2,3,3,3,-9.550000000000001,-0.83,2.16,-1.05,1.61,-2.68
0.6285350322723389,2,3,3,3,-9.460000000000001,-0.82,2.2,-0.9,1.55,-2.64
0.6385350227355957,2,3,3,3,-9.359999999999999,-0.9399999999999999,2.07,-0.79,1.42,-2.58
0.6485350131988525,2,3,3,3,-9.369999999999999,-1,2.08,-0.72,1.39,-2.48
0.6585350036621094,2,3,3,3,-9.380000000000001,-1.07,2.07,-0.72,1.4,-2.42
0.6685349941253662,2,3,3,3,-9.449999999999999,-1.08,2.1,-0.71,1.37,-2.46
0.678534984588623,2,3,3,3,-9.59,-1.04,2.04,-0.6899999999999999,1.36,-2.53
0.6885349750518799,2,3,3,3,-9.619999999999999,-1.06,1.99,-0.61,1.26,-2.63
0.6985349655151367,2,3,3,3,-9.59,-1,2.01,-0.48,1.09,-2.65
0.7085349559783936,2,3,3,3,-9.49,-1.05,2,-0.48,1.01,-2.6
0.7185349464416504,2,3,3,3,-9.44,-1.09,2.12,-0.37,1.02,-2.54
0.7285349369049072,2,3,3,3,-9.44,-1.13,2.12,-0.38,1.03,-2.43
0.7385349273681641,2,3,3,3,-9.49,-1.14,2.02,-0.49,1.02,-2.32
0.7485349178314209,2,3,3,3,-9.529999999999999,-1.15,2.01,-0.57,0.92,-2.16
0.7585349082946777,2,3,3,3,-9.550000000000001,-1.17,2,-0.6,0.75,-1.98
0.7685348987579346,2,3,3,3,-9.56,-1.2,1.96,-0.65,0.58,-1.8
0.7785348892211914,2,3,3,3,-9.52,-1.22,1.98,-0.72,0.37,-1.62
0.7885348796844482,2,3,3,3,-9.49,-1.27,1.87,-0.62,0.33,-1.47
0.7985351085662842,2,3,3,3,-9.42,-1.36,1.95,-0.5,0.27,-1.33
0.808535099029541,2,3,3,3,-9.460000000000001,-1.35,1.96,-0.39,0.23,-1.24
0.8185350894927979,2,3,3,3,-9.44,-1.56,2.04,-0.43,-0.23,-1.22
0.8285350799560547,2,3,3,3,-9.5,-1.34,2.01,-0.11,-0.11,-0.91
0.8385350704193115,2,3,3,3,-9.5,-1.32,1.94,0.08,0.14,-0.76
0.8485350608825684,2,3,3,3,-9.449999999999999,-1.29,1.99,0.01,0.04,-0.66
0.8585350513458252,2,3,3,3,-9.41,-1.27,2.05,0.11,0.08,-0.5600000000000001
0.868535041809082,2,3,3,3,-9.41,-1.29,2.05,0.2,0.23,-0.49
0.8785350322723389,2,3,3,3,-9.460000000000001,-1.33,2,0.23,0.2,-0.41
0.8885350227355957,2,3,3,3,-9.52,-1.31,1.92,0.25,0.16,-0.39
0.8985350131988525,2,3,3,3,-9.59,-1.32,1.93,0.35,0.16,-0.38
0.9085350036621094,2,3,3,3,-9.66,-1.23,1.98,0.43,0.19,-0.34
0.9185349941253662,2,3,3,3,-9.59,-1.22,2.02,0.46,0.06,-0.31
0.928534984588623,2,3,3,3,-9.550000000000001,-1.21,2.06,0.52,-0.05,-0.25
0.9385349750518799,2,3,3,3,-9.5,-1.22,1.98,0.49,-0.14,-0.18
0.9485349655151367,2,3,3,3,-9.390000000000001,-1.3,2.03,0.46,-0.17,-0.07000000000000001
0.9585349559783936,2,3,3,3,-9.41,-1.32,2.06,0.42,-0.16,0.08
0.9685349464416504,2,3,3,3,-9.44,-1.31,2.06,0.38,-0.15,0.2
0.9785349369049072,2,3,3,3,-9.5,-1.33,2.07,0.46,-0.09,0.28
0.9885349273681641,2,3,3,3,-9.529999999999999,-1.34,1.94,0.57,-0.11,0.37
0.9985349178314209,2,3,3,3,-9.5,-1.34,2.01,0.62,-0.18,0.4
1.008534908294678,2,3,3,3,-9.49,-1.32,2.06,0.68,-0.25,0.44
1.018534898757935,2,3,3,3,-9.49,-1.27,2.07,0.64,-0.25,0.51
1.028534889221191,2,3,3,3,-9.460000000000001,-1.27,2.08,0.6,-0.26,0.54
1.038534879684448,2,3,3,3,-9.470000000000001,-1.27,2.04,0.63,-0.22,0.59
1.048535108566284,2,3,3,3,-9.48,-1.31,2.09,0.63,-0.2,0.64
1.058535099029541,2,3,3,3,-9.49,-1.34,2.1,0.58,-0.19,0.64
1.068535089492798,2,3,3,3,-9.51,-1.34,2.12,0.55,-0.1,0.67
1.078535079956055,2,3,3,3,-9.52,-1.31,2.13,0.59,-0.09,0.65
1.088535070419312,2,3,3,3,-9.529999999999999,-1.29,2.04,0.55,-0.19,0.67
1.098535060882568,2,3,3,3,-9.48,-1.32,2.08,0.5,-0.27,0.7
1.108535051345825,2,3,3,3,-9.48,-1.33,2.09,0.43,-0.34,0.74
1.118535041809082,2,3,3,3,-9.52,-1.38,2.14,0.38,-0.34,0.71
1.128535032272339,2,3,3,3,-9.5,-1.36,2.11,0.3,-0.3,0.73
1.138535022735596,2,3,3,3,-9.52,-1.36,2.01,0.29,-0.24,0.67
1.148535013198853,2,3,3,3,-9.5,-1.32,2.05,0.26,-0.24,0.64
1.158535003662109,2,3,3,3,-9.51,-1.3,2.06,0.27,-0.21,0.55
1.168534994125366,2,3,3,3,-9.470000000000001,-1.25,2.13,0.28,-0.21,0.5600000000000001
1.178534984588623,2,3,3,3,-9.449999999999999,-1.28,2.06,0.26,-0.24,0.55
1.18853497505188,2,3,3,3,-9.449999999999999,-1.29,2,0.15,-0.2,0.61
1.198534965515137,2,3,3,3,-9.5,-1.28,2.04,0.07000000000000001,-0.25,0.62
1.208534955978394,2,3,3,3,-9.550000000000001,-1.28,2.06,0.1,-0.34,0.68
1.21853494644165,2,3,3,3,-9.539999999999999,-1.28,2.04,0.14,-0.4,0.71
1.228534936904907,2,3,3,3,-9.529999999999999,-1.29,2.05,0.2,-0.46,0.73
1.238534927368164,2,3,3,3,-9.51,-1.31,1.93,0.21,-0.52,0.74
1.248534917831421,2,3,3,3,-9.48,-1.29,1.98,0.25,-0.54,0.75
1.258534908294678,2,3,3,3,-9.49,-1.27,2.04,0.3,-0.44,0.74
1.268534898757935,2,3,3,3,-9.52,-1.26,2.1,0.4,-0.4,0.71
1.278534889221191,2,3,3,3,-9.48,-1.23,2.07,0.55,-0.43,0.7
1.288534879684448,2,3,3,3,-9.449999999999999,-1.19,2,0.6,-0.41,0.7
1.298535108566284,2,3,3,3,-9.52,-1.18,2.07,0.61,-0.39,0.68
1.308535099029541,2,3,3,3,-9.51,-1.15,2.1,0.57,-0.42,0.68
1.318535089492798,2,3,3,3,-9.529999999999999,-1.09,2.1,0.42,-0.36,0.62
1.328535079956055,2,3,3,3,-9.529999999999999,-1.05,2.12,0.31,-0.27,0.61
1.338535070419312,2,3,3,3,-9.539999999999999,-1.06,2.06,0.2,-0.21,0.5600000000000001
1.348535060882568,2,3,3,3,-9.529999999999999,-1.12,2.1,0.08,-0.21,0.51
1.358535051345825,2,3,3,3,-9.56,-1.18,2.11,-0.02,-0.22,0.48
1.368535041809082,2,3,3,3,-9.6,-1.13,2.11,-0.1,-0.13,0.46
1.378535032272339,2,3,3,3,-9.58,-1.11,2.11,-0.15,-0.09,0.41
1.388535022735596,2,3,3,3,-9.539999999999999,-1.13,2,-0.16,-0.16,0.36
1.398535013198853,2,3,3,3,-9.48,-1.17,2.06,-0.15,-0.17,0.34
1.408535003662109,2,3,3,3,-9.449999999999999,-1.2,2.11,-0.06,-0.2,0.3
1.418534994125366,2,3,3,3,-9.449999999999999,-1.21,2.17,-0.01,-0.21,0.28
1.428534984588623,2,3,3,3,-9.48,-1.22,2.18,0.03,-0.17,0.27
1.43853497505188,2,3,3,3,-9.48,-1.19,2.06,-0.1,-0.16,0.26
1.448534965515137,2,3,3,3,-9.51,-1.2,2.12,-0.16,-0.1,0.25
1.458534955978394,2,3,3,3,-9.49,-1.16,2.15,-0.16,-0.13,0.27
1.46853494644165,2,3,3,3,-9.470000000000001,-1.15,2.11,-0.16,-0.1,0.27
1.478534936904907,2,3,3,3,-9.51,-1.17,2.11,-0.09,-0.04,0.26
1.488534927368164,2,3,3,3,-9.529999999999999,-1.18,2.01,-0.07000000000000001,-0.06,0.26
1.498534917831421,2,3,3,3,-9.52,-1.17,2.07,-0.11,-0.06,0.23
1.508534908294678,2,3,3,3,-9.6,-1.17,2.13,-0.06,-0.02,0.21
1.518534898757935,2,3,3,3,-9.56,-1.15,2.18,-0.07000000000000001,0,0.15
1.528534889221191,2,3,3,3,-9.49,-1.11,2.15,-0.02,0.02,0.06
1.538534879684448,2,3,3,3,-9.42,-1.11,2.06,-0.08,-0.03,0.04
1.548535108566284,2,3,3,3,-9.449999999999999,-1.19,2.12,-0.01,-0.01,0.05
1.558535099029541,2,3,3,3,-9.48,-1.17,2.15,0.02,0.02,0.06
1.568535089492798,2,3,3,3,-9.529999999999999,-1.13,2.15,0.01,0,0.06
1.578535079956055,2,3,3,3,-9.550000000000001,-1.1,2.19,-0.03,-0.01,0.08
1.588535070419312,2,3,3,3,-9.529999999999999,-1.12,2.09,-0.07000000000000001,0,0.11
1.598535060882568,2,3,3,3,-9.449999999999999,-1.12,2.11,-0.08,-0.01,0.08
1.609534978866577,2,3,3,3,-9.470000000000001,-1.12,2.17,-0.11,0.01,0.08
1.619534969329834,2,3,3,3,-9.48,-1.12,2.18,-0.08,0.09,0.1
1.629534959793091,2,3,3,3,-9.550000000000001,-1.14,2.15,-0.16,0.11,0.07000000000000001
1.639534950256348,2,3,3,3,-9.52,-1.18,2.1,-0.25,0.11,0.09
1.649534940719604,2,3,3,3,-9.52,-1.19,2.11,-0.26,0.09,0.14
1.659534931182861,2,3,3,3,-9.48,-1.21,2.12,-0.3,0.06,0.15
1.669534921646118,2,3,3,3,-9.49,-1.19,2.16,-0.18,0.1,0.16
1.679534912109375,2,3,3,3,-9.51,-1.16,2.2,-0.09,0.08,0.19
1.689534902572632,2,3,3,3,-9.5,-1.14,2.12,-0.05,0.03,0.19
1.699534893035889,2,3,3,3,-9.49,-1.16,2.12,-0.04,0.07000000000000001,0.17
1.709534883499146,2,3,3,3,-9.48,-1.14,2.2,-0.03,0.11,0.12
1.719535112380981,2,3,3,3,-9.529999999999999,-1.13,2.23,-0.08,0.1,0.07000000000000001
1.729535102844238,2,3,3,3,-9.550000000000001,-1.16,2.19,-0.18,0.06,0.02
1.739535093307495,2,3,3,3,-9.550000000000001,-1.22,2.03,-0.28,0.02,0.01
1.749535083770752,2,3,3,3,-9.539999999999999,-1.21,2.08,-0.33,0.06,-0.04
1.759535074234009,2,3,3,3,-9.51,-1.25,2.1,-0.23,0.07000000000000001,-0.03
1.769535064697266,2,3,3,3,-9.48,-1.31,2.12,-0.15,0.05,-0.04
1.779535055160522,2,3,3,3,-9.44,-1.31,2.08,-0.05,0.05,-0.03
1.789535045623779,2,3,3,3,-9.43,-1.32,2.02,0.04,0.04,-0.01
1.799535036087036,2,3,3,3,-9.460000000000001,-1.3,2.06,0.06,0.02,0.04
1.809535026550293,2,3,3,3,-9.470000000000001,-1.28,2.1,0.15,0.03,0.08
1.81953501701355,2,3,3,3,-9.470000000000001,-1.22,2.2,0.23,0.03,0.09
1.829535007476807,2,3,3,3,-9.470000000000001,-1.2,2.15,0.26,0.01,0.11
1.839534997940063,2,3,3,3,-9.43,-1.19,2.06,0.31,0.04,0.11
1.84953498840332,2,3,3,3,-9.44,-1.19,2.08,0.25,0.08,0.1
1.859534978866577,2,3,3,3,-9.51,-1.21,2.13,0.13,0.09,0.05
1.869534969329834,2,3,3,3,-9.550000000000001,-1.23,2.12,0.02,0.07000000000000001,0.05
1.879534959793091,2,3,3,3,-9.59,-1.23,2.11,-0.01,0.1,0.04
1.889534950256348,2,3,3,3,-9.609999999999999,-1.23,2.03,0.07000000000000001,0.12,-0.01
1.899534940719604,2,3,3,3,-9.57,-1.29,2.05,0.23,0.17,-0.01
1.909534931182861,2,3,3,3,-9.539999999999999,-1.26,2.06,0.27,0.12,-0.04
1.919534921646118,2,3,3,3,-9.52,-1.25,2.13,0.34,0.05,-0.05
1.929534912109375,2,3,3,3,-9.460000000000001,-1.18,2.09,0.36,-0.06,-0.05
1.939534902572632,2,3,3,3,-9.41,-1.17,2.07,0.34,-0.08,-0.01
1.949534893035889,2,3,3,3,-9.369999999999999,-1.17,2.1,0.27,-0.05,0.03
1.959534883499146,2,3,3,3,-9.369999999999999,-1.18,2.12,0.25,0.07000000000000001,0.1
1.969535112380981,2,3,3,3,-9.470000000000001,-1.19,2.15,0.23,0.16,0.08
1.979535102844238,2,3,3,3,-9.539999999999999,-1.18,2.09,0.23,0.19,0.08
1.989535093307495,2,3,3,3,-9.57,-1.18,2,0.2,0.18,0.07000000000000001
1.999535083770752,2,3,3,3,-9.550000000000001,-1.17,2.04,0.19,0.07000000000000001,0.05
2.009535074234009,2,3,3,3,-9.58,-1.17,2.08,0.13,-0.08,0.06
2.019535064697266,2,3,3,3,-9.56,-1.17,2.14,0.16,-0.14,0.1
2.029535055160522,2,3,3,3,-9.550000000000001,-1.13,2.14,0.16,-0.11,0.12
2.039535045623779,2,3,3,3,-9.51,-1.15,2.04,0.16,-0.1,0.12
2.049535036087036,2,3,3,3,-9.460000000000001,-1.12,2.08,0.21,-0.07000000000000001,0.12
2.059535026550293,2,3,3,3,-9.460000000000001,-1.12,2.1,0.18,-0.1,0.15
2.06953501701355,2,3,3,3,-9.470000000000001,-1.1,2.13,0.18,-0.08,0.15
2.079535007476807,2,3,3,3,-9.5,-1.11,2.14,0.14,-0.1,0.19
2.089534997940063,2,3,3,3,-9.5,-1.06,2.04,0.09,-0.13,0.18
2.09953498840332,2,3,3,3,-9.48,-1.09,2.09,0.01,-0.15,0.23
2.109534978866577,2,3,3,3,-9.470000000000001,-1.1,2.08,-0.08,-0.19,0.24
2.119534969329834,2,3,3,3,-9.470000000000001,-1.1,2.08,-0.16,-0.17,0.26
2.129534959793091,2,3,3,3,-9.550000000000001,-1.1,2.04,-0.18,-0.1,0.27
2.139534950256348,2,3,3,3,-9.56,-1.07,1.97,-0.11,-0.04,0.24
2.149534940719604,2,3,3,3,-9.56,-1.03,2.02,-0.03,-0.03,0.24
2.159534931182861,2,3,3,3,-9.52,-0.99,2.13,0.04,-0.12,0.21
2.169534921646118,2,3,3,3,-9.539999999999999,-0.99,2.15,-0.01,-0.12,0.24
2.179534912109375,2,3,3,3,-9.550000000000001,-0.97,2.18,-0.08,-0.13,0.27
2.189534902572632,2,3,3,3,-9.550000000000001,-1,2.06,-0.25,-0.19,0.3
2.199534893035889,2,3,3,3,-9.52,-1.02,2.12,-0.35,-0.17,0.31
2.209534883499146,2,3,3,3,-9.550000000000001,-1.05,2.1,-0.32,-0.13,0.29
2.219535112380981,2,3,3,3,-9.57,-1.03,2.11,-0.28,-0.03,0.27
2.229535102844238,2,3,3,3,-9.56,-1,2.12,-0.27,-0.06,0.27
2.239535093307495,2,3,3,3,-9.460000000000001,-1.02,2.04,-0.2,-0.06,0.25
2.249535083770752,2,3,3,3,-9.44,-1.04,2.09,-0.21,-0.06,0.22
2.259535074234009,2,3,3,3,-9.48,-1.08,2.13,-0.31,-0.04,0.17
2.269535064697266,2,3,3,3,-9.609999999999999,-1.09,2.11,-0.4,-0.03,0.17
2.279535055160522,2,3,3,3,-9.619999999999999,-1.08,2.03,-0.51,-0.01,0.11
2.289535045623779,2,3,3,3,-9.59,-1.07,1.93,-0.54,-0.01,0.07000000000000001
2.299535036087036,2,3,3,3,-9.57,-1.07,2.02,-0.49,-0.01,0.04
2.309535026550293,2,3,3,3,-9.56,-1.04,2.09,-0.44,-0.03,-0.02
2.31953501701355,2,3,3,3,-9.539999999999999,-1.06,2.12,-0.41,-0.02,-0.02
2.329535007476807,2,3,3,3,-9.52,-1.09,2.15,-0.41,0.06,-0.02
2.339534997940063,2,3,3,3,-9.48,-1.12,2.08,-0.43,0.08,-0.04
2.34953498840332,2,3,3,3,-9.449999999999999,-1.14,2.11,-0.37,0.12,-0.06
2.360534906387329,2,3,3,3,-9.49,-1.13,2.13,-0.32,0.15,-0.06
2.369534969329834,2,3,3,3,-9.5,-1.14,2.15,-0.24,0.21,-0.08
2.379534959793091,2,3,3,3,-9.49,-1.1,2.16,-0.2,0.18,-0.02
2.389534950256348,2,3,3,3,-9.42,-1.08,2.09,-0.24,0.12,-0.03
2.399534940719604,2,3,3,3,-9.449999999999999,-1.13,2.2,-0.31,0.15,-0.02
2.409534931182861,2,3,3,3,-9.5,-1.14,2.18,-0.38,0.13,-0.03
2.420535087585449,2,3,3,3,-9.539999999999999,-1.2,2.17,-0.47,0.16,-0.07000000000000001
2.429534912109375,2,3,3,3,-9.65,-1.21,2.17,-0.47,0.16,-0.08
2.439534902572632,2,3,3,3,-9.630000000000001,-1.22,2.08,-0.41,0.11,-0.1
2.45053505897522,2,3,3,3,-9.619999999999999,-1.22,2.07,-0.38,0.03,-0.14
2.459534883499146,2,3,3,3,-9.470000000000001,-1.31,2.19,-0.33,0,-0.15
2.469535112380981,2,3,3,3,-9.44,-1.35,2.3,-0.28,-0.02,-0.13
2.48053503036499,2,3,3,3,-9.4,-1.41,2.26,-0.24,-0.07000000000000001,-0.17
2.489535093307495,2,3,3,3,-9.4,-1.49,2.14,-0.23,-0.04,-0.2
2.499535083770752,2,3,3,3,-9.449999999999999,-1.53,2.09,-0.01,0.13,-0.23
2.510535001754761,2,3,3,3,-9.44,-1.53,2.09,0.25,0.14,-0.25
2.519535064697266,2,3,3,3,-9.43,-1.47,2.08,0.62,0.07000000000000001,-0.25
2.529535055160522,2,3,3,3,-9.390000000000001,-1.43,2.12,1.03,0.03,-0.21
2.540534973144531,2,3,3,3,-9.380000000000001,-1.27,2.07,1.29,-0.04,-0.16
2.549535036087036,2,3,3,3,-9.41,-1.2,2.13,1.45,-0.09,-0.04
2.559535026550293,2,3,3,3,-9.460000000000001,-1.16,2.2,1.5,-0.09,0.06
2.570534944534302,2,3,3,3,-9.529999999999999,-1.1,2.22,1.48,-0.09,0.14
2.579535007476807,2,3,3,3,-9.57,-0.99,2.18,1.47,-0.04,0.21
2.589534997940063,2,3,3,3,-9.59,-0.93,2.11,1.48,-0.03,0.25
2.600534915924072,2,3,3,3,-9.609999999999999,-0.9,2.12,1.49,-0.08,0.27
2.609534978866577,2,3,3,3,-9.56,-0.85,2.13,1.41,-0.11,0.27
2.619534969329834,2,3,3,3,-9.49,-0.83,2.22,1.31,-0.14,0.26
2.630534887313843,2,3,3,3,-9.49,-0.83,2.23,1.12,-0.25,0.28
2.6405348777771,2,3,3,3,-9.51,-0.8100000000000001,2.12,0.9,-0.27,0.31
2.650535106658936,2,3,3,3,-9.550000000000001,-0.79,2.17,0.73,-0.25,0.36
2.660535097122192,2,3,3,3,-9.550000000000001,-0.78,2.18,0.57,-0.29,0.42
2.670535087585449,2,3,3,3,-9.539999999999999,-0.8,2.19,0.45,-0.3,0.51
2.680535078048706,2,3,3,3,-9.5,-0.77,2.18,0.35,-0.33,0.55
2.690535068511963,2,3,3,3,-9.529999999999999,-0.79,2.08,0.28,-0.33,0.6
2.70053505897522,2,3,3,3,-9.529999999999999,-0.8,2.1,0.18,-0.32,0.66
2.710535049438477,2,3,3,3,-9.550000000000001,-0.86,2.12,0.06,-0.38,0.68
2.720535039901733,2,3,3,3,-9.529999999999999,-0.89,2.14,-0.08,-0.46,0.73
2.73053503036499,2,3,3,3,-9.49,-0.98,2.05,-0.19,-0.53,0.75
2.740535020828247,2,3,3,3,-9.49,-1.05,1.97,-0.26,-0.5,0.79
2.750535011291504,2,3,3,3,-9.5,-1.08,2.05,-0.24,-0.43,0.84
2.760535001754761,2,3,3,3,-9.470000000000001,-1.11,2.02,-0.19,-0.44,0.87
2.770534992218018,2,3,3,3,-9.550000000000001,-1.1,2.06,-0.11,-0.47,0.85
2.780534982681274,2,3,3,3,-9.59,-1.07,2.08,0.1,-0.43,0.84
2.790534973144531,2,3,3,3,-9.58,-1.01,1.97,0.22,-0.52,0.82
2.800534963607788,2,3,3,3,-9.529999999999999,-0.92,2,0.27,-0.47,0.79
2.810534954071045,2,3,3,3,-9.42,-0.9399999999999999,2.17,0.33,-0.47,0.74
2.820534944534302,2,3,3,3,-9.4,-0.93,2.25,0.35,-0.45,0.73
2.830534934997559,2,3,3,3,-9.470000000000001,-0.95,2.25,0.29,-0.44,0.67
2.840534925460815,2,3,3,3,-9.56,-0.95,2.1,0.23,-0.37,0.62
2.850534915924072,2,3,3,3,-9.529999999999999,-0.98,2.1,0.13,-0.3,0.5600000000000001
2.860534906387329,2,3,3,3,-9.550000000000001,-0.98,2.13,0.11,-0.24,0.5
2.870534896850586,2,3,3,3,-9.6,-0.99,2.15,0.16,-0.22,0.44
2.880534887313843,2,3,3,3,-9.57,-0.93,2.14,0.3,-0.25,0.4
2.8905348777771,2,3,3,3,-9.529999999999999,-0.9399999999999999,2.08,0.33,-0.33,0.34
2.900535106658936,2,3,3,3,-9.449999999999999,-0.9399999999999999,2.17,0.41,-0.27,0.34
2.910535097122192,2,3,3,3,-9.43,-0.93,2.21,0.49,-0.28,0.36
2.920535087585449,2,3,3,3,-9.4,-0.9399999999999999,2.28,0.48,-0.27,0.37
2.930535078048706,2,3,3,3,-9.48,-0.9399999999999999,2.29,0.5,-0.2,0.38
2.940535068511963,2,3,3,3,-9.49,-0.88,2.15,0.51,-0.17,0.42
2.95053505897522,2,3,3,3,-9.52,-0.86,2.17,0.43,-0.25,0.48
2.960535049438477,2,3,3,3,-9.52,-0.77,2.29,0.36,-0.27,0.48
2.970535039901733,2,3,3,3,-9.5,-0.78,2.3,0.3,-0.32,0.49
2.98053503036499,2,3,3,3,-9.49,-0.82,2.38,0.19,-0.3,0.47
2.990535020828247,2,3,3,3,-9.5,-0.85,2.3,0.13,-0.27,0.42
3.000535011291504,2,3,3,3,-9.56,-0.88,2.27,0.05,-0.2,0.37
3.010535001754761,2,3,3,3,-9.550000000000001,-0.88,2.29,-0.02,-0.14,0.31
3.020534992218018,2,3,3,3,-9.56,-0.9,2.32,-0.06,-0.21,0.22
3.030534982681274,2,3,3,3,-9.52,-0.88,2.27,-0.09,-0.22,0.17
3.040534973144531,2,3,3,3,-9.529999999999999,-0.89,2.2,-0.06,-0.22,0.17
3.050534963607788,2,3,3,3,-9.5,-0.89,2.26,-0.09,-0.17,0.19
3.060534954071045,2,3,3,3,-9.460000000000001,-0.9,2.3,-0.17,-0.2,0.19
3.070534944534302,2,3,3,3,-9.42,-0.96,2.34,-0.21,-0.24,0.22
3.080534934997559,2,3,3,3,-9.42,-0.98,2.32,-0.26,-0.25,0.25
3.090534925460815,2,3,3,3,-9.44,-1.01,2.23,-0.3,-0.24,0.27
3.100534915924072,2,3,3,3,-9.48,-1.04,2.2,-0.3,-0.25,0.29
3.110534906387329,2,3,3,3,-9.5,-1.01,2.29,-0.26,-0.26,0.31
3.120534896850586,2,3,3,3,-9.5,-1.01,2.29,-0.14,-0.28,0.32
3.130534887313843,2,3,3,3,-9.470000000000001,-1.01,2.32,-0.03,-0.24,0.35
3.1405348777771,2,3,3,3,-9.49,-0.93,2.21,0.07000000000000001,-0.21,0.36
3.150535106658936,2,3,3,3,-9.49,-0.89,2.32,0.11,-0.23,0.36
3.160535097122192,2,3,3,3,-9.48,-0.89,2.35,0.06,-0.25,0.33
3.170535087585449,2,3,3,3,-9.48,-0.89,2.35,0.06,-0.2,0.29
3.180535078048706,2,3,3,3,-9.449999999999999,-0.89,2.34,0.07000000000000001,-0.15,0.29
3.190535068511963,2,3,3,3,-9.529999999999999,-0.9,2.26,0.06,-0.13,0.27
3.20053505897522,2,3,3,3,-9.539999999999999,-0.89,2.29,0.01,-0.16,0.24
3.210535049438477,2,3,3,3,-9.539999999999999,-0.9,2.34,0.03,-0.12,0.2
3.220535039901733,2,3,3,3,-9.49,-0.9,2.38,0,-0.15,0.17
3.23053503036499,2,3,3,3,-9.49,-0.93,2.31,-0.05,-0.21,0.13
3.240535020828247,2,3,3,3,-9.48,-0.91,2.15,-0.07000000000000001,-0.27,0.07000000000000001
3.250535011291504,2,3,3,3,-9.48,-0.91,2.13,-0.05,-0.31,0.08
3.260535001754761,2,3,3,3,-9.539999999999999,-0.9399999999999999,2.31,0.04,-0.4,0.11
3.270534992218018,2,3,3,3,-9.539999999999999,-0.9399999999999999,2.31,0.04,-0.4,0.11
3.280534982681274,2,3,3,3,-9.52,-0.95,2.34,0.19,-0.49,0.1
3.290534973144531,2,3,3,3,-9.42,-0.92,2.32,0.3,-0.51,0.13
3.300534963607788,2,3,3,3,-9.359999999999999,-0.88,2.43,0.37,-0.39,0.1
3.310534954071045,2,3,3,3,-9.380000000000001,-0.83,2.42,0.33,-0.24,0.09
3.320534944534302,2,3,3,3,-9.380000000000001,-0.83,2.42,0.33,-0.24,0.09
3.330534934997559,2,3,3,3,-9.460000000000001,-0.75,2.41,0.33,-0.09,0.07000000000000001
3.340534925460815,2,3,3,3,-9.51,-0.59,2.31,0.44,-0.02,0.01
3.350534915924072,2,3,3,3,-9.449999999999999,-0.5600000000000001,2.37,0.41,-0.13,-0.06
3.360534906387329,2,3,3,3,-9.449999999999999,-0.5600000000000001,2.44,0.37,-0.04,-0.14
3.370534896850586,2,3,3,3,-9.449999999999999,-0.5600000000000001,2.44,0.37,-0.04,-0.14
3.380534887313843,2,3,3,3,-9.56,-0.5,2.43,0.34,0.13,-0.2
3.3905348777771,2,3,3,3,-9.69,-0.42,2.41,0.17,0.33,-0.46
3.400535106658936,2,3,3,3,-9.630000000000001,-0.41,2.42,0.07000000000000001,0.27,-0.6
3.410535097122192,2,3,3,3,-9.43,-0.55,2.41,-0.07000000000000001,0.16,-0.68
3.420535087585449,2,3,3,3,-9.43,-0.55,2.41,-0.07000000000000001,0.16,-0.68
3.430535078048706,2,3,3,3,-9.4,-0.6,2.49,0.01,0.1,-0.65
3.440535068511963,2,3,3,3,-9.34,-0.77,2.32,0.06,-0.01,-0.51
3.45053505897522,2,3,3,3,-9.41,-0.88,2.27,0.03,0.06,-0.44
3.460535049438477,2,3,3,3,-9.41,-0.93,2.31,-0.02,0.13,-0.45
3.470535039901733,2,3,3,3,-9.41,-0.93,2.31,-0.02,0.13,-0.45
3.48053503036499,2,3,3,3,-9.43,-0.96,2.29,-0.07000000000000001,0.21,-0.45
3.490535020828247,2,3,3,3,-9.56,-0.88,2.17,-0.08,0.38,-0.52
3.500535011291504,2,3,3,3,-9.58,-0.8100000000000001,2.27,-0.04,0.44,-0.62
3.510535001754761,2,3,3,3,-9.6,-0.76,2.3,-0.1,0.5,-0.68
3.520534992218018,2,3,3,3,-9.6,-0.76,2.3,-0.1,0.5,-0.68
3.530534982681274,2,3,3,3,-9.56,-0.74,2.3,-0.24,0.46,-0.75
3.540534973144531,2,3,3,3,-9.539999999999999,-0.66,2.35,-0.68,0.27,-0.64
3.550534963607788,2,3,3,3,-9.539999999999999,-0.67,2.4,-0.77,0.09,-0.5
3.560534954071045,2,3,3,3,-9.539999999999999,-0.67,2.4,-0.79,-0.08,-0.46
3.570534944534302,2,3,3,3,-9.48,-0.86,2.48,-0.79,-0.08,-0.46
3.580534934997559,2,3,3,3,-9.48,-0.93,2.5,-0.65,-0.08,-0.4
3.590534925460815,2,3,3,3,-9.48,-0.99,2.38,-0.21,-0.18,-0.37
3.600534915924072,2,3,3,3,-9.48,-1.06,2.24,0.1,-0.19,-0.4
3.610534906387329,2,3,3,3,-9.449999999999999,-1.14,2.17,0.2,-0.23,-0.38
3.620534896850586,2,3,3,3,-9.41,-1.12,2.19,0.2,-0.23,-0.38
3.630534887313843,2,3,3,3,-9.390000000000001,-1.05,2.19,0.38,-0.24,-0.35
3.6405348777771,2,3,3,3,-9.359999999999999,-1.03,2.27,0.58,-0.3,-0.22
3.650535106658936,2,3,3,3,-9.42,-0.99,2.31,0.55,-0.4,-0.11
3.661535024642944,2,3,3,3,-9.44,-0.97,2.37,0.38,-0.46,-0.02
3.671535015106201,2,3,3,3,-9.42,-0.95,2.38,0.38,-0.46,-0.02
3.681535005569458,2,3,3,3,-9.460000000000001,-0.9399999999999999,2.43,0.08,-0.34,-0.01
3.691534996032715,2,3,3,3,-9.539999999999999,-0.95,2.3,-0.53,-0.01,-0.02
3.701534986495972,2,3,3,3,-9.52,-1,2.25,-0.68,0.07000000000000001,-0.11
3.711534976959229,2,3,3,3,-9.550000000000001,-1.03,2.27,-0.75,0.09,-0.15
3.721534967422485,2,3,3,3,-9.539999999999999,-1.03,2.29,-0.75,0.09,-0.15
3.731534957885742,2,3,3,3,-9.529999999999999,-1.1,2.42,-0.76,0.13,-0.23
3.741534948348999,2,3,3,3,-9.550000000000001,-1.15,2.43,-0.53,-0.08,-0.33
3.751534938812256,2,3,3,3,-9.58,-1.15,2.3,-0.37,-0.35,-0.38
3.761534929275513,2,3,3,3,-9.460000000000001,-1.18,2.25,-0.43,-0.64,-0.34
3.77153491973877,2,3,3,3,-9.390000000000001,-1.24,2.27,-0.43,-0.64,-0.34
3.781534910202026,2,3,3,3,-9.33,-1.28,2.24,-0.47,-0.7,-0.27
3.791534900665283,2,3,3,3,-9.300000000000001,-1.3,2.31,-0.47,-0.33,-0.11
3.80153489112854,2,3,3,3,-9.32,-1.29,2.31,-0.44,-0.15,-0.03
3.811534881591797,2,3,3,3,-9.380000000000001,-1.3,2.42,-0.33,-0.07000000000000001,0.02
3.821535110473633,2,3,3,3,-9.44,-1.27,2.39,-0.33,-0.07000000000000001,0.02
3.83153510093689,2,3,3,3,-9.52,-1.23,2.41,-0.24,-0.07000000000000001,0.06
3.841535091400146,2,3,3,3,-9.529999999999999,-1.11,2.28,0.07000000000000001,-0.19,0.06
3.851535081863403,2,3,3,3,-9.529999999999999,-1.06,2.24,0.37,-0.19,0.02
3.86153507232666,2,3,3,3,-9.49,-1.04,2.32,0.4,-0.24,0.01
3.871535062789917,2,3,3,3,-9.48,-1.07,2.43,0.4,-0.24,0.01
3.881535053253174,2,3,3,3,-9.5,-1.07,2.42,0.41,-0.32,-0.04
3.891535043716431,2,3,3,3,-9.49,-1.06,2.34,0.29,-0.59,-0.1
3.901535034179688,2,3,3,3,-9.44,-1.09,2.07,-0.01,-0.55,-0.12
3.911535024642944,2,3,3,3,-9.41,-1.09,2,-0.01,-0.32,-0.15
3.921535015106201,2,3,3,3,-9.52,-1.12,2.32,-0.01,-0.32,-0.15
3.931535005569458,2,3,3,3,-9.52,-1.1,2.38,0.14,-0.3,-0.16
3.941534996032715,2,3,3,3,-9.449999999999999,-1.1,2.17,-0.37,-0.64,-0.2
3.951534986495972,2,3,3,3,-9.4,-1.12,2.14,-0.21,-0.42,-0.17
3.961534976959229,2,3,3,3,-9.31,-1.14,2.22,-0.14,-0.31,-0.21
3.971534967422485,2,3,3,3,-9.220000000000001,-1.18,2.18,-0.14,-0.31,-0.21
3.981534957885742,2,3,3,3,-9.210000000000001,-1.25,2.17,-0.49,-0.16,-0.27
3.991534948348999,2,3,3,3,-9.48,-1.28,1.92,-0.98,0.32,-0.12
4.001534938812256,2,3,3,3,-9.609999999999999,-1.24,1.93,-0.59,0.49,-0.18
4.011534929275513,2,3,3,3,-9.699999999999999,-1.18,2.12,-0.06,0.39,-0.28
4.02153491973877,2,3,3,3,-9.65,-1.15,2.14,-0.06,0.39,-0.28
4.031534910202026,2,3,3,3,-9.41,-0.9399999999999999,2.33,0.12,0.2,-0.39
4.041534900665283,2,3,3,3,-9.26,-0.85,2.18,-0.6,0.12,-0.86
4.05153489112854,2,3,3,3,-9.15,-0.77,2.14,-0.98,0.21,-1.07
4.061534881591797,2,3,3,3,-9.140000000000001,-0.78,2.34,-1.29,0.04,-1.24
4.071535110473633,2,3,3,3,-9.050000000000001,-1,2.14,-1.29,0.04,-1.24
4.08153510093689,2,3,3,3,-8.98,-1.23,1.99,-1.89,-0.12,-1.46
4.091535091400146,2,3,3,3,-8.9,-1.46,1.88,-2.78,-0.09,-2.07
4.101535081863403,2,3,3,3,-8.76,-1.68,1.57,-3.08,-0.21,-2.6
4.11153507232666,2,3,3,3,-8.119999999999999,-1.92,1.27,-3.19,-0.09,-3.17
4.121535062789917,2,3,3,3,-7.87,-1.96,1.23,-3.19,-0.09,-3.17
4.131535053253174,2,3,3,3,-7.69,-1.89,1.36,-2.74,-0.06,-3.59
4.141535043716431,2,3,3,3,-7.06,-1.86,1.64,-1.86,-1.3,-4.13
4.151535034179688,2,3,3,3,-6.7,-1.87,1.7,-2.08,-1.75,-4.31
4.161535024642944,2,3,3,3,-6.36,-1.83,1.63,-2.46,-1.8,-4.3
4.171535015106201,2,3,3,3,-6.15,-1.7,1.35,-2.46,-1.8,-4.3
4.181535005569458,2,3,3,3,-6.03,-1.48,1.29,-2.66,-1.33,-4
4.191534996032715,2,3,3,3,-5.95,-1.31,1.17,-2.42,-0.95,-3.79
4.201534986495972,2,3,3,3,-5.73,-1.1,1.02,-1.93,-0.88,-3.79
4.211534976959229,2,3,3,3,-5.57,-0.91,1.3,-1.41,-0.83,-3.57
4.221534967422485,2,3,3,3,-5.58,-0.8100000000000001,1.72,-1.41,-0.83,-3.57
4.231534957885742,2,3,3,3,-6.13,-0.82,1.92,-1.34,-0.5600000000000001,-3.25
4.241534948348999,2,3,3,3,-7.01,-0.67,2.24,-0.45,1.04,-2.1
4.251534938812256,2,3,3,3,-8.050000000000001,-0.35,2.83,-0.44,0.47,-1.47
4.261534929275513,2,3,3,3,-10.2,-0.5600000000000001,3.96,-1.19,-1.75,-0.71
4.27153491973877,2,3,3,3,-10.98,-0.68,3.85,-1.19,-1.75,-0.71
4.281534910202026,2,3,3,3,-11.63,-1.06,3.2,-3.05,-3.15,-0.62
4.291534900665283,2,3,3,3,-12.05,-1.32,2.39,-3.79,-0.98,-2.5
4.30153489112854,2,3,3,3,-11.43,-1.19,1.29,-3.1,-0.02,-4.06
4.311534881591797,2,3,3,3,-10.61,-1.18,1.46,-2.61,-0.7,-5.21
4.321535110473633,2,3,3,3,-9.779999999999999,-1.43,1.83,-2.61,-0.7,-5.21
4.33153510093689,2,3,3,3,-8.66,-1.89,2.62,-2.32,-2.1,-5.44
4.341535091400146,2,3,3,3,-8.44,-2.15,3.16,-2.04,-2.36,-2.83
4.351535081863403,2,3,3,3,-8.529999999999999,-2.5,3.55,-1.91,-1.39,-0.97
4.36153507232666,2,3,3,3,-9.039999999999999,-2.77,3.97,-1.36,-0.29,0.29
4.371535062789917,2,3,3,3,-10.79,-2.57,4.09,-1.36,-0.29,0.29
4.381535053253174,2,3,3,3,-11.52,-2.25,3.85,-1.02,0.37,0.6899999999999999
4.391535043716431,2,3,3,3,-11.87,-1.94,3.4,-1.62,-0.35,-0.73
4.401535034179688,2,3,3,3,-11.74,-1.85,2.9,-1.8,-0.5,-1.74
4.411535024642944,2,3,3,3,-11.03,-2.04,2.65,-1.76,-0.59,-2.43
4.421535015106201,2,3,3,3,-10.7,-2.29,2.72,-1.76,-0.59,-2.43
4.431535005569458,2,3,3,3,-10.49,-2.52,2.8,-1.94,-0.9399999999999999,-2.88
4.441534996032715,2,3,3,3,-10.25,-2.7,2.76,-2.43,-0.59,-3.11
4.451534986495972,2,3,3,3,-9.65,-2.9,2.14,-2.74,-0.16,-3.23
4.461534976959229,2,3,3,3,-9.15,-2.9,1.96,-3.04,0.18,-3.59
4.471534967422485,2,3,3,3,-8.6,-2.77,1.77,-3.04,0.18,-3.59
4.481534957885742,2,3,3,3,-7.71,-2.24,1.99,-2.95,0.36,-4.01
4.491534948348999,2,3,3,3,-7.54,-2.02,2.26,-1.85,-0.2,-3.4
4.511534929275513,2,3,3,3,-7.46,-1.88,2.76,-2.33,-0.97,-1.58
4.52153491973877,2,3,3,3,-7.87,-2.36,2.77,-2.33,-0.97,-1.58
4.531534910202026,2,3,3,3,-8,-2.58,2.57,-3.18,-1.45,-1.24
4.541534900665283,2,3,3,3,-8.15,-2.81,2.64,-4.15,-0.54,-1.91
4.55153489112854,2,3,3,3,-8.48,-2.98,2.81,-3.46,-0.1,-2.43
4.561534881591797,2,3,3,3,-9.630000000000001,-3.09,3.27,-3.46,-0.1,-2.43
4.571535110473633,2,3,3,3,-10.3,-3.26,3.39,-2.96,-0.83,-2.86
4.58153510093689,2,3,3,3,-11.03,-3.23,3.65,-2.29,-2.27,-2.9
4.591535091400146,2,3,3,3,-11.76,-3.05,3.93,-1.72,-4.16,-2.61
4.601535081863403,2,3,3,3,-12.06,-2.72,4.79,-1.48,-6.43,-1.84
4.61153507232666,2,3,3,3,-12.06,-3,5.2,-1.63,-7.81,-0.59
4.621535062789917,2,3,3,3,-12.55,-3.48,5.34,-1.36,-7.1,0.91
4.631535053253174,2,3,3,3,-13.41,-3.72,5.38,-0.64,-4.97,2.01
4.641535043716431,2,3,3,3,-16.34,-3.83,5.61,0.16,-2.56,2.62
4.651535034179688,2,3,3,3,-17.61,-3.35,5.58,1.75,-0.55,2.8
4.661535024642944,2,3,3,3,-18.85,-3.02,5.8,2.7,0.92,2.2
4.671535015106201,2,3,3,3,-21.61,-2.01,6.79,3.12,2.68,2.07
4.68253493309021,2,3,3,3,-22.67,-1.82,6.79,2.77,3.82,2.16
4.692534923553467,2,3,3,3,-23.05,-1.76,6.43,2.6,4.28,2.18
4.702534914016724,2,3,3,3,-22.73,-2.06,6.28,2.29,4.15,2.07
4.71253490447998,2,3,3,3,-21.38,-2.81,6.92,1.97,2.46,2.17
4.722534894943237,2,3,3,3,-20.96,-3.38,7.05,1.92,1.23,2.74
4.732534885406494,2,3,3,3,-21.02,-3.73,7.02,2.74,1.99,3.78
4.742534875869751,2,3,3,3,-21.44,-3.96,7.04,4.11,2.89,4.85
4.752535104751587,2,3,3,3,-22.84,-3.63,7.04,5.92,4.24,5.83
4.762535095214844,2,3,3,3,-23.05,-2.86,6.85,7.98,5.39,6.72
4.772535085678101,2,3,3,3,-22.62,-1.57,6.16,9.58,6.29,7.2
4.782535076141357,2,3,3,3,-21.5,-1.25,5.54,10.29,7.34,6.93
4.792535066604614,2,3,3,3,-18.52,-0.66,5.4,10.97,8.380000000000001,6.45
4.802535057067871,2,3,3,3,-16.36,-0.54,5.2,10.68,8.970000000000001,5.73
4.812535047531128,2,3,3,3,-13.84,-1.86,4.95,8.44,8.710000000000001,4.63
4.822535037994385,2,3,3,3,-9.789999999999999,-4.36,3.18,5.63,8.93,3.45
4.832535028457642,2,3,3,3,-8.06,-4.51,0.82,2.46,8.609999999999999,2.51
4.842535018920898,2,3,3,3,-6.4,-4.27,-1.26,-1.61,9.27,1.18
4.852535009384155,2,3,3,3,-4.59,-3.9,-2.1,-5.06,9.76,-0.53
4.862534999847412,2,3,3,3,-0.33,-7.44,-1.87,-9.07,8.15,-2.88
4.872534990310669,2,3,3,3,0.98,-10.78,-4.64,-15.82,4.17,-6.11
4.882534980773926,2,3,3,3,2.05,-13.47,-8.039999999999999,-24.98,-2.4,-9.93
4.892534971237183,2,3,3,3,2.46,-13.63,-8.050000000000001,-26.79,-3.19,-10.09
4.902534961700439,2,3,3,3,4.65,-11.55,-3.96,-14.66,3.38,-9.48
4.912534952163696,2,3,3,3,6.28,-9.02,-2.06,1.96,3.95,-10.69
4.922534942626953,2,3,3,3,6.22,-5.58,-0.24,13.54,-1.19,-7.94
4.93253493309021,2,3,3,3,5.36,-2.22,0.74,18.98,-6.27,-0.35
4.942534923553467,2,3,3,3,4.37,3.83,1.82,19.67,-8.57,6.36
4.952534914016724,2,3,3,3,4.15,4.8,1.75,18.31,-8.16,10.59
4.96253490447998,2,3,3,3,4.15,5.75,1.42,17.69,-6.12,13.49
4.972534894943237,2,3,3,3,3.44,5.51,1.43,16.24,-1.1,15.98
4.982534885406494,2,3,3,3,-0.28,4.46,2.11,13.2,3.03,17.02
4.992534875869751,2,3,3,3,-1.81,3.34,1.78,7.35,2.6,16.47
5.002535104751587,2,3,3,3,-2.65,2.2,1.15,-0.73,-0.38,14.91
5.012535095214844,2,3,3,3,-3.93,0.68,-0.11,-7.59,-3.22,12.78
5.022535085678101,2,3,3,3,-5.05,1.11,-0.53,-12.17,-1.77,10.75
5.032535076141357,2,3,3,3,-6.13,1.27,-0.63,-14.51,2.83,6.91
5.042535066604614,2,3,3,3,-6.71,1.08,-0.35,-15.67,4.77,1.84
5.052535057067871,2,3,3,3,-5.16,-0.42,-1.79,-15.72,0.86,-3.4
5.062535047531128,2,3,3,3,-3.65,-1.1,-2.55,-14.43,-2.6,-7.57
5.072535037994385,2,3,3,3,-2.2,-1.76,-2.77,-10.65,-0.31,-10.26
5.082535028457642,2,3,3,3,-1.22,-2.13,-2.2,-5.17,4.44,-11.64
5.092535018920898,2,3,3,3,0.18,-2.69,-0.55,-0.35,6.93,-13.23
5.102535009384155,2,3,3,3,0.64,-2.7,-0.15,2.44,5.5,-14.37
5.112534999847412,2,3,3,3,1.5,-2.58,-0.1,4.2,0.42,-14.89
5.122534990310669,2,3,3,3,2.83,-2.18,-0.84,5.05,-5.04,-14.38
5.132534980773926,2,3,3,3,4.08,-0.09,-0.58,6.52,-6.29,-12.7
5.142534971237183,2,3,3,3,3.68,1.38,0.34,9.869999999999999,-3.81,-9.789999999999999
5.152534961700439,2,3,3,3,3.51,2.6,0.58,12.08,-2.51,-6.46
5.162534952163696,2,3,3,3,3.49,3.16,0.38,11.13,-2.92,-3.1
5.172534942626953,2,3,3,3,2.3,3.1,0.63,8.57,-2.97,-0.05
5.18253493309021,2,3,3,3,1.33,2.59,0.86,6.22,-2.36,2.37
5.192534923553467,2,3,3,3,0.44,1.99,0.79,3.9,-2.87,4.29
5.202534914016724,2,3,3,3,-0.42,0.9,0.84,2.13,-3.89,5.64
5.21253490447998,2,3,3,3,-0.61,-0.31,2.07,1.89,-3.61,6.26
5.222534894943237,2,3,3,3,-1.3,-1.85,1.12,2.49,-1.82,6.74
5.232534885406494,2,3,3,3,-1.6,-3.38,1.24,0.1,-2.17,7.68
5.242534875869751,2,3,3,3,-1.72,-6.04,2.27,-3.19,-3.2,8.140000000000001
5.252535104751587,2,3,3,3,-3.74,-7.02,3.74,-4.53,-1.06,8
5.262535095214844,2,3,3,3,-7.56,-7.68,4.47,-3.7,1.81,8.619999999999999
5.272535085678101,2,3,3,3,-13.2,-8.44,6.45,-4.61,4.72,9.69
5.282535076141357,2,3,3,3,-37.21,-12.57,8.42,-6.11,9.550000000000001,11.29
5.292535066604614,2,3,3,3,-39.11,-8.390000000000001,6.45,-2,1.43,16.63
5.302535057067871,2,3,3,3,-39.05,-1.97,-3.11,15.22,-25.13,20.61
5.312535047531128,2,3,3,3,-33.31,6.24,-1.18,14.94,-6.97,-3.01
5.322535037994385,2,3,3,3,-24.19,7.29,10.94,15.99,0.62,-15.47
5.332535028457642,2,3,3,3,-22.9,-1.06,12.89,9.98,-3.16,-10.85
5.342535018920898,2,3,3,3,-17.13,-4.2,10.41,-0.19,0.5,0.87
5.352535009384155,2,3,3,3,-12.17,-5.16,7.37,-3.98,-5.69,9.94
5.362534999847412,2,3,3,3,-13.85,-2.42,7.15,0.32,-7.42,11.7
5.372534990310669,2,3,3,3,-17.39,0.34,7.3,6.57,2.1,10.51
5.382534980773926,2,3,3,3,-20.24,2.71,6.15,9.31,10.28,8.31
5.392534971237183,2,3,3,3,-23.15,5.76,2.59,8.710000000000001,10.66,5.29
5.402534961700439,2,3,3,3,-21.81,5.16,3.22,8.24,6.37,2.09
5.412534952163696,2,3,3,3,-19.32,4.09,5.08,7.17,0.41,-0.24
5.422534942626953,2,3,3,3,-16.59,3.36,6.28,4.56,-5.35,-2.7
5.43253493309021,2,3,3,3,-12.61,2.07,5.96,-0.08,-7.36,-4.22
5.442534923553467,2,3,3,3,-11.66,1.14,5.4,-4.97,-4.83,-4.12
5.452534914016724,2,3,3,3,-10.76,0.28,4.87,-8.33,-1.65,-3.49
5.46253490447998,2,3,3,3,-10.2,-0.64,4.3,-9.800000000000001,-0.65,-2.67
5.472534894943237,2,3,3,3,-10.4,-2.24,2.95,-10.51,0.03,-1.58
5.482534885406494,2,3,3,3,-11.04,-2.6,2.5,-9.92,1.19,-0.5600000000000001
5.492534875869751,2,3,3,3,-11.54,-2.79,2.16,-8.390000000000001,2.33,0.75
5.502535104751587,2,3,3,3,-11.47,-2.65,1.81,-6.83,2.21,1.8
5.512535095214844,2,3,3,3,-10.06,-1.98,1.46,-5.75,1.14,2.2
5.522535085678101,2,3,3,3,-9.289999999999999,-1.51,1.68,-4.53,0.57,2.03
5.532535076141357,2,3,3,3,-8.56,-1.37,2.2,-3.21,0.5600000000000001,1.59
5.542535066604614,2,3,3,3,-7.83,-1.4,2.51,-2.29,0.39,0.93
5.552535057067871,2,3,3,3,-6.52,-1.78,2.15,-2.09,0,0.46
5.562535047531128,2,3,3,3,-5.97,-1.88,2.07,-2.35,-0.57,0
5.572535037994385,2,3,3,3,-5.67,-1.98,2.09,-2.71,-1.01,-0.55
5.582535028457642,2,3,3,3,-5.6,-2.12,2.26,-2.93,-0.82,-0.97
5.592535018920898,2,3,3,3,-5.72,-2.23,2.02,-2.68,-0.34,-1.22
5.602535009384155,2,3,3,3,-6.09,-2.41,1.81,-2.63,0.26,-1.23
5.612534999847412,2,3,3,3,-6.56,-2.36,1.7,-1.63,1.2,-0.83
5.622534990310669,2,3,3,3,-7.06,-2.24,1.24,-0.32,1.61,-0.31
5.632534980773926,2,3,3,3,-7.38,-2.05,1.25,0.83,1.66,0.15
5.642534971237183,2,3,3,3,-7.65,-1.81,1.34,2.04,1.43,0.49
5.652534961700439,2,3,3,3,-7.78,-1.62,1.4,2.8,0.67,0.91
5.662534952163696,2,3,3,3,-7.74,-1.49,1.95,3.05,-0.15,1.39
5.672534942626953,2,3,3,3,-7.7,-1.45,1.96,2.98,-0.63,1.71
5.68253493309021,2,3,3,3,-7.65,-1.38,1.86,2.59,-0.74,1.87
5.692534923553467,2,3,3,3,-7.78,-1.35,1.92,2.18,-0.15,2.01
5.702534914016724,2,3,3,3,-8.31,-1.22,2.27,2.35,0.65,2.13
5.713535070419312,2,3,3,3,-8.51,-1.08,2.26,2.68,0.97,2.21
5.723535060882568,2,3,3,3,-8.76,-0.91,2.48,2.8,1.44,2.19
5.733535051345825,2,3,3,3,-9.4,-0.62,2.75,3.07,1.97,1.95
5.743535041809082,2,3,3,3,-9.65,-0.46,2.81,3.18,2.08,1.49
5.753535032272339,2,3,3,3,-9.92,-0.34,2.77,2.95,1.85,0.85
5.763535022735596,2,3,3,3,-10.02,-0.25,2.59,2.74,1.47,0.28
5.773535013198853,2,3,3,3,-9.82,-0.32,2.4,2.01,0.9399999999999999,-0.07000000000000001
5.783535003662109,2,3,3,3,-9.779999999999999,-0.36,2.52,1.76,0.82,-0.2
5.793534994125366,2,3,3,3,-9.68,-0.36,2.54,2.06,0.45,-0.07000000000000001
5.803534984588623,2,3,3,3,-9.630000000000001,-0.32,2.51,2.31,0,0.28
5.81353497505188,2,3,3,3,-9.630000000000001,-0.16,2.73,2.43,-0.28,0.86
5.823534965515137,2,3,3,3,-9.57,-0.09,2.73,2.32,-0.55,1.44
5.833534955978394,2,3,3,3,-9.539999999999999,0.02,2.7,1.94,-0.74,1.78
5.84353494644165,2,3,3,3,-9.43,0.15,2.66,1.57,-0.82,1.87
5.853534936904907,2,3,3,3,-9.210000000000001,0.07000000000000001,2.61,0.88,-0.62,1.68
5.863534927368164,2,3,3,3,-9.199999999999999,0.06,2.68,0.61,-0.22,1.41
5.873534917831421,2,3,3,3,-9.119999999999999,0.02,2.66,0.32,-0.13,1.05
5.883534908294678,2,3,3,3,-9.220000000000001,-0.08,2.73,0.03,0.01,0.77
5.893534898757935,2,3,3,3,-9.470000000000001,-0.28,2.6,0.02,0.09,0.63
5.903534889221191,2,3,3,3,-9.6,-0.34,2.49,-0.24,-0.06,0.55
5.913534879684448,2,3,3,3,-9.630000000000001,-0.39,2.52,-0.26,-0.11,0.53
5.923535108566284,2,3,3,3,-9.59,-0.55,2.6,-0.26,-0.24,0.49
5.933535099029541,2,3,3,3,-9.65,-0.68,2.74,-0.27,-0.09,0.45
5.943535089492798,2,3,3,3,-9.68,-0.7,2.68,-0.18,0.07000000000000001,0.39
5.953535079956055,2,3,3,3,-9.59,-0.73,2.32,-0.3,-0.06,0.37
5.963535070419312,2,3,3,3,-9.52,-0.55,2.12,-0.59,0.11,0.42
5.973535060882568,2,3,3,3,-9.48,-0.5,2.16,-0.36,0.35,0.47
5.983535051345825,2,3,3,3,-9.48,-0.51,2.3,-0.14,0.54,0.5600000000000001
5.993535041809082,2,3,3,3,-9.529999999999999,-0.54,2.41,0.14,0.67,0.63
6.003535032272339,2,3,3,3,-9.539999999999999,-0.55,2.27,0.16,0.48,0.63
6.013535022735596,2,3,3,3,-9.6,-0.52,2.31,0.07000000000000001,0.41,0.63
6.023535013198853,2,3,3,3,-9.57,-0.44,2.37,0.12,0.38,0.53
6.033535003662109,2,3,3,3,-9.539999999999999,-0.4,2.4,0.2,0.18,0.36
6.043534994125366,2,3,3,3,-9.390000000000001,-0.48,2.46,0.12,-0.05,0.16
6.053534984588623,2,3,3,3,-9.35,-0.54,2.4,0.06,-0.2,0.02
6.06353497505188,2,3,3,3,-9.300000000000001,-0.63,2.51,-0.12,-0.25,-0.19
6.073534965515137,2,3,3,3,-9.210000000000001,-0.64,2.45,-0.26,-0.25,-0.36
6.083534955978394,2,3,3,3,-9.17,-0.76,2.08,-0.72,-0.06,-0.43
6.09353494644165,2,3,3,3,-9.25,-0.79,2.08,-1.23,0.5,-0.38
6.103534936904907,2,3,3,3,-9.33,-0.8,1.98,-1.26,0.88,-0.35
6.113534927368164,2,3,3,3,-9.34,-0.8100000000000001,2.04,-1.15,0.76,-0.34
6.123534917831421,2,3,3,3,-9.279999999999999,-0.8100000000000001,2.08,-0.87,0.6,-0.42
6.133534908294678,2,3,3,3,-9.220000000000001,-0.8,2.3,-0.49,0.49,-0.51
6.143534898757935,2,3,3,3,-9.16,-0.73,2.51,-0.16,0.38,-0.58
6.153534889221191,2,3,3,3,-9.07,-0.67,2.32,-0.3,0.11,-0.5600000000000001
6.163534879684448,2,3,3,3,-9.09,-0.65,2.2,-0.82,-0.08,-0.52
6.173535108566284,2,3,3,3,-9.029999999999999,-0.64,2.14,-1.29,-0.09,-0.48
6.183535099029541,2,3,3,3,-8.98,-0.63,2.13,-1.55,-0.15,-0.49
6.193535089492798,2,3,3,3,-8.98,-0.79,2.05,-1.57,-0.18,-0.48
6.203535079956055,2,3,3,3,-9.050000000000001,-0.9,1.97,-1.77,-0.28,-0.41
6.213535070419312,2,3,3,3,-9.210000000000001,-1,1.96,-1.97,-0.26,-0.31
6.223535060882568,2,3,3,3,-9.33,-1.05,1.93,-2.11,-0.27,-0.24
6.233535051345825,2,3,3,3,-9.49,-1.22,1.91,-2.1,-0.17,-0.19
6.243535041809082,2,3,3,3,-9.4,-1.19,1.8,-1.92,-0.11,-0.2
6.253535032272339,2,3,3,3,-9.26,-1.22,1.57,-1.87,-0.1,-0.4
6.263535022735596,2,3,3,3,-8.74,-1.1,1.76,-1.74,-0.04,-0.7
6.273535013198853,2,3,3,3,-8.5,-1.11,1.91,-1.57,0.07000000000000001,-1.07
6.283535003662109,2,3,3,3,-8.31,-1.15,2.01,-1.48,0.27,-1.44
6.293534994125366,2,3,3,3,-8.15,-1.21,2.11,-1.43,0.24,-1.75
6.303534984588623,2,3,3,3,-7.8,-1.54,2.01,-1.65,0.05,-2.1
6.31353497505188,2,3,3,3,-7.62,-1.81,1.79,-2.36,-0.04,-2.49
6.323534965515137,2,3,3,3,-7.35,-1.99,1.36,-3.54,0.04,-2.98
6.333534955978394,2,3,3,3,-6.94,-1.92,0.83,-4.67,0.54,-3.84
6.34353494644165,2,3,3,3,-6.33,-1.58,0.57,-5.24,1.48,-4.99
6.353534936904907,2,3,3,3,-6.25,-1.45,0.95,-4.59,2.36,-5.91
6.363534927368164,2,3,3,3,-6.11,-1.47,1.37,-3.07,1.75,-6.57
6.373534917831421,2,3,3,3,-5.78,-1.61,1.47,-2.09,-0.26,-6.94
6.383534908294678,2,3,3,3,-5.07,-2.18,0.64,-2.59,-1.79,-7.1
6.393534898757935,2,3,3,3,-4.75,-2.33,0.06,-3.86,-1.52,-7.22
6.403534889221191,2,3,3,3,-4.43,-2.28,-0.24,-4.76,0.13,-7.6
6.413534879684448,2,3,3,3,-4.15,-2.06,-0.01,-4.56,1.81,-8.390000000000001
6.423535108566284,2,3,3,3,-4.33,-1.85,0.85,-3.61,3.02,-9.01
6.433535099029541,2,3,3,3,-4.62,-1.8,0.9,-2.26,2.67,-8.720000000000001
6.443535089492798,2,3,3,3,-4.93,-1.76,0.71,-1.93,0.84,-7.45
6.453535079956055,2,3,3,3,-6.1,-1.26,1.44,-1.22,-0.65,-5.93
6.463535070419312,2,3,3,3,-7.44,-1.34,2.97,1.15,-1.1,-4.32
6.473535060882568,2,3,3,3,-9.17,-1.45,4.62,3.74,-1.57,-2.77
6.483535051345825,2,3,3,3,-10.93,-1.52,5.25,4.38,-4.02,-1.38
6.493535041809082,2,3,3,3,-13.79,-1.02,4.27,1.86,-6.61,-0.62
6.503535032272339,2,3,3,3,-13.99,0.08,3.16,-1.38,-6.58,-0.99
6.513535022735596,2,3,3,3,-13.26,0.8,2.34,-3.41,-3.32,-3.16
6.523535013198853,2,3,3,3,-11.82,0.72,2.39,-4.65,2.03,-6.38
6.533535003662109,2,3,3,3,-10.19,-1.89,3.34,-5.55,2.24,-8.029999999999999
6.543534994125366,2,3,3,3,-9.609999999999999,-2.91,3.76,-5.74,-4.06,-7.6
6.553534984588623,2,3,3,3,-9.58,-3.56,4.11,-5.2,-8.609999999999999,-5.26
6.56353497505188,2,3,3,3,-10.55,-4.16,4.58,-4.41,-6.93,-2.06
6.573534965515137,2,3,3,3,-14.3,-4.16,6.06,-1.8,-3.15,0.65
6.583534955978394,2,3,3,3,-15.85,-3.59,6.9,1.03,-1.97,2.64
6.59353494644165,2,3,3,3,-16.81,-2.8,7.52,1.98,-3.32,3.65
6.603534936904907,2,3,3,3,-17.56,-1.7,7.2,0.9,-4.45,3.52
6.613534927368164,2,3,3,3,-19.1,-0.65,5.72,-0.95,-2.58,2.27
6.623534917831421,2,3,3,3,-20.21,-1.01,5.66,-0.78,1.93,0.6899999999999999
6.633534908294678,2,3,3,3,-21.02,-1.54,5.93,0.91,4.92,-0.03
6.643534898757935,2,3,3,3,-21.53,-2.48,6.22,1.42,4.33,0.05
6.653534889221191,2,3,3,3,-21.66,-2.67,6.15,0.77,2.33,0.11
6.663534879684448,2,3,3,3,-21.89,-2.12,6.4,1.25,1.63,-0.24
6.673535108566284,2,3,3,3,-22.26,-1.31,6.67,2.73,2.78,-0.42
6.683535099029541,2,3,3,3,-22.71,0.03,7,3.75,4.58,-0.19
6.693535089492798,2,3,3,3,-22.55,0.19,7.15,4.44,6.35,0.44
6.703535079956055,2,3,3,3,-22.11,0.04,7.19,4.96,7.2,1.23
6.713535070419312,2,3,3,3,-21.6,0,7.1,4.97,6.33,2.1
6.723535060882568,2,3,3,3,-21.16,0.01,7.49,4.32,5.15,3.05
6.734534978866577,2,3,3,3,-21.73,-0.21,7.47,4.01,5.73,4.27
6.744534969329834,2,3,3,3,-22.48,-0.72,6.91,3.5,7.74,5.76
6.754534959793091,2,3,3,3,-22.78,-1.09,6.11,2.24,8.550000000000001,7.01
6.764534950256348,2,3,3,3,-21.24,-2.69,4.81,0.92,7.48,7.61
6.774534940719604,2,3,3,3,-18.88,-4.45,4.19,0.16,6.04,6.97
6.784534931182861,2,3,3,3,-15.88,-6.53,3.22,0.14,5.25,4.99
6.794534921646118,2,3,3,3,-12.78,-7.5,1.94,0.99,6.37,2.35
6.804534912109375,2,3,3,3,-6.4,-6.86,-0.71,1.73,7.78,-0.19
6.814534902572632,2,3,3,3,-3.34,-5.67,-1.27,1.89,8.029999999999999,-1.31
6.824534893035889,2,3,3,3,-0.91,-4.18,-1.36,2.02,9.02,-2.2
6.834534883499146,2,3,3,3,1.57,-6.99,0.8,-0.91,9.02,-2.89
6.844535112380981,2,3,3,3,2.54,-10.25,-3.79,-8.82,4.13,-4.55
6.854535102844238,2,3,3,3,2.23,-11.77,-10.56,-22.93,-3.89,-7.75
6.864535093307495,2,3,3,3,1.22,-10.3,-13.51,-31.72,-2.82,-7.69
6.874535083770752,2,3,3,3,2.43,-7.88,-7.73,-22.26,4.06,-7.09
6.884535074234009,2,3,3,3,3.72,-7.26,-1.1,-2.2,6.89,-8.19
6.894535064697266,2,3,3,3,4.48,-6.25,2.87,18.55,1.9,-8.390000000000001
6.904535055160522,2,3,3,3,4.81,-4.65,3.74,25.59,-5.9,-4.55
6.914535045623779,2,3,3,3,4.81,0.6899999999999999,2.58,23.23,-8.710000000000001,1.82
6.924535036087036,2,3,3,3,4.37,3.39,2.48,20.52,-6.47,7.31
6.934535026550293,2,3,3,3,3.8,5.92,2.64,19.28,-3.5,10.34
6.94453501701355,2,3,3,3,3.05,6.45,2.21,16.08,-3.96,11.89
6.954535007476807,2,3,3,3,1.34,6.04,0.9399999999999999,10.97,-5.94,12.11
6.964534997940063,2,3,3,3,0.28,5.29,0.71,5.92,-6.39,11.68
6.97453498840332,2,3,3,3,-0.8,4.23,0.22,0.53,-4.01,10.81
6.984534978866577,2,3,3,3,-2.12,3.23,0.03,-3.79,-0.62,10.16
6.994534969329834,2,3,3,3,-4.52,2.24,0.01,-6.33,1.84,9.460000000000001
7.004534959793091,2,3,3,3,-5.21,1.7,-0.05,-8.34,3.18,8.27
7.014534950256348,2,3,3,3,-5.4,1.31,-0.26,-10.23,3.1,6.34
7.024534940719604,2,3,3,3,-4.23,0.17,-0.62,-11.28,1.09,3.71
7.034534931182861,2,3,3,3,-3.5,-0.22,-0.77,-11.58,-1.91,0.92
7.044534921646118,2,3,3,3,-2.7,-0.48,-1.03,-11.33,-3.9,-1.41
7.054534912109375,2,3,3,3,-1.86,-1.02,-1.25,-9.98,-3.76,-2.98
7.064534902572632,2,3,3,3,-0.63,-1.86,-0.76,-7.62,-2.03,-4.12
7.074534893035889,2,3,3,3,-0.34,-2.2,-0.52,-4.64,0.16,-5.28
7.084534883499146,2,3,3,3,-0.08,-2.62,-0.62,-2.26,0.83,-6.34
7.094535112380981,2,3,3,3,0.17,-2.77,-0.98,-0.74,0.14,-6.98
7.104535102844238,2,3,3,3,0.88,-1.95,-1.45,1.28,-0.86,-7.23
7.114535093307495,2,3,3,3,1.42,-1.51,-0.8,4.39,-1.64,-7.15
7.124535083770752,2,3,3,3,2.05,-0.78,-0.29,8.109999999999999,-2.68,-6.61
7.134535074234009,2,3,3,3,2.59,-0.09,-0.02,10.87,-3.62,-5.46
7.144535064697266,2,3,3,3,2.86,1.4,-0.32,12.11,-3.75,-3.87
7.154535055160522,2,3,3,3,2.7,2.06,-0.39,12.35,-3.72,-1.82
7.164535045623779,2,3,3,3,2.49,2.47,0.17,11.62,-3.27,0.38
7.174535036087036,2,3,3,3,1.08,1.64,2.4,9.949999999999999,-2.92,2.48
7.184535026550293,2,3,3,3,-0.44,-0.18,3.14,6.28,-4.14,4.68
7.19453501701355,2,3,3,3,-0.48,-1.98,2.44,1.97,-8.49,7.47
7.204535007476807,2,3,3,3,0.42,-3.77,0.33,-2.76,-12.08,9.92
7.214534997940063,2,3,3,3,-1.43,-7.11,2.86,-4.81,-9.18,11.66
7.22453498840332,2,3,3,3,-4.57,-9.789999999999999,1.87,-1.8,-1.7,13.73
7.234534978866577,2,3,3,3,-11.35,-8.35,4.03,-1.16,5.2,16.4
7.244534969329834,2,3,3,3,-20.74,-5.62,7.91,1.79,10.83,19.44
7.254534959793091,2,3,3,3,-39.11,-5.16,9.85,-0.93,9.23,20.98
7.264534950256348,2,3,3,3,-39.04,-1.64,-3.93,11.1,-20.55,24.28
7.274534940719604,2,3,3,3,-36.13,6.37,-1.17,23.44,-7.91,5.66
7.284534931182861,2,3,3,3,-27.47,16.79,8.210000000000001,26.2,23.54,-19.76
7.294534921646118,2,3,3,3,-24.65,3.87,8.970000000000001,14.93,-7.61,-13.14
7.304534912109375,2,3,3,3,-15.49,2.01,7.73,-9.359999999999999,-13.28,-0.74
7.314534902572632,2,3,3,3,-9.57,0.35,7.58,-15.56,-20.74,6.52
7.324534893035889,2,3,3,3,-8.859999999999999,-1.56,9.460000000000001,-11.05,-17.51,10.96
7.334534883499146,2,3,3,3,-17.11,-0.64,8.73,-5.38,-1.79,12.58
7.344535112380981,2,3,3,3,-21.28,1.45,6.1,-1.94,10.61,11.65
7.354535102844238,2,3,3,3,-24.8,2.42,4.17,1.24,14.98,8.050000000000001
7.364535093307495,2,3,3,3,-25.94,2.16,4.37,3.65,11.05,4.48
7.374535083770752,2,3,3,3,-21.61,2.05,4.64,4.73,1.53,1.9
7.384535074234009,2,3,3,3,-17.28,2.33,5.22,5.45,-7,-1.16
7.394535064697266,2,3,3,3,-15.39,2.38,5.63,3.59,-8.59,-4.05
7.404535055160522,2,3,3,3,-14.93,1.97,5.57,0.02,-4.28,-5.68
7.414535045623779,2,3,3,3,-14.48,1.65,5.72,-2.49,0.29,-6.58
7.424535036087036,2,3,3,3,-14.24,0.84,5.88,-3.9,2.96,-6.98
7.434535026550293,2,3,3,3,-14.25,-0.15,5.58,-4.78,3.71,-6.1
7.44453501701355,2,3,3,3,-13.36,-1.6,3.54,-6.08,3.77,-4.77
7.454535007476807,2,3,3,3,-12.38,-1.85,2.41,-6.58,2.8,-3.5
7.464534997940063,2,3,3,3,-10.91,-1.72,1.71,-6.15,1.3,-2.44
7.47453498840332,2,3,3,3,-9.369999999999999,-1.46,1.52,-4.98,0.67,-1.57
7.484534978866577,2,3,3,3,-8.16,-0.98,2.13,-4.03,1.57,-1.33
7.494534969329834,2,3,3,3,-8.24,-0.88,2.31,-2.98,3.55,-1.64
7.504534959793091,2,3,3,3,-8.289999999999999,-0.82,2.15,-2.26,4.62,-2.08
7.514534950256348,2,3,3,3,-8.17,-0.86,2.04,-2.15,3.7,-2.56
7.524534940719604,2,3,3,3,-7.3,-0.98,1.51,-2.56,1.91,-2.95
7.534534931182861,2,3,3,3,-6.56,-1.07,1.26,-3.06,0.68,-3.26
7.544534921646118,2,3,3,3,-5.79,-1.32,1.02,-3.52,0.39,-3.92
7.554534912109375,2,3,3,3,-4.55,-1.49,0.87,-3.76,1.29,-4.32
7.564534902572632,2,3,3,3,-4.25,-1.55,1.1,-3.5,2.5,-4.54
7.574534893035889,2,3,3,3,-4.07,-1.81,1.27,-3.19,3.31,-4.37
7.584534883499146,2,3,3,3,-3.96,-1.83,1.25,-3.04,3.45,-4.02
7.594535112380981,2,3,3,3,-4.4,-2.1,0.93,-3.03,3.45,-3.24
7.604535102844238,2,3,3,3,-4.82,-2.22,0.91,-2.88,3.72,-2.35
7.614535093307495,2,3,3,3,-5.24,-2.22,1.09,-2.15,3.63,-1.63
7.624535083770752,2,3,3,3,-5.45,-2.01,1.08,-1.3,2.59,-1.07
7.634535074234009,2,3,3,3,-5.92,-1.91,1.3,-0.72,1.5,-0.74
7.644535064697266,2,3,3,3,-6.21,-1.98,1.41,-0.14,1.04,-0.49
7.654535055160522,2,3,3,3,-6.45,-2.1,1.45,0.06,0.41,-0.28
7.664535045623779,2,3,3,3,-6.62,-2.24,1.42,-0.16,-0.53,-0.03
7.674535036087036,2,3,3,3,-7.34,-2.37,1.39,-0.27,-0.65,0.3
7.684535026550293,2,3,3,3,-7.93,-2.21,1.58,0.52,0.41,0.62
7.69453501701355,2,3,3,3,-8.5,-1.96,1.86,2.03,1.24,1.03
7.704535007476807,2,3,3,3,-8.92,-1.62,2.1,3.62,1.19,1.39
7.714534997940063,2,3,3,3,-9.449999999999999,-1.03,2.59,4.68,0.41,1.75
7.72453498840332,2,3,3,3,-9.93,-0.73,2.87,5.06,-0.22,2.03
7.734534978866577,2,3,3,3,-10.57,-0.34,3.2,5.29,-0.09,2.2
7.744534969329834,2,3,3,3,-11.78,0.58,3.36,5.2,0.3,2.27
7.755534887313843,2,3,3,3,-12.04,1.13,3.23,4.57,0.33,2.09
7.7655348777771,2,3,3,3,-11.88,1.63,3.15,3.54,0.12,1.62
7.775535106658936,2,3,3,3,-11.52,1.89,3.08,2.45,0.18,0.9399999999999999
7.785535097122192,2,3,3,3,-10.56,1.28,3.09,1.36,0.54,0.12
7.795535087585449,2,3,3,3,-10.2,0.92,2.93,0.38,0.83,-0.51
7.805535078048706,2,3,3,3,-9.970000000000001,0.67,2.7,-0.41,0.91,-0.85
7.815535068511963,2,3,3,3,-9.93,0.41,2.72,-0.92,1.31,-0.93
7.82553505897522,2,3,3,3,-9.890000000000001,-0.15,2.87,-1.27,1.39,-0.79
7.835535049438477,2,3,3,3,-9.77,-0.4,2.71,-1.39,0.99,-0.62
7.845535039901733,2,3,3,3,-9.65,-0.5600000000000001,2.57,-1.58,0.7,-0.46
7.85553503036499,2,3,3,3,-9.57,-0.6899999999999999,2.44,-1.66,0.77,-0.47
7.865535020828247,2,3,3,3,-9.529999999999999,-0.93,2.56,-1.6,0.89,-0.55
7.875535011291504,2,3,3,3,-9.43,-0.99,2.46,-1.53,0.83,-0.68
7.885535001754761,2,3,3,3,-9.27,-1.07,2.32,-1.54,0.64,-0.8100000000000001
7.895534992218018,2,3,3,3,-9.1,-1.15,2.15,-1.58,0.46,-0.87
7.905534982681274,2,3,3,3,-8.58,-1.26,1.87,-1.39,0.37,-0.83
7.915534973144531,2,3,3,3,-8.449999999999999,-1.25,2.03,-0.91,0.4,-0.67
7.925534963607788,2,3,3,3,-8.449999999999999,-1.3,2.2,-0.17,0.35,-0.37
7.935534954071045,2,3,3,3,-8.619999999999999,-1.43,2.18,0.31,-0.06,0.07000000000000001
7.945534944534302,2,3,3,3,-8.73,-1.47,2.05,0.22,-0.6,0.46
7.955534934997559,2,3,3,3,-8.93,-1.33,1.77,0.05,-0.64,0.73
7.965534925460815,2,3,3,3,-9.119999999999999,-1.28,1.74,-0.06,-0.42,0.89
7.995534896850586,2,3,3,3,-8.9,-1.1,1.74,0.28,-1.54,0.62
8.005534887313843,2,3,3,3,-9.15,-1.12,1.93,0.2,-1.09,0.41
8.0155348777771,2,3,3,3,-9.58,-0.99,2.27,1.01,-0.9399999999999999,0.3
8.025535106658936,2,3,3,3,-9.49,-1.03,2.04,1.27,-1.68,0.19
8.035535097122192,2,3,3,3,-9.49,-1.12,1.83,0.49,-2.05,0.15
8.045535087585449,2,3,3,3,-9.6,-1.18,1.93,-0.08,-1.4,0.16
8.055535078048706,2,3,3,3,-9.67,-1.09,1.86,0.07000000000000001,-0.7,0.21
8.065535068511963,2,3,3,3,-9.74,-1.11,1.96,-0.12,-0.51,0.09
8.07553505897522,2,3,3,3,-9.85,-1.05,2.14,-0.08,-0.19,-0.16
8.085535049438477,2,3,3,3,-9.85,-1.05,2.14,0.26,-0.17,-0.48
8.095535039901733,2,3,3,3,-9.5,-0.83,2.04,0.26,-0.17,-0.48
8.10553503036499,2,3,3,3,-9.289999999999999,-0.65,2.07,-0.15,-0.15,-0.77
8.115535020828247,2,3,3,3,-9.24,-0.6,2.29,-0.13,-0.04,-0.79
8.125535011291504,2,3,3,3,-9.25,-0.66,2.28,-0.01,-0.14,-0.79
8.135535001754761,2,3,3,3,-9.25,-0.66,2.28,-0.01,-0.14,-0.79
8.145534992218018,2,3,3,3,-9.42,-0.65,2.27,-0.2,0.13,-0.57
8.155534982681274,2,3,3,3,-9.630000000000001,-0.75,1.94,-0.38,0.12,-0.49
8.165534973144531,2,3,3,3,-9.539999999999999,-0.86,1.99,-0.44,0.07000000000000001,-0.44
8.175534963607788,2,3,3,3,-9.449999999999999,-0.95,2.03,-0.38,0.04,-0.43
8.185534954071045,2,3,3,3,-9.449999999999999,-0.95,2.03,-0.38,0.04,-0.43
8.195534944534302,2,3,3,3,-9.390000000000001,-1.04,2.06,-0.27,0.15,-0.44
8.205534934997559,2,3,3,3,-9.539999999999999,-1.19,1.93,0.03,0.58,-0.6
8.215534925460815,2,3,3,3,-9.59,-1.23,2.01,0.11,0.66,-0.67
8.225534915924072,2,3,3,3,-9.699999999999999,-1.18,2.04,0.28,0.67,-0.6899999999999999
8.235534906387329,2,3,3,3,-9.699999999999999,-1.18,2.04,0.28,0.67,-0.6899999999999999
8.245534896850586,2,3,3,3,-9.65,-1.12,2.04,0.6899999999999999,0.38,-0.64
8.255534887313843,2,3,3,3,-9.24,-1.07,1.93,0.98,-0.25,-0.48
8.2655348777771,2,3,3,3,-9.119999999999999,-1.07,2,1.17,-0.24,-0.36
8.275535106658936,2,3,3,3,-9.08,-1.07,2.25,1.2,-0.14,-0.24
8.285535097122192,2,3,3,3,-9.08,-1.07,2.25,1.2,-0.14,-0.24
8.295535087585449,2,3,3,3,-9.07,-1.21,2.32,1.12,-0.18,-0.16
8.305535078048706,2,3,3,3,-9.17,-1.44,1.8,-0.25,-0.05,-0.27
8.315535068511963,2,3,3,3,-9.31,-1.24,1.53,-0.96,0.46,-0.54
8.32553505897522,2,3,3,3,-9.210000000000001,-1.17,1.46,-1.28,0.97,-0.97
8.335535049438477,2,3,3,3,-9.210000000000001,-1.17,1.46,-1.28,0.97,-0.97
8.345535039901733,2,3,3,3,-8.92,-1.12,1.31,-1.23,1.28,-1.47
8.35553503036499,2,3,3,3,-7.95,-1.59,1.25,-1.32,1.63,-2.21
8.365535020828247,2,3,3,3,-7.78,-1.81,1.36,-1.32,1.86,-2.48
8.375535011291504,2,3,3,3,-7.67,-1.93,1.43,-1.12,2.07,-2.73
8.385535001754761,2,3,3,3,-7.67,-1.93,1.43,-0.67,1.9,-3
8.395534992218018,2,3,3,3,-7.5,-1.93,1.38,-0.71,0.91,-3.33
8.405534982681274,2,3,3,3,-5.93,-2.04,0.58,-1.3,-0.35,-3.83
8.415534973144531,2,3,3,3,-5.34,-2.11,0.35,-1.83,-0.98,-4.35
8.425534963607788,2,3,3,3,-4.96,-2.14,0.34,-2.18,-0.95,-4.86
8.435534954071045,2,3,3,3,-4.96,-2.14,0.34,-2.18,-0.95,-4.86
8.445534944534302,2,3,3,3,-4.63,-1.8,0.9,-1.5,-0.67,-5.5
8.455534934997559,2,3,3,3,-3.94,-1.5,0.15,-2.13,-0.8,-5.34
8.465534925460815,2,3,3,3,-3.45,-1.47,0.05,-3.21,-0.22,-5.17
8.475534915924072,2,3,3,3,-3.97,-1.44,1.02,-2.78,1.21,-4.76
8.485534906387329,2,3,3,3,-3.97,-1.44,1.02,-2.78,1.21,-4.76
8.495534896850586,2,3,3,3,-4.79,-1.51,1.62,-1.23,2,-3.83
8.505534887313843,2,3,3,3,-6.19,-1.07,1.86,-0.19,-1.5,-1.25
8.5155348777771,2,3,3,3,-6.67,-0.88,2.6,0.5600000000000001,-3.74,-0.04
8.525535106658936,2,3,3,3,-7.4,-0.92,3.26,1.68,-5.41,1.01
8.535535097122192,2,3,3,3,-7.4,-0.92,3.26,1.68,-5.41,1.01
8.545535087585449,2,3,3,3,-8.32,-1.14,3.6,1.89,-5.92,1.52
8.555535078048706,2,3,3,3,-10.32,-1.21,3.54,-0.59,-4.45,1.25
8.565535068511963,2,3,3,3,-11.1,-0.89,3.11,-2.68,-2.98,-0.03
8.57553505897522,2,3,3,3,-11.47,-0.49,2.87,-5.16,-0.87,-2.14
8.585535049438477,2,3,3,3,-11.58,-0.5,2.67,-5.16,-0.87,-2.14
8.595535039901733,2,3,3,3,-12.29,-1.21,3.06,-6.21,0.6,-4.14
8.60553503036499,2,3,3,3,-12.69,-1.79,3.77,-4.53,-3.66,-4.78
8.615535020828247,2,3,3,3,-12.98,-2.19,4.29,-3.89,-6.11,-3.46
8.625535011291504,2,3,3,3,-13.31,-2.4,4.58,-3.16,-6.43,-1.92
8.635535001754761,2,3,3,3,-13.74,-2.6,4.45,-3.16,-6.43,-1.92
8.645534992218018,2,3,3,3,-13.72,-2.66,4.71,-1.89,-5.18,-0.43
8.655534982681274,2,3,3,3,-13.88,-2.6,5.51,-1.27,-5.27,1.63
8.665534973144531,2,3,3,3,-14.89,-1.83,6.45,-2.38,-5.55,1.63
8.675534963607788,2,3,3,3,-16.01,-1.52,6.39,-3.32,-3.97,1.44
8.685534954071045,2,3,3,3,-17.27,-1.42,5.95,-3.32,-3.97,1.44
8.695534944534302,2,3,3,3,-18.05,-1.3,5.75,-3.72,-0.98,1.41
8.705534934997559,2,3,3,3,-19.4,-2.26,5.31,-2.12,2.57,0.99
8.715534925460815,2,3,3,3,-20.14,-2.47,5.1,-0.59,2.59,-0.03
8.725534915924072,2,3,3,3,-20.84,-2.41,5.4,0.5,2.61,-1.58
8.735534906387329,2,3,3,3,-21.27,-1.96,5.4,0.5,2.61,-1.58
8.745534896850586,2,3,3,3,-20.78,-1.35,5.65,0.49,2.38,-2.77
8.755534887313843,2,3,3,3,-20.27,-1.05,5.85,0.24,2.98,-2.36
8.7655348777771,2,3,3,3,-19.64,-1.05,5.99,0.49,3.32,-1.05
8.775535106658936,2,3,3,3,-19.08,-1.27,6.06,0.65,3.03,1.01
8.786535024642944,2,3,3,3,-19.43,-2.24,6.32,0.65,3.03,1.01
8.796535015106201,2,3,3,3,-20.74,-2.39,6.23,0.97,3.18,3.02
8.806535005569458,2,3,3,3,-22.28,-2.19,6.44,4.54,5.56,5.84
8.816534996032715,2,3,3,3,-23.78,-1.6,6.41,7.68,6.26,6.91
8.826534986495972,2,3,3,3,-24.3,1.23,5.77,9.800000000000001,6.64,7.12
8.836534976959229,2,3,3,3,-23.26,2.15,6.83,9.800000000000001,6.64,7.12
8.846534967422485,2,3,3,3,-21.43,2.68,7.31,11,6.74,7.3
8.856534957885742,2,3,3,3,-15.8,2.46,7.24,8.01,5.61,6.91
8.866534948348999,2,3,3,3,-13.47,0.27,7.15,3.52,7.8,5.54
8.876534938812256,2,3,3,3,-12.28,-2.51,6.23,-0.99,11.23,5.09
8.886534929275513,2,3,3,3,-11.45,-3.85,4.61,-0.99,11.23,5.09
8.89653491973877,2,3,3,3,-8.960000000000001,-6.35,-1.33,-6.49,11.92,4.99
8.906534910202026,2,3,3,3,-6.84,-6.47,-4.29,-13.64,12.79,-2.3
8.916534900665283,2,3,3,3,-4.42,-6.95,-6.04,-18.06,14.15,-6.18
8.92653489112854,2,3,3,3,-2.87,-8.92,-7.92,-24.92,8.84,-10.92
8.936534881591797,2,3,3,3,-3.61,-10.72,-10.25,-24.92,8.84,-10.92
8.946535110473633,2,3,3,3,-3.99,-13.53,-8.83,-28.7,3.09,-14.11
8.95653510093689,2,3,3,3,-1.88,-18.05,-7.72,-5.96,-9.56,-19.77
8.966535091400146,2,3,3,3,3.85,-21.37,-6.04,14.83,-19.62,-16.88
8.976535081863403,2,3,3,3,13.74,-9.74,-2.89,29.04,-20.08,-3.9
8.98653507232666,2,3,3,3,12.84,1.4,-1.64,29.04,-20.08,-3.9
8.996535062789917,2,3,3,3,10.08,6.79,0.01,35.63,-1.27,16.44
9.006535053253174,2,3,3,3,6.35,9.4,3.24,32.32,2.58,16.84
9.016535043716431,2,3,3,3,5.6,9.19,3.32,25.41,5.22,17.4
9.026535034179688,2,3,3,3,3.96,8.85,3.09,14.4,3.98,17.15
9.036535024642944,2,3,3,3,1.88,8.09,3.2,14.4,3.98,17.15
9.046535015106201,2,3,3,3,-1.91,6.42,2.95,1.08,0.55,15.77
9.056535005569458,2,3,3,3,-3.78,5.43,1.98,-22.06,-3.22,11.79
9.066534996032715,2,3,3,3,-5.86,4.18,0.67,-26.43,-0.15,7.92
9.076534986495972,2,3,3,3,-7.41,2.78,-0.23,-26.1,2.17,3.85
9.086534976959229,2,3,3,3,-8.42,0.79,-1.31,-26.1,2.17,3.85
9.096534967422485,2,3,3,3,-7.87,-0.61,-2.12,-20.4,2.04,-4.76
9.106534957885742,2,3,3,3,-6.19,-1.25,-2.55,-13.57,2.97,-8.44
9.116534948348999,2,3,3,3,-4,-1.9,-2.34,-7.72,4.69,-10.94
9.126534938812256,2,3,3,3,-1.22,-3.42,-1.14,-3.17,6.22,-12.4
9.136534929275513,2,3,3,3,-0.58,-3.24,-0.3,-3.17,6.22,-12.4
9.14653491973877,2,3,3,3,-0.16,-2.72,0.13,4.29,3.12,-13.79
9.156534910202026,2,3,3,3,0.44,-2.57,0.22,5.27,-0.46,-13.7
9.166534900665283,2,3,3,3,2.72,-2.25,-0.64,7.01,-3.29,-12.29
9.17653489112854,2,3,3,3,4.03,-1.33,-0.88,9.300000000000001,-3.19,-9.94
9.186534881591797,2,3,3,3,4.83,-0.37,-0.57,9.300000000000001,-3.19,-9.94
9.196535110473633,2,3,3,3,5.08,1.39,0.24,10.67,-2.24,-7.16
9.20653510093689,2,3,3,3,4.71,2.44,0.36,8.789999999999999,-4.22,-0.16
9.216535091400146,2,3,3,3,3.98,2.9,0.46,6.6,-5.04,2.77
9.226535081863403,2,3,3,3,2.98,2.86,0.67,4.67,-4.97,4.74
9.23653507232666,2,3,3,3,0.96,1.96,0.82,4.67,-4.97,4.74
9.246535062789917,2,3,3,3,0.54,1.52,0.24,2.12,-2.55,6.88
9.256535053253174,2,3,3,3,0.09,1.23,-0.4,1.83,0.21,7.76
9.266535043716431,2,3,3,3,-0.89,0.86,-0.03,1.99,2.69,8.76
9.276535034179688,2,3,3,3,-3.59,-1.38,1.48,2.53,0.2,10.18
9.286535024642944,2,3,3,3,-3.65,-1.95,2.29,2.53,0.2,10.18
9.296535015106201,2,3,3,3,-3.31,-2.96,2.44,-2.51,-8.01,10.22
9.306535005569458,2,3,3,3,-5.02,-4.34,5.39,-1.59,-5.43,11.47
9.316534996032715,2,3,3,3,-13.61,-7.69,9.699999999999999,-4.72,-5.15,13.7
9.326534986495972,2,3,3,3,-19.74,-8.52,8.85,-10.19,-2.84,17.24
9.336534976959229,2,3,3,3,-34.95,-10.95,5.3,-10.19,-2.84,17.24
9.346534967422485,2,3,3,3,-39.11,-9.449999999999999,3.65,18.67,-5.17,13.06
9.356534957885742,2,3,3,3,-37.2,8.17,-4.64,23.64,23.45,-19.15
9.366534948348999,2,3,3,3,-27.44,11.28,3.29,18.45,-3.17,-17.09
9.376534938812256,2,3,3,3,-29.15,-1.98,9.57,1.57,4.54,4.22
9.386534929275513,2,3,3,3,-22.57,-1.33,5.37,1.57,4.54,4.22
9.39653491973877,2,3,3,3,-13.56,2.46,4.3,4.44,-19.2,2.3
9.406534910202026,2,3,3,3,-9.550000000000001,3.46,9.800000000000001,9.66,-4.08,5.41
9.416534900665283,2,3,3,3,-11.25,4.16,11.6,9.050000000000001,10.49,7.94
9.42653489112854,2,3,3,3,-22.74,7.32,7.69,-2.36,12.06,5.44
9.436534881591797,2,3,3,3,-29.89,5.35,6,-2.36,12.06,5.44
9.446535110473633,2,3,3,3,-32.34,3.83,4.45,-4.21,2.56,1.66
9.45653510093689,2,3,3,3,-27.78,2.69,1.59,-2.36,-4.82,-5.07
9.466535091400146,2,3,3,3,-15.43,1.98,0.57,-1.95,-7.85,-10.71
9.476535081863403,2,3,3,3,-11.33,1.72,1.97,-4.09,-3.37,-11.65
9.48653507232666,2,3,3,3,-8.529999999999999,1,3.22,-4.09,-3.37,-11.65
9.496535062789917,2,3,3,3,-6.79,-0.41,3.54,-5.35,1.57,-9.039999999999999
9.506535053253174,2,3,3,3,-6.16,-1.87,2.44,-5.35,1.57,-9.039999999999999
9.516535043716431,2,3,3,3,-6.89,-2.63,1.9,-6.13,5.24,-6.99
9.526535034179688,2,3,3,3,-7.86,-3.26,1.41,-5.34,6.52,-4.63
9.536535024642944,2,3,3,3,-8.539999999999999,-3.64,0.83,-4.31,3.91,-3.94
9.546535015106201,2,3,3,3,-6.6,-3.02,-0.95,-3.67,1.84,-3.27
9.556535005569458,2,3,3,3,-4.32,-1.97,-1.43,-3.67,1.84,-3.27
9.566534996032715,2,3,3,3,-2.45,-1.18,-1.15,-2.5,2.14,-2.84
9.576534986495972,2,3,3,3,-0.84,-0.84,0.8,1.06,4.91,-3.58
9.586534976959229,2,3,3,3,-0.59,-1.09,1.33,2.21,3.08,-4.36
9.596534967422485,2,3,3,3,-0.46,-1.21,1.53,2.47,0.22,-4.66
9.606534957885742,2,3,3,3,-0.5,-1.31,1.57,2.47,0.22,-4.66
9.616534948348999,2,3,3,3,-1.36,-1.58,1.02,1.41,-2.16,-4.41
9.626534938812256,2,3,3,3,-2.33,-2,0.66,-3.49,-4.59,-2.4
9.636534929275513,2,3,3,3,-3.71,-2.48,0.78,-3.92,-4.27,-0.86
9.64653491973877,2,3,3,3,-5.08,-3.05,1.4,-2.6,-4.69,0.6
9.656534910202026,2,3,3,3,-7.05,-4.31,2.5,-0.87,-4.82,2.41
9.666534900665283,2,3,3,3,-8.630000000000001,-5,2.45,1.42,-2.79,4.36
9.67653489112854,2,3,3,3,-10.9,-5.51,1.81,3.89,-0.67,6.36
9.686534881591797,2,3,3,3,-13.45,-5.95,1.19,7.69,-1.59,8.08
9.696535110473633,2,3,3,3,-15.31,-4.36,0.45,12.6,-2.46,8.800000000000001
9.70653510093689,2,3,3,3,-14.16,-2.52,0.28,14.69,1.26,6.68
9.716535091400146,2,3,3,3,-12.76,0.03,1.27,13.55,3.32,2.71
9.726535081863403,2,3,3,3,-11.96,4.96,4.04,10.53,1.51,-0.73
9.73653507232666,2,3,3,3,-12.16,5.57,4.79,6.09,-0.72,-1.87
9.746535062789917,2,3,3,3,-12.27,4.99,5.25,1.71,-1.09,-0.39
9.756535053253174,2,3,3,3,-12.4,4.11,5.05,-2.3,0.41,0.38
9.766535043716431,2,3,3,3,-11.23,1.25,3.78,-5.72,1.71,0.24
9.776535034179688,2,3,3,3,-9.81,-0.58,3.29,-6.95,0.66,1
9.786535024642944,2,3,3,3,-8.289999999999999,-1.37,2.85,-7.68,-1.03,0.91
9.796535015106201,2,3,3,3,-7.01,-1.96,2.21,-7.8,0.05,0.27
9.80753493309021,2,3,3,3,-6.26,-1.95,1.26,-6.13,3.23,0.06
9.817534923553467,2,3,3,3,-7.46,-1.51,1.25,-3.38,5.38,-0.08
9.827534914016724,2,3,3,3,-8.85,-1.23,1.4,-0.75,3.9,-0.24
9.83753490447998,2,3,3,3,-9.68,-0.96,1.57,0.89,0.26,-0.5
9.847534894943237,2,3,3,3,-9.5,-0.79,1.96,1.95,-2.19,-0.62
9.857534885406494,2,3,3,3,-8.699999999999999,-0.78,2.16,1.95,-3.25,-0.61
9.867534875869751,2,3,3,3,-7.83,-0.86,2.41,1.33,-2.89,-0.47
9.877535104751587,2,3,3,3,-7.25,-1.05,2.85,0.6,-1.83,-0.38
9.887535095214844,2,3,3,3,-7.72,-1.43,3.07,-0.3,-0.99,-0.57
9.897535085678101,2,3,3,3,-8.57,-1.62,2.9,-1.14,-0.31,-1.24
9.907535076141357,2,3,3,3,-9.56,-1.67,2.52,-1.58,0.7,-2.07
9.917535066604614,2,3,3,3,-11.13,-1.44,2.01,-1.32,1.65,-2.6
9.927535057067871,2,3,3,3,-11.33,-1.22,1.82,-0.8100000000000001,1.87,-2.83
9.937535047531128,2,3,3,3,-11.26,-1.08,1.74,-0.5600000000000001,1.61,-2.46
9.947535037994385,2,3,3,3,-11.04,-0.98,1.96,-0.24,0.9399999999999999,-1.58
9.957535028457642,2,3,3,3,-10.09,-1.07,2.08,-0.36,0.24,-0.67
9.967535018920898,2,3,3,3,-9.67,-1.25,1.99,-0.73,0.06,0.02
9.977535009384155,2,3,3,3,-9.359999999999999,-1.44,2.18,-1,0.08,0.51
9.987534999847412,2,3,3,3,-9.130000000000001,-1.63,2.28,-1.26,-0.03,0.83
9.997534990310669,2,3,3,3,-9.1,-1.77,2.11,-1.28,0.08,1.02
10.00753498077393,2,3,3,3,-9.199999999999999,-1.61,1.93,-0.63,0.16,1.02
10.01753497123718,2,3,3,3,-9.15,-1.35,1.69,0.28,0.4,0.78
10.02753496170044,2,3,3,3,-8.99,-1.13,1.62,1.26,0.8100000000000001,0.44
10.0375349521637,2,3,3,3,-8.779999999999999,-0.88,1.99,2.19,0.89,-0.1
10.04753494262695,2,3,3,3,-8.84,-0.9399999999999999,2.27,2.63,0.27,-0.5600000000000001
10.05753493309021,2,3,3,3,-8.970000000000001,-1.09,2.43,2.5,-0.59,-0.85
10.06753492355347,2,3,3,3,-9.130000000000001,-1.18,2.31,1.9,-1.31,-0.9
10.07753491401672,2,3,3,3,-9.17,-1.36,2.16,1.25,-1.51,-0.64
10.08753490447998,2,3,3,3,-9.289999999999999,-1.28,2.17,0.63,-1.06,-0.13
10.09753489494324,2,3,3,3,-9.550000000000001,-1.17,2.25,0.27,-0.53,0.43
10.10753488540649,2,3,3,3,-9.800000000000001,-0.89,2.15,-0.07000000000000001,-0.3,0.9
10.11753487586975,2,3,3,3,-9.800000000000001,-0.75,2.14,-0.18,-0.15,1.19
10.12753510475159,2,3,3,3,-9.800000000000001,-0.7,2.28,-0.14,-0.12,1.34
10.13753509521484,2,3,3,3,-9.869999999999999,-0.79,2.38,-0.2,-0.33,1.3
10.1475350856781,2,3,3,3,-9.93,-1.15,2.29,-0.35,-0.58,1.14
10.15753507614136,2,3,3,3,-9.92,-1.36,2.23,-0.07000000000000001,-0.67,0.91
10.16753506660461,2,3,3,3,-9.99,-1.29,2.09,1.07,-0.87,0.74
10.17753505706787,2,3,3,3,-10.1,-1.1,2.19,1.99,-1.82,0.64
10.18753504753113,2,3,3,3,-9.470000000000001,-1.06,2.18,1.91,-2.76,0.5
10.19753503799438,2,3,3,3,-9.119999999999999,-1.14,1.93,0.96,-2.52,0.37
10.20753502845764,2,3,3,3,-8.960000000000001,-1.17,1.79,0.22,-1.49,0.33
10.2175350189209,2,3,3,3,-9.02,-1.15,1.78,0.18,-0.67,0.25
10.22753500938416,2,3,3,3,-9.130000000000001,-1.01,1.95,0.27,-0.25,0.13
10.23753499984741,2,3,3,3,-9.199999999999999,-1.06,2.03,0.28,-0.31,0.07000000000000001
10.24753499031067,2,3,3,3,-9.23,-1.12,2.16,0.26,-0.48,0.19
10.25753498077393,2,3,3,3,-9.25,-1.16,2.22,0.11,-0.55,0.38
10.26753497123718,2,3,3,3,-9.41,-1.04,2.01,-0.18,-0.36,0.59
10.27753496170044,2,3,3,3,-9.56,-0.92,2.17,-0.04,-0.08,0.68
10.2875349521637,2,3,3,3,-9.720000000000001,-0.85,2.36,0.26,0.01,0.6
10.29753494262695,2,3,3,3,-9.84,-0.8,2.46,0.22,-0.1,0.45
10.30753493309021,2,3,3,3,-9.83,-0.82,2.39,0.09,-0.16,0.27
10.31753492355347,2,3,3,3,-9.81,-0.83,2.32,-0.13,-0.18,0.15
10.32753491401672,2,3,3,3,-9.74,-0.89,2.26,-0.41,-0.22,0.06
10.33753490447998,2,3,3,3,-9.48,-0.87,2.3,-0.49,-0.11,0.04
10.34753489494324,2,3,3,3,-9.4,-0.96,2.35,-0.43,-0.04,0.07000000000000001
10.35753488540649,2,3,3,3,-9.27,-0.98,2.35,-0.47,0.09,0.04
10.36753487586975,2,3,3,3,-9.210000000000001,-1.08,2.12,-0.55,0.28,0.07000000000000001
10.37753510475159,2,3,3,3,-9.43,-1.13,2.27,-0.4,0.29,0.08
10.3975350856781,2,3,3,3,-9.539999999999999,-1.04,2.32,-0.54,-0.18,0.07000000000000001
10.40753507614136,2,3,3,3,-9.5,-0.99,2.31,-0.71,-0.07000000000000001,0.04
10.41753506660461,2,3,3,3,-9.449999999999999,-0.9399999999999999,2.23,-0.79,0.08,-0.07000000000000001
10.42753505706787,2,3,3,3,-9.460000000000001,-0.98,2.25,-0.87,0.19,-0.2
10.43753504753113,2,3,3,3,-9.5,-0.98,2.24,-0.87,0.3,-0.34
10.44753503799438,2,3,3,3,-9.58,-1.01,2.26,-0.79,0.28,-0.41
10.45753502845764,2,3,3,3,-9.59,-1.1,2.28,-0.6899999999999999,0.2,-0.42
10.4675350189209,2,3,3,3,-9.57,-1.06,2.22,-0.46,0.09,-0.32
10.47753500938416,2,3,3,3,-9.529999999999999,-0.96,2.37,-0.38,-0.16,-0.16
10.48753499984741,2,3,3,3,-9.41,-0.93,2.44,-0.48,-0.31,-0.01
10.49753499031067,2,3,3,3,-9.359999999999999,-0.97,2.47,-0.79,-0.2,0.1
10.50753498077393,2,3,3,3,-9.41,-0.99,2.55,-0.83,-0.03,0.15
10.51753497123718,2,3,3,3,-9.41,-0.9399999999999999,2.34,-0.98,-0.08,0.15
10.52753496170044,2,3,3,3,-9.43,-0.8100000000000001,2.23,-1.13,0.02,0.16
10.5375349521637,2,3,3,3,-9.460000000000001,-0.77,2.26,-1,0.23,0.16
10.54753494262695,2,3,3,3,-9.43,-0.74,2.27,-1.08,0.3,0.13
10.55753493309021,2,3,3,3,-9.4,-0.8,2.27,-1.24,0.32,0.06
10.56753492355347,2,3,3,3,-9.460000000000001,-0.97,2.1,-1.31,0.35,-0.09
10.57753491401672,2,3,3,3,-9.5,-1.05,2.16,-1.33,0.46,-0.22
10.58753490447998,2,3,3,3,-9.51,-1.1,2.18,-1.28,0.44,-0.26
10.59753489494324,2,3,3,3,-9.57,-1.14,2.2,-1.31,0.33,-0.26
10.60753488540649,2,3,3,3,-9.65,-1.17,2.08,-1.31,0.16,-0.2
10.61753487586975,2,3,3,3,-9.57,-1.13,2,-1.15,0.14,-0.14
10.62753510475159,2,3,3,3,-9.52,-1.16,2.15,-0.86,0.16,-0.09
10.63753509521484,2,3,3,3,-9.42,-1.04,2.34,-0.72,0.08,-0.08
10.6475350856781,2,3,3,3,-9.31,-0.98,2.28,-0.79,0.01,-0.02
10.65753507614136,2,3,3,3,-9.31,-0.93,2.27,-0.74,0.19,0.04
10.66753506660461,2,3,3,3,-9.380000000000001,-0.88,2.29,-0.62,0.23,0.08
10.67753505706787,2,3,3,3,-9.49,-0.88,2.26,-0.63,0.09,0.13
10.68753504753113,2,3,3,3,-9.49,-0.9,2.17,-0.75,0.11,0.14
10.69753503799438,2,3,3,3,-9.52,-0.87,2.1,-1.01,0.34,0.06
10.70753502845764,2,3,3,3,-9.58,-0.9,2.1,-1.15,0.5,-0.04
10.7175350189209,2,3,3,3,-9.65,-1.02,2.01,-1.09,0.5,-0.15
10.72753500938416,2,3,3,3,-9.59,-1.16,1.99,-1.15,0.52,-0.23
10.73753499984741,2,3,3,3,-9.550000000000001,-1.25,1.98,-1.07,0.59,-0.29
10.74753499031067,2,3,3,3,-9.65,-1.31,2.08,-0.7,0.51,-0.37
10.75753498077393,2,3,3,3,-9.619999999999999,-1.31,2.11,-0.23,0.22,-0.38
10.76753497123718,2,3,3,3,-9.51,-1.25,1.99,0.11,-0.03,-0.29
10.77753496170044,2,3,3,3,-9.390000000000001,-1.23,2.04,0.26,-0.16,-0.14
10.7875349521637,2,3,3,3,-9.35,-1.2,2.1,0.45,-0.27,0
10.79753494262695,2,3,3,3,-9.279999999999999,-1.08,2.06,0.5,-0.32,0.09
10.80753493309021,2,3,3,3,-9.34,-1.01,2.09,0.61,-0.11,0.15
10.81753492355347,2,3,3,3,-9.43,-0.98,2.02,0.72,0.02,0.2
10.82753491401672,2,3,3,3,-9.5,-0.89,2.15,0.66,0.12,0.25
10.83853507041931,2,3,3,3,-9.56,-0.86,2.17,0.5600000000000001,0.13,0.24
10.84853506088257,2,3,3,3,-9.609999999999999,-0.86,2.22,0.45,0.15,0.19
10.85853505134583,2,3,3,3,-9.58,-0.88,2.25,0.18,0.15,0.14
10.86853504180908,2,3,3,3,-9.68,-1.02,2.05,-0.11,0.22,0.11
10.87853503227234,2,3,3,3,-9.73,-1.02,2.08,-0.14,0.15,0.04
10.8885350227356,2,3,3,3,-9.720000000000001,-1.02,1.99,-0.27,0.05,-0.03
10.89853501319885,2,3,3,3,-9.720000000000001,-1.03,1.95,-0.17,0.07000000000000001,-0.08
10.90853500366211,2,3,3,3,-9.6,-1.06,1.95,-0.01,0.06,-0.14
10.91853499412537,2,3,3,3,-9.529999999999999,-1.07,1.93,0.14,0.01,-0.13
10.92853498458862,2,3,3,3,-9.449999999999999,-1.08,2.02,0.22,-0.08,-0.07000000000000001
10.93853497505188,2,3,3,3,-9.42,-1.1,2.06,0.16,-0.11,0.01
10.94853496551514,2,3,3,3,-9.43,-1.04,2.03,0.22,-0.07000000000000001,0.09
10.95853495597839,2,3,3,3,-9.42,-1.03,2.01,0.28,-0.06,0.19
10.96853494644165,2,3,3,3,-9.41,-1.06,1.96,0.32,0.02,0.24
10.97853493690491,2,3,3,3,-9.41,-1.07,2.04,0.28,-0.01,0.29
10.98853492736816,2,3,3,3,-9.460000000000001,-1.08,2.15,0.21,-0.01,0.32
10.99853491783142,2,3,3,3,-9.51,-1.07,2.1,0.1,-0.02,0.29
11.00853490829468,2,3,3,3,-9.58,-1.06,2.11,0.04,-0.06,0.28
11.01853489875793,2,3,3,3,-9.66,-1.07,2.02,0.05,-0.07000000000000001,0.22
11.02853488922119,2,3,3,3,-9.66,-1.05,2.01,-0.02,-0.1,0.13
11.03853487968445,2,3,3,3,-9.66,-1,2.02,-0.15,-0.05,0.04
11.04853510856628,2,3,3,3,-9.609999999999999,-1,2.03,-0.09,0.05,-0.04
11.05853509902954,2,3,3,3,-9.550000000000001,-1.04,2.1,0.07000000000000001,0.09,-0.13
11.0685350894928,2,3,3,3,-9.51,-1.05,2.05,-0.02,0.06,-0.2
11.07853507995605,2,3,3,3,-9.49,-1.11,2.04,-0.08,0.11,-0.25
11.08853507041931,2,3,3,3,-9.5,-1.16,2.09,-0.16,0.19,-0.26
11.09853506088257,2,3,3,3,-9.529999999999999,-1.19,2.11,-0.16,0.23,-0.23
11.10853505134583,2,3,3,3,-9.51,-1.18,2.06,-0.09,0.27,-0.15
11.11853504180908,2,3,3,3,-9.449999999999999,-1.17,2.03,-0.09,0.27,-0.1
11.12853503227234,2,3,3,3,-9.44,-1.15,2.06,-0.03,0.3,-0.06
11.1385350227356,2,3,3,3,-9.44,-1.16,2.12,-0.06,0.31,-0.03
11.14853501319885,2,3,3,3,-9.48,-1.17,2.09,-0.1,0.29,-0.05
11.15853500366211,2,3,3,3,-9.529999999999999,-1.17,2.08,-0.11,0.35,-0.09
11.16853499412537,2,3,3,3,-9.550000000000001,-1.2,2.05,-0.02,0.38,-0.18
11.17853498458862,2,3,3,3,-9.539999999999999,-1.18,2.02,0.01,0.48,-0.26
11.18853497505188,2,3,3,3,-9.58,-1.19,2.04,0.06,0.53,-0.33
11.19853496551514,2,3,3,3,-9.609999999999999,-1.15,2.07,0.15,0.46,-0.33
11.20853495597839,2,3,3,3,-9.56,-1.13,2.04,0.2,0.34,-0.33
11.21853494644165,2,3,3,3,-9.51,-1.13,2.02,0.24,0.23,-0.27
11.22853493690491,2,3,3,3,-9.460000000000001,-1.1,2.04,0.23,0.13,-0.24
11.23853492736816,2,3,3,3,-9.380000000000001,-1.12,2.06,0.2,0.22,-0.19
11.24853491783142,2,3,3,3,-9.369999999999999,-1.16,2.16,0.21,0.3,-0.14
11.25853490829468,2,3,3,3,-9.42,-1.16,2.15,0.15,0.39,-0.1
11.26853489875793,2,3,3,3,-9.49,-1.15,2.05,0.05,0.41,-0.1
11.27853488922119,2,3,3,3,-9.529999999999999,-1.12,2.03,0.02,0.47,-0.09
11.28853487968445,2,3,3,3,-9.57,-1,2.05,0.05,0.5,-0.08
11.29853510856628,2,3,3,3,-9.58,-0.96,2.21,0.19,0.49,-0.06
11.30853509902954,2,3,3,3,-9.56,-0.92,2.28,0.27,0.3,0
11.3185350894928,2,3,3,3,-9.56,-1.02,2.24,0.19,0.08,0.03
11.32853507995605,2,3,3,3,-9.51,-1.1,2.24,0.06,-0.17,-0.01
11.33853507041931,2,3,3,3,-9.44,-1.1,2.27,-0.1,-0.29,-0.11
11.34853506088257,2,3,3,3,-9.300000000000001,-1.1,2.35,-0.22,-0.29,-0.23
11.35853505134583,2,3,3,3,-9.119999999999999,-1.19,2.18,-0.52,-0.05,-0.22
11.36853504180908,2,3,3,3,-9.380000000000001,-1.24,2.23,-0.75,0.46,-0.06
11.37853503227234,2,3,3,3,-9.779999999999999,-1.21,2.41,-0.65,0.59,0.05
11.3885350227356,2,3,3,3,-9.94,-1.09,2.28,-0.58,0.4,0.06
11.39853501319885,2,3,3,3,-9.68,-0.85,2.23,-0.34,0.5,0.1
11.40853500366211,2,3,3,3,-9.529999999999999,-0.87,2.33,-0.06,0.55,0.06
11.41853499412537,2,3,3,3,-9.390000000000001,-0.99,2.43,-0.08,0.24,-0.07000000000000001
11.42853498458862,2,3,3,3,-9.35,-1.14,2.48,-0.42,-0.09,-0.21
11.43853497505188,2,3,3,3,-9.460000000000001,-1.26,2.47,-0.84,-0.28,-0.3
11.44853496551514,2,3,3,3,-9.550000000000001,-1.34,2.41,-1.27,-0.29,-0.34
11.45853495597839,2,3,3,3,-9.619999999999999,-1.43,2.35,-1.43,-0.25,-0.44
11.46853494644165,2,3,3,3,-9.630000000000001,-1.51,2.15,-1.39,-0.24,-0.59
11.47853493690491,2,3,3,3,-9.42,-1.65,2.04,-1.2,-0.28,-0.75
11.48853492736816,2,3,3,3,-9.279999999999999,-1.77,2.02,-0.91,-0.24,-0.99
11.49853491783142,2,3,3,3,-9.17,-1.85,2.08,-0.35,-0.18,-1.18
11.50853490829468,2,3,3,3,-9.119999999999999,-1.97,2.18,0.27,-0.28,-1.25
11.51853489875793,2,3,3,3,-9.210000000000001,-2.07,2.19,0.87,-0.49,-1.24
11.52853488922119,2,3,3,3,-9.289999999999999,-2.03,2.36,1.43,-0.8100000000000001,-1.07
11.53853487968445,2,3,3,3,-9.359999999999999,-1.94,2.47,2.12,-1.12,-0.77
11.54853510856628,2,3,3,3,-9.19,-1.57,2.82,2.88,-1.43,-0.54
11.55853509902954,2,3,3,3,-9.050000000000001,-1.4,2.92,3.3,-1.47,-0.33
11.5685350894928,2,3,3,3,-8.94,-1.28,2.95,3.29,-1.15,-0.25
11.57853507995605,2,3,3,3,-8.99,-1.2,3.07,3.26,-0.7,-0.25
11.58853507041931,2,3,3,3,-9.380000000000001,-0.78,3.36,3.69,-0.74,-0.32
11.59853506088257,2,3,3,3,-9.390000000000001,-0.57,3.58,3.8,-1.37,-0.31
11.60853505134583,2,3,3,3,-9.210000000000001,-0.48,3.51,2.94,-1.85,-0.22
11.61853504180908,2,3,3,3,-9.01,-0.47,3.23,1.58,-1.79,-0.18
11.62853503227234,2,3,3,3,-8.949999999999999,-0.65,3.29,0.63,-1.24,-0.1
11.6385350227356,2,3,3,3,-9.27,-0.77,3.62,0.65,-0.79,0.02
11.64853501319885,2,3,3,3,-9.59,-0.83,3.83,0.65,-1.38,0.05
11.65853500366211,2,3,3,3,-9.6,-1.05,3.46,-0.46,-1.98,0.06
11.66853499412537,2,3,3,3,-9.81,-1.43,3.41,-0.26,-2.12,0.03
11.67853498458862,2,3,3,3,-9.69,-1.54,3.09,0.05,-2.79,-0.09
11.68853497505188,2,3,3,3,-9.41,-1.58,2.44,-0.33,-2.77,-0.24
11.69853496551514,2,3,3,3,-9.380000000000001,-1.53,2.39,0.67,-2.36,-0.33
11.70853495597839,2,3,3,3,-9.32,-1.33,3.11,2.26,-2.97,-0.39
11.71853494644165,2,3,3,3,-8.890000000000001,-1.18,2.77,2.89,-3.93,-0.52
11.72853493690491,2,3,3,3,-8.49,-1.15,2.46,2.74,-3.78,-0.47
11.73853492736816,2,3,3,3,-8.43,-1.21,2.73,3.19,-2.91,-0.28
11.74853491783142,2,3,3,3,-8.56,-1.28,2.62,3.31,-2.11,-0.1
11.75853490829468,2,3,3,3,-8.789999999999999,-1.2,2.37,3.2,-1.37,0.03
11.76853489875793,2,3,3,3,-8.970000000000001,-1,2.05,2.88,-0.64,0.17
11.77853488922119,2,3,3,3,-9.24,-0.7,2.38,2.59,-0.08,0.18
11.78853487968445,2,3,3,3,-9.33,-0.63,2.47,2.09,0.28,0.09
11.79853510856628,2,3,3,3,-9.449999999999999,-0.71,2.31,1.37,0.58,0
11.80853509902954,2,3,3,3,-9.56,-0.85,2.15,0.82,0.54,0.05
11.8185350894928,2,3,3,3,-9.73,-1.14,2,0.83,0.39,0.12
11.82853507995605,2,3,3,3,-9.73,-1.17,2.13,1.1,0.25,0.11
11.83853507041931,2,3,3,3,-9.69,-1.12,2.12,1.18,0.2,0.16
11.84853506088257,2,3,3,3,-9.630000000000001,-0.9399999999999999,2,1.06,0.36,0.19
11.85953497886658,2,3,3,3,-9.48,-0.34,1.92,0.83,0.75,0.22
11.86953496932983,2,3,3,3,-9.58,-0.02,1.96,0.55,1.3,0.27
11.87953495979309,2,3,3,3,-9.75,0.24,2.04,0.3,1.78,0.34
11.88953495025635,2,3,3,3,-9.9,0.61,2.27,0.11,1.93,0.2
11.8995349407196,2,3,3,3,-9.859999999999999,0.62,2.27,0.01,1.98,-0.08
11.90953493118286,2,3,3,3,-9.75,0.58,2.29,0.24,2.04,-0.54
11.91953492164612,2,3,3,3,-9.710000000000001,0.48,2.34,0.8,1.94,-0.98
11.92953491210938,2,3,3,3,-9.57,0.26,2.54,1.04,1.65,-1.32
11.93953490257263,2,3,3,3,-9.390000000000001,0.14,2.58,0.9,1.51,-1.48
11.94953489303589,2,3,3,3,-9.199999999999999,0.08,2.61,0.5,1.76,-1.48
11.95953488349915,2,3,3,3,-9.07,0.08,2.51,0.04,2.39,-1.42
11.96953511238098,2,3,3,3,-9,0.16,2.12,-0.28,3.15,-1.31
11.97953510284424,2,3,3,3,-9.07,0.18,2.09,-0.49,3.95,-1.28
11.9895350933075,2,3,3,3,-9.220000000000001,0.14,2.01,-0.64,4.58,-1.38
11.99953508377075,2,3,3,3,-9.42,0.04,1.84,-0.83,4.87,-1.49
12.00953507423401,2,3,3,3,-9.74,-0.16,1.64,-0.9,4.82,-1.57
12.01953506469727,2,3,3,3,-9.859999999999999,-0.34,1.52,-0.8,4.32,-1.64
12.02953505516052,2,3,3,3,-9.9,-0.45,1.5,-0.74,3.75,-1.62
12.03953504562378,2,3,3,3,-9.800000000000001,-0.52,1.62,-0.58,3.24,-1.47
12.04953503608704,2,3,3,3,-9.51,-0.57,1.68,-0.45,2.87,-1.22
12.05953502655029,2,3,3,3,-9.34,-0.5,1.72,-0.41,2.75,-0.9399999999999999
12.06953501701355,2,3,3,3,-9.26,-0.5,1.73,-0.5,2.61,-0.66
12.07953500747681,2,3,3,3,-9.289999999999999,-0.51,1.81,-0.84,2.35,-0.38
12.08953499794006,2,3,3,3,-9.33,-0.54,1.79,-1.17,2.14,-0.19
12.09953498840332,2,3,3,3,-9.380000000000001,-0.59,1.67,-1.5,2.01,0
12.10953497886658,2,3,3,3,-9.43,-0.7,1.58,-1.55,2.11,0.07000000000000001
12.11953496932983,2,3,3,3,-9.470000000000001,-0.75,1.43,-1.2,2.16,-0.02
12.12953495979309,2,3,3,3,-9.49,-0.76,1.54,-0.46,2.02,-0.29
12.13953495025635,2,3,3,3,-9.51,-0.79,1.64,0.18,1.81,-0.63
12.1495349407196,2,3,3,3,-9.57,-0.8100000000000001,1.7,0.63,1.56,-0.9399999999999999
12.15953493118286,2,3,3,3,-9.85,-0.85,1.79,0.95,1.41,-1.17
12.16953492164612,2,3,3,3,-9.94,-0.77,1.69,1.32,1.26,-1.4
12.17953491210938,2,3,3,3,-9.94,-0.6899999999999999,1.69,1.66,1.09,-1.59
12.18953490257263,2,3,3,3,-9.880000000000001,-0.59,1.76,1.96,0.93,-1.78
12.19953489303589,2,3,3,3,-9.67,-0.45,1.85,2.13,0.89,-2
12.20953488349915,2,3,3,3,-9.56,-0.36,1.81,2.36,0.88,-2.21
12.21953511238098,2,3,3,3,-9.49,-0.31,1.76,2.47,0.85,-2.4
12.22953510284424,2,3,3,3,-9.449999999999999,-0.34,1.59,2.35,0.98,-2.37
12.2395350933075,2,3,3,3,-9.58,-0.36,1.48,2.64,1.24,-2.16
12.24953508377075,2,3,3,3,-9.68,-0.41,1.54,2.98,1.06,-1.97
12.25953507423401,2,3,3,3,-9.640000000000001,-0.43,1.53,3.28,0.58,-1.83
12.26953506469727,2,3,3,3,-9.67,-0.41,1.41,3.84,0.31,-1.77
12.27953505516052,2,3,3,3,-9.68,-0.33,1.37,4.49,0.03,-1.86
12.28953504562378,2,3,3,3,-9.67,-0.27,1.41,5.06,-0.12,-2.01
12.29953503608704,2,3,3,2,-9.69,-0.14,1.48,5.54,-0.24,-2.11
12.30953502655029,2,3,3,2,-9.75,0.1,1.42,5.65,-0.28,-2.25
12.31953501701355,2,3,3,2,-9.77,0.24,1.34,5.64,-0.07000000000000001,-2.37
12.32953500747681,2,3,3,2,-9.82,0.39,1.39,5.65,0.17,-2.49
12.33953499794006,2,3,3,2,-9.859999999999999,0.53,1.37,5.58,0.29,-2.61
12.34953498840332,2,3,3,2,-9.83,0.68,1.33,5.55,0.38,-2.79
12.35953497886658,2,3,3,2,-9.84,0.76,1.36,5.7,0.44,-2.88
12.36953496932983,2,3,3,2,-9.800000000000001,0.83,1.39,5.92,0.5,-2.84
12.37953495979309,2,3,3,2,-9.81,0.8100000000000001,1.64,5.88,0.67,-2.74
12.38953495025635,2,3,3,2,-10.15,0.63,1.85,5.31,0.85,-2.44
12.3995349407196,2,3,3,2,-10.47,0.52,1.81,4.57,1.1,-1.99
12.40953493118286,2,3,3,2,-10.86,0.53,1.92,4.25,1.22,-1.53
12.41953492164612,2,3,3,2,-11.02,0.51,1.82,3.77,1.2,-1.2
12.42953491210938,2,3,3,2,-10.97,0.36,1.99,3.21,1.49,-0.92
12.43953490257263,2,3,3,2,-11.16,0.24,2.24,2.5,1.84,-0.63
12.44953489303589,2,3,3,2,-11.45,0.07000000000000001,2.21,1.23,2.11,-0.13
12.45953488349915,2,3,3,2,-11.94,0.15,1.42,-0.43,2.52,0.49
12.46953511238098,2,3,3,2,-12.11,0.32,0.97,-1.87,2.94,1.18
12.47953510284424,2,3,3,2,-12.17,0.48,0.71,-2.79,2.93,1.52
12.4895350933075,2,3,3,2,-12.14,0.49,0.76,-3.13,2.1,1.54
12.49953508377075,2,3,3,2,-12.16,0.03,1.34,-3.54,0.31,1.38
12.50953507423401,2,3,3,2,-11.99,-0.72,1.69,-4.31,-1.76,1.21
12.51953506469727,2,3,3,2,-11.88,-1.4,1.73,-4.76,-1.79,1.39
12.52953505516052,2,3,3,2,-11.86,-1.96,1.68,-4.94,-0.65,1.7
12.53953504562378,2,3,3,2,-11.42,-2.96,1.58,-4.53,-0.11,2.16
12.54953503608704,2,3,3,2,-10.97,-3.14,1.49,-3.59,-0.37,2.63
12.55953502655029,2,3,3,2,-10.32,-3.16,1.27,-3.04,-0.54,2.93
12.56953501701355,2,3,3,2,-9.619999999999999,-3.13,1.02,-2.66,0.07000000000000001,3.08
12.57953500747681,2,3,3,2,-8.69,-3.25,1.32,-2.03,0.58,3.08
12.58953499794006,2,3,3,2,-8.380000000000001,-3.41,1.36,-1.47,1,2.93
12.61953496932983,2,3,3,2,-7.93,-3.33,0.8,-0.89,2.3,2.66
12.62953495979309,2,3,3,2,-7.74,-3.24,0.77,-1.03,2.42,2.83
12.63953495025635,2,3,3,2,-7.64,-3.17,0.92,-0.7,2.12,3.04
12.6495349407196,2,3,3,2,-7.4,-3.07,1.49,0.11,1.24,3.14
12.65953493118286,2,3,3,2,-7.54,-3.15,1.74,1.12,0.37,3.3
12.66953492164612,2,3,3,2,-7.88,-3.2,1.9,2.54,-0.12,3.72
12.67953491210938,2,3,3,2,-8.369999999999999,-3.17,2.09,4.19,-0.6,4.51
12.68953490257263,2,3,3,2,-9.49,-2.68,2.43,5.79,-1.58,5.53
12.69953489303589,2,3,3,2,-10.04,-2.21,2.55,6.63,-2.95,6.54
12.70953488349915,2,3,3,2,-10.41,-1.57,2.69,6.77,-4.11,7.16
12.71953511238098,2,3,3,2,-10.64,-0.82,2.71,6.39,-4.66,7.36
12.72953510284424,2,3,3,2,-11.15,0.53,3.08,5.55,-4.68,7.19
12.7395350933075,2,3,3,2,-11.41,1.06,3.16,4.06,-4.33,6.59
12.75953507423401,2,3,3,1,-11.6,1.59,3.16,-0.1,-5.1,4.37
12.76953506469727,2,3,3,1,-11.17,1.07,2.97,-2.49,-6.33,3.06
12.77953505516052,2,3,3,1,-10.74,0.64,2.95,-4.68,-7.46,2
12.78953504562378,2,3,3,1,-10.24,0.13,2.94,-6.57,-8.43,1.27
12.79953503608704,2,3,3,1,-9.039999999999999,-0.89,2.58,-8.17,-9.16,0.77
12.80953502655029,2,3,3,1,-8.4,-1.22,2.34,-9.119999999999999,-9.15,0.46
12.81953501701355,2,3,3,1,-8.029999999999999,-1.44,2.14,-9.52,-8.6,0.45
12.82953500747681,2,3,3,1,-7.75,-1.66,2.11,-9.74,-8.17,0.66
12.83953499794006,2,3,3,1,-7.37,-1.74,2.06,-9.52,-8.19,1.01
12.84953498840332,2,3,3,0,-7.31,-1.75,2.16,-8.98,-8.300000000000001,1.36
12.85953497886658,2,3,3,0,-7.27,-1.71,2.36,-8.23,-8.390000000000001,1.63
12.86953496932983,2,3,3,0,-7.32,-1.65,2.38,-7.47,-8.57,1.83
12.88053488731384,2,3,3,0,-7.58,-1.78,2.54,-6.82,-8.41,1.98
12.8905348777771,2,3,3,0,-7.54,-1.74,2.67,-5.81,-8.16,2.01
12.90053510665894,2,3,3,0,-7.63,-1.63,2.81,-4.43,-7.29,1.9
12.91053509712219,2,3,3,0,-7.69,-1.45,2.94,-3.11,-6.3,1.75
12.92053508758545,2,3,3,0,-7.81,-0.91,3.04,-2.02,-5.2,1.47
12.93053507804871,2,3,3,0,-7.91,-0.55,3.27,-1.25,-4.39,1.19
12.94053506851196,2,3,3,0,-7.98,-0.29,3.38,-1.12,-3.86,0.9399999999999999
12.95053505897522,2,3,3,0,-7.98,-0.29,3.38,-1.35,-3.09,0.65
12.96053504943848,2,3,3,0,-8.109999999999999,0.28,3.12,-1.88,-2.28,0.62
12.97053503990173,2,3,3,0,-8.050000000000001,0.43,2.92,-2.13,-1.47,0.58
12.98053503036499,2,3,3,0,-8.01,0.55,3,-1.91,-0.57,0.46
12.99053502082825,2,3,3,0,-8.01,0.5600000000000001,3.29,-1.86,-0.23,0.13
13.0005350112915,2,3,3,0,-8.01,0.5600000000000001,3.29,-2.08,-0.13,-0.17
13.01053500175476,2,3,3,0,-8.15,0.61,3.61,-2.33,-0.16,-0.38
13.02053499221802,2,3,3,0,-8.109999999999999,0.79,3.43,-2.7,-0.11,-0.37
13.03053498268127,2,3,3,0,-7.95,1.13,3.64,-2.76,0.48,-0.26
13.04053497314453,2,3,3,0,-7.98,1.22,3.8,-2.7,1.35,-0.07000000000000001
13.05053496360779,2,3,3,0,-7.98,1.22,3.8,-2.97,1.87,0.16
13.06053495407104,2,3,3,0,-7.99,1.24,4.13,-3.55,2.08,0.4
13.0705349445343,2,3,3,0,-8.15,0.88,4.08,-4.33,2.32,0.75
13.08053493499756,2,3,3,0,-8.470000000000001,0.62,4.14,-5.16,2.45,1.35
13.09053492546082,2,3,3,0,-8.869999999999999,0.28,4.21,-6.11,2.17,1.95
13.10053491592407,2,3,3,0,-8.869999999999999,0.28,4.21,-7.24,1.65,2.34
13.11053490638733,2,3,3,0,-9.19,-0.16,4.14,-8.56,1.49,2.25
13.12053489685059,2,3,3,0,-9.890000000000001,-1.53,2.83,-9.56,1.75,1.75
13.13053488731384,2,3,3,0,-10.2,-1.51,2.46,-9.289999999999999,2.09,1.08
13.1405348777771,2,3,3,0,-10.54,-1.03,2.49,-7.1,1.85,0.64
13.15053510665894,2,3,3,0,-10.54,-1.03,2.49,-3.52,0.47,0.65
13.16053509712219,2,3,3,0,-10.76,1.3,4.54,0.06,-1.59,1.16
13.17053508758545,2,3,3,0,-10.36,2.08,4.89,2.16,-3.03,2.26
13.18053507804871,2,3,3,0,-9.69,3.17,6.08,2.66,-3.34,3.86
13.19053506851196,2,3,3,0,-9.59,3.6,6.48,1.25,-3.18,5.62
13.20053505897522,2,3,3,0,-9.59,3.6,6.48,1.25,-3.18,5.62
13.21053504943848,2,3,3,0,-9.73,3.66,6.64,-2.39,-2.67,6.92
13.22053503990173,2,3,3,0,-11.53,2.13,5.02,-11.26,-1.1,6.65
13.23053503036499,2,3,3,0,-12.64,1.59,5.1,-12.98,0.67,5.1
13.24053502082825,2,3,3,0,-13.95,0.76,5.09,-12.83,1.42,3.29
13.2505350112915,2,3,3,0,-13.95,0.76,5.09,-12.83,1.42,3.29
13.26053500175476,2,3,3,0,-14.63,-0.61,4.15,-13.18,0.79,1.06
13.27053499221802,2,3,3,0,-15.63,-4.44,2.06,-9.94,0.09,-3.24
13.28053498268127,2,3,3,0,-14.89,-4.8,2.24,-5.51,-2.29,-4.98
13.29053497314453,2,3,3,0,-13.17,-5.05,2.43,-0.17,-5.16,-5.7
13.30053496360779,2,3,3,0,-13.17,-5.05,2.43,-0.17,-5.16,-5.7
13.31053495407104,2,3,3,0,-8.869999999999999,-4.19,3.94,6.51,-8.93,-3.64
13.3205349445343,2,3,3,0,-5.13,-3.2,4.29,5.77,-6.86,-2
13.33053493499756,2,3,3,0,-4.58,-2.74,3.81,4.8,-2.65,-0.31
13.34053492546082,2,3,3,0,-5.61,-1.58,3.13,4.21,2.01,0.95
13.35053491592407,2,3,3,0,-5.61,-1.58,3.13,4.21,2.01,0.95
13.36053490638733,2,3,3,0,-6.62,-0.86,2.73,3.39,5.76,1.25
13.37053489685059,2,3,3,0,-8.970000000000001,-0.38,1.05,0.41,7.48,-0.14
13.38053488731384,2,3,3,0,-9.460000000000001,-0.77,0.76,-1.02,6.59,-1.03
13.3905348777771,2,3,3,0,-9.779999999999999,-1.32,0.72,-2.43,4.53,-1.7
13.42053508758545,2,3,3,0,-8.74,-2.94,1.24,-4.08,-2.1,-1.01
13.43053507804871,2,3,3,0,-8.32,-3.15,1.58,-3.61,-2.77,-0.51
13.44053506851196,2,3,3,0,-7.92,-3.28,1.93,-3.14,-2.7,0.07000000000000001
13.45053505897522,2,3,3,0,-7.92,-3.28,1.93,-3.14,-2.7,0.07000000000000001
13.46053504943848,2,3,3,0,-7.43,-2.95,2.17,-2.67,-1.97,0.92
13.47053503990173,2,3,3,0,-7.27,-2.64,2.1,-1.18,0.44,2.36
13.48053503036499,2,3,3,0,-7.34,-2.47,1.97,0,1.64,2.43
13.49053502082825,2,3,3,0,-7.52,-2.3,1.89,1.48,2.53,2.24
13.5005350112915,2,3,3,0,-7.96,-2.24,1.79,1.48,2.53,2.24
13.51053500175476,2,3,3,0,-8.210000000000001,-2.2,1.74,2.98,3.15,1.81
13.52053499221802,2,3,3,0,-8.51,-2.15,1.82,5.33,3.68,0.54
13.53053498268127,2,3,3,0,-9.18,-1.61,1.65,5.92,3.95,-0.02
13.54053497314453,2,3,3,0,-9.41,-1.27,1.76,6.12,4.17,-0.48
13.55053496360779,2,3,3,0,-9.529999999999999,-0.89,1.84,6.12,4.17,-0.48
13.56053495407104,2,3,3,0,-9.470000000000001,-0.65,1.87,5.96,4.15,-0.82
13.5705349445343,2,3,3,0,-9.31,-0.17,2.15,4.92,3.75,-0.92
13.58053493499756,2,3,3,0,-8.93,-0.15,1.93,4.34,3.5,-0.85
13.59053492546082,2,3,3,0,-8.59,-0.18,2.03,3.77,3.49,-0.91
13.60053491592407,2,3,3,0,-8.380000000000001,-0.31,1.91,3.77,3.49,-0.91
13.61053490638733,2,3,3,0,-8.380000000000001,-0.46,2.03,3.23,3.52,-1.16
13.62053489685059,2,3,3,0,-8.619999999999999,-0.53,2.07,1.31,3.45,-2.27
13.63053488731384,2,3,3,0,-8.869999999999999,-0.6,2.04,0.32,3.61,-2.74
13.6405348777771,2,3,3,0,-9.039999999999999,-0.83,1.75,-0.01,3.79,-3.16
13.65053510665894,2,3,3,0,-9.15,-1.23,1.39,-0.01,3.79,-3.16
13.66053509712219,2,3,3,0,-9.17,-1.45,1.36,0.21,3.66,-3.53
13.67053508758545,2,3,3,0,-9.220000000000001,-1.62,1.4,2.64,2.85,-4.07
13.68053507804871,2,3,3,0,-9.4,-1.77,1.35,4.02,1.93,-4.03
13.69053506851196,2,3,3,0,-9.76,-1.6,1.73,5.04,0.86,-3.81
13.70053505897522,2,3,3,0,-9.77,-1.33,1.86,5.04,0.86,-3.81
13.71053504943848,2,3,3,0,-9.6,-0.97,1.98,5.96,0.09,-3.54
13.72053503990173,2,3,3,0,-8.970000000000001,0.13,2.24,6.56,-0.42,-3.04
13.73053503036499,2,3,3,0,-8.74,0.44,2.44,6.07,-0.39,-2.81
13.74053502082825,2,3,3,0,-8.619999999999999,0.6,2.71,5.11,-0.24,-2.64
13.7505350112915,2,3,3,0,-8.630000000000001,0.68,2.86,5.11,-0.24,-2.64
13.76053500175476,2,3,3,0,-8.890000000000001,0.75,2.78,3.74,0.02,-2.44
13.77053499221802,2,3,3,0,-9.06,0.72,2.52,1.45,0.6899999999999999,-2.44
13.78053498268127,2,3,3,0,-9.24,0.53,2.24,1.38,0.63,-2.75
13.79053497314453,2,3,3,0,-9.4,0.37,2.21,1.85,0.2,-3.31
13.80053496360779,2,3,3,0,-9.380000000000001,0.07000000000000001,2.13,1.85,0.2,-3.31
13.81053495407104,2,3,3,0,-9.4,-0.1,2.25,2.63,-0.25,-3.95
13.8205349445343,2,3,3,0,-9.460000000000001,-0.33,2.33,4.28,-0.85,-4.89
13.83053493499756,2,3,3,0,-9.5,-0.51,2.22,5.14,-1.06,-5.2
13.84053492546082,2,3,3,0,-9.539999999999999,-0.59,1.98,5.9,-1.07,-5.42
13.85053491592407,2,3,3,0,-9.44,-0.51,1.91,5.9,-1.07,-5.42
13.86053490638733,2,3,3,0,-9.390000000000001,-0.36,2,6.83,-0.73,-5.48
13.87053489685059,2,3,3,0,-9.32,-0.12,2.24,8.24,0.41,-4.99
13.88053488731384,2,3,3,0,-9.380000000000001,0.41,2.33,8.48,0.8100000000000001,-4.23
13.8905348777771,2,3,3,0,-9.59,0.8100000000000001,2.33,8.6,0.96,-3.38
13.90053510665894,2,3,3,0,-9.890000000000001,1.18,2.37,8.6,0.96,-3.38
13.91153502464294,2,3,3,0,-10.46,1.58,2.98,8.789999999999999,0.91,-2.57
13.9215350151062,2,3,3,0,-10.62,1.57,3.31,9.06,0.6,-1.78
13.93153500556946,2,3,3,0,-10.74,1.5,3.66,8.85,1.29,-1.54
13.94153499603271,2,3,3,0,-10.81,1.36,4.29,7.88,2.41,-1.31
13.95153498649597,2,3,3,0,-11.59,1.15,4.56,7.88,2.41,-1.31
13.96153497695923,2,3,3,0,-11.89,1.1,3.82,5.01,3.88,-0.77
13.97153496742249,2,3,3,0,-11.88,1.26,3.06,-0.26,7.76,0.34
13.98153495788574,2,3,3,0,-11.89,1.45,2.6,-1.48,9.19,0.42
13.991534948349,2,3,3,0,-12.66,1.41,2.76,-2.91,9.67,0.42
14.00153493881226,2,3,3,0,-13.23,0.88,2.44,-2.91,9.67,0.42
14.01153492927551,2,3,3,0,-13.61,0.05,1.67,-5.18,9.390000000000001,0.21
14.02153491973877,2,3,3,0,-13.83,-0.91,1.02,-9.449999999999999,6.86,-0.1
14.03153491020203,2,3,3,0,-13.61,-3.03,0.57,-9.57,5.55,0.14
14.04153490066528,2,3,3,0,-13.23,-4.35,0.83,-8.35,5,0.71
14.05153489112854,2,3,3,0,-12.8,-5.55,0.79,-8.35,5,0.71
14.0615348815918,2,3,3,0,-12.2,-6.53,0.38,-6.38,5.19,1.73
14.07153511047363,2,3,3,0,-11.01,-7.29,0.01,-0.05,4.32,3.61
14.08153510093689,2,3,3,0,-10.08,-7.22,0.13,4.01,3.29,3.88
14.09153509140015,2,3,3,0,-9.050000000000001,-6.9,0.34,7.59,3.39,3.75
14.1015350818634,2,3,3,0,-7.52,-5.76,0.96,7.59,3.39,3.75
14.11153507232666,2,3,3,0,-7.22,-5.1,1.14,10.45,3.8,4.16
14.12153506278992,2,3,3,0,-7.13,-4.39,1.41,13.31,4.39,5.53
14.13153505325317,2,3,3,0,-7.09,-3.46,1.65,12.8,4.61,6.27
14.14153504371643,2,3,3,0,-7.6,-1.6,2.23,11.69,4.31,6.96
14.15153503417969,2,3,3,0,-7.98,-0.71,2.55,11.69,4.31,6.96
14.16153502464294,2,3,3,0,-8.6,-0.04,2.88,9.74,3.44,7.08
14.1715350151062,2,3,3,0,-9.33,0.31,3.25,5.33,-1.12,5.35
14.18153500556946,2,3,3,0,-10.32,0.28,3.35,3.61,-4.11,4.04
14.19153499603271,2,3,3,0,-10.54,0.2,3.25,2.33,-6.27,3.08
14.20153498649597,2,3,3,0,-10.43,0.18,3.02,2.33,-6.27,3.08
14.21153497695923,2,3,3,0,-10.25,0.05,2.72,1.23,-7.03,2.77
14.22153496742249,2,3,3,0,-10.19,-0.16,1.97,-0.96,-8.68,2.64
14.23153495788574,2,3,3,0,-10.03,-0.24,1.53,-2.03,-9.869999999999999,2.4
14.241534948349,2,3,3,0,-9.82,-0.21,1.51,-2.58,-11.18,2.36
14.25153493881226,2,3,3,0,-9.15,-0.02,2.04,-2.58,-11.18,2.36
14.26153492927551,2,3,3,0,-8.630000000000001,0.03,2.26,-3.17,-11.85,2.28
14.27153491973877,2,3,3,0,-8.17,0.1,2.54,-4.99,-10.97,2.02
14.28153491020203,2,3,3,0,-7.71,0.1,2.71,-6.03,-9.91,2.27
14.29153490066528,2,3,3,0,-7.48,-0.2,3.26,-7.25,-9.109999999999999,2.77
14.30153489112854,2,3,3,0,-7.49,-0.57,3.13,-7.25,-9.109999999999999,2.77
14.3115348815918,2,3,3,0,-7.55,-0.9399999999999999,2.92,-8.859999999999999,-8.289999999999999,3.18
14.32153511047363,2,3,3,0,-7.81,-1.17,2.74,-9.720000000000001,-6.16,3.37
14.33153510093689,2,3,3,0,-8.039999999999999,-1.37,2.46,-9.27,-5.64,3.04
14.34153509140015,2,3,3,0,-8.050000000000001,-1.4,2.46,-8.16,-5.14,2.68
14.3515350818634,2,3,3,0,-7.99,-1.33,2.52,-8.16,-5.14,2.68
14.36153507232666,2,3,3,0,-8.01,-1.34,2.67,-6.96,-4.77,2.26
14.37153506278992,2,3,3,0,-8.35,-1.26,3.09,-5.81,-4.75,2.03
14.38153505325317,2,3,3,0,-8.470000000000001,-1.1,3.1,-5.18,-4.81,1.9
14.39153504371643,2,3,3,0,-8.52,-0.8,3.1,-4.76,-4.55,1.96
14.40153503417969,2,3,3,0,-8.49,-0.46,3.08,-4.31,-3.89,1.97
14.41153502464294,2,3,3,0,-8.380000000000001,0.32,3.08,-4.02,-2.98,1.98
14.4215350151062,2,3,3,0,-8.24,0.57,3.01,-4.05,-2.16,1.8
14.43153500556946,2,3,3,0,-8.109999999999999,0.74,2.85,-4.28,-1.44,1.29
14.44153499603271,2,3,3,0,-7.88,0.8100000000000001,3,-4.52,-0.66,0.62
14.45153498649597,2,3,3,0,-7.79,0.79,3.08,-4.72,-0.11,0.14
14.46153497695923,2,3,3,0,-7.69,0.84,3.17,-4.83,0.41,-0.41
14.47153496742249,2,3,3,0,-7.59,0.83,3.26,-4.9,0.85,-0.9399999999999999
14.48153495788574,2,3,3,0,-7.43,1,3.32,-4.84,1.47,-1.25
14.491534948349,2,3,3,0,-7.34,1.19,3.47,-4.65,1.91,-1.27
14.50153493881226,2,3,3,0,-7.14,1.4,3.53,-4.4,2.28,-1.17
14.51153492927551,2,3,3,0,-6.99,1.61,3.58,-4.14,3.09,-0.85
14.52153491973877,2,3,3,0,-6.95,1.71,3.81,-3.81,4.2,-0.32
14.53153491020203,2,3,3,0,-7.12,1.62,3.96,-3.59,5.05,0.22
14.54153490066528,2,3,3,0,-7.34,1.48,4.11,-3.54,5.26,0.92
14.55153489112854,2,3,3,0,-7.63,1.11,4.23,-4.39,4.82,1.78
14.5615348815918,2,3,3,0,-8.44,-0.15,4.06,-6.63,3.84,2.61
14.57153511047363,2,3,3,0,-8.859999999999999,-1.23,4.06,-10.38,2.66,3.09
14.58153510093689,2,3,3,0,-9.039999999999999,-2.63,3.53,-15.47,1.31,2.7
14.59153509140015,2,3,3,0,-8.85,-3.63,1.31,-20.69,1.17,0.7
14.6015350818634,2,3,3,0,-11.18,-3.94,-1.71,-21.62,5.77,-1.8
14.61153507232666,2,3,3,0,-14.94,-2.5,1.72,-11.29,8.57,-3.06
14.62153506278992,2,3,3,0,-17.76,-0.95,4.76,3.87,1.04,-2.77
14.63153505325317,2,3,3,0,-13.3,2.3,4.59,14.31,-9.35,-1.35
14.64153504371643,2,3,3,0,-9.92,3.2,5.74,17.37,-12.64,1.33
14.65153503417969,2,3,3,0,-8.51,3.8,7.84,15.72,-10.43,4.59
14.66153502464294,2,3,3,0,-8.07,4.36,8.85,9.449999999999999,-8.42,7.97
14.6715350151062,2,3,3,0,-9.07,5.13,7.7,-0.04,-6.76,10.61
14.68153500556946,2,3,3,0,-11.22,4.99,6.63,-7.68,-4.02,11.62
14.69153499603271,2,3,3,0,-14.08,4.26,6.86,-12.46,-1.39,10.58
14.70153498649597,2,3,3,0,-16.18,3.15,6.94,-15.6,-1.28,8.029999999999999
14.71153497695923,2,3,3,0,-19.03,-2.35,1.91,-17.14,0.3,4.19
14.72153496742249,2,3,3,0,-20.52,-4.01,0.36,-12.9,4.08,-0.65
14.73153495788574,2,3,3,0,-19.96,-4.26,-0.35,-4.9,2.83,-5.42
14.741534948349,2,3,3,0,-16.14,-4.67,-0.29,0.66,-5.25,-8.91
14.75153493881226,2,3,3,0,-6.88,-4.97,3.47,4.87,-13.68,-9.74
14.76153492927551,2,3,3,0,-3.57,-4.65,4.69,6.42,-16.73,-8.130000000000001
14.77153491973877,2,3,3,0,-1.29,-4.14,4.84,5.24,-13.34,-5.32
14.78153491020203,2,3,3,0,-2.34,-3.15,2.91,2.93,-6.81,-1.54
14.79153490066528,2,3,3,0,-4.56,-1.9,2.66,1.96,0.07000000000000001,1.08
14.80153489112854,2,3,3,0,-6.63,-0.97,2.28,1.01,5.63,2.41
14.8115348815918,2,3,3,0,-8.24,-0.24,1.72,-0.31,8.52,2.65
14.82153511047363,2,3,3,0,-10.08,-0.66,0.45,-1.92,9.49,1.74
14.83153510093689,2,3,3,0,-10.88,-1.42,0.27,-3.17,9.119999999999999,0.32
14.84153509140015,2,3,3,0,-11.32,-2.23,0.36,-4.01,6.66,-1.06
14.8515350818634,2,3,3,0,-11.47,-2.93,0.59,-4.46,2.29,-1.8
14.86153507232666,2,3,3,0,-10.12,-3.98,1.32,-4.39,-1.33,-1.81
14.87153506278992,2,3,3,0,-8.970000000000001,-4.08,1.65,-3.25,-2.99,-1.45
14.88153505325317,2,3,3,0,-7.85,-3.73,2.01,-1.5,-3.08,-1.05
14.89153504371643,2,3,3,0,-6.91,-3.17,2.37,-0.44,-2.17,-0.61
14.90153503417969,2,3,3,0,-6.18,-2.5,2.63,-0.24,-0.5,-0.37
14.91153502464294,2,3,3,0,-6.13,-2.27,2.45,-0.33,1.85,0.01
14.9215350151062,2,3,3,0,-6.13,-2.29,2.15,-0.15,3.47,0.33
14.93253493309021,2,3,3,0,-6.22,-2.29,1.55,0.86,4.77,0.42
14.94253492355347,2,3,3,0,-6.93,-2.59,1.03,2.55,6.2,0.15
14.95253491401672,2,3,3,0,-7.5,-2.65,1.03,4.56,6.75,-0.42
14.96253490447998,2,3,3,0,-8.039999999999999,-2.45,1.05,6.51,6.16,-1.07
14.97253489494324,2,3,3,0,-8.58,-2.42,1.16,8.02,5.15,-1.66
14.98253488540649,2,3,3,0,-9.220000000000001,-1.81,1.21,9.07,4.14,-2.01
14.99253487586975,2,3,3,0,-9.140000000000001,-1.4,1.2,9.380000000000001,3.55,-2.17
15.00253510475159,2,3,3,0,-9.01,-0.89,1.53,9.66,3.38,-2.26
15.01253509521484,2,3,3,0,-8.68,0.07000000000000001,2.02,9.5,3.07,-2.08
15.0225350856781,2,3,3,0,-8.449999999999999,0.29,2.09,8.9,2.9,-1.82
15.03253507614136,2,3,3,0,-8.369999999999999,0.47,2.21,8.630000000000001,3.06,-1.35
15.04253506660461,2,3,3,0,-8.609999999999999,0.61,2.46,7.85,3.03,-1
15.05253505706787,2,3,3,0,-9.720000000000001,0.85,2.66,6.19,2.77,-0.82
15.06253504753113,2,3,3,0,-10.24,1.04,2.51,4.36,2.31,-0.88
15.07253503799438,2,3,3,0,-10.3,1.07,2.19,2.41,1.88,-1.24
15.08253502845764,2,3,3,0,-10.11,0.92,1.94,0.8,1.91,-1.96
15.0925350189209,2,3,3,0,-9.630000000000001,0.13,1.86,-0.28,2,-2.94
15.10253500938416,2,3,3,0,-9.460000000000001,-0.36,1.85,-0.92,1.93,-3.87
15.11253499984741,2,3,3,0,-9.4,-0.74,1.81,-1.14,1.91,-4.6
15.12253499031067,2,3,3,0,-9.359999999999999,-1,1.62,-0.79,1.9,-5.15
15.13253498077393,2,3,3,0,-9.18,-1.16,1.8,0.29,1.53,-5.42
15.14253497123718,2,3,3,0,-8.92,-1.02,1.85,1.62,0.8100000000000001,-5.44
15.15253496170044,2,3,3,0,-8.65,-0.8,2.08,2.8,0.14,-5.14
15.1625349521637,2,3,3,0,-8.16,-0.46,2.78,3.84,-0.51,-4.67
15.17253494262695,2,3,3,0,-8.1,-0.49,2.8,4.27,-0.9399999999999999,-4.09
15.18253493309021,2,3,3,0,-8.25,-0.49,2.62,4.22,-0.8100000000000001,-3.61
15.19253492355347,2,3,3,0,-8.48,-0.47,2.61,4.04,-0.52,-3.21
15.20253491401672,2,3,3,0,-9.039999999999999,-0.45,2.37,3.95,-0.44,-3.06
15.21253490447998,2,3,3,0,-9.289999999999999,-0.4,2.27,3.99,-0.45,-3.12
15.22253489494324,2,3,3,0,-9.52,-0.38,2.18,4.53,-0.54,-3.62
15.23253488540649,2,3,3,0,-9.5,-0.34,1.99,5.37,-0.67,-4.32
15.24253487586975,2,3,3,0,-9.279999999999999,-0.09,2.22,6.83,-0.57,-5.07
15.25253510475159,2,3,3,0,-9.26,0.08,2.39,8.32,0.05,-5.72
15.26253509521484,2,3,3,0,-9.42,0.17,2.42,8.77,0.8,-6.12
15.2725350856781,2,3,3,0,-9.76,0.44,2.38,8.699999999999999,1.38,-6.1
15.28253507614136,2,3,3,0,-10.14,1.3,2.08,8.380000000000001,1.75,-5.74
15.29253506660461,2,3,3,0,-10.23,1.8,2.16,8.050000000000001,1.89,-5.1
15.30253505706787,2,3,3,0,-10.41,2.28,2.23,7.96,1.81,-4.24
15.31253504753113,2,3,3,0,-10.6,2.67,2.48,8.06,1.28,-3.28
15.32253503799438,2,3,3,0,-10.67,2.75,3.87,8.300000000000001,0.39,-2.33
15.33253502845764,2,3,3,0,-10.54,2.44,4.41,7.75,-0.25,-1.62
15.3425350189209,2,3,3,0,-10.54,2.09,4.79,6.53,0.27,-1.12
15.35253500938416,2,3,3,0,-11.11,1.55,4.42,4.69,1.76,-0.42
15.36253499984741,2,3,3,1,-11.35,1.27,3.71,2.09,3.87,0.47
15.37253499031067,2,3,3,1,-11.54,0.98,3.15,-0.46,6.77,1.36
15.38253498077393,2,3,3,1,-11.85,0.7,2.9,-1.8,8.84,1.82
15.39253497123718,2,3,3,1,-12.72,-0.39,2.43,-2.91,9.390000000000001,1.6
15.40253496170044,2,3,3,1,-13.29,-1.04,1.88,-3.5,9.68,1.11
15.4125349521637,2,3,3,1,-13.72,-1.66,1.18,-4.25,10.1,0.8
15.42253494262695,2,3,3,1,-13.87,-2.29,0.5,-5.44,9.720000000000001,0.8
15.43253493309021,2,3,3,1,-13.51,-3.48,0.55,-6.18,7.91,0.7
15.44253492355347,2,3,3,1,-12.92,-4.39,0.52,-6.92,5.6,1.02
15.45253491401672,2,3,3,1,-12.1,-5.29,0.35,-7.78,4.29,1.73
15.46253490447998,2,3,3,1,-11.36,-6.13,0.34,-6.95,3.83,2.78
15.47253489494324,2,3,3,1,-9.9,-6.93,0.8,-4.54,3.12,3.69
15.48253488540649,2,3,3,1,-9.33,-7.23,0.97,-0.93,3.25,4.89
15.49253487586975,2,3,3,1,-9.029999999999999,-7.03,1.18,2.95,4.24,6.03
15.50253510475159,2,3,3,1,-8.390000000000001,-5.86,1.68,6.7,4.33,7.1
15.51253509521484,2,3,3,1,-8.26,-4.92,1.94,10.16,3.62,7.86
15.5225350856781,2,3,3,1,-8.31,-3.56,1.91,11.78,3.62,8.42
15.53253507614136,2,3,3,1,-8.66,-2.34,1.91,11.38,4.17,9.01
15.54253506660461,2,3,3,1,-9.300000000000001,0.07000000000000001,2.91,11.15,3.73,9.02
15.55253505706787,2,3,3,1,-9.619999999999999,1.01,3.2,10.09,2.41,8.380000000000001
15.56253504753113,2,3,3,2,-9.83,1.59,3.37,7.79,0.87,7.04
15.57253503799438,2,3,3,2,-10.13,1.69,3.49,4.48,-1.04,5.54
15.58253502845764,2,3,3,2,-10.39,0.93,2.93,1,-3.52,4.19
15.5925350189209,2,3,3,2,-10.31,0.39,2.47,-2.02,-5.69,3.27
15.60253500938416,2,3,3,2,-10.24,-0.06,2.1,-3.96,-6.9,2.71
15.61253499984741,2,3,3,2,-10.35,-0.41,1.8,-4.95,-7.53,2.43
15.62253499031067,2,3,3,2,-10.47,-0.58,1.64,-5.61,-8.449999999999999,2.14
15.63253498077393,2,3,3,2,-10.13,-0.48,1.61,-6.41,-10.38,1.79
15.64253497123718,2,3,3,2,-9.4,-0.48,1.53,-7.38,-12.65,1.84
15.65253496170044,2,3,3,2,-8.35,-0.46,1.47,-7.99,-13.69,1.94
15.6625349521637,2,3,3,2,-6.72,-0.63,1.57,-8.43,-12.61,1.96
15.67253494262695,2,3,3,2,-6.49,-0.7,1.89,-8.539999999999999,-10.77,2.16
15.68253493309021,2,3,3,2,-6.57,-0.84,2.17,-8.32,-9.220000000000001,2.69
15.69253492355347,2,3,3,2,-7.27,-1.07,2.67,-8.07,-8.18,3.34
15.70253491401672,2,3,3,2,-7.53,-1.31,2.81,-8.039999999999999,-7.75,3.93
15.71253490447998,2,3,3,3,-7.63,-1.63,2.87,-7.86,-7.47,4.13
15.72253489494324,2,3,3,3,-7.69,-1.67,2.85,-7.22,-6.88,3.97
15.73253488540649,2,3,3,3,-7.72,-1.27,2.71,-6.36,-6.36,3.58
15.74253487586975,2,3,3,3,-7.7,-0.99,2.87,-5.34,-5.71,2.9
15.75253510475159,2,3,3,3,-7.96,-0.73,3.06,-4.56,-4.81,2.16
15.76253509521484,2,3,3,3,-8.220000000000001,-0.5600000000000001,3.13,-4.32,-4.28,1.59
15.7725350856781,2,3,3,3,-8.300000000000001,-0.22,2.85,-4.55,-4.21,1.14
15.78253507614136,2,3,3,3,-8.289999999999999,-0.02,2.72,-4.8,-3.93,0.8100000000000001
15.79253506660461,2,3,3,3,-8.25,0.13,2.74,-5.02,-3.44,0.66
15.80253505706787,2,3,3,3,-8.17,0.26,2.78,-5.1,-2.82,0.5
15.81253504753113,2,3,3,3,-7.81,0.32,2.75,-5.01,-2.14,0.24
15.82253503799438,2,3,3,3,-7.59,0.36,2.72,-4.64,-1.47,-0.13
15.83253502845764,2,3,3,3,-7.47,0.33,2.61,-4.03,-0.41,-0.47
15.8425350189209,2,3,3,3,-7.23,0.53,2.69,-3.49,0.64,-0.91
15.85253500938416,2,3,3,3,-6.84,0.52,3.16,-2.85,1.48,-1.26
15.86253499984741,2,3,3,3,-6.77,0.59,3.35,-2.45,2.25,-1.32
15.87253499031067,2,3,3,3,-6.84,0.78,3.74,-2.18,2.54,-1.21
15.88253498077393,2,3,3,3,-6.97,1.09,3.76,-2.28,2.15,-1
15.89253497123718,2,3,3,3,-7.06,1.24,3.54,-2.73,1.96,-0.45
15.90253496170044,2,3,3,3,-7.53,1.28,3.68,-3.19,2.87,0.35
15.9125349521637,2,3,3,3,-8.140000000000001,1.29,4.16,-3.28,3.47,1.09
15.92253494262695,2,3,3,3,-8.800000000000001,0.68,3.76,-4.55,3.02,1.53
15.93253493309021,2,3,3,3,-8.94,-0.17,3.62,-7.36,2.61,1.37
15.94253492355347,2,3,3,3,-9.16,-1.32,3.65,-10.47,2.74,0.79
15.95253491401672,2,3,3,3,-9.17,-2.51,2.8,-13.62,3.03,-0.55
15.96353507041931,2,3,3,2,-10.11,-3.69,0.45,-16.8,5.13,-2.57
15.97353506088257,2,3,3,2,-12.09,-2.61,1.36,-12.38,6.96,-3.78
15.98353505134583,2,3,3,2,-13.72,-1.22,2.54,-2.31,3.63,-3.42
16.00353503227234,2,3,3,2,-10.97,3.06,5.29,13.08,-8.289999999999999,0.04
16.0135350227356,2,3,3,2,-9.41,4.13,5.69,13.53,-8.76,2.15
16.02353501319885,2,3,3,2,-8.5,5.32,6.53,11.48,-5.98,4.65
16.03353500366211,2,3,3,2,-8.31,6.51,7.81,7.79,-3.16,7.93
16.04353499412537,2,3,3,2,-10.78,7.24,8.69,0.8,-2.17,11.08
16.05353498458862,2,3,3,2,-11.8,5.78,7.37,-9.83,-3.31,12.34
16.06353497505188,2,3,3,1,-12.72,4.03,5.76,-18.57,-3.78,10.91
16.07353496551514,2,3,3,1,-16.67,0.61,6.14,-20.7,-1.3,8.539999999999999
16.08353495597839,2,3,3,1,-18.17,-1.81,3.85,-20.58,-0.41,5.47
16.09353494644165,2,3,3,1,-19.87,-4.84,1.11,-20.31,1.64,1.06
16.10353493690491,2,3,3,1,-22.09,-6.22,0.04,-12.86,4.35,-4.26
16.11353492736816,2,3,3,1,-16.75,-5.61,0,-3.6,-0.29,-9.130000000000001
16.12353491783142,2,3,3,1,-10.79,-5.49,1.45,2.91,-11.71,-11.43
16.13353490829468,2,3,3,1,-5.89,-4.73,3.97,8.58,-20.52,-10.53
16.14353489875793,2,3,3,1,-2.12,-3.82,5.75,10.94,-20.68,-7.5
16.15353488922119,2,3,3,1,0.65,-2.68,4.81,9.109999999999999,-14.37,-3.24
16.16353487968445,2,3,3,1,-0.68,-2,3.66,6.15,-6.13,1.29
16.17353510856628,2,3,3,1,-2.83,-0.84,3.06,3.33,1.41,4.39
16.18353509902954,2,3,3,1,-5.21,0.21,2.58,0.2,7.19,5.81
16.1935350894928,2,3,3,1,-9.300000000000001,0.91,1.06,-2.07,10.68,5.31
16.20353507995605,2,3,3,1,-11.09,0.32,0.14,-3.32,12.26,3.47
16.21353507041931,2,3,3,1,-12.53,-0.59,-0.36,-4.11,11.26,0.88
16.22353506088257,2,3,3,1,-13.56,-1.85,-0.58,-4.8,7.27,-1.52
16.23353505134583,2,3,3,1,-12.6,-3.67,-0.21,-5.21,1.75,-3.25
16.24353504180908,2,3,3,1,-10.64,-3.89,0.5600000000000001,-5.01,-3.18,-3.41
16.25353503227234,2,3,3,1,-8.74,-3.92,1.47,-3.84,-5.81,-2.9
16.2635350227356,2,3,3,0,-6.34,-3.24,2.79,-2.35,-5.29,-2.38
16.27353501319885,2,3,3,0,-5.89,-2.81,2.86,-1.55,-2.65,-1.62
16.28353500366211,2,3,3,0,-5.94,-2.5,2.76,-1.48,0.63,-0.55
16.29353499412537,2,3,3,0,-6.2,-2.28,2.57,-1.66,3.19,0.25
16.30353498458862,2,3,3,0,-6.7,-2.27,1.97,-1.39,4.78,0.71
16.31353497505188,2,3,3,0,-6.85,-2.46,1.51,-0.65,5.78,0.74
16.32353496551514,2,3,3,0,-7.11,-2.71,1.32,0.7,6.22,0.27
16.33353495597839,2,3,3,0,-7.52,-2.96,1.17,2.62,6.39,-0.29
16.34353494644165,2,3,3,0,-8.640000000000001,-2.91,1.29,4.52,6,-0.92
16.35353493690491,2,3,3,0,-9.119999999999999,-2.67,1.44,6.16,5.12,-1.58
16.36353492736816,2,3,3,0,-9.33,-2.42,1.54,7.38,4.22,-2.06
16.37353491783142,2,3,3,0,-9.18,-2.15,1.51,8.119999999999999,3.73,-2.62
16.38353490829468,2,3,3,0,-8.49,-1.43,1.85,8.6,3.71,-3.07
16.39353489875793,2,3,3,0,-8.34,-1.14,2.06,8.720000000000001,3.95,-3.32
16.40353488922119,2,3,3,0,-8.35,-0.9,2.15,8.449999999999999,4.23,-3.25
16.41353487968445,2,3,3,0,-8.84,-0.34,2.24,8.25,4.41,-2.92
16.42353510856628,2,3,3,0,-9.119999999999999,-0.03,2.03,7.76,4.26,-2.57
16.43353509902954,2,3,3,0,-9.550000000000001,0.22,2.04,6.79,3.73,-2.34
16.4435350894928,2,3,3,0,-9.94,0.35,2.05,5.88,3.18,-2.3
16.45353507995605,2,3,3,0,-10.32,0.5,2.02,4.95,2.53,-2.36
16.46353507041931,2,3,3,0,-10.21,0.42,1.93,4.16,1.95,-2.6
16.47353506088257,2,3,3,0,-9.92,0.4,1.99,3.75,1.56,-3
16.48353505134583,2,3,3,0,-9.57,0.37,1.93,3.66,1.14,-3.45
16.49353504180908,2,3,3,0,-9.09,0,2.39,3.54,0.93,-3.87
16.50353503227234,2,3,3,0,-8.99,-0.11,2.55,3.62,0.76,-4.2
16.5135350227356,2,3,3,0,-8.93,-0.21,2.71,3.46,0.5,-4.27
16.52353501319885,2,3,3,0,-8.83,-0.36,2.68,3.19,0.3,-4.2
16.53353500366211,2,3,3,0,-8.56,-0.6,2.42,2.92,0.3,-3.89
16.54353499412537,2,3,3,0,-8.48,-0.71,2.41,2.92,0.37,-3.52
16.55353498458862,2,3,3,0,-8.51,-0.76,2.41,2.87,0.32,-3.2
16.56353497505188,2,3,3,0,-8.56,-0.77,2.34,2.93,0.19,-3.11
16.57353496551514,2,3,3,0,-8.92,-0.58,2.35,3.32,0.03,-3.24
16.58353495597839,2,3,3,0,-9.199999999999999,-0.39,2.27,3.65,-0.12,-3.59
16.59353494644165,2,3,3,0,-9.449999999999999,-0.18,2.3,4.18,-0.27,-3.97
16.60353493690491,2,3,3,0,-9.43,0.21,2.25,4.94,-0.48,-4.46
16.61353492736816,2,3,3,0,-9.25,0.27,2.38,5.7,-0.59,-5.1
16.62353491783142,2,3,3,0,-9.029999999999999,0.26,2.42,6.66,-0.78,-5.79
16.63353490829468,2,3,3,0,-8.869999999999999,0.2,2.34,7.35,-1.1,-6.24
16.64353489875793,2,3,3,0,-8.73,0.07000000000000001,2.69,7.87,-1.08,-6.48
16.65353488922119,2,3,3,0,-8.800000000000001,-0.06,2.82,7.77,-0.7,-6.36
16.66353487968445,2,3,3,0,-9.01,-0.03,2.81,7.19,0.09,-5.83
16.67353510856628,2,3,3,0,-9.300000000000001,0.19,2.59,6.5,0.9,-5.05
16.68353509902954,2,3,3,0,-9.779999999999999,0.87,1.95,6.23,1.56,-4.27
16.6935350894928,2,3,3,0,-10.05,1.26,1.97,6.77,1.79,-3.71
16.70353507995605,2,3,3,0,-10.29,1.52,2.26,7.7,1.21,-3.37
16.71353507041931,2,3,3,0,-10.49,1.63,2.89,8.779999999999999,0.06,-3.11
16.72353506088257,2,3,3,0,-10.67,1.77,3.8,9.33,-0.91,-2.87
16.73353505134583,2,3,3,0,-10.58,1.83,4.21,9.32,-1.05,-2.67
16.74353504180908,2,3,3,0,-10.5,1.71,4.53,9.140000000000001,0.12,-2.42
16.75353503227234,2,3,3,0,-10.66,1.52,4.66,8.470000000000001,2.01,-2
16.7635350227356,2,3,3,0,-11.16,1.65,4.05,6.53,3.63,-1.31
16.77353501319885,2,3,3,0,-11.24,1.42,3.62,3.53,5.32,-0.53
16.78353500366211,2,3,3,0,-11.46,1.13,3.4,1.24,7.4,-0.01
16.79353499412537,2,3,3,0,-12.62,-0.18,3.15,-0.13,9.039999999999999,0.06
16.80353498458862,2,3,3,0,-13.33,-0.99,2.49,-1.1,9.93,0.23
16.81353497505188,2,3,3,0,-13.71,-1.36,1.49,-2.62,10.36,0.96
16.82353496551514,2,3,3,0,-13.75,-1.71,0.85,-5.24,9.800000000000001,1.91
16.83353495597839,2,3,3,0,-13.26,-2.65,1.11,-7.33,7.56,2.79
16.84353494644165,2,3,3,0,-12.6,-3.43,0.8,-9.06,5.04,3.37
16.85353493690491,2,3,3,0,-11.81,-4.67,0.58,-10.73,4.49,3.64
16.86353492736816,2,3,3,0,-11.25,-5.87,0.55,-9.720000000000001,5.76,3.51
16.87353491783142,2,3,3,0,-10.54,-7.23,0.54,-6.66,6.99,3.5
16.88353490829468,2,3,3,0,-9.960000000000001,-7.42,0.75,-2.92,6.88,3.46
16.89353489875793,2,3,3,0,-9.1,-7.12,1.08,1.67,5.92,3.44
16.90353488922119,2,3,3,0,-8.210000000000001,-6.6,1.29,5.37,5.04,3.82
16.91353487968445,2,3,3,0,-6.9,-5.42,1.98,8,4.62,4.87
16.92353510856628,2,3,3,0,-6.86,-4.62,2.11,10.04,4.58,6.03
16.93353509902954,2,3,3,0,-7,-3.57,2.06,11.16,5.04,6.94
16.9435350894928,2,3,3,0,-7.6,-2.4,2.1,11.86,5.41,7.51
16.95353507995605,2,3,3,0,-8.890000000000001,-0.28,2.65,11.98,5.04,7.62
16.96353507041931,2,3,3,0,-9.6,0.65,3.15,11.14,3.53,7.11
16.97353506088257,2,3,3,0,-10.01,1.2,3.46,8.609999999999999,0.79,6.18
16.98453497886658,2,3,3,0,-10.58,1.25,3.29,4.97,-2.38,5.17
16.99453496932983,2,3,3,0,-10.53,1.12,2.98,1.7,-4.93,4.18
17.00453495979309,2,3,3,0,-10.58,0.8100000000000001,2.6,-0.8,-5.85,3.36
17.01453495025635,2,3,3,0,-10.83,0.47,2.34,-2.29,-6.2,2.97
17.0245349407196,2,3,3,0,-11.14,-0.07000000000000001,1.95,-2.92,-6.95,2.69
17.03453493118286,2,3,3,0,-10.99,-0.26,1.99,-3.48,-8.65,2.29
17.04453492164612,2,3,3,0,-10.58,-0.3,2.06,-3.58,-11.03,2.21
17.05453491210938,2,3,3,0,-9.949999999999999,-0.19,2.16,-3.11,-12.74,2.6
17.06453490257263,2,3,3,0,-8.08,0.13,2.24,-3.76,-13.61,2.85
17.07453489303589,2,3,3,0,-7.29,0.26,2.02,-5.86,-12.8,2.84
17.08453488349915,2,3,3,0,-7.11,0.51,2.15,-7.6,-10.04,2.86
17.09453511238098,2,3,3,0,-7.53,0.62,2.78,-8.06,-7.42,3.28
17.10453510284424,2,3,3,0,-8.300000000000001,0.33,3.23,-8.65,-6.96,4.03
17.1145350933075,2,3,3,0,-8.300000000000001,-0.01,2.92,-9.91,-7.53,4.53
17.12453508377075,2,3,3,0,-8.15,-0.4,2.65,-10.85,-7.11,4.52
17.13453507423401,2,3,3,0,-7.95,-0.72,2.41,-10.66,-6.19,4.09
17.14453506469727,2,3,3,0,-7.79,-1.4,2.49,-9.65,-5.32,3.19
17.15453505516052,2,3,3,0,-7.86,-1.5,2.74,-8.06,-4.87,2.11
17.16453504562378,2,3,3,0,-7.95,-1.53,2.9,-6.62,-5.04,1.27
17.17453503608704,2,3,3,0,-7.66,-1.11,2.71,-5.87,-5.48,0.59
17.18453502655029,2,3,3,0,-7.53,-0.89,2.69,-5.63,-5.41,0.11
17.19453501701355,2,3,3,0,-7.4,-0.64,2.68,-5.22,-4.7,0.05
17.20453500747681,2,3,3,0,-7.4,-0.37,2.8,-4.81,-3.56,0.2
17.21453499794006,2,3,3,0,-7.53,-0.08,2.99,-4.34,-2.44,0.46
17.22453498840332,2,3,3,0,-7.57,0,2.86,-4.1,-1.59,0.5600000000000001
17.23453497886658,2,3,3,0,-7.59,0.1,2.74,-3.97,-0.89,0.38
17.24453496932983,2,3,3,0,-7.57,0.27,2.79,-3.88,-0.23,-0.01
17.25453495979309,2,3,3,0,-7.85,0.57,3.26,-3.59,0.47,-0.55
17.26453495025635,2,3,3,0,-7.94,0.71,3.51,-2.94,0.88,-0.96
17.2745349407196,2,3,3,0,-8.01,0.75,3.68,-2.7,1.1,-1.15
17.28453493118286,2,3,3,0,-8.06,0.79,3.56,-2.86,1.17,-1.16
17.29453492164612,2,3,3,0,-7.88,0.8100000000000001,3.26,-3.43,1.28,-1.04
17.30453491210938,2,3,3,0,-7.84,0.88,3.09,-3.95,1.87,-0.88
17.31453490257263,2,3,3,0,-7.94,0.98,3.04,-4.43,2.88,-0.68
17.32453489303589,2,3,3,0,-8.630000000000001,1.16,3.59,-4.63,3.97,-0.33
17.33453488349915,2,3,3,0,-9.09,1.16,3.85,-4.68,4.27,0.17
17.34453511238098,2,3,3,0,-9.25,0.92,4.16,-4.98,3.36,0.87
17.35453510284424,2,3,3,0,-9.199999999999999,0.3,4.24,-6.83,1.99,1.5
17.3645350933075,2,3,3,0,-8.83,-1.6,2.88,-9.9,1.03,1.72
17.37453508377075,2,3,3,0,-8.73,-2.24,1.5,-13.53,1.36,1.01
17.38453507423401,2,3,3,0,-9.65,-2.29,1.9,-14.52,3.45,-0.17
17.39453506469727,2,3,3,0,-11.01,-1.42,2.5,-10.26,3.73,-0.85
17.40453505516052,2,3,3,0,-12.67,0.49,4.22,-4.02,0.79,-0.35
17.41453504562378,2,3,3,0,-12.44,1.56,5.32,3.05,-3.89,0.84
17.42453503608704,2,3,3,0,-11.68,2.58,5.67,7.37,-7.44,2.56
17.43453502655029,2,3,3,0,-10.76,3.44,5.75,8.359999999999999,-7.56,4.84
17.44453501701355,2,3,3,0,-9.1,5.25,6.85,7.72,-5.83,6.96
17.45453500747681,2,3,3,0,-8.9,5.7,7.62,5.15,-3.38,8.289999999999999
17.46453499794006,2,3,3,0,-9.130000000000001,5.91,7.69,-0.5,-2.38,9.279999999999999
17.47453498840332,2,3,3,0,-9.460000000000001,4.96,6.94,-9.52,-4.5,9.77
17.48453497886658,2,3,3,0,-10.72,3.24,4.92,-16.01,-4.35,8.42
17.49453496932983,2,3,3,0,-12.52,2.1,5.02,-18.13,0.25,5.93
17.50453495979309,2,3,3,0,-14.94,0.21,5.19,-17.57,3.74,3.59
17.51453495025635,2,3,3,0,-17.98,-4.68,1.59,-17.99,3.07,0.66
17.5245349407196,2,3,3,0,-19.42,-6.34,-0.08,-16.07,1.68,-2.91
17.53453493118286,2,3,3,0,-19.21,-7.14,-0.86,-11.39,-0.45,-6.41
17.54453492164612,2,3,3,0,-16.39,-7.3,-0.46,-5.46,-5.96,-8.67
17.55453491210938,2,3,3,0,-8.199999999999999,-6.68,2.56,1.9,-14.24,-8.93
17.56453490257263,2,3,3,0,-8.199999999999999,-6.68,2.56,8.23,-19.08,-7.29
17.57453489303589,2,3,3,0,-4.69,-5.25,3.73,11.22,-17.34,-4.51
17.58453488349915,2,3,3,0,-1.2,-2.24,4.15,10.81,-10.9,-1.46
17.59453511238098,2,3,3,0,-2.51,-0.88,3.59,8.41,-4.04,1.75
17.60453510284424,2,3,3,0,-4.32,0.05,3.24,5.8,1.61,4.42
17.6145350933075,2,3,3,0,-4.32,0.05,3.24,2.52,5.88,5.89
17.62453508377075,2,3,3,0,-6.27,0.85,2.84,-0.63,8.630000000000001,6.17
17.63453507423401,2,3,3,0,-11.7,0.44,0.61,-3,9.970000000000001,5.17
17.64453506469727,2,3,3,0,-13.32,-0.58,0.19,-4.46,9.67,3.16
17.65453505516052,2,3,3,0,-14.38,-1.67,0.07000000000000001,-5.22,6.68,0.93
17.66453504562378,2,3,3,0,-14.38,-1.67,0.07000000000000001,-5.92,1.89,-0.92
17.67453503608704,2,3,3,0,-11.39,-3.7,1.06,-5.86,-2.17,-2.07
17.68453502655029,2,3,3,0,-9.48,-3.76,1.78,-4.87,-4.84,-2.66
17.69453501701355,2,3,3,0,-7.8,-3.59,2.4,-3.74,-5.39,-2.85
17.70453500747681,2,3,3,0,-5.66,-3.29,2.84,-3.16,-3.68,-2.34
17.71453499794006,2,3,3,0,-5.38,-3.08,2.81,-2.5,-0.88,-1.22
17.72453498840332,2,3,3,0,-5.49,-2.87,2.56,-1.6,1.62,-0.11
17.73453497886658,2,3,3,0,-5.86,-2.79,2.2,-0.48,3.59,0.68
17.74453496932983,2,3,3,0,-6.91,-2.4,1.7,1,4.95,1.18
17.75453495979309,2,3,3,0,-7.63,-2.45,1.6,2.44,5.16,1.07
17.76453495025635,2,3,3,0,-8.199999999999999,-2.36,1.71,3.9,4.82,0.62
17.7745349407196,2,3,3,0,-8.67,-2.34,1.74,5.42,4.35,0
17.78453493118286,2,3,3,0,-9.359999999999999,-2.25,1.61,6.72,4.06,-0.65
17.79453492164612,2,3,3,0,-9.51,-2.01,1.68,7.6,4.21,-1.27
17.80453491210938,2,3,3,0,-9.52,-1.61,1.68,8.1,4.41,-1.84
17.81453490257263,2,3,3,1,-9.279999999999999,-1.17,1.78,7.99,4.06,-2.28
17.82453489303589,2,3,3,1,-8.789999999999999,-0.51,2.04,7.54,3.61,-2.45
17.83453488349915,2,3,3,1,-8.69,-0.3,2.01,7.12,3.06,-2.38
17.84453511238098,2,3,3,1,-8.779999999999999,-0.06,2.13,6.69,2.63,-2
17.85453510284424,2,3,3,1,-9.4,0.23,2.43,6.14,2.45,-1.51
17.8645350933075,2,3,3,1,-9.76,0.35,2.52,5.4,1.88,-0.93
17.87453508377075,2,3,3,1,-9.94,0.4,2.57,4.29,0.98,-0.57
17.88453507423401,2,3,3,1,-9.91,0.42,2.38,3.25,0.43,-0.53
17.89453506469727,2,3,3,1,-9.380000000000001,0.36,2.43,2.38,0.4,-0.79
17.90453505516052,2,3,3,1,-9.15,0.22,2.55,1.8,0.44,-1.29
17.91453504562378,2,3,3,1,-9.15,0.22,2.55,1.46,0.5,-1.77
17.92453503608704,2,3,3,1,-9.07,0.11,2.59,1.39,0.47,-2.17
17.93453502655029,2,3,3,1,-8.949999999999999,-0.31,2.74,1.66,0.28,-2.41
17.94453501701355,2,3,3,1,-8.82,-0.44,2.86,1.86,-0.1,-2.6
17.95453500747681,2,3,3,1,-8.76,-0.64,2.95,2.04,-0.31,-2.68
17.96453499794006,2,3,3,1,-8.76,-0.64,2.95,2.12,-0.29,-2.59
17.97453498840332,2,3,3,1,-8.68,-0.78,3.02,2.12,-0.29,-2.59
17.98453497886658,2,3,3,1,-8.710000000000001,-1.11,2.43,1.96,0.32,-2.5
17.99453496932983,2,3,3,1,-8.92,-1.16,2.27,2.18,0.51,-2.55
18.00553488731384,2,3,3,1,-9.02,-1.1,2.08,2.92,0.3,-2.79
18.0155348777771,2,3,3,1,-9.02,-1.1,2.08,3.88,-0.1,-3.15
18.02553510665894,2,3,3,1,-9.130000000000001,-0.87,2.04,5.21,-0.47,-3.7
18.03553509712219,2,3,3,1,-9.130000000000001,-0.44,2.26,6.57,-0.75,-4.27
18.04553508758545,2,3,3,1,-9.109999999999999,-0.17,2.43,7.58,-0.71,-4.76
18.05553507804871,2,3,3,1,-9.08,0.34,2.63,8.33,-0.43,-5.07
18.06553506851196,2,3,3,2,-9.08,0.34,2.63,8.35,0.12,-5.22
18.07553505897522,2,3,3,2,-9.039999999999999,0.46,2.55,8.449999999999999,0.71,-5.25
18.08553504943848,2,3,3,2,-9.359999999999999,0.68,2.62,8.44,0.76,-5.21
18.09553503990173,2,3,3,2,-9.57,0.65,2.82,7.93,0.57,-5.05
18.10553503036499,2,3,3,2,-9.789999999999999,0.5600000000000001,2.9,7.19,0.43,-4.77
18.11553502082825,2,3,3,2,-9.789999999999999,0.5600000000000001,2.9,6.33,0.16,-4.41
18.1255350112915,2,3,3,2,-9.949999999999999,0.54,2.88,5.56,-0.19,-4
18.13553500175476,2,3,3,2,-10.16,0.96,2.64,5.06,-0.62,-3.67
18.14553499221802,2,3,3,2,-10.17,1.15,2.72,5.03,-0.92,-3.47
18.15553498268127,2,3,3,2,-10.16,1.28,2.88,5.27,-1.18,-3.48
18.16553497314453,2,3,3,2,-10.16,1.28,2.88,5.27,-1.18,-3.48
18.17553496360779,2,3,3,2,-10.03,1.46,3.11,5.29,-1.36,-3.68
18.18553495407104,2,3,3,2,-9.58,1.22,3.91,4.85,-0.42,-4.02
18.1955349445343,2,3,3,2,-9.449999999999999,0.85,4.11,4.56,0.6,-4.1
18.20553493499756,2,3,3,2,-9.720000000000001,0.01,4.39,3.91,1.49,-3.99
18.21553492546082,2,3,3,3,-9.720000000000001,0.01,4.39,3.91,1.49,-3.99
18.22553491592407,2,3,3,3,-9.93,-0.53,4.68,3.18,2.37,-3.45
18.23553490638733,2,3,3,3,-10.28,-1.51,4.83,2.64,4.92,-1.54
18.24553489685059,2,3,3,3,-11.53,-2.21,3.65,1.66,6,-0.37
18.25553488731384,2,3,3,3,-12.39,-1.75,2.29,-0.4,7.28,1.05
18.2655348777771,2,3,3,3,-12.39,-1.75,2.29,-0.4,7.28,1.05
18.27553510665894,2,3,3,3,-13.14,-0.41,1.18,-3.42,8.65,2.6
18.28553509712219,2,3,3,3,-14.01,0.7,1.49,-7.99,7.85,3.14
18.29553508758545,2,3,3,3,-13.81,0.32,1.8,-10.15,6.46,1.78
18.30553507804871,2,3,3,3,-13.52,-0.82,2.08,-11.59,6.83,0.23
18.31553506851196,2,3,3,3,-13.39,-2.44,2.21,-11.59,6.83,0.23
18.32553505897522,2,3,3,3,-13.11,-5.96,1.87,-11.43,8.029999999999999,-0.61
18.33553504943848,2,3,3,3,-12.54,-7.04,1.44,-6.58,5.16,-0.17
18.34553503990173,2,3,3,3,-11.36,-7.51,1.2,-3.1,1.22,0.4
18.35553503036499,2,3,3,3,-9.869999999999999,-7.62,1.09,0.89,-0.73,0.86
18.36553502082825,2,3,3,3,-7.22,-7.09,1.58,0.89,-0.73,0.86
18.3755350112915,2,3,3,3,-6.51,-6.49,1.75,5.09,-0.91,1.44
18.38553500175476,2,3,3,3,-6.34,-5.52,1.98,11.95,0.96,1.67
18.39553499221802,2,3,3,3,-6.59,-4.5,2.42,12.76,0.46,1.69
18.40553498268127,2,3,3,3,-7.42,-2.51,2.73,11.11,-0.23,1.62
18.41553497314453,2,3,3,3,-7.84,-1.75,2.83,11.11,-0.23,1.62
18.42553496360779,2,3,3,3,-8.390000000000001,-1.16,3.29,8.52,-0.74,1.38
18.43553495407104,2,3,3,3,-9.1,-0.38,3.24,2.28,-2.71,0.49
18.4455349445343,2,3,3,3,-9.49,-0.3,2.54,-0.1,-2.39,-0.04
18.45553493499756,2,3,3,3,-9.91,-0.51,2.42,-1.29,-2.09,-0.6899999999999999
18.46553492546082,2,3,3,3,-10.21,-1.03,2.65,-1.29,-2.09,-0.6899999999999999
18.47553491592407,2,3,3,3,-9.84,-2.22,2.34,-1.97,-2.38,-1.24
18.48553490638733,2,3,3,3,-9.52,-2.92,2.23,-1.93,-2.94,-1.48
18.49553489685059,2,3,3,3,-9.34,-3.36,2.28,-1.29,-4.02,-1.51
18.50553488731384,2,3,3,3,-9.06,-3.56,2.07,-1.24,-4.66,-1.54
18.5155348777771,2,3,3,3,-8.44,-3.32,2.22,-1.24,-4.66,-1.54
18.52553510665894,2,3,3,3,-8.380000000000001,-3.14,2.13,-0.99,-4.8,-1.59
18.53553509712219,2,3,3,3,-8.24,-3.07,2.18,-0.3,-4.95,-1.27
18.54553508758545,2,3,3,3,-8.199999999999999,-2.96,2.38,0.77,-4.45,-1
18.55553507804871,2,3,3,3,-8.109999999999999,-2.65,2.43,2.12,-3.91,-0.61
18.56553506851196,2,3,3,3,-8.130000000000001,-2.55,2.76,2.12,-3.91,-0.61
18.57553505897522,2,3,3,3,-8.199999999999999,-2.43,3.41,3.77,-3.49,-0.35
18.58553504943848,2,3,3,3,-8.16,-2.25,3.48,3.24,-3.14,-0.65
18.59553503990173,2,3,3,3,-8.01,-1.92,2.98,3.1,-2.04,-0.98
18.60553503036499,2,3,3,3,-8.18,-1.63,2.94,3.18,-1.35,-1.39
18.61553502082825,2,3,3,3,-8.369999999999999,-1.31,3.1,3.18,-1.35,-1.39
18.64553499221802,2,3,3,3,-8.890000000000001,-0.45,3.32,1.15,-1.16,-1.04
18.65553498268127,2,3,3,3,-8.869999999999999,-0.37,3.48,0.46,-1.68,-0.31
18.66553497314453,2,3,3,3,-8.65,-0.6899999999999999,3.74,0.46,-1.68,-0.31
18.67553496360779,2,3,3,3,-8.470000000000001,-0.77,3.45,-0.43,-2.39,0.45
18.68553495407104,2,3,3,3,-8.25,-0.89,3.26,-1.87,-2.26,1.62
18.6955349445343,2,3,3,3,-8.06,-0.98,3.29,-1.83,-1.6,1.84
18.70553493499756,2,3,3,3,-8.050000000000001,-1.33,3.41,-2.2,-1.44,1.69
18.71553492546082,2,3,3,3,-7.89,-1.5,2.89,-2.2,-1.44,1.69
18.72553491592407,2,3,3,3,-7.85,-1.44,2.83,-2.31,-0.73,1.55
18.73553490638733,2,3,3,3,-8.039999999999999,-1.19,3.16,-0.79,0.38,1.71
18.74553489685059,2,3,3,3,-8.17,-1.13,3.53,-0.63,-0.18,1.95
18.75553488731384,2,3,3,3,-8.029999999999999,-1.15,3.5,-0.6899999999999999,-0.79,2.35
18.7655348777771,2,3,3,3,-7.8,-1.22,3.37,-0.6899999999999999,-0.79,2.35
18.77553510665894,2,3,3,3,-7.76,-1.27,3.13,-0.9399999999999999,-0.73,2.83
18.78553509712219,2,3,3,3,-8.08,-1.21,3.1,-0.35,0.96,3.31
18.79553508758545,2,3,3,3,-8.460000000000001,-1.11,3.13,-0.02,1.46,3.21
18.80553507804871,2,3,3,3,-8.82,-0.97,3.36,0.28,1.3,2.91
18.81553506851196,2,3,3,3,-9.109999999999999,-0.74,3.55,0.28,1.3,2.91
18.82553505897522,2,3,3,3,-9.01,-0.55,3.59,0.5,0.68,2.43
18.83553504943848,2,3,3,3,-8.82,-0.38,3.64,-0.22,0.53,1.66
18.84553503990173,2,3,3,3,-8.550000000000001,-0.31,3.64,-1.51,1.16,1.64
18.85553503036499,2,3,3,3,-8.67,-0.59,3.57,-3.08,1.78,1.86
18.86553502082825,2,3,3,3,-9.19,-0.82,3.34,-3.08,1.78,1.86
18.8755350112915,2,3,3,3,-10.16,-1.06,3.48,-4.26,2.36,2.3
18.88553500175476,2,3,3,3,-11.53,-1.4,3.46,-5.41,2.22,2.07
18.89553499221802,2,3,3,3,-14.02,-2.29,2.73,-5,1.25,1.37
