timestamp,magCalib,accCalib,gyrCalib,sysCalib,accX,accY,accZ,gyrX,gyrY,gyrZ
-0.003464937210083008,2,3,3,2,-9.76,1.17,1.46,0.15,-0.22,-0.1
0.006535053253173828,2,3,3,2,-9.800000000000001,1.13,1.36,0.12,-0.25,-0.16
0.01653504371643066,2,3,3,2,-9.73,1.08,1.35,0.05,-0.26,-0.15
0.0265350341796875,2,3,3,2,-9.69,1.1,1.42,0.05,-0.26,-0.15
0.03653502464294434,2,3,3,2,-9.65,1.1,1.5,-0.1,-0.22,-0.12
0.04653501510620117,2,3,3,2,-9.65,1.15,1.42,-0.2,-0.28,-0.03
0.05753493309020996,2,3,3,2,-9.67,1.14,1.38,-0.24,-0.35,-0.04
0.06653499603271484,2,3,3,2,-9.69,1.16,1.4,-0.33,-0.45,-0.07000000000000001
0.07653498649597168,2,3,3,2,-9.710000000000001,1.11,1.43,-0.33,-0.45,-0.07000000000000001
0.08653497695922852,2,3,3,2,-9.66,1.09,1.47,-0.39,-0.5600000000000001,-0.13
0.09653496742248535,2,3,3,2,-9.68,1.07,1.47,-0.4,-0.63,-0.33
0.1065349578857422,2,3,3,2,-9.65,1.07,1.4,-0.42,-0.64,-0.4
0.116534948348999,2,3,3,2,-9.640000000000001,1.03,1.42,-0.37,-0.43,-0.51
0.1265349388122559,2,3,3,2,-9.75,0.99,1.53,-0.37,-0.43,-0.51
0.1365349292755127,2,3,3,2,-9.75,0.98,1.57,-0.47,-0.3,-0.59
0.1465349197387695,2,3,3,2,-9.68,1.02,1.52,-0.39,-0.22,-0.51
0.1565349102020264,2,3,3,2,-9.699999999999999,1.01,1.44,-0.38,-0.1,-0.41
0.1665349006652832,2,3,3,2,-9.710000000000001,0.96,1.51,-0.34,-0.13,-0.29
0.1775350570678711,2,3,3,2,-9.76,0.96,1.53,-0.34,-0.13,-0.29
0.1875350475311279,2,3,3,2,-9.74,0.96,1.56,-0.31,-0.23,-0.23
0.1975350379943848,2,3,3,2,-9.720000000000001,0.97,1.56,-0.23,-0.53,-0.3
0.2075350284576416,2,3,3,2,-9.69,0.99,1.42,-0.21,-0.61,-0.34
0.2175350189208984,2,3,3,2,-9.69,0.98,1.49,-0.23,-0.64,-0.39
0.2275350093841553,2,3,3,2,-9.67,0.98,1.51,-0.23,-0.64,-0.39
0.2375349998474121,2,3,3,2,-9.609999999999999,1.02,1.53,-0.22,-0.73,-0.47
0.2475349903106689,2,3,3,2,-9.65,1.06,1.44,0.17,-0.59,-0.62
0.2575349807739258,2,3,3,2,-9.75,1.05,1.41,0.35,-0.44,-0.72
0.2675349712371826,2,3,3,2,-9.83,1.02,1.48,0.54,-0.4,-0.75
0.2775349617004395,2,3,3,2,-9.81,0.97,1.51,0.54,-0.4,-0.75
0.2875349521636963,2,3,3,2,-9.77,0.96,1.53,0.77,-0.24,-0.71
0.2975349426269531,2,3,3,2,-9.73,0.97,1.52,0.65,0.1,-0.41
0.30753493309021,2,3,3,2,-9.69,1,1.44,0.66,0.15,-0.25
0.3175349235534668,2,3,3,2,-9.699999999999999,1.13,1.5,0.74,0.09,-0.13
0.3275349140167236,2,3,3,2,-9.699999999999999,1.15,1.46,0.74,0.09,-0.13
0.3375349044799805,2,3,3,2,-9.67,1.18,1.4,0.8100000000000001,0.02,-0.06
0.3475348949432373,2,3,3,2,-9.68,1.16,1.49,0.75,0.06,-0.05
0.3575348854064941,2,3,3,2,-9.699999999999999,1.18,1.43,0.73,0.15,-0.11
0.367534875869751,2,3,3,2,-9.76,1.2,1.48,0.87,0.33,-0.14
0.3775351047515869,2,3,3,2,-9.75,1.22,1.44,1.02,0.42,-0.2
0.3875350952148438,2,3,3,2,-9.67,1.24,1.41,1.06,0.48,-0.13
0.3975350856781006,2,3,3,2,-9.609999999999999,1.36,1.32,1.06,0.48,-0.13
0.4075350761413574,2,3,3,2,-9.65,1.42,1.22,0.9399999999999999,0.59,-0.03
0.4175350666046143,2,3,3,2,-9.74,1.44,1.23,0.67,0.7,0.03
0.4275350570678711,2,3,3,2,-9.74,1.42,1.29,-0.09,0.64,-0.14
0.4375350475311279,2,3,3,2,-9.67,1.29,1.4,-0.27,0.54,-0.29
0.4475350379943848,2,3,3,2,-9.65,1.21,1.48,-0.43,0.4,-0.36
0.4575350284576416,2,3,3,2,-9.6,1.14,1.44,-0.31,0.42,-0.28
0.4675350189208984,2,3,3,2,-9.73,1.13,1.46,0.07000000000000001,0.58,-0.08
0.4775350093841553,2,3,3,2,-9.76,1.11,1.35,0.31,0.72,0.17
0.4875349998474121,2,3,3,2,-9.77,1.17,1.3,0.31,0.95,0.46
0.4975349903106689,2,3,3,2,-9.800000000000001,1.19,1.3,0.19,1.15,0.66
0.5075349807739258,2,3,3,2,-9.800000000000001,1.16,1.18,0,1.3,0.77
0.5175349712371826,2,3,3,2,-9.83,1.12,1.27,-0.24,1.34,0.89
0.5275349617004395,2,3,3,2,-9.789999999999999,1.06,1.32,-0.48,1.21,1.01
0.5375349521636963,2,3,3,2,-9.73,0.99,1.41,-0.48,1.11,1.18
0.5475349426269531,2,3,3,2,-9.609999999999999,0.96,1.48,-0.38,1.1,1.36
0.55753493309021,2,3,3,2,-9.550000000000001,0.97,1.36,0.03,1.24,1.6
0.5675349235534668,2,3,3,2,-9.59,0.98,1.35,0.46,1.49,1.83
0.5775349140167236,2,3,3,2,-9.74,1.05,1.34,0.58,1.65,1.99
0.5875349044799805,2,3,3,2,-9.880000000000001,1.11,1.22,0.48,1.63,2.1
0.5975348949432373,2,3,3,2,-9.859999999999999,1.12,1.12,0.31,1.57,2.15
0.6075348854064941,2,3,3,2,-9.779999999999999,1.11,1.11,0.04,1.52,2.22
0.617534875869751,2,3,3,2,-9.68,1.14,1.23,-0.16,1.35,2.3
0.6275351047515869,2,3,3,2,-9.539999999999999,1.15,1.33,-0.16,1.2,2.45
0.6375350952148438,2,3,3,2,-9.630000000000001,1.14,1.39,-0.28,1.09,2.48
0.6475350856781006,2,3,3,2,-9.699999999999999,1.18,1.41,-0.29,0.9399999999999999,2.44
0.6575350761413574,2,3,3,2,-9.720000000000001,1.19,1.24,-0.23,0.86,2.33
0.6675350666046143,2,3,3,2,-9.69,1.2,1.29,-0.23,0.85,2.21
0.6775350570678711,2,3,3,2,-9.640000000000001,1.16,1.31,-0.21,0.83,2.14
0.6875350475311279,2,3,3,2,-9.58,1.12,1.29,-0.11,0.88,2.26
0.6975350379943848,2,3,3,2,-9.630000000000001,1.1,1.26,-0.06,0.98,2.4
0.7075350284576416,2,3,3,2,-9.710000000000001,1.13,1.25,-0.09,1.05,2.57
0.7175350189208984,2,3,3,2,-9.77,1.17,1.28,-0.04,1.07,2.65
0.7275350093841553,2,3,3,2,-9.789999999999999,1.23,1.26,0.12,1.05,2.69
0.7375349998474121,2,3,3,3,-9.77,1.3,1.3,0.24,0.98,2.71
0.7475349903106689,2,3,3,3,-9.710000000000001,1.31,1.29,0.33,0.8100000000000001,2.72
0.7575349807739258,2,3,3,3,-9.720000000000001,1.33,1.21,0.34,0.67,2.7
0.7675349712371826,2,3,3,3,-9.74,1.37,1.22,0.34,0.47,2.67
0.7775349617004395,2,3,3,3,-9.619999999999999,1.55,1.19,0.47,0.39,2.63
0.7875349521636963,2,3,3,3,-9.59,1.62,1.16,0.53,0.48,2.55
0.7975349426269531,2,3,3,3,-9.52,1.66,1.1,0.42,0.6,2.46
0.80753493309021,2,3,3,3,-9.56,1.68,1.06,0.12,0.75,2.3
0.8175349235534668,2,3,3,3,-9.68,1.62,1.15,-0.2,0.64,2.07
0.8275349140167236,2,3,3,3,-9.67,1.53,1.15,-0.45,0.39,1.72
0.8375349044799805,2,3,3,3,-9.65,1.48,1.22,-0.58,0.21,1.37
0.8475348949432373,2,3,3,3,-9.52,1.39,1.23,-0.5,0.14,1.07
0.8575348854064941,2,3,3,3,-9.52,1.36,1.2,-0.31,0.2,0.88
0.867534875869751,2,3,3,3,-9.59,1.32,1.21,-0.16,0.32,0.7
0.8775351047515869,2,3,3,3,-9.710000000000001,1.31,1.21,-0.04,0.3,0.61
0.8875350952148438,2,3,3,3,-9.84,1.25,1.26,0.07000000000000001,0.26,0.5
0.8975350856781006,2,3,3,3,-9.789999999999999,1.26,1.23,0.15,0.12,0.5
0.9075350761413574,2,3,3,3,-9.75,1.28,1.17,0.33,0,0.54
0.9175350666046143,2,3,3,3,-9.699999999999999,1.4,1.17,0.45,-0.1,0.62
0.9275350570678711,2,3,3,3,-9.699999999999999,1.48,1.19,0.55,-0.15,0.61
0.9375350475311279,2,3,3,3,-9.76,1.52,1.24,0.47,-0.23,0.57
0.9475350379943848,2,3,3,3,-9.76,1.5,1.25,0.38,-0.42,0.44
0.9575350284576416,2,3,3,3,-9.699999999999999,1.5,1.17,0.38,-0.61,0.3
0.9675350189208984,2,3,3,3,-9.6,1.56,1.21,0.38,-0.54,0.2
0.9775350093841553,2,3,3,3,-9.51,1.6,1.22,0.41,-0.53,0.14
0.9875349998474121,2,3,3,3,-9.52,1.64,1.21,0.43,-0.44,0.1
0.9975349903106689,2,3,3,3,-9.56,1.63,1.21,0.32,-0.32,-0.05
1.007534980773926,2,3,3,3,-9.68,1.58,1.16,0.18,-0.37,-0.22
1.017534971237183,2,3,3,3,-9.69,1.58,1.13,0.24,-0.36,-0.38
1.027534961700439,2,3,3,3,-9.65,1.55,1.17,0.29,-0.32,-0.52
1.037534952163696,2,3,3,3,-9.65,1.55,1.23,0.28,-0.27,-0.55
1.047534942626953,2,3,3,3,-9.65,1.53,1.16,0.34,-0.3,-0.52
1.05753493309021,2,3,3,3,-9.67,1.54,1.07,0.36,-0.25,-0.43
1.067534923553467,2,3,3,3,-9.73,1.58,1.09,0.33,-0.26,-0.4
1.077534914016724,2,3,3,3,-9.74,1.54,1.12,0.38,-0.32,-0.36
1.08753490447998,2,3,3,3,-9.73,1.58,1.15,0.53,-0.41,-0.37
1.097534894943237,2,3,3,3,-9.699999999999999,1.6,1.21,0.62,-0.43,-0.42
1.107534885406494,2,3,3,3,-9.69,1.62,1.05,0.6899999999999999,-0.42,-0.49
1.117534875869751,2,3,3,3,-9.56,1.7,1.11,0.74,-0.32,-0.51
1.127535104751587,2,3,3,3,-9.52,1.74,1.08,0.6899999999999999,-0.18,-0.47
1.137535095214844,2,3,3,3,-9.529999999999999,1.82,1.11,0.57,-0.1,-0.41
1.147535085678101,2,3,3,3,-9.56,1.82,1.16,0.37,-0.13,-0.42
1.157535076141357,2,3,3,3,-9.58,1.83,1.01,0.29,-0.22,-0.44
1.167535066604614,2,3,3,3,-9.619999999999999,1.79,1.03,0.25,-0.21,-0.48
1.177535057067871,2,3,3,3,-9.65,1.77,1.06,0.16,-0.2,-0.52
1.187535047531128,2,3,3,3,-9.630000000000001,1.76,1.11,0.08,-0.14,-0.51
1.198534965515137,2,3,3,3,-9.640000000000001,1.67,1.1,0.06,-0.18,-0.52
1.208534955978394,2,3,3,3,-9.67,1.65,1.08,0.03,-0.11,-0.51
1.21853494644165,2,3,3,3,-9.69,1.62,1.14,-0.02,-0.12,-0.47
1.228534936904907,2,3,3,3,-9.68,1.61,1.18,-0.01,-0.19,-0.47
1.238534927368164,2,3,3,3,-9.630000000000001,1.59,1.22,0.09,-0.2,-0.42
1.248534917831421,2,3,3,3,-9.65,1.57,1.21,0.12,-0.08,-0.45
1.258534908294678,2,3,3,3,-9.67,1.59,1.2,0.06,-0.05,-0.5
1.268534898757935,2,3,3,3,-9.67,1.57,1.26,0.06,-0.13,-0.49
1.278534889221191,2,3,3,3,-9.66,1.55,1.26,0.15,-0.22,-0.54
1.308535099029541,2,3,3,3,-9.720000000000001,1.52,1.2,0.23,-0.2,-0.59
1.318535089492798,2,3,3,3,-9.710000000000001,1.55,1.29,0.12,-0.27,-0.63
1.328535079956055,2,3,3,3,-9.619999999999999,1.6,1.3,0.19,-0.36,-0.63
1.338535070419312,2,3,3,3,-9.58,1.59,1.27,0.3,-0.33,-0.57
1.348535060882568,2,3,3,3,-9.619999999999999,1.59,1.21,0.27,-0.15,-0.48
1.358535051345825,2,3,3,3,-9.65,1.6,1.16,0.19,-0.08,-0.38
1.368535041809082,2,3,3,3,-9.720000000000001,1.58,1.21,0.19,-0.14,-0.32
1.378535032272339,2,3,3,3,-9.720000000000001,1.6,1.2,0.16,-0.24,-0.31
1.388535022735596,2,3,3,3,-9.609999999999999,1.67,1.26,0.16,-0.27,-0.25
1.398535013198853,2,3,3,3,-9.609999999999999,1.67,1.25,0.03,-0.21,-0.23
1.408535003662109,2,3,3,3,-9.630000000000001,1.65,1.15,-0.08,-0.22,-0.23
1.418534994125366,2,3,3,3,-9.640000000000001,1.66,1.19,-0.14,-0.23,-0.27
1.428534984588623,2,3,3,3,-9.630000000000001,1.63,1.28,-0.21,-0.24,-0.32
1.43853497505188,2,3,3,3,-9.59,1.6,1.25,-0.22,-0.22,-0.34
1.448534965515137,2,3,3,3,-9.59,1.57,1.25,-0.23,-0.09,-0.3
1.458534955978394,2,3,3,3,-9.65,1.51,1.25,-0.26,0.05,-0.29
1.46853494644165,2,3,3,3,-9.640000000000001,1.49,1.29,-0.22,0.09,-0.23
1.478534936904907,2,3,3,3,-9.65,1.51,1.28,-0.08,0.06,-0.23
1.488534927368164,2,3,3,3,-9.67,1.47,1.26,0.07000000000000001,0.1,-0.24
1.498534917831421,2,3,3,3,-9.710000000000001,1.51,1.22,0.09,0.09,-0.2
1.508534908294678,2,3,3,3,-9.699999999999999,1.5,1.16,0.02,0.02,-0.15
1.518534898757935,2,3,3,3,-9.67,1.5,1.22,-0.08,-0.03,-0.12
1.528534889221191,2,3,3,3,-9.630000000000001,1.53,1.26,-0.14,-0.06,-0.08
1.538534879684448,2,3,3,3,-9.619999999999999,1.52,1.28,-0.15,-0.1,-0.08
1.548535108566284,2,3,3,3,-9.67,1.48,1.28,-0.12,-0.06,-0.14
1.558535099029541,2,3,3,3,-9.68,1.45,1.19,-0.03,0.03,-0.21
1.568535089492798,2,3,3,3,-9.699999999999999,1.47,1.21,0.01,0.09,-0.26
1.578535079956055,2,3,3,3,-9.640000000000001,1.52,1.28,0.03,0.11,-0.2
1.588535070419312,2,3,3,3,-9.59,1.54,1.28,0,0.23,-0.15
1.598535060882568,2,3,3,3,-9.6,1.5,1.23,0.02,0.34,-0.05
1.608535051345825,2,3,3,3,-9.68,1.5,1.17,0.03,0.31,-0.05
1.618535041809082,2,3,3,3,-9.74,1.47,1.18,0.01,0.24,-0.12
1.628535032272339,2,3,3,3,-9.69,1.53,1.2,-0.06,0.09,-0.15
1.638535022735596,2,3,3,3,-9.619999999999999,1.57,1.23,-0.13,0.07000000000000001,-0.17
1.648535013198853,2,3,3,3,-9.58,1.54,1.13,-0.25,0.1,-0.12
1.658535003662109,2,3,3,3,-9.66,1.48,1.11,-0.24,0.22,-0.17
1.668534994125366,2,3,3,3,-9.69,1.44,1.19,-0.26,0.27,-0.2
1.678534984588623,2,3,3,3,-9.69,1.47,1.22,-0.29,0.2,-0.26
1.68853497505188,2,3,3,3,-9.57,1.52,1.27,-0.32,0.14,-0.23
1.698534965515137,2,3,3,3,-9.57,1.56,1.2,-0.27,0.17,-0.19
1.708534955978394,2,3,3,3,-9.630000000000001,1.55,1.1,-0.19,0.24,-0.17
1.71853494644165,2,3,3,3,-9.69,1.52,1.1,-0.21,0.21,-0.16
1.728534936904907,2,3,3,3,-9.74,1.51,1.14,-0.24,0.15,-0.22
1.738534927368164,2,3,3,3,-9.720000000000001,1.45,1.2,-0.3,0.06,-0.22
1.748534917831421,2,3,3,3,-9.67,1.42,1.23,-0.37,0.05,-0.23
1.758534908294678,2,3,3,3,-9.640000000000001,1.41,1.14,-0.32,0.08,-0.2
1.768534898757935,2,3,3,3,-9.65,1.41,1.19,-0.31,0.2,-0.15
1.778534889221191,2,3,3,3,-9.67,1.42,1.26,-0.23,0.24,-0.1
1.788534879684448,2,3,3,3,-9.720000000000001,1.46,1.24,-0.07000000000000001,0.25,-0.06
1.798535108566284,2,3,3,3,-9.710000000000001,1.48,1.19,0.12,0.19,-0.06
1.808535099029541,2,3,3,3,-9.65,1.51,1.04,0.17,0.11,-0.03
1.818535089492798,2,3,3,3,-9.619999999999999,1.53,1.07,0.16,0.04,-0.03
1.828535079956055,2,3,3,3,-9.630000000000001,1.57,1.12,0.12,0.04,0.01
1.838535070419312,2,3,3,3,-9.73,1.53,1.17,0.07000000000000001,0,-0.02
1.848535060882568,2,3,3,3,-9.75,1.49,1.15,0.07000000000000001,-0.05,-0.13
1.858535051345825,2,3,3,3,-9.699999999999999,1.49,1.08,0.07000000000000001,-0.09,-0.25
1.868535041809082,2,3,3,3,-9.609999999999999,1.45,1.14,0.09,-0.01,-0.28
1.878535032272339,2,3,3,3,-9.56,1.45,1.21,0.06,0.12,-0.25
1.888535022735596,2,3,3,3,-9.59,1.47,1.23,0.11,0.13,-0.2
1.898535013198853,2,3,3,3,-9.630000000000001,1.51,1.23,0.21,0.12,-0.06
1.908535003662109,2,3,3,3,-9.68,1.48,1.11,0.36,0.08,-0.05
1.918534994125366,2,3,3,3,-9.82,1.52,1.1,0.4,0.05,-0.08
1.928534984588623,2,3,3,3,-9.82,1.52,1.12,0.26,0,-0.17
1.93853497505188,2,3,3,3,-9.82,1.52,1.12,0.26,0,-0.17
1.948534965515137,2,3,3,3,-9.720000000000001,1.53,1.11,0.18,-0.07000000000000001,-0.22
1.958534955978394,2,3,3,3,-9.57,1.53,1.12,0.15,0,-0.17
1.96853494644165,2,3,3,3,-9.630000000000001,1.52,1.18,0.18,0.05,-0.12
1.978534936904907,2,3,3,3,-9.699999999999999,1.51,1.2,0.28,0.05,-0.05
1.988534927368164,2,3,3,3,-9.699999999999999,1.51,1.2,0.28,0.05,-0.05
1.998534917831421,2,3,3,3,-9.710000000000001,1.51,1.2,0.4,0.06,-0.1
2.008534908294678,2,3,3,3,-9.69,1.53,1.05,0.32,0.01,-0.17
2.018534898757935,2,3,3,3,-9.640000000000001,1.53,1.11,0.27,0.06,-0.21
2.028534889221191,2,3,3,3,-9.65,1.56,1.15,0.25,0.05,-0.15
2.038534879684448,2,3,3,3,-9.65,1.56,1.15,0.25,0.05,-0.15
2.048535108566284,2,3,3,3,-9.630000000000001,1.61,1.21,0.22,0.06,-0.14
2.058535099029541,2,3,3,3,-9.67,1.62,1.09,0.17,-0.01,-0.04
2.068535089492798,2,3,3,3,-9.68,1.6,1.12,0.22,-0.08,-0.05
2.078535079956055,2,3,3,3,-9.68,1.6,1.12,0.21,-0.09,-0.09
2.088535070419312,2,3,3,3,-9.68,1.57,1.17,0.12,-0.1,-0.16
2.098535060882568,2,3,3,3,-9.67,1.59,1.24,0.04,-0.05,-0.21
2.108535051345825,2,3,3,3,-9.68,1.58,1.25,-0.04,-0.08,-0.23
2.118535041809082,2,3,3,3,-9.609999999999999,1.56,1.15,-0.05,-0.07000000000000001,-0.24
2.128535032272339,2,3,3,3,-9.65,1.54,1.19,-0.06,-0.06,-0.2
2.138535022735596,2,3,3,3,-9.65,1.56,1.22,-0.07000000000000001,-0.08,-0.19
2.148535013198853,2,3,3,3,-9.640000000000001,1.56,1.24,-0.1,-0.11,-0.14
2.158535003662109,2,3,3,3,-9.65,1.59,1.2,-0.09,-0.09,-0.13
2.168534994125366,2,3,3,3,-9.65,1.55,1.13,-0.16,-0.02,-0.14
2.178534984588623,2,3,3,3,-9.710000000000001,1.54,1.2,-0.29,-0.1,-0.22
2.18853497505188,2,3,3,3,-9.710000000000001,1.51,1.25,-0.29,-0.1,-0.22
2.198534965515137,2,3,3,3,-9.66,1.45,1.29,-0.29,-0.16,-0.26
2.208534955978394,2,3,3,3,-9.67,1.43,1.32,-0.46,-0.18,-0.22
2.21853494644165,2,3,3,3,-9.630000000000001,1.42,1.28,-0.4,-0.19,-0.15
2.229535102844238,2,3,3,3,-9.630000000000001,1.42,1.27,-0.32,-0.14,-0.16
2.239535093307495,2,3,3,3,-9.66,1.4,1.29,-0.32,-0.14,-0.16
2.249535083770752,2,3,3,3,-9.73,1.4,1.3,-0.29,-0.1,-0.17
2.259535074234009,2,3,3,3,-9.710000000000001,1.41,1.27,-0.24,-0.05,-0.15
2.269535064697266,2,3,3,3,-9.67,1.42,1.2,-0.28,0.03,-0.12
2.279535055160522,2,3,3,3,-9.66,1.44,1.26,-0.32,0.03,-0.04
2.289535045623779,2,3,3,3,-9.65,1.45,1.29,-0.32,0.03,-0.04
2.299535036087036,2,3,3,3,-9.65,1.46,1.27,-0.35,-0.01,0.02
2.309535026550293,2,3,3,3,-9.65,1.48,1.17,-0.4,0,0.01
2.31953501701355,2,3,3,3,-9.65,1.47,1.18,-0.51,0.04,-0.02
2.329535007476807,2,3,3,3,-9.640000000000001,1.48,1.21,-0.54,0.04,0.01
2.339534997940063,2,3,3,3,-9.6,1.47,1.24,-0.54,0.04,0.01
2.34953498840332,2,3,3,3,-9.66,1.37,1.34,-0.58,0.12,0.07000000000000001
2.359534978866577,2,3,3,3,-9.69,1.34,1.35,-0.6,0.14,0.06
2.369534969329834,2,3,3,3,-9.67,1.36,1.25,-0.36,0.12,0
2.379534959793091,2,3,3,3,-9.699999999999999,1.33,1.26,-0.25,0.13,-0.1
2.389534950256348,2,3,3,3,-9.76,1.3,1.28,-0.25,0.13,-0.1
2.399534940719604,2,3,3,3,-9.710000000000001,1.34,1.24,-0.09,0.13,-0.15
2.409534931182861,2,3,3,3,-9.710000000000001,1.38,1.22,-0.07000000000000001,0.16,-0.06
2.419534921646118,2,3,3,3,-9.710000000000001,1.42,1.09,-0.11,0.13,0.07000000000000001
2.429534912109375,2,3,3,3,-9.73,1.49,1.1,-0.1,0.04,0.17
2.439534902572632,2,3,3,3,-9.699999999999999,1.46,1.1,-0.1,0.04,0.17
2.449534893035889,2,3,3,3,-9.69,1.51,1.06,-0.07000000000000001,-0.05,0.3
2.459534883499146,2,3,3,3,-9.69,1.44,1.1,-0.35,0.01,0.26
2.469535112380981,2,3,3,3,-9.66,1.42,1.07,-0.52,-0.02,0.14
2.479535102844238,2,3,3,3,-9.58,1.38,1.11,-0.63,0,0.11
2.489535093307495,2,3,3,3,-9.550000000000001,1.31,1.16,-0.63,0,0.11
2.499535083770752,2,3,3,3,-9.56,1.17,1.25,-0.62,0.15,0.13
2.509535074234009,2,3,3,3,-9.609999999999999,1.14,1.17,-0.53,0.24,0.18
2.519535064697266,2,3,3,3,-9.69,1.08,1.09,-0.31,0.35,0.27
2.529535055160522,2,3,3,3,-9.779999999999999,1.06,1.14,-0.09,0.44,0.33
2.539535045623779,2,3,3,3,-9.880000000000001,1.12,1.07,0.23,0.39,0.3
2.549535036087036,2,3,3,3,-9.83,1.16,1.06,0.53,0.29,0.22
2.559535026550293,2,3,3,3,-9.76,1.2,1.08,0.59,0.14,0.1
2.56953501701355,2,3,3,3,-9.68,1.21,1.02,0.64,0.01,0.04
2.579535007476807,2,3,3,3,-9.65,1.21,1.18,0.68,-0.09,-0.06
2.589534997940063,2,3,3,3,-9.65,1.2,1.21,0.74,-0.2,-0.16
2.59953498840332,2,3,3,3,-9.630000000000001,1.23,1.27,0.87,-0.31,-0.26
2.609534978866577,2,3,3,3,-9.65,1.25,1.26,1.01,-0.32,-0.35
2.619534969329834,2,3,3,3,-9.66,1.35,1.08,1.21,-0.31,-0.42
2.629534959793091,2,3,3,3,-9.710000000000001,1.41,1.16,1.42,-0.26,-0.52
2.639534950256348,2,3,3,3,-9.720000000000001,1.44,1.15,1.5,-0.22,-0.5600000000000001
2.649534940719604,2,3,3,3,-9.710000000000001,1.5,1.17,1.29,-0.17,-0.52
2.659534931182861,2,3,3,3,-9.65,1.61,1.17,1.29,-0.17,-0.52
2.669534921646118,2,3,3,3,-9.630000000000001,1.65,1.13,1.03,-0.17,-0.46
2.679534912109375,2,3,3,3,-9.630000000000001,1.72,1.2,0.65,-0.3,-0.35
2.689534902572632,2,3,3,3,-9.6,1.71,1.22,0.55,-0.38,-0.36
2.699534893035889,2,3,3,3,-9.65,1.69,1.2,0.46,-0.3,-0.44
2.709534883499146,2,3,3,3,-9.619999999999999,1.68,1.19,0.27,-0.23,-0.51
2.719535112380981,2,3,3,3,-9.630000000000001,1.66,1.13,0.01,-0.13,-0.57
2.729535102844238,2,3,3,3,-9.65,1.58,1.23,-0.19,-0.05,-0.62
2.739535093307495,2,3,3,3,-9.65,1.54,1.28,-0.31,-0.05,-0.6
2.749535083770752,2,3,3,3,-9.630000000000001,1.51,1.3,-0.4,-0.06,-0.6
2.759535074234009,2,3,3,3,-9.640000000000001,1.5,1.33,-0.47,-0.13,-0.61
2.769535064697266,2,3,3,3,-9.640000000000001,1.49,1.22,-0.49,-0.24,-0.59
2.779535055160522,2,3,3,3,-9.68,1.46,1.25,-0.52,-0.29,-0.57
2.789535045623779,2,3,3,3,-9.69,1.44,1.29,-0.51,-0.38,-0.63
2.799535036087036,2,3,3,3,-9.69,1.42,1.35,-0.49,-0.48,-0.68
2.809535026550293,2,3,3,3,-9.67,1.36,1.27,-0.45,-0.54,-0.7
2.81953501701355,2,3,3,3,-9.710000000000001,1.31,1.22,-0.5,-0.48,-0.79
2.829535007476807,2,3,3,3,-9.75,1.26,1.29,-0.54,-0.46,-0.86
2.839534997940063,2,3,3,3,-9.69,1.24,1.35,-0.5600000000000001,-0.5,-0.87
2.84953498840332,2,3,3,3,-9.609999999999999,1.25,1.39,-0.54,-0.44,-0.85
2.859534978866577,2,3,3,3,-9.58,1.22,1.38,-0.51,-0.34,-0.79
2.869534969329834,2,3,3,3,-9.619999999999999,1.18,1.34,-0.38,-0.19,-0.78
2.879534959793091,2,3,3,3,-9.81,1.12,1.45,-0.25,-0.26,-0.74
2.889534950256348,2,3,3,3,-9.789999999999999,1.14,1.39,0,-0.44,-0.74
2.899534940719604,2,3,3,3,-9.75,1.16,1.35,0.2,-0.44,-0.66
2.909534931182861,2,3,3,3,-9.68,1.17,1.33,0.2,-0.3,-0.5600000000000001
2.919534921646118,2,3,3,3,-9.710000000000001,1.23,1.24,0.13,-0.28,-0.45
2.929534912109375,2,3,3,3,-9.69,1.26,1.31,0.07000000000000001,-0.35,-0.36
2.939534902572632,2,3,3,3,-9.67,1.32,1.27,0.18,-0.49,-0.35
2.949534893035889,2,3,3,3,-9.69,1.32,1.25,0.33,-0.42,-0.41
2.959534883499146,2,3,3,3,-9.699999999999999,1.33,1.27,0.28,-0.35,-0.48
2.969535112380981,2,3,3,3,-9.68,1.32,1.22,0.24,-0.29,-0.52
2.979535102844238,2,3,3,3,-9.640000000000001,1.32,1.24,0.2,-0.22,-0.53
2.989535093307495,2,3,3,3,-9.65,1.32,1.26,0.1,-0.17,-0.54
2.999535083770752,2,3,3,3,-9.66,1.3,1.36,0.04,-0.18,-0.53
3.009535074234009,2,3,3,3,-9.65,1.3,1.33,0.03,-0.25,-0.47
3.019535064697266,2,3,3,3,-9.65,1.28,1.19,-0.02,-0.25,-0.42
3.029535055160522,2,3,3,3,-9.699999999999999,1.27,1.25,-0.12,-0.17,-0.39
3.039535045623779,2,3,3,3,-9.68,1.29,1.32,-0.14,-0.19,-0.39
3.049535036087036,2,3,3,3,-9.67,1.31,1.27,0.01,-0.16,-0.35
3.059535026550293,2,3,3,3,-9.710000000000001,1.29,1.3,0.07000000000000001,-0.02,-0.32
3.06953501701355,2,3,3,3,-9.76,1.28,1.13,-0.03,-0.03,-0.25
3.079535007476807,2,3,3,3,-9.720000000000001,1.28,1.19,-0.1,0.02,-0.15
3.089534997940063,2,3,3,3,-9.699999999999999,1.29,1.24,-0.23,0.04,-0.08
3.09953498840332,2,3,3,3,-9.66,1.33,1.28,-0.28,-0.04,-0.01
3.109534978866577,2,3,3,3,-9.66,1.3,1.24,-0.24,-0.13,0.02
3.119534969329834,2,3,3,3,-9.720000000000001,1.27,1.17,-0.23,-0.25,-0.06
3.129534959793091,2,3,3,3,-9.75,1.27,1.25,-0.31,-0.31,-0.22
3.139534950256348,2,3,3,3,-9.75,1.27,1.26,-0.43,-0.46,-0.37
3.149534940719604,2,3,3,3,-9.619999999999999,1.29,1.26,-0.44,-0.49,-0.43
3.159534931182861,2,3,3,3,-9.6,1.28,1.26,-0.48,-0.4,-0.42
3.169534921646118,2,3,3,3,-9.609999999999999,1.22,1.23,-0.43,-0.3,-0.47
3.179534912109375,2,3,3,3,-9.68,1.19,1.25,-0.39,-0.24,-0.55
3.189534902572632,2,3,3,3,-9.800000000000001,1.15,1.33,-0.43,-0.26,-0.5600000000000001
3.199534893035889,2,3,3,3,-9.77,1.15,1.37,-0.41,-0.26,-0.5600000000000001
3.209534883499146,2,3,3,3,-9.74,1.16,1.34,-0.34,-0.32,-0.47
3.229535102844238,2,3,3,3,-9.710000000000001,1.2,1.31,-0.15,-0.27,-0.27
3.239535093307495,2,3,3,3,-9.67,1.23,1.38,-0.2,-0.36,-0.18
3.250535011291504,2,3,3,3,-9.65,1.26,1.31,0.04,-0.4,-0.14
3.260535001754761,2,3,3,3,-9.710000000000001,1.38,1.23,0.22,-0.22,-0.15
3.270534992218018,2,3,3,3,-9.75,1.33,1.17,0.01,-0.06,-0.17
3.280534982681274,2,3,3,3,-9.699999999999999,1.31,1.2,-0.25,0.09,-0.19
3.290534973144531,2,3,3,3,-9.65,1.29,1.23,-0.49,0.22,-0.17
3.300534963607788,2,3,3,3,-9.59,1.19,1.35,-0.68,0.31,-0.14
3.310534954071045,2,3,3,3,-9.550000000000001,1.15,1.35,-0.65,0.36,-0.03
3.320534944534302,2,3,3,3,-9.56,1.14,1.25,-0.5,0.36,0.09
3.330534934997559,2,3,3,3,-9.619999999999999,1.11,1.29,-0.4,0.41,0.16
3.340534925460815,2,3,3,3,-9.800000000000001,1.07,1.49,-0.59,0.25,0.2
3.350534915924072,2,3,3,3,-9.720000000000001,1.04,1.4,-0.48,-0.16,0.26
3.360534906387329,2,3,3,3,-9.630000000000001,0.98,1.28,-0.18,-0.4,0.21
3.370534896850586,2,3,3,3,-9.59,0.97,1.15,-0.13,-0.27,0.14
3.380534887313843,2,3,3,3,-9.65,0.89,1.41,-0.45,-0.13,0.02
3.3905348777771,2,3,3,3,-9.619999999999999,0.89,1.43,-0.68,-0.12,-0.08
3.400535106658936,2,3,3,3,-9.68,0.93,1.49,-0.62,-0.01,-0.19
3.410535097122192,2,3,3,3,-9.83,0.9,1.65,-0.51,0.07000000000000001,-0.27
3.420535087585449,2,3,3,3,-9.949999999999999,0.67,1.57,0,0.08,-0.26
3.430535078048706,2,3,3,3,-9.92,0.6,1.56,0.42,0.18,-0.16
3.440535068511963,2,3,3,3,-9.84,0.52,1.58,0.55,0.36,0.03
3.45053505897522,2,3,3,3,-9.800000000000001,0.72,1.67,0.61,0.5,0.39
3.460535049438477,2,3,3,3,-9.890000000000001,0.92,1.65,0.54,0.46,0.77
3.470535039901733,2,3,3,3,-9.91,1.09,1.51,0.59,-0.11,1.14
3.48053503036499,2,3,3,3,-9.76,1.18,1.28,0.95,-0.6899999999999999,1.38
3.490535020828247,2,3,3,3,-9.67,1.4,1.27,1.31,-0.74,1.38
3.500535011291504,2,3,3,3,-9.58,1.45,1.31,1.03,-0.62,1.28
3.510535001754761,2,3,3,3,-9.449999999999999,1.56,1.33,0.92,-0.57,1.17
3.520534992218018,2,3,3,3,-9.359999999999999,1.62,1.21,1,-0.31,0.98
3.530534982681274,2,3,3,3,-9.619999999999999,1.69,1.26,0.96,0.08,0.73
3.540534973144531,2,3,3,3,-9.69,1.63,1.23,0.65,0.23,0.49
3.550534963607788,2,3,3,3,-9.699999999999999,1.54,1.3,0.32,0.35,0.33
3.560534954071045,2,3,3,3,-9.66,1.37,1.31,-0.16,0.5,0.26
3.570534944534302,2,3,3,3,-9.630000000000001,1.11,1.31,-0.55,0.63,0.3
3.580534934997559,2,3,3,3,-9.67,1,1.44,-0.83,0.63,0.4
3.590534925460815,2,3,3,3,-9.73,0.9399999999999999,1.52,-0.91,0.42,0.48
3.600534915924072,2,3,3,2,-9.75,0.93,1.56,-0.82,0.11,0.47
3.610534906387329,2,3,3,2,-9.720000000000001,0.96,1.43,-0.55,-0.18,0.44
3.620534896850586,2,3,3,2,-9.74,0.98,1.38,-0.13,-0.16,0.38
3.630534887313843,2,3,3,2,-9.789999999999999,1,1.42,0.22,0.08,0.34
3.6405348777771,2,3,3,2,-9.77,1.03,1.4,0.6,0.25,0.36
3.650535106658936,2,3,3,2,-9.73,1.2,1.26,0.85,0.45,0.45
3.660535097122192,2,3,3,2,-9.710000000000001,1.32,1.24,0.8100000000000001,0.63,0.58
3.670535087585449,2,3,3,2,-9.69,1.44,1.15,0.63,0.55,0.71
3.680535078048706,2,3,3,2,-9.65,1.61,1.2,0.48,0.29,0.79
3.690535068511963,2,3,3,2,-9.68,1.62,1.31,0.27,0.13,0.7
3.70053505897522,2,3,3,2,-9.69,1.62,1.33,0.06,-0.19,0.53
3.710535049438477,2,3,3,2,-9.65,1.62,1.31,0.03,-0.31,0.33
3.720535039901733,2,3,3,2,-9.539999999999999,1.55,1.18,-0.05,-0.3,0.19
3.73053503036499,2,3,3,2,-9.51,1.56,1.25,-0.18,-0.15,0.12
3.740535020828247,2,3,3,2,-9.49,1.56,1.26,-0.22,0.1,0.14
3.750535011291504,2,3,3,2,-9.58,1.58,1.27,-0.33,0.23,0.23
3.760535001754761,2,3,3,2,-9.66,1.54,1.15,-0.43,0.23,0.33
3.770534992218018,2,3,3,2,-9.640000000000001,1.54,1.05,-0.39,0.28,0.42
3.780534982681274,2,3,3,2,-9.619999999999999,1.53,1.1,-0.49,0.38,0.49
3.790534973144531,2,3,3,2,-9.609999999999999,1.48,1.22,-0.64,0.53,0.5
3.800534963607788,2,3,3,2,-9.58,1.53,1.28,-0.67,0.5,0.47
3.810534954071045,2,3,3,2,-9.6,1.52,1.23,-0.59,0.37,0.41
3.820534944534302,2,3,3,2,-9.630000000000001,1.48,1.14,-0.57,0.21,0.33
3.830534934997559,2,3,3,2,-9.640000000000001,1.4,1.16,-0.71,0.07000000000000001,0.19
3.840534925460815,2,3,3,2,-9.76,1.31,1.29,-0.71,-0.02,0.02
3.850534915924072,2,3,3,2,-9.76,1.23,1.29,-0.62,-0.15,-0.13
3.860534906387329,2,3,3,2,-9.77,1.19,1.28,-0.49,-0.19,-0.23
3.870534896850586,2,3,3,2,-9.720000000000001,1.19,1.32,-0.43,-0.1,-0.29
3.880534887313843,2,3,3,2,-9.699999999999999,1.16,1.36,-0.31,-0.09,-0.21
3.8905348777771,2,3,3,2,-9.73,1.2,1.39,-0.06,-0.13,-0.12
3.900535106658936,2,3,3,2,-9.75,1.23,1.38,0.06,-0.32,0.02
3.910535097122192,2,3,3,2,-9.720000000000001,1.37,1.38,0.21,-0.49,0.09
3.920535087585449,2,3,3,2,-9.68,1.4,1.34,0.31,-0.59,0.15
3.930535078048706,2,3,3,2,-9.69,1.46,1.41,0.34,-0.67,0.2
3.940535068511963,2,3,3,2,-9.69,1.56,1.45,0.34,-0.75,0.22
3.95053505897522,2,3,3,2,-9.69,1.56,1.45,0.32,-0.85,0.32
3.960535049438477,2,3,3,2,-9.48,1.81,1.26,0.34,-0.75,0.44
3.970535039901733,2,3,3,2,-9.449999999999999,1.89,1.19,0.21,-0.5,0.5
3.98053503036499,2,3,3,2,-9.390000000000001,1.94,1.19,-0.21,-0.41,0.59
3.990535020828247,2,3,3,2,-9.42,2.02,1.32,-0.54,-0.39,0.68
4.000535011291504,2,3,3,2,-9.42,2.02,1.32,-0.87,-0.36,0.68
4.010535001754761,2,3,3,2,-9.49,1.99,1.33,-0.98,-0.38,0.61
4.020534992218018,2,3,3,2,-9.609999999999999,1.87,1.23,-1.16,-0.28,0.51
4.030534982681274,2,3,3,2,-9.539999999999999,1.61,1.32,-1.4,-0.24,0.48
4.040534973144531,2,3,3,2,-9.380000000000001,1.49,1.27,-1.36,-0.12,0.58
4.050534963607788,2,3,3,2,-9.380000000000001,1.49,1.27,-1.05,0.24,0.74
4.060534954071045,2,3,3,2,-9.289999999999999,1.42,1.31,-0.78,0.59,0.88
4.070534944534302,2,3,3,2,-9.08,1.41,1.36,-0.59,0.83,1.04
4.080534934997559,2,3,3,2,-8.960000000000001,1.48,1.4,-0.46,0.9399999999999999,1.24
4.090534925460815,2,3,3,2,-8.73,1.55,1.35,-0.28,0.97,1.45
4.100534915924072,2,3,3,2,-8.73,1.55,1.35,-0.28,0.97,1.45
4.130534887313843,2,3,3,2,-7.97,1.87,1,0.08,1.34,1.78
4.1405348777771,2,3,3,2,-7.97,1.88,1.22,0.3,1.63,1.83
4.150535106658936,2,3,3,2,-7.97,1.88,1.22,0.18,1.83,1.88
4.160535097122192,2,3,3,2,-8.050000000000001,1.9,1.24,0.25,1.68,2.07
4.170535087585449,2,3,3,2,-7.99,1.94,0.89,0.58,1.11,2.41
4.180535078048706,2,3,3,2,-7.73,1.86,0.6,0.86,0.57,2.99
4.190535068511963,2,3,3,2,-7.68,1.8,0.74,0.85,0.49,3.55
4.20053505897522,2,3,3,2,-7.68,1.8,0.74,0.85,0.49,3.55
4.210535049438477,2,3,3,2,-7.7,1.79,0.96,0.47,0.48,3.95
4.220535039901733,2,3,3,2,-7.28,2.1,0.5,1.46,-0.59,4.17
4.23053503036499,2,3,3,2,-7.05,2.11,0.32,2.24,-1.08,4.32
4.240535020828247,2,3,3,2,-6.85,2.06,0.55,1.88,-0.7,4.54
4.250535011291504,2,3,3,2,-6.85,2.06,0.55,1.88,-0.7,4.54
4.260535001754761,2,3,3,2,-6.74,1.93,0.83,0.24,0.04,4.83
4.270534992218018,2,3,3,2,-6.47,1.82,0.87,-0.51,0.28,5.05
4.281534910202026,2,3,3,2,-6.59,1.64,0.9,-1,0.57,4.54
4.291534900665283,2,3,3,2,-6.87,1.44,1.32,-2.02,0.36,3.63
4.30153489112854,2,3,3,2,-7.55,1.3,2.09,-2.02,0.36,3.63
4.311534881591797,2,3,3,2,-7.75,1.46,2.28,-2.4,-0.24,2.63
4.321535110473633,2,3,3,2,-8.35,1.69,2.2,-0.62,-0.82,1.04
4.33153510093689,2,3,3,2,-9.1,1.86,1.86,-0.2,-0.33,0.63
4.341535091400146,2,3,3,2,-11.3,1.65,2.12,-0.71,0.77,0.39
4.351535081863403,2,3,3,2,-12.1,1.29,2.29,-0.71,0.77,0.39
4.36153507232666,2,3,3,2,-12.63,1.33,2.25,-0.36,1.62,0.71
4.371535062789917,2,3,3,2,-12.62,1.33,1.63,1.83,3.25,2.66
4.381535053253174,2,3,3,2,-12.18,1.63,0.57,1.05,3.53,3.9
4.391535043716431,2,3,3,2,-12.17,2.02,0.53,0.25,2.48,4.75
4.401535034179688,2,3,3,2,-11.95,2.4,0.35,0.25,2.48,4.75
4.411535024642944,2,3,3,2,-11.68,2.47,0.49,-0.5,0.44,5.19
4.421535015106201,2,3,3,2,-10.92,2.43,1.37,-1.34,-2.61,4.41
4.431535005569458,2,3,3,2,-10.56,2.56,1.56,-0.47,-3.24,3.67
4.441534996032715,2,3,3,2,-10.08,2.65,1.66,0.27,-2.79,2.92
4.451534986495972,2,3,3,2,-9.85,2.7,1.89,0.27,-2.79,2.92
4.461534976959229,2,3,3,2,-9.85,2.61,1.64,0.8,-1.49,2.41
4.471534967422485,2,3,3,2,-9.76,2.67,1.3,1.87,0.96,2.14
4.481534957885742,2,3,3,2,-9.58,2.83,0.84,1.83,1.62,2.44
4.491534948348999,2,3,3,2,-9.300000000000001,3.23,0.61,1.38,1.99,2.89
4.501534938812256,2,3,3,2,-9.199999999999999,3.37,0.6,1.38,1.99,2.89
4.511534929275513,2,3,3,2,-9.06,3.34,0.64,0.5600000000000001,1.72,3.36
4.52153491973877,2,3,3,2,-8.949999999999999,3.19,0.84,-1.05,0.42,4.08
4.531534910202026,2,3,3,2,-8.630000000000001,2.57,1.05,-1.16,-0.01,4.04
4.541534900665283,2,3,3,2,-8.41,2.43,1.26,-1.04,-0.16,3.84
4.55153489112854,2,3,3,2,-8.23,2.36,1.45,-1.04,-0.16,3.84
4.561534881591797,2,3,3,2,-8.029999999999999,2.51,1.54,-0.9,-0.1,3.49
4.571535110473633,2,3,3,2,-7.45,2.94,0.9,0.67,0.32,3.14
4.58153510093689,2,3,3,2,-7.36,3.17,0.61,1.71,0.97,3.31
4.591535091400146,2,3,3,2,-7.62,3.27,0.5600000000000001,1.88,1.45,3.53
4.601535081863403,2,3,3,2,-8.26,3.24,0.47,1.88,1.45,3.53
4.61153507232666,2,3,3,2,-9.75,2.75,0.6899999999999999,0.8,1.69,3.4
4.621535062789917,2,3,3,2,-10.3,2.3,1.34,-3.29,1.91,2.25
4.631535053253174,2,3,3,2,-10.93,1.89,1.7,-4.36,1.85,0.93
4.641535043716431,2,3,3,2,-11.53,1.55,2.02,-4.22,1.54,-0.91
4.651535034179688,2,3,3,2,-12.49,1.36,2.53,-4.22,1.54,-0.91
4.661535024642944,2,3,3,2,-13.19,1.31,2.85,-3,1.3,-3.03
4.671535015106201,2,3,3,2,-14.31,1.72,3.3,2.79,1.3,-5.98
4.681535005569458,2,3,3,2,-17.62,2.99,3.92,5.82,0.6899999999999999,-5.78
4.691534996032715,2,3,3,2,-19.16,3.48,3.07,5.82,0.6899999999999999,-5.78
4.701534986495972,2,3,3,2,-21.15,3.9,2.65,7.36,0.17,-4.27
4.711534976959229,2,3,3,2,-22.16,4.37,2.03,5.58,0.97,-2.79
4.721534967422485,2,3,3,2,-22.53,4.75,2.03,2.99,2.78,-1.03
4.731534957885742,2,3,3,2,-22.07,4.79,2.82,0.46,4.19,0.54
4.741534948348999,2,3,3,2,-21.96,4.66,4.09,-1.8,4.05,0.68
4.751534938812256,2,3,3,2,-22.2,4.2,4.96,-3.08,2.44,-0.79
4.761534929275513,2,3,3,2,-23.14,2.74,5.41,-3.63,0.65,-3.74
4.77153491973877,2,3,3,2,-23.33,1.45,5.34,-4.24,0.38,-6.89
4.781534910202026,2,3,3,2,-23.83,0,4.94,-4.81,1.67,-9.19
4.791534900665283,2,3,3,2,-24.93,-0.92,4.83,-3.33,3.5,-10.85
4.80153489112854,2,3,3,2,-27.95,-2.33,3.33,-0.34,5.1,-11.71
4.811534881591797,2,3,3,2,-28.31,-1.54,2.99,3.67,5.39,-11.38
4.821535110473633,2,3,3,2,-27.48,0.06,2.76,6.5,3.87,-9.83
4.83153510093689,2,3,3,2,-25.11,1.93,2.39,8.01,1.13,-7.5
4.841535091400146,2,3,3,2,-19.47,6.54,1.35,9.65,-1.42,-5.41
4.851535081863403,2,3,3,2,-16.32,7.62,-0.33,11.14,-3.71,-2.71
4.86153507232666,2,3,3,2,-12.84,8.07,-2.65,11.89,-5.36,0.86
4.871535062789917,2,3,3,2,-9.539999999999999,8.859999999999999,-3.95,13.06,-4.5,4.09
4.881535053253174,2,3,3,2,-3.47,8.27,-5.11,12.49,-0.52,5.92
4.891535043716431,2,3,3,2,-0.36,7.99,-4.03,10.28,3.88,6.01
4.901535034179688,2,3,3,2,3.08,8.08,-2.35,6.52,5.54,4.9
4.911535024642944,2,3,3,2,6.85,10.49,-2.62,2.12,2.4,4.62
4.921535015106201,2,3,3,2,7.41,12.58,-5.05,2.54,-1.09,6.53
4.931535005569458,2,3,3,2,6.82,12.86,-8.390000000000001,7.39,-2.66,7.57
4.941534996032715,2,3,3,2,6.28,11.29,-9.35,9.82,-5.28,6.89
4.951534986495972,2,3,3,2,3.88,5.1,-4.97,5.17,-6.79,5.18
4.961534976959229,2,3,3,2,2.36,3.29,-2.26,-16.75,-0.8,-3.51
4.971534967422485,2,3,3,2,1.34,1.92,-0.54,-16.75,-0.8,-3.51
4.981534957885742,2,3,3,2,1.38,1.66,1.21,-22.62,-2.69,-7.96
4.991534948348999,2,3,3,2,3.23,-0.6,1.82,-26.4,-4.22,-13.6
5.001534938812256,2,3,3,2,2.88,-1.68,1.47,-24.68,-3.27,-13.64
5.011534929275513,2,3,3,2,1.43,-2.95,0.72,-22.25,-2.85,-12.96
5.02153491973877,2,3,3,2,0.49,-3.7,0.1,-18.47,-2.58,-11.67
5.031534910202026,2,3,3,2,-1.46,-4.5,0.51,-13.24,-1.15,-9.390000000000001
5.041534900665283,2,3,3,2,-2.39,-4.06,1.23,-6.07,0.43,-7.09
5.05153489112854,2,3,3,2,-3.27,-3.62,1.58,0.2,1.34,-4.71
5.061534881591797,2,3,3,2,-3.85,-3.68,0.6899999999999999,4.23,3.59,-2.31
5.071535110473633,2,3,3,2,-5.16,-3.36,0.41,4.16,5.81,0.34
5.08153510093689,2,3,3,2,-5.04,-3.32,0.48,3.01,3.89,3.74
5.091535091400146,2,3,3,2,-3.78,-2.18,0.44,3.91,0.67,6.86
5.101535081863403,2,3,3,2,-0.44,-0.68,0.49,4.39,-1.25,8.699999999999999
5.11153507232666,2,3,3,2,1.15,-0.35,0.26,6.49,-1.91,9.15
5.121535062789917,2,3,3,2,2.3,-0.39,0.03,9.1,-1.28,9.07
5.131535053253174,2,3,3,2,2.81,-0.15,-0.06,10.71,-0.32,9.23
5.141535043716431,2,3,3,2,3.04,0.32,-0.24,11.16,0.38,9.300000000000001
5.151535034179688,2,3,3,2,2.67,0.42,-0.2,10.86,0.87,8.890000000000001
5.161535024642944,2,3,3,3,2.02,0.36,-0.11,9.83,0.89,7.58
5.171535015106201,2,3,3,3,1.39,0.02,0.09,8.390000000000001,0.19,5.43
5.181535005569458,2,3,3,3,0.92,-0.21,0.3,7.07,-0.61,2.83
5.191534996032715,2,3,3,3,0.66,-0.11,0.46,5.8,-0.97,0.79
5.201534986495972,2,3,3,3,0.27,0.13,0.58,4.33,-1.4,-0.74
5.211534976959229,2,3,3,3,-0.18,0.37,0.55,2.86,-2.74,-1.6
5.221534967422485,2,3,3,3,-0.79,1.16,-0.27,1.57,-4.17,-1.81
5.231534957885742,2,3,3,3,-1.03,1.33,-0.5,-0.26,-4.44,-1.58
5.241534948348999,2,3,3,3,-0.66,1.22,-1.04,-1.53,-4.01,-1.05
5.251534938812256,2,3,3,3,0.11,1.17,-1.05,-1.56,-2.42,-0.44
5.261534929275513,2,3,3,3,0,2.5,0.27,-0.33,-2.35,-0.21
5.27153491973877,2,3,3,3,-0.04,3.16,0.44,2.01,-2.24,-0.66
5.281534910202026,2,3,3,3,-0.83,3.73,0.43,4.65,-1.64,-1.85
5.291534900665283,2,3,3,3,-4.49,8.1,1.64,7.82,-1.96,-3.1
5.302535057067871,2,3,3,3,-7.03,10.57,-0.11,10.03,-4.26,-5.25
5.312535047531128,2,3,3,3,-11.88,13.32,-1.07,8.17,-4.62,-8.92
5.322535037994385,2,3,3,3,-22.33,16.02,1.08,-4.77,-8.35,-13.16
5.332535028457642,2,3,3,3,-38.17,18.76,-1.44,-31.29,-18.31,-23.13
5.342535018920898,2,3,3,3,-33.53,1.63,-6.08,-54.62,-3.64,-26.96
5.352535009384155,2,3,3,3,-27.08,-13.84,0.41,-57.13,7.49,-15.6
5.362534999847412,2,3,3,3,-30.1,-20.77,9.09,-35.4,-4.62,-10.79
5.372534990310669,2,3,3,3,-35.64,-12.45,9.01,-2.58,6.72,-15.62
5.382534980773926,2,3,3,3,-23.8,-5.52,7.62,21.61,10.7,-8.029999999999999
5.392534971237183,2,3,3,3,-19.52,-2.94,6.5,25.79,5.12,-0.82
5.402534961700439,2,3,3,3,-19.42,-1.96,4.74,24.13,0.36,-0.61
5.412534952163696,2,3,3,3,-21.68,-0.35,0.61,20.36,-0.42,-1.08
5.422534942626953,2,3,3,3,-22.14,0.51,1.1,13.4,0.07000000000000001,0.84
5.43253493309021,2,3,3,3,-20.95,1.96,1.97,9.33,-2.46,4.67
5.442534923553467,2,3,3,3,-18.17,3.66,2.68,5.91,-6.33,7.26
5.452534914016724,2,3,3,3,-11.97,4.89,4.45,2.79,-6.08,7.15
5.46253490447998,2,3,3,3,-10.92,5.02,4.76,1.54,-2.99,4.9
5.472534894943237,2,3,3,3,-11.42,4.76,4.04,1.65,-1.05,1.98
5.482534885406494,2,3,3,3,-12.41,4.15,3.16,1.44,-0.15,-0.6899999999999999
5.492534875869751,2,3,3,3,-13.7,2.14,2.6,0.33,0.2,-1.93
5.502535104751587,2,3,3,3,-13.76,1.52,2.09,-0.64,0.09,-1.88
5.512535095214844,2,3,3,3,-13.31,1.21,1.42,-1.75,0.87,-1.4
5.522535085678101,2,3,3,3,-11.8,1.11,1.02,-3.05,2.56,-0.73
5.532535076141357,2,3,3,3,-11.1,0.95,0.96,-4.25,3.85,0.34
5.542535066604614,2,3,3,3,-10.45,0.74,1,-4.91,4.54,1.48
5.552535057067871,2,3,3,3,-10,0.64,1.06,-4.87,4.52,2.47
5.562535047531128,2,3,3,3,-9.359999999999999,0.62,1.19,-4.62,3.6,3.16
5.572535037994385,2,3,3,3,-8.75,0.64,1.4,-4.35,2.57,3.69
5.582535028457642,2,3,3,3,-8.1,0.65,1.41,-3.55,1.51,4.02
5.592535018920898,2,3,3,3,-7.62,0.87,1.54,-2.51,1.11,4.1
5.602535009384155,2,3,3,3,-6.96,1.21,1.15,-1.3,0.98,3.91
5.612534999847412,2,3,3,3,-6.97,1.04,1.17,-0.32,1.23,3.51
5.622534990310669,2,3,3,3,-7.05,1.31,1.1,0.39,2.1,3.1
5.632534980773926,2,3,3,3,-7.06,1.37,0.62,0.85,1.42,2.37
5.642534971237183,2,3,3,3,-6.69,1.24,0.38,1.03,0.51,1.44
5.652534961700439,2,3,3,3,-6.73,1.21,0.45,0.54,-0.47,0.4
5.662534952163696,2,3,3,3,-6.67,1.25,0.49,0.23,-1.73,-0.49
5.672534942626953,2,3,3,3,-6.71,1.31,0.64,-0.2,-2.01,-1.26
5.68253493309021,2,3,3,3,-7.34,1.31,1.04,-0.76,-1.75,-2.02
5.692534923553467,2,3,3,3,-7.59,1.25,1.25,-0.92,-1.65,-2.66
5.702534914016724,2,3,3,3,-7.85,1.23,1.4,-0.49,-1.57,-3.22
5.71253490447998,2,3,3,3,-8.279999999999999,1.12,1.36,0.16,-1.44,-3.49
5.722534894943237,2,3,3,3,-8.369999999999999,1.01,1.09,0.66,-1.35,-3.52
5.732534885406494,2,3,3,3,-8.4,1.03,0.91,1.05,-1.06,-3.37
5.742534875869751,2,3,3,3,-8.44,1.13,0.98,0.87,-0.79,-2.8
5.752535104751587,2,3,3,3,-8.77,1.11,1.08,0.62,-0.79,-2.14
5.762535095214844,2,3,3,3,-9.06,1.02,1.31,0.22,-0.73,-1.6
5.772535085678101,2,3,3,3,-9.41,0.86,1.54,-0.19,-0.74,-1.22
5.782535076141357,2,3,3,3,-9.58,0.73,1.49,-0.03,-1.22,-0.97
5.792535066604614,2,3,3,3,-9.52,0.65,1.43,0.53,-1.37,-0.92
5.802535057067871,2,3,3,3,-9.720000000000001,0.63,1.74,0.47,-1.06,-1.12
5.812535047531128,2,3,3,3,-9.85,0.63,2,0.46,-1.03,-1.36
5.822535037994385,2,3,3,3,-9.9,0.7,1.99,1.27,-1.36,-1.43
5.832535028457642,2,3,3,3,-9.859999999999999,0.9,1.7,2.12,-1.17,-1.51
5.842535018920898,2,3,3,3,-9.76,0.93,1.63,2.3,-0.64,-1.48
5.852535009384155,2,3,3,3,-9.710000000000001,1.01,1.57,2.06,-0.19,-1.32
5.862534999847412,2,3,3,3,-9.720000000000001,1.11,1.52,1.67,-0.02,-1.15
5.872534990310669,2,3,3,3,-9.74,1.24,1.52,1.08,-0.18,-0.96
5.882534980773926,2,3,3,3,-9.699999999999999,1.2,1.4,0.45,-0.59,-0.89
5.892534971237183,2,3,3,3,-9.640000000000001,1.18,1.35,0.05,-0.9,-0.95
5.902534961700439,2,3,3,3,-9.550000000000001,1.07,1.7,-0.37,-0.97,-1.19
5.912534952163696,2,3,3,3,-9.49,0.98,1.89,-0.91,-1.07,-1.43
5.922534942626953,2,3,3,3,-9.380000000000001,0.86,1.9,-1.13,-1.14,-1.59
5.93253493309021,2,3,3,3,-9.34,0.8,1.84,-1.03,-1.13,-1.7
5.942534923553467,2,3,3,3,-9.390000000000001,0.68,1.88,-0.96,-0.87,-1.76
5.952534914016724,2,3,3,3,-9.43,0.63,1.77,-0.92,-0.7,-1.68
5.96253490447998,2,3,3,3,-9.52,0.59,1.74,-0.73,-0.51,-1.47
5.992534875869751,2,3,3,3,-10.18,0.71,1.82,-0.32,0.08,-0.72
6.002535104751587,2,3,3,3,-10.26,0.79,1.88,-0.19,-0.14,-0.53
6.012535095214844,2,3,3,3,-10.3,0.87,1.87,0.04,-0.48,-0.43
6.022535085678101,2,3,3,3,-10.16,1.01,1.73,0.1,-0.76,-0.33
6.032535076141357,2,3,3,3,-9.970000000000001,1,1.61,-0.01,-0.91,-0.21
6.042535066604614,2,3,3,3,-9.74,0.95,1.73,-0.24,-0.89,-0.16
6.052535057067871,2,3,3,3,-9.539999999999999,0.9,1.82,-0.55,-0.91,-0.16
6.062535047531128,2,3,3,3,-9.300000000000001,0.88,2.06,-0.6899999999999999,-0.96,-0.12
6.072535037994385,2,3,3,3,-9.25,0.99,2.18,-0.67,-1.06,-0.08
6.082535028457642,2,3,3,3,-9.199999999999999,0.97,2.03,-0.58,-1.06,-0.14
6.092535018920898,2,3,3,3,-8.98,0.97,1.78,-0.04,-0.77,-0.1
6.102535009384155,2,3,3,3,-9.08,0.98,1.69,0.43,-0.05,0.09
6.112534999847412,2,3,3,3,-9.18,1.09,1.67,0.61,0.64,0.34
6.122534990310669,2,3,3,3,-9.279999999999999,1.1,1.58,0.59,0.85,0.59
6.132534980773926,2,3,3,3,-9.42,1.29,1.4,0.43,0.77,0.84
6.142534971237183,2,3,3,3,-9.48,1.4,1.43,0.04,0.66,0.99
6.152534961700439,2,3,3,3,-9.460000000000001,1.45,1.47,-0.35,0.34,1.02
6.162534952163696,2,3,3,3,-9.460000000000001,1.45,1.47,-0.62,0.09,1
6.172534942626953,2,3,3,3,-9.41,1.45,1.47,-0.8100000000000001,0,0.87
6.18253493309021,2,3,3,3,-9.18,1.24,1.68,-0.98,0.06,0.74
6.192534923553467,2,3,3,3,-9.19,1.27,1.84,-1.15,0.17,0.57
6.202534914016724,2,3,3,3,-9.220000000000001,1.35,1.93,-1.11,0.16,0.47
6.21253490447998,2,3,3,3,-9.220000000000001,1.35,1.93,-0.84,0.06,0.39
6.262535095214844,2,3,3,3,-9.08,1.48,1.61,-1.55,0.37,0.58
6.272535085678101,2,3,3,3,-9.119999999999999,1.6,1.61,-1.55,0.37,0.58
6.282535076141357,2,3,3,3,-8.970000000000001,1.49,1.36,-1.77,0.15,0.65
6.292535066604614,2,3,3,3,-8.720000000000001,1.22,1.44,-1.79,0.41,0.65
6.302535057067871,2,3,3,3,-8.609999999999999,1.13,1.52,-1.79,0.75,0.7
6.312535047531128,2,3,3,3,-8.609999999999999,1.13,1.52,-1.79,0.75,0.7
6.323534965515137,2,3,3,3,-8.529999999999999,1.08,1.56,-1.7,1.1,0.85
6.333534955978394,2,3,3,3,-8.25,1.35,1.29,-0.85,1.25,1.53
6.34353494644165,2,3,3,3,-8.1,1.54,1.16,-0.28,1.32,2.12
6.353534936904907,2,3,3,3,-7.79,1.67,0.89,0.35,1.48,2.91
6.363534927368164,2,3,3,3,-7.79,1.67,0.89,0.35,1.48,2.91
6.373534917831421,2,3,3,3,-7.25,1.67,0.96,0.88,1.7,3.85
6.383534908294678,2,3,3,3,-7.06,1.4,1.19,0.2,2.01,5.36
6.393534898757935,2,3,3,3,-6.9,1.3,1.17,0.61,1.04,5.85
6.403534889221191,2,3,3,3,-6.48,1.42,0.64,1.56,-0.17,6.26
6.413534879684448,2,3,3,3,-6.48,1.42,0.64,1.56,-0.17,6.26
6.423535108566284,2,3,3,3,-6.24,1.65,0.51,2.51,-0.87,6.89
6.433535099029541,2,3,3,3,-5.98,1.88,0.43,2.52,-0.28,8.99
6.443535089492798,2,3,3,3,-5.58,2.07,0.18,3.05,0.31,10.25
6.453535079956055,2,3,3,3,-4.8,2.12,0.43,3.83,0.97,11.23
6.463535070419312,2,3,3,3,-4.47,1.89,0.5600000000000001,3.83,0.97,11.23
6.473535060882568,2,3,3,3,-4.1,1.75,0.59,5.47,1.09,11.49
6.483535051345825,2,3,3,3,-3.73,2.12,0.01,7.79,2.36,9.699999999999999
6.493535041809082,2,3,3,3,-4.7,2.21,-0.16,2.82,3.3,8.42
6.503535032272339,2,3,3,3,-5.89,1.86,1.19,-2.48,2.12,7.07
6.513535022735596,2,3,3,3,-6.53,1.67,2.17,-2.48,2.12,7.07
6.523535013198853,2,3,3,3,-7.46,2.28,2.58,-4.77,-0.34,5.32
6.533535003662109,2,3,3,3,-8.06,2.39,2.66,-3.4,-2.11,1.74
6.543534994125366,2,3,3,3,-9.140000000000001,2.47,2.62,-1.81,-0.74,0.45
6.553534984588623,2,3,3,3,-9.890000000000001,1.72,2.36,0.32,1.28,0.71
6.56353497505188,2,3,3,3,-11.01,0.2,2.02,0.32,1.28,0.71
6.573534965515137,2,3,3,3,-11.83,0.06,1.97,2.74,4.31,1.59
6.583534955978394,2,3,3,3,-12.76,0.49,1.83,3.97,9.279999999999999,2.93
6.59353494644165,2,3,3,3,-13.85,1.17,1.63,2.14,7.75,3.12
6.603534936904907,2,3,3,3,-16.14,2.81,0.8100000000000001,0.65,4.08,2.85
6.613534927368164,2,3,3,3,-16.85,3.29,0.54,0.65,4.08,2.85
6.623534917831421,2,3,3,3,-17.43,3.3,0.67,-1.47,0.72,1.83
6.633534908294678,2,3,3,3,-17.73,2.87,1.31,-4.69,-3.33,-1.49
6.643534898757935,2,3,3,3,-17.94,2.07,3.66,-4.48,-3.91,-2.59
6.653534889221191,2,3,3,3,-18.19,1.82,4.78,-3.46,-3.39,-3.06
6.663534879684448,2,3,3,3,-18.49,1.62,5.21,-3.46,-3.39,-3.06
6.673535108566284,2,3,3,3,-18.89,1.62,5.24,-1.1,-1.49,-3.14
6.683535099029541,2,3,3,3,-20.49,1.36,4.7,3.17,3.42,-2.38
6.693535089492798,2,3,3,3,-21.68,1.1,4.2,2.48,4.46,-1.63
6.703535079956055,2,3,3,3,-22.66,0.84,3.85,1.29,4.12,-0.64
6.713535070419312,2,3,3,3,-24.22,1.01,4.02,1.29,4.12,-0.64
6.723535060882568,2,3,3,3,-24.7,1.3,4.41,0.18,1.88,0.27
6.733535051345825,2,3,3,3,-25.17,1.56,4.88,0.5600000000000001,-0.88,-0.16
6.743535041809082,2,3,3,3,-25.42,1.62,4.93,0.11,-1.18,-1.54
6.753535032272339,2,3,3,3,-25.02,1.62,5.78,-1.03,-0.24,-3.27
6.763535022735596,2,3,3,3,-24.79,1.24,5.72,-1.03,-0.24,-3.27
6.773535013198853,2,3,3,3,-24.57,0.8,4.95,-1.62,0.49,-4.79
6.783535003662109,2,3,3,3,-24.2,0.12,4.1,-0.04,1.66,-6.79
6.793534994125366,2,3,3,3,-23.36,-0.88,3.24,0.21,3.29,-7.05
6.803534984588623,2,3,3,3,-22.53,-0.9399999999999999,3.13,0.77,4.21,-6.69
6.81353497505188,2,3,3,3,-20.98,-0.22,2.66,0.77,4.21,-6.69
6.823534965515137,2,3,3,3,-18.66,1.76,2.09,3.42,3.4,-4.75
6.833534955978394,2,3,3,3,-13.5,6.27,0.23,12.4,-0.79,3.36
6.84353494644165,2,3,3,3,-10.25,7.46,-2.37,12.4,-0.79,3.36
6.853534936904907,2,3,3,3,-7.65,8.76,-5.13,18.74,-0.23,6.26
6.863534927368164,2,3,3,3,-5.92,9.050000000000001,-7.25,22.13,1.45,6.65
6.873534917831421,2,3,3,3,-1.09,10.52,-4.09,18.91,1.49,4.83
6.883534908294678,2,3,3,3,2.36,12.59,-1.96,10.56,-0.68,3.06
6.893534898757935,2,3,3,3,6.77,13.85,-2.23,3.82,-5.81,2.99
6.903534889221191,2,3,3,3,8.44,12.81,-5.01,2.71,-8.76,3.46
6.913534879684448,2,3,3,3,9.91,9.640000000000001,-7.64,4.22,-4.18,2.58
6.923535108566284,2,3,3,3,10.03,5.44,-7.63,4.08,-5.45,1.86
6.933535099029541,2,3,3,3,6.34,2.74,-4.52,-2.27,-1.32,0.21
6.943535089492798,2,3,3,3,2.3,0.34,-0.48,-11.83,6.16,-2.51
6.953535079956055,2,3,3,3,1.98,-0.19,0.29,-18.12,7.1,-3.1
6.963535070419312,2,3,3,3,1.8,-1.02,0.64,-20.71,5.97,-3.34
6.973535060882568,2,3,3,3,1.22,-1.58,0.8,-20.06,3.75,-4.32
6.983535051345825,2,3,3,3,0.43,-1.39,0.67,-17.18,1.29,-4.99
6.993535041809082,2,3,3,3,0.22,-1.42,0.6,-14.2,-1.54,-5.37
7.003535032272339,2,3,3,3,-0.34,-1.87,0.63,-11.72,-3.33,-5.28
7.013535022735596,2,3,3,3,-1.01,-2.34,0.73,-9.51,-3.93,-5.01
7.023535013198853,2,3,3,3,-3.81,-2.7,1.74,-7.32,-2.89,-5.1
7.033535003662109,2,3,3,3,-4.46,-2.72,1.88,-6.13,-1.94,-5.33
7.043534994125366,2,3,3,3,-4.8,-2.83,1.78,-4.67,-2.05,-5.33
7.053534984588623,2,3,3,3,-4.95,-2.87,1.53,-3.31,-2.08,-4.49
7.06353497505188,2,3,3,3,-3.3,-2.74,0.98,-2.01,-2.29,-3.41
7.073534965515137,2,3,3,3,-2.16,-2.53,0.79,-1.11,-1.95,-1.89
7.083534955978394,2,3,3,3,-0.92,-2.09,0.35,-0.53,-1.46,-0.39
7.09353494644165,2,3,3,3,0.14,-1.67,0.06,0.21,-0.92,0.87
7.103534936904907,2,3,3,3,1.53,-1.7,0.48,0.99,-0.58,1.98
7.113534927368164,2,3,3,3,1.83,-1.63,0.45,2.6,-0.98,2.89
7.123534917831421,2,3,3,3,1.82,-1.44,0.36,5.51,-1.44,3.52
7.133534908294678,2,3,3,3,1.56,-0.78,0.04,8.48,-1.5,4
7.143534898757935,2,3,3,3,1.23,-0.41,-0.1,11,-1.16,4.35
7.153534889221191,2,3,3,3,0.86,-0.19,-0.26,12.6,-0.99,4.56
7.163534879684448,2,3,3,3,0.47,0.15,-0.34,13.58,-1.62,4.36
7.173535108566284,2,3,3,3,-0.37,1.01,-0.6,13.96,-3.23,3.42
7.183535099029541,2,3,3,3,0.31,1.32,-1.18,12.78,-6.06,2.03
7.193535089492798,2,3,3,3,1.01,1.8,-1.49,11.04,-8.9,0.5600000000000001
7.203535079956055,2,3,3,3,0.78,2.26,-0.85,8.890000000000001,-8.59,-1.31
7.213535070419312,2,3,3,3,0.57,2.99,0.53,5.11,-7.26,-3.32
7.223535060882568,2,3,3,3,0.98,3.5,0.71,-0.16,-7.92,-6.06
7.233535051345825,2,3,3,3,0.54,4.17,-0.13,-0.16,-7.92,-6.06
7.243535041809082,2,3,3,3,0.1,4.63,-0.43,-0.9399999999999999,-6.7,-7.12
7.253535032272339,2,3,3,3,-0.54,6.22,0.05,-0.61,-2.03,-8.130000000000001
7.263535022735596,2,3,3,3,-2.01,7.03,0.21,-0.74,0.31,-8.32
7.273535013198853,2,3,3,3,-5.48,9.130000000000001,1.88,-2.84,0.3,-8.300000000000001
7.283535003662109,2,3,3,3,-8.359999999999999,11.35,0.83,-4.76,0.99,-9.52
7.293534994125366,2,3,3,3,-21.97,11.02,2.58,-18.83,5.12,-18.29
7.303534984588623,2,3,3,3,-29.72,8.01,2.43,-36.49,0.13,-24.78
7.314534902572632,2,3,3,3,-31.3,-0.12,0.45,-46.78,0.28,-28.04
7.323534965515137,2,3,3,3,-34.18,-14.43,4.98,-36.13,5.16,-15.2
7.333534955978394,2,3,3,3,-39.29,-12.05,8.699999999999999,-16.06,6.55,-9.67
7.344535112380981,2,3,3,3,-39.25,-12.21,6.04,1.3,7.27,-1.36
7.354535102844238,2,3,3,3,-36.58,-5.45,4.58,14.99,4.85,8.369999999999999
7.364535093307495,2,3,3,3,-17.28,0.51,5.49,8.51,7.28,7.54
7.374535083770752,2,3,3,3,-17.59,0.29,5.6,4.83,3.63,1.83
7.384535074234009,2,3,3,3,-17.86,-2,5.01,0.21,-2.93,-1.62
7.394535064697266,2,3,3,3,-17.43,-3.82,5.31,-0.85,-3.88,-2.44
7.404535055160522,2,3,3,3,-17.08,-1.94,5.77,0.93,-6.14,-2.37
7.414535045623779,2,3,3,3,-16.27,-1.45,5.78,3.1,-7.85,-2.55
7.424535036087036,2,3,3,3,-15.68,-1.07,5.8,5.17,-5.44,-2.88
7.434535026550293,2,3,3,3,-16.47,-0.65,5.17,6.64,-0.91,-2.66
7.44453501701355,2,3,3,3,-19.02,-0.2,3.05,6.91,1.48,-1.87
7.454535007476807,2,3,3,3,-18.87,-0.21,2.43,6.42,2.64,0.23
7.464534997940063,2,3,3,3,-17.9,0.08,2.15,4.46,3.58,3.48
7.47453498840332,2,3,3,3,-16.75,0.51,2.01,2.28,2.65,5.78
7.484534978866577,2,3,3,3,-14.12,1.46,1.79,1.27,0.98,6.36
7.494534969329834,2,3,3,3,-13.02,1.63,1.65,1.17,0.3,6.04
7.504534959793091,2,3,3,3,-12.11,2.14,1.91,1.37,0.5,5.54
7.514534950256348,2,3,3,3,-10.72,2.49,2.04,1.15,1,5.13
7.524534940719604,2,3,3,3,-10.08,2.38,1.89,0.8100000000000001,1.9,4.79
7.534534931182861,2,3,3,3,-9.710000000000001,2.05,1.66,1.02,2.78,4.45
7.544534921646118,2,3,3,3,-9.279999999999999,1.82,1.4,1.79,3.48,4.27
7.554534912109375,2,3,3,3,-8.17,1.24,1.29,1.86,3.86,4.62
7.564534902572632,2,3,3,3,-7.46,0.98,1.3,1.72,3.71,5.24
7.574534893035889,2,3,3,3,-6.63,1.19,1.23,1.65,2.55,5.75
7.584534883499146,2,3,3,3,-5.84,1.41,1.07,1.76,1.76,6.3
7.594535112380981,2,3,3,3,-4.69,1.75,0.47,1.9,1.87,6.45
7.604535102844238,2,3,3,3,-4.6,1.69,0.49,1.54,1.96,6.75
7.614535093307495,2,3,3,3,-4.55,1.82,0.42,1.06,2.4,6.49
7.624535083770752,2,3,3,3,-4.43,1.72,0.36,0.32,1.86,5.98
7.634535074234009,2,3,3,3,-4.25,1.59,0.11,-0.2,1.17,5.35
7.644535064697266,2,3,3,3,-4.18,1.45,0.04,-0.5,0.84,4.46
7.654535055160522,2,3,3,3,-4.32,1.41,0.42,-1.02,1.01,3.33
7.664535045623779,2,3,3,3,-4.5,1.3,0.73,-1.34,1.06,2.09
7.674535036087036,2,3,3,3,-5.18,1.3,1.1,-0.75,0.5,0.82
7.684535026550293,2,3,3,3,-5.65,1.41,1.06,-0.02,-0.21,-0.25
7.69453501701355,2,3,3,3,-6.08,1.65,0.8,0.83,-0.51,-1.06
7.704535007476807,2,3,3,3,-7.18,1.82,0.72,1.26,-0.15,-1.61
7.714534997940063,2,3,3,3,-7.76,1.76,0.6899999999999999,0.92,0.21,-1.94
7.72453498840332,2,3,3,3,-8.300000000000001,1.68,0.83,-0.02,0.5,-2.17
7.734534978866577,2,3,3,3,-8.77,1.57,1.06,-1.23,0.36,-2.27
7.744534969329834,2,3,3,3,-9.119999999999999,1.14,0.62,-1.65,-0.29,-2.33
7.754534959793091,2,3,3,3,-9.289999999999999,0.82,0.6,-1.43,-0.62,-2.51
7.764534950256348,2,3,3,3,-9.710000000000001,0.47,0.9,-1.88,-0.32,-2.81
7.774534940719604,2,3,3,3,-10.29,0.07000000000000001,1.43,-2.18,-0.64,-3.18
7.784534931182861,2,3,3,3,-11.17,-0.28,1.92,-1.41,-1.44,-3.24
7.794534921646118,2,3,3,3,-11.47,-0.32,1.85,0,-2,-2.93
7.804534912109375,2,3,3,3,-11.75,-0.25,1.85,1.04,-1.82,-2.32
7.814534902572632,2,3,3,3,-11.97,-0.04,1.81,1.46,-1.22,-1.62
7.824534893035889,2,3,3,3,-11.64,0.33,1.61,1.49,-0.8100000000000001,-0.85
7.834534883499146,2,3,3,3,-11.28,0.43,1.61,1.41,-0.42,-0.07000000000000001
7.844535112380981,2,3,3,3,-11.04,0.51,1.52,1.08,-0.09,0.53
7.854535102844238,2,3,3,3,-10.83,0.46,1.57,0.45,0.08,0.88
7.864535093307495,2,3,3,3,-10.31,0.51,1.7,0.03,-0.15,0.98
7.874535083770752,2,3,3,3,-10.05,0.5600000000000001,1.73,-0.07000000000000001,-0.4,0.92
7.884535074234009,2,3,3,3,-9.890000000000001,0.65,1.75,-0.07000000000000001,-0.39,0.87
7.894535064697266,2,3,3,3,-9.81,0.71,1.61,0.06,-0.13,0.91
7.904535055160522,2,3,3,3,-9.43,0.6899999999999999,1.25,0.2,0.09,1.09
7.914535045623779,2,3,3,3,-9.210000000000001,0.73,1.16,0.43,0.47,1.36
7.924535036087036,2,3,3,3,-9.07,0.76,1.19,0.62,0.88,1.54
7.934535026550293,2,3,3,3,-8.880000000000001,0.92,1.22,0.96,0.9399999999999999,1.62
7.94453501701355,2,3,3,3,-8.880000000000001,1.02,1.2,1.25,0.63,1.56
7.954535007476807,2,3,3,3,-8.93,1.16,1.2,1.37,0.14,1.37
7.964534997940063,2,3,3,3,-8.98,1.32,1.22,1.39,-0.2,1
7.97453498840332,2,3,3,3,-9.109999999999999,1.67,1.2,1.14,-0.5,0.5
7.984534978866577,2,3,3,3,-9.109999999999999,1.8,1.14,0.9,-0.76,-0.04
7.994534969329834,2,3,3,3,-9.19,1.89,1.12,0.55,-0.97,-0.59
8.004534959793091,2,3,3,3,-9.199999999999999,1.89,1.18,0.16,-1.06,-1.09
8.014534950256348,2,3,3,3,-9.199999999999999,1.76,1.31,-0.19,-1.1,-1.49
8.024534940719604,2,3,3,3,-9.210000000000001,1.63,1.35,-0.5600000000000001,-1.07,-1.64
8.034534931182861,2,3,3,3,-9.24,1.54,1.45,-0.91,-1.05,-1.55
8.044534921646118,2,3,3,3,-9.27,1.5,1.42,-0.91,-1.04,-1.35
8.054534912109375,2,3,3,3,-9.41,1.46,1.52,-0.73,-1.02,-0.99
8.064534902572632,2,3,3,3,-9.42,1.42,1.45,-0.54,-1.01,-0.7
8.074534893035889,2,3,3,3,-9.390000000000001,1.4,1.39,-0.44,-0.85,-0.38
8.084534883499146,2,3,3,3,-9.34,1.38,1.43,-0.55,-0.46,-0.05
8.094535112380981,2,3,3,3,-9.369999999999999,1.34,1.46,-0.76,-0.1,0.26
8.104535102844238,2,3,3,3,-9.369999999999999,1.34,1.53,-0.65,0.09,0.52
8.114535093307495,2,3,3,3,-9.380000000000001,1.33,1.54,-0.28,0.2,0.6899999999999999
8.124535083770752,2,3,3,3,-9.49,1.22,1.56,0.02,0.42,0.74
8.134535074234009,2,3,3,3,-9.6,1.12,1.58,-0.08,0.86,0.73
8.144535064697266,2,3,3,3,-9.65,1.05,1.54,-0.33,1.16,0.58
8.154535055160522,2,3,3,3,-9.619999999999999,1,1.6,-0.65,1.11,0.45
8.164535045623779,2,3,3,3,-9.59,0.98,2,-0.87,0.8100000000000001,0.33
8.174535036087036,2,3,3,3,-9.58,1,2.12,-0.73,0.3,0.27
8.184535026550293,2,3,3,3,-9.609999999999999,1.05,2.16,-0.21,-0.15,0.19
8.19453501701355,2,3,3,3,-9.710000000000001,1.05,1.97,0.2,-0.27,0.12
8.204535007476807,2,3,3,3,-9.960000000000001,1.08,1.79,0.48,-0.14,-0.03
8.214534997940063,2,3,3,3,-10.01,1.11,1.74,0.45,-0.03,-0.1
8.22453498840332,2,3,3,3,-9.93,1.06,1.69,0.38,-0.11,0
8.234534978866577,2,3,3,3,-9.85,1.02,1.68,0.41,-0.27,0.25
8.244534969329834,2,3,3,3,-9.710000000000001,1.18,1.52,0.62,-0.37,0.5
8.254534959793091,2,3,3,3,-9.58,1.23,1.53,0.77,-0.43,0.82
8.264534950256348,2,3,3,3,-9.49,1.3,1.61,0.98,-0.37,1.16
8.274534940719604,2,3,3,3,-9.49,1.38,1.65,1.13,-0.26,1.32
8.284534931182861,2,3,3,3,-9.51,1.57,1.55,1.18,-0.18,1.32
8.294534921646118,2,3,3,3,-9.43,1.61,1.45,1.08,-0.13,1.17
8.304534912109375,2,3,3,3,-9.31,1.6,1.5,0.91,0.07000000000000001,1.02
8.314534902572632,2,3,3,3,-9.199999999999999,1.71,1.68,0.64,0.38,0.85
8.324534893035889,2,3,3,3,-9.130000000000001,1.8,1.66,0.41,0.37,0.75
8.334534883499146,2,3,3,3,-9.029999999999999,1.87,1.55,0.67,0.33,0.79
8.344535112380981,2,3,3,3,-8.99,1.94,1.29,1.08,0.34,0.95
8.354535102844238,2,3,3,3,-8.890000000000001,2.09,1.05,1.45,0.37,1.25
8.364535093307495,2,3,3,3,-8.81,2.08,0.97,1.57,0.41,1.56
8.375535011291504,2,3,3,3,-8.75,2.12,0.98,1.31,0.57,1.84
8.385535001754761,2,3,3,3,-8.640000000000001,2.17,0.95,0.79,0.74,1.99
8.395534992218018,2,3,3,3,-8.289999999999999,2.32,0.8,0.23,0.77,2.08
8.405534982681274,2,3,3,3,-7.99,2.33,0.89,-0.32,0.64,2.15
8.415534973144531,2,3,3,3,-7.72,2.22,1.07,-0.85,0.43,2.31
8.425534963607788,2,3,3,3,-7.72,2.22,1.07,-1.15,0.28,2.31
8.435534954071045,2,3,3,3,-7.51,2.09,1.26,-0.93,-0.13,2.25
8.445534944534302,2,3,3,3,-7.16,2.05,1.11,0.2,-0.71,2.3
8.455534934997559,2,3,3,3,-6.96,2.14,0.77,1.99,-1.21,2.71
8.465534925460815,2,3,3,3,-6.61,2.16,0.42,3.62,-1.21,3.64
8.475534915924072,2,3,3,3,-6.61,2.16,0.42,3.62,-1.21,3.64
8.485534906387329,2,3,3,3,-5.66,1.99,-0.33,4.54,-0.33,6.47
8.495534896850586,2,3,3,3,-4.75,1.81,0.17,3.58,-0.43,7.82
8.505534887313843,2,3,3,3,-3.4,2.22,0.42,2.92,-1.42,8.68
8.5155348777771,2,3,3,3,-2.63,2.6,-0.5,4.29,-2.79,8.83
8.525535106658936,2,3,3,3,-2.63,2.6,-0.5,4.29,-2.79,8.83
8.535535097122192,2,3,3,3,-2.41,2.81,-1.2,6.48,-2.61,8.09
8.545535087585449,2,3,3,3,-2.82,2.7,-0.71,0.11,0.67,4.63
8.555535078048706,2,3,3,3,-5.12,1.95,1.74,-5.01,-0.6,2.64
8.565535068511963,2,3,3,3,-5.49,2.14,2.42,-7.21,-3.14,0.79
8.57553505897522,2,3,3,3,-5.71,2.45,2.47,-7.21,-3.14,0.79
8.585535049438477,2,3,3,3,-6.06,3.02,2.17,-7.09,-3.71,-0.8
8.595535039901733,2,3,3,3,-7.81,3.38,1.62,-4.95,0.47,-2.08
8.60553503036499,2,3,3,3,-9.279999999999999,2.17,1.55,-4.07,3.58,-2.9
8.615535020828247,2,3,3,3,-10.41,0.23,1.79,-2.04,5.72,-2.62
8.625535011291504,2,3,3,3,-11.08,-1.03,1.8,-2.04,5.72,-2.62
8.635535001754761,2,3,3,3,-11.32,-0.01,1.4,0.82,7.44,-1.07
8.645534992218018,2,3,3,3,-11.99,0.95,1.02,-0.43,7.61,2.97
8.655534982681274,2,3,3,3,-13.51,1.73,0.78,-2.19,4.77,4.39
8.665534973144531,2,3,3,3,-15.24,2.39,0.83,-3.15,1.18,4.5
8.675534963607788,2,3,3,3,-16.56,3.12,1.11,-3.15,1.18,4.5
8.685534954071045,2,3,3,3,-16.19,2.77,1.74,-3.96,-1.54,3.15
8.695534944534302,2,3,3,3,-15.9,2.25,2.64,-3.3,-1.75,0.04
8.705534934997559,2,3,3,3,-15.95,1.76,3.32,-2.34,-0.61,-1.32
8.715534925460815,2,3,3,3,-16.82,1.08,4.13,-0.66,0.29,-2.07
8.725534915924072,2,3,3,3,-18.04,1.58,4.12,-0.66,0.29,-2.07
8.735534906387329,2,3,3,3,-19.05,1.87,4.03,0.36,0.99,-2.55
8.745534896850586,2,3,3,3,-19.54,2.21,3.57,0.75,2.13,-1.69
8.755534887313843,2,3,3,3,-19.85,2.05,3.55,0.49,2.99,-0.34
8.7655348777771,2,3,3,3,-20.25,2.29,3.5,1.27,3.57,1.15
8.775535106658936,2,3,3,3,-20.61,2.74,3.33,1.27,3.57,1.15
8.785535097122192,2,3,3,3,-21.01,3.46,3.6,1.68,3.22,2.55
8.795535087585449,2,3,3,3,-20.98,3.7,4.11,-0.26,0.85,2.97
8.805535078048706,2,3,3,3,-21.23,3.12,4.42,-2.2,0.27,1.41
8.815535068511963,2,3,3,3,-21.67,2.59,4.86,-4.4,0.47,-0.91
8.82553505897522,2,3,3,3,-22.18,0.59,5.37,-4.4,0.47,-0.91
8.835535049438477,2,3,3,3,-22.59,-0.38,5.68,-6.34,1.39,-3.61
8.845535039901733,2,3,3,3,-23.23,-1.35,5.95,-4.88,3.86,-9.27
8.85553503036499,2,3,3,3,-24.61,-2.55,5.79,-1.75,2.18,-11.08
8.865535020828247,2,3,3,3,-26.17,-3.19,5.23,2.15,0.02,-11.17
8.875535011291504,2,3,3,3,-26.76,-2.81,4.71,2.15,0.02,-11.17
8.885535001754761,2,3,3,3,-27.05,-2.28,3.49,5.18,-1.12,-10.39
8.895534992218018,2,3,3,3,-25.73,-0.38,2.56,6.79,-1.58,-6.33
8.905534982681274,2,3,3,3,-19.93,3.56,1.98,5.22,-2.25,-2.74
8.915534973144531,2,3,3,3,-16.85,5.37,0.8,6.49,-3.62,0.64
8.925534963607788,2,3,3,3,-12.9,6.27,-1.32,6.49,-3.62,0.64
8.935534954071045,2,3,3,3,-4.83,7.09,-4.88,10.27,-2.67,2.52
8.945534944534302,2,3,3,3,-1.9,7.46,-3.57,11.75,2.89,5.07
8.955534934997559,2,3,3,3,1.18,8.85,-0.74,11.75,2.89,5.07
8.965534925460815,2,3,3,3,4.07,11.4,0.49,8.68,2.32,10.46
8.975534915924072,2,3,3,3,6.48,16.34,-5.76,8.68,2.32,10.46
8.985534906387329,2,3,3,3,5.03,16.51,-11,15.17,2.39,12.75
8.995534896850586,2,3,3,3,3.68,14.1,-13.04,10.74,1.86,9.07
9.005534887313843,2,3,3,3,4.22,9.49,-9.91,10.74,1.86,9.07
9.0155348777771,2,3,3,3,6.24,1.47,-1.19,-8.029999999999999,-2.56,4.59
9.025535106658936,2,3,3,3,3.62,1.51,0.8100000000000001,-19.58,-4.88,-1.31
9.035535097122192,2,3,3,2,3.27,2.11,2.3,-23.56,-5.04,-7.29
9.045535087585449,2,3,3,2,5.29,1.72,2.68,-26.2,-6.08,-11.21
9.055535078048706,2,3,3,2,5.6,-1.77,1.39,-27.07,-3.49,-15.11
9.065535068511963,2,3,3,2,3.28,-2.35,1.31,-25.48,0.3,-16.77
9.07553505897522,2,3,3,2,0.8100000000000001,-3.57,1.22,-23.13,1.51,-15.37
9.085535049438477,2,3,3,2,-1.85,-3.83,1.74,-19.7,0.5,-12.15
9.095535039901733,2,3,3,2,-3.57,-3.8,1.56,-13.54,-1.74,-8.65
9.10553503036499,2,3,3,2,-4.42,-4.14,1.11,-6.31,-2.87,-5.13
9.115535020828247,2,3,3,2,-6.44,-5.41,0.88,-1.32,-0.59,-2.44
9.125535011291504,2,3,3,2,-8.23,-6.31,0.27,0.88,2.08,-0.13
9.135535001754761,2,3,3,2,-6.52,-5.65,-0.4,2.35,1.44,2.56
9.145534992218018,2,3,3,2,-3.99,-4.08,-0.35,3.19,0.48,6.22
9.155534982681274,2,3,3,2,-1.55,-2.75,-0.19,2.94,2.02,9.31
9.165534973144531,2,3,3,2,1.33,-1.4,-0.17,2.8,3.47,10.94
9.175534963607788,2,3,3,2,2.02,-0.96,0.23,4.92,2.92,11.51
9.185534954071045,2,3,3,2,2.47,-0.95,0.48,7.66,1.18,11.38
9.195534944534302,2,3,3,2,2.82,-0.63,0.05,10.69,-1.08,10.95
9.20653510093689,2,3,3,2,2.29,0.54,-0.26,14.21,-1.92,9.800000000000001
9.215534925460815,2,3,3,2,2.13,0.68,-0.51,15.28,-2.17,7.85
9.225534915924072,2,3,3,2,2.23,0.67,-0.74,14.3,-3.36,5.41
9.23653507232666,2,3,3,2,2.11,0.63,-0.55,12.05,-3.92,2.69
9.245534896850586,2,3,3,2,1.42,1.23,0.49,8.789999999999999,-4.8,-0.13
9.255534887313843,2,3,3,2,1.51,1.68,0.21,5.71,-7.7,-2.47
9.266535043716431,2,3,3,2,1.85,1.98,-0.59,3.56,-10.45,-3.98
9.275535106658936,2,3,3,2,1.59,2.28,-1.07,1.65,-9.9,-4.91
9.285535097122192,2,3,3,2,0.3,2.23,-0.98,-1.07,-6.98,-5.35
9.296535015106201,2,3,3,2,0.52,1.61,-0.85,-4.13,-5.18,-5.4
9.305535078048706,2,3,3,2,0.23,1.63,1.2,-5.84,-2.8,-5.2
9.315535068511963,2,3,3,2,-2.12,1.99,1.08,-7.67,0.7,-5.09
9.326534986495972,2,3,3,2,-2.53,1.95,1.48,-7.5,-0.32,-5.11
9.335535049438477,2,3,3,2,-2.83,2.22,1.58,-6.23,-2.03,-4.9
9.345535039901733,2,3,3,2,-3.54,3.72,0.72,-5.37,-2.22,-5.48
9.356534957885742,2,3,3,2,-7.84,7.47,3.1,-3.22,-1.39,-6.67
9.365535020828247,2,3,3,2,-12.78,10.04,4.54,-3.84,0.07000000000000001,-7.71
9.375535011291504,2,3,3,2,-20.5,10.85,3.69,-6.46,0.57,-10.42
9.386534929275513,2,3,3,2,-34.11,10.91,4.48,-28.02,3.04,-31.71
9.395534992218018,2,3,3,2,-39.24,-12.3,-2.14,-28.02,3.04,-31.71
9.406534910202026,2,3,3,2,-39.29,-16.94,3.89,-39.32,5.36,-26.69
9.416534900665283,2,3,3,2,-39.29,-8.08,10.59,-24.51,20.78,-4.39
9.42653489112854,2,3,3,2,-39.29,1.56,9.16,15.88,-8.289999999999999,-2.96
9.436534881591797,2,3,3,2,-23.3,-4.08,4.67,19.67,-4.44,-0.15
9.446535110473633,2,3,3,2,-22.37,-4.99,5.03,19.67,-4.44,-0.15
9.45653510093689,2,3,3,2,-21.4,-4.83,5.36,0.64,3.87,3.85
9.466535091400146,2,3,3,2,-18.57,-3.94,6.13,-1.43,1.3,5.23
9.476535081863403,2,3,3,2,-14.86,-1.17,5.86,4.05,-3.78,2.95
9.48653507232666,2,3,3,2,-13.14,-0.53,4.91,10.09,-7.73,0.34
9.496535062789917,2,3,3,2,-12.74,-0.55,5.15,10.54,-5.02,-0.79
9.506535053253174,2,3,3,2,-15.59,0.13,3.46,8.880000000000001,0.23,-0.05
9.516535043716431,2,3,3,2,-16.26,-0.03,2.09,7.96,3.57,2.08
9.526535034179688,2,3,3,2,-16.2,-0.18,1.47,8.039999999999999,5.18,5.55
9.536535024642944,2,3,3,2,-15.15,0.13,1.42,8.44,5.16,8.890000000000001
9.546535015106201,2,3,3,2,-11.28,2.03,1.04,8.1,3.02,10.74
9.556535005569458,2,3,3,2,-8.85,1.47,0.52,7.03,-1.48,11.05
9.566534996032715,2,3,3,2,-6.29,1.53,0.52,7.21,-3.43,11.52
9.576534986495972,2,3,3,2,-4.35,1.97,0.61,7.45,-2.7,10.3
9.586534976959229,2,3,3,2,-1.77,2.72,0.75,7.22,-0.84,8.720000000000001
9.596534967422485,2,3,3,2,-1.54,3.05,0.67,7.25,1.79,6.92
9.606534957885742,2,3,3,2,-1.87,3.01,0.52,7.31,4.45,5.4
9.616534948348999,2,3,3,2,-2.3,2.78,0.4,7.06,5.42,4.26
9.626534938812256,2,3,3,2,-2.89,2.59,0.43,6.18,4.05,3.32
9.636534929275513,2,3,3,2,-3.01,2.75,0.34,5.29,2.04,2.59
9.64653491973877,2,3,3,2,-2.74,2.89,0.06,4.37,0.11,2.17
9.656534910202026,2,3,3,2,-2.22,3.04,-0.1,2.98,-0.6899999999999999,2.2
9.666534900665283,2,3,3,2,-1.41,2.83,0.32,1.37,0.05,2.22
9.67653489112854,2,3,3,2,-1.44,2.78,0.6,-0.01,1.19,2.26
9.686534881591797,2,3,3,2,-1.94,2.82,0.5600000000000001,-0.48,2.05,1.89
9.696535110473633,2,3,3,2,-3.19,3.14,0.05,-0.15,2,1.08
9.70653510093689,2,3,3,2,-6.64,3.92,-0.45,-0.62,1.38,-0.49
9.716535091400146,2,3,3,2,-8.66,4.43,0.74,-2.75,0.2,-2.53
9.726535081863403,2,3,3,2,-11.22,5.01,2.71,-5.71,-3.01,-4.62
9.73653507232666,2,3,3,2,-16.89,5.01,2.22,-6.22,-8.140000000000001,-7.59
9.746535062789917,2,3,3,2,-17.74,3.22,-0.04,-5.53,-6.68,-13.1
9.756535053253174,2,3,3,2,-17.71,0.24,-2.18,-7.97,3.54,-15.73
9.766535043716431,2,3,3,2,-16.83,-2.71,-2.16,-9.76,10.9,-12.74
9.776535034179688,2,3,3,2,-14.38,-4.99,2.24,-9.550000000000001,6.69,-5.31
9.786535024642944,2,3,3,2,-14.17,-3.74,2.62,-6.44,-2.13,1.98
9.796535015106201,2,3,3,2,-12.55,-2.33,2.93,-1.02,-9.75,3.49
9.806535005569458,2,3,3,2,-10.16,-0.83,3.16,3.87,-13.21,2.89
9.816534996032715,2,3,3,2,-7.14,1.08,2.27,6.76,-11.73,2.28
9.826534986495972,2,3,3,2,-6.97,1.43,2.15,5.96,-6,1.88
9.836534976959229,2,3,3,2,-7.11,1.6,2.11,3.97,-0.37,1.54
9.846534967422485,2,3,3,2,-7.31,1.47,1.89,2.65,2.26,1.35
9.856534957885742,2,3,3,2,-7.82,1.03,1.19,1.36,1.5,1.38
9.866534948348999,2,3,3,2,-8,0.72,0.79,0.12,-0.16,1.42
9.876534938812256,2,3,3,2,-7.91,0.79,1.1,-0.65,-1.29,1.38
9.886534929275513,2,3,3,2,-7.89,0.8100000000000001,1.56,-1.27,-1.95,1.22
9.89653491973877,2,3,3,2,-7.76,1.32,2.11,-0.5,-1.14,0.8
9.906534910202026,2,3,3,2,-8,1.52,2.06,0.61,0.65,0.28
9.916534900665283,2,3,3,2,-8.48,1.59,1.84,1.58,1.69,-0.2
9.92653489112854,2,3,3,2,-9.800000000000001,1.41,1.26,1.93,1.46,-0.46
9.936534881591797,2,3,3,2,-10.5,1.51,1.08,1.96,0.66,-0.65
9.946535110473633,2,3,3,2,-10.92,1.59,0.71,2.06,-0.23,-1.01
9.95653510093689,2,3,3,2,-11.17,1.77,0.59,1.52,-0.71,-1.19
9.966535091400146,2,3,3,2,-11.11,1.82,0.64,0.37,-0.97,-0.91
9.976535081863403,2,3,3,2,-10.91,1.9,0.9,-0.6899999999999999,-1.14,-0.42
9.98653507232666,2,3,3,2,-10.81,1.87,1.36,-1.86,-1.35,0.15
9.996535062789917,2,3,3,2,-10.68,1.79,1.66,-2.15,-1.72,0.39
10.00653505325317,2,3,3,2,-10.19,1.46,1.9,-1.79,-1.79,0.15
10.01653504371643,2,3,3,2,-9.91,1.16,2.05,-1.26,-1.45,-0.35
10.02653503417969,2,3,3,2,-9.550000000000001,0.86,2.05,-0.77,-0.99,-0.82
10.03653502464294,2,3,3,2,-9.18,0.63,2.04,-0.07000000000000001,-0.59,-0.78
10.0465350151062,2,3,3,2,-8.609999999999999,0.73,1.83,0.88,0,-0.39
10.05653500556946,2,3,3,2,-8.51,0.8100000000000001,1.79,1.56,0.6899999999999999,0.25
10.06653499603271,2,3,3,2,-8.52,1.06,1.74,2.17,1.1,0.86
10.07653498649597,2,3,3,2,-8.77,1.24,1.71,2.46,1.5,1.34
10.08653497695923,2,3,3,2,-9.31,1.71,1.51,2.29,1.65,1.37
10.09653496742249,2,3,3,2,-9.51,1.88,1.35,1.61,1.41,1.08
10.10653495788574,2,3,3,2,-9.640000000000001,2.02,1.36,0.85,1.04,0.5600000000000001
10.116534948349,2,3,3,2,-9.82,1.96,1.37,0.17,0.5,-0.03
10.12653493881226,2,3,3,2,-9.74,1.77,1.37,-0.25,-0.02,-0.78
10.13653492927551,2,3,3,2,-9.59,1.52,1.56,-0.6899999999999999,-0.25,-1.53
10.14653491973877,2,3,3,2,-9.48,1.37,1.73,-0.85,-0.4,-1.91
10.15653491020203,2,3,3,2,-9.720000000000001,1.23,1.85,-0.64,-0.36,-1.94
10.16653490066528,2,3,3,2,-9.890000000000001,1.22,1.81,-0.33,-0.26,-1.74
10.17653489112854,2,3,3,2,-10.06,1.28,1.74,0.22,-0.04,-1.49
10.1865348815918,2,3,3,2,-10.08,1.33,1.7,0.43,0.21,-1.25
10.19653511047363,2,3,3,2,-9.949999999999999,1.29,1.77,0.3,0.41,-1.05
10.20653510093689,2,3,3,2,-9.83,1.31,1.65,0.38,0.25,-0.93
10.21653509140015,2,3,3,2,-9.65,1.32,1.61,0.75,-0.12,-0.82
10.2265350818634,2,3,3,2,-9.449999999999999,1.41,1.63,0.96,-0.2,-0.67
10.23653507232666,2,3,3,2,-9.119999999999999,1.48,1.62,0.8,-0.19,-0.38
10.24653506278992,2,3,3,2,-9.15,1.48,1.62,0.61,-0.07000000000000001,-0.12
10.25653505325317,2,3,3,2,-9.48,1.48,1.76,0.04,0,-0.14
10.26653504371643,2,3,3,2,-9.67,1.5,1.83,-0.44,-0.08,-0.33
10.27653503417969,2,3,3,2,-9.52,1.45,1.73,-0.36,-0.07000000000000001,-0.59
10.28653502464294,2,3,3,2,-9.49,1.41,1.77,-0.39,0.52,-0.8100000000000001
10.2965350151062,2,3,3,2,-9.529999999999999,1.38,1.85,-0.68,1.1,-0.84
10.30653500556946,2,3,3,2,-9.77,1.32,1.78,-0.88,1.18,-0.62
10.31653499603271,2,3,3,2,-9.9,1.28,1.83,-0.8,0.91,-0.35
10.32653498649597,2,3,3,2,-9.960000000000001,1.23,1.85,-0.45,0.43,-0.14
10.33653497695923,2,3,3,2,-9.91,1.2,1.78,-0.02,-0.1,0.04
10.34653496742249,2,3,3,2,-9.73,1.28,1.61,0.25,-0.28,0.11
10.35653495788574,2,3,3,2,-9.69,1.27,1.54,0.16,-0.21,0.13
10.366534948349,2,3,3,2,-9.73,1.26,1.62,0.13,-0.07000000000000001,0.12
10.37653493881226,2,3,3,2,-9.800000000000001,1.22,1.71,0.02,-0.07000000000000001,0.09
10.38653492927551,2,3,3,2,-9.52,1.19,1.67,-0.04,-0.2,0.05
10.39653491973877,2,3,3,2,-9.359999999999999,1.18,1.63,-0.15,-0.16,0.04
10.40653491020203,2,3,3,2,-9.220000000000001,1.27,1.6,-0.43,-0.02,0.09
10.45753502845764,2,3,3,2,-9.83,1.49,1.51,-0.37,0.92,0.24
10.4675350189209,2,3,3,2,-9.73,1.4,1.53,-0.32,0.92,0.31
10.47753500938416,2,3,3,2,-9.65,1.34,1.57,-0.32,0.95,0.4
10.48753499984741,2,3,3,2,-9.65,1.34,1.57,-0.32,0.95,0.4
10.49753499031067,2,3,3,2,-9.550000000000001,1.27,1.55,-0.47,1.04,0.5
10.50753498077393,2,3,3,2,-9.75,1.19,1.63,-0.9399999999999999,0.98,0.72
10.51753497123718,2,3,3,2,-9.710000000000001,1.16,1.6,-0.82,0.64,0.67
10.52753496170044,2,3,3,2,-9.720000000000001,1.2,1.56,-0.5,0.43,0.58
10.5375349521637,2,3,3,2,-9.720000000000001,1.2,1.56,-0.51,0.46,0.45
10.54753494262695,2,3,3,2,-9.69,1.24,1.62,-0.71,0.51,0.37
10.55753493309021,2,3,3,2,-9.66,1.26,1.57,-0.86,0.32,0.26
10.56753492355347,2,3,3,2,-9.6,1.26,1.58,-0.79,0.05,0.24
10.57753491401672,2,3,3,2,-9.539999999999999,1.29,1.64,-0.71,-0.13,0.25
10.58753490447998,2,3,3,2,-9.539999999999999,1.29,1.64,-0.71,-0.13,0.25
10.59753489494324,2,3,3,2,-9.6,1.27,1.77,-0.83,-0.23,0.29
10.60753488540649,2,3,3,2,-9.66,1.3,1.62,-0.83,0.1,0.27
10.61753487586975,2,3,3,2,-9.69,1.3,1.64,-0.78,0.24,0.29
10.62753510475159,2,3,3,2,-9.65,1.27,1.64,-0.8,0.25,0.38
10.63753509521484,2,3,3,3,-9.65,1.27,1.64,-0.8,0.25,0.38
10.6475350856781,2,3,3,3,-9.65,1.26,1.66,-0.76,0.25,0.49
10.65753507614136,2,3,3,3,-9.65,1.25,1.61,-0.79,0.42,0.67
10.66753506660461,2,3,3,3,-9.539999999999999,1.26,1.46,-0.8100000000000001,0.38,0.76
10.67753505706787,2,3,3,3,-9.539999999999999,1.28,1.5,-0.86,0.35,0.8100000000000001
10.69753503799438,2,3,3,3,-9.69,1.22,1.68,-0.98,0.26,0.77
10.70753502845764,2,3,3,3,-9.720000000000001,1.18,1.72,-1.24,0.12,0.48
10.7175350189209,2,3,3,3,-9.67,1.1,1.69,-1.22,0.1,0.29
10.72753500938416,2,3,3,3,-9.630000000000001,1.02,1.77,-1.01,0.17,0.21
10.73753499984741,2,3,3,3,-9.59,1,1.84,-1.01,0.17,0.21
10.74753499031067,2,3,3,3,-9.619999999999999,1.04,1.83,-0.79,0.15,0.24
10.75753498077393,2,3,3,3,-9.68,1.04,1.78,-0.37,0.25,0.48
10.76753497123718,2,3,3,3,-9.699999999999999,1.02,1.68,-0.3,0.25,0.49
10.77753496170044,2,3,3,3,-9.68,1.05,1.71,-0.29,0.16,0.51
10.7875349521637,2,3,3,3,-9.65,1.05,1.77,-0.29,0.16,0.51
10.79753494262695,2,3,3,3,-9.640000000000001,1.08,1.77,-0.19,0,0.43
10.80753493309021,2,3,3,3,-9.59,1.09,1.77,0.06,-0.03,0.25
10.81753492355347,2,3,3,3,-9.609999999999999,1.14,1.64,0.16,-0.05,0.19
10.82753491401672,2,3,3,3,-9.58,1.21,1.66,0.13,-0.16,0.11
10.83753490447998,2,3,3,3,-9.6,1.24,1.72,0.13,-0.16,0.11
10.84753489494324,2,3,3,3,-9.609999999999999,1.29,1.79,0.11,-0.32,0.07000000000000001
10.85753488540649,2,3,3,3,-9.539999999999999,1.3,1.71,0.26,-0.28,-0.08
10.86753487586975,2,3,3,3,-9.57,1.27,1.67,0.27,-0.2,-0.13
10.87753510475159,2,3,3,3,-9.57,1.23,1.74,0.17,-0.19,-0.11
10.88753509521484,2,3,3,3,-9.57,1.29,1.78,0.17,-0.19,-0.11
10.8975350856781,2,3,3,2,-9.59,1.33,1.76,0.08,-0.04,0
10.90753507614136,2,3,3,2,-9.630000000000001,1.4,1.76,0.11,0.02,0.06
10.91753506660461,2,3,3,2,-9.65,1.41,1.63,0.07000000000000001,-0.01,0.09
10.92753505706787,2,3,3,2,-9.779999999999999,1.43,1.77,-0.01,-0.12,0.06
10.93753504753113,2,3,3,2,-9.76,1.4,1.76,-0.01,-0.12,0.06
10.94753503799438,2,3,3,2,-9.720000000000001,1.42,1.8,-0.07000000000000001,-0.3,0.02
10.95753502845764,2,3,3,2,-9.640000000000001,1.4,1.8,0,-0.33,-0.07000000000000001
10.9675350189209,2,3,3,2,-9.49,1.41,1.76,0.09,-0.37,-0.09
10.97753500938416,2,3,3,2,-9.43,1.43,1.79,0.19,-0.46,-0.06
10.98753499984741,2,3,3,2,-9.4,1.47,1.77,0.19,-0.46,-0.06
10.99753499031067,2,3,3,2,-9.4,1.5,1.77,0.29,-0.37,-0.07000000000000001
11.00753498077393,2,3,3,2,-9.529999999999999,1.48,1.73,0.2,-0.02,-0.15
11.01753497123718,2,3,3,2,-9.58,1.51,1.64,-0.04,0.02,-0.22
11.02753496170044,2,3,3,2,-9.58,1.48,1.69,-0.04,0.02,-0.22
11.0375349521637,2,3,3,2,-9.56,1.43,1.72,-0.26,-0.04,-0.25
11.04753494262695,2,3,3,2,-9.58,1.39,1.77,-0.31,-0.11,-0.27
11.05753493309021,2,3,3,2,-9.630000000000001,1.35,1.8,-0.35,-0.17,-0.28
11.06753492355347,2,3,3,2,-9.640000000000001,1.37,1.73,-0.32,-0.19,-0.19
11.07753491401672,2,3,3,2,-9.67,1.33,1.73,-0.21,-0.15,-0.1
11.08753490447998,2,3,3,2,-9.65,1.35,1.74,-0.12,-0.07000000000000001,0.02
11.09753489494324,2,3,3,2,-9.630000000000001,1.34,1.77,-0.02,0,0.12
11.10753488540649,2,3,3,2,-9.58,1.36,1.75,0.1,0.01,0.14
11.11753487586975,2,3,3,2,-9.51,1.39,1.63,0.17,0.02,0.18
11.12753510475159,2,3,3,2,-9.550000000000001,1.43,1.72,0.29,0.07000000000000001,0.18
11.13753509521484,2,3,3,2,-9.6,1.42,1.67,0.24,0.14,0.16
11.1475350856781,2,3,3,2,-9.66,1.45,1.67,0.27,0.17,0.13
11.15753507614136,2,3,3,2,-9.73,1.41,1.63,0.21,0.21,0.01
11.16753506660461,2,3,3,2,-9.65,1.34,1.57,0.07000000000000001,0.17,-0.08
11.17753505706787,2,3,3,2,-9.57,1.33,1.64,0.02,0.05,-0.13
11.18753504753113,2,3,3,2,-9.539999999999999,1.3,1.71,0,-0.06,-0.09
11.19753503799438,2,3,3,2,-9.57,1.34,1.81,0,-0.04,0.01
11.20753502845764,2,3,3,2,-9.57,1.36,1.75,0.05,-0.02,0.09
11.2175350189209,2,3,3,2,-9.59,1.37,1.63,0.21,0,0.18
11.22753500938416,2,3,3,2,-9.59,1.41,1.62,0.46,0.11,0.18
11.23753499984741,2,3,3,2,-9.65,1.43,1.68,0.6,0.18,0.13
11.24753499031067,2,3,3,2,-9.630000000000001,1.43,1.63,0.62,0.25,0.06
11.25753498077393,2,3,3,2,-9.65,1.45,1.63,0.6,0.25,-0.02
11.26753497123718,2,3,3,2,-9.66,1.43,1.62,0.43,0.25,-0.04
11.27753496170044,2,3,3,2,-9.59,1.42,1.64,0.16,0.09,-0.02
11.2875349521637,2,3,3,2,-9.57,1.42,1.63,0.02,-0.05,0.01
11.29753494262695,2,3,3,2,-9.57,1.45,1.65,0.05,-0.1,0.07000000000000001
11.30753493309021,2,3,3,2,-9.69,1.51,1.69,0.17,-0.02,0.1
11.31753492355347,2,3,3,2,-9.76,1.51,1.69,0.42,0.06,0.11
11.32753491401672,2,3,3,2,-9.890000000000001,1.55,1.82,0.66,0.12,0.03
11.33753490447998,2,3,3,2,-10.01,1.63,2.15,0.61,0.03,-0.08
11.34753489494324,2,3,3,2,-9.789999999999999,1.3,1.31,-0.32,-0.71,-0.15
11.35753488540649,2,3,3,2,-9.33,1.45,1.07,-1.2,-1.93,-0.33
11.36753487586975,2,3,3,2,-9.15,1.42,1.27,-1.09,-1.82,-0.2
11.37753510475159,2,3,3,2,-9.15,1.48,1.33,-1.03,-1.19,0.19
11.38753509521484,2,3,3,2,-9.390000000000001,1.52,1.41,-0.75,-0.64,0.46
11.3975350856781,2,3,3,2,-9.56,1.58,1.43,-0.42,-0.22,0.6
11.40753507614136,2,3,3,2,-9.720000000000001,1.55,1.49,-0.13,0.09,0.51
11.41753506660461,2,3,3,2,-9.789999999999999,1.57,1.46,-0.2,0.09,0.38
11.42753505706787,2,3,3,2,-10.1,1.52,1.63,-0.11,0.14,0.25
11.43753504753113,2,3,3,2,-10.14,1.43,1.64,-0.25,0.2,0.16
11.44853496551514,2,3,3,2,-10,1.27,1.57,-0.88,-0.12,0.14
11.45853495597839,2,3,3,2,-9.68,1.19,1.48,-1.52,-0.47,0.15
11.46853494644165,2,3,3,2,-9.32,1.29,1.51,-1.43,-0.67,0.27
11.47853493690491,2,3,3,2,-9.41,1.31,1.59,-1.24,-0.62,0.51
11.48853492736816,2,3,3,2,-9.380000000000001,1.22,1.51,-1.13,-0.73,0.73
11.49853491783142,2,3,3,2,-9.34,1.17,1.51,-0.8,-0.87,0.83
11.50853490829468,2,3,3,2,-9.369999999999999,1.13,1.52,-0.62,-0.73,0.78
11.51853489875793,2,3,3,2,-9.48,1.16,1.56,-0.5600000000000001,-0.48,0.65
11.52853488922119,2,3,3,2,-9.609999999999999,1.16,1.64,-0.39,-0.23,0.52
11.53853487968445,2,3,3,2,-9.76,1.05,1.47,-0.36,-0.08,0.49
11.54853510856628,2,3,3,2,-9.59,1.04,1.22,-0.27,-0.28,0.5600000000000001
11.55853509902954,2,3,3,2,-9.65,1.13,1.21,0.39,-0.36,0.75
11.5685350894928,2,3,3,2,-9.68,1.03,1.1,0.6899999999999999,-0.09,1.03
11.57853507995605,2,3,3,2,-9.73,1.08,1.03,0.9,-0.15,1.36
11.58853507041931,2,3,3,2,-9.84,1.03,1.17,1.15,0.11,1.6
11.59853506088257,2,3,3,2,-9.82,1.01,1.15,0.93,0.25,1.69
11.60853505134583,2,3,3,2,-9.789999999999999,0.99,1.04,1.29,0.14,1.61
11.61853504180908,2,3,3,2,-9.82,0.93,1.03,1.65,0.14,1.49
11.62853503227234,2,3,3,2,-9.789999999999999,0.89,1.03,1.63,0.19,1.33
11.6385350227356,2,3,3,2,-9.890000000000001,0.92,1.14,1.94,0.21,1.22
11.64853501319885,2,3,3,2,-10,0.91,1.16,2.08,0.22,0.97
11.65853500366211,2,3,3,2,-10,1.13,1.06,2.08,0.22,0.97
11.66853499412537,2,3,3,2,-9.949999999999999,1.18,0.96,1.97,0.1,0.91
11.67853498458862,2,3,3,2,-9.81,1.24,1.01,1.19,-0.39,0.8
11.68853497505188,2,3,3,2,-9.67,1.29,1.18,0.79,-0.61,0.68
11.69853496551514,2,3,3,2,-9.65,1.27,1.25,0.58,-0.99,0.53
11.70853495597839,2,3,3,2,-9.550000000000001,1.23,1.15,0.65,-1.25,0.3
11.71853494644165,2,3,3,2,-9.57,1.21,1.07,0.52,-1.13,0.05
11.72853493690491,2,3,3,2,-9.58,1.04,1.19,0.34,-1.02,-0.19
11.73853492736816,2,3,3,2,-9.66,1,1.3,0.23,-0.93,-0.36
11.74853491783142,2,3,3,2,-9.779999999999999,1.07,1.47,0.19,-0.92,-0.42
11.75853490829468,2,3,3,2,-9.93,1.14,1.65,0.27,-1.17,-0.4
11.76853489875793,2,3,3,2,-10.13,1.45,1.7,0.6899999999999999,-1.47,-0.34
11.77853488922119,2,3,3,2,-10.18,1.64,1.76,1.34,-1.66,-0.3
11.78853487968445,2,3,3,2,-10.16,1.8,1.68,1.99,-1.75,-0.25
11.79853510856628,2,3,3,2,-10.11,2.05,1.58,2.4,-1.8,-0.22
11.80853509902954,2,3,3,2,-9.789999999999999,2.48,1.39,2.4,-1.83,-0.22
11.8185350894928,2,3,3,2,-9.529999999999999,2.63,1.22,2.05,-1.86,-0.18
11.82853507995605,2,3,3,2,-9.26,2.69,1.21,1.35,-1.61,-0.23
11.83853507041931,2,3,3,2,-9.130000000000001,2.67,1.32,0.18,-1.37,-0.37
11.84853506088257,2,3,3,2,-8.99,2.6,2.05,-0.98,-1.28,-0.7
11.85853505134583,2,3,3,2,-9.06,2.5,2.31,-1.69,-1.5,-1.13
11.86853504180908,2,3,3,2,-9.16,2.42,2.31,-1.77,-1.95,-1.72
11.87853503227234,2,3,3,2,-9.24,2.19,2.41,-1.74,-2.05,-2.4
11.8885350227356,2,3,3,2,-9.529999999999999,1.76,2.98,-1.98,-1.93,-2.99
11.89853501319885,2,3,3,2,-9.59,1.48,3.1,-2.43,-1.82,-3.27
11.90853500366211,2,3,3,2,-9.57,1.22,3.09,-2.74,-1.55,-3.17
11.91853499412537,2,3,3,2,-9.630000000000001,0.63,2.94,-3.17,-1.28,-2.67
11.92853498458862,2,3,3,2,-9.51,0.18,2.98,-3.56,-1.4,-1.98
11.93853497505188,2,3,3,2,-9.42,-0.14,3.17,-3.6,-1.53,-1.54
11.94853496551514,2,3,3,2,-9.51,-0.41,3.61,-3.62,-2.01,-1.45
11.95853495597839,2,3,3,2,-9.539999999999999,-0.84,3.93,-2.79,-3.21,-1.63
11.96853494644165,2,3,3,2,-9.67,-0.83,3.92,-1.04,-4.17,-1.94
11.97853493690491,2,3,3,2,-9.960000000000001,-0.77,3.89,0.5600000000000001,-4.52,-2.2
11.98853492736816,2,3,3,2,-10.21,-0.68,3.63,2.01,-4.34,-2.18
11.99853491783142,2,3,3,2,-10.72,-0.33,3.17,2.82,-3.66,-1.74
12.00853490829468,2,3,3,2,-10.79,-0.06,2.99,3.07,-2.92,-0.8
12.01853489875793,2,3,3,2,-10.67,0.16,2.76,3,-2.27,0.47
12.02853488922119,2,3,3,2,-10.42,0.35,2.64,2.92,-1.73,1.71
12.03853487968445,2,3,3,2,-9.699999999999999,0.86,2.79,2.64,-1.71,2.59
12.04853510856628,2,3,3,2,-9.449999999999999,1.11,2.99,2.1,-2.36,3
12.05853509902954,2,3,3,2,-9.050000000000001,1.27,3.06,1.85,-3.1,2.86
12.0685350894928,2,3,3,2,-8.66,1.46,2.96,1.78,-3.71,2.35
12.07853507995605,2,3,3,2,-8.27,1.5,3.06,1.41,-4,1.6
12.08853507041931,2,3,3,2,-7.99,1.51,3.1,0.91,-3.87,0.75
12.09853506088257,2,3,3,2,-7.86,1.34,3.12,0.2,-3.88,0
12.10853505134583,2,3,3,2,-7.87,1.01,3.21,-0.4,-3.25,-0.78
12.11853504180908,2,3,3,2,-7.94,0.8,3.24,-0.95,-2.65,-1.39
12.12853503227234,2,3,3,2,-8.119999999999999,0.6,3.33,-1.21,-2.35,-1.91
12.1385350227356,2,3,3,2,-8.279999999999999,0.32,3.33,-1.29,-2.25,-2.22
12.14853501319885,2,3,3,2,-8.83,-0.05,3.36,-1.23,-2.03,-2.38
12.15853500366211,2,3,3,2,-9.16,-0.17,3.38,-1.22,-1.77,-2.35
12.16853499412537,2,3,3,2,-9.23,-0.31,3.26,-1.03,-1.66,-2.18
12.17853498458862,2,3,3,2,-9.24,-0.39,3.24,-0.58,-2.17,-2.01
12.18853497505188,2,3,3,2,-9,-0.75,3.36,0.02,-2.35,-1.94
12.19853496551514,2,3,3,2,-8.869999999999999,-0.79,3.54,0.79,-2.21,-1.81
12.20853495597839,2,3,3,2,-8.83,-0.9399999999999999,3.55,1.36,-1.94,-1.55
12.21853494644165,2,3,3,2,-8.73,-1.07,3.47,1.98,-1.39,-1.26
12.22853493690491,2,3,3,2,-8.52,-0.97,3.55,2.46,-0.87,-0.93
12.23853492736816,2,3,3,2,-8.51,-0.85,3.71,2.75,-0.51,-0.7
12.24853491783142,2,3,3,2,-8.539999999999999,-0.6899999999999999,3.79,3.11,-0.59,-0.62
12.25853490829468,2,3,3,2,-8.48,-0.6,3.78,3.39,-0.9399999999999999,-0.6899999999999999
12.26853489875793,2,3,3,2,-8.51,-0.53,3.6,3.34,-0.96,-0.93
12.27853488922119,2,3,3,2,-8.529999999999999,-0.53,3.55,3.22,-0.74,-1.22
12.28853487968445,2,3,3,2,-8.66,-0.44,3.55,3.37,-0.34,-1.43
12.29853510856628,2,3,3,2,-9.140000000000001,-0.24,3.72,3.58,0.12,-1.49
12.30853509902954,2,3,3,2,-9.300000000000001,-0.17,3.6,4.12,0.13,-1.47
12.3185350894928,2,3,3,2,-9.31,-0.11,3.47,4.71,0.08,-1.47
12.32853507995605,2,3,3,2,-9.31,-0.02,3.58,5.12,0.36,-1.51
12.33853507041931,2,3,3,2,-9.039999999999999,0.13,3.68,5.45,0.72,-1.56
12.34853506088257,2,3,3,2,-8.93,0.09,3.76,5.53,0.93,-1.53
12.35853505134583,2,3,3,2,-8.91,0.06,3.8,5.22,1.06,-1.48
12.36853504180908,2,3,3,2,-8.9,0.01,3.81,4.89,1.2,-1.49
12.37853503227234,2,3,3,2,-8.82,-0.25,4.07,4.66,1.34,-1.53
12.3885350227356,2,3,3,2,-8.85,-0.4,4.29,4.46,1.46,-1.74
12.39853501319885,2,3,3,2,-8.880000000000001,-0.55,4.47,4.44,1.6,-1.96
12.40853500366211,2,3,3,2,-9.130000000000001,-0.83,4.75,4.52,1.84,-2.09
12.43853497505188,2,3,3,2,-11.06,-0.15,4.89,7.35,-2.22,-3.06
12.44953489303589,2,3,3,2,-11.63,0.28,4.51,8.779999999999999,-2.4,-3.19
12.45853495597839,2,3,3,2,-12.86,1.22,4.62,8.710000000000001,-2.44,-2.81
12.46853494644165,2,3,3,2,-13.15,1.96,4.15,8.25,-2.62,-2.14
12.47953510284424,2,3,3,2,-13.06,3.02,3.62,7.9,-2.9,-1.22
12.4895350933075,2,3,3,2,-12.9,3.92,2.57,6.98,-3.27,-0.37
12.49953508377075,2,3,3,2,-12.9,3.92,2.57,5.42,-2.76,0.63
12.50953507423401,2,3,3,2,-12.69,3.94,2.26,2.02,-1.79,1.37
12.51953506469727,2,3,3,2,-11.24,3.03,3.36,-2.96,-2.28,1.52
12.52953505516052,2,3,3,2,-8.699999999999999,1.47,5.07,-6.05,-3.96,1.01
12.53953504562378,2,3,3,2,-7.57,0.53,5.25,-6.87,-5.17,-0.59
12.54953503608704,2,3,3,2,-7.57,0.53,5.25,-7.17,-4.15,-2.95
12.55953502655029,2,3,3,2,-6.95,0,5.79,-6.32,-2.35,-4.62
12.56953501701355,2,3,3,2,-7.31,0.08,4.51,-3.64,-0.5,-4.76
12.57953500747681,2,3,3,2,-8.050000000000001,0.09,3.66,-1.3,1.79,-3.8
12.58953499794006,2,3,3,2,-8.65,-0.08,2.47,-0.07000000000000001,3.74,-2.33
12.59953498840332,2,3,3,2,-8.65,-0.08,2.47,-0.07000000000000001,3.74,-2.33
12.60953497886658,2,3,3,2,-9.33,0.33,2,0.15,7.16,1.53
12.61953496932983,2,3,3,2,-10.77,1.89,0.89,-0.97,6.69,3.64
12.62953495979309,2,3,3,2,-10.42,2.16,0.92,-1.93,5.21,5.01
12.63953495025635,2,3,3,2,-9.65,2.26,1.19,-2.02,3.33,5.33
12.6495349407196,2,3,3,2,-9.65,2.26,1.19,-2.02,3.33,5.33
12.65953493118286,2,3,3,2,-8.029999999999999,2.36,1.89,-1.37,1.84,4.96
12.66953492164612,2,3,3,2,-7.21,2.33,2.04,-0.98,0.75,3.62
12.67953491210938,2,3,3,2,-7.29,2.23,2.01,-0.87,1.3,3.05
12.68953490257263,2,3,3,2,-7.89,1.96,1.68,-0.86,2,2.47
12.69953489303589,2,3,3,2,-7.89,1.96,1.68,-0.86,2,2.47
12.70953488349915,2,3,3,2,-8.19,1.9,1.62,-0.58,2.38,1.7
12.71953511238098,2,3,3,2,-8.970000000000001,2.13,1.15,0.46,1.4,0.3
12.72953510284424,2,3,3,2,-9.199999999999999,2.27,1.19,0.5600000000000001,1,-0.35
12.7395350933075,2,3,3,2,-9.369999999999999,2.33,1.25,0.46,0.75,-0.82
12.74953508377075,2,3,3,2,-9.369999999999999,2.33,1.25,0.46,0.75,-0.82
12.75953507423401,2,3,3,2,-9.56,2.4,1.4,0.21,0.58,-1.12
12.76953506469727,2,3,3,2,-9.539999999999999,2.16,1.49,-1.06,0.26,-1.17
12.77953505516052,2,3,3,2,-9.31,2.17,1.41,-1.28,0.6,-0.6899999999999999
12.78953504562378,2,3,3,2,-8.949999999999999,2.23,1.45,-1.34,1.57,0.13
12.79953503608704,2,3,3,2,-8.6,2.29,1.51,-1.34,1.57,0.13
12.80953502655029,2,3,3,2,-8.27,2.19,1.58,-1.43,2.99,0.96
12.81953501701355,2,3,3,2,-8.31,2.21,1.46,-2.08,5.51,2.2
12.82953500747681,2,3,3,2,-8.52,2.27,1.41,-2.71,6.08,2.45
12.83953499794006,2,3,3,2,-8.630000000000001,2.3,1.39,-2.75,5.96,2.49
12.84953498840332,2,3,3,2,-9.029999999999999,2.62,1.18,-2.75,5.96,2.49
12.85953497886658,2,3,3,2,-9.26,2.89,0.98,-2.99,6.05,2.31
12.86953496932983,2,3,3,2,-9.59,2.9,0.87,-4.87,5.89,1.8
12.87953495979309,2,3,3,2,-9.539999999999999,3.01,0.64,-6.23,5.48,1.74
12.88953495025635,2,3,3,2,-9.33,2.49,0.71,-7.72,5.78,2.05
12.8995349407196,2,3,3,2,-9.449999999999999,2.33,0.9399999999999999,-7.72,5.78,2.05
12.90953493118286,2,3,3,2,-9.32,1.7,1.03,-9.359999999999999,5.44,2.01
12.91953492164612,2,3,3,2,-9.300000000000001,0.79,1.39,-10.35,4.83,1.81
12.92953491210938,2,3,3,2,-9.34,0.24,1.37,-9.789999999999999,4.46,1.54
12.93953490257263,2,3,3,2,-9.369999999999999,-0.12,1.68,-8.710000000000001,4.15,1.39
12.94953489303589,2,3,3,2,-9.52,-0.47,1.87,-8.710000000000001,4.15,1.39
12.95953488349915,2,3,3,2,-9.92,-0.64,1.86,-6.84,3.88,1.38
12.96953511238098,2,3,3,2,-10.08,-0.4,1.8,-2.71,3.64,1.86
12.97953510284424,2,3,3,2,-10.11,-0.23,1.61,-1.36,3.65,2.5
12.9895350933075,2,3,3,2,-9.99,-0.03,1.27,-0.65,3.66,3.26
12.99953508377075,2,3,3,2,-9.76,0.51,1.49,-0.65,3.66,3.26
13.00953507423401,2,3,3,2,-9.76,0.76,1.65,-0.9,3.22,4.01
13.01953506469727,2,3,3,2,-9.640000000000001,0.96,1.67,-1.02,1.41,4.39
13.02953505516052,2,3,3,2,-9.65,1.12,1.64,-1.01,0.46,3.69
13.03953504562378,2,3,3,2,-9.550000000000001,0.87,1.64,-1.23,-0.31,3.23
13.04953503608704,2,3,3,2,-9.67,1.03,1.83,-1.23,-0.31,3.23
13.05953502655029,2,3,3,1,-10.12,0.96,1.8,-0.91,0.01,2.8
13.06953501701355,2,3,3,1,-10.05,1,1.81,-1.01,-0.87,2.22
13.07953500747681,2,3,3,1,-9.890000000000001,1.02,1.63,-1.5,-0.78,2.2
13.08953499794006,2,3,3,1,-9.869999999999999,0.97,1.64,-2.24,-0.83,2.2
13.09953498840332,2,3,3,1,-9.779999999999999,0.8100000000000001,1.66,-2.24,-0.83,2.2
13.10953497886658,2,3,3,1,-9.51,0.64,1.69,-3.03,-0.91,2.24
13.11953496932983,2,3,3,1,-9.460000000000001,0.62,1.66,-4.18,-0.88,2.33
13.12953495979309,2,3,3,1,-9.449999999999999,0.6,1.64,-4.56,-0.89,2.24
13.13953495025635,2,3,3,1,-9.52,0.54,1.58,-4.61,-0.9,2
13.1495349407196,2,3,3,1,-9.640000000000001,0.46,1.4,-4.61,-0.9,2
13.15953493118286,2,3,3,1,-9.66,0.44,1.4,-4.9,-0.6899999999999999,1.7
13.16953492164612,2,3,3,1,-9.68,0.5,1.47,-5.2,-0.38,1.6
13.17953491210938,2,3,3,1,-9.74,0.48,1.46,-5.27,0.08,1.78
13.18953490257263,2,3,3,1,-10.08,0.29,1.68,-5.07,0.8100000000000001,2.05
13.19953489303589,2,3,3,1,-10.28,0.19,1.7,-4.93,1.41,2.22
13.20953488349915,2,3,3,1,-10.36,0.11,1.83,-5.05,1.65,2.38
13.21953511238098,2,3,3,1,-10.51,0.11,2.07,-5.87,1.75,2.69
13.22953510284424,2,3,3,1,-10.7,0.17,2.31,-6.88,1.67,3.11
13.2395350933075,2,3,3,1,-10.77,0.25,2.66,-7.64,1.6,3.48
13.24953508377075,2,3,3,1,-10.77,0.28,2.7,-7.95,1.5,3.73
13.25953507423401,2,3,3,0,-10.77,0.25,2.76,-7.3,1.5,3.67
13.26953506469727,2,3,3,0,-10.89,-0.09,2.56,-6.85,1.83,3.1
13.27953505516052,2,3,3,0,-10.68,-0.21,1.88,-5.64,2.34,2.22
13.28953504562378,2,3,3,0,-10.61,-0.28,1.93,-4.25,4.01,1.43
13.29953503608704,2,3,3,0,-11.48,-0.7,2.42,-4.57,5.68,0.96
13.30953502655029,2,3,3,0,-12.12,-0.5600000000000001,2.75,-4.41,6.57,0.68
13.31953501701355,2,3,3,0,-12.5,-0.32,2.57,-3.54,6.59,0.55
13.32953500747681,2,3,3,0,-12.58,-0.04,1.65,-1.52,6.36,0.63
13.33953499794006,2,3,3,0,-12.56,0.63,0.6899999999999999,1.64,6.77,0.65
13.34953498840332,2,3,3,0,-12.52,1.18,0.63,4.28,7.31,0.61
13.35953497886658,2,3,3,0,-12.36,1.98,0.29,6.75,6.6,0.66
13.36953496932983,2,3,3,0,-11.97,3.65,0.06,9.699999999999999,5.31,0.39
13.37953495979309,2,3,3,0,-10.49,4.27,0.1,10.24,3.79,-1.15
13.38953495025635,2,3,3,0,-9.92,5.9,-0.04,9.33,2.99,-0.07000000000000001
13.3995349407196,2,3,3,0,-9.630000000000001,6.51,-0.63,10.05,4.16,-0.21
13.40953493118286,2,3,3,0,-8.949999999999999,6.84,-0.99,7.95,3.39,-0.84
13.41953492164612,2,3,3,0,-7.82,6.98,-0.41,4.44,1.85,-1.99
13.42953491210938,2,3,3,0,-7.59,6.95,0.35,-0.3,0.67,-3.61
13.43953490257263,2,3,3,0,-7.27,6.43,1,-5.27,-0.11,-5.26
13.44953489303589,2,3,3,0,-7.22,5.77,1.44,-9.539999999999999,-0.05,-6.75
13.45953488349915,2,3,3,0,-7.72,4.09,1.8,-12.13,0.21,-8.1
13.46953511238098,2,3,3,0,-8.119999999999999,3.1,1.99,-13.32,0.87,-9.43
13.47953510284424,2,3,3,0,-8.380000000000001,2.09,2.07,-13.09,0.75,-10.51
13.4895350933075,2,3,3,0,-8.76,1.21,2.24,-11.92,-0.46,-11.1
13.5005350112915,2,3,3,0,-9.82,-0.08,2.45,-10.18,-2.14,-11.16
13.51053500175476,2,3,3,0,-10.35,-0.64,2.39,-8.08,-3.74,-10.65
13.52053499221802,2,3,3,0,-10.93,-0.76,2.32,-5.8,-4.66,-9.92
13.53053498268127,2,3,3,0,-11.33,-0.49,1.83,-3.32,-5.3,-8.57
13.54053497314453,2,3,3,0,-11.25,-0.16,1.58,-0.85,-5.76,-7.09
13.55053496360779,2,3,3,0,-10.89,0.14,1.45,1.25,-6.08,-5.58
13.56053495407104,2,3,3,0,-10.5,0.45,1.44,2.69,-6.35,-4.09
13.5705349445343,2,3,3,0,-9.83,0.82,1.62,3.28,-6.66,-2.77
13.58053493499756,2,3,3,0,-9.43,0.82,1.72,3.36,-7.03,-1.86
13.59053492546082,2,3,3,0,-8.970000000000001,0.73,1.98,3.42,-7.05,-1.58
13.60053491592407,2,3,3,0,-8.699999999999999,0.71,2.22,3.37,-7.35,-1.84
13.61053490638733,2,3,3,0,-8,0.83,2.54,3.43,-7.56,-2.38
13.62053489685059,2,3,3,0,-7.71,0.98,2.67,3.72,-7.88,-3.01
13.63053488731384,2,3,3,0,-7.64,1.08,2.6,3.86,-7.87,-3.5
13.6405348777771,2,3,3,0,-7.66,1.07,2.5,4.23,-7.66,-3.87
13.65053510665894,2,3,3,0,-7.72,1.14,2.39,4.72,-7.35,-4.07
13.66053509712219,2,3,3,0,-7.7,1.07,2.22,4.77,-6.66,-3.95
13.67053508758545,2,3,3,0,-7.82,0.96,2.16,4.35,-5.6,-3.42
13.68053507804871,2,3,3,0,-7.96,0.78,2.12,3.39,-4.17,-2.55
13.69053506851196,2,3,3,0,-8.02,0.8,2.17,2.45,-3.01,-1.59
13.70053505897522,2,3,3,0,-8.07,0.4,2.4,1.58,-3.19,-1.08
13.71053504943848,2,3,3,0,-7.93,0.3,2.54,1.17,-3.34,-0.57
13.72053503990173,2,3,3,0,-7.88,-0.14,2.65,1.94,-3.18,-0.23
13.73053503036499,2,3,3,0,-7.77,-0.29,2.5,2.77,-3.28,-0.34
13.74053502082825,2,3,3,0,-7.72,-0.45,2.46,3.95,-3.11,-0.46
13.7505350112915,2,3,3,0,-7.84,-0.45,2.72,4.79,-2.49,-0.64
13.76053500175476,2,3,3,0,-7.95,-0.37,2.79,4.73,-1.95,-0.66
13.77053499221802,2,3,3,0,-7.65,-0.4,2.37,4.38,-1.93,-0.24
13.78053498268127,2,3,3,0,-7.8,-0.48,2.44,4.64,-1.46,0.13
13.79053497314453,2,3,3,0,-8.07,-0.63,2.67,4.19,-0.25,0.23
13.80053496360779,2,3,3,0,-8.130000000000001,-1.13,2.9,3.4,0.45,0.2
13.81053495407104,2,3,3,0,-8.109999999999999,-1.43,3.07,2.63,0.83,0.05
13.8205349445343,2,3,3,0,-8.07,-1.68,3.14,1.94,0.86,-0.28
13.83053493499756,2,3,3,0,-8.109999999999999,-1.89,3.21,1.68,0.67,-0.74
13.84053492546082,2,3,3,0,-8.51,-1.93,3.72,1.95,0.64,-1.28
13.85053491592407,2,3,3,0,-8.65,-1.86,3.79,2.71,0.21,-1.83
13.86053490638733,2,3,3,0,-8.76,-1.7,3.73,5.55,-0.95,-2.5
13.87053489685059,2,3,3,0,-8.91,-1.41,3.53,5.55,-0.95,-2.5
13.88053488731384,2,3,3,0,-9.380000000000001,-0.36,3.26,7.68,-1.12,-2.53
13.8905348777771,2,3,3,0,-9.73,0.22,2.94,12.02,-0.39,-1.63
13.90053510665894,2,3,3,0,-10.3,0.79,2.54,13,0.6899999999999999,-0.78
13.91053509712219,2,3,3,0,-11.8,0.83,2.81,11.76,1.66,-0.04
13.92053508758545,2,3,3,0,-12.39,0.35,3.24,8.789999999999999,1.42,0.05
13.93053507804871,2,3,3,0,-12.57,-0.21,3.53,4.87,0.3,-0.7
13.94053506851196,2,3,3,0,-12.2,-0.85,3.75,1.22,-0.51,-2.11
13.95053505897522,2,3,3,0,-11.24,-2.9,5.2,-0.75,-0.62,-3.59
13.96053504943848,2,3,3,0,-10.81,-3.14,6.33,0.17,-0.8100000000000001,-4.39
13.97053503990173,2,3,3,0,-10.83,-2.66,7.17,3.11,-4.16,-6.34
13.98053503036499,2,3,3,0,-10.81,-2.41,7.08,8.699999999999999,-8.99,-7.92
13.99053502082825,2,3,3,0,-12.33,-1.01,5.35,15.02,-9.949999999999999,-8.390000000000001
14.0005350112915,2,3,3,0,-14.46,-0.47,5.64,16.69,-7.32,-8.130000000000001
14.01053500175476,2,3,3,0,-16.43,0.83,4.98,15.08,-4.43,-6.5
14.02053499221802,2,3,3,0,-17.21,2.37,2.91,12.04,-0.38,-2.67
14.03053498268127,2,3,3,0,-17.25,4.47,-0.05,6.47,1.89,1.68
14.04053497314453,2,3,3,0,-15.1,3.91,0.93,-0.63,-1.16,4.98
14.05053496360779,2,3,3,0,-11.48,3.72,3.27,-5.93,-6.83,6.63
14.06053495407104,2,3,3,0,-8.539999999999999,3.38,4.99,-8.15,-9.56,6.24
14.0705349445343,2,3,3,0,-5.99,2.78,5.43,-6.52,-8.109999999999999,4.17
14.08053493499756,2,3,3,0,-6.07,1.91,5.04,-3.78,-4.86,1.5
14.09053492546082,2,3,3,0,-6.68,0.87,4.75,-0.99,-1.25,-0.7
14.10053491592407,2,3,3,0,-8.199999999999999,0.01,2.53,1.9,2.49,-1.67
14.11053490638733,2,3,3,0,-8.65,0.12,1.12,4.18,5.91,-1.14
14.12053489685059,2,3,3,0,-8.970000000000001,0.47,-0.03,5.09,7.88,0.71
14.13053488731384,2,3,3,0,-9.32,1.08,-0.83,5,8.01,3.33
14.1405348777771,2,3,3,0,-9.619999999999999,2.41,-0.5,4.46,6.3,5.64
14.15053510665894,2,3,3,0,-9.35,2.94,0.32,3.86,3.42,6.64
14.16053509712219,2,3,3,0,-8.880000000000001,3.23,0.84,3.32,0.63,6.43
14.17053508758545,2,3,3,0,-8.210000000000001,3.2,1.05,3.32,-0.55,5.41
14.18053507804871,2,3,3,0,-7.21,3.03,1.22,3.31,-0.48,4.13
14.19053506851196,2,3,3,0,-6.97,2.99,1.55,3.13,0.1,3.24
14.20053505897522,2,3,3,0,-7.02,2.89,1.68,3.27,0.41,2.81
14.21053504943848,2,3,3,0,-7,2.78,1.51,3.64,0.78,2.55
14.22053503990173,2,3,3,0,-7.02,2.72,1.28,3.6,1.69,2.36
14.23053503036499,2,3,3,0,-7.03,2.82,1.19,3.19,2.7,2.25
14.24053502082825,2,3,3,0,-7.09,2.97,1.06,2.34,3.41,2.14
14.2505350112915,2,3,3,0,-7.17,3.14,0.99,1.03,3.73,2.13
14.26053500175476,2,3,3,0,-7.8,3.35,1.32,-0.5600000000000001,3.9,2.15
14.27053499221802,2,3,3,0,-8.26,3.4,1.33,-1.75,3.9,2.08
14.28053498268127,2,3,3,0,-8.529999999999999,3.29,1.1,-2.47,3.89,1.98
14.29053497314453,2,3,3,0,-8.630000000000001,3.26,1.04,-3.2,4.44,2.06
14.30053496360779,2,3,3,0,-8.859999999999999,2.84,0.9,-3.93,5.55,2.49
14.31053495407104,2,3,3,0,-9.039999999999999,2.82,0.87,-4.38,6.69,3.14
14.3205349445343,2,3,3,0,-9.26,2.88,0.88,-4.7,7.13,3.97
14.33053493499756,2,3,3,0,-9.630000000000001,2.91,0.53,-5.28,6.82,4.21
14.34053492546082,2,3,3,0,-9.65,2.51,0.6,-6.38,6.2,3.98
14.35053491592407,2,3,3,0,-9.51,2.46,0.61,-7.43,5.65,3.5
14.36053490638733,2,3,3,0,-9.529999999999999,2.17,0.78,-8.48,4.64,2.82
14.37053489685059,2,3,3,0,-9.93,1.92,1.3,-8.800000000000001,3.51,2.16
14.38053488731384,2,3,3,0,-9.880000000000001,1.39,1.2,-8.699999999999999,2.78,1.46
14.3905348777771,2,3,3,0,-9.75,1.13,1.28,-8.140000000000001,2.74,0.9399999999999999
14.40053510665894,2,3,3,0,-9.630000000000001,0.79,1.34,-7.74,3.04,0.68
14.41053509712219,2,3,3,0,-9.68,0.08,1.58,-7.38,3.28,0.7
14.42053508758545,2,3,3,0,-9.58,-0.06,1.74,-6.99,3.09,1.05
14.43053507804871,2,3,3,0,-9.68,-0.02,1.72,-6.15,2.93,1.74
14.44053506851196,2,3,3,0,-9.77,0.13,1.81,-5.2,2.78,2.49
14.45053505897522,2,3,3,0,-9.81,0.42,2.1,-4.6,2.6,3.15
14.46053504943848,2,3,3,0,-9.58,0.55,1.91,-3.97,2.48,3.76
14.47053503990173,2,3,3,0,-9.43,0.6899999999999999,1.91,-3.62,2.41,4.33
14.48053503036499,2,3,3,0,-9.27,0.74,1.86,-3.72,2.3,4.75
14.49053502082825,2,3,3,0,-9.130000000000001,0.59,1.68,-3.63,2.21,4.92
14.5005350112915,2,3,3,0,-9.24,0.47,1.74,-3.6,2,4.89
14.51053500175476,2,3,3,0,-9.41,0.46,1.85,-3.56,1.46,4.66
14.52053499221802,2,3,3,0,-9.59,0.37,1.69,-3.57,0.8,4.29
14.53153491020203,2,3,3,0,-9.640000000000001,0.22,1.63,-3.84,0.52,3.95
14.54153490066528,2,3,3,0,-9.65,0.12,1.73,-4.14,-0.19,3.7
14.55153489112854,2,3,3,0,-9.67,0.05,1.81,-4.39,-0.8,3.38
14.5615348815918,2,3,3,1,-9.59,0.01,1.57,-4.36,-1.43,3
14.57153511047363,2,3,3,1,-9.48,-0.02,1.5,-4.41,-1.8,2.67
14.58153510093689,2,3,3,1,-9.359999999999999,-0.03,1.43,-4.83,-1.9,2.42
14.59153509140015,2,3,3,1,-9.19,0.02,1.54,-5.38,-1.96,2.34
14.6015350818634,2,3,3,1,-8.98,0.1,1.66,-6.01,-1.94,2.38
14.61153507232666,2,3,3,1,-9.050000000000001,0.12,1.37,-6.02,-1.72,2.42
14.62153506278992,2,3,3,1,-9.06,0.21,1.85,-5.85,-0.93,2.45
14.63153505325317,2,3,3,1,-9.02,0.31,2.42,-4.85,0.16,2.63
14.64153504371643,2,3,3,1,-9.18,0.08,1.7,-2.49,1.49,2.54
14.65153503417969,2,3,3,1,-9.6,-0.28,1.31,-1.49,3.02,2
14.66153502464294,2,3,3,1,-10.21,-0.55,1.54,-3.23,3.82,1.45
14.6715350151062,2,3,3,1,-10.9,-0.77,2.19,-6.04,3.1,1.22
14.68153500556946,2,3,3,1,-11.52,-0.36,2.9,-7.81,1.18,1.46
14.69153499603271,2,3,3,1,-11.53,-0.17,3.7,-8.130000000000001,-0.4,1.78
14.70153498649597,2,3,3,1,-11.52,-0.24,4.12,-7.31,-0.72,1.69
14.71153497695923,2,3,3,1,-11.69,-0.42,3.94,-5.1,0.22,0.99
14.72153496742249,2,3,3,1,-11.8,-0.6,3.39,-2.87,2.59,-0.33
14.73153495788574,2,3,3,1,-11.67,-1.03,2.43,-0.58,5.66,-2.03
14.741534948349,2,3,3,1,-11.2,-1.54,1.69,1.57,8.619999999999999,-2.67
14.75153493881226,2,3,3,1,-12.75,-0.49,2.42,2.67,11.16,-1.46
14.76153492927551,2,3,3,1,-12.75,-0.49,2.42,3.22,11.75,-0.01
14.77153491973877,2,3,3,1,-13.53,0.38,1.81,5.11,10.6,1.08
14.78153491020203,2,3,3,1,-13.66,3.21,-0.43,6.58,8.890000000000001,1.34
14.79153490066528,2,3,3,1,-12.53,4.1,-0.89,7.52,6.56,1.79
14.80153489112854,2,3,3,1,-11.33,5.19,-1.16,9.91,4.37,2.12
14.8115348815918,2,3,3,1,-11.33,5.19,-1.16,9.91,4.37,2.12
14.82153511047363,2,3,3,1,-9.84,6.26,-1.28,11.17,2.74,1.57
14.83153510093689,2,3,3,1,-7.79,8.67,-0.82,6.22,4.29,-1.18
14.84153509140015,2,3,3,1,-7.83,8.800000000000001,-0.55,1.9,5.05,-4.32
14.8515350818634,2,3,3,1,-8.390000000000001,8.460000000000001,0.04,-3.9,4.59,-8.140000000000001
14.86153507232666,2,3,3,1,-8.390000000000001,8.460000000000001,0.04,-3.9,4.59,-8.140000000000001
14.87153506278992,2,3,3,1,-9.130000000000001,8.050000000000001,0.79,-9.81,2.18,-11.67
14.88153505325317,2,3,3,1,-10.48,4.69,2.56,-17.12,-2.17,-15.71
14.89153504371643,2,3,3,1,-9.869999999999999,3.01,2.37,-16.83,-2.3,-15.9
14.90153503417969,2,3,3,1,-9.869999999999999,3.01,2.37,-16.05,-0.72,-15.26
14.91153502464294,2,3,3,1,-9.880000000000001,1.37,2.43,-16.05,-0.72,-15.26
14.9215350151062,2,3,3,1,-10.05,-2.32,2.4,-14,0.48,-14.34
14.93153500556946,2,3,3,1,-10.51,-3.14,2.49,-5.16,0.92,-9.949999999999999
14.94153499603271,2,3,3,1,-10.94,-3.49,2.29,-0.65,-1.29,-7.56
14.95153498649597,2,3,3,1,-11.35,-2.23,1.68,2.86,-3.88,-5.38
14.96153497695923,2,3,3,1,-10.95,-1.28,1.21,2.86,-3.88,-5.38
14.97153496742249,2,3,3,1,-10.44,-0.52,0.9399999999999999,4.84,-6.15,-3.49
14.98153495788574,2,3,3,1,-10.25,-0.21,1.09,7.06,-8.74,-1.87
14.991534948349,2,3,3,1,-9.130000000000001,0.93,1.3,7.66,-9.529999999999999,-1.09
15.00153493881226,2,3,3,1,-8.69,1.21,1.63,7.48,-9.380000000000001,-0.73
15.01153492927551,2,3,3,2,-8.359999999999999,1.28,1.77,7.48,-9.380000000000001,-0.73
15.02153491973877,2,3,3,2,-7.74,1.42,1.79,7.65,-9.91,-0.78
15.03153491020203,2,3,3,2,-6.5,1.26,1.74,7.57,-9.56,-1.31
15.04153490066528,2,3,3,2,-6.37,1.01,1.7,7.6,-9.17,-1.97
15.05153489112854,2,3,3,2,-6.27,1.03,1.81,7.41,-8.380000000000001,-2.69
15.0615348815918,2,3,3,2,-6.27,1.06,1.91,7.41,-8.380000000000001,-2.69
15.07153511047363,2,3,3,2,-6.67,1.26,2.14,6.88,-7.29,-3.57
15.08153510093689,2,3,3,2,-6.96,1.56,2.3,5.18,-5.2,-4.39
15.09153509140015,2,3,3,2,-7.25,1.5,2.24,3.84,-3.85,-4.23
15.1015350818634,2,3,3,2,-7.63,1.49,2.56,2.13,-3.61,-3.88
15.11153507232666,2,3,3,2,-8.65,1.32,2.76,2.13,-3.61,-3.88
15.12153506278992,2,3,3,2,-8.33,0.9399999999999999,1.92,1.27,-4.39,-3.11
15.13153505325317,2,3,3,2,-8,0.4,1.93,2.4,-1.15,0.03
15.14153504371643,2,3,3,2,-8.32,-0.04,2.37,1.65,-0.8,0.4
15.15153503417969,2,3,3,2,-8.26,-0.27,2.57,2.09,-0.76,0.86
15.16153502464294,2,3,3,2,-8.08,-0.47,2.69,2.09,-0.76,0.86
15.1715350151062,2,3,3,2,-7.84,-0.74,2.47,2.49,-0.77,0.95
15.18153500556946,2,3,3,2,-7.48,-0.96,2.3,2.58,0.25,0.93
15.19153499603271,2,3,3,2,-7.39,-1.04,2.19,2.39,0.72,0.79
15.20153498649597,2,3,3,2,-7.46,-1.11,2.52,1.99,0.91,0.5600000000000001
15.21153497695923,2,3,3,2,-7.81,-1.16,3.02,1.99,0.91,0.5600000000000001
15.22153496742249,2,3,3,2,-8.26,-1.64,3.15,1.63,0.2,0.21
15.23153495788574,2,3,3,2,-8.210000000000001,-2.06,2.99,2.55,-0.76,-0.8
15.241534948349,2,3,3,2,-8.34,-2.3,3.01,3.46,-0.04,-1.32
15.25153493881226,2,3,3,2,-8.73,-2.42,3.35,4.78,0.32,-1.59
15.26153492927551,2,3,3,2,-9.5,-1.97,3.52,4.78,0.32,-1.59
15.27153491973877,2,3,3,2,-9.789999999999999,-1.64,3.34,6.63,0.47,-1.6
15.28153491020203,2,3,3,2,-10.15,-1.09,3.25,10.68,-0.14,-1.18
15.29153490066528,2,3,3,2,-10.55,-0.63,3.14,12.68,-1.24,-0.78
15.30153489112854,2,3,3,2,-10.81,0.38,2.58,14.67,-1.91,-0.27
15.3115348815918,2,3,3,2,-10.87,0.74,2.16,14.67,-1.91,-0.27
15.32153511047363,2,3,3,2,-11.25,0.87,2.31,15.25,-1.43,0.27
15.33153510093689,2,3,3,2,-12.63,0.91,3.98,12.84,-0.71,0.61
15.34153509140015,2,3,3,2,-12.87,0.6,4.4,8.07,-0.96,0.46
15.3515350818634,2,3,3,2,-12.32,0.14,4.7,3.42,-2.32,-0.35
15.36153507232666,2,3,3,2,-11.52,-0.7,5.28,-0.22,-3.12,-1.68
15.37153506278992,2,3,3,2,-9.609999999999999,-2.12,6.73,-2.63,-3.31,-2.64
15.38153505325317,2,3,3,2,-9.470000000000001,-2.75,6.99,-2.03,-4.8,-4.69
15.39153504371643,2,3,3,2,-9.890000000000001,-2.57,6.17,0.89,-7.57,-6.67
15.40153503417969,2,3,3,2,-11.11,-2.15,5.86,6.99,-8,-7.79
15.41153502464294,2,3,3,2,-15.02,-1.85,6.04,10.14,-6.2,-7.79
15.4215350151062,2,3,3,2,-15.64,-0.46,4.67,10.44,-4.86,-7.07
15.43153500556946,2,3,3,2,-15.81,1.73,2.66,11.29,-3.19,-5.15
15.44153499603271,2,3,3,2,-16.18,4.02,0.74,10.95,-1.13,-2.51
15.45153498649597,2,3,3,2,-14.57,4.48,0.38,6.74,-0.48,1.53
15.46153497695923,2,3,3,2,-12.85,4.45,2.36,0.49,-1.35,5.43
15.47153496742249,2,3,3,2,-11.23,4.25,3.28,-4.89,-4.94,7.1
15.48153495788574,2,3,3,2,-9.1,3.67,3.89,-6.41,-8.76,6.02
15.491534948349,2,3,3,2,-5.26,1.62,3.84,-6.53,-9.02,3.54
15.50153493881226,2,3,3,2,-4.62,0.85,3.56,-5.87,-5.75,1.21
15.51153492927551,2,3,3,2,-4.75,0.45,3.21,-3.53,-1.23,-0.63
15.52153491973877,2,3,3,2,-5.84,0.2,1.57,0.52,1.72,-1.64
15.53153491020203,2,3,3,2,-6.96,0.7,0.88,4.84,3.83,-1.49
15.54153490066528,2,3,3,2,-8.279999999999999,1.3,-0.14,6.44,6.38,-0.21
15.55253505706787,2,3,3,2,-9.710000000000001,2.13,-0.64,5.81,8.49,1.74
15.56253504753113,2,3,3,2,-11.82,3.73,-0.17,4.28,8.52,3.87
15.57253503799438,2,3,3,2,-11.66,4,0.47,2.88,5.89,5.19
15.58253502845764,2,3,3,2,-10.44,4.11,0.78,1.96,2.2,5.43
15.5925350189209,2,3,3,2,-8.99,4.14,1.11,1.46,-0.61,4.69
15.60253500938416,2,3,3,2,-6.93,3.74,1.59,1.01,-1.9,3.98
15.61253499984741,2,3,3,2,-6.3,3.43,1.72,0.79,-1.83,3.48
15.62253499031067,2,3,3,2,-6.17,3.21,1.83,0.58,-0.42,3.03
15.63253498077393,2,3,3,2,-6.27,3.06,1.74,0.35,1.33,2.7
15.64253497123718,2,3,3,2,-6.65,3.13,1.19,0.28,2.94,2.46
15.65253496170044,2,3,3,2,-7.12,3.25,1.18,-0.47,4.3,2.42
15.6625349521637,2,3,3,2,-7.69,3.5,1.15,-1.66,5.22,2.54
15.67253494262695,2,3,3,2,-8.01,3.72,1.16,-3.05,5.39,2.3
15.68253493309021,2,3,3,2,-8.35,3.25,1.32,-4.98,4.91,2.27
15.69253492355347,2,3,3,2,-8.630000000000001,3.12,1.12,-6.54,5.26,2.63
15.70253491401672,2,3,3,2,-8.76,3.17,0.98,-7.66,5.46,2.96
15.71253490447998,2,3,3,2,-8.84,2.58,1.12,-8.699999999999999,5.62,3
15.72253489494324,2,3,3,2,-9.09,2.12,1.11,-9.6,5.88,3.19
15.73253488540649,2,3,3,2,-9.35,1.54,1.15,-10.01,6.19,3.21
15.74253487586975,2,3,3,2,-9.57,0.95,1.17,-10.39,6.17,2.79
15.75253510475159,2,3,3,2,-9.52,0.31,1.47,-10.44,5.71,2.19
15.76253509521484,2,3,3,2,-9.76,0.02,1.61,-9.99,5.31,1.7
15.7725350856781,2,3,3,2,-9.74,0.07000000000000001,1.62,-9.23,4.19,1.35
15.78253507614136,2,3,3,2,-9.890000000000001,0.09,1.56,-7.79,3.21,1.27
15.79253506660461,2,3,3,2,-10.02,-0.17,1.37,-6.54,2.89,1.29
15.80253505706787,2,3,3,2,-9.83,-0.19,1.58,-5.48,2.31,1.42
15.81253504753113,2,3,3,2,-9.380000000000001,-0.16,1.67,-5.11,1.6,1.77
15.82253503799438,2,3,3,2,-9.300000000000001,0,1.93,-5.1,1.73,2.42
15.83253502845764,2,3,3,2,-9.42,0.03,2.25,-5.3,2.17,3.1
15.8425350189209,2,3,3,2,-9.609999999999999,0.14,2.33,-5.13,2.09,3.45
15.85253500938416,2,3,3,2,-9.67,0.21,2.33,-4.51,1.62,3.63
15.86253499984741,2,3,3,2,-9.51,0.32,2.2,-3.7,1.09,3.73
15.87253499031067,2,3,3,2,-9.300000000000001,0.37,1.84,-2.99,0.93,3.87
15.88253498077393,2,3,3,2,-9.42,0.37,1.57,-2.45,1.01,4
15.89253497123718,2,3,3,2,-9.48,0.31,1.48,-1.99,1.29,4.11
15.90253496170044,2,3,3,2,-9.5,0.2,1.83,-2.08,1.27,4.18
15.9125349521637,2,3,3,2,-9.42,0.06,1.89,-2.72,0.84,4.35
15.92253494262695,2,3,3,2,-9.449999999999999,-0.01,2.09,-3.5,0.14,4.52
15.93253493309021,2,3,3,2,-9.390000000000001,-0.2,2.01,-4.12,-0.6,4.68
15.94253492355347,2,3,3,2,-9.18,-0.42,1.83,-4.12,-1.41,4.75
15.95253491401672,2,3,3,2,-9.07,-0.49,2.01,-4.09,-1.78,4.66
15.96253490447998,2,3,3,2,-8.949999999999999,-0.45,2.36,-4.27,-1.8,4.51
15.97253489494324,2,3,3,2,-8.789999999999999,-0.31,2.42,-4.51,-1.78,4.41
15.98253488540649,2,3,3,2,-8.75,0.1,1.72,-4.21,-1.61,4.32
15.99253487586975,2,3,3,2,-8.84,0.28,1.76,-3.34,-1.13,4.16
16.00253510475159,2,3,3,2,-8.93,0.32,2.2,-2.55,-0.19,3.97
16.01253509521484,2,3,3,2,-9.02,0.33,2.31,-1.17,1.16,3.65
16.0225350856781,2,3,3,2,-10.02,0.14,1.47,0.9,2.62,3.09
16.03253507614136,2,3,3,2,-10.62,0.2,1.51,1.59,3.66,2.27
16.04253506660461,2,3,3,2,-11.14,0.29,1.78,-0.03,3.65,1.75
16.05253505706787,2,3,3,2,-11.43,0.34,2.18,-2.98,2.38,1.72
16.06253504753113,2,3,3,2,-11.54,0.74,3.37,-5.93,0.09,2.07
16.07253503799438,2,3,3,2,-11.03,0.67,3.45,-8.06,-2.41,2.59
16.08253502845764,2,3,3,2,-10.33,0.59,3.76,-8.06,-2.41,2.59
16.0925350189209,2,3,3,2,-10.14,0.34,4.03,-7.95,-0.12,2.21
16.10253500938416,2,3,3,2,-10.74,-1.13,3.72,-7.05,5.38,-0.46
16.11253499984741,2,3,3,2,-10.74,-1.55,3.1,-4.65,7.68,-1.3
16.12253499031067,2,3,3,2,-10.68,-1.59,2.21,-2.27,10.77,-1.57
16.13253498077393,2,3,3,2,-11.6,-1.09,1.54,-1.45,12.65,-0.85
16.14253497123718,2,3,3,2,-12.73,-0.74,1.29,-1.11,12.54,0.21
16.15253496170044,2,3,3,2,-13.38,-0.19,0.67,1.34,11.53,0.85
16.1625349521637,2,3,3,2,-13.67,1.01,0.16,5.17,10.56,0.3
16.17253494262695,2,3,3,2,-13.44,1.64,-0.19,7.65,8.289999999999999,-1.12
16.18253493309021,2,3,3,2,-12.55,2.93,-0.53,12.26,6.76,-0.51
16.19253492355347,2,3,3,2,-12.05,4.53,-0.91,14.85,6.57,-0.44
16.20253491401672,2,3,3,2,-11.57,5.8,-0.86,12.76,6.58,0.18
16.21253490447998,2,3,3,2,-10.44,8.359999999999999,-0.55,8.57,5.55,0.5
16.22253489494324,2,3,3,2,-9.960000000000001,9.119999999999999,-0.58,3.6,3.97,-0.45
16.23253488540649,2,3,3,2,-9.050000000000001,8.949999999999999,-0.45,-2.59,1.1,-3.61
16.24253487586975,2,3,3,2,-8.02,8.56,0,-8.76,-1.82,-7.07
16.25253510475159,2,3,3,2,-8.49,7.56,1.95,-13.79,-2.56,-10.01
16.26253509521484,2,3,3,2,-9.300000000000001,6.37,3.02,-17.24,-1.29,-12.13
16.2725350856781,2,3,3,2,-9.539999999999999,4.75,3.3,-18.37,-0.23,-13.47
16.28253507614136,2,3,3,2,-9.300000000000001,2.91,2.72,-16.39,1.32,-13.96
16.29253506660461,2,3,3,2,-9.619999999999999,-0.38,2.43,-13.76,2.77,-13.81
16.30253505706787,2,3,3,2,-9.91,-1.85,2.77,-10.78,2.25,-13.21
16.31253504753113,2,3,3,2,-10.23,-2.91,2.86,-6.81,0.14,-11.6
16.32253503799438,2,3,3,2,-11.05,-2.37,2.32,-1.67,-2.06,-8.67
16.33253502845764,2,3,3,2,-11.32,-1.89,1.66,2.09,-4.02,-6.45
16.3425350189209,2,3,3,2,-11.29,-0.53,1.13,4.25,-5.97,-4.7
16.35253500938416,2,3,3,2,-11,0,0.77,4.8,-7.36,-3.57
16.36253499984741,2,3,3,2,-10.22,0.34,0.95,4.9,-8.81,-3.02
16.37253499031067,2,3,3,2,-9.66,0.63,1.33,5.13,-10.28,-2.57
16.38253498077393,2,3,3,2,-8.98,0.76,1.58,5.04,-11.5,-2.07
16.39253497123718,2,3,3,2,-8,0.84,1.51,5.23,-12.05,-1.63
16.40253496170044,2,3,3,2,-6.79,0.66,1.47,5.94,-10.22,-1.27
16.4125349521637,2,3,3,2,-6.57,0.35,1.54,6.42,-8.33,-1.21
16.42253494262695,2,3,3,2,-6.37,0.28,1.76,6.69,-7.69,-1.45
16.43253493309021,2,3,3,2,-6.62,0.23,2,7.11,-6.6,-2.04
16.44253492355347,2,3,3,2,-7.23,0.5600000000000001,2.44,7.3,-5.88,-2.75
16.45253491401672,2,3,3,2,-7.62,0.91,2.6,7.31,-5.93,-3.08
16.46253490447998,2,3,3,2,-7.76,1,2.44,7.21,-6.13,-3.05
16.47253489494324,2,3,3,2,-7.65,1.16,2.21,7.28,-5.24,-2.67
16.48253488540649,2,3,3,2,-8.25,1.3,2.08,6.83,-3.72,-2.21
16.49253487586975,2,3,3,2,-8.48,1.29,2.17,5.84,-2.56,-1.66
16.50253510475159,2,3,3,2,-8.66,1.23,2.44,4.68,-2.49,-1.07
16.51253509521484,2,3,3,2,-8.359999999999999,0.6899999999999999,2.58,3.79,-2.8,-0.48
16.5225350856781,2,3,3,3,-8.24,0.17,2.63,3.57,-2.48,0.24
16.53253507614136,2,3,3,3,-7.93,0.5600000000000001,2.72,4.13,-1.42,0.63
16.54253506660461,2,3,3,3,-7.95,0.07000000000000001,2.55,4.08,-1.12,0.4
16.55253505706787,2,3,3,3,-8.07,-0.36,2.58,4.24,-0.53,0.23
16.56253504753113,2,3,3,3,-7.89,-0.6899999999999999,2.29,4.42,-0.41,-0.02
16.57353496551514,2,3,3,3,-7.73,-0.85,2.21,4.25,0.14,-0.22
16.58353495597839,2,3,3,3,-7.78,-0.93,2.31,3.52,0.64,-0.34
16.59353494644165,2,3,3,3,-7.81,-1.24,2.41,2.77,0.33,-0.48
16.60353493690491,2,3,3,3,-7.76,-1.28,2.54,2.73,-0.01,-0.67
16.61353492736816,2,3,3,3,-7.89,-1.38,2.98,2.63,0.12,-0.93
16.64353489875793,2,3,3,3,-8.859999999999999,-2.01,3.03,4.76,-1.67,-1.75
16.65353488922119,2,3,3,3,-9.039999999999999,-2.02,2.96,6.08,-1.43,-1.92
16.66353487968445,2,3,3,3,-9.31,-1.86,3.15,7.33,-0.77,-1.91
16.67353510856628,2,3,3,3,-9.67,-0.83,3.57,8.859999999999999,-0.7,-1.68
16.68353509902954,2,3,3,3,-9.609999999999999,-0.24,3.17,11.35,-0.99,-1.12
16.6935350894928,2,3,3,3,-9.73,0.52,2.53,14.21,-0.8100000000000001,-0.49
16.70353507995605,2,3,3,3,-10.58,1.02,1.65,15.28,0.06,0.21
16.71353507041931,2,3,3,3,-11.15,0.65,2,13.85,1.02,0.73
16.72353506088257,2,3,3,3,-11.99,0.46,3.34,9.67,1.54,0.6
16.73353505134583,2,3,3,3,-12.46,0.01,4.31,4.17,0.34,-0.19
16.74353504180908,2,3,3,3,-11.48,-1.34,4.7,1.23,-1.77,-1.77
16.75353503227234,2,3,3,3,-10.7,-2.65,5.05,-0.15,-2.37,-3.22
16.7635350227356,2,3,3,3,-9.720000000000001,-2.64,5.68,-0.04,-1.15,-3.85
16.77353501319885,2,3,3,3,-9.09,-3.23,6.15,0.46,-1.93,-6.06
16.78353500366211,2,3,3,3,-9.98,-2.95,6.4,4.31,-3.67,-7.57
16.79353499412537,2,3,3,3,-10.73,-2.27,5.52,11.52,-5.55,-7.68
16.80353498458862,2,3,3,3,-12.15,-1.51,5.1,16.43,-4.91,-6.68
16.81353497505188,2,3,3,3,-14.52,-0.9399999999999999,5.37,16.06,-2.92,-5.43
16.82353496551514,2,3,3,3,-14.52,-0.9399999999999999,5.37,13.82,-2.6,-3.68
16.83353495597839,2,3,3,3,-17.22,2.96,2.84,12.83,-2.09,-0.26
16.84353494644165,2,3,3,3,-18.38,6.72,-0.4,9.619999999999999,-1.12,3.53
16.85353493690491,2,3,3,3,-17.01,6.57,-0.2,2.74,-2.26,6.83
16.86353492736816,2,3,3,3,-11.72,6.16,2.41,-4.05,-4.7,8.49
16.87353491783142,2,3,3,3,-11.72,6.16,2.41,-4.05,-4.7,8.49
16.88353490829468,2,3,3,3,-9.41,4.64,2.96,-9.130000000000001,-7.42,7.63
16.89353489875793,2,3,3,3,-4.47,1.17,3.64,-9.32,-5.96,2.01
16.90353488922119,2,3,3,3,-4.24,0.5600000000000001,3.16,-6.57,-2.17,-0.53
16.91353487968445,2,3,3,3,-4.86,0.06,2.7,-2.62,1.21,-2.6
16.92353510856628,2,3,3,3,-4.86,0.06,2.7,-2.62,1.21,-2.6
16.93353509902954,2,3,3,3,-5.62,-0.36,1.82,1.23,2.94,-3.4
16.9435350894928,2,3,3,3,-8.74,0.72,-0.84,4.82,6.01,-0.37
16.95353507995605,2,3,3,3,-9.9,1.36,-0.77,4.28,6.47,2.19
16.96353507041931,2,3,3,3,-10.82,2.21,-0.5,3.73,4.83,4.3
16.97353506088257,2,3,3,3,-10.82,2.21,-0.5,3.73,4.83,4.3
16.98353505134583,2,3,3,3,-10.88,3.1,0.37,3.14,2.45,5.47
16.99353504180908,2,3,3,3,-9.81,3.36,0.76,2.97,-0.63,5.66
17.00353503227234,2,3,3,3,-8.720000000000001,3.54,1.18,2.61,-1.01,5.48
17.0135350227356,2,3,3,3,-7.95,3.51,1.57,2.26,-0.99,5.35
17.02353501319885,2,3,3,3,-6.9,3.17,1.69,2.26,-0.99,5.35
17.03353500366211,2,3,3,3,-6.67,3,1.89,1.87,-0.39,5
17.04353499412537,2,3,3,3,-6.57,2.98,1.94,0.91,1.18,3.8
17.05353498458862,2,3,3,3,-6.58,3.01,1.64,0.16,1.94,3.21
17.06353497505188,2,3,3,3,-7.04,3.51,1.55,-1.2,2.81,2.5
17.07353496551514,2,3,3,3,-7.58,3.75,1.44,-1.2,2.81,2.5
17.08353495597839,2,3,3,3,-8.09,3.44,1.34,-2.73,3.6,1.4
17.09353494644165,2,3,3,3,-8.68,3.13,1.43,-5.57,5.41,0.42
17.10353493690491,2,3,3,3,-9.529999999999999,2.69,1.18,-6.74,5.23,0.27
17.11353492736816,2,3,3,3,-9.35,2.54,1.12,-7.53,5.44,0.64
17.12353491783142,2,3,3,3,-9.17,2.52,1.12,-7.53,5.44,0.64
17.13353490829468,2,3,3,3,-9.18,1.9,1.26,-8.720000000000001,5.81,1.19
17.14353489875793,2,3,3,3,-9.300000000000001,1.56,1.47,-10.46,5.67,1.62
17.15353488922119,2,3,3,3,-9.300000000000001,1.15,1.36,-10.53,5.09,1.59
17.16353487968445,2,3,3,3,-9.17,0.8100000000000001,1.52,-10.44,4.4,1.45
17.17353510856628,2,3,3,3,-9.17,0.19,1.79,-10.44,4.4,1.45
17.18353509902954,2,3,3,3,-9.25,0,1.85,-9.81,3.86,1.4
17.1935350894928,2,3,3,3,-9.199999999999999,-0.14,1.7,-6.98,3.94,1.92
17.20353507995605,2,3,3,3,-9.24,-0.16,1.51,-5.72,3.94,2.35
17.21353507041931,2,3,3,3,-9.289999999999999,0,1.46,-5.01,4.09,2.64
17.22353506088257,2,3,3,3,-9.4,0.12,1.4,-5.01,4.09,2.64
17.23353505134583,2,3,3,3,-9.460000000000001,-0.21,1.6,-4.81,3.66,3.02
17.24353504180908,2,3,3,3,-9.779999999999999,0.16,1.83,-4.15,2.93,3.8
17.25353503227234,2,3,3,3,-10.09,0.36,1.51,-4.37,1.76,3.74
17.2635350227356,2,3,3,3,-9.960000000000001,0.43,1.76,-4.62,1.02,3.64
17.27353501319885,2,3,3,3,-9.65,0.39,1.95,-4.62,1.02,3.64
17.28353500366211,2,3,3,3,-9.34,0.25,2.1,-4.53,0.75,3.62
17.29353499412537,2,3,3,3,-9.289999999999999,0.15,2.06,-3.25,0.51,3.77
17.30353498458862,2,3,3,3,-9.140000000000001,0.19,1.87,-2.19,0.6899999999999999,3.96
17.31353497505188,2,3,3,3,-9.130000000000001,0.3,1.88,-1.53,0.8100000000000001,4.17
17.32353496551514,2,3,3,3,-9.359999999999999,0.48,1.97,-1.53,0.8100000000000001,4.17
17.33353495597839,2,3,3,3,-9.59,0.52,1.9,-1.13,0.85,4.25
17.34353494644165,2,3,3,3,-9.720000000000001,0.57,1.94,-1.33,0.17,3.97
17.35353493690491,2,3,3,3,-9.77,0.58,1.86,-1.74,-0.49,3.74
17.36353492736816,2,3,3,3,-9.640000000000001,0.65,1.79,-2.37,-1.13,3.57
17.37353491783142,2,3,3,3,-9.470000000000001,0.63,1.72,-2.37,-1.13,3.57
17.38353490829468,2,3,3,3,-9.34,0.64,1.73,-3.11,-1.5,3.49
17.39353489875793,2,3,3,3,-9.18,0.63,1.62,-3.97,-1.61,3.37
17.40353488922119,2,3,3,3,-8.98,0.63,1.58,-4.76,-1.39,3.23
17.41353487968445,2,3,3,3,-9.02,0.58,1.76,-5.48,-0.82,3.07
17.42353510856628,2,3,3,3,-9.16,0.59,1.92,-5.6,-0.15,2.78
17.43353509902954,2,3,3,3,-9.289999999999999,0.46,2.12,-5.17,0.79,2.36
17.4435350894928,2,3,3,3,-9.789999999999999,-0.15,1.97,-5.02,1.96,1.84
17.45353507995605,2,3,3,3,-10.11,-0.27,1.54,-4.92,2.76,1.26
17.46353507041931,2,3,3,3,-10.43,-0.4,1.55,-5.66,3.14,1.03
17.47353506088257,2,3,3,3,-10.8,-0.55,1.82,-7.78,3.03,1.26
17.48353505134583,2,3,3,3,-11.27,-0.72,2.78,-9.83,2.08,1.73
17.49353504180908,2,3,3,3,-11.16,-0.88,3.09,-10.79,0.61,2.05
17.50353503227234,2,3,3,3,-10.82,-1.12,3.32,-10.55,-0.43,2.06
17.5135350227356,2,3,3,3,-9.949999999999999,-1.18,3.51,-9.550000000000001,0.27,1.59
17.52353501319885,2,3,3,3,-10.22,-1.5,3.2,-8.390000000000001,2.46,1.08
17.53353500366211,2,3,3,3,-10.67,-1.73,3.16,-7.26,4.35,0.63
17.54353499412537,2,3,3,3,-10.99,-1.67,3.04,-5.5,5.41,0.16
17.55353498458862,2,3,3,3,-10.62,-0.58,1.96,-2.7,6.13,0.12
17.56353497505188,2,3,3,3,-10.87,0.17,1.85,-0.18,7.51,0.85
17.57353496551514,2,3,3,3,-11.3,0.85,1.84,0.78,9.5,2.03
17.58353495597839,2,3,3,3,-11.87,1.46,1.3,1.34,11.11,2.76
17.59353494644165,2,3,3,3,-12.73,3.43,-0.6899999999999999,3.39,11.69,2.25
17.60453510284424,2,3,3,3,-12.12,1.84,-1.03,5.71,9.58,-0.48
17.6145350933075,2,3,3,3,-11.69,3.25,-0.15,7.39,6.49,0.05
17.62453508377075,2,3,3,3,-11.46,4.16,-0.23,9.98,5.67,-0.42
17.63453507423401,2,3,3,3,-10.25,6.31,-0.49,11.25,4.66,-0.57
17.64453506469727,2,3,3,3,-10.15,7.27,-0.38,9.869999999999999,5.11,-1.17
17.65453505516052,2,3,3,3,-10.03,8.17,-0.39,6.24,5.56,-2.33
17.66453504562378,2,3,3,3,-9.65,8.390000000000001,-0.12,1.23,3.95,-4.24
17.67453503608704,2,3,3,3,-8.859999999999999,7.66,1.46,-5.21,1.32,-6.75
17.68453502655029,2,3,3,3,-8.91,7.14,2.58,-11.08,-0.92,-9.07
17.69453501701355,2,3,3,3,-9.210000000000001,6.42,3.59,-15.07,-1.68,-10.8
17.70453500747681,2,3,3,3,-9.58,3.67,2.74,-17.04,-1.07,-12.02
17.71453499794006,2,3,3,3,-9.890000000000001,2.06,1.82,-16.87,0.39,-12.84
17.72453498840332,2,3,3,3,-10.38,0.41,1.67,-14.68,2.5,-13.04
17.73453497886658,2,3,3,3,-10.87,-1.15,2.07,-12.57,3.4,-12.59
17.74453496932983,2,3,3,3,-11.36,-3.01,2.32,-9.960000000000001,2.21,-11.55
17.75453495979309,2,3,3,3,-11.71,-2.87,2.19,-6.31,0.31,-9.699999999999999
17.76453495025635,2,3,3,3,-11.83,-1.73,2.07,-2.46,-1.49,-7.01
17.7745349407196,2,3,3,3,-11.58,-1.06,1.46,0.65,-3.92,-5.14
17.78453493118286,2,3,3,3,-10.84,0.43,1.08,2.96,-6.62,-3.51
17.79453492164612,2,3,3,3,-10.37,0.77,1.13,3.8,-8.029999999999999,-2.48
17.80453491210938,2,3,3,3,-9.539999999999999,1.16,1.26,4.5,-9.6,-2.05
17.81453490257263,2,3,3,3,-8.869999999999999,1.47,1.58,5.24,-10.93,-1.92
17.82453489303589,2,3,3,3,-7.87,1.31,1.55,5.62,-11.22,-1.9
17.83453488349915,2,3,3,3,-7.06,1.26,1.29,6.15,-11.23,-1.9
17.84453511238098,2,3,3,3,-6.63,1.3,1.28,6.92,-10.65,-1.69
17.85453510284424,2,3,3,3,-6.7,1.23,1.5,6.62,-8.529999999999999,-1.66
17.8645350933075,2,3,3,3,-7,1.09,2.32,5.83,-6.54,-2.09
17.87453508377075,2,3,3,3,-7.09,1.02,2.5,4.99,-5.5,-2.52
17.88453507423401,2,3,3,3,-7.44,1.16,2.61,4.72,-5.04,-2.91
17.89453506469727,2,3,3,3,-8.039999999999999,1.12,2.41,4.64,-4.61,-3.25
17.90453505516052,2,3,3,3,-8.18,1.15,2.15,4.59,-4.54,-3.42
17.91453504562378,2,3,3,3,-8.35,1.09,1.97,4.68,-3.97,-3.3
17.92453503608704,2,3,3,3,-8.369999999999999,0.97,1.99,4.09,-3.15,-2.98
17.93453502655029,2,3,3,3,-8.52,0.54,2.29,3.06,-2.2,-2.56
17.94453501701355,2,3,3,3,-8.529999999999999,0.35,2.56,1.99,-1.54,-2.01
17.95453500747681,2,3,3,3,-8.59,0.14,2.71,1.48,-1.1,-1.6
17.96453499794006,2,3,3,3,-8.66,-0.37,2.78,1.41,-1.24,-1.18
17.97453498840332,2,3,3,3,-8.65,-0.37,2.69,2.24,-1.26,-0.77
17.98453497886658,2,3,3,3,-8.449999999999999,-0.61,2.37,2.26,-1.87,-1.26
17.99453496932983,2,3,3,3,-8.25,-0.84,2.23,2.37,-1.98,-1.46
18.00453495979309,2,3,3,3,-8.27,-0.95,2.25,2.47,-1.04,-1.66
18.01453495025635,2,3,3,3,-8.27,-1.27,2.59,2.15,-0.46,-1.85
18.0245349407196,2,3,3,3,-8.26,-1.56,2.51,2.1,-0.58,-2.08
18.03453493118286,2,3,3,3,-8.26,-1.73,2.31,2.64,-1.18,-2.42
18.04453492164612,2,3,3,3,-8.220000000000001,-1.92,2.18,3.16,-1.49,-2.71
18.05453491210938,2,3,3,3,-8.51,-1.88,2.75,3.34,-1.19,-2.72
18.06453490257263,2,3,3,3,-8.789999999999999,-1.62,3.3,3.14,-0.78,-2.48
18.07453489303589,2,3,3,3,-8.949999999999999,-1.41,3.51,3.64,-1.03,-2.13
18.08453488349915,2,3,3,3,-8.94,-1.09,2.87,5.34,-1.66,-1.84
18.09453511238098,2,3,3,3,-8.869999999999999,-0.99,2.62,7.43,-1.81,-1.67
18.10453510284424,2,3,3,3,-8.98,-0.76,2.71,8.98,-0.79,-1.47
18.1145350933075,2,3,3,3,-9.09,-0.53,2.85,9.74,0.54,-1.09
18.12453508377075,2,3,3,3,-9.52,-0.09,2.92,10.31,1.48,-0.6899999999999999
18.13453507423401,2,3,3,3,-9.67,0.05,2.86,10.67,2.13,-0.27
18.14453506469727,2,3,3,3,-9.67,0.26,2.7,10.8,2.15,0.16
18.15453505516052,2,3,3,3,-9.65,0.43,2.5,10.9,2.21,0.33
18.16453504562378,2,3,3,3,-9.75,0.41,2.78,10.53,2.71,0.38
18.17453503608704,2,3,3,3,-10.04,0.15,3.18,9.130000000000001,3.55,0.25
18.18453502655029,2,3,3,3,-10.15,-0.41,3.35,6.42,4.01,-0.07000000000000001
18.19453501701355,2,3,3,3,-10.08,-0.8,3.85,4.2,3.72,-0.67
18.20453500747681,2,3,3,3,-9.44,-1.84,3.79,2.98,3.22,-1.32
18.21453499794006,2,3,3,3,-9.119999999999999,-2.02,4.08,2.37,2.53,-1.74
18.22453498840332,2,3,3,3,-9.06,-2.24,4.42,2.42,3.09,-2
18.23453497886658,2,3,3,3,-9.199999999999999,-1.81,4.54,5.68,1.73,-3.31
18.24453496932983,2,3,3,3,-10.27,-0.84,4.25,5.68,1.73,-3.31
18.25453495979309,2,3,3,3,-11.44,-0.34,3.88,9.58,-0.03,-3.14
18.26453495025635,2,3,3,3,-13.47,0.7,4.03,12.69,-1.08,-2.46
18.2745349407196,2,3,3,3,-16.31,3.6,1.25,14.65,-4.24,-0.5600000000000001
18.28453493118286,2,3,3,3,-17.46,5.66,-0.63,15.5,-3.26,1.66
18.29453492164612,2,3,3,3,-19.14,7.44,-1.07,15.5,-3.26,1.66
18.30453491210938,2,3,3,3,-19.89,7.7,-1.03,-1.06,1.81,6.66
18.32453489303589,2,3,3,3,-10.21,3.94,2.47,-15.39,-4.62,8.93
18.33453488349915,2,3,3,3,-7.86,3.41,4.3,-15.06,-7.87,6.52
18.34453511238098,2,3,3,3,-5.68,2.46,4.95,-12.24,-6.31,3.3
18.35453510284424,2,3,3,3,-5.13,0.49,4.14,-8.34,-2.74,0.13
18.3645350933075,2,3,3,3,-5.62,-0.43,3,-3.56,1.14,-1.86
18.37453508377075,2,3,3,3,-6.54,-1.18,2.19,0.99,4.68,-2.06
18.38453507423401,2,3,3,3,-7.11,-1.67,1.28,4.33,6.35,-1
18.39453506469727,2,3,3,3,-8.699999999999999,-0.99,-0.12,6.2,6.58,0.8100000000000001
18.40453505516052,2,3,3,3,-9.359999999999999,-0.23,-0.63,7.01,5.38,2.64
18.41453504562378,2,3,3,3,-9.800000000000001,0.85,-0.93,7.72,3.54,4.17
18.42453503608704,2,3,3,3,-9.94,2.17,-0.84,7.68,1.55,5.21
18.43453502655029,2,3,3,3,-9.6,3.71,-0.61,7.14,0.36,5.49
18.44453501701355,2,3,3,3,-9.41,4.13,-0.28,6.07,0.41,5.27
18.45453500747681,2,3,3,3,-9.23,4.57,0.08,4.44,1.04,5.19
18.46453499794006,2,3,3,3,-9,4.62,0.29,3.05,1.66,5.22
18.47453498840332,2,3,3,3,-8.42,4.12,0.65,1.99,2.38,5.02
18.48453497886658,2,3,3,3,-8.25,3.66,0.67,1.46,2.82,4.34
18.49453496932983,2,3,3,3,-8.199999999999999,3.31,0.61,1.57,3.3,3.48
18.50453495979309,2,3,3,3,-8.73,2.82,0.58,0.9,3.89,2.52
18.51453495025635,2,3,3,3,-8.859999999999999,2.72,0.44,-0.07000000000000001,4.05,2.37
18.53453493118286,2,3,3,3,-9.25,2.85,0.37,-2.03,4.17,1.92
18.54453492164612,2,3,3,3,-9.289999999999999,1.99,0.64,-2.53,3.61,1.35
18.55453491210938,2,3,3,3,-9.279999999999999,1.73,0.73,-1.69,3.41,1.12
18.56453490257263,2,3,3,3,-9.460000000000001,1.44,0.93,-0.58,4.01,0.87
18.57453489303589,2,3,3,3,-9.59,1.24,1.01,0.41,4.28,0.86
18.58453488349915,2,3,3,3,-9.42,1.38,0.61,1.63,4.36,1.1
18.59453511238098,2,3,3,3,-9.32,1.49,0.33,2.68,4.34,1.42
18.60453510284424,2,3,3,3,-9.34,1.75,0.33,3.14,4.24,1.66
18.6145350933075,2,3,3,3,-9.34,1.95,0.37,3.08,3.56,1.84
18.6255350112915,2,3,3,3,-9.369999999999999,2.26,0.33,3.11,2.76,1.95
18.63553500175476,2,3,3,3,-9.42,2.31,0.42,2.72,2.42,1.82
18.64553499221802,2,3,3,3,-9.539999999999999,2.3,0.53,2.43,2.22,1.66
18.65553498268127,2,3,3,3,-9.6,2.35,0.46,2.55,2.08,1.49
18.66553497314453,2,3,3,3,-9.69,2.51,0.62,2.49,2.01,1.39
18.67553496360779,2,3,3,3,-9.73,2.84,0.4,2.35,1.68,1.08
18.68553495407104,2,3,3,3,-9.720000000000001,2.54,0.15,1.72,1.37,0.6899999999999999
18.6955349445343,2,3,3,3,-9.99,2.55,0.48,0.31,1.96,0.86
18.70553493499756,2,3,3,3,-10.15,2.47,0.5,-1.31,1.93,0.8100000000000001
18.71553492546082,2,3,3,3,-10,2.36,0.54,-2.65,0.76,0.6
18.72553491592407,2,3,3,3,-9.76,2.06,0.55,-3.64,0.33,0.22
18.73553490638733,2,3,3,3,-9.75,1.62,0.88,-4.25,0.11,-0.19
18.74553489685059,2,3,3,3,-9.73,1.38,1.11,-4.06,-0.32,-0.6
18.75553488731384,2,3,3,3,-9.699999999999999,1.11,1.03,-3.37,-0.64,-0.86
18.7655348777771,2,3,3,3,-9.76,1.08,0.8100000000000001,-2,-0.51,-1.1
18.77553510665894,2,3,3,3,-9.880000000000001,1.3,0.6899999999999999,-1.28,-0.3,-1.16
18.78553509712219,2,3,3,3,-9.880000000000001,1.49,0.74,-1.18,-0.51,-0.86
18.79553508758545,2,3,3,3,-9.93,1.64,0.62,-1.25,-1.06,-0.37
18.80553507804871,2,3,3,3,-9.92,1.77,0.44,-1.46,-1.63,-0.13
18.81553506851196,2,3,3,3,-10.18,1.75,0.89,-2.34,-2.16,-0.15
18.83553504943848,2,3,3,3,-10.07,1.25,1.25,-3.72,-4,-0.77
18.84553503990173,2,3,3,3,-9.73,0.99,0.99,-3.25,-4.06,-1
18.85553503036499,2,3,3,3,-9.42,0.62,1.11,-2.94,-3.45,-0.92
18.86553502082825,2,3,3,3,-9.41,0.68,1.34,-2.67,-2.92,-0.6899999999999999
18.8755350112915,2,3,3,3,-9.460000000000001,0.73,1.35,-1.97,-2.75,-0.35
18.88553500175476,2,3,3,3,-9.539999999999999,1.35,1.37,-1.16,-2.45,-0.04
18.89553499221802,2,3,3,3,-9.68,1.69,1.56,-1.23,-1.85,0.22
18.90553498268127,2,3,3,3,-9.779999999999999,2.02,1.55,-1.54,-1.57,0.45
18.91553497314453,2,3,3,3,-9.81,2.3,1.48,-1.87,-1.5,0.61
18.92553496360779,2,3,3,3,-9.640000000000001,2.36,0.96,-2.34,-1.35,0.66
18.93553495407104,2,3,3,3,-9.640000000000001,2.36,0.96,-2.73,-0.9399999999999999,0.61
18.9455349445343,2,3,3,3,-9.449999999999999,2.09,0.97,-3.08,-0.31,0.26
18.95553493499756,2,3,3,3,-9.27,1.1,1.25,-2.53,0.47,-0.32
18.96553492546082,2,3,3,3,-9.609999999999999,0.5,1.37,-1.14,1.28,-0.87
18.97553491592407,2,3,3,3,-9.890000000000001,0.48,1.34,0.11,2.03,-1.08
18.98553490638733,2,3,3,3,-9.890000000000001,0.48,1.34,1.23,2.57,-0.84
18.99553489685059,2,3,3,3,-10.02,0.61,1.24,1.23,2.57,-0.84
19.00553488731384,2,3,3,3,-9.720000000000001,1.69,1.06,2.77,2.28,0.66
19.0155348777771,2,3,3,3,-9.539999999999999,2.14,1.07,2.88,1.64,1.36
19.02553510665894,2,3,3,3,-9.34,2.53,1.1,2.28,0.9,1.74
19.03553509712219,2,3,3,3,-9.34,2.53,1.1,2.28,0.9,1.74
19.04553508758545,2,3,3,3,-9.15,2.78,1.23,1.23,0.39,1.71
19.05553507804871,2,3,3,3,-8.960000000000001,2.71,1.25,-0.98,0.15,0.72
19.06553506851196,2,3,3,3,-9.039999999999999,2.5,1.44,-1.99,0.06,0.04
19.07553505897522,2,3,3,3,-9.199999999999999,1.88,1.61,-2.44,-0.07000000000000001,-0.59
19.08553504943848,2,3,3,3,-9.199999999999999,1.88,1.61,-2.44,-0.07000000000000001,-0.59
19.09553503990173,2,3,3,3,-9.41,1.57,1.72,-2.3,-0.01,-1.12
19.10553503036499,2,3,3,3,-9.6,1.33,1.85,-1.54,0.24,-1.67
19.11553502082825,2,3,3,3,-9.81,1.2,1.84,-1.06,0.15,-1.62
19.1255350112915,2,3,3,3,-9.93,1.15,1.87,-0.65,0.17,-1.33
19.13553500175476,2,3,3,3,-9.91,1.21,1.92,-0.65,0.17,-1.33
19.14553499221802,2,3,3,3,-9.789999999999999,1.25,1.85,-0.34,0.31,-0.8100000000000001
19.15553498268127,2,3,3,3,-9.69,1.34,1.74,0.25,0.77,0.27
19.16553497314453,2,3,3,3,-9.56,1.53,1.44,0.11,0.93,0.62
19.17553496360779,2,3,3,3,-9.539999999999999,1.59,1.49,-0.26,0.9,0.75
19.18553495407104,2,3,3,3,-9.58,1.71,1.5,-0.26,0.9,0.75
19.1955349445343,2,3,3,3,-9.539999999999999,1.74,1.53,-0.71,0.67,0.7
19.20553493499756,2,3,3,3,-9.49,1.75,1.45,-1.26,-0.09,0.32
19.21553492546082,2,3,3,3,-9.51,1.72,1.43,-1.36,-0.46,0.11
19.22553491592407,2,3,3,3,-9.550000000000001,1.75,1.52,-1.34,-0.67,-0.02
19.23553490638733,2,3,3,3,-9.59,1.65,1.51,-1.34,-0.67,-0.02
