timestamp,magCalib,accCalib,gyrCalib,sysCalib,accX,accY,accZ,gyrX,gyrY,gyrZ
-0.05146503448486328,2,3,3,3,-9.609999999999999,-1.81,0.08,0.03,-0.03,-0.04
-0.04146504402160645,2,3,3,3,-9.640000000000001,-1.87,0.13,-0.01,-0.02,0
-0.03146505355834961,2,3,3,3,-9.630000000000001,-1.86,0.21,0,-0.02,0.01
-0.02046489715576172,2,3,3,3,-9.619999999999999,-1.76,0.21,0.03,-0.02,-0.04
-0.01146507263183594,2,3,3,3,-9.59,-1.75,0.14,-0.08,-0.02,-0.04
-0.001465082168579102,2,3,3,3,-9.58,-1.77,0.11,-0.14,0.02,-0.04
0.009535074234008789,2,3,3,3,-9.619999999999999,-1.73,0.09,-0.31,0.01,0.01
0.01853489875793457,2,3,3,3,-9.630000000000001,-1.79,0.13,-0.46,0.01,0.04
0.02853488922119141,2,3,3,3,-9.609999999999999,-1.79,0.16,-0.5,-0.01,0.04
0.0395350456237793,2,3,3,3,-9.640000000000001,-1.88,0.14,-0.58,0.04,0.05
0.04853510856628418,2,3,3,3,-9.630000000000001,-1.89,0.04,-0.61,0.02,0.03
0.05853509902954102,2,3,3,3,-9.630000000000001,-1.92,0.09,-0.53,0.04,0.02
0.0695350170135498,2,3,3,3,-9.630000000000001,-1.98,0.15,-0.53,0.02,0.06
0.07853507995605469,2,3,3,3,-9.619999999999999,-1.98,0.13,-0.47,-0.01,0.05
0.08853507041931152,2,3,3,3,-9.6,-1.97,0.15,-0.39,0.01,0.04
0.09953498840332031,2,3,3,3,-9.57,-1.95,0.07000000000000001,-0.31,-0.04,0.09
0.1085350513458252,2,3,3,3,-9.57,-1.92,0.11,-0.22,-0.04,0.1
0.118535041809082,2,3,3,3,-9.6,-1.89,0.13,-0.18,-0.04,0.09
0.1285350322723389,2,3,3,3,-9.58,-1.91,0.18,-0.19,-0.02,0.09
0.1385350227355957,2,3,3,3,-9.640000000000001,-1.96,0.13,-0.17,-0.01,0.18
0.1485350131988525,2,3,3,3,-9.609999999999999,-1.94,0.04,-0.17,-0.03,0.22
0.1585350036621094,2,3,3,3,-9.6,-2.02,0.08,-0.16,-0.03,0.24
0.1685349941253662,2,3,3,3,-9.6,-2.02,0.18,-0.15,-0.03,0.27
0.178534984588623,2,3,3,3,-9.58,-1.99,0.16,-0.15,-0.02,0.29
0.1895349025726318,2,3,3,3,-9.6,-1.98,0.12,-0.14,-0.02,0.28
0.1985349655151367,2,3,3,3,-9.6,-2.02,0.05,-0.14,-0.02,0.33
0.2085349559783936,2,3,3,3,-9.609999999999999,-2.02,0.04,-0.08,-0.05,0.35
0.2185349464416504,2,3,3,3,-9.640000000000001,-1.99,0.15,0.03,-0.01,0.38
0.2285349369049072,2,3,3,3,-9.609999999999999,-2.03,0.16,0.2,-0.02,0.35
0.2385349273681641,2,3,3,3,-9.59,-2.03,0.14,0.36,0.01,0.4
0.249535083770752,2,3,3,3,-9.619999999999999,-1.98,0.08,0.45,-0.04,0.46
0.2595350742340088,2,3,3,3,-9.609999999999999,-1.98,0.11,0.51,-0.03,0.45
0.2695350646972656,2,3,3,3,-9.66,-1.94,0.16,0.5600000000000001,-0.06,0.46
0.2795350551605225,2,3,3,3,-9.640000000000001,-1.95,0.18,0.52,-0.04,0.48
0.2895350456237793,2,3,3,3,-9.6,-1.91,0.22,0.53,-0.05,0.5
0.2995350360870361,2,3,3,3,-9.550000000000001,-1.85,0.11,0.55,-0.06,0.51
0.309535026550293,2,3,3,3,-9.609999999999999,-1.81,0.12,0.47,-0.1,0.51
0.3195350170135498,2,3,3,3,-9.68,-1.77,0.15,0.38,-0.06,0.54
0.3295350074768066,2,3,3,3,-9.69,-1.77,0.18,0.28,-0.06,0.58
0.3395349979400635,2,3,3,3,-9.619999999999999,-1.86,0.14,0.21,-0.03,0.59
0.3495349884033203,2,3,3,3,-9.609999999999999,-1.91,0.06,0.09,-0.03,0.64
0.3595349788665771,2,3,3,3,-9.57,-1.89,0.09,0.07000000000000001,-0.06,0.67
0.369534969329834,2,3,3,3,-9.58,-1.92,0.14,0.03,-0.03,0.67
0.3795349597930908,2,3,3,3,-9.6,-2,0.17,-0.06,-0.1,0.67
0.3895349502563477,2,3,3,3,-9.630000000000001,-1.97,0.16,-0.07000000000000001,-0.11,0.65
0.3995349407196045,2,3,3,3,-9.609999999999999,-1.94,0.09,-0.09,-0.1,0.68
0.4095349311828613,2,3,3,3,-9.6,-2.03,0.08,-0.05,-0.14,0.78
0.4195349216461182,2,3,3,3,-9.609999999999999,-2.03,0.11,-0.03,-0.11,0.8
0.429534912109375,2,3,3,3,-9.609999999999999,-2.03,0.11,0.01,-0.13,0.83
0.4395349025726318,2,3,3,3,-9.56,-1.98,0.12,0.03,-0.18,0.83
0.4495348930358887,2,3,3,3,-9.56,-1.94,0.02,0,-0.19,0.9
0.4595348834991455,2,3,3,3,-9.640000000000001,-1.93,0.1,0.04,-0.21,0.91
0.4695351123809814,2,3,3,3,-9.630000000000001,-1.91,0.12,0.02,-0.24,0.9399999999999999
0.4795351028442383,2,3,3,3,-9.609999999999999,-1.91,0.18,-0.05,-0.25,0.95
0.5095350742340088,2,3,3,3,-9.640000000000001,-1.81,0.19,-0.17,-0.28,1.02
0.5195350646972656,2,3,3,3,-9.619999999999999,-1.74,0.18,-0.23,-0.29,1.06
0.5295350551605225,2,3,3,3,-9.609999999999999,-1.81,0.21,-0.28,-0.3,1.1
0.5395350456237793,2,3,3,3,-9.619999999999999,-1.83,0.19,-0.28,-0.3,1.1
0.5495350360870361,2,3,3,3,-9.66,-1.83,0.07000000000000001,-0.27,-0.31,1.09
0.559535026550293,2,3,3,3,-9.66,-1.81,0.12,-0.23,-0.36,1.09
0.5695350170135498,2,3,3,3,-9.68,-1.74,0.14,-0.19,-0.39,1.07
0.5795350074768066,2,3,3,3,-9.65,-1.67,0.17,-0.07000000000000001,-0.37,1.11
0.5895349979400635,2,3,3,3,-9.65,-1.6,0.13,-0.07000000000000001,-0.37,1.11
0.5995349884033203,2,3,3,3,-9.630000000000001,-1.61,0.07000000000000001,-0.07000000000000001,-0.35,1.15
0.6095349788665771,2,3,3,3,-9.640000000000001,-1.36,0.1,-0.09,-0.36,1.18
0.619534969329834,2,3,3,3,-9.67,-1.29,0.13,-0.22,-0.34,1.25
0.6295349597930908,2,3,3,3,-9.69,-1.23,0.19,-0.71,-0.35,1.29
0.6395349502563477,2,3,3,3,-9.74,-1.29,0.25,-0.71,-0.35,1.29
0.6495349407196045,2,3,3,3,-9.75,-1.43,0.19,-0.83,-0.42,1.28
0.6595349311828613,2,3,3,3,-9.75,-1.4,0.23,-0.71,-0.37,1.23
0.6695349216461182,2,3,3,3,-9.720000000000001,-1.43,0.28,-0.51,-0.36,1.14
0.679534912109375,2,3,3,3,-9.69,-1.32,0.28,-0.31,-0.35,1.08
0.6895349025726318,2,3,3,3,-9.710000000000001,-1.18,0.27,-0.17,-0.36,1.07
0.6995348930358887,2,3,3,3,-9.710000000000001,-1.12,0.24,-0.23,-0.38,1.04
0.7095348834991455,2,3,3,3,-9.699999999999999,-1.13,0.24,-0.28,-0.38,1.02
0.7195351123809814,2,3,3,3,-9.73,-1.24,0.28,-0.32,-0.39,0.99
0.7295351028442383,2,3,3,3,-9.74,-1.16,0.34,-0.35,-0.42,0.97
0.7395350933074951,2,3,3,3,-9.75,-1.24,0.25,-0.37,-0.37,0.93
0.749535083770752,2,3,3,3,-9.69,-1.18,0.17,-0.38,-0.31,0.93
0.7595350742340088,2,3,3,3,-9.699999999999999,-1.13,0.18,-0.32,-0.36,0.87
0.7695350646972656,2,3,3,3,-9.710000000000001,-1.06,0.3,-0.3,-0.32,0.85
0.7795350551605225,2,3,3,2,-9.710000000000001,-1.1,0.32,-0.24,-0.34,0.82
0.7895350456237793,2,3,3,2,-9.74,-1.21,0.33,-0.22,-0.3,0.77
0.7995350360870361,2,3,3,2,-9.75,-1.21,0.27,-0.15,-0.25,0.74
0.809535026550293,2,3,3,2,-9.75,-1.09,0.31,-0.02,-0.25,0.7
0.8195350170135498,2,3,3,2,-9.73,-1.13,0.34,0,-0.24,0.67
0.8295350074768066,2,3,3,2,-9.74,-1.08,0.3,0,-0.21,0.64
0.8395349979400635,2,3,3,2,-9.699999999999999,-0.91,0.26,0.04,-0.24,0.59
0.8495349884033203,2,3,3,2,-9.779999999999999,-0.96,0.22,0.1,-0.22,0.6
0.8595349788665771,2,3,3,2,-9.779999999999999,-1.06,0.19,-0.03,-0.12,0.5600000000000001
0.869534969329834,2,3,3,2,-9.74,-1.11,0.27,-0.12,-0.15,0.58
0.8795349597930908,2,3,3,2,-9.74,-1.17,0.31,-0.13,-0.12,0.55
0.8895349502563477,2,3,3,2,-9.73,-1.24,0.29,-0.12,-0.09,0.52
0.8995349407196045,2,3,3,2,-9.69,-1.2,0.2,-0.05,-0.13,0.47
0.9095349311828613,2,3,3,2,-9.699999999999999,-1.17,0.23,0.11,-0.15,0.43
0.9195349216461182,2,3,3,2,-9.77,-1.03,0.31,0.24,-0.11,0.35
0.929534912109375,2,3,3,2,-9.75,-1.02,0.32,0.27,-0.15,0.34
0.9395349025726318,2,3,3,2,-9.74,-1.01,0.36,0.18,-0.14,0.33
0.9495348930358887,2,3,3,2,-9.710000000000001,-1.01,0.25,0.14,-0.12,0.32
0.9595348834991455,2,3,3,2,-9.75,-1.13,0.3,0.08,-0.08,0.33
0.9695351123809814,2,3,3,2,-9.720000000000001,-1.05,0.33,0.06,-0.06,0.25
0.9795351028442383,2,3,3,2,-9.710000000000001,-1.05,0.34,0.1,-0.06,0.21
0.9895350933074951,2,3,3,2,-9.720000000000001,-1.1,0.35,0.07000000000000001,-0.07000000000000001,0.17
0.999535083770752,2,3,3,2,-9.75,-1.15,0.24,0.03,-0.13,0.17
1.009535074234009,2,3,3,2,-9.75,-1.15,0.29,0.06,-0.09,0.12
1.019535064697266,2,3,3,2,-9.75,-1.2,0.33,0.06,-0.1,0.08
1.029535055160522,2,3,3,2,-9.710000000000001,-1.21,0.35,0.04,-0.07000000000000001,0.07000000000000001
1.039535045623779,2,3,3,2,-9.710000000000001,-1.22,0.31,0.12,-0.04,0.09
1.049535036087036,2,3,3,2,-9.73,-1.28,0.26,0.04,-0.01,0.07000000000000001
1.059535026550293,2,3,3,2,-9.710000000000001,-1.18,0.29,0,0.03,0.05
1.06953501701355,2,3,3,2,-9.73,-1.21,0.42,0.05,-0.03,0.02
1.079535007476807,2,3,3,2,-9.76,-1.15,0.39,-0.01,0.01,0.06
1.089534997940063,2,3,3,2,-9.74,-1.25,0.4,-0.03,0.01,0.04
1.09953498840332,2,3,3,2,-9.710000000000001,-1.23,0.26,-0.06,0.02,0.08
1.109534978866577,2,3,3,2,-9.710000000000001,-1.18,0.28,0.06,0.03,0.06
1.139534950256348,2,3,3,2,-9.75,-1.29,0.32,0.11,0.01,0.05
1.149534940719604,2,3,3,2,-9.73,-1.27,0.25,0.08,0.02,0.05
1.159534931182861,2,3,3,2,-9.74,-1.37,0.19,0.03,0.02,0.03
1.169534921646118,2,3,3,2,-9.74,-1.39,0.26,0,0.04,0.01
1.179534912109375,2,3,3,2,-9.699999999999999,-1.35,0.28,0.1,0.02,0
1.189534902572632,2,3,3,2,-9.710000000000001,-1.21,0.27,0.13,0.04,-0.01
1.199534893035889,2,3,3,2,-9.720000000000001,-1.2,0.18,0.23,0.01,-0.05
1.209534883499146,2,3,3,2,-9.710000000000001,-1.13,0.27,0.17,0.04,-0.04
1.219535112380981,2,3,3,2,-9.73,-1.08,0.32,0.17,0.02,-0.06
1.229535102844238,2,3,3,2,-9.75,-1.13,0.31,0.08,0.02,-0.08
1.239535093307495,2,3,3,2,-9.720000000000001,-1.12,0.31,-0.03,0.06,0
1.249535083770752,2,3,3,2,-9.74,-1.19,0.21,-0.05,0.01,0.02
1.259535074234009,2,3,3,2,-9.73,-1.32,0.18,-0.06,0.03,0
1.269535064697266,2,3,3,2,-9.699999999999999,-1.37,0.26,0,0.02,-0.03
1.279535055160522,2,3,3,2,-9.710000000000001,-1.31,0.26,0.11,0.04,-0.01
1.290534973144531,2,3,3,2,-9.710000000000001,-1.32,0.25,0.18,0.02,-0.03
1.300534963607788,2,3,3,2,-9.720000000000001,-1.32,0.17,0.25,0.02,-0.05
1.310534954071045,2,3,3,2,-9.74,-1.31,0.2,0.22,0.01,-0.06
1.320534944534302,2,3,3,2,-9.75,-1.34,0.24,0.22,0.01,-0.09
1.330534934997559,2,3,3,2,-9.69,-1.37,0.28,0.07000000000000001,0.02,-0.05
1.340534925460815,2,3,3,2,-9.69,-1.34,0.3,0.1,0.01,-0.04
1.350534915924072,2,3,3,2,-9.699999999999999,-1.28,0.22,0.13,0.01,-0.1
1.360534906387329,2,3,3,2,-9.699999999999999,-1.28,0.26,0.11,-0.06,-0.09
1.370534896850586,2,3,3,2,-9.69,-1.27,0.29,0.1,-0.05,-0.1
1.380534887313843,2,3,3,2,-9.720000000000001,-1.24,0.26,0.04,-0.06,-0.09
1.3905348777771,2,3,3,2,-9.699999999999999,-1.31,0.27,-0.01,-0.03,-0.08
1.400535106658936,2,3,3,2,-9.73,-1.29,0.18,-0.03,-0.03,-0.04
1.410535097122192,2,3,3,2,-9.69,-1.33,0.24,-0.02,-0.05,-0.05
1.420535087585449,2,3,3,2,-9.699999999999999,-1.28,0.28,0.07000000000000001,-0.04,-0.1
1.430535078048706,2,3,3,2,-9.699999999999999,-1.24,0.33,0.13,-0.05,-0.13
1.440535068511963,2,3,3,2,-9.699999999999999,-1.24,0.31,0.08,-0.05,-0.07000000000000001
1.45053505897522,2,3,3,2,-9.699999999999999,-1.23,0.21,-0.02,-0.01,-0.08
1.460535049438477,2,3,3,2,-9.710000000000001,-1.24,0.23,-0.1,-0.03,-0.08
1.470535039901733,2,3,3,2,-9.699999999999999,-1.3,0.26,-0.07000000000000001,-0.04,-0.06
1.48053503036499,2,3,3,2,-9.73,-1.32,0.28,-0.09,-0.02,-0.08
1.490535020828247,2,3,3,2,-9.73,-1.4,0.32,-0.04,-0.04,-0.11
1.500535011291504,2,3,3,2,-9.699999999999999,-1.34,0.19,0.06,-0.03,-0.08
1.510535001754761,2,3,3,2,-9.69,-1.29,0.29,0.09,-0.05,-0.06
1.520534992218018,2,3,3,2,-9.69,-1.29,0.28,0.14,-0.04,-0.08
1.530534982681274,2,3,3,2,-9.73,-1.28,0.33,0.17,-0.05,-0.12
1.540534973144531,2,3,3,2,-9.720000000000001,-1.22,0.28,0.17,-0.09,-0.11
1.550534963607788,2,3,3,2,-9.75,-1.19,0.2,0.23,-0.11,-0.11
1.560534954071045,2,3,3,2,-9.74,-1.24,0.29,0.19,-0.06,-0.12
1.570534944534302,2,3,3,2,-9.699999999999999,-1.23,0.31,0.16,-0.08,-0.09
1.580534934997559,2,3,3,2,-9.710000000000001,-1.28,0.34,0.14,-0.05,-0.1
1.590534925460815,2,3,3,2,-9.73,-1.28,0.31,0.1,-0.03,-0.12
1.600534915924072,2,3,3,2,-9.699999999999999,-1.28,0.22,0.12,-0.02,-0.08
1.610534906387329,2,3,3,2,-9.74,-1.24,0.28,0.11,-0.03,-0.12
1.620534896850586,2,3,3,2,-9.73,-1.29,0.35,0.1,-0.04,-0.11
1.630534887313843,2,3,3,2,-9.710000000000001,-1.35,0.35,0.04,-0.02,-0.07000000000000001
1.6405348777771,2,3,3,2,-9.69,-1.38,0.33,0.01,0,-0.13
1.650535106658936,2,3,3,2,-9.67,-1.42,0.26,-0.03,0,-0.09
1.660535097122192,2,3,3,2,-9.68,-1.42,0.3,-0.01,-0.01,-0.11
1.670535087585449,2,3,3,2,-9.69,-1.41,0.32,-0.01,-0.02,-0.12
1.680535078048706,2,3,3,2,-9.68,-1.43,0.32,0.01,0.01,-0.14
1.690535068511963,2,3,3,2,-9.699999999999999,-1.36,0.34,0.09,-0.04,-0.17
1.70053505897522,2,3,3,2,-9.74,-1.32,0.22,0.1,-0.02,-0.18
1.710535049438477,2,3,3,2,-9.699999999999999,-1.32,0.3,0.06,0,-0.15
1.720535039901733,2,3,3,2,-9.69,-1.28,0.3,0.04,-0.02,-0.15
1.73053503036499,2,3,3,2,-9.710000000000001,-1.33,0.36,0.06,-0.03,-0.16
1.740535020828247,2,3,3,2,-9.66,-1.35,0.3,0.08,0.01,-0.15
1.750535011291504,2,3,3,2,-9.68,-1.35,0.24,0.11,0.03,-0.12
1.760535001754761,2,3,3,2,-9.699999999999999,-1.35,0.28,0.1,0,-0.15
1.770534992218018,2,3,3,2,-9.69,-1.39,0.31,0.09,-0.03,-0.13
1.780534982681274,2,3,3,2,-9.69,-1.44,0.33,0.08,-0.01,-0.13
1.790534973144531,2,3,3,2,-9.699999999999999,-1.44,0.31,0.11,0.03,-0.11
1.800534963607788,2,3,3,2,-9.69,-1.45,0.24,0.11,0.05,-0.09
1.810534954071045,2,3,3,2,-9.68,-1.38,0.22,0.15,0.06,-0.11
1.820534944534302,2,3,3,2,-9.699999999999999,-1.33,0.32,0.19,0.01,-0.07000000000000001
1.830534934997559,2,3,3,2,-9.720000000000001,-1.33,0.34,0.23,0.01,-0.1
1.840534925460815,2,3,3,2,-9.720000000000001,-1.33,0.36,0.13,0.03,-0.08
1.850534915924072,2,3,3,2,-9.73,-1.34,0.22,0.12,0.05,-0.07000000000000001
1.860534906387329,2,3,3,2,-9.68,-1.37,0.28,0.08,0.04,-0.03
1.870534896850586,2,3,3,2,-9.66,-1.42,0.3,0.09,0.02,-0.02
1.880534887313843,2,3,3,2,-9.67,-1.42,0.3,0.12,0.09,-0.02
1.8905348777771,2,3,3,2,-9.68,-1.4,0.33,0.17,0.03,-0.05
1.900535106658936,2,3,3,2,-9.710000000000001,-1.41,0.23,0.22,-0.01,-0.04
1.910535097122192,2,3,3,2,-9.699999999999999,-1.44,0.24,0.16,0.07000000000000001,-0.04
1.920535087585449,2,3,3,2,-9.720000000000001,-1.41,0.25,0.19,0.04,-0.02
1.930535078048706,2,3,3,2,-9.69,-1.41,0.31,0.22,0.03,-0.04
1.940535068511963,2,3,3,2,-9.68,-1.37,0.29,0.28,0.04,-0.04
1.95053505897522,2,3,3,2,-9.68,-1.36,0.19,0.27,0.03,0.01
1.960535049438477,2,3,3,2,-9.69,-1.34,0.21,0.26,0.04,0
1.970535039901733,2,3,3,2,-9.699999999999999,-1.27,0.31,0.21,0.05,-0.04
1.98053503036499,2,3,3,2,-9.710000000000001,-1.3,0.33,0.17,0.02,0.01
1.990535020828247,2,3,3,2,-9.75,-1.35,0.32,0.11,0.01,0.03
2.000535011291504,2,3,3,2,-9.720000000000001,-1.38,0.21,0.05,0.05,0.04
2.010535001754761,2,3,3,2,-9.720000000000001,-1.39,0.29,0.09,0.03,0.05
2.020534992218018,2,3,3,2,-9.699999999999999,-1.44,0.28,0,0.04,0.04
2.030534982681274,2,3,3,3,-9.69,-1.41,0.29,-0.02,0.09,0.04
2.040534973144531,2,3,3,3,-9.699999999999999,-1.42,0.31,-0.04,0.06,0.04
2.050534963607788,2,3,3,3,-9.68,-1.34,0.18,0,0.04,0.05
2.060534954071045,2,3,3,3,-9.69,-1.35,0.22,-0.04,0.04,0.02
2.070534944534302,2,3,3,3,-9.710000000000001,-1.32,0.27,-0.12,0.03,0.06
2.080534934997559,2,3,3,3,-9.699999999999999,-1.34,0.31,-0.14,0.02,0.03
2.090534925460815,2,3,3,3,-9.73,-1.31,0.29,-0.13,0.03,0.05
2.100534915924072,2,3,3,3,-9.699999999999999,-1.33,0.19,-0.19,0.03,0.03
2.110534906387329,2,3,3,3,-9.720000000000001,-1.29,0.2,-0.16,0.02,0.02
2.120534896850586,2,3,3,3,-9.720000000000001,-1.28,0.23,-0.18,0,0.03
2.130534887313843,2,3,3,3,-9.699999999999999,-1.32,0.23,-0.21,-0.02,0.03
2.1405348777771,2,3,3,3,-9.69,-1.26,0.26,-0.15,-0.04,0.03
2.150535106658936,2,3,3,3,-9.710000000000001,-1.26,0.14,-0.14,-0.05,-0.03
2.160535097122192,2,3,3,3,-9.710000000000001,-1.29,0.2,-0.19,-0.02,-0.01
2.170535087585449,2,3,3,3,-9.710000000000001,-1.31,0.29,-0.21,-0.01,-0.04
2.180535078048706,2,3,3,3,-9.74,-1.34,0.29,-0.22,-0.05,-0.07000000000000001
2.190535068511963,2,3,3,3,-9.73,-1.38,0.33,-0.23,-0.06,-0.06
2.20053505897522,2,3,3,3,-9.73,-1.41,0.21,-0.18,-0.05,-0.05
2.210535049438477,2,3,3,3,-9.69,-1.35,0.22,-0.11,-0.05,-0.06
2.220535039901733,2,3,3,3,-9.699999999999999,-1.37,0.27,-0.08,-0.06,-0.06
2.23053503036499,2,3,3,3,-9.69,-1.36,0.26,-0.09,-0.09,-0.07000000000000001
2.250535011291504,2,3,3,3,-9.720000000000001,-1.35,0.18,-0.15,-0.07000000000000001,-0.07000000000000001
2.260535001754761,2,3,3,3,-9.69,-1.38,0.24,-0.15,-0.1,-0.07000000000000001
2.270534992218018,2,3,3,3,-9.710000000000001,-1.43,0.27,-0.18,-0.11,-0.06
2.280534982681274,2,3,3,3,-9.720000000000001,-1.44,0.25,-0.15,-0.12,-0.07000000000000001
2.290534973144531,2,3,3,3,-9.710000000000001,-1.37,0.23,-0.14,-0.1,-0.08
2.300534963607788,2,3,3,3,-9.710000000000001,-1.32,0.17,-0.12,-0.11,-0.05
2.311534881591797,2,3,3,3,-9.699999999999999,-1.32,0.19,-0.07000000000000001,-0.12,-0.1
2.321535110473633,2,3,3,3,-9.720000000000001,-1.38,0.29,-0.12,-0.13,-0.09
2.33153510093689,2,3,3,3,-9.699999999999999,-1.36,0.36,-0.13,-0.13,-0.13
2.341535091400146,2,3,3,3,-9.710000000000001,-1.43,0.33,-0.09,-0.12,-0.14
2.351535081863403,2,3,3,3,-9.68,-1.37,0.22,-0.03,-0.09,-0.15
2.36153507232666,2,3,3,3,-9.68,-1.36,0.32,0.07000000000000001,-0.11,-0.15
2.371535062789917,2,3,3,3,-9.66,-1.28,0.34,0.16,-0.14,-0.14
2.381535053253174,2,3,3,3,-9.67,-1.28,0.41,0.19,-0.14,-0.13
2.391535043716431,2,3,3,3,-9.69,-1.35,0.4,0.15,-0.12,-0.11
2.401535034179688,2,3,3,3,-9.73,-1.52,0.29,0.07000000000000001,-0.11,-0.08
2.411535024642944,2,3,3,3,-9.69,-1.53,0.32,0.01,-0.09,-0.07000000000000001
2.421535015106201,2,3,3,3,-9.67,-1.47,0.33,0.13,-0.08,-0.07000000000000001
2.431535005569458,2,3,3,3,-9.69,-1.52,0.34,0.2,-0.07000000000000001,-0.06
2.441534996032715,2,3,3,3,-9.67,-1.53,0.31,0.24,-0.04,-0.04
2.451534986495972,2,3,3,3,-9.65,-1.5,0.26,0.3,-0.02,-0.05
2.461534976959229,2,3,3,3,-9.67,-1.5,0.32,0.4,0,-0.04
2.471534967422485,2,3,3,3,-9.699999999999999,-1.46,0.36,0.42,0,-0.04
2.481534957885742,2,3,3,3,-9.67,-1.45,0.46,0.45,0.02,-0.06
2.491534948348999,2,3,3,3,-9.640000000000001,-1.45,0.39,0.52,0.05,-0.07000000000000001
2.501534938812256,2,3,3,3,-9.68,-1.4,0.31,0.58,0.06,-0.05
2.511534929275513,2,3,3,3,-9.69,-1.37,0.31,0.68,0.09,-0.01
2.52153491973877,2,3,3,3,-9.710000000000001,-1.38,0.38,0.7,0.15,-0.01
2.531534910202026,2,3,3,3,-9.710000000000001,-1.33,0.38,0.8,0.16,0
2.541534900665283,2,3,3,3,-9.73,-1.34,0.39,0.88,0.14,0.02
2.55153489112854,2,3,3,3,-9.720000000000001,-1.31,0.27,0.84,0.15,0
2.561534881591797,2,3,3,3,-9.69,-1.25,0.31,0.87,0.1,-0.03
2.571535110473633,2,3,3,3,-9.699999999999999,-1.22,0.35,0.83,0.15,-0.04
2.58153510093689,2,3,3,3,-9.710000000000001,-1.18,0.33,0.79,0.19,-0.05
2.591535091400146,2,3,3,3,-9.720000000000001,-1.22,0.32,0.6899999999999999,0.19,-0.06
2.601535081863403,2,3,3,3,-9.699999999999999,-1.16,0.2,0.62,0.17,-0.07000000000000001
2.61153507232666,2,3,3,3,-9.73,-1.14,0.27,0.49,0.16,-0.08
2.621535062789917,2,3,3,3,-9.74,-1.18,0.31,0.32,0.17,-0.1
2.631535053253174,2,3,3,3,-9.710000000000001,-1.3,0.29,0.14,0.19,-0.1
2.641535043716431,2,3,3,3,-9.73,-1.32,0.27,0.01,0.18,-0.17
2.651535034179688,2,3,3,3,-9.699999999999999,-1.36,0.16,-0.04,0.13,-0.16
2.661535024642944,2,3,3,3,-9.699999999999999,-1.41,0.18,-0.11,0.14,-0.15
2.671535015106201,2,3,3,3,-9.68,-1.37,0.25,-0.08,0.14,-0.21
2.681535005569458,2,3,3,3,-9.69,-1.37,0.26,-0.08,0.14,-0.26
2.691534996032715,2,3,3,3,-9.73,-1.34,0.26,-0.11,0.13,-0.26
2.701534986495972,2,3,3,3,-9.699999999999999,-1.33,0.18,-0.12,0.11,-0.29
2.711534976959229,2,3,3,3,-9.710000000000001,-1.27,0.23,-0.09,0.15,-0.3
2.721534967422485,2,3,3,3,-9.710000000000001,-1.3,0.24,-0.13,0.12,-0.31
2.731534957885742,2,3,3,3,-9.74,-1.35,0.26,-0.22,0.1,-0.29
2.741534948348999,2,3,3,3,-9.720000000000001,-1.37,0.3,-0.26,0.11,-0.28
2.751534938812256,2,3,3,3,-9.710000000000001,-1.43,0.13,-0.28,0.11,-0.28
2.761534929275513,2,3,3,3,-9.67,-1.45,0.17,-0.23,0.09,-0.29
2.77153491973877,2,3,3,3,-9.67,-1.49,0.19,-0.12,0.08,-0.28
2.781534910202026,2,3,3,3,-9.65,-1.51,0.19,-0.07000000000000001,0.09,-0.28
2.791534900665283,2,3,3,3,-9.69,-1.52,0.19,0.03,0.08,-0.27
2.80153489112854,2,3,3,3,-9.68,-1.51,0.12,0.08,0.04,-0.27
2.811534881591797,2,3,3,3,-9.69,-1.51,0.16,0.16,0.08,-0.27
2.821535110473633,2,3,3,3,-9.699999999999999,-1.54,0.19,0.2,0.05,-0.27
2.83153510093689,2,3,3,3,-9.710000000000001,-1.55,0.23,0.24,0.04,-0.26
2.841535091400146,2,3,3,3,-9.68,-1.55,0.28,0.24,0.03,-0.26
2.851535081863403,2,3,3,3,-9.67,-1.53,0.19,0.3,0,-0.26
2.86153507232666,2,3,3,3,-9.699999999999999,-1.5,0.22,0.35,0,-0.3
2.871535062789917,2,3,3,3,-9.68,-1.44,0.27,0.35,-0.01,-0.28
2.881535053253174,2,3,3,3,-9.67,-1.46,0.31,0.34,-0.05,-0.26
2.891535043716431,2,3,3,3,-9.69,-1.47,0.29,0.3,-0.03,-0.27
2.901535034179688,2,3,3,3,-9.69,-1.45,0.19,0.3,-0.02,-0.25
2.911535024642944,2,3,3,3,-9.69,-1.48,0.25,0.31,0.01,-0.27
2.921535015106201,2,3,3,3,-9.68,-1.49,0.27,0.33,-0.01,-0.25
2.931535005569458,2,3,3,3,-9.69,-1.47,0.27,0.31,0,-0.26
2.941534996032715,2,3,3,3,-9.68,-1.52,0.32,0.2,0.04,-0.26
2.951534986495972,2,3,3,3,-9.65,-1.58,0.19,0.12,-0.01,-0.23
2.961534976959229,2,3,3,3,-9.66,-1.56,0.25,0.07000000000000001,-0.01,-0.23
2.971534967422485,2,3,3,3,-9.68,-1.54,0.3,0.12,-0.04,-0.24
2.981534957885742,2,3,3,3,-9.68,-1.54,0.28,0.06,-0.05,-0.27
2.991534948348999,2,3,3,3,-9.67,-1.56,0.29,0,-0.02,-0.26
3.001534938812256,2,3,3,3,-9.67,-1.51,0.19,-0.01,0,-0.3
3.011534929275513,2,3,3,3,-9.66,-1.54,0.25,-0.03,0.01,-0.26
3.02153491973877,2,3,3,3,-9.67,-1.55,0.28,-0.01,0.02,-0.23
3.031534910202026,2,3,3,3,-9.66,-1.55,0.34,0.02,0.02,-0.24
3.041534900665283,2,3,3,3,-9.69,-1.57,0.3,0.01,0,-0.21
3.05153489112854,2,3,3,3,-9.66,-1.54,0.25,0,0.01,-0.22
3.061534881591797,2,3,3,3,-9.67,-1.53,0.28,0.08,0.03,-0.21
3.071535110473633,2,3,3,3,-9.65,-1.52,0.3,0.08,0.03,-0.2
3.08153510093689,2,3,3,3,-9.68,-1.47,0.29,0.05,0.01,-0.2
3.091535091400146,2,3,3,3,-9.699999999999999,-1.6,0.37,-0.08,0.05,-0.16
3.101535081863403,2,3,3,3,-9.66,-1.58,0.22,-0.05,0.02,-0.13
3.11153507232666,2,3,3,3,-9.68,-1.64,0.24,-0.04,0.04,-0.13
3.121535062789917,2,3,3,3,-9.66,-1.71,0.27,-0.03,0.04,-0.13
3.131535053253174,2,3,3,3,-9.65,-1.68,0.3,0.04,0.05,-0.11
3.141535043716431,2,3,3,3,-9.640000000000001,-1.63,0.25,0.1,0.03,-0.15
3.151535034179688,2,3,3,3,-9.65,-1.58,0.2,0.12,0.03,-0.12
3.161535024642944,2,3,3,3,-9.66,-1.55,0.24,0.16,0.05,-0.13
3.171535015106201,2,3,3,3,-9.67,-1.58,0.29,0.07000000000000001,0.06,-0.1
3.181535005569458,2,3,3,3,-9.67,-1.5,0.34,0.11,0.07000000000000001,-0.05
3.191534996032715,2,3,3,3,-9.630000000000001,-1.46,0.31,0.05,0.05,-0.04
3.201534986495972,2,3,3,3,-9.67,-1.41,0.21,0.05,0.07000000000000001,-0.01
3.211534976959229,2,3,3,3,-9.640000000000001,-1.35,0.31,0,0.07000000000000001,0.05
3.221534967422485,2,3,3,3,-9.67,-1.24,0.38,0.01,0.06,0.11
3.231534957885742,2,3,3,3,-9.68,-1.23,0.38,0.02,0.1,0.21
3.241534948348999,2,3,3,3,-9.69,-1.12,0.36,0.05,0.13,0.3
3.251534938812256,2,3,3,3,-9.69,-1.1,0.28,0.04,0.15,0.43
3.261534929275513,2,3,3,3,-9.67,-1.08,0.26,0.07000000000000001,0.21,0.5
3.27153491973877,2,3,3,3,-9.69,-1.12,0.3,0.06,0.25,0.58
3.281534910202026,2,3,3,3,-9.710000000000001,-1.13,0.29,0.09,0.28,0.6899999999999999
3.291534900665283,2,3,3,3,-9.73,-1.28,0.33,0.06,0.26,0.74
3.30153489112854,2,3,3,3,-9.69,-1.54,0.11,0.07000000000000001,0.28,0.76
3.311534881591797,2,3,3,3,-9.67,-1.64,0.19,0.13,0.32,0.7
3.321535110473633,2,3,3,3,-9.619999999999999,-1.75,0.19,0.15,0.25,0.66
3.33153510093689,2,3,3,3,-9.6,-1.96,0.16,0.27,0.23,0.57
3.342535018920898,2,3,3,3,-9.66,-1.97,0.14,0.43,0.18,0.39
3.352535009384155,2,3,3,3,-9.710000000000001,-2.01,0.04,0.63,0.17,0.27
3.362534999847412,2,3,3,3,-9.710000000000001,-1.99,0.09,0.76,0.17,0.13
3.372534990310669,2,3,3,3,-9.710000000000001,-1.81,0.15,0.91,0.16,0
3.382534980773926,2,3,3,3,-9.69,-1.7,0.19,0.92,0.19,-0.13
3.392534971237183,2,3,3,3,-9.67,-1.6,0.23,0.89,0.13,-0.19
3.402534961700439,2,3,3,3,-9.630000000000001,-1.46,0.19,0.85,0.11,-0.29
3.412534952163696,2,3,3,3,-9.67,-1.29,0.27,0.74,0.11,-0.34
3.422534942626953,2,3,3,3,-9.68,-1.18,0.31,0.53,0.1,-0.42
3.43253493309021,2,3,3,3,-9.69,-1.09,0.34,0.32,0.05,-0.4
3.442534923553467,2,3,3,3,-9.68,-1.11,0.32,-0.04,0.04,-0.38
3.452534914016724,2,3,3,3,-9.710000000000001,-1.34,0.13,-0.44,0.05,-0.32
3.46253490447998,2,3,3,3,-9.75,-1.48,0.16,-0.6899999999999999,0.08,-0.25
3.472534894943237,2,3,3,3,-9.720000000000001,-1.63,0.17,-0.87,0.06,-0.2
3.482534885406494,2,3,3,3,-9.710000000000001,-1.71,0.1,-0.76,0.03,-0.23
3.492534875869751,2,3,3,3,-9.65,-2.11,0.05,-0.61,-0.02,-0.29
3.502535104751587,2,3,3,3,-9.640000000000001,-2.08,0.02,-0.26,-0.05,-0.31
3.512535095214844,2,3,3,3,-9.67,-2.03,0.11,0.04,-0.09,-0.43
3.522535085678101,2,3,3,3,-9.65,-2.02,0.14,0.1,-0.1,-0.49
3.532535076141357,2,3,3,3,-9.619999999999999,-2,0.24,0.2,-0.08,-0.59
3.542535066604614,2,3,3,3,-9.66,-1.92,0.21,0.35,-0.07000000000000001,-0.7
3.552535057067871,2,3,3,3,-9.69,-1.92,0.16,0.47,-0.06,-0.85
3.562535047531128,2,3,3,3,-9.710000000000001,-1.81,0.22,0.5,-0.15,-0.9
3.572535037994385,2,3,3,3,-9.65,-1.53,0.34,0.46,-0.18,-0.95
3.582535028457642,2,3,3,3,-9.67,-1.47,0.37,0.34,-0.12,-1
3.592535018920898,2,3,3,3,-9.68,-1.35,0.28,0.27,-0.08,-1.02
3.602535009384155,2,3,3,3,-9.69,-1.35,0.23,0.08,-0.09,-0.95
3.612534999847412,2,3,3,3,-9.6,-1.19,0.3,-0.04,-0.06,-0.87
3.622534990310669,2,3,3,3,-9.65,-1.22,0.28,-0.23,0,-0.86
3.632534980773926,2,3,3,3,-9.69,-1.4,0.32,-0.55,0,-0.73
3.642534971237183,2,3,3,3,-9.66,-1.49,0.4,-0.66,-0.01,-0.68
3.652534961700439,2,3,3,3,-9.720000000000001,-1.71,0.18,-0.79,0.05,-0.6
3.662534952163696,2,3,3,3,-9.619999999999999,-1.78,0.14,-0.93,0.03,-0.57
3.672534942626953,2,3,3,3,-9.67,-1.97,0.15,-0.97,0,-0.52
3.68253493309021,2,3,3,3,-9.609999999999999,-1.98,0.19,-0.84,-0.02,-0.53
3.692534923553467,2,3,3,3,-9.56,-2.04,0.2,-0.6899999999999999,-0.04,-0.55
3.702534914016724,2,3,3,3,-9.59,-2.02,0.14,-0.5,0.02,-0.63
3.71253490447998,2,3,3,3,-9.609999999999999,-1.95,0.17,-0.35,0.06,-0.62
3.722534894943237,2,3,3,3,-9.68,-2,0.31,-0.25,0.01,-0.6
3.732534885406494,2,3,3,3,-9.630000000000001,-1.74,0.39,0.02,-0.02,-0.55
3.742534875869751,2,3,3,3,-9.640000000000001,-1.58,0.36,0.2,-0.01,-0.52
3.752535104751587,2,3,3,3,-9.630000000000001,-1.5,0.26,0.17,-0.03,-0.52
3.762535095214844,2,3,3,3,-9.640000000000001,-1.37,0.22,0.09,0,-0.48
3.772535085678101,2,3,3,3,-9.67,-1.43,0.25,-0.13,0.05,-0.39
3.782535076141357,2,3,3,3,-9.68,-1.52,0.3,-0.37,0.09,-0.31
3.792535066604614,2,3,3,3,-9.66,-1.53,0.22,-0.45,0.1,-0.26
3.802535057067871,2,3,3,3,-9.66,-1.81,0.09,-0.58,0.16,-0.25
3.812535047531128,2,3,3,3,-9.630000000000001,-1.96,0.22,-0.62,0.17,-0.21
3.822535037994385,2,3,3,3,-9.550000000000001,-1.81,0.19,-0.35,0.15,-0.19
3.832535028457642,2,3,3,3,-9.6,-1.82,0.25,-0.28,0.14,-0.22
3.842535018920898,2,3,3,3,-9.56,-1.67,0.15,-0.18,0.13,-0.22
3.852535009384155,2,3,3,3,-9.640000000000001,-1.67,0.17,-0.08,0.08,-0.23
3.862534999847412,2,3,3,3,-9.630000000000001,-1.65,0.24,-0.25,0.06,-0.19
3.872534990310669,2,3,3,3,-9.58,-1.5,0.22,-0.21,0.04,-0.14
3.882534980773926,2,3,3,3,-9.67,-1.46,0.24,-0.27,0.06,-0.09
3.892534971237183,2,3,3,3,-9.66,-1.42,0.2,-0.31,0.05,0.06
3.902534961700439,2,3,3,3,-9.720000000000001,-1.24,0.16,-0.3,0.02,0.2
3.912534952163696,2,3,3,3,-9.720000000000001,-1.09,0.17,-0.3,0.08,0.42
3.922534942626953,2,3,3,3,-9.460000000000001,-0.4,0.25,-0.43,0.15,0.62
3.93253493309021,2,3,3,3,-9.539999999999999,0,0.15,-0.65,0.17,0.85
3.942534923553467,2,3,3,3,-9.630000000000001,0.19,0.26,-0.97,0.28,1.19
3.952534914016724,2,3,3,3,-9.699999999999999,0.34,0.27,-1.25,0.42,1.6
3.96253490447998,2,3,3,3,-9.92,0.48,0.16,-1.55,0.57,2.01
3.972534894943237,2,3,3,3,-9.789999999999999,0.43,0.27,-1.75,0.67,2.46
3.982534885406494,2,3,3,3,-9.619999999999999,0.47,0.19,-1.85,0.73,2.95
3.992534875869751,2,3,3,3,-9.640000000000001,0.53,0.2,-1.69,0.76,3.24
4.002535104751587,2,3,3,3,-9.550000000000001,-0.16,0.25,-1.63,0.82,3.48
4.012535095214844,2,3,3,3,-9.5,-0.15,0.22,-1.37,0.72,3.6
4.022535085678101,2,3,3,3,-9.51,0.04,0.36,-0.77,0.66,3.72
4.032535076141357,2,3,3,3,-9.48,0.4,0.45,-0.15,0.63,3.91
4.042535066604614,2,3,3,3,-9.369999999999999,1.74,0.64,0.45,0.57,4.26
4.052535057067871,2,3,3,3,-9.32,2.72,0.66,0.96,0.58,4.74
4.062535047531128,2,3,3,3,-9.23,3.12,1.1,0.78,0.65,5.66
4.072535037994385,2,3,3,3,-9.07,2.98,1.06,0.06,0.75,6.79
4.082535028457642,2,3,3,3,-8.699999999999999,2.11,1.1,-0.88,0.87,7.84
4.092535018920898,2,3,3,3,-8.66,1.57,1.07,-1.51,1.03,8.73
4.102535009384155,2,3,3,3,-8.5,1.8,0.76,-1.16,0.76,9.19
4.112534999847412,2,3,3,3,-8.369999999999999,1.61,0.82,-0.59,0.31,9.6
4.122534990310669,2,3,3,3,-8.550000000000001,1.44,0.63,0.08,0.1,9.800000000000001
4.132534980773926,2,3,3,3,-8.550000000000001,0.91,0.57,0.39,-0.04,9.93
4.142534971237183,2,3,3,3,-8.43,0.88,0.52,1.03,-0.41,10.01
4.152534961700439,2,3,3,3,-8.380000000000001,1.03,0.31,2.18,-0.38,9.869999999999999
4.162534952163696,2,3,3,3,-8.41,0.57,0.15,2.99,-0.2,9.66
4.172534942626953,2,3,3,3,-8.5,-0.6,0.02,3.04,-0.09,9.859999999999999
4.18253493309021,2,3,3,3,-8.470000000000001,-1.27,-0.2,3.31,-0.27,9.960000000000001
4.192534923553467,2,3,3,3,-9.06,-3.39,-0.37,3.66,-0.15,9.82
4.202534914016724,2,3,3,3,-9.69,-3.48,-1.24,4.09,-0.17,9.16
4.21253490447998,2,3,3,3,-9.74,-4.29,-1.22,5.5,-0.61,8.300000000000001
4.222534894943237,2,3,3,3,-9.720000000000001,-4.32,-1,7.48,-0.7,7.38
4.232534885406494,2,3,3,3,-10.73,-1.31,-0.37,10.98,-0.13,6.42
4.242534875869751,2,3,3,3,-10.76,-0.67,0.23,11.98,0.06,6.01
4.252535104751587,2,3,3,3,-10.69,0.87,0.04,11.94,0.75,6
4.262535095214844,2,3,3,3,-10.55,1.93,0.01,10.62,1.55,6.43
4.272535085678101,2,3,3,3,-10.13,1.47,-0.05,7.49,1.8,7.34
4.282535076141357,2,3,3,3,-10.13,1.4,0.08,5.76,2.04,7.92
4.292535066604614,2,3,3,3,-10.22,0.05,0.36,4.35,2.45,8.25
4.302535057067871,2,3,3,3,-10.14,-1.07,0.02,3.27,2.37,8.08
4.352535009384155,2,3,3,3,-11.38,-0.14,-0.86,5.91,2.21,4.83
4.363534927368164,2,3,3,3,-11.38,0.01,-0.86,5.41,2.18,4.82
4.373534917831421,2,3,3,3,-10.99,-0.34,-0.61,4.11,1.84,5.02
4.383534908294678,2,3,3,3,-10.48,-0.8100000000000001,-0.59,3.04,1.67,5.04
4.393534898757935,2,3,3,3,-9.98,-1.28,-0.97,2.2,1.54,4.72
4.403534889221191,2,3,3,3,-9.869999999999999,-0.7,-0.96,2.29,1.39,4.18
4.413534879684448,2,3,3,3,-9.960000000000001,0.23,-0.71,2.92,1.43,3.77
4.423535108566284,2,3,3,3,-10.11,1.34,-0.29,3.22,1.51,3.67
4.433535099029541,2,3,3,3,-10.04,2.11,0.33,2.58,1.58,4.01
4.443535089492798,2,3,3,3,-9.720000000000001,1.6,0.29,1.16,1.67,4.57
4.453535079956055,2,3,3,3,-9.16,0.73,0.04,-0.29,1.66,5.2
4.463535070419312,2,3,3,3,-8.52,0.32,-0.27,-0.52,1.8,5.34
4.473535060882568,2,3,3,3,-8.609999999999999,1.59,-1.01,0.58,2.02,5.24
4.483535051345825,2,3,3,3,-9.220000000000001,2.94,-0.9,2.25,1.94,5.07
4.493535041809082,2,3,3,3,-10,4.02,-0.77,3.45,1.74,4.99
4.503535032272339,2,3,3,3,-10.62,4.31,-0.55,2.72,1.59,5.18
4.513535022735596,2,3,3,3,-10.28,2.2,-0.52,0.28,1.49,5.41
4.523535013198853,2,3,3,3,-9.869999999999999,1.17,-1.07,-1.84,1.6,5.52
4.533535003662109,2,3,3,3,-9.539999999999999,-0.07000000000000001,-1.29,-3.02,1.82,5.47
4.543534994125366,2,3,3,3,-8.65,-1.46,-2.16,-3.47,1.97,4.93
4.553534984588623,2,3,3,3,-8.48,-1.19,-2.4,-3.31,2.15,4.16
4.56353497505188,2,3,3,3,-8.76,0.21,-2.81,-2.09,2.04,3.17
4.573534965515137,2,3,3,3,-9.77,2.17,-2.8,-0.32,2.06,2.1
4.583534955978394,2,3,3,3,-11.96,3.13,-2.11,-0.09,1.65,1.11
4.59353494644165,2,3,3,3,-12.7,2.26,-1.69,-1.48,0.87,0.03
4.603534936904907,2,3,3,3,-13.48,0.73,-0.67,-3.46,0.73,-1.04
4.613534927368164,2,3,3,3,-13.98,-0.72,-0.03,-4.38,0.49,-1.97
4.623534917831421,2,3,3,3,-15.29,-2.07,0.91,-3.97,0.1,-2.99
4.633534908294678,2,3,3,3,-16.2,-2.53,1.7,-3.28,-0.63,-4.23
4.643534898757935,2,3,3,3,-16.79,-3.06,2.48,-2.7,-1.48,-5.57
4.653534889221191,2,3,3,3,-16.98,-3.37,3.59,-2.07,-2.42,-7.06
4.663534879684448,2,3,3,3,-17.48,-3.8,5.63,-2.2,-3.97,-8.539999999999999
4.673535108566284,2,3,3,3,-18.19,-4.91,5.85,-3.18,-6.07,-10.18
4.683535099029541,2,3,3,2,-19.06,-6.55,5.33,-3.89,-8.17,-12.02
4.693535089492798,2,3,3,2,-20.11,-7.72,4.58,-3.37,-10.01,-13.91
4.703535079956055,2,3,3,2,-22.17,-10.27,1.77,-2.49,-11.24,-15.51
4.713535070419312,2,3,3,2,-23.2,-11.14,0.3,-1.26,-11.65,-16.88
4.723535060882568,2,3,3,2,-24.32,-12.58,-1.38,-0.23,-11.02,-18.32
4.733535051345825,2,3,3,2,-25.57,-13.16,-3.39,0.86,-10.19,-19.83
4.743535041809082,2,3,3,2,-26.89,-12.1,-5.8,2.05,-9.01,-21.07
4.753535032272339,2,3,3,2,-27.44,-9.99,-5.39,3.2,-7.77,-22.61
4.763535022735596,2,3,3,2,-27.67,-8.31,-6.62,2.75,-6.86,-24.74
4.773535013198853,2,3,3,2,-26.68,-4.38,-8.470000000000001,4.44,-5.46,-27
4.783535003662109,2,3,3,1,-22.58,-1.72,-9.44,3.87,-3.98,-27.46
4.793534994125366,2,3,3,1,-20.3,1.08,-9.359999999999999,8.960000000000001,-2.26,-27.36
4.803534984588623,2,3,3,1,-16.31,2.72,-7.87,15.3,-1.53,-27.15
4.81353497505188,2,3,3,1,-11.97,2.46,-6.37,23.61,-0.11,-27.14
4.823534965515137,2,3,3,1,-7.3,34.38,2.65,40.93,-0.79,-27.91
4.833534955978394,2,3,3,1,-3.14,39.22,13.64,33.69,-7.24,-20.87
4.84353494644165,2,3,3,1,-1.76,39.11,19.13,1.51,-6.43,-4
4.853534936904907,2,3,3,1,0.9399999999999999,37.16,8.779999999999999,-17.61,3.29,4.85
4.863534927368164,2,3,3,1,1.12,-1.79,-2.21,-15.74,8.84,8.539999999999999
4.873534917831421,2,3,3,1,-5.63,-8.779999999999999,-2.88,-8.69,8.859999999999999,9.69
4.883534908294678,2,3,3,1,-10.16,-6.68,2.16,2.37,6.93,6.27
4.893534898757935,2,3,3,1,-2.61,-2.52,0.62,12.1,2.94,4.86
4.903534889221191,2,3,3,1,0.14,-2.08,-3.23,10.87,0.57,6.01
4.913534879684448,2,3,3,1,1.48,-7.68,-3.37,0.77,-2.94,8.42
4.923535108566284,2,3,3,1,1.82,-9.27,-4.48,-4.25,-4.59,7.3
4.933535099029541,2,3,3,1,0.75,-5.82,-3.93,-5.24,-3.44,4.63
4.943535089492798,2,3,3,1,0.17,-2.62,-1.63,-3.16,-1.87,3
4.953535079956055,2,3,3,1,0.22,-0.25,-0.87,-2.11,-2.12,2.3
4.963535070419312,2,3,3,1,0.71,0.33,-1.05,-5.45,-3.57,2.6
4.973535060882568,2,3,3,1,1.74,0.02,-0.16,-8.359999999999999,-4.56,3.44
4.983535051345825,2,3,3,1,1.11,-0.3,0.43,-9.380000000000001,-3.87,4.4
4.993535041809082,2,3,3,1,0.33,-1.11,0.9399999999999999,-9.66,-2.73,4.8
5.003535032272339,2,3,3,1,-0.22,-1.42,1.39,-7.12,-1.18,4.72
5.013535022735596,2,3,3,1,-0.33,-0.92,2.2,-2.76,0.29,5.01
5.023535013198853,2,3,3,1,-0.65,-0.18,2.73,0.83,1.38,5.58
5.033535003662109,2,3,3,1,-1.05,0.75,2.77,2.8,1.78,6.16
5.043534994125366,2,3,3,1,-1.3,1.88,2.18,3.83,1.87,6.68
5.053534984588623,2,3,3,1,-1.22,3.24,0.29,2.74,2.01,7.17
5.06353497505188,2,3,3,1,-0.96,2.78,-0.78,-0.29,2.04,7.58
5.073534965515137,2,3,3,1,-1.32,1.43,-1.37,-3.93,2.38,7.39
5.083534955978394,2,3,3,1,-1.41,-0.02,-1.52,-5.77,2.46,6.55
5.09353494644165,2,3,3,1,-0.41,-2.47,-2.17,-5.76,1.96,5.65
5.103534936904907,2,3,3,1,-0.6,-3.28,-2.13,-3.99,1.46,4.81
5.113534927368164,2,3,3,1,0.19,-3.06,-1.77,-0.17,0.15,3.86
5.123534917831421,2,3,3,1,1.2,-2.64,-1.15,3.04,-0.98,3.19
5.133534908294678,2,3,3,2,1.96,-1.2,0.02,5.81,-1.84,3.13
5.143534898757935,2,3,3,2,1.56,-0.92,0.76,7.07,-2.26,3.47
5.153534889221191,2,3,3,2,0.89,-0.65,1.11,7.24,-2.52,3.53
5.163534879684448,2,3,3,2,0.28,-0.09,1.02,7.62,-2.33,3.09
5.173535108566284,2,3,3,2,-0.91,2.59,1.02,8.029999999999999,-1.92,2.18
5.183535099029541,2,3,3,2,-1.8,6.04,0.4,8,-1.94,1.23
5.193535089492798,2,3,3,2,-3.79,18.98,1.1,14.89,-3.44,1.01
5.203535079956055,2,3,3,2,-7.23,34.51,5.55,14.28,-4.11,1.98
5.213535070419312,2,3,3,2,-9.109999999999999,-10.51,2.51,-22.23,-0.84,0.07000000000000001
5.223535060882568,2,3,3,2,-14.35,-22.36,-4.36,-34.51,1.52,-4.67
5.233535051345825,2,3,3,2,-23.46,-10.52,-0.96,-3.51,-0.46,-7.59
5.243535041809082,2,3,3,2,-25.01,3.9,2.07,24.06,-0.98,-3.55
5.253535032272339,2,3,3,2,-29.48,-0.29,-7.23,16.02,5.34,4.72
5.263535022735596,2,3,3,2,-23.04,7.38,-2.63,15.97,5.86,11.94
5.273535013198853,2,3,3,2,-19,8.6,0.29,11.59,8.550000000000001,12.62
5.283535003662109,2,3,3,2,-26.75,2.72,-4.29,-1.65,11.55,12.76
5.293534994125366,2,3,3,2,-26.51,-2.54,-3.04,-9.109999999999999,8.41,11.52
5.303534984588623,2,3,3,2,-25.78,-5.3,-0.05,-6.47,7.16,8.08
5.31353497505188,2,3,3,2,-23.96,-5.88,4.43,-6.23,5.22,5.23
5.323534965515137,2,3,3,2,-18.57,-8.800000000000001,4.79,-6.23,5.22,5.23
5.333534955978394,2,3,3,2,-17.23,-10.52,3.59,-5.37,4.27,2.84
5.34353494644165,2,3,3,2,-16.8,-11.5,2.67,3.96,3.24,0.37
5.353534936904907,2,3,3,2,-16.13,-11.03,1.66,9.369999999999999,2.11,0.49
5.363534927368164,2,3,3,2,-15.38,-6.66,0.06,10.94,0.95,0.67
5.373534917831421,2,3,3,2,-14.83,-4.32,0.35,10.94,0.95,0.67
5.384535074234009,2,3,3,2,-14.43,-2.76,0.45,8.640000000000001,0.19,0.92
5.394535064697266,2,3,3,2,-14.47,-1.36,0.53,0.8,-0.55,0.24
5.404535055160522,2,3,3,2,-14.18,-0.87,0.48,-3.12,-0.95,-0.53
5.414535045623779,2,3,3,2,-13.55,-1.16,0.24,-5.88,-1.28,-1.37
5.424535036087036,2,3,3,2,-12.95,-1.13,0,-5.88,-1.28,-1.37
5.434535026550293,2,3,3,2,-12.38,-1.3,-0.36,-7.84,-1.53,-2.3
5.44453501701355,2,3,3,2,-11.59,-1.83,-0.96,-8.539999999999999,-1.87,-4.25
5.454535007476807,2,3,3,2,-11.25,-2.13,-1.05,-7.84,-1.84,-5.04
5.464534997940063,2,3,3,2,-10.97,-2.29,-1.27,-6.83,-1.72,-5.48
5.47453498840332,2,3,3,1,-10.71,-2.14,-1.25,-6.83,-1.72,-5.48
5.484534978866577,2,3,3,1,-10.07,-2.03,-1.04,-6.25,-1.28,-5.46
5.494534969329834,2,3,3,1,-9.789999999999999,-1.76,-1,-5.33,-0.6899999999999999,-5.54
5.504534959793091,2,3,3,1,-9.6,-1.24,-0.91,-4.79,-0.55,-5.73
5.514534950256348,2,3,3,1,-9.49,-0.66,-0.38,-4.22,-0.47,-5.96
5.524534940719604,2,3,3,1,-9.26,1.17,0.84,-4.22,-0.47,-5.96
5.534534931182861,2,3,3,1,-9.050000000000001,1.72,1.31,-4.25,-0.53,-6.01
5.544534921646118,2,3,3,1,-8.94,2.06,1.56,-7.26,-0.5600000000000001,-5.51
5.554534912109375,2,3,3,1,-8.699999999999999,2.06,1.59,-8.82,-0.41,-5.04
5.564534902572632,2,3,3,1,-8.56,1.24,1.46,-9.470000000000001,-0.3,-4.61
5.574534893035889,2,3,3,1,-8.539999999999999,1.06,1.65,-9.470000000000001,-0.3,-4.61
5.584534883499146,2,3,3,1,-8.5,0.72,1.72,-9.32,-0.19,-4.2
5.594535112380981,2,3,3,1,-8.289999999999999,0.33,1.78,-6.26,0.27,-3.52
5.604535102844238,2,3,3,1,-8.119999999999999,0,1.77,-4.14,0.38,-2.98
5.614535093307495,2,3,3,1,-7.98,-0.25,1.88,-1.6,0.57,-2.52
5.624535083770752,2,3,3,1,-7.91,-0.23,1.78,-1.6,0.57,-2.52
5.634535074234009,2,3,3,1,-8.23,0.38,1.35,1,0.71,-2.32
5.644535064697266,2,3,3,1,-8.43,0.5,0.99,4.51,0.21,-2.08
5.654535055160522,2,3,3,1,-8.550000000000001,0.82,0.44,5.64,-0.07000000000000001,-1.96
5.664535045623779,2,3,3,1,-8.74,1.16,0.07000000000000001,5.92,-0.39,-1.77
5.674535036087036,2,3,3,1,-9.210000000000001,1.57,-0.29,5.92,-0.39,-1.77
5.684535026550293,2,3,3,1,-9.4,1.62,-0.53,5.46,-0.55,-1.51
5.69453501701355,2,3,3,1,-9.640000000000001,1.6,-0.62,3.88,-0.24,-1.21
5.704535007476807,2,3,3,1,-9.789999999999999,1.66,-0.6899999999999999,2.77,0.03,-1.22
5.714534997940063,2,3,3,1,-9.65,1.68,-0.45,1.34,0.23,-1.19
5.72453498840332,2,3,3,1,-9.58,1.4,-0.34,1.34,0.23,-1.19
5.734534978866577,2,3,3,1,-9.56,0.88,-0.23,-0.28,0.4,-1.13
5.744534969329834,2,3,3,1,-9.59,0.45,-0.08,-1.88,0.5,-1.01
5.754534959793091,2,3,3,1,-9.67,-0.09,0.16,-1.82,0.44,-1.05
5.764534950256348,2,3,3,1,-9.699999999999999,-0.37,0.44,-1.66,0.54,-1.09
5.794534921646118,2,3,3,1,-9.960000000000001,-0.73,1.16,-0.9,0.47,-1.17
5.804534912109375,2,3,3,1,-9.83,-0.77,1.04,-0.62,0.61,-1.13
5.814534902572632,2,3,3,1,-9.65,-0.9,0.96,-0.45,0.6899999999999999,-1.13
5.824534893035889,2,3,3,1,-9.58,-0.88,0.71,-0.45,0.6899999999999999,-1.13
5.834534883499146,2,3,3,1,-9.609999999999999,-0.9,0.32,-0.62,0.7,-1.08
5.844535112380981,2,3,3,1,-9.68,-1.19,0.06,-0.6899999999999999,0.62,-1.21
5.854535102844238,2,3,3,1,-9.73,-1.36,-0.08,-0.47,0.73,-1.42
5.864535093307495,2,3,3,1,-9.84,-1.39,-0.29,-0.27,0.73,-1.63
5.874535083770752,2,3,3,1,-9.970000000000001,-1.29,-0.45,-0.27,0.73,-1.63
5.884535074234009,2,3,3,1,-9.98,-1.16,-0.47,-0.02,0.6,-1.81
5.894535064697266,2,3,3,1,-9.93,-0.91,-0.37,0.45,0.43,-2.09
5.904535055160522,2,3,3,1,-9.94,-0.72,-0.36,0.45,0.39,-2.2
5.914535045623779,2,3,3,1,-9.789999999999999,-0.6,-0.05,0.68,0.31,-2.32
5.924535036087036,2,3,3,1,-9.720000000000001,-0.44,0.1,0.68,0.31,-2.32
5.934535026550293,2,3,3,1,-9.67,-0.74,0.25,0.48,0.29,-2.3
5.94453501701355,2,3,3,1,-9.630000000000001,-1.01,0.25,0.38,0.33,-2.39
5.954535007476807,2,3,3,1,-9.74,-1.22,0.15,0.32,0.28,-2.48
5.964534997940063,2,3,3,1,-9.800000000000001,-1.15,0.13,0.22,0.21,-2.45
5.97453498840332,2,3,3,1,-9.83,-1.17,0.11,0.22,0.21,-2.45
5.984534978866577,2,3,3,1,-9.84,-1.24,0.14,0.05,0.18,-2.42
5.994534969329834,2,3,3,1,-9.77,-1.2,0.19,-0.61,0.5,-2.39
6.004534959793091,2,3,3,1,-9.720000000000001,-1.3,0.11,-0.74,0.58,-2.37
6.014534950256348,2,3,3,1,-9.720000000000001,-1.23,0.07000000000000001,-0.86,0.58,-2.34
6.024534940719604,2,3,3,1,-9.67,-1.14,0.18,-0.86,0.58,-2.34
6.034534931182861,2,3,3,1,-9.67,-0.99,0.3,-0.85,0.52,-2.34
6.044534921646118,2,3,3,1,-9.619999999999999,-0.79,0.41,-0.07000000000000001,0.39,-2.26
6.054534912109375,2,3,3,1,-9.619999999999999,-0.61,0.39,0.28,0.3,-2.13
6.064534902572632,2,3,3,1,-9.67,-0.36,0.28,0.39,0.18,-1.96
6.074534893035889,2,3,3,1,-9.609999999999999,-0.18,0.14,0.39,0.18,-1.96
6.084534883499146,2,3,3,1,-9.52,-0.17,0.14,0.43,0.2,-1.75
6.094535112380981,2,3,3,1,-9.369999999999999,-0.34,0.04,0.01,0.38,-1.44
6.104535102844238,2,3,3,1,-9.4,-0.8,-0.22,0.25,0.41,-1.48
6.114535093307495,2,3,3,1,-9.43,-0.85,-0.15,0.63,0.29,-1.58
6.124535083770752,2,3,3,1,-9.529999999999999,-0.72,-0.06,0.63,0.29,-1.58
6.134535074234009,2,3,3,1,-9.550000000000001,-0.47,0.07000000000000001,0.9,0.01,-1.45
6.144535064697266,2,3,3,1,-9.33,0.06,0.16,0.01,-0.25,-0.86
6.154535055160522,2,3,3,1,-9.220000000000001,-0.08,0.14,-0.64,-0.13,-0.51
6.164535045623779,2,3,3,1,-9.27,-0.21,0.23,-0.98,0.03,-0.3
6.174535036087036,2,3,3,1,-9.390000000000001,-0.07000000000000001,0.29,-0.98,0.03,-0.3
6.184535026550293,2,3,3,1,-9.59,-0.3,0.32,-1.43,0.03,-0.05
6.19453501701355,2,3,3,1,-9.52,-0.13,0.24,-1.28,-0.09,0.51
6.204535007476807,2,3,3,1,-9.460000000000001,0.28,0.08,-1.45,-0.12,0.96
6.214534997940063,2,3,3,1,-9.390000000000001,0.71,0.17,-2.04,-0.13,1.52
6.22453498840332,2,3,3,1,-9.109999999999999,1.31,0.26,-2.04,-0.13,1.52
6.234534978866577,2,3,3,1,-8.92,1.19,0.37,-2.83,-0.13,2.13
6.244534969329834,2,3,3,1,-8.69,0.9,0.59,-2.97,0.22,3.11
6.254534959793091,2,3,3,1,-8.59,1.15,0.52,-2.47,-0.05,3.6
6.264534950256348,2,3,3,1,-8.65,1.69,0.89,-1.66,-0.64,4.13
6.274534940719604,2,3,3,1,-8.6,2.53,0.93,-1.66,-0.64,4.13
6.284534931182861,2,3,3,1,-8.529999999999999,3.73,1.15,-0.59,-1.07,4.85
6.294534921646118,2,3,3,1,-8.43,5.19,1.4,-1.9,-1.34,7.59
6.304534912109375,2,3,3,1,-7.75,4.29,1.22,-4.07,-0.93,8.91
6.314534902572632,2,3,3,1,-7.41,2.74,0.78,-5.14,-0.19,9.51
6.324534893035889,2,3,3,1,-7.33,1.16,0.61,-5.14,-0.19,9.51
6.334534883499146,2,3,3,1,-7.65,0.35,0.41,-4.4,0.17,9.289999999999999
6.344535112380981,2,3,3,1,-8.32,0,0,3.66,-0.89,8.289999999999999
6.354535102844238,2,3,3,1,-8.029999999999999,1.16,0.27,7.58,-0.32,8.51
6.364535093307495,2,3,3,1,-7.67,2.51,0.71,8.640000000000001,0.54,9.68
6.374535083770752,2,3,3,1,-7.04,2.52,0.27,8.640000000000001,0.54,9.68
6.384535074234009,2,3,3,1,-7.21,0.88,-0.14,5.81,1.44,11.35
6.394535064697266,2,3,3,1,-7.78,-0.22,-0.38,2.09,2.46,11.47
6.404535055160522,2,3,3,1,-8.75,-1.33,-1.21,4.29,2.02,10.62
6.415534973144531,2,3,3,1,-10.62,-3.56,-1.22,7.28,0.9,9.800000000000001
6.425534963607788,2,3,3,2,-10.36,-3.54,-1.38,7.28,0.9,9.800000000000001
6.435534954071045,2,3,3,2,-9.890000000000001,-3.68,-1.41,9.02,0.8,9.19
6.445534944534302,2,3,3,2,-9.99,-3.36,-0.86,11.29,2.92,8
6.455534934997559,2,3,3,2,-11.29,0.35,-1.54,10.5,3.46,8.119999999999999
6.465534925460815,2,3,3,2,-11.08,2,-1.12,8.44,4.01,8.91
6.475534915924072,2,3,3,2,-10.75,3.51,-0.42,8.44,4.01,8.91
6.485534906387329,2,3,3,2,-10.34,3.33,-0.51,3.7,4.62,10.34
6.495534896850586,2,3,3,2,-10.64,0.52,-1.21,-3.97,4.59,11.53
6.505534887313843,2,3,3,2,-10.75,-1.55,-1.25,-5.14,4.35,10.05
6.5155348777771,2,3,3,2,-10.6,-2.71,-2.03,-3.43,4.41,8.18
6.525535106658936,2,3,3,2,-10.43,-2.69,-2.24,-3.43,4.41,8.18
6.535535097122192,2,3,3,2,-11.83,-1.99,-2.4,-2,3.99,6.61
6.545535087585449,2,3,3,2,-12.45,-1.58,-2.26,-2,2.99,4.2
6.555535078048706,2,3,3,2,-13.01,-1.26,-1.96,-2.34,3.07,2.98
6.565535068511963,2,3,3,2,-13.73,-1.28,-1.42,-3.12,2.66,1.81
6.57553505897522,2,3,3,2,-14.82,-2.75,-0.68,-3.12,2.66,1.81
6.585535049438477,2,3,3,2,-15.36,-3.58,-0.25,-3.19,1.8,0.53
6.595535039901733,2,3,3,2,-15.86,-4.15,0.42,-1.68,0.02,-2.14
6.60553503036499,2,3,3,2,-16.16,-4.11,0.9399999999999999,-1.53,-0.92,-3.42
6.615535020828247,2,3,3,2,-16.79,-4.54,1.98,-1.67,-1.95,-4.71
6.625535011291504,2,3,3,2,-17.08,-4.32,2.36,-1.67,-1.95,-4.71
6.635535001754761,2,3,3,2,-17.73,-4.44,3.42,-2.43,-3.06,-6.02
6.645534992218018,2,3,3,2,-18.36,-5.1,4.56,-3.78,-6.05,-9.02
6.655534982681274,2,3,3,2,-19.63,-8.210000000000001,6.27,-3.66,-7.76,-10.86
6.665534973144531,2,3,3,2,-20.12,-9.44,5.71,-2.18,-9.02,-12.98
6.675534963607788,2,3,3,1,-20.12,-9.44,5.71,-2.18,-9.02,-12.98
6.685534954071045,2,3,3,1,-20.93,-10.74,5.29,-0.46,-10.01,-15.11
6.695534944534302,2,3,3,1,-23.93,-15.9,-0.63,3.76,-11.35,-19.53
6.705534934997559,2,3,3,1,-25.2,-15.89,-4.01,7.32,-10.53,-21.3
6.715534925460815,2,3,3,1,-26.82,-14.85,-6.72,10.38,-9.5,-22.43
6.725534915924072,2,3,3,1,-26.82,-14.85,-6.72,10.38,-9.5,-22.43
6.735534906387329,2,3,3,1,-30.26,-8.210000000000001,-10.34,12.24,-8.23,-23.3
6.745534896850586,2,3,3,1,-27.76,2.56,-9.699999999999999,7.47,-3.82,-24.41
6.755534887313843,2,3,3,1,-19.88,8.539999999999999,-6.81,8.48,-1.23,-25.61
6.7655348777771,2,3,3,1,-15.52,6.41,-5.85,10.83,0.93,-26.28
6.775535106658936,2,3,3,1,-15.52,6.41,-5.85,10.83,0.93,-26.28
6.785535097122192,2,3,3,1,-11.19,2.39,-6.5,13.58,1.52,-25.53
6.795535087585449,2,3,3,1,-2.36,39.22,9.17,34.52,-7.59,-23.89
6.805535078048706,2,3,3,1,0.13,39.22,19.4,11.03,-10.13,-10.49
6.815535068511963,2,3,3,1,-0.68,39.15,12.49,11.03,-10.13,-10.49
6.82553505897522,2,3,3,1,-0.68,39.15,12.49,11.03,-10.13,-10.49
6.835535049438477,2,3,3,1,3.95,27.08,3.46,-12.96,8.07,10.91
6.845535039901733,2,3,3,1,-7.54,-5.57,0.44,-9.130000000000001,9.140000000000001,14.96
6.85553503036499,2,3,3,1,-7.67,-7.24,3.83,-1.17,8.31,12.42
6.865535020828247,2,3,3,1,-3.11,-4.11,1.75,8.23,4.62,9.18
6.875535011291504,2,3,3,1,-3.11,-4.11,1.75,8.23,4.62,9.18
6.885535001754761,2,3,3,1,-0.59,-3.04,-2.86,3.92,1.21,12.12
6.895534992218018,2,3,3,1,1.5,-9.5,-4.62,-5.44,-0.24,14.11
6.905534982681274,2,3,3,1,1.12,-9.18,-5.01,-7.27,0.07000000000000001,12.08
6.915534973144531,2,3,3,1,-0.13,-6.32,-1.39,-5.88,1.92,9.15
6.925534963607788,2,3,3,1,-0.13,-6.32,-1.39,-5.88,1.92,9.15
6.935534954071045,2,3,3,1,-0.54,-3.95,-1.87,3.48,0.21,4.23
6.945534944534302,2,3,3,1,1.09,-2.29,-2.72,3.45,-2.25,3.75
6.955534934997559,2,3,3,1,1.64,-2,-1.29,0.77,-3.9,4.07
6.965534925460815,2,3,3,1,0.8100000000000001,-2.07,-0.15,-1.29,-4.53,4.59
6.975534915924072,2,3,3,1,0.8100000000000001,-2.07,-0.15,-2.9,-4.06,4.79
6.985534906387329,2,3,3,1,0.77,-2.69,0.59,-3.09,-2.68,4.74
6.995534896850586,2,3,3,1,0.84,-0.63,0.95,-1.69,-0.77,4.58
7.005534887313843,2,3,3,1,0.15,0.62,1.36,0.09,0.97,4.74
7.0155348777771,2,3,3,1,-0.68,1.68,1.57,0.19,1.75,5.2
7.025535106658936,2,3,3,1,-0.68,1.68,1.57,-1.06,1.96,5.55
7.035535097122192,2,3,3,1,-1.31,2.44,1.6,-2.77,1.89,5.54
7.045535087585449,2,3,3,1,-1.2,2.71,-0.23,-4.72,1.89,5.28
7.055535078048706,2,3,3,1,-1.18,1.89,-0.93,-7.16,2.24,4.9
7.065535068511963,2,3,3,1,-1.43,1.44,-1.38,-8.779999999999999,2.64,4.41
7.07553505897522,2,3,3,1,-1.43,1.44,-1.38,-10.12,2.67,3.86
7.085535049438477,2,3,3,1,-1.52,0.89,-0.91,-10.66,1.75,3.52
7.095535039901733,2,3,3,1,-0.87,1.39,-2.11,-7.35,0.5,3.26
7.10553503036499,2,3,3,1,0.47,0.65,-1.62,-4.51,-0.38,3.36
7.115535020828247,2,3,3,1,0.85,0.52,-0.42,-2.63,-0.92,3.57
7.125535011291504,2,3,3,1,0.85,0.52,-0.42,-2.63,-0.92,3.57
7.135535001754761,2,3,3,1,0.91,0.39,0.95,-0.79,-1.34,4.17
7.145534992218018,2,3,3,1,-2.5,17.68,4.51,-1.36,-2.05,4
7.155534982681274,2,3,3,1,-5.3,29.56,8.789999999999999,5.71,-3.52,3.23
7.165534973144531,2,3,3,1,-7.41,14.51,6.98,12.22,-3.55,2.46
7.175534963607788,2,3,3,1,-7.41,14.51,6.98,12.22,-3.55,2.46
7.185534954071045,2,3,3,1,-21.57,-2.86,-0.36,-30.99,1.3,-0.47
7.195534944534302,2,3,3,1,-26.03,13.84,7.34,2.3,0.27,-5.33
7.205534934997559,2,3,3,1,-26.26,-2.85,-1.94,33.83,-2.85,-5.4
7.215534925460815,2,3,3,1,-26.32,-4.39,-8.869999999999999,12.87,2.52,3.91
7.225534915924072,2,3,3,1,-26.32,-4.39,-8.869999999999999,12.87,2.52,3.91
7.235534906387329,2,3,3,1,-11.19,-6.61,-5.87,16.37,6.73,11.39
7.245534896850586,2,3,3,1,-23.81,17.4,-14.99,11.37,11.08,10.54
7.255534887313843,2,3,3,1,-35.39,37.11,-11.07,17.31,8.65,9.449999999999999
7.2655348777771,2,3,3,1,-37.14,3.76,12.5,17.29,6.16,10.69
7.275535106658936,2,3,3,2,-15.4,-19.79,4.85,-38.97,6.28,19.05
7.285535097122192,2,3,3,2,-9.35,-33.83,-3.44,-60.88,8.380000000000001,17.02
7.295535087585449,2,3,3,2,-10.1,-39.22,-0.48,-68.48999999999999,9.5,11.36
7.305535078048706,2,3,3,2,-13.85,-26.22,-2.75,-28.42,7.87,6.17
7.315535068511963,2,3,3,2,-12.52,-15.05,-1.63,22.54,5.16,3.54
7.32553505897522,2,3,3,2,-14.08,-7.82,0.22,50.03,3.26,-0.48
7.335535049438477,2,3,3,2,-17.64,-0.24,2.04,54.45,1.9,-5.97
7.345535039901733,2,3,3,2,-18.76,7.78,0.8,44.74,-0.91,-8.18
7.35553503036499,2,3,3,2,-18.65,6.81,-0.5600000000000001,23.44,-4.4,-6.49
7.365535020828247,2,3,3,2,-19.02,3.16,-1.2,2.1,-4.83,-2.57
7.375535011291504,2,3,3,2,-18.19,-0.97,-1.51,-12.22,-2.97,1.39
7.385535001754761,2,3,3,2,-13.91,-3.41,-1.78,-18.17,-1.9,2.85
7.395534992218018,2,3,3,2,-12.78,-3.83,-1.38,-17.83,-2.1,2.07
7.405534982681274,2,3,3,2,-12.23,-4.41,-0.96,-16.5,-1.89,0.34
7.415534973144531,2,3,3,2,-12.15,-5.21,-1.05,-15.22,-1.51,-1.89
7.425534963607788,2,3,3,2,-11.77,-5.51,-1.44,-12.38,-1.24,-4.43
7.436534881591797,2,3,3,2,-11.42,-5.22,-1.39,-7.98,-1.07,-7
7.446535110473633,2,3,3,2,-11.08,-4.83,-1.38,-3.12,-1.2,-8.81
7.45653510093689,2,3,3,2,-10.55,-3.5,-1.05,1.17,-1.63,-9.51
7.466535091400146,2,3,3,2,-10.24,-2.16,-0.79,3.97,-2.16,-9.390000000000001
7.476535081863403,2,3,3,1,-9.94,-0.62,-0.57,5.27,-2.27,-8.82
7.48653507232666,2,3,3,1,-9.51,0.84,-0.35,4.8,-2.13,-7.99
7.496535062789917,2,3,3,1,-8.800000000000001,3.04,-0.01,2.95,-1.92,-7.19
7.506535053253174,2,3,3,1,-8.23,3.53,0.27,-0.2,-1.57,-6.6
7.516535043716431,2,3,3,1,-7.67,3.43,0.44,-3.97,-1.29,-6.05
7.526535034179688,2,3,3,1,-6.97,3.32,0.61,-7.89,-0.88,-5.79
7.536535024642944,2,3,3,1,-6.5,2.12,0.83,-11.51,-0.73,-5.63
7.546535015106201,2,3,3,1,-6.52,1.61,0.97,-13.54,-0.52,-5.69
7.556535005569458,2,3,3,1,-6.63,1.11,1,-13.96,-0.25,-5.82
7.566534996032715,2,3,3,1,-6.7,0.51,1.07,-12.92,-0.05,-5.65
7.596534967422485,2,3,3,1,-7.48,1.87,1.63,-3.3,0.12,-3.79
7.606534957885742,2,3,3,1,-7.72,2.23,1.62,-0.38,-0.21,-3.37
7.616534948348999,2,3,3,1,-8,2.78,1.31,1.92,-0.51,-3.06
7.626534938812256,2,3,3,0,-8.17,3.44,1.02,3.71,-0.79,-2.74
7.636534929275513,2,3,3,0,-8.4,3.74,0.99,4.82,-1.02,-2.29
7.64653491973877,2,3,3,0,-8.6,4.12,0.52,4.87,-1.1,-1.57
7.656534910202026,2,3,3,0,-8.94,3.68,0.17,4.24,-1.07,-0.8
7.666534900665283,2,3,3,0,-9.18,3.11,0.01,2.78,-0.79,-0.08
7.67653489112854,2,3,3,0,-9.4,2.07,0.09,0.8100000000000001,-0.63,0.52
7.686534881591797,2,3,3,0,-9.58,1.42,-0.09,-1.06,-0.48,0.78
7.696535110473633,2,3,3,0,-9.970000000000001,0.38,0.15,-2.52,-0.24,0.71
7.70653510093689,2,3,3,0,-10.2,-0.08,0.36,-3.11,0.04,0.38
7.716535091400146,2,3,3,0,-10.25,-0.28,0.49,-3.42,0.23,0.01
7.726535081863403,2,3,3,0,-10.29,-0.63,0.68,-3.26,0.3,-0.23
7.73653507232666,2,3,3,0,-10.08,-1.57,0.82,-2.84,0.26,-0.4
7.746535062789917,2,3,3,0,-9.970000000000001,-1.88,0.6,-2.04,0.12,-0.42
7.756535053253174,2,3,3,0,-10.11,-2.03,0.44,-0.9399999999999999,0.08,-0.65
7.766535043716431,2,3,3,0,-10.23,-2.28,0.4,-0.03,-0.03,-0.84
7.776535034179688,2,3,3,0,-10.24,-2.93,-0.07000000000000001,0.72,-0.17,-0.99
7.786535024642944,2,3,3,0,-10.36,-2.84,-0.25,1.18,-0.08,-1.26
7.796535015106201,2,3,3,0,-10.39,-2.48,-0.44,1.66,0.13,-1.67
7.836534976959229,2,3,3,0,-9.9,0,-0.13,2.14,0.39,-3.42
7.846534967422485,2,3,3,0,-9.6,0.27,0.02,1.31,0.54,-3.63
7.856534957885742,2,3,3,0,-9.539999999999999,0.28,0.26,0.16,0.5,-3.67
7.866534948348999,2,3,3,0,-9.449999999999999,0.3,0.42,-0.7,0.59,-3.66
7.876534938812256,2,3,3,0,-9.390000000000001,-0.22,0.6899999999999999,-1.4,0.67,-3.57
7.886534929275513,2,3,3,0,-9.33,-0.6899999999999999,0.65,-1.74,0.76,-3.57
7.89653491973877,2,3,3,0,-9.43,-0.71,0.51,-1.69,0.9,-3.62
7.906534910202026,2,3,3,0,-9.449999999999999,-0.54,0.73,-1.33,0.9,-3.7
7.916534900665283,2,3,3,0,-9.49,-0.42,0.86,-0.73,0.86,-3.73
7.92653489112854,2,3,3,0,-9.33,-0.28,0.79,-0.33,0.86,-3.55
7.936534881591797,2,3,3,0,-9.32,-0.03,0.55,-0.11,0.75,-3.25
7.946535110473633,2,3,3,0,-9.380000000000001,0,0.38,0.06,0.66,-2.89
7.95653510093689,2,3,3,0,-9.42,0,0.25,-0.07000000000000001,0.5,-2.52
7.966535091400146,2,3,3,0,-9.6,-0.27,0.2,-0.04,0.38,-2.16
7.976535081863403,2,3,3,0,-9.68,-0.71,0.31,-0.2,0.39,-1.91
7.98653507232666,2,3,3,0,-9.710000000000001,-0.91,0.23,-0.26,0.46,-1.83
7.996535062789917,2,3,3,0,-9.77,-1.07,0,-0.17,0.48,-1.92
8.006535053253174,2,3,3,0,-9.75,-1.05,0.09,0.29,0.36,-1.99
8.016535043716431,2,3,3,0,-9.74,-0.9,0.16,0.92,0.27,-2.07
8.026535034179688,2,3,3,0,-9.699999999999999,-0.75,0.21,1.43,0.18,-2.02
8.036535024642944,2,3,3,0,-9.74,-0.73,0.17,1.68,0.15,-1.89
8.046535015106201,2,3,3,0,-9.59,-0.91,0.01,1.63,0.13,-1.66
8.056535005569458,2,3,3,0,-9.550000000000001,-0.84,-0.08,1.82,0.1,-1.42
8.066534996032715,2,3,3,0,-9.52,-1.23,-0.08,1.82,0.15,-1.21
8.076534986495972,2,3,3,0,-9.51,-1.44,0,1.52,0.22,-1.13
8.086534976959229,2,3,3,0,-9.640000000000001,-1.71,-0.03,1.74,0.28,-1.1
8.096534967422485,2,3,3,0,-9.69,-1.55,-0.08,1.73,0.26,-1.14
8.106534957885742,2,3,3,0,-9.800000000000001,-1.62,0.12,1.68,0.1,-1.2
8.116534948348999,2,3,3,0,-9.65,-1.56,0.19,1.39,-0.06,-1.23
8.126534938812256,2,3,3,0,-9.710000000000001,-1.08,0.06,1.08,-0.05,-1.26
8.136534929275513,2,3,3,0,-9.66,-1.02,-0.01,0.49,0.07000000000000001,-1.17
8.14653491973877,2,3,3,0,-9.58,-0.82,-0.22,-0.14,0.19,-1.02
8.156534910202026,2,3,3,0,-9.57,-0.71,-0.3,-0.5600000000000001,0.27,-0.93
8.166534900665283,2,3,3,0,-9.66,-0.6899999999999999,-0.02,-0.95,0.29,-0.8
8.17653489112854,2,3,3,0,-9.66,-0.71,0.04,-1.04,0.29,-0.8
8.186534881591797,2,3,3,0,-9.630000000000001,-0.67,0.07000000000000001,-0.95,0.26,-0.74
8.196535110473633,2,3,3,0,-9.74,-1.01,0.04,-0.87,0.32,-0.68
8.20653510093689,2,3,3,0,-9.67,-1,0.05,-1.02,0.3,-0.66
8.216535091400146,2,3,3,0,-9.619999999999999,-0.92,-0.01,-1.02,0.2,-0.55
8.226535081863403,2,3,3,0,-9.57,-1.24,0.05,-1.2,0.11,-0.42
8.23653507232666,2,3,3,0,-9.449999999999999,-1.35,-0.14,-1.14,0.03,-0.32
8.246535062789917,2,3,3,0,-9.390000000000001,-1.37,-0.19,-0.95,-0.07000000000000001,-0.16
8.256535053253174,2,3,3,0,-9.359999999999999,-1.16,-0.11,-0.73,-0.08,-0.03
8.266535043716431,2,3,3,0,-9.33,-0.96,0.08,-0.5600000000000001,-0.12,0.17
8.276535034179688,2,3,3,0,-9.109999999999999,0.44,0.55,-0.31,-0.14,0.41
8.286535024642944,2,3,3,0,-9.02,1.25,0.7,0.12,-0.18,0.82
8.296535015106201,2,3,3,0,-8.880000000000001,2.2,0.85,0.22,-0.25,1.46
8.306535005569458,2,3,3,0,-8.869999999999999,3.36,1.07,0.12,-0.42,2.26
8.316534996032715,2,3,3,0,-9.06,5.25,1.42,-0.57,-0.5600000000000001,3.19
8.326534986495972,2,3,3,0,-8.99,6.38,1.37,-1.57,-0.75,4.28
8.336534976959229,2,3,3,0,-8.74,6.29,1.58,-2.76,-0.87,5.67
8.406534910202026,2,3,3,0,-7.18,0.49,-0.05,-1.06,-0.86,10.88
8.416534900665283,2,3,3,0,-7.28,-0.19,0.05,1.06,-0.76,10.76
8.42653489112854,2,3,3,0,-7.39,-0.8,-0.03,3.04,-0.59,10.78
8.436534881591797,2,3,3,0,-7.78,-1.56,-0.53,4.76,-0.43,10.73
8.446535110473633,2,3,3,0,-8.24,-2.29,-0.62,5.17,0.35,10.42
8.45653510093689,2,3,3,0,-8.630000000000001,-2.71,-1.45,4.23,1.38,9.67
8.467535018920898,2,3,3,0,-9.44,-2.75,-1.53,4.77,1.75,9.34
8.477535009384155,2,3,3,0,-9.75,-2.1,-1.31,7.17,1.2,8.890000000000001
8.487534999847412,2,3,3,0,-9.69,-1.7,-0.9,9.539999999999999,1.07,8.779999999999999
8.497534990310669,2,3,3,0,-9.76,-1.24,-1,10.75,1.69,8.800000000000001
8.507534980773926,2,3,3,0,-10.06,-0.07000000000000001,-1.18,11.18,2.68,8.91
8.527534961700439,2,3,3,0,-9.800000000000001,0.35,-1.42,8.039999999999999,3.75,9.57
8.537534952163696,2,3,3,0,-10.3,0.21,-0.83,6.05,4.45,9.640000000000001
8.547534942626953,2,3,3,0,-10.68,-0.57,-0.68,2.34,4.61,9.699999999999999
8.55753493309021,2,3,3,0,-11.62,-1.74,0,0.09,4.68,9.25
8.567534923553467,2,3,3,0,-11.58,-2.4,-0.29,-0.92,4.55,8.43
8.577534914016724,2,3,3,0,-11.54,-2.11,-0.5600000000000001,-1.17,4.63,7.79
8.58753490447998,2,3,3,0,-12.2,-0.8,-0.48,-0.12,4.88,7.2
8.597534894943237,2,3,3,0,-12.23,-1.03,-0.6,-0.11,4.78,6.8
8.607534885406494,2,3,3,0,-12.17,-1.65,-0.7,-1.49,4.11,6.42
8.617534875869751,2,3,3,0,-12.52,-2.49,-0.91,-2.98,3.71,5.66
8.627535104751587,2,3,3,0,-13.28,-3.48,-1.38,-4.3,3.14,4.53
8.637535095214844,2,3,3,0,-13.98,-3.13,-1.52,-3.89,2.55,3.04
8.647535085678101,2,3,3,0,-14.61,-2.48,-1.66,-2.72,1.96,1.48
8.657535076141357,2,3,3,0,-15.36,-1.87,-1.17,-1.87,1.35,0.07000000000000001
8.667535066604614,2,3,3,0,-16.47,-3.09,-0.04,-2.34,0.65,-1.08
8.677535057067871,2,3,3,0,-16.6,-4.11,0.25,-3.51,0.04,-2.09
8.687535047531128,2,3,3,0,-16.91,-4.87,0.77,-3.85,-0.14,-2.98
8.697535037994385,2,3,3,0,-16.99,-5.42,1.31,-3.05,-0.6899999999999999,-3.62
8.707535028457642,2,3,3,0,-16.86,-5.46,2.47,-1.52,-1.58,-4.39
8.717535018920898,2,3,3,0,-16.92,-5.88,3.29,-0.24,-2.74,-5.48
8.727535009384155,2,3,3,0,-17.29,-6.08,3.77,0.05,-4.2,-6.64
8.737534999847412,2,3,3,0,-18.03,-6.44,4.01,0.3,-5.84,-8.06
8.747534990310669,2,3,3,0,-19.76,-8.460000000000001,3.74,-0.09,-7.53,-9.76
8.757534980773926,2,3,3,0,-21.05,-9.539999999999999,3.42,-0.31,-9.119999999999999,-11.65
8.797534942626953,2,3,3,0,-25.19,-17.39,-2.58,2.21,-9.789999999999999,-19.34
8.80753493309021,2,3,3,0,-26.31,-17.29,-5.77,5.17,-9.16,-21.87
8.817534923553467,2,3,3,0,-27.97,-14.58,-9.119999999999999,8.609999999999999,-7.93,-24.74
8.827534914016724,2,3,3,0,-28.57,-4.9,-15.9,10.13,-6.91,-26.97
8.83753490447998,2,3,3,0,-27.85,2.17,-14.6,12.3,-4.66,-27.78
8.847534894943237,2,3,3,0,-25.9,9.050000000000001,-13.22,18.89,-2.74,-28.62
8.857534885406494,2,3,3,0,-22.37,11.46,-11.4,21.04,-0.82,-31
8.867534875869751,2,3,3,0,-11.16,10.68,-4.64,18.07,0.08,-29.98
8.877535104751587,2,3,3,0,-7.52,36.41,7.29,33.46,-0.64,-30.92
8.887535095214844,2,3,3,0,0.9399999999999999,39.22,20,40.8,-8.880000000000001,-28.95
8.897535085678101,2,3,3,0,-0.8100000000000001,39.1,18.13,13.02,-3.49,-11.92
8.907535076141357,2,3,3,0,5.08,13.15,3.64,-5.6,8.41,6.08
8.917535066604614,2,3,3,0,-5.33,-11.9,3.15,-11.07,10.31,16.79
8.927535057067871,2,3,3,0,-9.51,-14.24,1.6,-5.72,11.09,13.28
8.937535047531128,2,3,3,0,-4.72,-1.3,-0.08,6.13,7.01,7.07
8.947535037994385,2,3,3,0,-1.54,1.85,-2.21,13.01,2.02,9.93
8.957535028457642,2,3,3,0,1.59,3.06,-4.16,9.050000000000001,-1.2,14.07
8.967535018920898,2,3,3,0,2.63,0.46,-4.31,-3.3,-3.79,15.05
8.977535009384155,2,3,3,0,-0.36,-5.13,-3.45,-15.69,-2.58,13.53
8.987534999847412,2,3,3,0,-0.4,-5.7,-1.97,-16.45,-1.58,9.91
8.997534990310669,2,3,3,0,0.03,-5.94,-1.2,-12.03,-1.01,6.77
9.007534980773926,2,3,3,0,1.15,-5.86,-1.89,-9.74,-1.65,5.6
9.017534971237183,2,3,3,0,1.95,-6.21,-2.03,-10.12,-4.05,6.05
9.027534961700439,2,3,3,0,1.62,-6.55,-0.9399999999999999,-8.58,-6.48,5.98
9.037534952163696,2,3,3,0,0.73,-6.54,0.67,-4.64,-6.55,5.11
9.047534942626953,2,3,3,0,0.04,-5.56,1.35,0.53,-4.51,4.38
9.05753493309021,2,3,3,0,-0.74,-2.65,1.55,3.58,-1.27,4.32
9.067534923553467,2,3,3,0,-0.88,-0.96,1.41,5.65,1.45,4.6
9.077534914016724,2,3,3,0,-0.85,0.03,1.25,5.57,2.36,5.02
9.08753490447998,2,3,3,0,-0.97,0.66,1.02,3.77,2.13,5.17
9.097534894943237,2,3,3,0,-0.1,1.11,-1.04,2.06,1.25,5.17
9.107534885406494,2,3,3,0,0.12,2.04,-1.14,0.37,0.97,5.17
9.117534875869751,2,3,3,0,0.47,2.97,-1.18,-1.95,1.37,5.33
9.127535104751587,2,3,3,0,0.92,3.75,-1.57,-4.25,1.38,5.71
9.137535095214844,2,3,3,0,0.24,3.76,-2.51,-7.57,1.49,6.16
9.147535085678101,2,3,3,0,-0.21,2.16,-2.83,-11.55,1.47,6.06
9.157535076141357,2,3,3,0,-0.46,0.36,-2.66,-12.54,0.76,5.2
9.167535066604614,2,3,3,0,-0.77,-0.83,-1.89,-10.34,0.19,3.54
9.187535047531128,2,3,3,0,-0.28,0.35,1.15,-2.58,-1.48,1.3
9.197535037994385,2,3,3,0,0.21,1.85,1.65,0.66,-2.15,1.42
9.207535028457642,2,3,3,0,0.49,3.49,1.37,1.76,-1.66,1.92
9.217535018920898,2,3,3,0,-1.13,2.35,-0.25,-2.02,-0.52,2.28
9.227535009384155,2,3,3,0,-2.32,3.05,2.16,-7.15,-0.53,1.62
9.237534999847412,2,3,3,0,-4.28,17.06,6.41,3.99,-3.36,-0.27
9.247534990310669,2,3,3,0,-4.59,16.63,9.84,8.83,-4.58,-1.59
9.257534980773926,2,3,3,0,-8.890000000000001,-28.08,-3.8,-14.65,2.48,-1.85
9.267534971237183,2,3,3,0,-15.9,-21.6,-2.77,-15.72,5.46,-5.68
9.277534961700439,2,3,3,1,-19.17,8.06,2.73,17.65,-0.93,-10.72
9.287534952163696,2,3,3,1,-24.7,11.9,10.34,30.98,-3.75,-9.34
9.297534942626953,2,3,3,1,-26.2,1.49,-9.220000000000001,2.08,2.05,-0.04
9.30753493309021,2,3,3,1,-16.42,2.28,-7.38,0.43,4.83,5.85
9.317534923553467,2,3,3,1,-15.72,2.96,-13.16,-6.56,9.470000000000001,7.86
9.327534914016724,2,3,3,1,-36.52,28.01,-16.12,-10.98,10.47,9.720000000000001
9.33753490447998,2,3,3,1,-39.33,39.22,13.19,9.289999999999999,5.67,11.56
9.347534894943237,2,3,3,1,-37.85,28.48,25.65,1.68,4.31,18.21
9.357534885406494,2,3,3,1,-8.15,-3.46,12.4,-61.99,3.76,22.89
9.367534875869751,2,3,3,1,-13.15,-39.22,-12.22,-92.12,8.18,17.66
9.377535104751587,2,3,3,1,-22.68,-39.09,-9.300000000000001,-85.58,7.31,9.59
9.387535095214844,2,3,3,1,-12.84,-39.07,-9.16,-0.71,6.46,1.47
9.397535085678101,2,3,3,1,-6.34,-26.47,-10.93,77.08,1.46,-2.43
9.407535076141357,2,3,3,1,-19.11,-0.28,-0.9399999999999999,95.62,1.92,-11.85
9.417535066604614,2,3,3,1,-23.59,10.83,3.2,88.09999999999999,-2.07,-17.21
9.428534984588623,2,3,3,1,-22.31,14.59,3.44,57.19,-5.65,-15.38
9.437535047531128,2,3,3,1,-17.81,10.94,1.51,17.2,-6.29,-6.84
9.447535037994385,2,3,3,1,-11.97,-3.26,-3.91,-13.59,-3.13,-0.57
9.458534955978394,2,3,3,1,-10.31,-4.82,-3.31,-26.43,-1.49,1.16
9.467535018920898,2,3,3,1,-9.199999999999999,-4.02,-2.14,-26.48,-1.21,-0.83
9.477535009384155,2,3,3,1,-8.880000000000001,-2.5,-1.2,-22.97,-1.88,-3.45
9.488534927368164,2,3,3,1,-9.140000000000001,0.6899999999999999,0.02,-20.18,-1.87,-5.6
9.498534917831421,2,3,3,1,-9.44,0.78,-0.08,-18.14,-0.6,-7.34
9.508534908294678,2,3,3,1,-9.359999999999999,-0.28,-0.22,-16.26,1.09,-8.58
9.518534898757935,2,3,3,1,-7.16,-2,-0.88,-13.09,1.77,-8.9
9.528534889221191,2,3,3,1,-5.3,-3.78,-1.7,-8.33,1.25,-8.890000000000001
9.538534879684448,2,3,3,1,-5.15,-3.87,-1.68,-3.27,0.8,-8.4
9.548535108566284,2,3,3,1,-4.29,-3.05,-1.57,1.26,0.42,-8.23
9.578535079956055,2,3,3,1,-4.22,2.73,-1.23,4.12,0,-9.73
9.588535070419312,2,3,3,1,-5.49,5.06,-0.59,2.51,-1.35,-9.140000000000001
9.598535060882568,2,3,3,1,-7.22,7.32,1.06,-0.44,-3.23,-8.24
9.608535051345825,2,3,3,1,-12.32,10.65,5.82,-5,-5.6,-7.42
9.618535041809082,2,3,3,1,-15.35,9.52,6.91,-11.37,-7.1,-6.72
9.628535032272339,2,3,3,0,-16.39,6.34,6.44,-17.11,-5.17,-5.3
9.638535022735596,2,3,3,0,-14.18,2.42,5.56,-19.01,-1.46,-3.09
9.648535013198853,2,3,3,0,-7.56,-1.78,3.34,-15.77,1.14,-1.39
9.658535003662109,2,3,3,0,-6.38,-2.62,2.18,-10.32,2.59,-0.18
9.668534994125366,2,3,3,0,-6.93,-2.76,1.02,-4.51,2.97,0.54
9.678534984588623,2,3,3,0,-8.949999999999999,-1.1,-0.71,1.09,2.31,0.78
9.68853497505188,2,3,3,0,-9.279999999999999,0.7,-0.96,6.11,1.17,0.86
9.698534965515137,2,3,3,0,-9.6,1.54,-1.23,8.42,-0.28,1
9.708534955978394,2,3,3,0,-10.56,1.79,-1.63,8.119999999999999,-0.98,0.77
9.71853494644165,2,3,3,0,-11.89,0,-1.44,6.9,-1.13,0.03
9.728534936904907,2,3,3,0,-11.34,-1.8,-1.39,5.1,-1.33,-0.51
9.738534927368164,2,3,3,0,-10.7,-3.1,-1.29,3.8,-1.34,-0.61
9.748534917831421,2,3,3,0,-10.02,-3.68,-1.08,3.94,-1.17,-0.8
9.758534908294678,2,3,3,0,-9.1,-4.37,0.04,3.79,-1.04,-1.43
9.768534898757935,2,3,3,0,-9.109999999999999,-4.58,0.61,2.58,-0.97,-2.31
9.778534889221191,2,3,3,0,-9.300000000000001,-4.44,1.16,1.56,-0.95,-2.93
9.788534879684448,2,3,3,0,-9.390000000000001,-3.69,1.64,1.03,-1.06,-3.31
9.798535108566284,2,3,3,0,-9.32,-2.9,2,0.44,-0.91,-3.37
9.808535099029541,2,3,3,0,-9.26,-2.24,2.02,0.02,-0.7,-3.23
9.818535089492798,2,3,3,0,-9.199999999999999,-1.26,1.93,0.32,-0.62,-3.1
9.828535079956055,2,3,3,0,-9.15,-0.8,1.85,-0.16,-0.47,-2.94
9.838535070419312,2,3,3,0,-9.32,0.13,1.14,-1.12,-0.13,-2.86
9.848535060882568,2,3,3,0,-9.470000000000001,0.64,0.77,-1.81,0.09,-2.72
9.858535051345825,2,3,3,0,-9.49,1.08,0.47,-2.6,-0.02,-2.42
9.868535041809082,2,3,3,0,-9.51,0.66,0.41,-4.53,-0.14,-1.95
9.878535032272339,2,3,3,0,-9.65,-0.03,0.02,-5.71,-0.15,-1.55
9.888535022735596,2,3,3,0,-9.75,-0.5600000000000001,-0.19,-5.46,-0.3,-1.3
9.898535013198853,2,3,3,0,-9.800000000000001,-1.13,-0.5,-4.35,-0.59,-1.01
9.908535003662109,2,3,3,0,-9.91,-2.11,-0.38,-3.06,-0.78,-0.72
9.918534994125366,2,3,3,0,-9.65,-2.35,-0.11,-1.16,-0.74,-0.7
9.928534984588623,2,3,3,0,-9.5,-2.13,-0.04,0.66,-0.63,-0.8
9.93853497505188,2,3,3,0,-9.48,-2.06,0.19,1.64,-0.57,-0.86
9.948534965515137,2,3,3,0,-9.68,-2.35,0.4,1.4,-0.28,-0.9
9.958534955978394,2,3,3,0,-9.880000000000001,-1.96,1.08,1.4,-0.07000000000000001,-1.04
9.96853494644165,2,3,3,0,-9.869999999999999,-1.99,1.31,1.1,0.07000000000000001,-1.07
9.978534936904907,2,3,3,0,-9.58,-1.7,1.39,1.13,0.18,-1.02
9.988534927368164,2,3,3,0,-9.300000000000001,-1.63,1.42,1.09,0.23,-0.86
9.998534917831421,2,3,3,0,-9.199999999999999,-1.74,0.91,0.74,0.08,-0.47
10.00853490829468,2,3,3,0,-9.24,-2.12,0.83,-0.02,-0.07000000000000001,-0.13
10.01853489875793,2,3,3,0,-9.34,-2.26,0.63,-0.19,-0.18,-0.03
10.02853488922119,2,3,3,0,-9.52,-1.66,-0.01,0.08,-0.22,-0.09
10.03853487968445,2,3,3,0,-9.609999999999999,-1.98,-0.13,-0.13,-0.18,-0.23
10.04853510856628,2,3,3,0,-9.67,-1.96,-0.29,-0.28,-0.07000000000000001,-0.38
10.05853509902954,2,3,3,0,-9.73,-1.76,-0.14,-0.01,0.03,-0.55
10.0685350894928,2,3,3,0,-9.66,-0.87,0.13,0.25,0.08,-0.67
10.07853507995605,2,3,3,0,-9.56,-1.23,0.4,-0.35,0.12,-0.62
10.08853507041931,2,3,3,0,-9.550000000000001,-1.6,0.59,-1.32,0.27,-0.47
10.09853506088257,2,3,3,0,-9.68,-1.73,0.62,-1.59,0.33,-0.45
10.10853505134583,2,3,3,0,-9.699999999999999,-1.84,0.89,-1.67,0.14,-0.53
10.11853504180908,2,3,3,0,-9.66,-1.81,0.78,-1.66,-0.09,-0.54
10.12853503227234,2,3,3,0,-9.6,-2.18,0.65,-2.16,-0.08,-0.44
10.1385350227356,2,3,3,0,-9.550000000000001,-2.69,0.75,-3.11,0.14,-0.21
10.14853501319885,2,3,3,0,-9.539999999999999,-3.04,0.53,-2.9,0.26,-0.16
10.15853500366211,2,3,3,0,-9.49,-2.86,0.42,-2.2,0.25,-0.24
10.16853499412537,2,3,3,0,-9.48,-2.58,0.31,-1.18,0.12,-0.31
10.17853498458862,2,3,3,0,-9.449999999999999,-2.05,0.19,-0.22,-0.07000000000000001,-0.42
10.18853497505188,2,3,3,0,-9.449999999999999,-1.68,0.11,-0.09,-0.1,-0.4
10.19853496551514,2,3,3,0,-9.390000000000001,-1.47,-0.02,-0.3,0.11,-0.19
10.20853495597839,2,3,3,0,-9.57,-1.58,0.02,-0.35,0.17,0.01
10.21853494644165,2,3,3,0,-9.699999999999999,-1.82,0.15,-0.33,0.19,0.13
10.22853493690491,2,3,3,1,-9.640000000000001,-1.83,0.23,0.2,0.13,0.12
10.23853492736816,2,3,3,1,-9.619999999999999,-1.96,0.31,0.39,0.18,0.06
10.24853491783142,2,3,3,1,-9.57,-1.94,0.26,0.42,0.13,0
10.25853490829468,2,3,3,1,-9.550000000000001,-1.88,0.45,0.36,0.14,0.01
10.26853489875793,2,3,3,1,-9.56,-1.91,0.52,0.02,0.15,0.02
10.27853488922119,2,3,3,1,-9.609999999999999,-2.04,0.59,-0.4,0.12,0.08
10.28853487968445,2,3,3,1,-9.630000000000001,-2.06,0.51,-0.66,0.18,0.07000000000000001
10.29853510856628,2,3,3,1,-9.59,-2.14,0.3,-0.99,0.15,0.15
10.30853509902954,2,3,3,1,-9.48,-2.32,0.31,-1.22,0.16,0.19
10.3185350894928,2,3,3,1,-9.460000000000001,-2.21,0.29,-1,0.15,0.14
10.32853507995605,2,3,3,1,-9.44,-2.25,0.29,-0.84,0.12,0.12
10.33853507041931,2,3,3,1,-9.5,-2.35,0.25,-0.85,0.13,0.1
10.34853506088257,2,3,3,1,-9.640000000000001,-2.38,0.19,-0.77,0.12,0.09
10.35853505134583,2,3,3,1,-9.640000000000001,-2.28,0.22,-0.57,0.14,0.04
10.36853504180908,2,3,3,1,-9.6,-2.24,0.24,-0.33,0.06,0.02
10.37853503227234,2,3,3,1,-9.539999999999999,-2.25,0.32,-0.19,0.08,0.04
10.3885350227356,2,3,3,1,-9.52,-2.04,0.36,0.03,0.11,0.02
10.40853500366211,2,3,3,1,-9.56,-1.95,0.31,0.08,0.1,0.05
10.41853499412537,2,3,3,1,-9.56,-1.81,0.42,0.05,0.16,0.1
10.42853498458862,2,3,3,1,-9.6,-1.74,0.41,0.07000000000000001,0.15,0.12
10.43853497505188,2,3,3,1,-9.6,-2.03,0.46,-0.16,0.15,0.16
10.44853496551514,2,3,3,1,-9.65,-2.21,0.38,-0.37,0.19,0.21
10.45853495597839,2,3,3,1,-9.550000000000001,-2.01,0.37,-0.3,0.14,0.22
10.46853494644165,2,3,3,1,-9.529999999999999,-2.01,0.35,-0.32,0.16,0.18
10.47953510284424,2,3,3,1,-9.5,-2.05,0.31,-0.35,0.14,0.14
10.48853492736816,2,3,3,1,-9.49,-2.17,0.26,-0.65,0.18,0.12
10.49853491783142,2,3,3,1,-9.56,-2.38,0.12,-0.88,0.22,0.09
10.50953507423401,2,3,3,1,-9.58,-2.35,0.19,-0.6899999999999999,0.2,0.04
10.51953506469727,2,3,3,1,-9.58,-2.33,0.21,-0.58,0.16,0.03
10.52953505516052,2,3,3,1,-9.56,-2.26,0.21,-0.47,0.14,-0.06
10.53953504562378,2,3,3,1,-9.5,-2,0.23,-0.32,0.09,-0.12
10.54953503608704,2,3,3,1,-9.51,-1.81,0.22,-0.3,0.08,-0.15
10.55953502655029,2,3,3,1,-9.550000000000001,-1.71,0.27,-0.33,0.06,-0.16
10.56953501701355,2,3,3,1,-9.609999999999999,-1.77,0.34,-0.5600000000000001,0.07000000000000001,-0.07000000000000001
10.57953500747681,2,3,3,1,-9.609999999999999,-1.81,0.39,-0.74,0.11,-0.02
10.58953499794006,2,3,3,1,-9.58,-1.89,0.36,-0.8100000000000001,0.16,0.05
10.59953498840332,2,3,3,1,-9.56,-1.93,0.23,-0.8,0.13,0.07000000000000001
10.60953497886658,2,3,3,1,-9.52,-2.1,0.23,-0.88,0.14,0.07000000000000001
10.61953496932983,2,3,3,1,-9.49,-2.38,0.21,-0.77,0.14,0.02
10.62953495979309,2,3,3,1,-9.59,-2.48,0.18,-0.71,0.1,-0.05
10.63953495025635,2,3,3,1,-9.619999999999999,-2.57,0.17,-0.66,0.1,-0.08
10.6495349407196,2,3,3,1,-9.56,-2.5,0.09,-0.35,0.07000000000000001,-0.18
10.65953493118286,2,3,3,1,-9.539999999999999,-2.27,0.14,-0.08,0.06,-0.29
10.66953492164612,2,3,3,1,-9.550000000000001,-2.08,0.17,0.12,0.04,-0.36
10.67953491210938,2,3,3,1,-9.550000000000001,-1.96,0.25,0.14,0.06,-0.39
10.68953490257263,2,3,3,1,-9.58,-1.85,0.32,0.16,0.06,-0.36
10.69953489303589,2,3,3,1,-9.6,-1.67,0.18,0.1,0.03,-0.33
10.70953488349915,2,3,3,1,-9.630000000000001,-1.72,0.28,-0.06,0.09,-0.26
10.71953511238098,2,3,3,1,-9.640000000000001,-1.8,0.27,-0.12,0.14,-0.22
10.72953510284424,2,3,3,1,-9.640000000000001,-2.02,0.27,-0.35,0.14,-0.16
10.7395350933075,2,3,3,1,-9.56,-2.11,0.24,-0.54,0.18,-0.1
10.74953508377075,2,3,3,1,-9.51,-2.19,0.19,-0.4,0.2,-0.1
10.75953507423401,2,3,3,1,-9.460000000000001,-2.27,0.2,-0.19,0.22,-0.16
10.76953506469727,2,3,3,1,-9.52,-2.48,0.15,-0.05,0.18,-0.19
10.77953505516052,2,3,3,1,-9.550000000000001,-2.46,0.16,0.07000000000000001,0.17,-0.24
10.78953504562378,2,3,3,1,-9.57,-2.31,0.14,0.26,0.09,-0.29
10.79953503608704,2,3,3,1,-9.56,-2.26,0.03,0.39,0.13,-0.34
10.80953502655029,2,3,3,1,-9.59,-2.14,0.11,0.49,0.13,-0.39
10.81953501701355,2,3,3,1,-9.6,-2.09,0.15,0.59,0.09,-0.41
10.82953500747681,2,3,3,2,-9.619999999999999,-2.05,0.2,0.58,0.05,-0.51
10.83953499794006,2,3,3,2,-9.59,-1.93,0.19,0.57,0.02,-0.55
10.84953498840332,2,3,3,2,-9.609999999999999,-1.93,0.11,0.45,0.03,-0.49
10.85953497886658,2,3,3,2,-9.619999999999999,-1.97,0.19,0.27,0,-0.47
10.86953496932983,2,3,3,2,-9.58,-2.01,0.14,0.09,0.02,-0.43
10.87953495979309,2,3,3,2,-9.56,-1.97,0.11,0.03,0.03,-0.38
10.88953495025635,2,3,3,2,-9.529999999999999,-2.16,0.11,-0.06,0.06,-0.32
10.8995349407196,2,3,3,2,-9.539999999999999,-2.18,0.04,0.03,0.05,-0.34
10.90953493118286,2,3,3,2,-9.539999999999999,-2.19,0.12,0.04,0.06,-0.36
10.91953492164612,2,3,3,2,-9.57,-2.27,0.17,0.05,0.04,-0.36
10.92953491210938,2,3,3,2,-9.52,-2.21,0.24,0.17,0.04,-0.35
10.93953490257263,2,3,3,2,-9.51,-2.16,0.17,0.25,0.03,-0.3
10.94953489303589,2,3,3,2,-9.539999999999999,-2.15,0.07000000000000001,0.2,0.02,-0.24
10.95953488349915,2,3,3,2,-9.5,-2.14,0.13,0.16,0.01,-0.23
10.96953511238098,2,3,3,2,-9.539999999999999,-2.15,0.19,0.13,0,-0.24
10.97953510284424,2,3,3,2,-9.539999999999999,-2.2,0.19,0.06,0.05,-0.19
10.9895350933075,2,3,3,2,-9.57,-2.27,0.22,0.04,0.05,-0.15
10.99953508377075,2,3,3,2,-9.58,-2.24,0.09,0.13,0.03,-0.16
11.00953507423401,2,3,3,2,-9.56,-2.33,0.16,0.08,0.05,-0.14
11.01953506469727,2,3,3,2,-9.52,-2.29,0.15,0.11,0,-0.17
11.02953505516052,2,3,3,2,-9.5,-2.22,0.22,0.09,-0.02,-0.14
11.03953504562378,2,3,3,2,-9.470000000000001,-2.19,0.2,0.11,-0.07000000000000001,-0.16
11.04953503608704,2,3,3,2,-9.52,-2.26,0.11,0.03,-0.05,-0.16
11.05953502655029,2,3,3,2,-9.56,-2.25,0.16,0.01,-0.05,-0.14
11.06953501701355,2,3,3,2,-9.57,-2.21,0.13,-0.03,-0.08,-0.11
11.07953500747681,2,3,3,2,-9.52,-2.25,0.24,-0.04,-0.02,-0.11
11.08953499794006,2,3,3,2,-9.52,-2.27,0.22,0.05,0.01,-0.11
11.09953498840332,2,3,3,2,-9.51,-2.32,0.14,0.07000000000000001,0.05,-0.06
11.10953497886658,2,3,3,2,-9.539999999999999,-2.37,0.21,0.1,0.03,-0.07000000000000001
11.11953496932983,2,3,3,2,-9.5,-2.34,0.25,0.23,-0.02,-0.02
11.12953495979309,2,3,3,2,-9.5,-2.34,0.24,0.29,-0.03,-0.06
11.13953495025635,2,3,3,2,-9.52,-2.29,0.24,0.38,-0.06,-0.06
11.1495349407196,2,3,3,2,-9.529999999999999,-2.32,0.17,0.41,-0.05,-0.04
11.15953493118286,2,3,3,2,-9.539999999999999,-2.21,0.17,0.46,-0.04,-0.04
11.16953492164612,2,3,3,2,-9.57,-2.19,0.2,0.39,0.01,-0.03
11.17953491210938,2,3,3,2,-9.539999999999999,-2.21,0.24,0.38,0.08,0.03
11.18953490257263,2,3,3,2,-9.5,-2.19,0.26,0.43,0.05,0.09
11.19953489303589,2,3,3,2,-9.48,-2.12,0.19,0.42,0.05,0.09
11.20953488349915,2,3,3,2,-9.470000000000001,-2.15,0.3,0.39,0.09,0.15
11.21953511238098,2,3,3,2,-9.470000000000001,-2.09,0.29,0.41,0.12,0.16
11.22953510284424,2,3,3,2,-9.5,-2.07,0.28,0.36,0.11,0.19
11.2395350933075,2,3,3,2,-9.58,-1.93,0.15,0.4,0.01,0.18
11.24953508377075,2,3,3,2,-9.67,-2.06,0.11,0.11,-0.02,0.19
11.25953507423401,2,3,3,2,-9.609999999999999,-2.2,0.2,-0.22,0.08,0.29
11.26953506469727,2,3,3,2,-9.52,-2.15,0.19,-0.14,0.12,0.3
11.27953505516052,2,3,3,2,-9.550000000000001,-2.17,0.33,-0.04,0.25,0.3
11.28953504562378,2,3,3,2,-9.539999999999999,-2.09,0.34,0,0.27,0.34
11.29953503608704,2,3,3,2,-9.449999999999999,-1.99,0.32,0.22,0.29,0.38
11.30953502655029,2,3,3,2,-9.359999999999999,-1.77,0.31,0.46,0.22,0.43
11.31953501701355,2,3,3,2,-9.4,-1.87,0.44,0.22,0.19,0.44
11.32953500747681,2,3,3,2,-9.550000000000001,-2.13,0.41,-0.2,0.19,0.47
11.33953499794006,2,3,3,2,-9.699999999999999,-2.25,0.34,-0.43,0.07000000000000001,0.39
11.34953498840332,2,3,3,2,-9.800000000000001,-2.38,0.21,-0.63,0.08,0.39
11.35953497886658,2,3,3,2,-9.69,-2.79,0.09,-0.8100000000000001,0.17,0.36
11.36953496932983,2,3,3,2,-9.57,-2.95,0.19,-0.85,0.32,0.27
11.37953495979309,2,3,3,2,-9.41,-2.91,0.24,-0.49,0.3,0.14
11.38953495025635,2,3,3,2,-9.31,-2.86,0.31,-0.26,0.28,-0.03
11.3995349407196,2,3,3,2,-9.380000000000001,-2.61,0.23,0.02,0.2,-0.12
11.40953493118286,2,3,3,2,-9.460000000000001,-2.4,0.31,0.13,0.13,-0.11
11.41953492164612,2,3,3,2,-9.56,-2.2,0.38,0.02,0.18,-0.06
11.42953491210938,2,3,3,2,-9.52,-1.53,0.45,-0.04,0.28,0.05
11.43953490257263,2,3,3,2,-9.449999999999999,-1.33,0.42,-0.41,0.4,0.29
11.44953489303589,2,3,3,2,-9.31,-1.13,0.4,-0.63,0.6,0.55
11.45953488349915,2,3,3,2,-9.27,-0.78,0.44,-0.63,0.76,0.89
11.46953511238098,2,3,3,2,-9.33,-0.51,0.75,-0.8,0.92,1.26
11.47953510284424,2,3,3,2,-9.42,-0.47,0.76,-0.89,1.01,1.59
11.4895350933075,2,3,3,2,-9.609999999999999,-0.62,0.8100000000000001,-1.24,1.1,1.94
11.49953508377075,2,3,3,2,-9.73,-0.71,0.58,-1.46,1.1,2.29
11.50953507423401,2,3,3,2,-9.720000000000001,-0.9,0.45,-1.63,1.15,2.68
11.51953506469727,2,3,3,2,-9.65,-1.5,0.5,-1.86,1.24,2.94
11.52953505516052,2,3,3,2,-9.619999999999999,-2.02,0.4,-1.85,1.3,2.83
11.54053497314453,2,3,3,2,-9.6,-2.6,0.33,-1.56,1.3,2.63
11.55053496360779,2,3,3,2,-9.48,-3.06,0.14,-0.8,1.32,2.4
11.56053495407104,2,3,3,2,-9.449999999999999,-3.28,0.26,-0.01,1.27,2.04
11.5705349445343,2,3,3,2,-9.42,-3.62,0.38,0.53,1.19,1.62
11.58053493499756,2,3,3,2,-9.449999999999999,-3.58,0.37,1.08,1.06,1.18
11.59053492546082,2,3,3,2,-9.5,-3.1,0.47,1.41,0.79,0.77
11.60053491592407,2,3,3,2,-9.5,-2.88,0.4,1.2,0.73,0.44
11.61053490638733,2,3,3,2,-9.529999999999999,-2.74,0.37,0.73,0.8,0.17
11.62053489685059,2,3,3,2,-9.65,-2.84,0.55,-0.18,1.01,-0.1
11.63053488731384,2,3,3,2,-9.83,-2.62,0.6899999999999999,-1.1,1.04,-0.37
11.6405348777771,2,3,3,2,-9.699999999999999,-2.38,0.73,-1.94,0.98,-0.61
11.65053510665894,2,3,3,2,-9.6,-2.44,0.61,-2.95,1.04,-0.83
11.66053509712219,2,3,3,2,-9.51,-2.66,0.49,-3.96,0.91,-1.04
11.67053508758545,2,3,3,2,-9.460000000000001,-2.47,0.61,-4.26,0.88,-1.32
11.68053507804871,2,3,3,3,-9.43,-2.57,0.72,-4.65,0.68,-1.48
11.69053506851196,2,3,3,3,-9.35,-2.53,0.6899999999999999,-5.16,0.44,-1.7
11.70053505897522,2,3,3,3,-9.32,-2.48,0.51,-5.53,0.28,-1.85
11.71053504943848,2,3,3,3,-9.359999999999999,-2.84,0.51,-5.9,0.27,-2
11.72053503990173,2,3,3,3,-9.35,-3.19,0.37,-5.8,0.3,-2.21
11.73053503036499,2,3,3,3,-9.33,-3.44,0.12,-5.37,0.38,-2.41
11.74053502082825,2,3,3,3,-9.35,-3.29,-0.08,-4.34,0.34,-2.56
11.7505350112915,2,3,3,3,-9.43,-2.24,-0.5600000000000001,-3.23,0.36,-2.6
11.76053500175476,2,3,3,3,-9.66,-2,-0.52,-2.51,0.38,-2.6
11.77053499221802,2,3,3,3,-9.33,-1.62,-0.73,-2.06,0.2,-2.54
11.78053498268127,2,3,3,3,-9.69,-1.04,-0.67,-1.77,0.5600000000000001,-2.32
11.79053497314453,2,3,3,3,-9.630000000000001,-1.13,-0.84,-1.67,0.62,-2.08
11.80053496360779,2,3,3,3,-9.640000000000001,-1.19,-1.17,-1.51,0.8,-1.89
11.81053495407104,2,3,3,3,-10.22,-1.18,-0.92,-0.99,0.23,-2.16
11.8205349445343,2,3,3,3,-9.789999999999999,-1.35,-0.92,-0.5600000000000001,0.63,-1.84
11.83053493499756,2,3,3,3,-9.69,-1.23,-0.8100000000000001,-0.08,0.93,-1.73
11.84053492546082,2,3,3,3,-9.77,-1.55,-0.68,0.26,1.05,-1.68
11.85053491592407,2,3,3,3,-9.9,-1.74,-0.8100000000000001,0.52,1.1,-1.69
11.86053490638733,2,3,3,3,-9.58,-2.04,-0.65,0.5600000000000001,1.12,-1.61
11.87053489685059,2,3,3,3,-9.49,-2.34,-0.8,0.84,1.21,-1.6
11.88053488731384,2,3,3,3,-9.529999999999999,-2.67,-0.8100000000000001,1.1,1.21,-1.78
11.8905348777771,2,3,3,3,-9.460000000000001,-2.84,-0.96,1.8,1.15,-2.08
11.90053510665894,2,3,3,3,-9.69,-2.79,-1.44,2.75,1.15,-2.49
11.91053509712219,2,3,3,3,-9.720000000000001,-2.3,-1.35,3.63,1.06,-2.85
11.92053508758545,2,3,3,3,-9.65,-1.81,-1.29,4.03,0.92,-3.05
11.93053507804871,2,3,3,3,-9.640000000000001,-1.43,-1.16,3.95,0.9,-3.17
11.94053506851196,2,3,3,3,-9.460000000000001,-0.98,-1.02,3.71,0.85,-3.29
11.95053505897522,2,3,3,3,-9.539999999999999,-1.03,-0.84,3.44,0.82,-3.4
11.96053504943848,2,3,3,3,-9.65,-1.04,-0.52,3.13,0.66,-3.6
11.97053503990173,2,3,3,3,-9.74,-1,-0.36,2.75,0.55,-3.75
11.98053503036499,2,3,3,3,-9.68,-1.05,-0.54,2.05,0.49,-3.74
11.99053502082825,2,3,3,3,-9.710000000000001,-1.12,-0.55,1.26,0.58,-3.52
12.0005350112915,2,3,3,3,-9.640000000000001,-1.23,-0.6899999999999999,0.76,0.6899999999999999,-3.22
12.01053500175476,2,3,3,3,-9.58,-1.37,-0.7,0.38,0.88,-2.9
12.02053499221802,2,3,3,3,-9.41,-2.15,-0.55,0.32,0.96,-2.81
12.03053498268127,2,3,3,3,-9.279999999999999,-2.43,-0.59,0.4,0.86,-2.97
12.04053497314453,2,3,3,3,-9.27,-2.83,-0.63,0.33,0.8100000000000001,-3.18
12.05053496360779,2,3,3,3,-9.390000000000001,-3.18,-0.7,0.45,0.74,-3.52
12.06053495407104,2,3,3,3,-9.369999999999999,-3.18,-0.76,0.66,0.6,-3.84
12.0705349445343,2,3,3,3,-9.33,-3.02,-0.77,1.02,0.59,-4.07
12.08053493499756,2,3,3,3,-9.24,-2.87,-0.68,1.39,0.62,-4.22
12.09053492546082,2,3,3,3,-9.140000000000001,-2.6,-0.54,1.69,0.62,-4.34
12.10053491592407,2,3,3,3,-9.18,-2.57,-0.45,1.58,0.68,-4.22
12.11053490638733,2,3,3,3,-9.27,-2.57,-0.32,1.49,0.6899999999999999,-4.09
12.12053489685059,2,3,3,3,-9.32,-2.61,-0.35,1.48,0.6899999999999999,-4.13
12.13053488731384,2,3,3,3,-9.41,-2.62,-0.32,1.51,0.73,-4.24
12.1405348777771,2,3,3,3,-9.58,-2.82,-0.42,1.54,0.75,-4.36
12.15053510665894,2,3,3,3,-9.550000000000001,-2.89,-0.54,1.73,0.75,-4.41
12.16053509712219,2,3,3,3,-9.49,-2.95,-0.64,2.02,0.8,-4.5
12.17053508758545,2,3,3,3,-9.369999999999999,-2.71,-0.66,2.5,0.87,-4.61
12.18053507804871,2,3,3,3,-9.26,-2.72,-0.59,2.94,0.93,-4.73
12.19053506851196,2,3,3,3,-9.68,-2.84,-0.59,3.3,0.99,-4.97
12.20053505897522,2,3,3,3,-9.15,-2.62,-0.68,4.13,0.34,-5.66
12.21053504943848,2,3,3,3,-9.74,-2.76,-0.22,4.36,1.13,-5.29
12.22053503990173,2,3,3,3,-9.550000000000001,-2.87,-0.41,4.57,1.15,-5.14
12.23053503036499,2,3,3,3,-9.57,-2.88,-0.38,4.87,1.13,-4.98
12.24053502082825,2,3,3,3,-9.58,-2.94,-0.25,5,1.04,-4.89
12.2505350112915,2,3,3,3,-9.43,-3.27,-0.38,5.04,0.95,-4.97
12.26053500175476,2,3,3,3,-9.44,-3.22,-0.35,5.04,0.84,-5.19
12.27053499221802,2,3,3,3,-9.51,-2.99,-0.29,5.09,0.74,-5.42
12.28053498268127,2,3,3,2,-9.56,-2.81,-0.12,5.16,0.61,-5.62
12.29053497314453,2,3,3,2,-9.43,-2.77,-0.5,4.87,0.49,-5.71
12.30053496360779,2,3,3,2,-9.49,-2.81,-0.72,4.61,0.41,-5.8
12.31053495407104,2,3,3,2,-9.550000000000001,-2.78,-0.71,4.54,0.31,-5.94
12.3205349445343,2,3,3,2,-9.58,-3.03,-0.77,4.31,0.15,-6.13
12.33053493499756,2,3,3,2,-9.77,-3.17,-0.77,4.38,0.04,-6.34
12.34053492546082,2,3,3,2,-9.880000000000001,-3.14,-0.79,4.49,-0.02,-6.55
12.35053491592407,2,3,3,2,-10.04,-3,-0.98,4.44,-0.23,-6.75
12.36053490638733,2,3,3,2,-10.34,-2.73,-1.08,4.35,-0.38,-6.88
12.37053489685059,2,3,3,2,-11.04,-2.11,-0.76,4.44,-0.49,-7.04
12.38053488731384,2,3,3,1,-11.25,-1.76,-0.38,4.15,-0.59,-6.93
12.3905348777771,2,3,3,1,-11.17,-1.47,-0.34,3.41,-0.8,-6.65
12.40053510665894,2,3,3,1,-11.13,-1.19,-0.73,2.92,-0.83,-6.36
12.41053509712219,2,3,3,1,-11.59,-0.64,-0.14,2.7,-0.88,-6.21
12.42053508758545,2,3,3,1,-11.74,-0.55,0.33,2.48,-1.08,-5.89
12.43053507804871,2,3,3,1,-11.79,-0.54,0.7,2.24,-1.08,-5.18
12.44053506851196,2,3,3,1,-11.66,-0.37,0.85,2.05,-0.9399999999999999,-4.17
12.45053505897522,2,3,3,1,-11.07,-0.3,0.76,2.05,-0.8100000000000001,-3.13
12.46053504943848,2,3,3,1,-10.9,-0.31,0.8,2.47,-0.6,-2.11
12.47053503990173,2,3,3,1,-10.88,-0.57,0.6899999999999999,2.89,-0.26,-1.2
12.48053503036499,2,3,3,1,-11.04,-0.66,0.5600000000000001,3.67,-0.01,-0.32
12.49053502082825,2,3,3,1,-11.19,-0.32,0.28,4.96,0.35,0.67
12.5005350112915,2,3,3,1,-11.07,0,-0.02,6.46,0.9,1.89
12.51053500175476,2,3,3,1,-10.91,0.64,0,8.050000000000001,1.64,3.37
12.52053499221802,2,3,3,1,-10.78,1.16,0.57,7.76,2.08,5.01
12.53053498268127,2,3,3,1,-10.67,0.4,2.53,6.08,1.64,6.56
12.54053497314453,2,3,3,1,-10.13,0.67,2.84,5.89,-0.13,7.64
12.55053496360779,2,3,3,1,-9.59,0.79,2.5,5.9,-1.86,8.56
12.5615348815918,2,3,3,1,-9.359999999999999,0.57,1.85,7.04,-3.11,9.380000000000001
12.57153511047363,2,3,3,1,-9.539999999999999,0.73,1.4,8.789999999999999,-3.68,10.24
12.58153510093689,2,3,3,1,-9.56,0.49,1.25,10.12,-4.34,11.03
12.59153509140015,2,3,3,1,-9.77,0.26,1.12,11.79,-4.68,12.18
12.6015350818634,2,3,3,1,-9.869999999999999,-1.04,0.83,13.32,-5.15,13.13
12.61153507232666,2,3,3,1,-10.08,-1.89,0.62,14.07,-5.38,13.69
12.62153506278992,2,3,3,1,-10.4,-2.41,0.61,14.45,-4.68,13.57
12.63153505325317,2,3,3,1,-10.55,-2.9,0.3,14.18,-3.09,13.04
12.64153504371643,2,3,3,1,-11.02,-4.22,0,13.07,-0.89,12.65
12.65153503417969,2,3,3,1,-11.29,-4.94,-0.16,11.13,0.68,12.5
12.66153502464294,2,3,3,1,-11.53,-5.07,-0.31,9.75,1.9,12.7
12.6715350151062,2,3,3,1,-11.59,-4.21,-0.46,9.380000000000001,3.12,13.18
12.68153500556946,2,3,3,0,-12.04,-4.67,0.13,7.82,4.26,13.88
12.69153499603271,2,3,3,0,-11.44,-5.52,-0.13,5.26,4.67,14.13
12.70153498649597,2,3,3,0,-10.84,-5.51,-0.66,3.23,5.21,14.24
12.71153497695923,2,3,3,0,-10.69,-4.76,-0.75,1.58,5.64,14.65
12.72153496742249,2,3,3,0,-10.7,-4.08,-0.34,-0.64,5.57,15.47
12.73153495788574,2,3,3,0,-10.56,-4.29,-0.26,-3.65,5.34,16.33
12.741534948349,2,3,3,0,-10.29,-4.32,-0.53,-6.54,4.93,17.02
12.75153493881226,2,3,3,0,-9.970000000000001,-4.57,-0.7,-8.869999999999999,4.56,17.72
12.76153492927551,2,3,3,0,-9.779999999999999,-4.57,-0.68,-10.4,4.37,18.4
12.77153491973877,2,3,3,1,-9.710000000000001,-4.62,-0.44,-12.08,4.28,18.85
12.78153491020203,2,3,3,1,-9.720000000000001,-4.52,-0.28,-13.99,4.18,18.93
12.79153490066528,2,3,3,1,-9.699999999999999,-4.52,-0.27,-15.71,4,18.83
12.80153489112854,2,3,3,1,-9.279999999999999,-4.21,-0.55,-17.18,3.6,18.88
12.8115348815918,2,3,3,1,-9.24,-4.19,-0.45,-18.43,3.33,19.24
12.82153511047363,2,3,3,1,-9.109999999999999,-4.29,-0.33,-19.18,2.89,19.55
12.83153510093689,2,3,3,1,-9.08,-4.25,-0.36,-19.29,2.42,19.93
12.84153509140015,2,3,3,1,-9.1,-4.07,-0.19,-18.93,1.73,20.12
12.8515350818634,2,3,3,1,-8.77,-4.14,-0.43,-18.79,0.72,19.95
12.86153507232666,2,3,3,1,-8.76,-3.99,-0.25,-18.03,0.86,19.6
12.87153506278992,2,3,3,1,-8.76,-4.09,-0.06,-17.1,0.26,19.13
12.88153505325317,2,3,3,1,-8.289999999999999,-4.03,0.65,-16.88,-0.16,18.6
12.89153504371643,2,3,3,1,-8.17,-4.24,0.76,-17,-0.31,17.8
12.90153503417969,2,3,3,1,-7.91,-4.59,0.65,-16.18,-0.37,16.85
12.91153502464294,2,3,3,1,-7.49,-4.86,0.5,-12.19,-0.11,14.59
12.9215350151062,2,3,3,1,-7.43,-4.51,0.42,-12.19,-0.11,14.59
12.93153500556946,2,3,3,1,-7.51,-3.98,0.53,-10.24,0.16,13.4
12.94153499603271,2,3,3,1,-7.64,-3.62,0.61,-7.66,-0.09,10.95
12.95153498649597,2,3,3,1,-7.87,-3,0.72,-6.97,-0.73,9.970000000000001
12.96153497695923,2,3,3,1,-7.86,-2.93,0.84,-5.84,-1.14,8.51
12.97153496742249,2,3,3,1,-7.75,-2.84,0.8,-5.84,-1.14,8.51
12.98153495788574,2,3,3,2,-7.58,-3.31,0.78,-4.28,-1.44,6.85
12.991534948349,2,3,3,2,-7.3,-2.63,0.89,-1.55,-1.18,4.21
13.00153493881226,2,3,3,2,-7.48,-2.08,1,-0.9,-1.27,2.72
13.01153492927551,2,3,3,2,-7.57,-1.24,1.36,-1.05,-1.47,1.65
13.02153491973877,2,3,3,2,-7.65,-0.3,1.39,-1.05,-1.47,1.65
13.03153491020203,2,3,3,2,-8.18,1.62,0.51,-1.78,-0.92,2.31
13.04153490066528,2,3,3,2,-8.57,4.7,0.95,-2.17,1.23,2.74
13.05153489112854,2,3,3,2,-9.4,5.02,0.86,-3.8,1.44,2.77
13.0615348815918,2,3,3,2,-10.17,5.8,1.66,-5.37,0.83,3.16
13.07153511047363,2,3,3,2,-11.32,9.470000000000001,2.96,-5.37,0.83,3.16
13.08153510093689,2,3,3,2,-11.64,12.44,2.47,-6.25,0.55,4.57
13.09153509140015,2,3,3,2,-12.1,14.69,1.51,-9.93,0.89,8.56
13.1015350818634,2,3,3,2,-13.03,15.39,0.42,-10.59,-0.77,9.380000000000001
13.11153507232666,2,3,3,2,-12.14,10.2,0.63,-9.460000000000001,-1.77,8.92
13.12153506278992,2,3,3,2,-10.7,6.55,1.51,-9.460000000000001,-1.77,8.92
13.13153505325317,2,3,3,2,-9.550000000000001,3.36,1.96,-8.16,-0.87,8.1
13.14153504371643,2,3,3,2,-8.98,1.56,1.92,-6.05,1.98,6.38
13.15153503417969,2,3,3,2,-8.41,0.78,0.65,-6.66,2.99,5.2
13.16153502464294,2,3,3,2,-8.470000000000001,0.99,0.15,-9.279999999999999,3.9,4.33
13.1715350151062,2,3,3,2,-8.65,0.44,-0.15,-9.279999999999999,3.9,4.33
13.18153500556946,2,3,3,2,-9.01,-1.14,-1.63,-13.32,5.41,3.44
13.19153499603271,2,3,3,2,-12.02,-2.36,2.1,-15.1,-4.03,-2.89
13.20153498649597,2,3,3,2,-10.93,-2.31,5.61,-9.109999999999999,-6.8,-5.77
13.21153497695923,2,3,3,2,-10.52,0.51,7.36,-5.82,-3.63,-5.44
13.22153496742249,2,3,3,2,-12.69,2.91,6.64,-5.82,-3.63,-5.44
13.23153495788574,2,3,3,2,-12.95,3.38,2.23,-4.98,-0.42,-4.98
13.241534948349,2,3,3,2,-12.14,1.53,2,-6.52,2.89,-6.05
13.25153493881226,2,3,3,2,-11.22,-2.43,1.07,-5.62,4.79,-6.48
13.26153492927551,2,3,3,2,-10.66,-6.36,-3.53,-3.69,5.93,-7.01
13.27153491973877,2,3,3,2,-10.26,-7.05,-4.77,-3.69,5.93,-7.01
13.28153491020203,2,3,3,2,-9.390000000000001,-6.63,-5.49,-1.47,5.71,-8.800000000000001
13.29153490066528,2,3,3,2,-9.16,-4,-4.01,4.1,4.7,-14.45
13.30153489112854,2,3,3,2,-10.42,-1.39,0.37,1.61,4.71,-15.08
13.3115348815918,2,3,3,2,-10.23,-2.18,-0.01,-1,4.32,-14.9
13.32153511047363,2,3,3,2,-9.84,-3.2,-0.52,-1,4.32,-14.9
13.33153510093689,2,3,3,2,-9.470000000000001,-3.62,-0.34,-0.84,3.93,-14.47
13.34153509140015,2,3,3,2,-9.449999999999999,-2.27,0.29,-0.61,4.06,-13.09
13.3515350818634,2,3,3,2,-9.619999999999999,-1,0.63,-2.08,4.07,-12.47
13.36153507232666,2,3,3,2,-9.81,-0.04,1.29,-3.33,4.34,-12.16
13.37153506278992,2,3,3,2,-9.83,0.26,1.73,-3.33,4.34,-12.16
13.38153505325317,2,3,3,2,-9.609999999999999,-0.42,0.73,-3.7,4.64,-12.2
13.39153504371643,2,3,3,2,-9.42,-0.87,-0.13,-1.93,4.54,-12.78
13.40153503417969,2,3,3,2,-9.35,-0.82,-0.95,-0.84,4.42,-12.67
13.41153502464294,2,3,3,2,-9.279999999999999,-0.57,-1.42,-0.31,4.5,-12.35
13.44153499603271,2,3,3,2,-9.92,-1.25,-1.49,2.63,4.71,-12.27
13.45253491401672,2,3,3,2,-9.91,-1.64,-1.39,4.27,4.39,-12.5
13.46153497695923,2,3,3,2,-9.789999999999999,-1.65,-0.87,5.34,3.85,-12.61
13.47153496742249,2,3,3,2,-9.83,-1.56,-0.52,5.34,3.85,-12.61
13.48153495788574,2,3,3,1,-9.75,-1.63,-0.38,5.86,3.22,-12.73
13.491534948349,2,3,3,1,-9.640000000000001,-1.22,-0.42,5.74,2.82,-12.81
13.50153493881226,2,3,3,1,-9.630000000000001,-1.79,-0.55,4.72,2.41,-12.92
13.51153492927551,2,3,3,1,-9.65,-1.95,-0.73,4.52,2.35,-12.93
13.52153491973877,2,3,3,1,-9.67,-1.77,-0.7,4.52,2.35,-12.93
13.53153491020203,2,3,3,1,-9.68,-1.81,-0.78,4.42,2.2,-12.92
13.54153490066528,2,3,3,1,-9.619999999999999,-1.25,-1.01,4.68,1.94,-12.96
13.55153489112854,2,3,3,1,-9.449999999999999,-0.83,-1.01,3.31,1.46,-12.9
13.5615348815918,2,3,3,1,-9.32,-0.67,-1.03,2.26,1.24,-12.99
13.57153511047363,2,3,3,1,-9.26,-0.58,-1.03,2.26,1.24,-12.99
13.58153510093689,2,3,3,1,-9.15,-0.44,-1.05,1.32,1.13,-13.1
13.5925350189209,2,3,3,1,-9.19,-0.44,-1.06,0.53,1.19,-13.23
13.60253500938416,2,3,3,1,-9.300000000000001,-0.45,-1.07,0.31,1.45,-13.14
13.61253499984741,2,3,3,1,-9.460000000000001,-0.28,-0.76,0.89,1.78,-12.71
13.62253499031067,2,3,3,1,-9.75,-0.08,-0.58,0.89,1.78,-12.71
13.63253498077393,2,3,3,1,-9.800000000000001,-0.09,-0.65,1.25,2.08,-11.93
13.64253497123718,2,3,3,1,-9.970000000000001,-0.22,-0.5600000000000001,1.69,2.59,-9.470000000000001
13.65253496170044,2,3,3,1,-10.18,-1.03,-0.41,1.98,2.69,-8.210000000000001
13.6625349521637,2,3,3,1,-10.05,-1.37,-0.23,2.38,2.73,-7.42
13.67253494262695,2,3,3,0,-9.710000000000001,-1.5,0,2.38,2.73,-7.42
13.68253493309021,2,3,3,0,-9.279999999999999,-2.03,-0.07000000000000001,3.1,2.77,-7.22
13.69253492355347,2,3,3,0,-9.039999999999999,-2.39,-0.16,4.37,2.98,-7.43
13.70253491401672,2,3,3,0,-8.93,-2.25,-0.55,4.86,2.95,-7.68
13.71253490447998,2,3,3,0,-8.949999999999999,-2.11,-0.65,5.22,3.01,-7.92
13.72253489494324,2,3,3,0,-9.029999999999999,-2.25,-0.65,5.22,3.01,-7.92
13.73253488540649,2,3,3,0,-9.26,-2.44,-0.71,5.38,3.12,-8.15
13.74253487586975,2,3,3,0,-9.34,-2.46,-0.8,5.69,3.15,-8.48
13.75253510475159,2,3,3,0,-9.390000000000001,-2.44,-0.79,5.46,3.15,-8.52
13.76253509521484,2,3,3,0,-9.34,-2.51,-0.77,5.27,3.23,-8.539999999999999
13.7725350856781,2,3,3,0,-9.449999999999999,-2.7,-0.51,5.27,3.23,-8.539999999999999
13.78253507614136,2,3,3,0,-9.56,-2.68,-0.42,5.47,3.3,-8.640000000000001
13.79253506660461,2,3,3,0,-9.69,-2.4,-0.57,6.69,3.37,-8.82
13.80253505706787,2,3,3,0,-9.789999999999999,-2.31,-0.55,6.94,3.39,-8.789999999999999
13.81253504753113,2,3,3,0,-9.789999999999999,-2.37,-0.5,7.17,3.33,-8.800000000000001
13.82253503799438,2,3,3,0,-9.869999999999999,-2.23,-0.4,7.17,3.33,-8.800000000000001
13.83253502845764,2,3,3,0,-9.84,-2.18,-0.48,7.71,3.22,-8.859999999999999
13.8425350189209,2,3,3,0,-9.890000000000001,-2.03,-0.66,7.98,2.76,-8.800000000000001
13.85253500938416,2,3,3,0,-10.27,-2.01,-0.9399999999999999,8.01,2.59,-8.779999999999999
13.86253499984741,2,3,3,0,-10.63,-2.22,-0.96,8.19,2.46,-8.69
13.87253499031067,2,3,3,0,-10.96,-2.35,-0.97,8.19,2.46,-8.69
13.88253498077393,2,3,3,0,-11.11,-2.31,-1.12,8.77,2.5,-8.550000000000001
13.89253497123718,2,3,3,0,-11.44,-2.14,-1.29,10.61,2.67,-8.42
13.90253496170044,2,3,3,0,-11.66,-1.84,-1.7,11.34,2.54,-8.48
13.9125349521637,2,3,3,0,-11.9,-1.5,-1.85,11.56,2.35,-8.6
13.92253494262695,2,3,3,0,-12.31,-0.92,-1.21,11.56,2.35,-8.6
13.93253493309021,2,3,3,0,-13.03,-0.13,0.01,11.87,2.14,-8.56
13.94253492355347,2,3,3,0,-12.8,0.28,0.01,11.03,1.05,-7.31
13.95253491401672,2,3,3,0,-12.41,0.87,0.04,10.55,0.66,-6.32
13.96253490447998,2,3,3,0,-12.21,1.36,0.41,10.05,0.53,-5.13
13.97253489494324,2,3,3,0,-12.69,1.98,1.16,10.05,0.53,-5.13
13.98253488540649,2,3,3,0,-12.85,2.22,1.45,10.05,0.35,-3.42
13.99253487586975,2,3,3,0,-12.84,2.27,2,10.87,-0.12,1.53
14.00253510475159,2,3,3,0,-12.64,1.77,2.69,11.25,-0.76,4.22
14.01253509521484,2,3,3,0,-12.26,1.25,3.01,11.75,-1.52,7.11
14.0225350856781,2,3,3,0,-11.97,1.67,2.93,11.75,-1.52,7.11
14.03253507614136,2,3,3,0,-11.4,2.31,2.63,12.05,-2.31,10.09
14.04253506660461,2,3,3,0,-10.06,2.18,1.02,13.34,-5.28,13.29
14.05253505706787,2,3,3,0,-9.359999999999999,1.13,0.59,13.05,-6.19,13.6
14.06253504753113,2,3,3,0,-9.210000000000001,-0.48,0.21,11.6,-4.82,14.39
14.07253503799438,2,3,3,0,-9.9,-1.89,0.14,11.6,-4.82,14.39
14.08253502845764,2,3,3,0,-11.65,-2.27,-0.16,10.64,-3.27,15.38
14.0925350189209,2,3,3,0,-12,-1.97,-0.57,12.34,-1.01,16.31
14.10253500938416,2,3,3,0,-12.17,-2.36,-0.77,12.48,0.93,16.18
14.11253499984741,2,3,3,0,-12.22,-2.68,-0.13,11.25,2.72,15.98
14.12253499031067,2,3,3,0,-11.94,-2.64,0.47,11.25,2.72,15.98
14.13253498077393,2,3,3,0,-11.74,-2.74,0.79,9,3.96,16.31
14.14253497123718,2,3,3,0,-11.88,-3.87,1.54,2.36,4.78,17.78
14.15253496170044,2,3,3,0,-11.32,-5.17,1.34,0.2,4.55,18.09
14.1625349521637,2,3,3,0,-10.76,-5.52,0.62,-0.4,5.24,18.32
14.17253494262695,2,3,3,0,-11.17,-5.93,0.66,-0.4,5.24,18.32
14.18253493309021,2,3,3,0,-11.29,-5.57,0.24,-0.5600000000000001,5.84,18.73
14.19253492355347,2,3,3,0,-11.35,-5.57,-0.19,-2.21,5.77,19.51
14.20253491401672,2,3,3,0,-11.34,-4.84,-0.67,-3.41,5.76,20.63
14.21253490447998,2,3,3,0,-10.71,-4.28,-0.92,-3.8,5.29,22.07
14.22253489494324,2,3,3,0,-10.35,-3.8,-0.79,-3.8,5.29,22.07
14.23253488540649,2,3,3,0,-10.49,-3.52,-0.45,-5.45,4.95,22.99
14.24253487586975,2,3,3,0,-9.82,-4.55,-0.11,-10.74,4.08,24.01
14.25253510475159,3,3,3,0,-9.550000000000001,-4.62,-0.38,-12.17,3.65,24.06
14.26253509521484,3,3,3,0,-9.52,-4.99,-0.61,-13.31,3.33,23.89
14.2725350856781,3,3,3,0,-9.41,-5.07,-0.7,-13.31,3.33,23.89
14.28253507614136,3,3,3,0,-9.25,-5.27,-0.8100000000000001,-14.04,3.05,23.7
14.29253506660461,3,3,3,0,-9.199999999999999,-5.2,-0.98,-13.84,2.3,23.14
14.30253505706787,3,3,3,0,-9.23,-5.41,-1.03,-13.23,1.66,22.73
14.31253504753113,3,3,3,0,-8.890000000000001,-5.37,-1.26,-11.94,1.2,22.26
14.32253503799438,3,3,3,0,-8.66,-5.3,-0.98,-11.94,1.2,22.26
14.33253502845764,3,3,3,0,-8.43,-4.94,-0.86,-10.74,0.78,21.76
14.3425350189209,3,3,3,0,-8.140000000000001,-4.89,-0.62,-9.970000000000001,0.13,20.53
14.35253500938416,3,3,3,0,-8.050000000000001,-4.96,-0.52,-10.2,-0.1,19.62
14.36253499984741,3,3,3,0,-7.62,-4.78,-0.46,-10.65,-0.16,18.63
14.37253499031067,3,3,3,1,-7.52,-4.9,-0.42,-10.65,-0.16,18.63
14.38253498077393,3,3,3,1,-7.42,-4.88,-0.51,-10.95,-0.25,17.36
14.39253497123718,3,3,3,1,-7.07,-4.72,-0.47,-10.51,-0.51,14.67
14.40253496170044,3,3,3,1,-6.73,-4.66,-0.28,-10.74,-0.73,13.45
14.4125349521637,3,3,3,1,-6.55,-4.37,0.15,-11.58,-1.18,12.37
14.42253494262695,3,3,3,1,-6.28,-4.75,0.51,-11.58,-1.18,12.37
14.43253493309021,3,3,3,1,-5.88,-5.46,0.78,-12.82,-1.64,11.15
14.44253492355347,3,3,3,1,-6.09,-5.75,0.8100000000000001,-12.34,-1.01,6.47
14.45253491401672,3,3,3,1,-6.06,-5.87,0.53,-10.56,-0.78,3.66
14.46253490447998,3,3,3,1,-5.51,-5.13,0.5,-8.550000000000001,-0.24,1.13
14.47253489494324,3,3,3,2,-5.1,-4.65,0.33,-8.550000000000001,-0.24,1.13
14.48253488540649,3,3,3,2,-5.23,-4.31,0.32,-7.78,-0.34,-1.19
14.49253487586975,3,3,3,2,-6.69,-1.66,0.46,-7.45,-1.61,-5.31
14.50253510475159,3,3,3,2,-9.52,5.94,1.98,-4.38,-2.64,-6.01
14.51253509521484,3,3,3,2,-11.59,8.109999999999999,3.7,-1.89,-3.41,-3.95
14.5225350856781,3,3,3,2,-11.59,8.109999999999999,3.7,-1.89,-3.41,-3.95
14.53253507614136,3,3,3,2,-12.46,12.12,6.46,-1.98,-4,-0.46
14.54253506660461,3,3,3,2,-19.38,31.68,-0.2,2.05,3.69,-0.83
14.55253505706787,3,3,3,2,-19.79,24.14,-2.66,-2.7,12.13,6.41
14.56253504753113,3,3,3,2,-13.77,12.7,-0.05,-8.26,5.14,11.07
14.57253503799438,3,3,3,2,-13.77,12.7,-0.05,-8.26,5.14,11.07
14.58253502845764,3,3,3,2,-10.09,2.44,3.23,-3.97,-1.79,9.75
14.5925350189209,3,3,3,2,-8.23,-1.31,-0.7,2.96,3.83,6.74
14.60253500938416,3,3,3,2,-9.77,2.78,-1.14,5.2,5.31,4.95
14.61353492736816,3,3,3,2,-10.27,3.84,-1.42,4.64,6.86,2.95
14.62353491783142,3,3,3,2,-10.27,3.84,-1.42,4.64,6.86,2.95
14.63353490829468,3,3,3,2,-8.15,0.55,-1.96,-0.43,5.86,1.64
14.64353489875793,3,3,3,2,-10.01,5.43,5.3,-16.56,1.4,1.02
14.65353488922119,3,3,3,2,-12.21,6.44,10.5,-23.66,-5.87,0.03
14.66353487968445,3,3,3,2,-17.58,7.82,5.29,-25.4,-12.81,-3.25
14.67353510856628,3,3,3,2,-17.58,7.82,5.29,-25.4,-12.81,-3.25
14.68353509902954,3,3,3,2,-17.14,4.66,0.44,-25.76,-7.06,-4.32
14.6935350894928,3,3,3,2,-10.56,-5.56,1.25,-22.27,2.02,-4.44
14.70353507995605,3,3,3,2,-9.77,-8.84,-3.49,-17.21,5.48,-4.94
14.71353507041931,3,3,3,2,-9.210000000000001,-10.81,-5.35,-11.85,8.08,-5.26
14.72353506088257,3,3,3,2,-9.210000000000001,-10.81,-5.35,-9.630000000000001,8.6,-6.91
14.73353505134583,3,3,3,2,-7.58,-11.42,-7.56,-3.52,8.24,-11.08
14.74353504180908,3,3,3,2,-10.57,-5.57,-0.17,5,7.54,-15.18
14.75353503227234,3,3,3,2,-10.5,-7.17,-2.29,7.24,6.21,-16.43
14.7635350227356,3,3,3,2,-9.960000000000001,-7.32,-3.49,5.57,4.81,-15.91
14.77353501319885,3,3,3,2,-9.960000000000001,-7.32,-3.49,7.51,4.32,-15.4
14.78353500366211,3,3,3,2,-10.39,-2.69,-0.29,10.03,4.57,-15.28
14.79353499412537,3,3,3,2,-10.35,-0.86,1.12,7.65,4.73,-15.13
14.80353498458862,3,3,3,2,-10.74,-1.38,1.67,3.53,4.95,-14.85
14.81353497505188,3,3,3,2,-10.74,-1.9,1.16,0.99,5.57,-14.58
14.82353496551514,3,3,3,2,-10.74,-1.9,1.16,0.99,5.57,-14.58
14.83353495597839,3,3,3,2,-9.66,-1.44,0.32,0.14,5.62,-14.38
14.84353494644165,3,3,3,2,-9.140000000000001,-1.05,-2,-0.64,4.61,-14.52
14.85353493690491,3,3,3,2,-9.4,-0.31,-2.32,-0.6899999999999999,4.56,-14.7
14.86353492736816,3,3,3,2,-9.57,-1.18,-2.23,-0.7,4.59,-14.75
14.87353491783142,3,3,3,2,-9.57,-1.18,-2.23,-0.7,4.59,-14.75
14.88353490829468,3,3,3,2,-9.56,-1.41,-2.17,0.77,4.85,-14.85
14.89353489875793,3,3,3,2,-9.630000000000001,-1.89,-1.36,2.66,4.82,-14.92
14.90353488922119,3,3,3,2,-9.44,-1.31,-0.62,5.65,4.42,-15.03
14.91353487968445,3,3,3,2,-9.48,-1.1,-0.1,8.16,3.78,-15.19
14.92353510856628,3,3,3,2,-9.48,-1.1,-0.1,9.81,2.99,-15.24
14.93353509902954,3,3,3,2,-9.41,-0.44,-0.05,10.11,2.22,-15.18
14.9435350894928,3,3,3,2,-9.42,0.89,-0.25,9.470000000000001,1.65,-14.94
14.95353507995605,3,3,3,2,-9.529999999999999,1.02,-0.62,7.59,1.31,-14.47
14.96353507041931,3,3,3,2,-9.65,1.07,-0.91,5.28,1.19,-14.09
14.97353506088257,3,3,3,2,-9.65,1.07,-0.91,3.33,1.27,-14.22
14.98353505134583,3,3,3,2,-9.56,0.93,-1.28,1.65,1.37,-14.76
14.99353504180908,3,3,3,2,-9.43,0.4,-0.83,0.92,1.78,-15.24
15.00353503227234,3,3,3,2,-9.58,-0.03,-0.65,1.45,2.34,-15.19
15.0135350227356,3,3,3,2,-9.880000000000001,-1.24,-0.87,2.48,2.82,-14.33
15.02353501319885,3,3,3,2,-9.880000000000001,-1.24,-0.87,3.11,2.98,-12.86
15.03353500366211,3,3,3,2,-10,-1.51,-0.95,3.86,3.02,-11.45
15.04353499412537,3,3,3,2,-9.779999999999999,-1.43,-0.78,3.74,2.87,-10.23
15.05353498458862,3,3,3,2,-9.609999999999999,-1.27,-0.6,3.24,2.78,-9.48
15.06353497505188,3,3,3,2,-9.44,-1.1,-0.4,3.05,2.78,-9.300000000000001
15.07353496551514,3,3,3,2,-9.44,-1.1,-0.4,2.81,2.8,-9.18
15.08353495597839,3,3,3,2,-9.34,-0.98,-0.25,2.93,2.99,-9.02
15.09353494644165,3,3,3,2,-9.359999999999999,-1.58,-0.43,3.2,3.18,-8.859999999999999
15.10353493690491,3,3,3,2,-9.27,-2.06,-0.5,3.9,3.3,-8.73
15.11353492736816,3,3,3,2,-9.23,-2.5,-0.63,4.66,3.33,-8.65
15.12353491783142,3,3,3,2,-9.23,-2.5,-0.63,5.31,3.42,-8.69
15.13353490829468,3,3,3,2,-9.140000000000001,-2.88,-0.71,5.9,3.4,-8.75
15.14353489875793,3,3,3,2,-9.140000000000001,-2.96,-0.66,6.34,3.4,-8.869999999999999
15.15353488922119,3,3,3,2,-9.19,-3.06,-0.7,6.63,3.49,-9.039999999999999
15.16353487968445,3,3,3,2,-9.41,-2.97,-1.1,6.92,3.58,-9.17
15.17353510856628,3,3,3,2,-9.41,-2.97,-1.1,7.52,3.85,-9.199999999999999
15.18353509902954,3,3,3,2,-9.449999999999999,-2.86,-0.79,8.359999999999999,3.94,-9.24
15.1935350894928,3,3,3,2,-9.49,-2.62,-0.8100000000000001,9.08,3.88,-9.35
15.20353507995605,3,3,3,2,-9.300000000000001,-2.08,-0.86,9.609999999999999,3.82,-9.359999999999999
15.21353507041931,3,3,3,2,-9.4,-1.95,-0.7,9.59,3.56,-9.31
15.22353506088257,3,3,3,2,-9.4,-1.95,-0.7,9.34,3.23,-9.390000000000001
15.23353505134583,3,3,3,2,-9.789999999999999,-1.79,-0.55,8.83,2.81,-9.59
15.24353504180908,3,3,3,2,-10.66,-1.55,-0.93,8.050000000000001,2.37,-9.609999999999999
15.25353503227234,3,3,3,2,-10.82,-1.5,-1.07,7.43,2.05,-9.5
15.2635350227356,3,3,3,2,-11.06,-1.55,-1.1,7.11,1.9,-9.4
15.27353501319885,3,3,3,2,-11.06,-1.55,-1.1,7.42,1.92,-9.369999999999999
15.28353500366211,3,3,3,2,-11.41,-1.64,-0.97,8.130000000000001,1.98,-9.279999999999999
15.29353499412537,3,3,3,2,-12.2,-1.38,-1.28,9.31,1.94,-9.199999999999999
15.30353498458862,3,3,3,2,-12.33,-0.85,-1.32,10.28,1.73,-9.210000000000001
15.31353497505188,3,3,3,2,-12.6,-0.24,-0.9399999999999999,11.12,1.49,-9.109999999999999
15.32353496551514,3,3,3,2,-12.6,-0.24,-0.9399999999999999,11.74,1.16,-8.84
15.33353495597839,3,3,3,2,-13.06,0.77,0.46,12.14,0.75,-8.23
15.34353494644165,3,3,3,2,-12.69,1.89,0.27,11.95,0.17,-7.18
15.35353493690491,3,3,3,2,-12.45,2.43,0.33,11.46,-0.17,-6
15.36353492736816,3,3,3,2,-12.83,3.31,1.58,11.47,-0.29,-4.65
15.37353491783142,3,3,3,2,-12.83,3.31,1.58,12.22,-0.46,-2.79
15.38353490829468,3,3,3,2,-13.2,3.91,2.03,13.5,-0.61,-0.05
15.39353489875793,3,3,3,2,-13.05,3.69,3.25,13.65,-1.08,3.31
15.40353488922119,3,3,3,2,-12.12,3.33,2.91,12.75,-2,6.79
15.41353487968445,3,3,3,2,-11.62,3.45,2.58,11.96,-2.91,10.22
15.42353510856628,3,3,3,2,-11.62,3.45,2.58,11.92,-4.33,12.68
15.43353509902954,3,3,3,2,-11.38,3.54,1.72,12.49,-6.34,13.83
15.4435350894928,3,3,3,2,-10.49,0.2,-1.19,10.61,-6.94,14.81
15.45353507995605,3,3,3,2,-11.48,-1.63,-1.04,7.41,-5.25,16.12
15.46353507041931,3,3,3,2,-12.31,-2.28,-1.31,5.77,-3.96,17.45
15.47353506088257,3,3,3,1,-12.31,-2.28,-1.31,5.88,-2.91,18.11
15.48353505134583,3,3,3,1,-13.45,-2.86,-0.92,6.12,-1.46,18.1
15.49353504180908,3,3,3,1,-13.25,-3.54,-0.2,5.67,0.28,18.05
15.50353503227234,3,3,3,1,-12.6,-3.83,0.22,4.53,2.18,18.15
15.5135350227356,3,3,3,1,-12.03,-4.52,1.48,3.26,3.3,18.78
15.52353501319885,3,3,3,1,-12.03,-4.52,1.48,0.46,4.23,19.45
15.53353500366211,3,3,3,1,-11.47,-7.26,1.36,-2.92,3.87,19.42
15.54353499412537,3,3,3,1,-11.23,-7.23,0.6899999999999999,-3.74,4,19.34
15.55353498458862,3,3,3,1,-11.57,-7.56,0.47,-3.21,4.37,19.35
15.56353497505188,3,3,3,1,-11.68,-7.52,0.12,-3.01,4.44,19.75
15.57353496551514,3,3,3,0,-11.68,-7.52,0.12,-2.26,4.08,20.38
15.58353495597839,3,3,3,0,-10.97,-6.88,-0.29,-1.08,3.66,21.13
15.59353494644165,3,3,3,0,-10.58,-5.24,-0.55,0.1,3.48,22.21
15.60353493690491,3,3,3,0,-10.49,-4.3,-0.44,0.03,3.42,23.41
15.61353492736816,3,3,3,0,-10.1,-4.36,-0.19,-1.36,3.28,24.11
15.62353491783142,3,3,3,0,-10.1,-4.36,-0.19,-4.23,3,24.46
15.63453507423401,3,3,3,0,-9.529999999999999,-4.44,0,-7.07,2.53,24.46
15.64453506469727,3,3,3,0,-8.58,-5.05,-0.51,-10.27,2.26,24.18
15.65453505516052,3,3,3,0,-8.42,-5.47,-0.82,-13.45,1.99,23.75
15.66453504562378,3,3,3,0,-8.390000000000001,-6.07,-1.09,-15.64,1.65,23.37
15.67453503608704,3,3,3,0,-8.050000000000001,-6.5,-1.34,-16.5,1.3,22.84
15.68453502655029,3,3,3,0,-7.87,-6.16,-1.32,-16.47,0.9,22.21
15.69453501701355,3,3,3,0,-7.84,-6.32,-1.21,-15.94,0.37,21.51
15.70453500747681,3,3,3,0,-7.78,-6.47,-0.93,-15.35,-0.17,20.73
15.71453499794006,3,3,3,0,-7.51,-6.83,-1.26,-14.35,-0.89,19.65
15.72453498840332,3,3,3,0,-7.19,-6.37,-0.95,-12.08,-1.57,18.41
15.73453497886658,3,3,3,0,-7.08,-6.09,-0.59,-11.16,-1.75,17.09
15.74453496932983,3,3,3,0,-7.15,-5.67,-0.82,-10.73,-1.56,15.88
15.75453495979309,3,3,3,0,-7.16,-4.99,-0.88,-10.05,-1.63,14.6
15.78453493118286,3,3,3,0,-5.69,-4.02,0.33,-10.89,-2.85,12.23
15.79453492164612,3,3,3,0,-5.55,-4.3,0.67,-12.05,-3.01,11.97
15.80453491210938,3,3,3,0,-5.48,-4.98,0.78,-12.91,-3.05,11.4
15.81453490257263,3,3,3,0,-5.61,-5.24,1.11,-12.31,-2.74,10.03
15.82453489303589,3,3,3,0,-6,-4.78,1.55,-11.01,-2.25,8.31
15.83453488349915,3,3,3,0,-6.16,-4.18,1.51,-12.21,-1.54,6.14
15.84453511238098,3,3,3,0,-6.48,-3.88,0.87,-12.93,-0.8,3.06
15.85453510284424,3,3,3,0,-7.25,-2.71,0.35,-11.93,-0.32,0.54
15.8645350933075,3,3,3,0,-9.460000000000001,1.09,0.95,-8.69,-0.05,-1.01
15.87453508377075,3,3,3,0,-9.970000000000001,4.33,1.11,-5.82,-0.71,-1.17
15.88453507423401,3,3,3,0,-10.88,6.37,2.35,-1.87,-1.1,-0.4
15.89453506469727,3,3,3,0,-11.18,9.35,4.25,0.66,-1.23,0.8100000000000001
15.90453505516052,3,3,3,0,-10.94,20.61,2.89,2.9,-0.74,0.92
15.91453504562378,3,3,3,0,-14.38,24.8,1.06,4.61,3.97,3.81
15.92453503608704,3,3,3,0,-17.22,28.09,-0.06,5.66,8.33,6.41
15.93453502655029,3,3,3,0,-15.76,16.91,0.26,-1.17,5.34,11.39
15.94453501701355,3,3,3,0,-9.210000000000001,0.65,2.96,-2.93,0.82,10.41
15.95453500747681,3,3,3,0,-8.43,-2.41,1.91,-3.21,1.19,8.17
15.99453496932983,3,3,3,0,-7.27,-0.27,0.53,-6.87,6.15,2.73
16.00453495979309,3,3,3,0,-6.45,-3.83,-0.79,-12.98,3.94,1.76
16.01453495025635,3,3,3,0,-7.01,-4.82,-0.26,-17.5,2.39,-0.03
16.0245349407196,3,3,3,0,-12.55,-0.87,5.2,-22.34,-0.05,-1.68
16.03453493118286,3,3,3,0,-16.54,6.95,10.64,-18.71,-3.38,-3.9
16.04453492164612,3,3,3,0,-18.9,14.19,10.26,-11.34,-8.68,-5.17
16.05453491210938,3,3,3,0,-20.71,13.93,6.43,-13.65,-7.6,-5.28
16.06453490257263,3,3,3,0,-11.06,3.64,2.45,-18.01,-0.92,-3.73
16.07453489303589,3,3,3,0,-10.01,-2.79,1.67,-19.49,2.91,-3.55
16.08453488349915,3,3,3,0,-9.369999999999999,-6.01,-1.65,-15.87,7.18,-3.5
16.09453511238098,3,3,3,0,-9.09,-8.83,-5.48,-12.32,9.779999999999999,-3.5
16.10453510284424,3,3,3,0,-7.03,-12.47,-8.58,-11.57,9.77,-5.66
16.1145350933075,3,3,3,0,-6.8,-7.07,-5.99,-4.45,8.710000000000001,-10.69
16.12453508377075,3,3,3,0,-8.65,-2.48,-1.78,5.21,7.54,-15.04
16.13453507423401,3,3,3,0,-10.02,-3.7,-1.51,7.48,6.31,-16.27
16.14453506469727,3,3,3,0,-10.03,-6.35,-2.43,2.15,4.55,-15.59
16.15453505516052,3,3,3,0,-10.12,-5.89,-1.29,-0.1,4.18,-15.01
16.16453504562378,3,3,3,0,-10.35,-4.18,-0.17,2.37,4.63,-14.96
16.17453503608704,3,3,3,0,-10.51,-1.76,0.98,1.87,5.02,-14.74
16.18453502655029,3,3,3,0,-10.92,-1.55,1.46,-0.21,5.23,-14.14
16.19453501701355,3,3,3,0,-10.78,-1.54,1.32,-1.79,5.95,-13.41
16.20453500747681,3,3,3,0,-10.06,-1.02,0.85,-1.91,6.11,-13.14
16.21453499794006,3,3,3,0,-9.5,-1.37,-0.8100000000000001,-2.08,5.7,-13.34
16.22453498840332,3,3,3,0,-9.550000000000001,-1.82,-1.92,-2.37,5.14,-13.82
16.23453497886658,3,3,3,0,-9.48,-1.61,-2.46,-1.92,4.71,-14.18
16.24453496932983,3,3,3,0,-9.41,-1.37,-2.72,-1,4.54,-14.33
16.25453495979309,3,3,3,0,-9.630000000000001,-2.14,-2.02,-0.44,4.74,-14.32
16.26453495025635,3,3,3,0,-9.75,-3.21,-1.77,0.16,5.03,-14.38
16.2745349407196,3,3,3,0,-9.74,-3.56,-1.48,1.8,5.25,-14.58
16.28453493118286,3,3,3,0,-9.57,-2.97,-1.02,5.39,5.13,-15.01
16.29453492164612,3,3,3,0,-9.390000000000001,-2.64,-0.23,8.44,4.59,-15.31
16.30453491210938,3,3,3,0,-9.73,-2.14,-0.13,10.26,3.8,-15.47
16.31453490257263,3,3,3,0,-9.82,-0.8,0.02,12.25,2.97,-15.58
16.32453489303589,3,3,3,1,-9.74,0.31,0.1,12.63,2.37,-15.17
16.33453488349915,3,3,3,1,-9.49,1.68,-0.73,11.6,2.13,-14.71
16.34453511238098,3,3,3,1,-9.56,1.75,-1.3,9.73,2.24,-14.05
16.35453510284424,3,3,3,1,-9.529999999999999,2.2,-1.47,8.199999999999999,2.35,-13.79
16.3645350933075,3,3,3,1,-9.460000000000001,2.03,-1.49,6.8,2.31,-13.92
16.37453508377075,3,3,3,1,-9.720000000000001,1.22,-1.06,5.82,2.39,-14.18
16.38453507423401,3,3,3,1,-9.75,0.92,-0.9399999999999999,5.43,2.74,-13.89
16.39453506469727,3,3,3,1,-9.83,0.5,-0.99,5.74,3.08,-13.07
16.40453505516052,3,3,3,1,-9.960000000000001,-0.05,-1.03,5.55,3.28,-11.92
16.41453504562378,3,3,3,1,-10.19,-0.98,-0.83,5.1,3.28,-10.6
16.42453503608704,3,3,3,2,-10.16,-1.82,-0.68,4.21,3.22,-9.32
16.43453502655029,3,3,3,2,-9.91,-2.23,-0.48,3.58,3.05,-8.44
16.44453501701355,3,3,3,2,-9.609999999999999,-2.31,-0.63,3.39,3.01,-8.130000000000001
16.45453500747681,3,3,3,2,-9.27,-2.08,-0.42,3.58,3.08,-8.220000000000001
16.46453499794006,3,3,3,2,-9.19,-1.89,-0.45,4.07,3.16,-8.42
16.47453498840332,3,3,3,2,-9.210000000000001,-1.75,-0.33,4.53,3.24,-8.52
16.48453497886658,3,3,3,2,-9.27,-1.91,-0.48,5.11,3.29,-8.550000000000001
16.49453496932983,3,3,3,2,-9.300000000000001,-2.09,-0.62,5.83,3.37,-8.539999999999999
16.50453495979309,3,3,3,2,-9.27,-2.14,-0.62,6.49,3.32,-8.4
16.51453495025635,3,3,3,2,-9.18,-2.17,-0.73,6.82,3.26,-8.24
16.5245349407196,3,3,3,3,-9.050000000000001,-2.06,-0.7,6.85,3.29,-8.210000000000001
16.53453493118286,3,3,3,3,-9.09,-2.21,-0.7,6.6,3.32,-8.279999999999999
16.54453492164612,3,3,3,3,-9.17,-2.42,-0.64,6.32,3.42,-8.359999999999999
16.55453491210938,3,3,3,3,-9.33,-2.71,-0.59,6.2,3.56,-8.49
16.56453490257263,3,3,3,3,-9.35,-3.16,-0.85,6.32,3.69,-8.5
16.57453489303589,3,3,3,3,-9.32,-3.03,-0.61,6.96,3.72,-8.49
16.58453488349915,3,3,3,3,-9.279999999999999,-2.72,-0.53,7.86,3.64,-8.609999999999999
16.59453511238098,3,3,3,3,-9.27,-2.49,-0.59,8.449999999999999,3.5,-8.779999999999999
16.60453510284424,3,3,3,3,-9.32,-2.19,-0.6899999999999999,8.68,3.33,-8.99
16.6145350933075,3,3,3,3,-9.56,-1.97,-0.63,8.74,3.18,-9.17
16.62453508377075,3,3,3,3,-9.74,-1.81,-0.78,8.6,2.88,-9.31
16.63453507423401,3,3,3,3,-9.960000000000001,-1.68,-0.8,8.119999999999999,2.58,-9.4
16.64453506469727,3,3,3,3,-10.28,-1.41,-1.09,7.56,2.35,-9.27
16.65453505516052,3,3,3,3,-10.39,-1.57,-1.2,7.08,2.18,-8.99
16.66553497314453,3,3,3,3,-10.56,-1.74,-1.13,6.96,2.13,-8.74
16.67553496360779,3,3,3,3,-10.76,-2.06,-1.13,7.53,2.29,-8.65
16.68553495407104,3,3,3,3,-11.45,-2.64,-1.11,8.66,2.44,-8.609999999999999
16.6955349445343,3,3,3,3,-11.8,-2.63,-1.17,10.2,2.48,-8.68
16.70553493499756,3,3,3,3,-11.96,-2.21,-1.17,11.83,2.39,-8.77
16.71553492546082,3,3,3,3,-12.05,-1.58,-1.2,13.09,2.03,-8.84
16.72553491592407,3,3,3,3,-12.83,0.18,0.14,13.96,1.72,-8.99
16.73553490638733,3,3,3,3,-13.07,0.88,0.68,14.29,1.31,-8.76
16.74553489685059,3,3,3,3,-12.86,1.46,0.53,14,0.58,-7.94
16.75553488731384,3,3,3,3,-12.47,2.1,0.31,13.01,0,-6.79
16.7655348777771,3,3,3,3,-12.73,3.12,1.19,12.19,-0.23,-5.6
16.77553510665894,3,3,3,3,-13.24,3.78,1.88,12.52,-0.38,-4.06
16.78553509712219,3,3,3,3,-13.53,4.37,2.18,13.56,-0.57,-1.62
16.79553508758545,3,3,3,3,-13.59,4.29,2.78,14.3,-0.82,1.57
16.80553507804871,3,3,3,3,-12.42,3.01,2.57,13.3,-1.63,4.82
16.81553506851196,3,3,3,3,-11.84,3.57,2.42,12.51,-2.18,8.289999999999999
16.82553505897522,3,3,3,3,-11.21,3.95,2.12,11.65,-3.1,12.05
16.83553504943848,3,3,3,3,-10.36,3.68,0.24,11.53,-4.86,14.48
16.84553503990173,3,3,3,3,-10.01,2.38,-0.4,10.76,-6.83,15.54
16.85553503036499,3,3,3,3,-9.970000000000001,0.33,-1.02,8.630000000000001,-7.07,16.07
16.86553502082825,3,3,3,3,-10.58,-1.33,-1.26,5.9,-5.26,16.75
16.8755350112915,3,3,3,3,-12.36,-2.6,-1.02,4.79,-3.88,17.54
16.88553500175476,3,3,3,3,-12.66,-3.04,-1.18,5.54,-2.79,18.02
16.89553499221802,3,3,3,3,-12.79,-3.25,-1,6.52,-1.28,18.07
16.90553498268127,3,3,3,3,-12.77,-3.9,-0.47,6.31,0.8,17.77
16.91553497314453,3,3,3,3,-11.83,-4.2,0.04,5,2.64,17.7
16.92553496360779,3,3,3,3,-11.81,-4.48,0.61,3.6,4.21,18.06
16.93553495407104,3,3,3,3,-12.12,-5.87,1.64,1.02,5.14,18.63
16.9455349445343,3,3,3,3,-11.69,-7.12,1.45,-1.73,4.77,18.84
16.95553493499756,3,3,3,3,-11.15,-7.89,0.49,-2.35,4.82,18.89
16.96553492546082,3,3,3,3,-11.21,-7.78,0.36,-0.76,5.27,18.99
16.97553491592407,3,3,3,3,-11.38,-7.5,0.27,0.82,5.33,19.35
16.98553490638733,3,3,3,3,-11.34,-7.02,0.03,1.66,5.02,19.88
16.99553489685059,3,3,3,3,-10.8,-5.4,-0.02,1.57,4.82,20.65
17.00553488731384,3,3,3,3,-10.72,-4.75,0.03,0.7,4.54,21.48
17.0155348777771,3,3,3,3,-10.6,-4.26,0,-1.34,4.24,22.04
17.02553510665894,3,3,3,3,-10.49,-4.3,-0.08,-3.87,3.88,22.42
17.03553509712219,3,3,3,3,-9.279999999999999,-4.71,0.08,-6.41,3.46,22.66
17.04553508758545,3,3,3,3,-8.869999999999999,-4.65,-0.07000000000000001,-8.74,3.08,22.7
17.05553507804871,3,3,3,3,-8.5,-4.89,-0.21,-11.82,2.8,22.44
17.06553506851196,3,3,3,3,-8.300000000000001,-4.98,-0.43,-14.87,2.49,22.16
17.07553505897522,3,3,3,3,-8.07,-5.5,-0.9,-17.32,2.06,21.71
17.08553504943848,3,3,3,3,-8,-5.62,-0.92,-18.65,1.62,21.15
17.09553503990173,3,3,3,3,-7.93,-5.86,-0.97,-18.99,0.99,20.66
17.10553503036499,3,3,3,3,-7.85,-6,-0.78,-18.44,0.36,20.11
17.11553502082825,3,3,3,3,-7.9,-6.27,-0.51,-17.28,-0.26,19.37
17.1255350112915,3,3,3,3,-7.75,-6.13,-0.58,-15.44,-0.85,18.25
17.13553500175476,3,3,3,3,-7.64,-5.49,-0.18,-13.01,-1.4,17.14
17.14553499221802,3,3,3,3,-7.68,-5.22,-0.15,-12.13,-1.77,16.13
17.15553498268127,3,3,3,3,-7.25,-4.34,-0.43,-10.97,-2.13,14.88
17.16553497314453,3,3,3,3,-7.18,-4.1,-0.32,-10.27,-2.17,13.67
17.17553496360779,3,3,3,3,-7.17,-3.92,-0.12,-9.81,-2.25,12.67
17.18553495407104,3,3,3,3,-6.81,-3.46,0.03,-9.44,-2.44,11.81
17.1955349445343,3,3,3,3,-6.62,-2.99,0.24,-8.81,-2.68,11.25
17.20553493499756,3,3,3,3,-6.65,-2.49,0.75,-8.640000000000001,-2.53,10.98
17.21553492546082,3,3,3,3,-6.85,-2.34,1.22,-9.279999999999999,-2.1,10.5
17.22553491592407,3,3,3,3,-7.44,-2.28,1.58,-9.91,-1.37,9.6
17.23553490638733,3,3,3,3,-7.64,-2.6,1.32,-9.789999999999999,-0.96,8.49
17.24553489685059,3,3,3,3,-7.71,-2.8,1.2,-9.15,-0.92,6.58
17.25553488731384,3,3,3,3,-7.71,-2.81,1.43,-8.26,-1.26,4.49
17.2655348777771,3,3,3,3,-7.65,-2.36,1.24,-7.74,-1.65,2.36
17.27553510665894,3,3,3,2,-7.73,-1.07,0.74,-6.44,-1.67,0.75
17.28553509712219,3,3,3,2,-8.300000000000001,1.02,0.35,-2.64,-1.5,0.12
17.29553508758545,3,3,3,2,-9.19,2.61,0.43,-0.3,-1.6,1.35
17.30553507804871,3,3,3,2,-9.4,7.42,1.47,1.33,-2.32,2.21
17.31553506851196,3,3,3,2,-10.01,9.5,2.94,2.57,-1.47,2.85
17.32553505897522,3,3,3,2,-10.04,17.19,2.84,5.02,0.33,2.33
17.33553504943848,3,3,3,2,-12.08,19.99,1.81,3.54,4.55,5.04
17.34553503990173,3,3,3,2,-15.81,19.67,0.19,0.14,6.66,7.45
17.35553503036499,3,3,3,2,-13.72,12.52,0.3,-5.51,4.06,9.470000000000001
17.36553502082825,3,3,3,2,-10.85,5.63,1.12,-7.35,-0.35,9.210000000000001
17.3755350112915,3,3,3,2,-9.449999999999999,0.78,1.55,-7.94,-2.03,7.47
17.38553500175476,3,3,3,2,-8.06,-0.93,0.08,-7.45,-0.71,6.33
17.39553499221802,3,3,3,2,-7.77,0.37,-0.54,-6.16,1.39,5.53
17.40553498268127,3,3,3,2,-7.64,0.79,-0.27,-6.38,2.94,4.21
17.41553497314453,3,3,3,2,-7.48,0.19,-0.05,-9.07,3.45,2.57
17.42553496360779,3,3,3,2,-6.65,-4.11,-0.96,-13.59,3.17,0.33
17.43553495407104,3,3,3,2,-8.09,-5.48,-0.62,-17.55,2.84,-2.49
17.4455349445343,3,3,3,2,-10.07,-5.52,1.3,-19.97,0.36,-6.27
17.45553493499756,3,3,3,2,-10.65,0.19,2.74,-18.42,-2.32,-7.57
17.46553492546082,3,3,3,2,-16.62,15.12,8.77,-15.16,-3.06,-6.05
17.47553491592407,3,3,3,2,-17.13,14.98,7.57,-18.24,-6,-4.99
17.49553489685059,3,3,3,2,-12.53,4.72,3.3,-29,2.8,-3.61
17.50553488731384,3,3,3,2,-11.02,-3.86,3.36,-24.74,4.33,-3.86
17.5155348777771,3,3,3,2,-9.630000000000001,-7.01,0.44,-16.17,6.21,-4.28
17.52553510665894,3,3,3,2,-9.31,-8,-4.12,-9.15,8.32,-4.84
17.53553509712219,3,3,3,2,-7.34,-9.34,-7.83,-5.95,9.43,-6.06
17.54553508758545,3,3,3,2,-7.85,-6.21,-6.58,-2.19,8.48,-8.58
17.55553507804871,3,3,3,2,-9.76,-3.35,-2.75,5.03,7.2,-11.74
17.56553506851196,3,3,3,2,-10.32,-2.52,-1.1,9.5,6.17,-13.18
17.57553505897522,3,3,3,2,-9.51,-3.57,-2.7,6.98,5.15,-13.41
17.58553504943848,3,3,3,2,-9.6,-4.61,-1.72,3.86,4.46,-13.11
17.59553503990173,3,3,3,2,-9.69,-4.38,-1.64,4.54,4.59,-12.95
17.60553503036499,3,3,3,2,-10.26,-3.24,-0.43,4.43,5.25,-12.91
17.61553502082825,3,3,3,2,-11.4,-0.6899999999999999,2.33,2.55,5.17,-12.84
17.6255350112915,3,3,3,2,-11.57,-0.58,2.65,-0.25,5.18,-12.52
17.63553500175476,3,3,3,2,-10.43,-0.6899999999999999,1.8,-2.91,5.22,-12.01
17.64553499221802,3,3,3,2,-9.300000000000001,-0.64,0.38,-5.07,4.9,-11.6
17.65553498268127,3,3,3,2,-8.99,-0.8100000000000001,-1.56,-6.58,4.3,-11.38
17.66553497314453,3,3,3,2,-9.35,-1.3,-1.92,-7.12,4.14,-11.29
17.67553496360779,3,3,3,2,-9.539999999999999,-1.65,-2.17,-6.59,4.42,-11.29
17.6865348815918,3,3,3,2,-9.68,-2.01,-2.34,-5.34,5.07,-11.38
17.69653511047363,3,3,3,2,-9.890000000000001,-3.02,-2.19,-3.43,5.58,-11.49
17.70653510093689,3,3,3,2,-9.56,-2.36,-1.57,-0.43,5.66,-11.7
17.71653509140015,3,3,3,2,-9.51,-2.35,-0.92,2.86,5.22,-11.68
17.7265350818634,3,3,3,2,-9.380000000000001,-1.89,-0.21,5.8,4.57,-12.03
17.73653507232666,3,3,3,2,-9.66,-1.12,0.79,7.38,3.69,-12.29
17.74653506278992,3,3,3,2,-9.720000000000001,-0.86,0.63,8.039999999999999,2.87,-12.22
17.75653505325317,3,3,3,2,-9.609999999999999,-0.37,0.28,7.95,2.52,-11.76
17.76653504371643,3,3,3,2,-9.56,0.41,-0.08,7.58,2.7,-11.11
17.77653503417969,3,3,3,2,-9.41,0.68,-0.59,6.56,2.93,-10.47
17.78653502464294,3,3,3,2,-9.380000000000001,0.49,-0.74,5.6,3.15,-10.1
17.7965350151062,3,3,3,2,-9.41,0.45,-0.78,5.12,3.13,-10.05
17.80653500556946,3,3,3,2,-9.57,0.2,-0.65,4.8,3,-10.24
17.81653499603271,3,3,3,2,-9.84,0,-0.82,4.49,2.72,-10.29
17.82653498649597,3,3,3,2,-9.84,0,-0.97,3.72,2.53,-9.960000000000001
17.83653497695923,3,3,3,2,-9.83,-0.13,-0.85,2.8,2.51,-9.27
17.84653496742249,3,3,3,2,-9.779999999999999,-0.5600000000000001,-0.97,1.79,2.59,-8.539999999999999
17.85653495788574,3,3,3,2,-9.59,-1.67,-0.79,1.2,2.68,-8.08
17.866534948349,3,3,3,2,-9.539999999999999,-2.14,-0.79,1.04,2.65,-8.029999999999999
17.87653493881226,3,3,3,2,-9.5,-2.45,-0.77,1.11,2.48,-8.369999999999999
17.88653492927551,3,3,3,2,-9.42,-2.74,-0.77,1.2,2.24,-8.83
17.89653491973877,3,3,3,2,-9.4,-2.64,-0.85,1.41,1.96,-9.210000000000001
17.90653491020203,3,3,3,2,-9.4,-2.47,-0.8,1.84,1.93,-9.49
17.91653490066528,3,3,3,2,-9.4,-2.4,-0.59,2.41,2.07,-9.529999999999999
17.92653489112854,3,3,3,2,-9.390000000000001,-2.14,-0.45,3.21,2.27,-9.449999999999999
17.9365348815918,3,3,3,2,-9.390000000000001,-1.83,-0.33,4.18,2.52,-9.210000000000001
17.94653511047363,3,3,3,2,-9.359999999999999,-1.42,-0.38,5.17,2.65,-8.81
17.95653510093689,3,3,3,2,-9.359999999999999,-1.21,-0.35,5.86,2.78,-8.48
17.96653509140015,3,3,3,2,-9.4,-0.87,-0.54,6.47,2.92,-8.140000000000001
17.9765350818634,3,3,3,2,-9.460000000000001,-0.66,-0.64,6.73,3.09,-7.78
17.98653507232666,3,3,3,2,-9.43,-0.4,-0.68,7.08,3.22,-7.49
17.99653506278992,3,3,3,2,-9.380000000000001,-0.45,-0.91,7.31,3.31,-7.36
18.00653505325317,3,3,3,2,-9.390000000000001,-0.86,-0.9399999999999999,7.41,3.36,-7.27
18.01653504371643,3,3,3,2,-9.449999999999999,-1.14,-0.88,7.51,3.27,-7.33
18.02653503417969,3,3,3,2,-9.449999999999999,-1.53,-0.8,7.43,3.08,-7.4
18.03653502464294,3,3,3,2,-9.449999999999999,-1.97,-0.9,7.39,2.97,-7.56
18.0465350151062,3,3,3,2,-9.539999999999999,-2.31,-0.9,7.72,2.86,-7.81
18.05653500556946,3,3,3,2,-9.6,-2.38,-0.88,7.78,2.72,-8.029999999999999
18.06653499603271,3,3,3,2,-9.65,-2.47,-0.87,7.82,2.72,-8.130000000000001
18.07653498649597,3,3,3,2,-9.720000000000001,-2.63,-0.96,7.81,2.74,-7.99
18.08653497695923,3,3,3,2,-10.11,-2.53,-0.91,7.89,2.78,-7.61
18.09653496742249,3,3,3,2,-10.3,-2.56,-1.02,7.86,2.7,-7.23
18.10653495788574,3,3,3,2,-10.36,-2.53,-0.86,7.98,2.62,-7.08
18.116534948349,3,3,3,2,-10.3,-2.61,-1.03,8.32,2.58,-7.06
18.12653493881226,3,3,3,2,-10.39,-2.14,-0.64,9.23,2.65,-7.13
18.13653492927551,3,3,3,2,-10.41,-1.89,-0.63,10.35,2.63,-7.24
18.14653491973877,3,3,3,2,-10.48,-1.64,-0.73,11.38,2.64,-7.2
18.15653491020203,3,3,3,2,-10.55,-1.35,-0.92,12.12,2.5,-6.9
18.16653490066528,3,3,3,2,-10.97,-0.31,-1.05,12.46,2.3,-6.53
18.17653489112854,3,3,3,2,-11.38,0.3,-0.77,12.49,2.11,-6.33
18.1865348815918,3,3,3,2,-11.87,0.6899999999999999,-0.36,12.12,2.02,-5.94
18.19653511047363,3,3,3,2,-12.09,1.06,-0.35,11.47,1.82,-5.27
18.20653510093689,3,3,3,2,-12,2.06,-0.22,10.35,1.74,-4.45
18.21653509140015,3,3,3,2,-12.1,2.3,0.65,9.44,1.85,-3.45
18.2265350818634,3,3,3,2,-12.48,2.14,1.67,8.81,1.83,-1.87
18.23653507232666,3,3,3,2,-12.84,1.08,2.68,8.140000000000001,1.54,0.01
18.24653506278992,3,3,3,2,-12.41,0.09,2.72,7.38,0.9,1.6
18.25653505325317,3,3,3,2,-11.82,-0.26,2.27,7.53,-0.12,2.58
18.26653504371643,3,3,3,2,-11.59,-1.24,2.23,7.34,-1.08,4.07
18.27653503417969,3,3,3,2,-11.23,-3.46,2.04,7.9,-2.61,6.2
18.28653502464294,3,3,3,2,-10.92,-4.24,1.74,9.85,-4.32,8.27
18.2965350151062,3,3,3,2,-10.31,-4.94,1.17,11.99,-5.74,10.02
18.30653500556946,3,3,3,2,-9.77,-5.26,0.87,13.64,-6.05,10.85
18.31653499603271,3,3,3,2,-8.869999999999999,-3.34,-0.9399999999999999,14.51,-5.38,11.2
18.32653498649597,3,3,3,2,-9.25,-3.46,-0.39,15.15,-3.85,11.2
18.33653497695923,3,3,3,2,-9.109999999999999,-4.52,-0.65,13.91,-2.56,10.85
18.34653496742249,3,3,3,2,-8.859999999999999,-5.2,-0.85,12.15,-1.83,10.51
18.35653495788574,3,3,3,2,-8.619999999999999,-4.43,0.04,11.4,-1.09,9.970000000000001
18.366534948349,3,3,3,2,-8.619999999999999,-4.22,0.33,9.02,-0.35,9.48
18.37653493881226,3,3,3,2,-8.77,-4.52,0.72,5.42,0.7,9.130000000000001
18.38653492927551,3,3,3,2,-8.93,-5.12,1.13,1.75,1.34,9.34
18.39653491973877,3,3,3,2,-8.99,-6.74,1.66,-1.12,1.41,10.04
18.40653491020203,3,3,3,2,-8.789999999999999,-7.74,1.89,-3.01,1.18,10.73
18.41653490066528,3,3,3,2,-8.65,-8.32,1.79,-3.13,0.9,11.16
18.42653489112854,3,3,3,2,-8.529999999999999,-8.44,1.52,-1.29,0.73,11.49
18.4365348815918,3,3,3,2,-8.34,-7.68,1.61,1.24,0.43,11.77
18.44653511047363,3,3,3,2,-8.300000000000001,-7.13,1.55,2.95,-0.05,11.98
18.45653510093689,3,3,3,2,-8.23,-6.8,1.55,3.63,-0.44,11.97
18.46653509140015,3,3,3,2,-8.18,-6.56,1.64,3.75,-0.77,11.96
18.4765350818634,3,3,3,2,-8.210000000000001,-6.6,1.58,3.68,-1.05,11.83
18.48653507232666,3,3,3,2,-8.279999999999999,-6.4,1.1,3.97,-0.99,11.4
18.49653506278992,3,3,3,2,-8.289999999999999,-5.81,0.21,4.17,-0.53,10.74
18.50653505325317,3,3,3,2,-8.32,-5.2,-0.6,3.58,0.32,10.23
18.51653504371643,3,3,3,2,-8.82,-5.28,-0.64,2.99,0.88,9.970000000000001
18.52653503417969,3,3,3,2,-8.93,-5.14,-0.53,1.54,0.86,9.779999999999999
18.53653502464294,3,3,3,2,-8.65,-4.91,-0.78,0.51,0.5600000000000001,9.890000000000001
18.5465350151062,3,3,3,2,-8.390000000000001,-4.83,-0.74,-0.27,0.19,10.32
18.55653500556946,3,3,3,2,-7.98,-4.97,-0.54,-0.5600000000000001,-0.15,10.29
18.56653499603271,3,3,3,2,-7.92,-5.26,-0.36,-0.82,-0.16,10.29
18.57653498649597,3,3,3,2,-7.87,-5.2,-0.31,-0.49,-0.28,10.29
18.58653497695923,3,3,3,2,-7.98,-4.49,-0.04,-0.31,-0.48,10.39
18.59653496742249,3,3,3,2,-8.27,-2.9,0.95,-1.62,-0.55,10.62
18.60653495788574,3,3,3,2,-8.98,-2.28,1.7,-4.39,0.17,10.24
18.616534948349,3,3,3,2,-9.390000000000001,-2.05,1.51,-6.37,0.79,9.42
18.62653493881226,3,3,3,2,-9.42,-1.56,1.7,-7.5,0.9,8.699999999999999
18.63653492927551,3,3,3,2,-9.43,-1.61,1.89,-9.85,1.24,8.210000000000001
18.64653491973877,3,3,3,2,-9.140000000000001,-1.57,1.98,-12.21,1.34,8.15
18.65653491020203,3,3,3,2,-9.23,-1.65,1.93,-14.02,1.45,8.25
18.66653490066528,3,3,3,2,-8.99,-0.93,0.87,-14.53,1.93,7.68
18.67653489112854,3,3,3,2,-8.99,-1.65,0.09,-14.88,1.74,6.91
18.6865348815918,3,3,3,2,-8.77,-1.59,-0.35,-13.43,0.85,5.26
18.69653511047363,3,3,3,2,-8.41,-1.18,0.01,-11.46,-0.23,3.61
