timestamp,magCalib,accCalib,gyrCalib,sysCalib,accX,accY,accZ,gyrX,gyrY,gyrZ
timestamp,magCalib,accCalib,gyrCalib,sysCalib,accX,accY,accZ,gyrX,gyrY,gyrZ
0.06551802158355713,3,3,3,2,-9.43,2.02,-1.5,0.02,0,0.04
0.06551802158355713,3,3,3,2,-9.43,2.02,-1.5,0.02,0,0.04
0.0855180025100708,3,3,3,2,-9.44,2.07,-1.6,0.13,0.02,0.03
0.0855180025100708,3,3,3,2,-9.44,2.07,-1.6,0.13,0.02,0.03
0.1055179834365845,3,3,3,2,-9.48,2.11,-1.55,0.12,-0.05,-0.03
0.1055179834365845,3,3,3,2,-9.48,2.11,-1.55,0.12,-0.05,-0.03
0.1255179643630981,3,3,3,2,-9.41,2.17,-1.62,0.03,0.07000000000000001,0
0.1255179643630981,3,3,3,2,-9.41,2.17,-1.62,0.03,0.07000000000000001,0
0.1455179452896118,3,3,3,2,-9.369999999999999,2.11,-1.58,-0.1,0.04,0.08
0.1455179452896118,3,3,3,2,-9.369999999999999,2.11,-1.58,-0.1,0.04,0.08
0.1655179262161255,3,3,3,2,-9.41,2.09,-1.55,-0.08,0.06,0.13
0.1655179262161255,3,3,3,2,-9.41,2.09,-1.55,-0.08,0.06,0.13
0.1855179071426392,3,3,3,2,-9.43,2.08,-1.63,-0.06,0.01,0.14
0.1855179071426392,3,3,3,2,-9.43,2.08,-1.63,-0.06,0.01,0.14
0.2065180540084839,3,3,3,2,-9.43,2.09,-1.53,0.01,0.03,0.14
0.2065180540084839,3,3,3,2,-9.43,2.09,-1.53,0.01,0.03,0.14
0.2265180349349976,3,3,3,2,-9.449999999999999,2.08,-1.65,0.04,0,0.14
0.2265180349349976,3,3,3,2,-9.449999999999999,2.08,-1.65,0.04,0,0.14
0.2465180158615112,3,3,3,2,-9.42,2,-1.55,0.13,0.06,0.14
0.2465180158615112,3,3,3,2,-9.42,2,-1.55,0.13,0.06,0.14
0.2665179967880249,3,3,3,2,-9.42,2.03,-1.53,0.2,0.06,0.13
0.2665179967880249,3,3,3,2,-9.42,2.03,-1.53,0.2,0.06,0.13
0.2865179777145386,3,3,3,2,-9.44,2.04,-1.51,0.18,-0.03,0.1
0.2865179777145386,3,3,3,2,-9.44,2.04,-1.51,0.18,-0.03,0.1
0.3065179586410522,3,3,3,2,-9.44,2.03,-1.47,0.1,0.03,0.05
0.3065179586410522,3,3,3,2,-9.44,2.03,-1.47,0.1,0.03,0.05
0.3265179395675659,3,3,3,2,-9.48,2,-1.56,-0.05,-0.03,0.01
0.3265179395675659,3,3,3,2,-9.48,2,-1.56,-0.05,-0.03,0.01
0.3465179204940796,3,3,3,2,-9.4,2,-1.51,-0.03,0.11,0.01
0.3465179204940796,3,3,3,2,-9.4,2,-1.51,-0.03,0.11,0.01
0.3665179014205933,3,3,3,2,-9.42,1.98,-1.54,-0.05,0.08,-0.02
0.3665179014205933,3,3,3,2,-9.42,1.98,-1.54,-0.05,0.08,-0.02
0.3865178823471069,3,3,3,2,-9.43,2,-1.63,0.01,-0.04,0.01
0.3865178823471069,3,3,3,2,-9.43,2,-1.63,0.01,-0.04,0.01
0.4065178632736206,3,3,3,2,-9.470000000000001,2.06,-1.49,0.07000000000000001,-0.04,-0.06
0.4065178632736206,3,3,3,2,-9.470000000000001,2.06,-1.49,0.07000000000000001,-0.04,-0.06
0.4265180826187134,3,3,3,2,-9.48,2.05,-1.57,0.16,-0.03,-0.14
0.4265180826187134,3,3,3,2,-9.48,2.05,-1.57,0.16,-0.03,-0.14
0.4465180635452271,3,3,3,3,-9.48,2.1,-1.51,0.11,-0.06,-0.24
0.4465180635452271,3,3,3,3,-9.48,2.1,-1.51,0.11,-0.06,-0.24
0.4665180444717407,3,3,3,3,-9.48,2.14,-1.55,-0.08,-0.15,-0.37
0.4665180444717407,3,3,3,3,-9.48,2.14,-1.55,-0.08,-0.15,-0.37
0.4865180253982544,3,3,3,3,-9.44,2.07,-1.61,0.11,-0.2,-0.55
0.4865180253982544,3,3,3,3,-9.44,2.07,-1.61,0.11,-0.2,-0.55
0.5065180063247681,3,3,3,3,-9.619999999999999,2.19,-1.51,0.2,-0.17,-0.72
0.5065180063247681,3,3,3,3,-9.619999999999999,2.19,-1.51,0.2,-0.17,-0.72
0.5265179872512817,3,3,3,3,-9.56,2.04,-1.67,-0.11,-0.88,-1.16
0.5265179872512817,3,3,3,3,-9.56,2.04,-1.67,-0.11,-0.88,-1.16
0.5465179681777954,3,3,3,3,-9.390000000000001,1.9,-1.44,-0.02,-0.91,-1.26
0.5465179681777954,3,3,3,3,-9.390000000000001,1.9,-1.44,-0.02,-0.91,-1.26
0.5665179491043091,3,3,3,3,-9.48,1.68,-1.57,0.22,-0.79,-1.31
0.5665179491043091,3,3,3,3,-9.48,1.68,-1.57,0.22,-0.79,-1.31
0.5865179300308228,3,3,3,3,-9.390000000000001,1.73,-1.53,0.7,-0.34,-1.38
0.5865179300308228,3,3,3,3,-9.390000000000001,1.73,-1.53,0.7,-0.34,-1.38
0.6065179109573364,3,3,3,3,-9.4,1.83,-1.44,0.72,-0.17,-1.4
0.6065179109573364,3,3,3,3,-9.4,1.83,-1.44,0.72,-0.17,-1.4
0.6265178918838501,3,3,3,3,-9.27,1.89,-1.65,0.09,0.37,-0.87
0.6265178918838501,3,3,3,3,-9.27,1.89,-1.65,0.09,0.37,-0.87
0.6465178728103638,3,3,3,3,-9.59,1.96,-1.52,0.09,0.75,-0.86
0.6465178728103638,3,3,3,3,-9.59,1.96,-1.52,0.09,0.75,-0.86
0.6665180921554565,3,3,3,3,-9.49,2.14,-1.53,-0.06,0.86,-0.73
0.6665180921554565,3,3,3,3,-9.49,2.14,-1.53,-0.06,0.86,-0.73
0.6865180730819702,3,3,3,3,-9.42,2.03,-1.56,-0.31,0.37,-0.36
0.6865180730819702,3,3,3,3,-9.42,2.03,-1.56,-0.31,0.37,-0.36
0.7065180540084839,3,3,3,3,-9.5,1.79,-1.49,-0.33,0.39,-0.28
0.7065180540084839,3,3,3,3,-9.5,1.79,-1.49,-0.33,0.39,-0.28
0.7265180349349976,3,3,3,3,-9.550000000000001,1.72,-1.68,-0.06,0.8100000000000001,-0.42
0.7265180349349976,3,3,3,3,-9.550000000000001,1.72,-1.68,-0.06,0.8100000000000001,-0.42
0.7465180158615112,3,3,3,3,-9.4,1.83,-1.38,-0.18,0.71,-0.41
0.7465180158615112,3,3,3,3,-9.4,1.83,-1.38,-0.18,0.71,-0.41
0.7665179967880249,3,3,3,3,-9.460000000000001,1.88,-1.46,-0.18,0.64,-0.28
0.7665179967880249,3,3,3,3,-9.460000000000001,1.88,-1.46,-0.18,0.64,-0.28
0.7865179777145386,3,3,3,3,-9.449999999999999,1.68,-1.57,-0.41,0.48,-0.21
0.7865179777145386,3,3,3,3,-9.449999999999999,1.68,-1.57,-0.41,0.48,-0.21
0.8065179586410522,3,3,3,3,-9.51,1.6,-1.55,-0.39,0.47,-0.12
0.8065179586410522,3,3,3,3,-9.51,1.6,-1.55,-0.39,0.47,-0.12
0.8265179395675659,3,3,3,3,-9.5,1.73,-1.48,-0.14,0.36,-0.18
0.8265179395675659,3,3,3,3,-9.5,1.73,-1.48,-0.14,0.36,-0.18
0.8465179204940796,3,3,3,3,-9.43,1.73,-1.55,-0.13,0.26,-0.16
0.8465179204940796,3,3,3,3,-9.43,1.73,-1.55,-0.13,0.26,-0.16
0.8665179014205933,3,3,3,3,-9.41,1.66,-1.57,-0.15,0.39,-0.14
0.8665179014205933,3,3,3,3,-9.41,1.66,-1.57,-0.15,0.39,-0.14
0.8865178823471069,3,3,3,3,-9.51,1.57,-1.55,-0.14,0.24,-0.01
0.8865178823471069,3,3,3,3,-9.51,1.57,-1.55,-0.14,0.24,-0.01
0.9065178632736206,3,3,3,3,-9.59,1.54,-1.59,-0.04,-0.04,0.02
0.9065178632736206,3,3,3,3,-9.59,1.54,-1.59,-0.04,-0.04,0.02
0.9265180826187134,3,3,3,3,-9.539999999999999,1.55,-1.54,0.35,-0.26,0.04
0.9265180826187134,3,3,3,3,-9.539999999999999,1.55,-1.54,0.35,-0.26,0.04
0.9465180635452271,3,3,3,3,-9.539999999999999,1.65,-1.47,0.53,-0.08,0.03
0.9465180635452271,3,3,3,3,-9.539999999999999,1.65,-1.47,0.53,-0.08,0.03
0.9665180444717407,3,3,3,3,-9.51,1.7,-1.59,0.3,-0.29,0.01
0.9665180444717407,3,3,3,3,-9.51,1.7,-1.59,0.3,-0.29,0.01
0.9865180253982544,3,3,3,3,-9.460000000000001,1.68,-1.56,0.14,-0.37,0
0.9865180253982544,3,3,3,3,-9.460000000000001,1.68,-1.56,0.14,-0.37,0
1.006518006324768,3,3,3,3,-9.51,1.66,-1.57,0,-0.46,-0.03
1.006518006324768,3,3,3,3,-9.51,1.66,-1.57,0,-0.46,-0.03
1.026517987251282,3,3,3,3,-9.51,1.63,-1.67,-0.07000000000000001,-0.29,0.02
1.026517987251282,3,3,3,3,-9.51,1.63,-1.67,-0.07000000000000001,-0.29,0.02
1.046517968177795,3,3,3,3,-9.5,1.66,-1.55,0.02,-0.19,0.03
1.046517968177795,3,3,3,3,-9.5,1.66,-1.55,0.02,-0.19,0.03
1.066517949104309,3,3,3,3,-9.52,1.75,-1.62,-0.03,-0.03,-0.12
1.066517949104309,3,3,3,3,-9.52,1.75,-1.62,-0.03,-0.03,-0.12
1.086517930030823,3,3,3,3,-9.460000000000001,1.73,-1.66,-0.15,0.11,-0.16
1.086517930030823,3,3,3,3,-9.460000000000001,1.73,-1.66,-0.15,0.11,-0.16
1.106517910957336,3,3,3,3,-9.4,1.83,-1.68,-0.09,0.17,-0.12
1.106517910957336,3,3,3,3,-9.4,1.83,-1.68,-0.09,0.17,-0.12
1.12651789188385,3,3,3,3,-9.449999999999999,1.89,-1.62,-0.1,0.19,-0.18
1.12651789188385,3,3,3,3,-9.449999999999999,1.89,-1.62,-0.1,0.19,-0.18
1.146517872810364,3,3,3,3,-9.51,1.88,-1.59,0.07000000000000001,0.22,-0.06
1.146517872810364,3,3,3,3,-9.51,1.88,-1.59,0.07000000000000001,0.22,-0.06
1.166518092155457,3,3,3,3,-9.5,1.62,-1.77,0.01,-0.07000000000000001,0.01
1.166518092155457,3,3,3,3,-9.5,1.62,-1.77,0.01,-0.07000000000000001,0.01
1.18651807308197,3,3,3,3,-9.5,1.57,-1.57,0.05,-0.07000000000000001,0.11
1.18651807308197,3,3,3,3,-9.5,1.57,-1.57,0.05,-0.07000000000000001,0.11
1.206518054008484,3,3,3,3,-9.52,1.61,-1.53,0.29,0.05,0.05
1.206518054008484,3,3,3,3,-9.52,1.61,-1.53,0.29,0.05,0.05
1.22751796245575,3,3,3,3,-9.52,1.62,-1.5,0.28,0.1,0.06
1.22751796245575,3,3,3,3,-9.52,1.62,-1.5,0.28,0.1,0.06
1.247517943382263,3,3,3,3,-9.529999999999999,1.67,-1.53,0.17,0.03,0.03
1.247517943382263,3,3,3,3,-9.529999999999999,1.67,-1.53,0.17,0.03,0.03
1.267517924308777,3,3,3,3,-9.470000000000001,1.65,-1.67,0.12,-0.14,-0.07000000000000001
1.267517924308777,3,3,3,3,-9.470000000000001,1.65,-1.67,0.12,-0.14,-0.07000000000000001
1.287517905235291,3,3,3,3,-9.5,1.73,-1.63,-0.06,-0.12,-0.08
1.287517905235291,3,3,3,3,-9.5,1.73,-1.63,-0.06,-0.12,-0.08
1.307517886161804,3,3,3,3,-9.43,1.77,-1.51,-0.13,-0.02,-0.13
1.307517886161804,3,3,3,3,-9.43,1.77,-1.51,-0.13,-0.02,-0.13
1.327517867088318,3,3,3,3,-9.470000000000001,1.82,-1.66,-0.02,0.27,-0.13
1.327517867088318,3,3,3,3,-9.470000000000001,1.82,-1.66,-0.02,0.27,-0.13
1.347518086433411,3,3,3,3,-9.49,1.71,-1.56,-0.18,0.11,-0.1
1.347518086433411,3,3,3,3,-9.49,1.71,-1.56,-0.18,0.11,-0.1
1.367518067359924,3,3,3,3,-9.550000000000001,1.53,-1.72,-0.08,-0.06,-0.06
1.367518067359924,3,3,3,3,-9.550000000000001,1.53,-1.72,-0.08,-0.06,-0.06
1.387518048286438,3,3,3,3,-9.51,1.64,-1.46,-0.01,-0.09,-0.09
1.387518048286438,3,3,3,3,-9.51,1.64,-1.46,-0.01,-0.09,-0.09
1.407518029212952,3,3,3,3,-9.51,1.83,-1.49,0.25,0.14,-0.19
1.407518029212952,3,3,3,3,-9.51,1.83,-1.49,0.25,0.14,-0.19
1.427518010139465,3,3,3,3,-9.48,1.72,-1.59,0.17,0.01,-0.14
1.427518010139465,3,3,3,3,-9.48,1.72,-1.59,0.17,0.01,-0.14
1.447517991065979,3,3,3,3,-9.51,1.75,-1.57,0.07000000000000001,-0.11,-0.13
1.447517991065979,3,3,3,3,-9.51,1.75,-1.57,0.07000000000000001,-0.11,-0.13
1.467517971992493,3,3,3,3,-9.539999999999999,1.7,-1.59,0.08,-0.09,-0.2
1.467517971992493,3,3,3,3,-9.539999999999999,1.7,-1.59,0.08,-0.09,-0.2
1.487517952919006,3,3,3,3,-9.52,1.75,-1.55,0.01,-0.06,-0.16
1.487517952919006,3,3,3,3,-9.52,1.75,-1.55,0.01,-0.06,-0.16
1.50751793384552,3,3,3,3,-9.539999999999999,1.78,-1.49,-0.22,-0.06,-0.29
1.50751793384552,3,3,3,3,-9.539999999999999,1.78,-1.49,-0.22,-0.06,-0.29
1.527517914772034,3,3,3,3,-9.52,1.78,-1.55,-0.06,0.05,-0.42
1.527517914772034,3,3,3,3,-9.52,1.78,-1.55,-0.06,0.05,-0.42
1.547517895698547,3,3,3,3,-9.49,1.84,-1.52,-0.07000000000000001,0.2,-0.48
1.547517895698547,3,3,3,3,-9.49,1.84,-1.52,-0.07000000000000001,0.2,-0.48
1.567517876625061,3,3,3,3,-9.43,1.93,-1.72,-0.11,0.14,-0.55
1.567517876625061,3,3,3,3,-9.43,1.93,-1.72,-0.11,0.14,-0.55
1.587517857551575,3,3,3,3,-9.449999999999999,1.8,-1.72,-0.03,-0.01,-0.48
1.587517857551575,3,3,3,3,-9.449999999999999,1.8,-1.72,-0.03,-0.01,-0.48
1.607518076896667,3,3,3,3,-9.51,1.82,-1.67,0.07000000000000001,-0.09,-0.61
1.607518076896667,3,3,3,3,-9.51,1.82,-1.67,0.07000000000000001,-0.09,-0.61
1.627518057823181,3,3,3,3,-9.539999999999999,1.79,-1.7,0.26,0.03,-0.7
1.627518057823181,3,3,3,3,-9.539999999999999,1.79,-1.7,0.26,0.03,-0.7
1.647518038749695,3,3,3,3,-9.57,1.77,-1.63,0.31,-0.11,-0.75
1.647518038749695,3,3,3,3,-9.57,1.77,-1.63,0.31,-0.11,-0.75
1.667518019676208,3,3,3,3,-9.470000000000001,1.62,-1.75,0.33,-0.25,-0.74
1.667518019676208,3,3,3,3,-9.470000000000001,1.62,-1.75,0.33,-0.25,-0.74
1.687518000602722,3,3,3,3,-9.49,1.54,-1.67,0.53,-0.36,-0.86
1.687518000602722,3,3,3,3,-9.49,1.54,-1.67,0.53,-0.36,-0.86
1.707517981529236,3,3,3,3,-9.51,1.67,-1.56,0.99,-0.51,-0.96
1.707517981529236,3,3,3,3,-9.51,1.67,-1.56,0.99,-0.51,-0.96
1.72751796245575,3,3,3,3,-9.460000000000001,1.8,-1.53,1.13,-0.51,-1.26
1.72751796245575,3,3,3,3,-9.460000000000001,1.8,-1.53,1.13,-0.51,-1.26
1.747517943382263,3,3,3,3,-9.369999999999999,2.25,-1.39,1.09,-0.3,-1.79
1.747517943382263,3,3,3,3,-9.369999999999999,2.25,-1.39,1.09,-0.3,-1.79
1.767517924308777,3,3,3,3,-9.41,2.39,-1.64,0.4,-0.12,-2.34
1.767517924308777,3,3,3,3,-9.41,2.39,-1.64,0.4,-0.12,-2.34
1.787517905235291,3,3,3,3,-9.43,2.56,-1.69,-0.55,-0.13,-2.96
1.787517905235291,3,3,3,3,-9.43,2.56,-1.69,-0.55,-0.13,-2.96
1.807517886161804,3,3,3,3,-9.42,2.58,-1.67,-1.23,-0.11,-3.68
1.807517886161804,3,3,3,3,-9.42,2.58,-1.67,-1.23,-0.11,-3.68
1.827517867088318,3,3,3,3,-9.449999999999999,2.48,-1.65,-1.72,0.01,-3.94
1.827517867088318,3,3,3,3,-9.449999999999999,2.48,-1.65,-1.72,0.01,-3.94
1.847518086433411,3,3,3,3,-9.539999999999999,2.45,-1.65,-2,0.03,-3.92
1.847518086433411,3,3,3,3,-9.539999999999999,2.45,-1.65,-2,0.03,-3.92
1.867518067359924,3,3,3,3,-9.57,1.99,-1.88,-2.5,0.23,-3.85
1.867518067359924,3,3,3,3,-9.57,1.99,-1.88,-2.5,0.23,-3.85
1.887518048286438,3,3,3,3,-9.539999999999999,1.7,-1.84,-2.41,0.76,-3.74
1.887518048286438,3,3,3,3,-9.539999999999999,1.7,-1.84,-2.41,0.76,-3.74
1.907518029212952,3,3,3,3,-9.35,1.51,-1.83,-2.1,0.8100000000000001,-3.31
1.907518029212952,3,3,3,3,-9.35,1.51,-1.83,-2.1,0.8100000000000001,-3.31
1.927518010139465,3,3,3,3,-9.27,1.13,-1.83,-1.69,0.83,-2.64
1.927518010139465,3,3,3,3,-9.27,1.13,-1.83,-1.69,0.83,-2.64
1.947517991065979,3,3,3,3,-9.460000000000001,0.16,-1.83,-0.9399999999999999,1.3,-2.01
1.947517991065979,3,3,3,3,-9.460000000000001,0.16,-1.83,-0.9399999999999999,1.3,-2.01
1.967517971992493,3,3,3,3,-9.609999999999999,-0.55,-1.84,0.21,0.79,-1.45
1.967517971992493,3,3,3,3,-9.609999999999999,-0.55,-1.84,0.21,0.79,-1.45
1.987517952919006,3,3,3,3,-9.960000000000001,-0.92,-1.54,1.56,-0.05,-1.16
1.987517952919006,3,3,3,3,-9.960000000000001,-0.92,-1.54,1.56,-0.05,-1.16
2.00751793384552,3,3,3,3,-9.880000000000001,-0.68,-1.02,1.82,-0.04,-1.41
2.00751793384552,3,3,3,3,-9.880000000000001,-0.68,-1.02,1.82,-0.04,-1.41
2.027517914772034,3,3,3,3,-9.51,-0.16,-1.18,1.67,-0.03,-1.59
2.027517914772034,3,3,3,3,-9.51,-0.16,-1.18,1.67,-0.03,-1.59
2.047517895698547,3,3,3,3,-9.52,0.11,-1.42,1.33,-0.1,-1.58
2.047517895698547,3,3,3,3,-9.52,0.11,-1.42,1.33,-0.1,-1.58
2.067517876625061,3,3,3,3,-9.619999999999999,-0.06,-1.63,1.21,-0.27,-1.36
2.067517876625061,3,3,3,3,-9.619999999999999,-0.06,-1.63,1.21,-0.27,-1.36
2.087517857551575,3,3,3,3,-9.56,-0.18,-1.5,1.19,-0.52,-1.23
2.087517857551575,3,3,3,3,-9.56,-0.18,-1.5,1.19,-0.52,-1.23
2.107518076896667,3,3,3,2,-9.630000000000001,-0.03,-1.29,1.44,-0.58,-0.79
2.107518076896667,3,3,3,2,-9.630000000000001,-0.03,-1.29,1.44,-0.58,-0.79
2.127518057823181,3,3,3,2,-9.800000000000001,-0.23,-1.37,1.59,-0.65,-0.63
2.127518057823181,3,3,3,2,-9.800000000000001,-0.23,-1.37,1.59,-0.65,-0.63
2.147518038749695,3,3,3,2,-9.699999999999999,0.1,-1.34,1.6,-0.73,-0.63
2.147518038749695,3,3,3,2,-9.699999999999999,0.1,-1.34,1.6,-0.73,-0.63
2.167518019676208,3,3,3,2,-9.789999999999999,0.31,-1.52,1.51,-0.84,-0.61
2.167518019676208,3,3,3,2,-9.789999999999999,0.31,-1.52,1.51,-0.84,-0.61
2.187518000602722,3,3,3,2,-9.75,0.16,-1.6,0.96,-0.6,-0.7
2.187518000602722,3,3,3,2,-9.75,0.16,-1.6,0.96,-0.6,-0.7
2.207517981529236,3,3,3,2,-9.640000000000001,0.03,-1.28,0.8100000000000001,-0.43,-0.71
2.207517981529236,3,3,3,2,-9.640000000000001,0.03,-1.28,0.8100000000000001,-0.43,-0.71
2.22751796245575,3,3,3,2,-9.81,0.06,-1.43,0.87,-0.43,-0.55
2.22751796245575,3,3,3,2,-9.81,0.06,-1.43,0.87,-0.43,-0.55
2.248517870903015,3,3,3,2,-9.66,0.23,-1.39,0.51,-0.46,-0.49
2.248517870903015,3,3,3,2,-9.66,0.23,-1.39,0.51,-0.46,-0.49
2.268518090248108,3,3,3,2,-9.66,0.16,-1.61,0.16,-0.14,-0.37
2.268518090248108,3,3,3,2,-9.66,0.16,-1.61,0.16,-0.14,-0.37
2.288518071174622,3,3,3,2,-9.710000000000001,0.02,-1.6,0,-0.07000000000000001,-0.24
2.288518071174622,3,3,3,2,-9.710000000000001,0.02,-1.6,0,-0.07000000000000001,-0.24
2.308518052101135,3,3,3,2,-9.65,-0.01,-1.44,0.18,-0.12,-0.06
2.308518052101135,3,3,3,2,-9.65,-0.01,-1.44,0.18,-0.12,-0.06
2.328518033027649,3,3,3,2,-9.779999999999999,-0.03,-1.43,0.79,-0.17,0.23
2.328518033027649,3,3,3,2,-9.779999999999999,-0.03,-1.43,0.79,-0.17,0.23
2.348518013954163,3,3,3,2,-9.779999999999999,0.2,-1.45,1.07,-0.34,0.21
2.348518013954163,3,3,3,2,-9.779999999999999,0.2,-1.45,1.07,-0.34,0.21
2.368517994880676,3,3,3,2,-9.75,0.34,-1.67,1.09,-0.28,0.06
2.368517994880676,3,3,3,2,-9.75,0.34,-1.67,1.09,-0.28,0.06
2.38851797580719,3,3,3,2,-9.609999999999999,0.41,-1.48,0.55,-0.42,-0.01
2.38851797580719,3,3,3,2,-9.609999999999999,0.41,-1.48,0.55,-0.42,-0.01
2.408517956733704,3,3,3,2,-9.640000000000001,0.3,-1.31,0.53,-0.26,-0.03
2.408517956733704,3,3,3,2,-9.640000000000001,0.3,-1.31,0.53,-0.26,-0.03
2.428517937660217,3,3,3,2,-9.710000000000001,0.19,-1.32,0.34,-0.23,0.1
2.428517937660217,3,3,3,2,-9.710000000000001,0.19,-1.32,0.34,-0.23,0.1
2.448517918586731,3,3,3,2,-9.699999999999999,0.3,-1.45,0.19,-0.06,0.03
2.448517918586731,3,3,3,2,-9.699999999999999,0.3,-1.45,0.19,-0.06,0.03
2.468517899513245,3,3,3,2,-9.630000000000001,0.49,-1.64,-0.08,0.06,0.04
2.468517899513245,3,3,3,2,-9.630000000000001,0.49,-1.64,-0.08,0.06,0.04
2.488517880439758,3,3,3,2,-9.529999999999999,0.63,-1.47,0.04,-0.06,0.26
2.488517880439758,3,3,3,2,-9.529999999999999,0.63,-1.47,0.04,-0.06,0.26
2.508517861366272,3,3,3,2,-9.51,0.73,-1.51,0.31,0.01,0.61
2.508517861366272,3,3,3,2,-9.51,0.73,-1.51,0.31,0.01,0.61
2.528518080711365,3,3,3,2,-9.65,0.37,-1.44,0.43,0.03,0.89
2.528518080711365,3,3,3,2,-9.65,0.37,-1.44,0.43,0.03,0.89
2.548518061637878,3,3,3,2,-9.710000000000001,0.21,-1.38,0.61,0.08,0.9
2.548518061637878,3,3,3,2,-9.710000000000001,0.21,-1.38,0.61,0.08,0.9
2.568518042564392,3,3,3,2,-9.67,0.42,-1.47,0.82,0.29,0.87
2.568518042564392,3,3,3,2,-9.67,0.42,-1.47,0.82,0.29,0.87
2.588518023490906,3,3,3,2,-9.69,0.47,-1.48,0.61,0.27,1.06
2.588518023490906,3,3,3,2,-9.69,0.47,-1.48,0.61,0.27,1.06
2.608518004417419,3,3,3,2,-9.779999999999999,0.58,-1.51,0.47,0.2,1.01
2.608518004417419,3,3,3,2,-9.779999999999999,0.58,-1.51,0.47,0.2,1.01
2.628517985343933,3,3,3,2,-9.73,0.55,-1.44,-0.16,0.03,0.61
2.628517985343933,3,3,3,2,-9.73,0.55,-1.44,-0.16,0.03,0.61
2.648517966270447,3,3,3,2,-9.539999999999999,0.49,-1.24,-0.29,0.04,0.61
2.648517966270447,3,3,3,2,-9.539999999999999,0.49,-1.24,-0.29,0.04,0.61
2.66851794719696,3,3,3,2,-9.58,0.53,-1.3,-0.6,0.25,0.9399999999999999
2.66851794719696,3,3,3,2,-9.58,0.53,-1.3,-0.6,0.25,0.9399999999999999
2.688517928123474,3,3,3,2,-9.390000000000001,-0.03,-1.52,-1.14,0.31,1.35
2.688517928123474,3,3,3,2,-9.390000000000001,-0.03,-1.52,-1.14,0.31,1.35
2.708517909049988,3,3,3,2,-9.81,-0.02,-1.39,-0.8100000000000001,0.84,1.36
2.708517909049988,3,3,3,2,-9.81,-0.02,-1.39,-0.8100000000000001,0.84,1.36
2.728517889976501,3,3,3,2,-9.99,0.07000000000000001,-1.5,-0.31,0.22,0.97
2.728517889976501,3,3,3,2,-9.99,0.07000000000000001,-1.5,-0.31,0.22,0.97
2.748517870903015,3,3,3,2,-9.94,0.44,-1.35,0.46,-0.52,0.83
2.748517870903015,3,3,3,2,-9.94,0.44,-1.35,0.46,-0.52,0.83
2.768518090248108,3,3,3,2,-9.710000000000001,0.99,-1.49,0.59,-0.74,0.72
2.768518090248108,3,3,3,2,-9.710000000000001,0.99,-1.49,0.59,-0.74,0.72
2.788518071174622,3,3,3,2,-9.67,1.2,-1.45,0.07000000000000001,-0.32,0.51
2.788518071174622,3,3,3,2,-9.67,1.2,-1.45,0.07000000000000001,-0.32,0.51
2.808518052101135,3,3,3,2,-9.609999999999999,1.05,-1.43,-0.7,-0.28,0.39
2.808518052101135,3,3,3,2,-9.609999999999999,1.05,-1.43,-0.7,-0.28,0.39
2.828518033027649,3,3,3,2,-9.550000000000001,0.73,-1.25,-1.34,-0.17,0.37
2.828518033027649,3,3,3,2,-9.550000000000001,0.73,-1.25,-1.34,-0.17,0.37
2.848518013954163,3,3,3,2,-9.65,0.5600000000000001,-1.43,-1.51,0.13,0.37
2.848518013954163,3,3,3,2,-9.65,0.5600000000000001,-1.43,-1.51,0.13,0.37
2.868517994880676,3,3,3,2,-9.960000000000001,0.55,-1.56,-1.9,0.52,0.3
2.868517994880676,3,3,3,2,-9.960000000000001,0.55,-1.56,-1.9,0.52,0.3
2.88851797580719,3,3,3,2,-9.710000000000001,0.4,-1.32,-1.77,0.23,0.01
2.88851797580719,3,3,3,2,-9.710000000000001,0.4,-1.32,-1.77,0.23,0.01
2.909517884254456,3,3,3,2,-9.58,0.36,-1.23,-1.59,0.24,0.21
2.909517884254456,3,3,3,2,-9.58,0.36,-1.23,-1.59,0.24,0.21
2.928517937660217,3,3,3,2,-9.9,0.09,-1.38,-1.24,0.1,0.26
2.928517937660217,3,3,3,2,-9.9,0.09,-1.38,-1.24,0.1,0.26
2.948517918586731,3,3,3,2,-10.08,0.1,-1.51,-0.68,-0.23,-0.16
2.948517918586731,3,3,3,2,-10.08,0.1,-1.51,-0.68,-0.23,-0.16
2.968517899513245,3,3,3,2,-9.73,0.45,-1.42,-0.09,-0.68,-0.92
2.968517899513245,3,3,3,2,-9.73,0.45,-1.42,-0.09,-0.68,-0.92
2.988517880439758,3,3,3,2,-9.699999999999999,0.65,-1.57,0.31,-0.61,-0.91
2.988517880439758,3,3,3,2,-9.699999999999999,0.65,-1.57,0.31,-0.61,-0.91
3.008517861366272,3,3,3,2,-9.949999999999999,1.08,-1.31,-0.48,-0.6899999999999999,-1.77
3.008517861366272,3,3,3,2,-9.949999999999999,1.08,-1.31,-0.48,-0.6899999999999999,-1.77
3.028518080711365,3,3,3,2,-9.35,1.16,-1.2,-1.72,-0.37,-2.09
3.028518080711365,3,3,3,2,-9.35,1.16,-1.2,-1.72,-0.37,-2.09
3.048518061637878,3,3,3,2,-9.359999999999999,0.55,-1.53,-3.14,-0.18,-1.46
3.048518061637878,3,3,3,2,-9.359999999999999,0.55,-1.53,-3.14,-0.18,-1.46
3.068518042564392,3,3,3,2,-9.58,0.73,-1.32,-3.61,0.52,-1.23
3.068518042564392,3,3,3,2,-9.58,0.73,-1.32,-3.61,0.52,-1.23
3.088518023490906,3,3,3,2,-9.279999999999999,0.97,-1.36,-3.74,0.55,-0.59
3.088518023490906,3,3,3,2,-9.279999999999999,0.97,-1.36,-3.74,0.55,-0.59
3.108518004417419,3,3,3,2,-9.6,0.65,-1.73,-2.53,0.64,0.06
3.108518004417419,3,3,3,2,-9.6,0.65,-1.73,-2.53,0.64,0.06
3.128517985343933,3,3,3,2,-9.550000000000001,0.61,-1.38,-2.51,0.4,0.52
3.128517985343933,3,3,3,2,-9.550000000000001,0.61,-1.38,-2.51,0.4,0.52
3.148517966270447,3,3,3,2,-9.630000000000001,0.36,-1.3,-1.25,0.45,0.93
3.148517966270447,3,3,3,2,-9.630000000000001,0.36,-1.3,-1.25,0.45,0.93
3.16851794719696,3,3,3,2,-9.789999999999999,0.32,-1.34,-0.23,0.46,1.06
3.16851794719696,3,3,3,2,-9.789999999999999,0.32,-1.34,-0.23,0.46,1.06
3.188517928123474,3,3,3,2,-9.66,0.23,-1.18,-0.01,0.11,1.08
3.188517928123474,3,3,3,2,-9.66,0.23,-1.18,-0.01,0.11,1.08
3.208517909049988,3,3,3,2,-9.56,0.41,-1.36,0.22,0.38,0.99
3.208517909049988,3,3,3,2,-9.56,0.41,-1.36,0.22,0.38,0.99
3.228517889976501,3,3,3,2,-9.66,0.8,-1.4,0.52,0.7,1.02
3.228517889976501,3,3,3,2,-9.66,0.8,-1.4,0.52,0.7,1.02
3.248517870903015,3,3,3,2,-9.630000000000001,1.08,-1.45,0.63,0.55,1
3.248517870903015,3,3,3,2,-9.630000000000001,1.08,-1.45,0.63,0.55,1
3.26951801776886,3,3,3,2,-9.619999999999999,1.08,-1.7,0.42,0.26,1.25
3.26951801776886,3,3,3,2,-9.619999999999999,1.08,-1.7,0.42,0.26,1.25
3.289517998695374,3,3,3,2,-9.59,1.06,-1.57,0.19,0.47,1.24
3.289517998695374,3,3,3,2,-9.59,1.06,-1.57,0.19,0.47,1.24
3.309517979621887,3,3,3,2,-9.619999999999999,0.91,-1.58,0.31,0.4,1.22
3.309517979621887,3,3,3,2,-9.619999999999999,0.91,-1.58,0.31,0.4,1.22
3.329517960548401,3,3,3,2,-9.59,0.92,-1.6,0.31,0.26,1.27
3.329517960548401,3,3,3,2,-9.59,0.92,-1.6,0.31,0.26,1.27
3.349517941474915,3,3,3,2,-9.58,0.79,-1.56,0.45,0.22,1.29
3.349517941474915,3,3,3,2,-9.58,0.79,-1.56,0.45,0.22,1.29
3.369517922401428,3,3,3,2,-9.58,0.88,-1.72,0.86,0.49,1.35
3.369517922401428,3,3,3,2,-9.58,0.88,-1.72,0.86,0.49,1.35
3.389517903327942,3,3,3,2,-9.6,0.87,-1.6,1.39,0.18,1.52
3.389517903327942,3,3,3,2,-9.6,0.87,-1.6,1.39,0.18,1.52
3.409517884254456,3,3,3,2,-9.66,0.9399999999999999,-1.62,1.76,0.08,1.67
3.409517884254456,3,3,3,2,-9.66,0.9399999999999999,-1.62,1.76,0.08,1.67
3.429517865180969,3,3,3,2,-9.6,1.2,-1.57,2.01,-0.01,1.7
3.429517865180969,3,3,3,2,-9.6,1.2,-1.57,2.01,-0.01,1.7
3.449518084526062,3,3,3,2,-9.609999999999999,1.22,-1.55,1.74,0.1,1.61
3.449518084526062,3,3,3,2,-9.609999999999999,1.22,-1.55,1.74,0.1,1.61
3.469518065452576,3,3,3,2,-9.56,1.22,-1.77,1.43,0.05,1.57
3.469518065452576,3,3,3,2,-9.56,1.22,-1.77,1.43,0.05,1.57
3.489518046379089,3,3,3,2,-9.539999999999999,1.25,-1.66,1.27,0.04,1.56
3.489518046379089,3,3,3,2,-9.539999999999999,1.25,-1.66,1.27,0.04,1.56
3.509518027305603,3,3,3,2,-9.59,1.13,-1.55,1.25,-0.18,1.49
3.509518027305603,3,3,3,2,-9.59,1.13,-1.55,1.25,-0.18,1.49
3.529518008232117,3,3,3,2,-9.66,1.11,-1.49,1.33,-0.07000000000000001,1.43
3.529518008232117,3,3,3,2,-9.66,1.11,-1.49,1.33,-0.07000000000000001,1.43
3.54951798915863,3,3,3,2,-9.619999999999999,1.06,-1.45,1.05,-0.08,1.39
3.54951798915863,3,3,3,2,-9.619999999999999,1.06,-1.45,1.05,-0.08,1.39
3.569517970085144,3,3,3,2,-9.57,1.11,-1.56,0.83,-0.12,1.15
3.569517970085144,3,3,3,2,-9.57,1.11,-1.56,0.83,-0.12,1.15
3.589517951011658,3,3,3,2,-9.56,1.3,-1.57,0.78,-0.03,0.91
3.589517951011658,3,3,3,2,-9.56,1.3,-1.57,0.78,-0.03,0.91
3.609517931938171,3,3,3,2,-9.58,1.36,-1.5,0.57,0.09,0.78
3.609517931938171,3,3,3,2,-9.58,1.36,-1.5,0.57,0.09,0.78
3.629517912864685,3,3,3,2,-9.58,1.34,-1.54,0.2,0.01,0.59
3.629517912864685,3,3,3,2,-9.58,1.34,-1.54,0.2,0.01,0.59
3.649517893791199,3,3,3,2,-9.640000000000001,1.43,-1.54,-0.04,0.01,0.47
3.649517893791199,3,3,3,2,-9.640000000000001,1.43,-1.54,-0.04,0.01,0.47
3.669517874717712,3,3,3,2,-9.619999999999999,1.31,-1.59,-0.02,0.22,0.46
3.669517874717712,3,3,3,2,-9.619999999999999,1.31,-1.59,-0.02,0.22,0.46
3.689518094062805,3,3,3,2,-9.550000000000001,1.31,-1.52,-0.02,0.14,0.39
3.689518094062805,3,3,3,2,-9.550000000000001,1.31,-1.52,-0.02,0.14,0.39
3.709518074989319,3,3,3,2,-9.529999999999999,1.18,-1.4,0.1,0.14,0.27
3.709518074989319,3,3,3,2,-9.529999999999999,1.18,-1.4,0.1,0.14,0.27
3.729518055915833,3,3,3,2,-9.539999999999999,1.16,-1.44,0.12,0.05,0.23
3.729518055915833,3,3,3,2,-9.539999999999999,1.16,-1.44,0.12,0.05,0.23
3.749518036842346,3,3,3,2,-9.59,1.37,-1.44,0.17,0.15,0.15
3.749518036842346,3,3,3,2,-9.59,1.37,-1.44,0.17,0.15,0.15
3.76951801776886,3,3,3,2,-9.59,1.44,-1.66,0.07000000000000001,0.16,0.1
3.76951801776886,3,3,3,2,-9.59,1.44,-1.66,0.07000000000000001,0.16,0.1
3.789517998695374,3,3,3,2,-9.529999999999999,1.5,-1.59,-0.18,0.12,0.1
3.789517998695374,3,3,3,2,-9.529999999999999,1.5,-1.59,-0.18,0.12,0.1
3.809517979621887,3,3,3,2,-9.58,1.49,-1.66,-0.34,0.17,0.09
3.809517979621887,3,3,3,2,-9.58,1.49,-1.66,-0.34,0.17,0.09
3.829517960548401,3,3,3,2,-9.550000000000001,1.35,-1.6,-0.52,0.26,0.12
3.829517960548401,3,3,3,2,-9.550000000000001,1.35,-1.6,-0.52,0.26,0.12
3.849517941474915,3,3,3,2,-9.57,1.23,-1.48,-0.45,0.29,0.12
3.849517941474915,3,3,3,2,-9.57,1.23,-1.48,-0.45,0.29,0.12
3.869517922401428,3,3,3,2,-9.59,1.24,-1.59,-0.47,0.23,0.06
3.869517922401428,3,3,3,2,-9.59,1.24,-1.59,-0.47,0.23,0.06
3.889517903327942,3,3,3,2,-9.59,1.16,-1.52,-0.31,0.1,0.05
3.889517903327942,3,3,3,2,-9.59,1.16,-1.52,-0.31,0.1,0.05
3.909517884254456,3,3,3,2,-9.550000000000001,1.12,-1.6,-0.11,0.21,0.11
3.909517884254456,3,3,3,2,-9.550000000000001,1.12,-1.6,-0.11,0.21,0.11
3.929517865180969,3,3,3,2,-9.58,1.35,-1.62,0.11,0.3,0.2
3.929517865180969,3,3,3,2,-9.58,1.35,-1.62,0.11,0.3,0.2
3.949518084526062,3,3,3,2,-9.56,1.44,-1.56,0.21,0.2,0.19
3.949518084526062,3,3,3,2,-9.56,1.44,-1.56,0.21,0.2,0.19
3.969518065452576,3,3,3,2,-9.59,1.34,-1.7,-0.02,0.12,0.18
3.969518065452576,3,3,3,2,-9.59,1.34,-1.7,-0.02,0.12,0.18
3.989518046379089,3,3,3,2,-9.58,1.23,-1.59,-0.23,0.15,0.12
3.989518046379089,3,3,3,2,-9.58,1.23,-1.59,-0.23,0.15,0.12
4.009518027305603,3,3,3,2,-9.619999999999999,1.25,-1.6,-0.35,0.29,0.1
4.009518027305603,3,3,3,2,-9.619999999999999,1.25,-1.6,-0.35,0.29,0.1
4.029518008232117,3,3,3,2,-9.57,1.08,-1.62,-0.48,0.19,0.05
4.029518008232117,3,3,3,2,-9.57,1.08,-1.62,-0.48,0.19,0.05
4.04951798915863,3,3,3,2,-9.58,0.92,-1.53,-0.28,0.17,0.08
4.04951798915863,3,3,3,2,-9.58,0.92,-1.53,-0.28,0.17,0.08
4.069517970085144,3,3,3,2,-9.6,1.09,-1.73,-0.11,0.32,0.1
4.069517970085144,3,3,3,2,-9.6,1.09,-1.73,-0.11,0.32,0.1
4.089517951011658,3,3,3,2,-9.6,1.21,-1.66,0.02,0.17,0.09
4.089517951011658,3,3,3,2,-9.6,1.21,-1.66,0.02,0.17,0.09
4.109517931938171,3,3,3,2,-9.529999999999999,1.15,-1.61,0,-0.05,0.15
4.109517931938171,3,3,3,2,-9.529999999999999,1.15,-1.61,0,-0.05,0.15
4.129517912864685,3,3,3,2,-9.58,1.12,-1.68,-0.02,0.07000000000000001,0.12
4.129517912864685,3,3,3,2,-9.58,1.12,-1.68,-0.02,0.07000000000000001,0.12
4.149517893791199,3,3,3,2,-9.58,1.07,-1.59,-0.04,0.21,0.12
4.149517893791199,3,3,3,2,-9.58,1.07,-1.59,-0.04,0.21,0.12
4.169517874717712,3,3,3,2,-9.57,1.15,-1.65,0.01,0.31,0.02
4.169517874717712,3,3,3,2,-9.57,1.15,-1.65,0.01,0.31,0.02
4.189518094062805,3,3,3,2,-9.609999999999999,1.14,-1.6,-0.26,0.13,0.01
4.189518094062805,3,3,3,2,-9.609999999999999,1.14,-1.6,-0.26,0.13,0.01
4.209518074989319,3,3,3,2,-9.539999999999999,1.09,-1.58,-0.23,-0.03,-0.01
4.209518074989319,3,3,3,2,-9.539999999999999,1.09,-1.58,-0.23,-0.03,-0.01
4.229518055915833,3,3,3,2,-9.58,1.25,-1.75,0.08,0.12,0.03
4.229518055915833,3,3,3,2,-9.58,1.25,-1.75,0.08,0.12,0.03
4.249518036842346,3,3,3,2,-9.51,1.32,-1.66,0.07000000000000001,0.09,0.12
4.249518036842346,3,3,3,2,-9.51,1.32,-1.66,0.07000000000000001,0.09,0.12
4.26951801776886,3,3,3,2,-9.57,1.25,-1.73,-0.01,0.04,0.11
4.26951801776886,3,3,3,2,-9.57,1.25,-1.73,-0.01,0.04,0.11
4.289517998695374,3,3,3,2,-9.6,1.22,-1.67,-0.01,0.11,0.1
4.289517998695374,3,3,3,2,-9.6,1.22,-1.67,-0.01,0.11,0.1
4.310517907142639,3,3,3,2,-9.529999999999999,1.25,-1.59,0.01,0.17,0.04
4.310517907142639,3,3,3,2,-9.529999999999999,1.25,-1.59,0.01,0.17,0.04
4.330517888069153,3,3,3,2,-9.56,1.2,-1.69,-0.08,0.05,0.1
4.330517888069153,3,3,3,2,-9.56,1.2,-1.69,-0.08,0.05,0.1
4.350517868995667,3,3,3,2,-9.56,1.16,-1.61,-0.09,0.03,0.07000000000000001
4.350517868995667,3,3,3,2,-9.56,1.16,-1.61,-0.09,0.03,0.07000000000000001
4.370518088340759,3,3,3,2,-9.56,1.14,-1.76,-0.11,-0.06,0.08
4.370518088340759,3,3,3,2,-9.56,1.14,-1.76,-0.11,-0.06,0.08
4.390518069267273,3,3,3,2,-9.56,1.13,-1.62,0.07000000000000001,0.14,0.05
4.390518069267273,3,3,3,2,-9.56,1.13,-1.62,0.07000000000000001,0.14,0.05
4.410518050193787,3,3,3,2,-9.59,1.12,-1.61,0.07000000000000001,0.04,0.07000000000000001
4.410518050193787,3,3,3,2,-9.59,1.12,-1.61,0.07000000000000001,0.04,0.07000000000000001
4.4305180311203,3,3,3,2,-9.58,1.16,-1.64,0.06,0.06,0.09
4.4305180311203,3,3,3,2,-9.58,1.16,-1.64,0.06,0.06,0.09
4.450518012046814,3,3,3,2,-9.529999999999999,1.16,-1.59,0.01,-0.09,0.1
4.450518012046814,3,3,3,2,-9.529999999999999,1.16,-1.59,0.01,-0.09,0.1
4.470517992973328,3,3,3,2,-9.550000000000001,1.17,-1.74,0.07000000000000001,-0.08,0.12
4.470517992973328,3,3,3,2,-9.550000000000001,1.17,-1.74,0.07000000000000001,-0.08,0.12
4.490517973899841,3,3,3,2,-9.6,1.13,-1.65,0.15,0.04,0.07000000000000001
4.490517973899841,3,3,3,2,-9.6,1.13,-1.65,0.15,0.04,0.07000000000000001
4.510517954826355,3,3,3,2,-9.529999999999999,1.25,-1.65,0.21,0.01,0.13
4.510517954826355,3,3,3,2,-9.529999999999999,1.25,-1.65,0.21,0.01,0.13
4.530517935752869,3,3,3,2,-9.57,1.24,-1.7,0.21,-0.01,0.09
4.530517935752869,3,3,3,2,-9.57,1.24,-1.7,0.21,-0.01,0.09
4.550517916679382,3,3,3,2,-9.6,1.29,-1.67,0.18,-0.1,0.11
4.550517916679382,3,3,3,2,-9.6,1.29,-1.67,0.18,-0.1,0.11
4.570517897605896,3,3,3,2,-9.58,1.23,-1.78,0.24,-0.1,0.07000000000000001
4.570517897605896,3,3,3,2,-9.58,1.23,-1.78,0.24,-0.1,0.07000000000000001
4.59051787853241,3,3,3,2,-9.58,1.25,-1.66,0.22,-0.07000000000000001,0.16
4.59051787853241,3,3,3,2,-9.58,1.25,-1.66,0.22,-0.07000000000000001,0.16
4.610517859458923,3,3,3,2,-9.5,1.2,-1.59,0.21,0.05,0.08
4.610517859458923,3,3,3,2,-9.5,1.2,-1.59,0.21,0.05,0.08
4.630518078804016,3,3,3,2,-9.6,1.22,-1.62,0.21,-0.01,0.11
4.630518078804016,3,3,3,2,-9.6,1.22,-1.62,0.21,-0.01,0.11
4.65051805973053,3,3,3,2,-9.58,1.1,-1.56,0.08,-0.03,0.05
4.65051805973053,3,3,3,2,-9.58,1.1,-1.56,0.08,-0.03,0.05
4.670518040657043,3,3,3,2,-9.57,1.2,-1.67,0.15,0.01,0.05
4.670518040657043,3,3,3,2,-9.57,1.2,-1.67,0.15,0.01,0.05
4.690518021583557,3,3,3,2,-9.57,1.2,-1.6,0.18,0.02,0.07000000000000001
4.690518021583557,3,3,3,2,-9.57,1.2,-1.6,0.18,0.02,0.07000000000000001
4.710518002510071,3,3,3,2,-9.58,1.21,-1.66,0.05,-0.09,0.04
4.710518002510071,3,3,3,2,-9.58,1.21,-1.66,0.05,-0.09,0.04
4.730517983436584,3,3,3,2,-9.550000000000001,1.19,-1.67,0.05,-0.09,0.06
4.730517983436584,3,3,3,2,-9.550000000000001,1.19,-1.67,0.05,-0.09,0.06
4.750517964363098,3,3,3,2,-9.57,1.31,-1.61,0.05,-0.01,0.02
4.750517964363098,3,3,3,2,-9.57,1.31,-1.61,0.05,-0.01,0.02
4.770517945289612,3,3,3,2,-9.539999999999999,1.27,-1.72,0.04,-0.09,0.06
4.770517945289612,3,3,3,2,-9.539999999999999,1.27,-1.72,0.04,-0.09,0.06
4.790517926216125,3,3,3,2,-9.539999999999999,1.16,-1.57,0.03,-0.08,0.07000000000000001
4.790517926216125,3,3,3,2,-9.539999999999999,1.16,-1.57,0.03,-0.08,0.07000000000000001
4.810517907142639,3,3,3,2,-9.58,1.13,-1.59,0.13,-0.03,0.11
4.810517907142639,3,3,3,2,-9.58,1.13,-1.59,0.13,-0.03,0.11
4.830517888069153,3,3,3,2,-9.6,1.2,-1.64,0.1,-0.04,0.08
4.830517888069153,3,3,3,2,-9.6,1.2,-1.64,0.1,-0.04,0.08
4.850517868995667,3,3,3,2,-9.58,1.27,-1.61,0.11,-0.02,0.05
4.850517868995667,3,3,3,2,-9.58,1.27,-1.61,0.11,-0.02,0.05
4.870518088340759,3,3,3,2,-9.550000000000001,1.24,-1.73,0.09,0.07000000000000001,0.04
4.870518088340759,3,3,3,2,-9.550000000000001,1.24,-1.73,0.09,0.07000000000000001,0.04
4.890518069267273,3,3,3,2,-9.57,1.25,-1.64,0.19,0.04,0.07000000000000001
4.890518069267273,3,3,3,2,-9.57,1.25,-1.64,0.19,0.04,0.07000000000000001
4.910518050193787,3,3,3,2,-9.6,1.2,-1.6,0.05,-0.01,0.1
4.910518050193787,3,3,3,2,-9.6,1.2,-1.6,0.05,-0.01,0.1
4.9305180311203,3,3,3,2,-9.640000000000001,1.18,-1.64,-0.04,-0.08,0.04
4.9305180311203,3,3,3,2,-9.640000000000001,1.18,-1.64,-0.04,-0.08,0.04
4.950518012046814,3,3,3,2,-9.58,1.14,-1.56,0.04,-0.02,0
4.950518012046814,3,3,3,2,-9.58,1.14,-1.56,0.04,-0.02,0
4.970517992973328,3,3,3,2,-9.539999999999999,1.21,-1.69,0.07000000000000001,-0.01,0.02
4.970517992973328,3,3,3,2,-9.539999999999999,1.21,-1.69,0.07000000000000001,-0.01,0.02
4.990517973899841,3,3,3,2,-9.57,1.24,-1.65,-0.02,0.03,0.01
4.990517973899841,3,3,3,2,-9.57,1.24,-1.65,-0.02,0.03,0.01
5.010517954826355,3,3,3,2,-9.57,1.18,-1.59,-0.01,-0.03,0.06
5.010517954826355,3,3,3,2,-9.57,1.18,-1.59,-0.01,-0.03,0.06
5.030517935752869,3,3,3,2,-9.539999999999999,1.2,-1.63,-0.03,-0.01,0
5.030517935752869,3,3,3,2,-9.539999999999999,1.2,-1.63,-0.03,-0.01,0
5.050517916679382,3,3,3,2,-9.619999999999999,1.24,-1.64,-0.07000000000000001,-0.03,0.03
5.050517916679382,3,3,3,2,-9.619999999999999,1.24,-1.64,-0.07000000000000001,-0.03,0.03
5.070517897605896,3,3,3,2,-9.57,1.12,-1.68,-0.02,0.06,0.04
5.070517897605896,3,3,3,2,-9.57,1.12,-1.68,-0.02,0.06,0.04
5.09051787853241,3,3,3,2,-9.550000000000001,1.13,-1.68,0,-0.1,0.01
5.09051787853241,3,3,3,2,-9.550000000000001,1.13,-1.68,0,-0.1,0.01
5.110517859458923,3,3,3,2,-9.58,1.26,-1.58,0.07000000000000001,0.05,0.03
5.110517859458923,3,3,3,2,-9.58,1.26,-1.58,0.07000000000000001,0.05,0.03
5.130518078804016,3,3,3,2,-9.56,1.22,-1.67,-0.12,-0.05,0.05
5.130518078804016,3,3,3,2,-9.56,1.22,-1.67,-0.12,-0.05,0.05
5.15051805973053,3,3,3,2,-9.57,1.21,-1.62,-0.01,-0.04,0.02
5.15051805973053,3,3,3,2,-9.57,1.21,-1.62,-0.01,-0.04,0.02
5.170518040657043,3,3,3,2,-9.56,1.21,-1.7,0.04,0.04,0.07000000000000001
5.170518040657043,3,3,3,2,-9.56,1.21,-1.7,0.04,0.04,0.07000000000000001
5.190518021583557,3,3,3,2,-9.57,1.22,-1.6,0,0.01,0.03
5.190518021583557,3,3,3,2,-9.57,1.22,-1.6,0,0.01,0.03
5.210518002510071,3,3,3,2,-9.57,1.18,-1.68,-0.09,-0.07000000000000001,0.04
5.210518002510071,3,3,3,2,-9.57,1.18,-1.68,-0.09,-0.07000000000000001,0.04
5.230517983436584,3,3,3,2,-9.609999999999999,1.09,-1.63,0.01,-0.08,-0.01
5.230517983436584,3,3,3,2,-9.609999999999999,1.09,-1.63,0.01,-0.08,-0.01
5.250517964363098,3,3,3,2,-9.58,1.2,-1.56,0,0,-0.02
5.250517964363098,3,3,3,2,-9.58,1.2,-1.56,0,0,-0.02
5.270517945289612,3,3,3,2,-9.57,1.21,-1.67,0,0.06,-0.01
5.270517945289612,3,3,3,2,-9.57,1.21,-1.67,0,0.06,-0.01
5.290517926216125,3,3,3,2,-9.57,1.24,-1.63,-0.03,0.02,-0.04
5.290517926216125,3,3,3,2,-9.57,1.24,-1.63,-0.03,0.02,-0.04
5.310517907142639,3,3,3,2,-9.59,1.18,-1.6,0.02,0.11,-0.01
5.310517907142639,3,3,3,2,-9.59,1.18,-1.6,0.02,0.11,-0.01
5.331518054008484,3,3,3,2,-9.59,1.21,-1.61,0,0.03,-0.01
5.331518054008484,3,3,3,2,-9.59,1.21,-1.61,0,0.03,-0.01
5.351518034934998,3,3,3,2,-9.609999999999999,1.21,-1.63,-0.04,-0.11,-0.05
5.351518034934998,3,3,3,2,-9.609999999999999,1.21,-1.63,-0.04,-0.11,-0.05
5.371518015861511,3,3,3,2,-9.57,1.07,-1.65,0.01,-0.09,-0.03
5.371518015861511,3,3,3,2,-9.57,1.07,-1.65,0.01,-0.09,-0.03
5.391517996788025,3,3,3,2,-9.57,1.14,-1.59,0.03,0.05,-0.04
5.391517996788025,3,3,3,2,-9.57,1.14,-1.59,0.03,0.05,-0.04
5.411517977714539,3,3,3,2,-9.59,1.11,-1.58,0.02,0.04,-0.1
5.411517977714539,3,3,3,2,-9.59,1.11,-1.58,0.02,0.04,-0.1
5.431517958641052,3,3,3,2,-9.59,1.16,-1.65,-0.03,-0.08,-0.16
5.431517958641052,3,3,3,2,-9.59,1.16,-1.65,-0.03,-0.08,-0.16
5.451517939567566,3,3,3,2,-9.57,1.19,-1.57,-0.03,0.01,-0.16
5.451517939567566,3,3,3,2,-9.57,1.19,-1.57,-0.03,0.01,-0.16
5.47151792049408,3,3,3,2,-9.57,1.31,-1.72,-0.08,0.08,-0.11
5.47151792049408,3,3,3,2,-9.57,1.31,-1.72,-0.08,0.08,-0.11
5.491517901420593,3,3,3,2,-9.539999999999999,1.28,-1.66,-0.1,-0.01,-0.1
5.491517901420593,3,3,3,2,-9.539999999999999,1.28,-1.66,-0.1,-0.01,-0.1
5.511517882347107,3,3,3,2,-9.58,1.17,-1.6,-0.11,-0.03,-0.04
5.511517882347107,3,3,3,2,-9.58,1.17,-1.6,-0.11,-0.03,-0.04
5.531517863273621,3,3,3,2,-9.59,1.12,-1.61,0.04,0.04,-0.04
5.531517863273621,3,3,3,2,-9.59,1.12,-1.61,0.04,0.04,-0.04
5.551518082618713,3,3,3,2,-9.57,1.13,-1.57,0.09,0.04,-0.02
5.551518082618713,3,3,3,2,-9.57,1.13,-1.57,0.09,0.04,-0.02
5.571518063545227,3,3,3,2,-9.58,1.1,-1.66,0.02,0.02,-0.03
5.571518063545227,3,3,3,2,-9.58,1.1,-1.66,0.02,0.02,-0.03
5.591518044471741,3,3,3,2,-9.609999999999999,1.08,-1.6,0,-0.07000000000000001,-0.03
5.591518044471741,3,3,3,2,-9.609999999999999,1.08,-1.6,0,-0.07000000000000001,-0.03
5.611518025398254,3,3,3,2,-9.57,1.15,-1.62,0.05,0.02,-0.06
5.611518025398254,3,3,3,2,-9.57,1.15,-1.62,0.05,0.02,-0.06
5.631518006324768,3,3,3,2,-9.550000000000001,1.17,-1.66,0.01,0.05,-0.03
5.631518006324768,3,3,3,2,-9.550000000000001,1.17,-1.66,0.01,0.05,-0.03
5.651517987251282,3,3,3,2,-9.57,1.16,-1.58,-0.1,-0.06,-0.05
5.651517987251282,3,3,3,2,-9.57,1.16,-1.58,-0.1,-0.06,-0.05
5.671517968177795,3,3,3,2,-9.58,1.11,-1.68,-0.03,0.03,-0.06
5.671517968177795,3,3,3,2,-9.58,1.11,-1.68,-0.03,0.03,-0.06
5.691517949104309,3,3,3,2,-9.56,1.17,-1.55,0.03,0.02,-0.01
5.691517949104309,3,3,3,2,-9.56,1.17,-1.55,0.03,0.02,-0.01
5.711517930030823,3,3,3,2,-9.59,1.13,-1.55,0.07000000000000001,0.09,0
5.711517930030823,3,3,3,2,-9.59,1.13,-1.55,0.07000000000000001,0.09,0
5.731517910957336,3,3,3,2,-9.59,1.08,-1.67,0.02,-0.11,0.05
5.731517910957336,3,3,3,2,-9.59,1.08,-1.67,0.02,-0.11,0.05
5.75151789188385,3,3,3,2,-9.58,1.03,-1.55,0.14,-0.01,0.06
5.75151789188385,3,3,3,2,-9.58,1.03,-1.55,0.14,-0.01,0.06
5.771517872810364,3,3,3,2,-9.619999999999999,1.1,-1.66,0.1,-0.01,0.07000000000000001
5.771517872810364,3,3,3,2,-9.619999999999999,1.1,-1.66,0.1,-0.01,0.07000000000000001
5.791518092155457,3,3,3,2,-9.59,1.08,-1.58,0.06,-0.01,0
5.791518092155457,3,3,3,2,-9.59,1.08,-1.58,0.06,-0.01,0
5.81151807308197,3,3,3,2,-9.609999999999999,1.1,-1.57,0.06,-0.06,0.02
5.81151807308197,3,3,3,2,-9.609999999999999,1.1,-1.57,0.06,-0.06,0.02
5.831518054008484,3,3,3,2,-9.58,1.15,-1.7,0.01,0.08,0.05
5.831518054008484,3,3,3,2,-9.58,1.15,-1.7,0.01,0.08,0.05
5.851518034934998,3,3,3,2,-9.619999999999999,1.14,-1.6,0.05,0.01,0.07000000000000001
5.851518034934998,3,3,3,2,-9.619999999999999,1.14,-1.6,0.05,0.01,0.07000000000000001
5.871518015861511,3,3,3,2,-9.6,1.12,-1.68,0.09,0.08,0.02
5.871518015861511,3,3,3,2,-9.6,1.12,-1.68,0.09,0.08,0.02
5.891517996788025,3,3,3,2,-9.58,1.07,-1.63,0.09,0,0.05
5.891517996788025,3,3,3,2,-9.58,1.07,-1.63,0.09,0,0.05
5.911517977714539,3,3,3,2,-9.6,1.03,-1.59,-0.01,-0.09,0.04
5.911517977714539,3,3,3,2,-9.6,1.03,-1.59,-0.01,-0.09,0.04
5.931517958641052,3,3,3,2,-9.59,1.08,-1.61,0.11,0,0.03
5.931517958641052,3,3,3,2,-9.59,1.08,-1.61,0.11,0,0.03
5.951517939567566,3,3,3,2,-9.57,1.19,-1.61,0.14,0.13,0.01
5.951517939567566,3,3,3,2,-9.57,1.19,-1.61,0.14,0.13,0.01
5.97151792049408,3,3,3,2,-9.58,1.19,-1.71,0.04,0.02,0.02
5.97151792049408,3,3,3,2,-9.58,1.19,-1.71,0.04,0.02,0.02
5.991517901420593,3,3,3,2,-9.58,1.14,-1.59,0.06,0.08,0.03
5.991517901420593,3,3,3,2,-9.58,1.14,-1.59,0.06,0.08,0.03
6.011517882347107,3,3,3,2,-9.57,1.01,-1.55,-0.09,-0.15,-0.06
6.011517882347107,3,3,3,2,-9.57,1.01,-1.55,-0.09,-0.15,-0.06
6.031517863273621,3,3,3,2,-9.619999999999999,0.96,-1.58,-0.05,0.07000000000000001,-0.21
6.031517863273621,3,3,3,2,-9.619999999999999,0.96,-1.58,-0.05,0.07000000000000001,-0.21
6.051518082618713,3,3,3,2,-9.65,0.6,-1.51,-0.11,0.06,-0.32
6.051518082618713,3,3,3,2,-9.65,0.6,-1.51,-0.11,0.06,-0.32
6.071518063545227,3,3,3,2,-9.6,0.64,-1.44,0.17,-0.1,-0.54
6.071518063545227,3,3,3,2,-9.6,0.64,-1.44,0.17,-0.1,-0.54
6.091518044471741,3,3,3,2,-9.699999999999999,0.8100000000000001,-1.41,0.17,-0.12,-0.6
6.091518044471741,3,3,3,2,-9.699999999999999,0.8100000000000001,-1.41,0.17,-0.12,-0.6
6.111518025398254,3,3,3,2,-9.619999999999999,1.04,-1.54,-0.19,0.09,-0.87
6.111518025398254,3,3,3,2,-9.619999999999999,1.04,-1.54,-0.19,0.09,-0.87
6.131518006324768,3,3,3,2,-9.59,1.01,-1.66,-0.33,-0.2,-0.84
6.131518006324768,3,3,3,2,-9.59,1.01,-1.66,-0.33,-0.2,-0.84
6.151517987251282,3,3,3,2,-9.539999999999999,1.17,-1.65,-0.29,-0.26,-0.84
6.151517987251282,3,3,3,2,-9.539999999999999,1.17,-1.65,-0.29,-0.26,-0.84
6.171517968177795,3,3,3,2,-9.57,1.24,-1.75,-0.24,-0.23,-0.83
6.171517968177795,3,3,3,2,-9.57,1.24,-1.75,-0.24,-0.23,-0.83
6.191517949104309,3,3,3,2,-9.56,1.17,-1.68,-0.17,-0.13,-0.79
6.191517949104309,3,3,3,2,-9.56,1.17,-1.68,-0.17,-0.13,-0.79
6.211517930030823,3,3,3,2,-9.57,0.98,-1.71,0.14,-0.14,-0.76
6.211517930030823,3,3,3,2,-9.57,0.98,-1.71,0.14,-0.14,-0.76
6.231517910957336,3,3,3,2,-9.59,0.89,-1.57,0.17,-0.29,-0.67
6.231517910957336,3,3,3,2,-9.59,0.89,-1.57,0.17,-0.29,-0.67
6.25151789188385,3,3,3,2,-9.56,0.88,-1.49,0.16,-0.22,-0.7
6.25151789188385,3,3,3,2,-9.56,0.88,-1.49,0.16,-0.22,-0.7
6.271517872810364,3,3,3,2,-9.640000000000001,0.89,-1.53,0.13,0.11,-0.82
6.271517872810364,3,3,3,2,-9.640000000000001,0.89,-1.53,0.13,0.11,-0.82
6.291518092155457,3,3,3,2,-9.609999999999999,0.89,-1.53,0.21,0.04,-0.84
6.291518092155457,3,3,3,2,-9.609999999999999,0.89,-1.53,0.21,0.04,-0.84
6.31151807308197,3,3,3,2,-9.66,0.58,-1.42,0.37,-0.09,-0.95
6.31151807308197,3,3,3,2,-9.66,0.58,-1.42,0.37,-0.09,-0.95
6.331518054008484,3,3,3,2,-9.640000000000001,-0.05,-1.1,0.79,-0.19,-1.19
6.331518054008484,3,3,3,2,-9.640000000000001,-0.05,-1.1,0.79,-0.19,-1.19
6.35251796245575,3,3,3,2,-9.67,-0.29,-0.96,0.95,-0.32,-1.32
6.35251796245575,3,3,3,2,-9.67,-0.29,-0.96,0.95,-0.32,-1.32
6.372517943382263,3,3,3,2,-9.75,-0.48,-0.5,0.5,-0.47,-1.93
6.372517943382263,3,3,3,2,-9.75,-0.48,-0.5,0.5,-0.47,-1.93
6.392517924308777,3,3,3,2,-9.69,-0.6899999999999999,-0.36,0.57,-0.67,-2.36
6.392517924308777,3,3,3,2,-9.69,-0.6899999999999999,-0.36,0.57,-0.67,-2.36
6.412517905235291,3,3,3,2,-9.51,-1.92,-0.15,1.14,-1.48,-3.5
6.412517905235291,3,3,3,2,-9.51,-1.92,-0.15,1.14,-1.48,-3.5
6.432517886161804,3,3,3,2,-9.42,-1.51,-0.13,0.96,-1.57,-4.8
6.432517886161804,3,3,3,2,-9.42,-1.51,-0.13,0.96,-1.57,-4.8
6.452517867088318,3,3,3,2,-9.460000000000001,-0.87,0.02,-0.04,-1.42,-5.52
6.452517867088318,3,3,3,2,-9.460000000000001,-0.87,0.02,-0.04,-1.42,-5.52
6.472518086433411,3,3,3,2,-9.35,-1.22,-0.52,-1.53,-1.82,-6.27
6.472518086433411,3,3,3,2,-9.35,-1.22,-0.52,-1.53,-1.82,-6.27
6.492518067359924,3,3,3,2,-9.210000000000001,-1.05,-0.41,-2.16,-2.69,-7.16
6.492518067359924,3,3,3,2,-9.210000000000001,-1.05,-0.41,-2.16,-2.69,-7.16
6.512518048286438,3,3,3,2,-8.69,-3.24,-0.15,-1.76,-4.21,-8.32
6.512518048286438,3,3,3,2,-8.69,-3.24,-0.15,-1.76,-4.21,-8.32
6.532518029212952,3,3,3,2,-8.84,-0.91,-0.45,0.24,-2.49,-9.16
6.532518029212952,3,3,3,2,-8.84,-0.91,-0.45,0.24,-2.49,-9.16
6.552518010139465,3,3,3,2,-8.710000000000001,-1.23,-0.05,-1.93,-4.44,-9.58
6.552518010139465,3,3,3,2,-8.710000000000001,-1.23,-0.05,-1.93,-4.44,-9.58
6.572517991065979,3,3,3,2,-8.539999999999999,-0.63,-1.15,-1.16,-4.17,-9.960000000000001
6.572517991065979,3,3,3,2,-8.539999999999999,-0.63,-1.15,-1.16,-4.17,-9.960000000000001
6.592517971992493,3,3,3,2,-8.609999999999999,-1.18,-1.2,-0.76,-3.34,-10.11
6.592517971992493,3,3,3,2,-8.609999999999999,-1.18,-1.2,-0.76,-3.34,-10.11
6.612517952919006,3,3,3,2,-8.85,-0.77,-1.54,-0.1,-3.59,-10.85
6.612517952919006,3,3,3,2,-8.85,-0.77,-1.54,-0.1,-3.59,-10.85
6.63251793384552,3,3,3,2,-8.380000000000001,-1.39,-1.34,-0.42,-3.79,-10.63
6.63251793384552,3,3,3,2,-8.380000000000001,-1.39,-1.34,-0.42,-3.79,-10.63
6.652517914772034,3,3,3,2,-9.869999999999999,-2.39,-1.61,1.36,-1.59,-10.58
6.652517914772034,3,3,3,2,-9.869999999999999,-2.39,-1.61,1.36,-1.59,-10.58
6.672517895698547,3,3,3,2,-9.67,-2.63,-1.63,3.07,-2.45,-9.33
6.672517895698547,3,3,3,2,-9.67,-2.63,-1.63,3.07,-2.45,-9.33
6.692517876625061,3,3,3,2,-9.27,-0.53,-0.51,5.61,-2.76,-9.039999999999999
6.692517876625061,3,3,3,2,-9.27,-0.53,-0.51,5.61,-2.76,-9.039999999999999
6.712517857551575,3,3,3,2,-8.31,-0.12,-0.43,4.56,-1.25,-9.380000000000001
6.712517857551575,3,3,3,2,-8.31,-0.12,-0.43,4.56,-1.25,-9.380000000000001
6.732518076896667,3,3,3,2,-9.789999999999999,-1.81,-0.08,-0.46,-0.6899999999999999,-8.41
6.732518076896667,3,3,3,2,-9.789999999999999,-1.81,-0.08,-0.46,-0.6899999999999999,-8.41
6.752518057823181,3,3,3,2,-10.56,-1.15,-1,-2.16,-0.15,-7.4
6.752518057823181,3,3,3,2,-10.56,-1.15,-1,-2.16,-0.15,-7.4
6.772518038749695,3,3,3,2,-10.39,-1.28,-1.37,-2.08,-0.23,-7.14
6.772518038749695,3,3,3,2,-10.39,-1.28,-1.37,-2.08,-0.23,-7.14
6.792518019676208,3,3,3,2,-10.87,-1.18,-1.93,-2.15,-0.14,-5.56
6.792518019676208,3,3,3,2,-10.87,-1.18,-1.93,-2.15,-0.14,-5.56
6.812518000602722,3,3,3,2,-12.23,-1.4,-2.6,-1.73,-0.16,-3.57
6.812518000602722,3,3,3,2,-12.23,-1.4,-2.6,-1.73,-0.16,-3.57
6.832517981529236,3,3,3,2,-13.01,-0.21,-2.77,-0.7,-0.26,-0.98
6.832517981529236,3,3,3,2,-13.01,-0.21,-2.77,-0.7,-0.26,-0.98
6.85251796245575,3,3,3,2,-13.42,1.63,-2.8,-1.27,0.19,1.13
6.85251796245575,3,3,3,2,-13.42,1.63,-2.8,-1.27,0.19,1.13
6.872517943382263,3,3,3,2,-14.31,2.83,-2.82,-2.93,1.12,3.48
6.872517943382263,3,3,3,2,-14.31,2.83,-2.82,-2.93,1.12,3.48
6.892517924308777,3,3,3,2,-15.92,3.65,-2.7,-4.45,1.17,6.91
6.892517924308777,3,3,3,2,-15.92,3.65,-2.7,-4.45,1.17,6.91
6.912517905235291,3,3,3,2,-19.11,3.3,-2.29,-7.46,-0.59,10.65
6.912517905235291,3,3,3,2,-19.11,3.3,-2.29,-7.46,-0.59,10.65
6.932517886161804,3,3,3,2,-20.49,4.61,-2.07,-7.23,-1.92,13.59
6.932517886161804,3,3,3,2,-20.49,4.61,-2.07,-7.23,-1.92,13.59
6.952517867088318,3,3,3,2,-22.75,8.890000000000001,-1.86,-6.98,-2.19,17.11
6.952517867088318,3,3,3,2,-22.75,8.890000000000001,-1.86,-6.98,-2.19,17.11
6.972518086433411,3,3,3,2,-23.27,10.83,-3.38,-9.210000000000001,-0.78,22.02
6.972518086433411,3,3,3,2,-23.27,10.83,-3.38,-9.210000000000001,-0.78,22.02
6.992518067359924,3,3,3,2,-25.41,3.4,-7.43,-16.03,2.22,25.48
6.992518067359924,3,3,3,2,-25.41,3.4,-7.43,-16.03,2.22,25.48
7.012518048286438,3,3,3,2,-25.36,-6.96,-9.970000000000001,-13.06,6.99,25.36
7.012518048286438,3,3,3,2,-25.36,-6.96,-9.970000000000001,-13.06,6.99,25.36
7.032518029212952,3,3,3,2,-16.37,-14.88,-6.83,1.14,10.99,22.24
7.032518029212952,3,3,3,2,-16.37,-14.88,-6.83,1.14,10.99,22.24
7.052518010139465,3,3,3,2,-6.46,-8.58,0.41,9.5,8.720000000000001,20.1
7.052518010139465,3,3,3,2,-6.46,-8.58,0.41,9.5,8.720000000000001,20.1
7.072517991065979,3,3,3,2,-1.82,-26.52,16.86,9.449999999999999,0.88,16.94
7.072517991065979,3,3,3,2,-1.82,-26.52,16.86,9.449999999999999,0.88,16.94
7.092517971992493,3,3,3,2,-4.11,-26.89,18.65,12.27,-0.48,2.43
7.092517971992493,3,3,3,2,-4.11,-26.89,18.65,12.27,-0.48,2.43
7.112517952919006,3,3,3,2,-4.45,7.45,1.01,4.65,1.6,-4.7
7.112517952919006,3,3,3,2,-4.45,7.45,1.01,4.65,1.6,-4.7
7.13251793384552,3,3,3,2,-1.69,9.18,-5.23,-5.22,-0.4,-8.56
7.13251793384552,3,3,3,2,-1.69,9.18,-5.23,-5.22,-0.4,-8.56
7.152517914772034,3,3,3,2,1.38,-1.69,-5.68,0.55,-5.35,-9.19
7.152517914772034,3,3,3,2,1.38,-1.69,-5.68,0.55,-5.35,-9.19
7.172517895698547,3,3,3,2,1.79,4.08,-5.12,11.27,-4.34,-3.51
7.172517895698547,3,3,3,2,1.79,4.08,-5.12,11.27,-4.34,-3.51
7.192517876625061,3,3,3,2,1.5,6.29,-2.09,12.7,-3.17,0.73
7.192517876625061,3,3,3,2,1.5,6.29,-2.09,12.7,-3.17,0.73
7.212517857551575,3,3,3,2,0.46,3.94,-0.36,8.869999999999999,-4.56,1.61
7.212517857551575,3,3,3,2,0.46,3.94,-0.36,8.869999999999999,-4.56,1.61
7.232518076896667,3,3,3,2,-0.43,0.72,0.73,2.4,-4.54,1.1
7.232518076896667,3,3,3,2,-0.43,0.72,0.73,2.4,-4.54,1.1
7.252518057823181,3,3,3,2,-0.22,-0.92,1.32,-1.36,-3.78,0.1
7.252518057823181,3,3,3,2,-0.22,-0.92,1.32,-1.36,-3.78,0.1
7.272518038749695,3,3,3,2,-0.23,-2.22,0.93,-2.74,-2.28,-1.72
7.272518038749695,3,3,3,2,-0.23,-2.22,0.93,-2.74,-2.28,-1.72
7.292518019676208,3,3,3,2,0.36,-1.7,1.05,-0.38,-1.17,-2.02
7.292518019676208,3,3,3,2,0.36,-1.7,1.05,-0.38,-1.17,-2.02
7.312518000602722,3,3,3,2,0.34,-0.24,-0.22,3.35,0.49,-1.76
7.312518000602722,3,3,3,2,0.34,-0.24,-0.22,3.35,0.49,-1.76
7.332517981529236,3,3,3,2,-0.24,-0.34,-0.59,4.22,0.7,-1.5
7.332517981529236,3,3,3,2,-0.24,-0.34,-0.59,4.22,0.7,-1.5
7.35251796245575,3,3,3,2,-0.7,-0.84,-0.14,5.64,0.07000000000000001,-1.53
7.35251796245575,3,3,3,2,-0.7,-0.84,-0.14,5.64,0.07000000000000001,-1.53
7.373517870903015,3,3,3,2,0.19,-1.35,-1.07,9.720000000000001,0.96,-1.84
7.373517870903015,3,3,3,2,0.19,-1.35,-1.07,9.720000000000001,0.96,-1.84
7.393518090248108,3,3,3,2,-2.3,-6.75,7.51,3.22,-1.58,-2.19
7.393518090248108,3,3,3,2,-2.3,-6.75,7.51,3.22,-1.58,-2.19
7.413518071174622,3,3,3,2,-6.79,-22.97,10.45,-12.13,-2.62,-6.38
7.413518071174622,3,3,3,2,-6.79,-22.97,10.45,-12.13,-2.62,-6.38
7.433518052101135,3,3,3,2,-20.87,17.07,0.9,-2.44,-22.02,-0.75
7.433518052101135,3,3,3,2,-20.87,17.07,0.9,-2.44,-22.02,-0.75
7.453518033027649,3,3,3,2,-33.37,-10.74,-9.01,-12.54,5.78,-12.32
7.453518033027649,3,3,3,2,-33.37,-10.74,-9.01,-12.54,5.78,-12.32
7.473518013954163,3,3,3,2,-12.32,-2.87,-6.33,-13.13,-1.28,-12.85
7.473518013954163,3,3,3,2,-12.32,-2.87,-6.33,-13.13,-1.28,-12.85
7.493517994880676,3,3,3,2,-38.36,-39.08,-7.57,-7.12,1.99,-17.44
7.493517994880676,3,3,3,2,-38.36,-39.08,-7.57,-7.12,1.99,-17.44
7.51351797580719,3,3,3,2,-5.65,26.29,-2.95,46.52,-0.32,-10.13
7.51351797580719,3,3,3,2,-5.65,26.29,-2.95,46.52,-0.32,-10.13
7.533517956733704,3,3,3,2,-8.970000000000001,37.49,1.27,13.73,6.68,-6.58
7.533517956733704,3,3,3,2,-8.970000000000001,37.49,1.27,13.73,6.68,-6.58
7.553517937660217,3,3,3,2,-15.73,6.97,1.13,-23,-2.78,0.31
7.553517937660217,3,3,3,2,-15.73,6.97,1.13,-23,-2.78,0.31
7.573517918586731,3,3,3,2,-19.05,-2.32,-0.66,-18.12,-3.06,2.35
7.573517918586731,3,3,3,2,-19.05,-2.32,-0.66,-18.12,-3.06,2.35
7.593517899513245,3,3,3,2,-16.96,1.06,-2.28,-1.72,-1.8,1.73
7.593517899513245,3,3,3,2,-16.96,1.06,-2.28,-1.72,-1.8,1.73
7.613517880439758,3,3,3,2,-10.36,2.29,-3.92,0.93,0.11,2.54
7.613517880439758,3,3,3,2,-10.36,2.29,-3.92,0.93,0.11,2.54
7.633517861366272,3,3,3,2,-10.5,-0.3,-3.95,0.14,0.05,5.46
7.633517861366272,3,3,3,2,-10.5,-0.3,-3.95,0.14,0.05,5.46
7.653518080711365,3,3,3,2,-10.27,-2.97,-3.73,4.78,0.98,8.27
7.653518080711365,3,3,3,2,-10.27,-2.97,-3.73,4.78,0.98,8.27
7.673518061637878,3,3,3,2,-9.02,0.19,-3.48,10.23,2.31,10.05
7.673518061637878,3,3,3,2,-9.02,0.19,-3.48,10.23,2.31,10.05
7.693518042564392,3,3,3,2,-7.93,3.26,-2.37,7.59,3.57,8.970000000000001
7.693518042564392,3,3,3,2,-7.93,3.26,-2.37,7.59,3.57,8.970000000000001
7.713518023490906,3,3,3,2,-7.94,2.35,-1.69,0.7,4.61,6.54
7.713518023490906,3,3,3,2,-7.94,2.35,-1.69,0.7,4.61,6.54
7.733518004417419,3,3,3,2,-8.18,-0.59,-0.5,-4.44,4.91,5.7
7.733518004417419,3,3,3,2,-8.18,-0.59,-0.5,-4.44,4.91,5.7
7.753517985343933,3,3,3,2,-8.24,-1.8,0.38,-4.61,4.64,5.67
7.753517985343933,3,3,3,2,-8.24,-1.8,0.38,-4.61,4.64,5.67
7.773517966270447,3,3,3,2,-8,-3.17,1.05,-3.79,3.69,5.03
7.773517966270447,3,3,3,2,-8,-3.17,1.05,-3.79,3.69,5.03
7.79351794719696,3,3,3,2,-8.17,-3.52,1.52,-3.33,1.96,3.53
7.79351794719696,3,3,3,2,-8.17,-3.52,1.52,-3.33,1.96,3.53
7.813517928123474,3,3,3,2,-8.81,-3.12,1.25,-3.16,0.77,2.23
7.813517928123474,3,3,3,2,-8.81,-3.12,1.25,-3.16,0.77,2.23
7.833517909049988,3,3,3,2,-9.31,-2.26,1.06,-2.6,0.42,0.76
7.833517909049988,3,3,3,2,-9.31,-2.26,1.06,-2.6,0.42,0.76
7.853517889976501,3,3,3,2,-9.369999999999999,-1.56,-0.25,-3.45,0.71,-0.15
7.853517889976501,3,3,3,2,-9.369999999999999,-1.56,-0.25,-3.45,0.71,-0.15
7.873517870903015,3,3,3,2,-9.25,-1.79,-1.38,-4.03,0.08,-0.44
7.873517870903015,3,3,3,2,-9.25,-1.79,-1.38,-4.03,0.08,-0.44
7.893518090248108,3,3,3,2,-9.449999999999999,-1.39,-2.3,-2.14,-0.12,-0.24
7.893518090248108,3,3,3,2,-9.449999999999999,-1.39,-2.3,-2.14,-0.12,-0.24
7.913518071174622,3,3,3,2,-9.75,-0.22,-2.96,0.74,0.18,0.6899999999999999
7.913518071174622,3,3,3,2,-9.75,-0.22,-2.96,0.74,0.18,0.6899999999999999
7.933518052101135,3,3,3,2,-10.19,0.88,-2.56,2.48,0.18,1.92
7.933518052101135,3,3,3,2,-10.19,0.88,-2.56,2.48,0.18,1.92
7.953518033027649,3,3,3,2,-10.36,1.53,-1.58,3.05,0.09,2.64
7.953518033027649,3,3,3,2,-10.36,1.53,-1.58,3.05,0.09,2.64
7.973518013954163,3,3,3,2,-10.05,3.06,-0.86,2.23,0.26,2.82
7.973518013954163,3,3,3,2,-10.05,3.06,-0.86,2.23,0.26,2.82
7.993517994880676,3,3,3,2,-9.83,3.09,-0.8100000000000001,0.51,0.82,2.86
7.993517994880676,3,3,3,2,-9.83,3.09,-0.8100000000000001,0.51,0.82,2.86
8.01351797580719,3,3,3,2,-9.460000000000001,1.67,-0.95,-2.14,1.23,2.79
8.01351797580719,3,3,3,2,-9.460000000000001,1.67,-0.95,-2.14,1.23,2.79
8.033517956733704,3,3,3,2,-9.460000000000001,0.12,-1.02,-2.92,1.19,2.7
8.033517956733704,3,3,3,2,-9.460000000000001,0.12,-1.02,-2.92,1.19,2.7
8.053517937660217,3,3,3,2,-9.58,-0.59,-0.96,-1.75,0.92,2.57
8.053517937660217,3,3,3,2,-9.58,-0.59,-0.96,-1.75,0.92,2.57
8.073517918586731,3,3,3,2,-9.529999999999999,-0.35,-1.05,0.22,1.41,2.67
8.073517918586731,3,3,3,2,-9.529999999999999,-0.35,-1.05,0.22,1.41,2.67
8.093517899513245,3,3,3,2,-9.470000000000001,0.01,-0.78,1.22,1.09,2.7
8.093517899513245,3,3,3,2,-9.470000000000001,0.01,-0.78,1.22,1.09,2.7
8.113517880439758,3,3,3,2,-9.369999999999999,-0.1,-0.89,1.52,0.74,2.36
8.113517880439758,3,3,3,2,-9.369999999999999,-0.1,-0.89,1.52,0.74,2.36
8.133517861366272,3,3,3,2,-9.52,-0.16,-0.99,2.17,0.39,2.12
8.133517861366272,3,3,3,2,-9.52,-0.16,-0.99,2.17,0.39,2.12
8.153518080711365,3,3,3,2,-9.84,0,-0.98,2.32,0.12,1.77
8.153518080711365,3,3,3,2,-9.84,0,-0.98,2.32,0.12,1.77
8.173518061637878,3,3,3,2,-9.85,0.9,-0.99,2.17,0.09,1.53
8.173518061637878,3,3,3,2,-9.85,0.9,-0.99,2.17,0.09,1.53
8.193518042564392,3,3,3,2,-9.6,1.35,-0.98,0.91,0.3,1.47
8.193518042564392,3,3,3,2,-9.6,1.35,-0.98,0.91,0.3,1.47
8.213518023490906,3,3,3,2,-9.539999999999999,1.51,-1.3,-0.46,0.7,1.32
8.213518023490906,3,3,3,2,-9.539999999999999,1.51,-1.3,-0.46,0.7,1.32
8.233518004417419,3,3,3,2,-9.58,1.34,-1.24,-1.21,0.36,1.01
8.233518004417419,3,3,3,2,-9.58,1.34,-1.24,-1.21,0.36,1.01
8.253517985343933,3,3,3,2,-9.56,0.13,-1.22,-1.56,0.06,0.8
8.253517985343933,3,3,3,2,-9.56,0.13,-1.22,-1.56,0.06,0.8
8.273517966270447,3,3,3,2,-9.199999999999999,-2.07,-0.72,-1.43,-0.14,0.26
8.273517966270447,3,3,3,2,-9.199999999999999,-2.07,-0.72,-1.43,-0.14,0.26
8.29351794719696,3,3,3,2,-9.039999999999999,-2.67,-0.03,-0.28,-0.6,-0.76
8.29351794719696,3,3,3,2,-9.039999999999999,-2.67,-0.03,-0.28,-0.6,-0.76
8.313517928123474,3,3,3,2,-9.34,-2.65,0.27,1.04,-0.57,-1.83
8.313517928123474,3,3,3,2,-9.34,-2.65,0.27,1.04,-0.57,-1.83
8.333517909049988,3,3,3,2,-9.69,-2.33,0.22,2.56,-0.3,-2.59
8.333517909049988,3,3,3,2,-9.69,-2.33,0.22,2.56,-0.3,-2.59
8.353517889976501,3,3,3,2,-9.31,-1.62,0.36,3.1,-1.32,-3.27
8.353517889976501,3,3,3,2,-9.31,-1.62,0.36,3.1,-1.32,-3.27
8.373517870903015,3,3,3,2,-9.08,-2.08,0.22,2.98,-2.56,-4.04
8.373517870903015,3,3,3,2,-9.08,-2.08,0.22,2.98,-2.56,-4.04
8.39451801776886,3,3,3,2,-8.48,1.01,-0.72,3.19,-2.25,-5.07
8.39451801776886,3,3,3,2,-8.48,1.01,-0.72,3.19,-2.25,-5.07
8.414517998695374,3,3,3,2,-9.640000000000001,1.13,-1.46,2.09,-2.97,-4.78
8.414517998695374,3,3,3,2,-9.640000000000001,1.13,-1.46,2.09,-2.97,-4.78
8.434517979621887,3,3,3,2,-10.42,1.44,-1.69,1.61,-3.19,-4.28
8.434517979621887,3,3,3,2,-10.42,1.44,-1.69,1.61,-3.19,-4.28
8.454517960548401,3,3,3,2,-10.63,2.35,-1.59,0.12,-2.62,-3.84
8.454517960548401,3,3,3,2,-10.63,2.35,-1.59,0.12,-2.62,-3.84
8.474517941474915,3,3,3,2,-10.04,1.81,-1.71,-2.46,-1.64,-3.95
8.474517941474915,3,3,3,2,-10.04,1.81,-1.71,-2.46,-1.64,-3.95
8.494517922401428,3,3,3,2,-10.09,3.13,-2.23,-1.04,-1.62,-3.45
8.494517922401428,3,3,3,2,-10.09,3.13,-2.23,-1.04,-1.62,-3.45
8.514517903327942,3,3,3,2,-10.61,2.8,-1.86,-1.68,-1.56,-2.48
8.514517903327942,3,3,3,2,-10.61,2.8,-1.86,-1.68,-1.56,-2.48
8.534517884254456,3,3,3,2,-10.65,1.56,-1.47,-1.63,-1.64,-2.3
8.534517884254456,3,3,3,2,-10.65,1.56,-1.47,-1.63,-1.64,-2.3
8.554517865180969,3,3,3,2,-10.53,1.54,-1.83,-0.12,-0.96,-1.69
8.554517865180969,3,3,3,2,-10.53,1.54,-1.83,-0.12,-0.96,-1.69
8.574518084526062,3,3,3,2,-10.13,1.92,-1.99,1.31,-0.47,-0.77
8.574518084526062,3,3,3,2,-10.13,1.92,-1.99,1.31,-0.47,-0.77
8.594518065452576,3,3,3,2,-9.74,1.46,-1.84,0.88,-0.16,-0.34
8.594518065452576,3,3,3,2,-9.74,1.46,-1.84,0.88,-0.16,-0.34
8.614518046379089,3,3,3,2,-9.31,0.6899999999999999,-1.81,0.67,0.14,-0.46
8.614518046379089,3,3,3,2,-9.31,0.6899999999999999,-1.81,0.67,0.14,-0.46
8.634518027305603,3,3,3,2,-8.49,0.13,-1.11,1.43,0.27,-0.64
8.634518027305603,3,3,3,2,-8.49,0.13,-1.11,1.43,0.27,-0.64
8.654518008232117,3,3,3,2,-8.76,-1.24,-0.33,0.89,-0.36,-1.15
8.654518008232117,3,3,3,2,-8.76,-1.24,-0.33,0.89,-0.36,-1.15
8.67451798915863,3,3,3,2,-9.52,-3.18,0.14,0.5600000000000001,-1.15,-2.14
8.67451798915863,3,3,3,2,-9.52,-3.18,0.14,0.5600000000000001,-1.15,-2.14
8.694517970085144,3,3,3,2,-9.699999999999999,-2.74,0.2,1.78,-0.98,-2.91
8.694517970085144,3,3,3,2,-9.699999999999999,-2.74,0.2,1.78,-0.98,-2.91
8.714517951011658,3,3,3,2,-9.539999999999999,-1.99,0.63,2.07,-1.53,-3.66
8.714517951011658,3,3,3,2,-9.539999999999999,-1.99,0.63,2.07,-1.53,-3.66
8.734517931938171,3,3,3,2,-8.779999999999999,-2.08,0.76,1.4,-1.54,-5.39
8.734517931938171,3,3,3,2,-8.779999999999999,-2.08,0.76,1.4,-1.54,-5.39
8.754517912864685,3,3,3,2,-8.1,-1.31,0.63,1.27,-1.02,-7.11
8.754517912864685,3,3,3,2,-8.1,-1.31,0.63,1.27,-1.02,-7.11
8.774517893791199,3,3,3,2,-8.109999999999999,-0.74,0.59,0.42,-2.45,-7.79
8.774517893791199,3,3,3,2,-8.109999999999999,-0.74,0.59,0.42,-2.45,-7.79
8.794517874717712,3,3,3,2,-9.18,-2.27,1.13,-2.74,-3.27,-8.69
8.794517874717712,3,3,3,2,-9.18,-2.27,1.13,-2.74,-3.27,-8.69
8.814518094062805,3,3,3,2,-8.9,-1.83,0.88,-3.73,-2.03,-9.93
8.814518094062805,3,3,3,2,-8.9,-1.83,0.88,-3.73,-2.03,-9.93
8.834518074989319,3,3,3,2,-9.16,-1.16,0.02,-2.59,-1.96,-10.88
8.834518074989319,3,3,3,2,-9.16,-1.16,0.02,-2.59,-1.96,-10.88
8.854518055915833,3,3,3,2,-8.98,-1.21,0.15,-3.29,-2.93,-11.59
8.854518055915833,3,3,3,2,-8.98,-1.21,0.15,-3.29,-2.93,-11.59
8.874518036842346,3,3,3,2,-10.43,-2.81,-0.04,-4.15,-2.81,-12.22
8.874518036842346,3,3,3,2,-10.43,-2.81,-0.04,-4.15,-2.81,-12.22
8.89451801776886,3,3,3,2,-10.82,-2.66,-0.44,-2.95,-2.68,-12.82
8.89451801776886,3,3,3,2,-10.82,-2.66,-0.44,-2.95,-2.68,-12.82
8.914517998695374,3,3,3,2,-9.83,-1.59,-1.01,0.75,-1.36,-12.67
8.914517998695374,3,3,3,2,-9.83,-1.59,-1.01,0.75,-1.36,-12.67
8.934517979621887,3,3,3,2,-9.220000000000001,0.15,-1.78,2.03,-1.58,-11.05
8.934517979621887,3,3,3,2,-9.220000000000001,0.15,-1.78,2.03,-1.58,-11.05
8.954517960548401,3,3,3,3,-9.380000000000001,-1.46,-2.29,-0.47,-1.75,-8.630000000000001
8.954517960548401,3,3,3,3,-9.380000000000001,-1.46,-2.29,-0.47,-1.75,-8.630000000000001
8.974517941474915,3,3,3,3,-11.14,-1.84,-2.3,-0.6,-0.62,-5.94
8.974517941474915,3,3,3,3,-11.14,-1.84,-2.3,-0.6,-0.62,-5.94
8.994517922401428,3,3,3,3,-11.54,-1.55,-2.3,-0.48,-0.03,-3.87
8.994517922401428,3,3,3,3,-11.54,-1.55,-2.3,-0.48,-0.03,-3.87
9.014517903327942,3,3,3,3,-11.99,-0.41,-2.61,-0.59,0.65,-2.35
9.014517903327942,3,3,3,3,-11.99,-0.41,-2.61,-0.59,0.65,-2.35
9.034517884254456,3,3,3,3,-12.53,-0.29,-2.46,-1.25,1.45,0.17
9.034517884254456,3,3,3,3,-12.53,-0.29,-2.46,-1.25,1.45,0.17
9.054517865180969,3,3,3,3,-13.29,0.23,-2.38,-1.29,2.27,3.53
9.054517865180969,3,3,3,3,-13.29,0.23,-2.38,-1.29,2.27,3.53
9.074518084526062,3,3,3,3,-14.39,0.9399999999999999,-2.25,-1.39,2.77,6.97
9.074518084526062,3,3,3,3,-14.39,0.9399999999999999,-2.25,-1.39,2.77,6.97
9.094518065452576,3,3,3,3,-15.89,1.22,-2.2,-2.51,1.72,9.949999999999999
9.094518065452576,3,3,3,3,-15.89,1.22,-2.2,-2.51,1.72,9.949999999999999
9.114518046379089,3,3,3,3,-17.79,0.91,-1.98,-2.98,-0.28,12.2
9.114518046379089,3,3,3,3,-17.79,0.91,-1.98,-2.98,-0.28,12.2
9.134518027305603,3,3,3,3,-20.48,5.38,-0.76,-2.45,-1.71,14.46
9.134518027305603,3,3,3,3,-20.48,5.38,-0.76,-2.45,-1.71,14.46
9.154518008232117,3,3,3,3,-20.2,10.3,-0.02,-3.7,-0.79,18.31
9.154518008232117,3,3,3,3,-20.2,10.3,-0.02,-3.7,-0.79,18.31
9.17451798915863,3,3,3,3,-20.28,13.95,-3.02,-9.24,-0.45,24.13
9.17451798915863,3,3,3,3,-20.28,13.95,-3.02,-9.24,-0.45,24.13
9.194517970085144,3,3,3,3,-24.34,8.75,-9.48,-19.21,1.21,28.05
9.194517970085144,3,3,3,3,-24.34,8.75,-9.48,-19.21,1.21,28.05
9.214517951011658,3,3,3,3,-31.31,-8.27,-13.33,-11.55,6.34,26.5
9.214517951011658,3,3,3,3,-31.31,-8.27,-13.33,-11.55,6.34,26.5
9.234517931938171,3,3,3,3,-23.22,-14.04,-8.289999999999999,7.63,9.890000000000001,25.99
9.234517931938171,3,3,3,3,-23.22,-14.04,-8.289999999999999,7.63,9.890000000000001,25.99
9.254517912864685,3,3,3,3,-10.33,-2.02,6.69,15.63,10.74,26.53
9.254517912864685,3,3,3,3,-10.33,-2.02,6.69,15.63,10.74,26.53
9.274517893791199,3,3,3,3,-2.41,-30.57,15.32,-1.63,7,25.38
9.274517893791199,3,3,3,3,-2.41,-30.57,15.32,-1.63,7,25.38
9.294517874717712,3,3,3,3,-2.85,-23.92,17.76,6.29,0.8,1.14
9.294517874717712,3,3,3,3,-2.85,-23.92,17.76,6.29,0.8,1.14
9.314518094062805,3,3,3,3,-5.06,6.64,0.15,9.23,8.24,-4.91
9.314518094062805,3,3,3,3,-5.06,6.64,0.15,9.23,8.24,-4.91
9.334518074989319,3,3,3,3,-3.2,6.93,-1.81,-5.56,5.87,-11.58
9.334518074989319,3,3,3,3,-3.2,6.93,-1.81,-5.56,5.87,-11.58
9.354518055915833,3,3,3,3,2.65,-5.24,-4.4,-12.74,-5.81,-14.43
9.354518055915833,3,3,3,3,2.65,-5.24,-4.4,-12.74,-5.81,-14.43
9.374518036842346,3,3,3,3,0.31,3.05,-4.72,-3.61,-2.94,-13.2
9.374518036842346,3,3,3,3,0.31,3.05,-4.72,-3.61,-2.94,-13.2
9.39451801776886,3,3,3,3,1.24,4.11,-1,6.42,-3.81,-4.9
9.39451801776886,3,3,3,3,1.24,4.11,-1,6.42,-3.81,-4.9
9.414517998695374,3,3,3,3,0.51,4.04,-0.46,6.54,-3.69,-1.65
9.414517998695374,3,3,3,3,0.51,4.04,-0.46,6.54,-3.69,-1.65
9.435517907142639,3,3,3,3,0.68,1.51,-0.57,-0.13,-4.4,-1.88
9.435517907142639,3,3,3,3,0.68,1.51,-0.57,-0.13,-4.4,-1.88
9.455517888069153,3,3,3,2,-0.35,-0.97,0.2,-3.92,-3.39,-3.62
9.455517888069153,3,3,3,2,-0.35,-0.97,0.2,-3.92,-3.39,-3.62
9.475517868995667,3,3,3,2,-1.23,-1.57,0.27,-3.67,-2.37,-4.36
9.475517868995667,3,3,3,2,-1.23,-1.57,0.27,-3.67,-2.37,-4.36
9.495518088340759,3,3,3,2,0.21,-1.25,0.45,1.19,-2.59,-3.42
9.495518088340759,3,3,3,2,0.21,-1.25,0.45,1.19,-2.59,-3.42
9.515518069267273,3,3,3,2,0.96,-1.34,-0.67,7.7,-0.64,-1.75
9.515518069267273,3,3,3,2,0.96,-1.34,-0.67,7.7,-0.64,-1.75
9.535518050193787,3,3,3,2,0.12,-1.2,-1.94,11.69,0.25,0.62
9.535518050193787,3,3,3,2,0.12,-1.2,-1.94,11.69,0.25,0.62
9.5555180311203,3,3,3,2,0.36,-0.61,-1.85,14.2,-0.59,2.69
9.5555180311203,3,3,3,2,0.36,-0.61,-1.85,14.2,-0.59,2.69
9.575518012046814,3,3,3,2,0.66,-0.06,-0.12,16.38,-1.98,2.28
9.575518012046814,3,3,3,2,0.66,-0.06,-0.12,16.38,-1.98,2.28
9.595517992973328,3,3,3,2,-0.17,-0.13,1.47,16.99,-2.47,0.16
9.595517992973328,3,3,3,2,-0.17,-0.13,1.47,16.99,-2.47,0.16
9.615517973899841,3,3,3,2,-2.93,-5.64,6.31,16.01,-1.98,-1.09
9.615517973899841,3,3,3,2,-2.93,-5.64,6.31,16.01,-1.98,-1.09
9.635517954826355,3,3,3,2,-7.8,-18.96,6.5,0.51,0.98,-6.03
9.635517954826355,3,3,3,2,-7.8,-18.96,6.5,0.51,0.98,-6.03
9.655517935752869,3,3,3,2,-18.17,19.63,-0.68,-19.76,-6.68,-1.99
9.655517935752869,3,3,3,2,-18.17,19.63,-0.68,-19.76,-6.68,-1.99
9.675517916679382,3,3,3,2,-30.64,-1.23,-5.55,-15.16,-16.37,-7.45
9.675517916679382,3,3,3,2,-30.64,-1.23,-5.55,-15.16,-16.37,-7.45
9.695517897605896,3,3,3,2,-10.49,0.86,-5.61,-13.5,6.57,-14.53
9.695517897605896,3,3,3,2,-10.49,0.86,-5.61,-13.5,6.57,-14.53
9.71551787853241,3,3,3,2,-38.31,-39.08,-7.22,-22.7,2.49,-17.79
9.71551787853241,3,3,3,2,-38.31,-39.08,-7.22,-22.7,2.49,-17.79
9.735517859458923,3,3,3,2,-27.38,17.5,-4.1,10.02,-4.53,-19.58
9.735517859458923,3,3,3,2,-27.38,17.5,-4.1,10.02,-4.53,-19.58
9.755518078804016,3,3,3,2,-10.58,29.07,-1.76,39.46,7.75,-14.94
9.755518078804016,3,3,3,2,-10.58,29.07,-1.76,39.46,7.75,-14.94
9.77551805973053,3,3,3,2,-15.06,3.13,-0.51,-10.68,3.3,-10.54
9.77551805973053,3,3,3,2,-15.06,3.13,-0.51,-10.68,3.3,-10.54
9.795518040657043,3,3,3,2,-22.04,-4.36,-0.57,-23.31,-0.61,-4.68
9.795518040657043,3,3,3,2,-22.04,-4.36,-0.57,-23.31,-0.61,-4.68
9.815518021583557,3,3,3,2,-17.5,1.1,-2.09,-5.35,-0.68,-1.64
9.815518021583557,3,3,3,2,-17.5,1.1,-2.09,-5.35,-0.68,-1.64
9.835518002510071,3,3,3,2,-13.04,3.04,-2.41,4.86,-0.49,-0.53
9.835518002510071,3,3,3,2,-13.04,3.04,-2.41,4.86,-0.49,-0.53
9.855517983436584,3,3,3,2,-13.97,0.31,-1.8,3.3,-0.83,1.02
9.855517983436584,3,3,3,2,-13.97,0.31,-1.8,3.3,-0.83,1.02
9.875517964363098,3,3,3,2,-15.21,-2.3,-1.25,3.07,-1.34,4.02
9.875517964363098,3,3,3,2,-15.21,-2.3,-1.25,3.07,-1.34,4.02
9.895517945289612,3,3,3,2,-12.34,3.38,-2.02,9.130000000000001,-1.53,6.68
9.895517945289612,3,3,3,2,-12.34,3.38,-2.02,9.130000000000001,-1.53,6.68
9.915517926216125,3,3,3,2,-10.27,5.61,-2.5,5.62,-1.29,7.79
9.915517926216125,3,3,3,2,-10.27,5.61,-2.5,5.62,-1.29,7.79
9.935517907142639,3,3,3,2,-10.31,2.84,-2.36,-4.71,-0.48,5.83
9.935517907142639,3,3,3,2,-10.31,2.84,-2.36,-4.71,-0.48,5.83
9.955517888069153,3,3,3,2,-10.24,-0.47,-1.8,-10.03,0.1,5.34
9.955517888069153,3,3,3,2,-10.24,-0.47,-1.8,-10.03,0.1,5.34
9.975517868995667,3,3,3,2,-9.66,-2.27,-1.52,-10.34,0.66,5.76
9.975517868995667,3,3,3,2,-9.66,-2.27,-1.52,-10.34,0.66,5.76
9.995518088340759,3,3,3,2,-8.68,-3.48,-0.71,-7.06,1.01,6.39
9.995518088340759,3,3,3,2,-8.68,-3.48,-0.71,-7.06,1.01,6.39
10.01551806926727,3,3,3,2,-8.15,-3.61,-0.29,-2.42,1.29,6.39
10.01551806926727,3,3,3,2,-8.15,-3.61,-0.29,-2.42,1.29,6.39
10.03551805019379,3,3,3,2,-7.57,-2.25,0,1.69,1.42,6.1
10.03551805019379,3,3,3,2,-7.57,-2.25,0,1.69,1.42,6.1
10.0555180311203,3,3,3,2,-7.56,-1.56,-0.01,3.18,1.82,5.63
10.0555180311203,3,3,3,2,-7.56,-1.56,-0.01,3.18,1.82,5.63
10.07551801204681,3,3,3,2,-7.85,-0.93,-0.06,2.64,1.69,4.96
10.07551801204681,3,3,3,2,-7.85,-0.93,-0.06,2.64,1.69,4.96
10.09551799297333,3,3,3,2,-8.119999999999999,-1.33,-0.29,0.63,1.35,4.44
10.09551799297333,3,3,3,2,-8.119999999999999,-1.33,-0.29,0.63,1.35,4.44
10.11551797389984,3,3,3,2,-8.27,-2.05,-0.8100000000000001,-0.43,0.93,3.59
10.11551797389984,3,3,3,2,-8.27,-2.05,-0.8100000000000001,-0.43,0.93,3.59
10.13551795482635,3,3,3,2,-8.58,-2.88,-0.91,-0.37,1.41,3.31
10.13551795482635,3,3,3,2,-8.58,-2.88,-0.91,-0.37,1.41,3.31
10.15551793575287,3,3,3,2,-9,-3.08,-1.19,1.02,1.1,2.85
10.15551793575287,3,3,3,2,-9,-3.08,-1.19,1.02,1.1,2.85
10.17551791667938,3,3,3,2,-9.109999999999999,-2.32,-1.13,3.68,1.06,2.23
10.17551791667938,3,3,3,2,-9.109999999999999,-2.32,-1.13,3.68,1.06,2.23
10.1955178976059,3,3,3,2,-9.85,-0.93,-0.03,5.34,0.62,1.89
10.1955178976059,3,3,3,2,-9.85,-0.93,-0.03,5.34,0.62,1.89
10.21551787853241,3,3,3,2,-10,0.48,0.02,5.25,0.5600000000000001,1.83
10.21551787853241,3,3,3,2,-10,0.48,0.02,5.25,0.5600000000000001,1.83
10.23551785945892,3,3,3,2,-10,1.55,0.16,3.29,0.72,1.94
10.23551785945892,3,3,3,2,-10,1.55,0.16,3.29,0.72,1.94
10.25551807880402,3,3,3,2,-9.890000000000001,1.42,0.08,0.78,0.46,1.68
10.25551807880402,3,3,3,2,-9.890000000000001,1.42,0.08,0.78,0.46,1.68
10.27551805973053,3,3,3,2,-9.92,0.91,-0.54,-2.99,0.54,1.42
10.27551805973053,3,3,3,2,-9.92,0.91,-0.54,-2.99,0.54,1.42
10.29551804065704,3,3,3,2,-10.03,0.45,-0.9,-3.61,0.72,1.39
10.29551804065704,3,3,3,2,-10.03,0.45,-0.9,-3.61,0.72,1.39
10.31551802158356,3,3,3,2,-9.869999999999999,-0.24,-1.14,-3.6,0.97,1.5
10.31551802158356,3,3,3,2,-9.869999999999999,-0.24,-1.14,-3.6,0.97,1.5
10.33551800251007,3,3,3,2,-9.81,-0.51,-1.3,-2.96,0.99,1.53
10.33551800251007,3,3,3,2,-9.81,-0.51,-1.3,-2.96,0.99,1.53
10.35551798343658,3,3,3,2,-9.56,-0.52,-1.15,0.01,0.96,2.29
10.35551798343658,3,3,3,2,-9.56,-0.52,-1.15,0.01,0.96,2.29
10.3755179643631,3,3,3,2,-9.640000000000001,-0.58,-0.79,1.76,0.78,2.52
10.3755179643631,3,3,3,2,-9.640000000000001,-0.58,-0.79,1.76,0.78,2.52
10.39551794528961,3,3,3,2,-9.68,0.05,-0.72,2.68,0.6899999999999999,2.55
10.39551794528961,3,3,3,2,-9.68,0.05,-0.72,2.68,0.6899999999999999,2.55
10.41551792621613,3,3,3,2,-9.550000000000001,0.1,-0.61,2.89,0.5600000000000001,2.32
10.41551792621613,3,3,3,2,-9.550000000000001,0.1,-0.61,2.89,0.5600000000000001,2.32
10.43551790714264,3,3,3,2,-9.630000000000001,0.13,-0.43,2.58,0.7,2.19
10.43551790714264,3,3,3,2,-9.630000000000001,0.13,-0.43,2.58,0.7,2.19
10.45651805400848,3,3,3,2,-9.58,0.34,-0.61,1.43,0.86,1.74
10.45651805400848,3,3,3,2,-9.58,0.34,-0.61,1.43,0.86,1.74
10.476518034935,3,3,3,2,-9.550000000000001,0.38,-0.43,0.77,0.61,1.45
10.476518034935,3,3,3,2,-9.550000000000001,0.38,-0.43,0.77,0.61,1.45
10.49651801586151,3,3,3,2,-9.640000000000001,0.16,-0.22,0.11,0.35,1.1
10.49651801586151,3,3,3,2,-9.640000000000001,0.16,-0.22,0.11,0.35,1.1
10.51651799678802,3,3,3,2,-9.460000000000001,0.1,-0.46,-1.14,0.16,0.59
10.51651799678802,3,3,3,2,-9.460000000000001,0.1,-0.46,-1.14,0.16,0.59
10.53651797771454,3,3,3,2,-9.5,0.12,-0.79,-1.27,0.17,0.43
10.53651797771454,3,3,3,2,-9.5,0.12,-0.79,-1.27,0.17,0.43
10.55651795864105,3,3,3,2,-9.539999999999999,0.17,-0.82,-1.02,0.63,0.41
10.55651795864105,3,3,3,2,-9.539999999999999,0.17,-0.82,-1.02,0.63,0.41
10.57651793956757,3,3,3,2,-9.6,-0.02,-1.18,-1.03,0.54,0.15
10.57651793956757,3,3,3,2,-9.6,-0.02,-1.18,-1.03,0.54,0.15
10.59651792049408,3,3,3,2,-9.449999999999999,0.06,-1.1,-0.96,0.39,0.01
10.59651792049408,3,3,3,2,-9.449999999999999,0.06,-1.1,-0.96,0.39,0.01
10.61651790142059,3,3,3,2,-9.710000000000001,-0.17,-0.9399999999999999,-0.63,-0.3,0.27
10.61651790142059,3,3,3,2,-9.710000000000001,-0.17,-0.9399999999999999,-0.63,-0.3,0.27
10.63651788234711,3,3,3,2,-9.84,-0.16,-0.75,-0.7,-0.17,0.34
10.63651788234711,3,3,3,2,-9.84,-0.16,-0.75,-0.7,-0.17,0.34
10.65651786327362,3,3,3,2,-9.640000000000001,0.52,-1.19,0.52,0.52,0.3
10.65651786327362,3,3,3,2,-9.640000000000001,0.52,-1.19,0.52,0.52,0.3
10.67651808261871,3,3,3,2,-9.74,0.59,-1.29,1.24,0.4,0.44
10.67651808261871,3,3,3,2,-9.74,0.59,-1.29,1.24,0.4,0.44
10.69651806354523,3,3,3,2,-9.789999999999999,0.77,-1.09,1.16,0.18,0.59
10.69651806354523,3,3,3,2,-9.789999999999999,0.77,-1.09,1.16,0.18,0.59
10.71651804447174,3,3,3,2,-9.75,0.83,-1.22,0.61,0.49,0.61
10.71651804447174,3,3,3,2,-9.75,0.83,-1.22,0.61,0.49,0.61
10.73651802539825,3,3,3,2,-9.84,0.86,-1.23,0.48,0.63,0.73
10.73651802539825,3,3,3,2,-9.84,0.86,-1.23,0.48,0.63,0.73
10.75651800632477,3,3,3,2,-9.869999999999999,0.57,-1.16,-0.01,0.4,0.96
10.75651800632477,3,3,3,2,-9.869999999999999,0.57,-1.16,-0.01,0.4,0.96
10.77651798725128,3,3,3,2,-9.68,0.33,-1.17,-0.38,0.25,0.79
10.77651798725128,3,3,3,2,-9.68,0.33,-1.17,-0.38,0.25,0.79
10.7965179681778,3,3,3,2,-9.56,0.44,-1.2,-0.06,0.34,0.79
10.7965179681778,3,3,3,2,-9.56,0.44,-1.2,-0.06,0.34,0.79
10.81651794910431,3,3,3,2,-9.710000000000001,0.5,-0.93,0.2,0.42,1.02
10.81651794910431,3,3,3,2,-9.710000000000001,0.5,-0.93,0.2,0.42,1.02
10.83651793003082,3,3,3,2,-9.74,0.23,-0.84,-0.13,0.27,1.01
10.83651793003082,3,3,3,2,-9.74,0.23,-0.84,-0.13,0.27,1.01
10.85651791095734,3,3,3,2,-9.539999999999999,0.18,-0.86,-0.33,0.15,0.8
10.85651791095734,3,3,3,2,-9.539999999999999,0.18,-0.86,-0.33,0.15,0.8
10.87651789188385,3,3,3,2,-9.51,-0.02,-1.03,0.12,0.2,0.65
10.87651789188385,3,3,3,2,-9.51,-0.02,-1.03,0.12,0.2,0.65
10.89651787281036,3,3,3,3,-9.6,0.01,-0.99,0.35,0.21,0.61
10.89651787281036,3,3,3,3,-9.6,0.01,-0.99,0.35,0.21,0.61
10.91651809215546,3,3,3,3,-9.859999999999999,0.35,-1.24,0.93,0,0.55
10.91651809215546,3,3,3,3,-9.859999999999999,0.35,-1.24,0.93,0,0.55
10.93651807308197,3,3,3,3,-9.75,0.98,-1.24,0.91,-0.23,0.63
10.93651807308197,3,3,3,3,-9.75,0.98,-1.24,0.91,-0.23,0.63
10.95651805400848,3,3,3,3,-9.69,1.24,-1.28,1.19,0.26,0.84
10.95651805400848,3,3,3,3,-9.69,1.24,-1.28,1.19,0.26,0.84
10.976518034935,3,3,3,3,-9.699999999999999,0.6899999999999999,-1.17,0.5,-0.13,0.82
10.976518034935,3,3,3,3,-9.699999999999999,0.6899999999999999,-1.17,0.5,-0.13,0.82
10.99651801586151,3,3,3,3,-9.789999999999999,0.49,-1.18,0.18,-0.17,0.73
10.99651801586151,3,3,3,3,-9.789999999999999,0.49,-1.18,0.18,-0.17,0.73
11.01651799678802,3,3,3,3,-9.75,0.72,-1.21,0.67,0.03,0.76
11.01651799678802,3,3,3,3,-9.75,0.72,-1.21,0.67,0.03,0.76
11.03651797771454,3,3,3,3,-9.73,0.78,-0.98,0.62,0.01,0.68
11.03651797771454,3,3,3,3,-9.73,0.78,-0.98,0.62,0.01,0.68
11.05651795864105,3,3,3,3,-9.619999999999999,0.54,-0.95,-0.03,0.05,0.49
11.05651795864105,3,3,3,3,-9.619999999999999,0.54,-0.95,-0.03,0.05,0.49
11.07651793956757,3,3,3,3,-9.43,0.9,-1.08,0.14,0.3,0.3
11.07651793956757,3,3,3,3,-9.43,0.9,-1.08,0.14,0.3,0.3
11.09651792049408,3,3,3,3,-9.65,0.65,-0.88,0.03,0.21,0.17
11.09651792049408,3,3,3,3,-9.65,0.65,-0.88,0.03,0.21,0.17
11.11651790142059,3,3,3,3,-9.76,0.12,-0.85,-0.54,-0.35,-0.1
11.11651790142059,3,3,3,3,-9.76,0.12,-0.85,-0.54,-0.35,-0.1
11.13651788234711,3,3,3,3,-9.68,0.07000000000000001,-0.91,-0.55,-0.43,-0.23
11.13651788234711,3,3,3,3,-9.68,0.07000000000000001,-0.91,-0.55,-0.43,-0.23
11.15651786327362,3,3,3,3,-9.539999999999999,0.6,-1.01,0.67,-0.18,-0.41
11.15651786327362,3,3,3,3,-9.539999999999999,0.6,-1.01,0.67,-0.18,-0.41
11.17651808261871,3,3,3,3,-9.6,0.57,-0.99,0.65,-0.37,-0.64
11.17651808261871,3,3,3,3,-9.6,0.57,-0.99,0.65,-0.37,-0.64
11.19651806354523,3,3,3,3,-9.51,0.54,-0.98,0.55,-0.55,-0.87
11.19651806354523,3,3,3,3,-9.51,0.54,-0.98,0.55,-0.55,-0.87
11.21651804447174,3,3,3,3,-9.42,0.32,-1.01,0.42,-0.52,-1.23
11.21651804447174,3,3,3,3,-9.42,0.32,-1.01,0.42,-0.52,-1.23
11.23651802539825,3,3,3,3,-9.43,-0.3,-0.22,0.41,-0.74,-1.4
11.23651802539825,3,3,3,3,-9.43,-0.3,-0.22,0.41,-0.74,-1.4
11.25651800632477,3,3,3,3,-9.4,-1.02,0.02,-0.4,-1.7,-2.52
11.25651800632477,3,3,3,3,-9.4,-1.02,0.02,-0.4,-1.7,-2.52
11.27651798725128,3,3,3,3,-9.5,-1.25,0.02,0.63,-1.49,-3.53
11.27651798725128,3,3,3,3,-9.5,-1.25,0.02,0.63,-1.49,-3.53
11.2965179681778,3,3,3,3,-9.369999999999999,-1.1,0.06,1.09,-1.5,-3.8
11.2965179681778,3,3,3,3,-9.369999999999999,-1.1,0.06,1.09,-1.5,-3.8
11.31651794910431,3,3,3,3,-8.59,-1.59,0.02,1.42,-2.09,-4.98
11.31651794910431,3,3,3,3,-8.59,-1.59,0.02,1.42,-2.09,-4.98
11.33651793003082,3,3,3,3,-8.48,-1.76,-0.04,1.83,-1.7,-5.68
11.33651793003082,3,3,3,3,-8.48,-1.76,-0.04,1.83,-1.7,-5.68
11.35651791095734,3,3,3,3,-8.050000000000001,-2.17,0.07000000000000001,2.6,-2.42,-8.039999999999999
11.35651791095734,3,3,3,3,-8.050000000000001,-2.17,0.07000000000000001,2.6,-2.42,-8.039999999999999
11.37651789188385,3,3,3,3,-8.449999999999999,-2.72,0.79,1.98,-4.01,-9.5
11.37651789188385,3,3,3,3,-8.449999999999999,-2.72,0.79,1.98,-4.01,-9.5
11.39651787281036,3,3,3,3,-8.93,-1.97,0.59,1.57,-3.7,-10.12
11.39651787281036,3,3,3,3,-8.93,-1.97,0.59,1.57,-3.7,-10.12
11.41651809215546,3,3,3,3,-8.35,0.45,-1.29,0.99,-1.44,-11.7
11.41651809215546,3,3,3,3,-8.35,0.45,-1.29,0.99,-1.44,-11.7
11.43651807308197,3,3,3,3,-8.17,0,-0.67,0.7,-2,-11.54
11.43651807308197,3,3,3,3,-8.17,0,-0.67,0.7,-2,-11.54
11.45651805400848,3,3,3,3,-9.859999999999999,-1.84,-0.97,-2.03,-2.15,-12.62
11.45651805400848,3,3,3,3,-9.859999999999999,-1.84,-0.97,-2.03,-2.15,-12.62
11.47751796245575,3,3,3,3,-11.34,-2.8,-0.45,-1.49,-3.5,-12.56
11.47751796245575,3,3,3,3,-11.34,-2.8,-0.45,-1.49,-3.5,-12.56
11.49751794338226,3,3,3,3,-11.15,-2.72,-0.37,0.6,-3.46,-12.7
11.49751794338226,3,3,3,3,-11.15,-2.72,-0.37,0.6,-3.46,-12.7
11.51751792430878,3,3,3,3,-9.77,0.07000000000000001,0.08,4.93,-1.83,-14.38
11.51751792430878,3,3,3,3,-9.77,0.07000000000000001,0.08,4.93,-1.83,-14.38
11.53751790523529,3,3,3,3,-9.44,0.96,0.47,4.17,-2.37,-14.5
11.53751790523529,3,3,3,3,-9.44,0.96,0.47,4.17,-2.37,-14.5
11.5575178861618,3,3,3,3,-9.51,-2.08,-0.88,-2.99,-2.08,-13.65
11.5575178861618,3,3,3,3,-9.51,-2.08,-0.88,-2.99,-2.08,-13.65
11.57751786708832,3,3,3,3,-9.59,-3.21,-1.84,-3.68,-2.13,-12.2
11.57751786708832,3,3,3,3,-9.59,-3.21,-1.84,-3.68,-2.13,-12.2
11.59751808643341,3,3,3,2,-9.710000000000001,-2.94,-2.16,-2.47,-2.04,-11.17
11.59751808643341,3,3,3,2,-9.710000000000001,-2.94,-2.16,-2.47,-2.04,-11.17
11.61751806735992,3,3,3,2,-10.64,-0.38,-3.7,0.49,-0.22,-6.47
11.61751806735992,3,3,3,2,-10.64,-0.38,-3.7,0.49,-0.22,-6.47
11.63751804828644,3,3,3,2,-11.07,-0.91,-4.06,0.16,0.8,-4.48
11.63751804828644,3,3,3,2,-11.07,-0.91,-4.06,0.16,0.8,-4.48
11.65751802921295,3,3,3,2,-15.71,-3.72,-3.41,0.8100000000000001,2.29,0.76
11.65751802921295,3,3,3,2,-15.71,-3.72,-3.41,0.8100000000000001,2.29,0.76
11.67751801013947,3,3,3,2,-17.45,-1.61,-2.06,1.93,1.68,3.45
11.67751801013947,3,3,3,2,-17.45,-1.61,-2.06,1.93,1.68,3.45
11.69751799106598,3,3,3,2,-17.25,-0.06,-1.28,2.65,1.82,4.28
11.69751799106598,3,3,3,2,-17.25,-0.06,-1.28,2.65,1.82,4.28
11.71751797199249,3,3,3,2,-15.44,3.47,1.03,-2.88,2.46,7.06
11.71751797199249,3,3,3,2,-15.44,3.47,1.03,-2.88,2.46,7.06
11.73751795291901,3,3,3,2,-15.49,3.72,0.84,-8.19,0.7,11.45
11.73751795291901,3,3,3,2,-15.49,3.72,0.84,-8.19,0.7,11.45
11.75751793384552,3,3,3,2,-17.92,3,-2.21,-10.55,-2.91,16.83
11.75751793384552,3,3,3,2,-17.92,3,-2.21,-10.55,-2.91,16.83
11.77751791477203,3,3,3,2,-21.18,2.94,-5.4,-10.16,-5.42,22.37
11.77751791477203,3,3,3,2,-21.18,2.94,-5.4,-10.16,-5.42,22.37
11.79751789569855,3,3,3,2,-23.24,3.35,-6.28,-4.86,-5.06,26.28
11.79751789569855,3,3,3,2,-23.24,3.35,-6.28,-4.86,-5.06,26.28
11.81751787662506,3,3,3,2,-27.17,5.62,-8.300000000000001,0.62,1.01,27.6
11.81751787662506,3,3,3,2,-27.17,5.62,-8.300000000000001,0.62,1.01,27.6
11.83751785755157,3,3,3,2,-26.16,4.18,-7.67,4.64,7.16,28.92
11.83751785755157,3,3,3,2,-26.16,4.18,-7.67,4.64,7.16,28.92
11.85751807689667,3,3,3,2,-19.1,-3.18,2.69,10.54,9.65,28.69
11.85751807689667,3,3,3,2,-19.1,-3.18,2.69,10.54,9.65,28.69
11.87751805782318,3,3,3,2,-9.51,0.37,5.01,2.3,9.890000000000001,24.87
11.87751805782318,3,3,3,2,-9.51,0.37,5.01,2.3,9.890000000000001,24.87
11.89751803874969,3,3,3,2,-5.43,-21.9,3.06,-5.35,7.97,21
11.89751803874969,3,3,3,2,-5.43,-21.9,3.06,-5.35,7.97,21
11.91751801967621,3,3,3,2,-4.73,-38.95,16.18,12.81,-3.53,2.52
11.91751801967621,3,3,3,2,-4.73,-38.95,16.18,12.81,-3.53,2.52
11.93751800060272,3,3,3,2,-5.34,-4.65,5.32,28.11,6.37,-0.04
11.93751800060272,3,3,3,2,-5.34,-4.65,5.32,28.11,6.37,-0.04
11.95751798152924,3,3,3,2,-2.76,9.75,2.61,-0.5,1.41,-2.93
11.95751798152924,3,3,3,2,-2.76,9.75,2.61,-0.5,1.41,-2.93
11.97751796245575,3,3,3,2,2.46,6.62,-5.6,-12.07,-2.84,-9.94
11.97751796245575,3,3,3,2,2.46,6.62,-5.6,-12.07,-2.84,-9.94
11.99751794338226,3,3,3,2,4.84,7.72,-3.77,-14.52,-3.36,-10.81
11.99751794338226,3,3,3,2,4.84,7.72,-3.77,-14.52,-3.36,-10.81
12.01751792430878,3,3,3,2,-0.02,6,-3.25,-6.8,-1.67,-9.56
12.01751792430878,3,3,3,2,-0.02,6,-3.25,-6.8,-1.67,-9.56
12.03751790523529,3,3,3,2,-0.17,1.27,-2.75,-13.05,-5.69,-6.04
12.03751790523529,3,3,3,2,-0.17,1.27,-2.75,-13.05,-5.69,-6.04
12.0575178861618,3,3,3,2,1.1,-1.48,-2.15,-14.5,-4.35,-2.8
12.0575178861618,3,3,3,2,1.1,-1.48,-2.15,-14.5,-4.35,-2.8
12.07751786708832,3,3,3,2,1.13,-1.08,-1.53,-10.01,-2.43,-2.22
12.07751786708832,3,3,3,2,1.13,-1.08,-1.53,-10.01,-2.43,-2.22
12.09751808643341,3,3,3,2,0.9,0.51,-0.63,-2.35,-0.55,-2.58
12.09751808643341,3,3,3,2,0.9,0.51,-0.63,-2.35,-0.55,-2.58
12.11751806735992,3,3,3,2,0.59,0.93,-0.51,3.19,-0.27,-2.83
12.11751806735992,3,3,3,2,0.59,0.93,-0.51,3.19,-0.27,-2.83
12.13751804828644,3,3,3,2,0.8,-0.18,-0.49,5.83,-0.92,-2.74
12.13751804828644,3,3,3,2,0.8,-0.18,-0.49,5.83,-0.92,-2.74
12.15751802921295,3,3,3,2,-0.04,-0.17,-0.47,5.29,0.97,-2
12.15751802921295,3,3,3,2,-0.04,-0.17,-0.47,5.29,0.97,-2
12.17751801013947,3,3,3,2,-0.42,2.05,-1.33,6.01,1.68,-0.32
12.17751801013947,3,3,3,2,-0.42,2.05,-1.33,6.01,1.68,-0.32
12.19751799106598,3,3,3,2,0.01,-1.08,-1.1,4.53,0.93,2.04
12.19751799106598,3,3,3,2,0.01,-1.08,-1.1,4.53,0.93,2.04
12.21751797199249,3,3,3,2,-0.46,-4.01,0.47,5.82,0.85,1.4
12.21751797199249,3,3,3,2,-0.46,-4.01,0.47,5.82,0.85,1.4
12.23751795291901,3,3,3,2,-0.91,-4.99,0.63,14.72,0.72,0.9
12.23751795291901,3,3,3,2,-0.91,-4.99,0.63,14.72,0.72,0.9
12.25751793384552,3,3,3,2,-2.9,-12.5,6.5,16.22,1.97,0
12.25751793384552,3,3,3,2,-2.9,-12.5,6.5,16.22,1.97,0
12.27751791477203,3,3,3,2,-8.44,-6.84,5.82,0.75,5.07,-7.05
12.27751791477203,3,3,3,2,-8.44,-6.84,5.82,0.75,5.07,-7.05
12.29751789569855,3,3,3,2,-18.92,18.19,5.84,11.85,-17.35,1.9
12.29751789569855,3,3,3,2,-18.92,18.19,5.84,11.85,-17.35,1.9
12.31751787662506,3,3,3,2,-37.47,2.79,-7.65,-18.59,-6.46,-7.98
12.31751787662506,3,3,3,2,-37.47,2.79,-7.65,-18.59,-6.46,-7.98
12.33751785755157,3,3,3,2,-11.25,-4.26,-5.7,-18.49,0.49,-14.78
12.33751785755157,3,3,3,2,-11.25,-4.26,-5.7,-18.49,0.49,-14.78
12.35751807689667,3,3,3,2,-39.24,-18.73,-8.720000000000001,-15.55,-0.63,-17.79
12.35751807689667,3,3,3,2,-39.24,-18.73,-8.720000000000001,-15.55,-0.63,-17.79
12.37751805782318,3,3,3,2,-27.36,11.15,-2.31,14.7,-0.85,-12.2
12.37751805782318,3,3,3,2,-27.36,11.15,-2.31,14.7,-0.85,-12.2
12.39751803874969,3,3,3,2,-12.99,18.02,1.67,17.19,6.49,-10.01
12.39751803874969,3,3,3,2,-12.99,18.02,1.67,17.19,6.49,-10.01
12.41751801967621,3,3,3,2,-14.39,9.890000000000001,-0.53,-4.38,3,-7.33
12.41751801967621,3,3,3,2,-14.39,9.890000000000001,-0.53,-4.38,3,-7.33
12.43751800060272,3,3,3,2,-16.97,3.06,-0.6,-9.85,-1.7,-1.01
12.43751800060272,3,3,3,2,-16.97,3.06,-0.6,-9.85,-1.7,-1.01
12.45751798152924,3,3,3,2,-17.46,1.69,-1.64,-3.98,-2.12,3.02
12.45751798152924,3,3,3,2,-17.46,1.69,-1.64,-3.98,-2.12,3.02
12.47751796245575,3,3,3,2,-13.2,2.52,-2.82,3.89,-0.9,5.23
12.47751796245575,3,3,3,2,-13.2,2.52,-2.82,3.89,-0.9,5.23
12.49851787090302,3,3,3,2,-13.27,0.9,-2.72,5.37,-0.45,6.17
12.49851787090302,3,3,3,2,-13.27,0.9,-2.72,5.37,-0.45,6.17
12.51851809024811,3,3,3,2,-11.92,0.35,-2.16,5.38,0.1,6.97
12.51851809024811,3,3,3,2,-11.92,0.35,-2.16,5.38,0.1,6.97
12.53851807117462,3,3,3,2,-10.09,2.35,-1.47,6.14,1.23,7.18
12.53851807117462,3,3,3,2,-10.09,2.35,-1.47,6.14,1.23,7.18
12.55851805210114,3,3,3,2,-8.17,3.33,-1.28,2.13,2.36,7.33
12.55851805210114,3,3,3,2,-8.17,3.33,-1.28,2.13,2.36,7.33
12.57851803302765,3,3,3,2,-8.32,2.65,-1.5,-4.34,3.88,6.69
12.57851803302765,3,3,3,2,-8.32,2.65,-1.5,-4.34,3.88,6.69
12.59851801395416,3,3,3,2,-7.88,0.1,-1.49,-8.52,4.85,5.98
12.59851801395416,3,3,3,2,-7.88,0.1,-1.49,-8.52,4.85,5.98
12.61851799488068,3,3,3,2,-7.36,-1.76,-1.64,-8.58,4.26,6.04
12.61851799488068,3,3,3,2,-7.36,-1.76,-1.64,-8.58,4.26,6.04
12.63851797580719,3,3,3,2,-6.86,-2.93,-0.86,-4.82,3.52,6.63
12.63851797580719,3,3,3,2,-6.86,-2.93,-0.86,-4.82,3.52,6.63
12.6585179567337,3,3,3,2,-6.88,-2.84,-1.06,0.3,2.84,7.32
12.6585179567337,3,3,3,2,-6.88,-2.84,-1.06,0.3,2.84,7.32
12.67851793766022,3,3,3,2,-7.56,-2.96,-0.74,4.07,2.28,7.55
12.67851793766022,3,3,3,2,-7.56,-2.96,-0.74,4.07,2.28,7.55
12.69851791858673,3,3,3,2,-8.359999999999999,-1.85,-0.57,5.84,1.92,6.51
12.69851791858673,3,3,3,2,-8.359999999999999,-1.85,-0.57,5.84,1.92,6.51
12.71851789951324,3,3,3,2,-9.18,-1.01,-0.86,5.29,2.29,5.48
12.71851789951324,3,3,3,2,-9.18,-1.01,-0.86,5.29,2.29,5.48
12.73851788043976,3,3,3,2,-9.27,-0.85,-0.8100000000000001,3.81,2.65,4.08
12.73851788043976,3,3,3,2,-9.27,-0.85,-0.8100000000000001,3.81,2.65,4.08
12.75851786136627,3,3,3,2,-9.42,-1.16,-0.87,2.62,1.97,2.87
12.75851786136627,3,3,3,2,-9.42,-1.16,-0.87,2.62,1.97,2.87
12.77851808071136,3,3,3,2,-9.81,-0.03,-1.55,2.15,2.41,2.9
12.77851808071136,3,3,3,2,-9.81,-0.03,-1.55,2.15,2.41,2.9
12.79851806163788,3,3,3,2,-10.59,1.81,-1.35,3.28,2.49,3.16
12.79851806163788,3,3,3,2,-10.59,1.81,-1.35,3.28,2.49,3.16
12.81851804256439,3,3,3,2,-11.07,2.03,-0.85,2.2,1.57,2.88
12.81851804256439,3,3,3,2,-11.07,2.03,-0.85,2.2,1.57,2.88
12.83851802349091,3,3,3,2,-10.4,2.05,-0.39,1.05,1.23,3.02
12.83851802349091,3,3,3,2,-10.4,2.05,-0.39,1.05,1.23,3.02
12.85851800441742,3,3,3,2,-9.970000000000001,2.52,-0.47,-0.24,1.49,3
12.85851800441742,3,3,3,2,-9.970000000000001,2.52,-0.47,-0.24,1.49,3
12.87851798534393,3,3,3,2,-9.65,1.97,-0.6899999999999999,-1.16,2.2,3.42
12.87851798534393,3,3,3,2,-9.65,1.97,-0.6899999999999999,-1.16,2.2,3.42
12.89851796627045,3,3,3,2,-8.91,0.86,-1.36,-2.26,2.41,3.67
12.89851796627045,3,3,3,2,-8.91,0.86,-1.36,-2.26,2.41,3.67
12.91851794719696,3,3,3,2,-8.789999999999999,0.06,-1.82,-2.71,1.54,3.59
12.91851794719696,3,3,3,2,-8.789999999999999,0.06,-1.82,-2.71,1.54,3.59
12.93851792812347,3,3,3,2,-8.94,-0.14,-1.69,-2.79,1.25,3.08
12.93851792812347,3,3,3,2,-8.94,-0.14,-1.69,-2.79,1.25,3.08
12.95851790904999,3,3,3,2,-9.48,-0.15,-1.47,-0.63,0.78,2.97
12.95851790904999,3,3,3,2,-9.48,-0.15,-1.47,-0.63,0.78,2.97
12.9785178899765,3,3,3,2,-9.890000000000001,0.13,-1.41,2.14,-0.32,3.19
12.9785178899765,3,3,3,2,-9.890000000000001,0.13,-1.41,2.14,-0.32,3.19
12.99851787090302,3,3,3,2,-9.890000000000001,0.44,-1.52,4.9,-1.04,3.79
12.99851787090302,3,3,3,2,-9.890000000000001,0.44,-1.52,4.9,-1.04,3.79
13.01851809024811,3,3,3,2,-9.82,1.07,-1.89,6.15,-1.29,3.74
13.01851809024811,3,3,3,2,-9.82,1.07,-1.89,6.15,-1.29,3.74
13.03851807117462,3,3,3,2,-9.65,1.45,-1.88,6.02,-0.74,4.29
13.03851807117462,3,3,3,2,-9.65,1.45,-1.88,6.02,-0.74,4.29
13.05851805210114,3,3,3,2,-9.220000000000001,2.3,-0.9,4.38,0.07000000000000001,4.01
13.05851805210114,3,3,3,2,-9.220000000000001,2.3,-0.9,4.38,0.07000000000000001,4.01
13.07851803302765,3,3,3,2,-9.16,2.29,-1.09,3.1,0.53,3.99
13.07851803302765,3,3,3,2,-9.16,2.29,-1.09,3.1,0.53,3.99
13.09851801395416,3,3,3,2,-9.390000000000001,1.24,-0.96,1.01,0.62,3.11
13.09851801395416,3,3,3,2,-9.390000000000001,1.24,-0.96,1.01,0.62,3.11
13.11851799488068,3,3,3,2,-9.56,-0.19,-1.17,0.29,0.43,2.17
13.11851799488068,3,3,3,2,-9.56,-0.19,-1.17,0.29,0.43,2.17
13.13851797580719,3,3,3,2,-9.869999999999999,-0.59,-0.38,-0.23,1.02,1.03
13.13851797580719,3,3,3,2,-9.869999999999999,-0.59,-0.38,-0.23,1.02,1.03
13.1585179567337,3,3,3,2,-9.83,-0.23,-0.58,0.58,0.91,0.01
13.1585179567337,3,3,3,2,-9.83,-0.23,-0.58,0.58,0.91,0.01
13.17851793766022,3,3,3,2,-9.75,1.29,-1.1,0.16,0.59,-0.53
13.17851793766022,3,3,3,2,-9.75,1.29,-1.1,0.16,0.59,-0.53
13.19851791858673,3,3,3,2,-9.859999999999999,1.89,-1.6,0.2,0.82,-0.79
13.19851791858673,3,3,3,2,-9.859999999999999,1.89,-1.6,0.2,0.82,-0.79
13.21851789951324,3,3,3,2,-9.43,1.91,-2.01,0.28,0.37,-0.5
13.21851789951324,3,3,3,2,-9.43,1.91,-2.01,0.28,0.37,-0.5
13.23851788043976,3,3,3,2,-9.26,1.89,-1.94,-0.44,-0.03,-0.58
13.23851788043976,3,3,3,2,-9.26,1.89,-1.94,-0.44,-0.03,-0.58
13.25851786136627,3,3,3,2,-9.49,1.87,-1.9,-0.73,0.35,-0.59
13.25851786136627,3,3,3,2,-9.49,1.87,-1.9,-0.73,0.35,-0.59
13.27851808071136,3,3,3,2,-9.51,1.8,-1.72,-1.15,0.41,-0.71
13.27851808071136,3,3,3,2,-9.51,1.8,-1.72,-1.15,0.41,-0.71
13.29851806163788,3,3,3,2,-9.41,1.77,-1.73,-1.59,0.23,-0.5600000000000001
13.29851806163788,3,3,3,2,-9.41,1.77,-1.73,-1.59,0.23,-0.5600000000000001
13.31851804256439,3,3,3,2,-9.34,1.51,-1.9,-1.28,-0.04,-0.32
13.31851804256439,3,3,3,2,-9.34,1.51,-1.9,-1.28,-0.04,-0.32
13.33851802349091,3,3,3,2,-9.449999999999999,1.4,-1.78,-0.45,-0.4,-0.25
13.33851802349091,3,3,3,2,-9.449999999999999,1.4,-1.78,-0.45,-0.4,-0.25
13.35851800441742,3,3,3,2,-9.460000000000001,1.45,-1.75,0.54,-0.36,-0.12
13.35851800441742,3,3,3,2,-9.460000000000001,1.45,-1.75,0.54,-0.36,-0.12
13.37851798534393,3,3,3,2,-9.49,1.41,-1.47,0.85,-0.31,0.06
13.37851798534393,3,3,3,2,-9.49,1.41,-1.47,0.85,-0.31,0.06
13.39851796627045,3,3,3,2,-9.619999999999999,1.51,-1.62,0.68,-0.26,0.09
13.39851796627045,3,3,3,2,-9.619999999999999,1.51,-1.62,0.68,-0.26,0.09
13.41851794719696,3,3,3,2,-9.449999999999999,1.43,-1.47,0.5600000000000001,-0.19,-0.04
13.41851794719696,3,3,3,2,-9.449999999999999,1.43,-1.47,0.5600000000000001,-0.19,-0.04
13.43851792812347,3,3,3,2,-9.57,1.39,-1.58,0.35,-0.3,-0.05
13.43851792812347,3,3,3,2,-9.57,1.39,-1.58,0.35,-0.3,-0.05
13.45851790904999,3,3,3,2,-9.57,1.83,-1.73,-0.13,-0.03,-0.07000000000000001
13.45851790904999,3,3,3,2,-9.57,1.83,-1.73,-0.13,-0.03,-0.07000000000000001
13.4785178899765,3,3,3,2,-9.6,1.71,-1.67,-0.49,-0.11,-0.05
13.4785178899765,3,3,3,2,-9.6,1.71,-1.67,-0.49,-0.11,-0.05
13.49851787090302,3,3,3,2,-9.4,1.69,-1.52,-1.14,-0.05,-0.18
13.49851787090302,3,3,3,2,-9.4,1.69,-1.52,-1.14,-0.05,-0.18
13.51951801776886,3,3,3,2,-9.51,1.57,-1.66,-1.24,-0.06,-0.2
13.51951801776886,3,3,3,2,-9.51,1.57,-1.66,-1.24,-0.06,-0.2
13.53951799869537,3,3,3,2,-9.550000000000001,1.59,-1.57,-1.09,0.01,-0.11
13.53951799869537,3,3,3,2,-9.550000000000001,1.59,-1.57,-1.09,0.01,-0.11
13.55951797962189,3,3,3,2,-9.470000000000001,1.45,-1.67,-0.63,-0.11,0.08
13.55951797962189,3,3,3,2,-9.470000000000001,1.45,-1.67,-0.63,-0.11,0.08
13.5795179605484,3,3,3,2,-9.5,1.54,-1.64,-0.01,-0.4,0.25
13.5795179605484,3,3,3,2,-9.5,1.54,-1.64,-0.01,-0.4,0.25
13.59951794147491,3,3,3,2,-9.49,1.59,-1.64,0.54,-0.5600000000000001,0.46
13.59951794147491,3,3,3,2,-9.49,1.59,-1.64,0.54,-0.5600000000000001,0.46
13.61951792240143,3,3,3,2,-9.529999999999999,1.66,-1.64,0.55,-0.85,0.62
13.61951792240143,3,3,3,2,-9.529999999999999,1.66,-1.64,0.55,-0.85,0.62
13.63951790332794,3,3,3,2,-9.58,1.87,-1.47,0.26,-0.91,0.59
13.63951790332794,3,3,3,2,-9.58,1.87,-1.47,0.26,-0.91,0.59
13.65951788425446,3,3,3,2,-9.51,1.85,-1.79,-0.31,-0.55,0.48
13.65951788425446,3,3,3,2,-9.51,1.85,-1.79,-0.31,-0.55,0.48
13.67951786518097,3,3,3,2,-9.4,1.74,-1.5,-0.86,-0.42,0.36
13.67951786518097,3,3,3,2,-9.4,1.74,-1.5,-0.86,-0.42,0.36
13.69951808452606,3,3,3,2,-9.5,1.5,-1.55,-0.89,-0.38,0.37
13.69951808452606,3,3,3,2,-9.5,1.5,-1.55,-0.89,-0.38,0.37
13.71951806545258,3,3,3,2,-9.550000000000001,1.56,-1.5,-0.73,-0.21,0.44
13.71951806545258,3,3,3,2,-9.550000000000001,1.56,-1.5,-0.73,-0.21,0.44
13.73951804637909,3,3,3,2,-9.52,1.43,-1.55,-0.12,-0.35,0.63
13.73951804637909,3,3,3,2,-9.52,1.43,-1.55,-0.12,-0.35,0.63
13.7595180273056,3,3,3,2,-9.539999999999999,1.59,-1.41,0.15,-0.4,0.64
13.7595180273056,3,3,3,2,-9.539999999999999,1.59,-1.41,0.15,-0.4,0.64
13.77951800823212,3,3,3,2,-9.6,1.57,-1.38,0.5600000000000001,-0.57,0.78
13.77951800823212,3,3,3,2,-9.6,1.57,-1.38,0.5600000000000001,-0.57,0.78
13.79951798915863,3,3,3,3,-9.470000000000001,1.62,-1.57,0.65,-0.85,0.96
13.79951798915863,3,3,3,3,-9.470000000000001,1.62,-1.57,0.65,-0.85,0.96
13.81951797008514,3,3,3,3,-9.529999999999999,1.72,-1.38,0.32,-0.65,0.88
13.81951797008514,3,3,3,3,-9.529999999999999,1.72,-1.38,0.32,-0.65,0.88
13.83951795101166,3,3,3,3,-9.380000000000001,1.78,-1.31,0.3,-0.6899999999999999,0.9
13.83951795101166,3,3,3,3,-9.380000000000001,1.78,-1.31,0.3,-0.6899999999999999,0.9
13.85951793193817,3,3,3,3,-9.42,1.84,-1.4,0.15,-0.5600000000000001,0.89
13.85951793193817,3,3,3,3,-9.42,1.84,-1.4,0.15,-0.5600000000000001,0.89
13.87951791286469,3,3,3,3,-9.470000000000001,1.87,-1.42,-0.04,-0.72,1.11
13.87951791286469,3,3,3,3,-9.470000000000001,1.87,-1.42,-0.04,-0.72,1.11
13.8995178937912,3,3,3,3,-9.52,1.92,-1.45,0.03,-0.51,1.26
13.8995178937912,3,3,3,3,-9.52,1.92,-1.45,0.03,-0.51,1.26
13.91951787471771,3,3,3,3,-9.710000000000001,1.91,-1.58,-0.06,0.02,0.8
13.91951787471771,3,3,3,3,-9.710000000000001,1.91,-1.58,-0.06,0.02,0.8
13.93951809406281,3,3,3,3,-9.48,2.05,-1.29,-0.18,0.05,0.31
13.93951809406281,3,3,3,3,-9.48,2.05,-1.29,-0.18,0.05,0.31
13.95951807498932,3,3,3,3,-9.359999999999999,1.99,-1.6,0.03,0.2,0.46
13.95951807498932,3,3,3,3,-9.359999999999999,1.99,-1.6,0.03,0.2,0.46
13.97951805591583,3,3,3,3,-9.390000000000001,1.89,-1.52,-0.19,0.01,0.7
13.97951805591583,3,3,3,3,-9.390000000000001,1.89,-1.52,-0.19,0.01,0.7
13.99951803684235,3,3,3,3,-9.49,1.73,-1.49,0.16,-0.14,0.7
13.99951803684235,3,3,3,3,-9.49,1.73,-1.49,0.16,-0.14,0.7
14.01951801776886,3,3,3,3,-9.57,1.95,-1.39,0.43,-0.06,0.51
14.01951801776886,3,3,3,3,-9.57,1.95,-1.39,0.43,-0.06,0.51
14.03951799869537,3,3,3,3,-9.529999999999999,2.16,-1.39,0.47,0.08,0.48
14.03951799869537,3,3,3,3,-9.529999999999999,2.16,-1.39,0.47,0.08,0.48
14.05951797962189,3,3,3,3,-9.43,2.07,-1.46,-0.05,-0.03,0.5
14.05951797962189,3,3,3,3,-9.43,2.07,-1.46,-0.05,-0.03,0.5
14.0795179605484,3,3,3,3,-9.33,1.87,-1.41,-0.18,-0.01,0.5600000000000001
14.0795179605484,3,3,3,3,-9.33,1.87,-1.41,-0.18,-0.01,0.5600000000000001
14.09951794147491,3,3,3,3,-9.470000000000001,1.8,-1.4,-0.08,0.14,0.5600000000000001
14.09951794147491,3,3,3,3,-9.470000000000001,1.8,-1.4,-0.08,0.14,0.5600000000000001
14.11951792240143,3,3,3,3,-9.699999999999999,2.11,-1.35,0.11,0.15,0.27
14.11951792240143,3,3,3,3,-9.699999999999999,2.11,-1.35,0.11,0.15,0.27
14.13951790332794,3,3,3,3,-9.52,2.05,-1.34,0.1,0.12,0.09
14.13951790332794,3,3,3,3,-9.52,2.05,-1.34,0.1,0.12,0.09
14.15951788425446,3,3,3,3,-9.369999999999999,1.9,-1.56,-0.11,0.23,0.35
14.15951788425446,3,3,3,3,-9.369999999999999,1.9,-1.56,-0.11,0.23,0.35
14.17951786518097,3,3,3,3,-9.4,1.9,-1.47,0.06,0.03,0.59
14.17951786518097,3,3,3,3,-9.4,1.9,-1.47,0.06,0.03,0.59
14.19951808452606,3,3,3,3,-9.57,1.88,-1.45,0.32,0.06,0.47
14.19951808452606,3,3,3,3,-9.57,1.88,-1.45,0.32,0.06,0.47
14.21951806545258,3,3,3,3,-9.619999999999999,1.99,-1.38,0.48,0.06,0.09
14.21951806545258,3,3,3,3,-9.619999999999999,1.99,-1.38,0.48,0.06,0.09
14.23951804637909,3,3,3,3,-9.380000000000001,2.04,-1.34,0.32,0.16,0.09
14.23951804637909,3,3,3,3,-9.380000000000001,2.04,-1.34,0.32,0.16,0.09
14.2595180273056,3,3,3,3,-9.33,1.97,-1.59,0.02,0.09,0.48
14.2595180273056,3,3,3,3,-9.33,1.97,-1.59,0.02,0.09,0.48
14.27951800823212,3,3,3,3,-9.449999999999999,1.99,-1.44,0.09,-0.01,0.58
14.27951800823212,3,3,3,3,-9.449999999999999,1.99,-1.44,0.09,-0.01,0.58
14.29951798915863,3,3,3,3,-9.56,1.99,-1.44,0.07000000000000001,0.11,0.48
14.29951798915863,3,3,3,3,-9.56,1.99,-1.44,0.07000000000000001,0.11,0.48
14.31951797008514,3,3,3,3,-9.470000000000001,2,-1.43,-0.14,0.18,0.23
14.31951797008514,3,3,3,3,-9.470000000000001,2,-1.43,-0.14,0.18,0.23
14.33951795101166,3,3,3,3,-9.4,2.09,-1.43,-0.17,0.3,0.2
14.33951795101166,3,3,3,3,-9.4,2.09,-1.43,-0.17,0.3,0.2
14.35951793193817,3,3,3,3,-9.449999999999999,2.05,-1.59,-0.26,0.25,0.39
14.35951793193817,3,3,3,3,-9.449999999999999,2.05,-1.59,-0.26,0.25,0.39
14.37951791286469,3,3,3,3,-9.4,2.09,-1.49,-0.18,0.25,0.48
14.37951791286469,3,3,3,3,-9.4,2.09,-1.49,-0.18,0.25,0.48
14.3995178937912,3,3,3,3,-9.44,2.01,-1.44,-0.24,0.17,0.42
14.3995178937912,3,3,3,3,-9.44,2.01,-1.44,-0.24,0.17,0.42
14.41951787471771,3,3,3,3,-9.470000000000001,1.94,-1.46,-0.25,0.17,0.22
14.41951787471771,3,3,3,3,-9.470000000000001,1.94,-1.46,-0.25,0.17,0.22
14.43951809406281,3,3,3,3,-9.460000000000001,2.07,-1.45,-0.12,0.25,0.16
14.43951809406281,3,3,3,3,-9.460000000000001,2.07,-1.45,-0.12,0.25,0.16
14.45951807498932,3,3,3,3,-9.470000000000001,2.05,-1.59,-0.14,0.25,0.22
14.45951807498932,3,3,3,3,-9.470000000000001,2.05,-1.59,-0.14,0.25,0.22
14.47951805591583,3,3,3,3,-9.449999999999999,2.07,-1.49,-0.08,0.12,0.11
14.47951805591583,3,3,3,3,-9.449999999999999,2.07,-1.49,-0.08,0.12,0.11
14.5005179643631,3,3,3,2,-9.4,1.97,-1.48,-0.03,0.18,0.16
14.5005179643631,3,3,3,2,-9.4,1.97,-1.48,-0.03,0.18,0.16
14.51951801776886,3,3,3,2,-9.43,1.95,-1.54,-0.06,0.17,0.2
14.51951801776886,3,3,3,2,-9.43,1.95,-1.54,-0.06,0.17,0.2
14.53951799869537,3,3,3,2,-9.49,2.07,-1.46,0,0.29,0.3
14.53951799869537,3,3,3,2,-9.49,2.07,-1.46,0,0.29,0.3
14.56051790714264,3,3,3,2,-9.48,2.11,-1.68,-0.2,0.22,0.32
14.56051790714264,3,3,3,2,-9.48,2.11,-1.68,-0.2,0.22,0.32
14.58051788806915,3,3,3,2,-9.44,2.13,-1.45,-0.21,0.19,0.1
14.58051788806915,3,3,3,2,-9.44,2.13,-1.45,-0.21,0.19,0.1
14.60051786899567,3,3,3,2,-9.35,2.02,-1.44,-0.18,0.13,0.03
14.60051786899567,3,3,3,2,-9.35,2.02,-1.44,-0.18,0.13,0.03
14.62051808834076,3,3,3,2,-9.42,2.06,-1.57,-0.16,0.26,0.05
14.62051808834076,3,3,3,2,-9.42,2.06,-1.57,-0.16,0.26,0.05
14.64051806926727,3,3,3,2,-9.4,2.03,-1.49,-0.11,0.17,0.16
14.64051806926727,3,3,3,2,-9.4,2.03,-1.49,-0.11,0.17,0.16
14.66051805019379,3,3,3,2,-9.44,2.07,-1.65,-0.14,0.26,0.3
14.66051805019379,3,3,3,2,-9.44,2.07,-1.65,-0.14,0.26,0.3
14.6805180311203,3,3,3,2,-9.52,2.06,-1.65,-0.19,0.12,0.24
14.6805180311203,3,3,3,2,-9.52,2.06,-1.65,-0.19,0.12,0.24
14.70051801204681,3,3,3,2,-9.460000000000001,2.11,-1.55,-0.06,0.02,0.02
14.70051801204681,3,3,3,2,-9.460000000000001,2.11,-1.55,-0.06,0.02,0.02
14.72051799297333,3,3,3,2,-9.44,2.13,-1.57,-0.04,0.18,-0.04
14.72051799297333,3,3,3,2,-9.44,2.13,-1.57,-0.04,0.18,-0.04
14.74051797389984,3,3,3,2,-9.390000000000001,2.02,-1.52,-0.09,0.15,-0.09
14.74051797389984,3,3,3,2,-9.390000000000001,2.02,-1.52,-0.09,0.15,-0.09
14.76051795482635,3,3,3,2,-9.42,2.04,-1.66,-0.04,-0.01,-0.04
14.76051795482635,3,3,3,2,-9.42,2.04,-1.66,-0.04,-0.01,-0.04
14.78051793575287,3,3,3,2,-9.49,2.06,-1.55,-0.03,0.2,-0.06
14.78051793575287,3,3,3,2,-9.49,2.06,-1.55,-0.03,0.2,-0.06
14.80051791667938,3,3,3,2,-9.43,1.95,-1.56,0.05,0.03,-0.09
14.80051791667938,3,3,3,2,-9.43,1.95,-1.56,0.05,0.03,-0.09
14.8205178976059,3,3,3,2,-9.43,1.98,-1.52,0.27,-0.04,-0.15
14.8205178976059,3,3,3,2,-9.43,1.98,-1.52,0.27,-0.04,-0.15
14.84051787853241,3,3,3,2,-9.43,1.98,-1.57,0.31,-0.06,0.11
14.84051787853241,3,3,3,2,-9.43,1.98,-1.57,0.31,-0.06,0.11
14.86051785945892,3,3,3,2,-9.42,2,-1.66,0.27,0.08,0.08
14.86051785945892,3,3,3,2,-9.42,2,-1.66,0.27,0.08,0.08
14.88051807880402,3,3,3,2,-9.390000000000001,1.99,-1.57,0.24,0.04,0.15
14.88051807880402,3,3,3,2,-9.390000000000001,1.99,-1.57,0.24,0.04,0.15
14.90051805973053,3,3,3,2,-9.529999999999999,2.01,-1.56,0.34,-0.08,-0.08
14.90051805973053,3,3,3,2,-9.529999999999999,2.01,-1.56,0.34,-0.08,-0.08
14.92051804065704,3,3,3,2,-9.48,2.06,-1.55,0.37,-0.23,-0.18
14.92051804065704,3,3,3,2,-9.48,2.06,-1.55,0.37,-0.23,-0.18
14.94051802158356,3,3,3,3,-9.42,2.06,-1.62,0.22,0.02,-0.13
14.94051802158356,3,3,3,3,-9.42,2.06,-1.62,0.22,0.02,-0.13
14.96051800251007,3,3,3,3,-9.390000000000001,2.03,-1.64,0.36,-0.08,-0.03
14.96051800251007,3,3,3,3,-9.390000000000001,2.03,-1.64,0.36,-0.08,-0.03
14.98051798343658,3,3,3,3,-9.59,2,-1.67,0.89,-0.09,-0.14
14.98051798343658,3,3,3,3,-9.59,2,-1.67,0.89,-0.09,-0.14
15.0005179643631,3,3,3,3,-9.67,1.56,-1.49,1.82,-0.02,-0.67
15.0005179643631,3,3,3,3,-9.67,1.56,-1.49,1.82,-0.02,-0.67
15.02051794528961,3,3,3,3,-9.34,1.68,-1.11,2.38,0.31,-0.82
15.02051794528961,3,3,3,3,-9.34,1.68,-1.11,2.38,0.31,-0.82
15.04051792621613,3,3,3,3,-8.99,2.29,-1.59,2.42,0.02,0.01
15.04051792621613,3,3,3,3,-8.99,2.29,-1.59,2.42,0.02,0.01
15.06051790714264,3,3,3,3,-9.35,2.34,-2.17,2.49,-0.08,0.42
15.06051790714264,3,3,3,3,-9.35,2.34,-2.17,2.49,-0.08,0.42
15.08051788806915,3,3,3,3,-9.23,2.25,-1.88,2.27,-0.32,0.6
15.08051788806915,3,3,3,3,-9.23,2.25,-1.88,2.27,-0.32,0.6
15.10051786899567,3,3,3,3,-9.210000000000001,2.29,-1.92,2.5,-0.65,1.09
15.10051786899567,3,3,3,3,-9.210000000000001,2.29,-1.92,2.5,-0.65,1.09
15.12051808834076,3,3,3,3,-9.4,2.1,-2.01,1.78,-1.14,1.39
15.12051808834076,3,3,3,3,-9.4,2.1,-2.01,1.78,-1.14,1.39
15.14051806926727,3,3,3,3,-9.66,1.7,-1.95,1,-1,1.55
15.14051806926727,3,3,3,3,-9.66,1.7,-1.95,1,-1,1.55
15.16051805019379,3,3,3,3,-9.57,1.48,-1.68,0.13,-1.07,1.41
15.16051805019379,3,3,3,3,-9.57,1.48,-1.68,0.13,-1.07,1.41
15.1805180311203,3,3,3,3,-9.5,1.33,-1.47,-0.63,-1.16,1.3
15.1805180311203,3,3,3,3,-9.5,1.33,-1.47,-0.63,-1.16,1.3
15.20051801204681,3,3,3,3,-9.58,1.2,-1.47,-1.21,-1.02,1.36
15.20051801204681,3,3,3,3,-9.58,1.2,-1.47,-1.21,-1.02,1.36
15.22051799297333,3,3,3,3,-9.619999999999999,1.39,-1.49,-1.73,-0.72,1.13
15.22051799297333,3,3,3,3,-9.619999999999999,1.39,-1.49,-1.73,-0.72,1.13
15.24051797389984,3,3,3,3,-9.49,1.81,-1.49,-1.9,-0.7,0.73
15.24051797389984,3,3,3,3,-9.49,1.81,-1.49,-1.9,-0.7,0.73
15.26051795482635,3,3,3,3,-9.369999999999999,1.94,-1.69,-2.17,-0.48,0.61
15.26051795482635,3,3,3,3,-9.369999999999999,1.94,-1.69,-2.17,-0.48,0.61
15.28051793575287,3,3,3,3,-9.25,1.83,-1.65,-2.55,-0.5,0.73
15.28051793575287,3,3,3,3,-9.25,1.83,-1.65,-2.55,-0.5,0.73
15.30051791667938,3,3,3,3,-9.25,1.92,-1.69,-2.41,-0.49,1.06
15.30051791667938,3,3,3,3,-9.25,1.92,-1.69,-2.41,-0.49,1.06
15.3205178976059,3,3,3,3,-9.41,2.11,-1.9,-1.9,-0.26,1.28
15.3205178976059,3,3,3,3,-9.41,2.11,-1.9,-1.9,-0.26,1.28
15.34051787853241,3,3,3,3,-9.619999999999999,2.09,-1.67,-1.5,-0.51,1.36
15.34051787853241,3,3,3,3,-9.619999999999999,2.09,-1.67,-1.5,-0.51,1.36
15.36051785945892,3,3,3,3,-9.73,1.52,-1.44,-1,-1.05,1.01
15.36051785945892,3,3,3,3,-9.73,1.52,-1.44,-1,-1.05,1.01
15.38051807880402,3,3,3,3,-9.65,1.11,-1.05,0.24,-1.27,0.31
15.38051807880402,3,3,3,3,-9.65,1.11,-1.05,0.24,-1.27,0.31
15.40051805973053,3,3,3,3,-9.92,0.64,-0.85,1.44,-1.36,-0.12
15.40051805973053,3,3,3,3,-9.92,0.64,-0.85,1.44,-1.36,-0.12
15.42051804065704,3,3,3,3,-10,0.48,-0.79,2.6,-1.82,-0.5600000000000001
15.42051804065704,3,3,3,3,-10,0.48,-0.79,2.6,-1.82,-0.5600000000000001
15.44051802158356,3,3,3,3,-10.17,0.4,-0.64,2.68,-2.3,-1.16
15.44051802158356,3,3,3,3,-10.17,0.4,-0.64,2.68,-2.3,-1.16
15.46051800251007,3,3,3,3,-10.28,0.18,-0.5,1.89,-3.47,-2.8
15.46051800251007,3,3,3,3,-10.28,0.18,-0.5,1.89,-3.47,-2.8
15.48051798343658,3,3,3,3,-10.66,-1.55,0.54,1.71,-3.82,-3.85
15.48051798343658,3,3,3,3,-10.66,-1.55,0.54,1.71,-3.82,-3.85
15.5005179643631,3,3,3,3,-10.8,-2.98,1.04,2.31,-5.17,-8.33
15.5005179643631,3,3,3,3,-10.8,-2.98,1.04,2.31,-5.17,-8.33
15.52051794528961,3,3,3,3,-11.4,-4.09,1.04,2.53,-6.62,-11.28
15.52051794528961,3,3,3,3,-11.4,-4.09,1.04,2.53,-6.62,-11.28
15.54051792621613,3,3,3,3,-11.76,-3.9,0.93,2.26,-6.66,-12.62
15.54051792621613,3,3,3,3,-11.76,-3.9,0.93,2.26,-6.66,-12.62
15.56051790714264,3,3,3,3,-11.63,-2.2,0.34,-2.55,-5.48,-12.11
15.56051790714264,3,3,3,3,-11.63,-2.2,0.34,-2.55,-5.48,-12.11
15.58151805400848,3,3,3,3,-10.96,-0.8,-0.36,-2.89,-4.8,-10.35
15.58151805400848,3,3,3,3,-10.96,-0.8,-0.36,-2.89,-4.8,-10.35
15.601518034935,3,3,3,3,-11.53,-0.26,-1.96,-1.76,-2.88,-9.43
15.601518034935,3,3,3,3,-11.53,-0.26,-1.96,-1.76,-2.88,-9.43
15.62151801586151,3,3,3,3,-11.6,0.71,-2.17,-2.96,-4.28,-9.390000000000001
15.62151801586151,3,3,3,3,-11.6,0.71,-2.17,-2.96,-4.28,-9.390000000000001
15.64151799678802,3,3,3,3,-11.03,2.44,-0.31,-2.78,-4.7,-9.67
15.64151799678802,3,3,3,3,-11.03,2.44,-0.31,-2.78,-4.7,-9.67
15.66151797771454,3,3,3,3,-10.22,2.98,0.01,-3.38,-3.27,-10.55
15.66151797771454,3,3,3,3,-10.22,2.98,0.01,-3.38,-3.27,-10.55
15.68151795864105,3,3,3,3,-9.380000000000001,3.02,-1.12,-3.76,-2.13,-10.66
15.68151795864105,3,3,3,3,-9.380000000000001,3.02,-1.12,-3.76,-2.13,-10.66
15.70151793956757,3,3,3,3,-9.51,1.29,-1.84,-3.03,-0.4,-11.67
15.70151793956757,3,3,3,3,-9.51,1.29,-1.84,-3.03,-0.4,-11.67
15.72151792049408,3,3,3,3,-9.56,0.11,-2.13,-0.42,-0.1,-11.8
15.72151792049408,3,3,3,3,-9.56,0.11,-2.13,-0.42,-0.1,-11.8
15.74151790142059,3,3,3,3,-8.94,-0.03,-2.1,1.16,0.16,-11.53
15.74151790142059,3,3,3,3,-8.94,-0.03,-2.1,1.16,0.16,-11.53
15.76151788234711,3,3,3,3,-9,-0.05,-1.96,6.62,1.06,-10.45
15.76151788234711,3,3,3,3,-9,-0.05,-1.96,6.62,1.06,-10.45
15.78151786327362,3,3,3,3,-9.220000000000001,-0.17,-1.45,8.49,1.06,-10.19
15.78151786327362,3,3,3,3,-9.220000000000001,-0.17,-1.45,8.49,1.06,-10.19
15.80151808261871,3,3,3,3,-9.18,-0.06,-0.79,13.3,0.6,-8.98
15.80151808261871,3,3,3,3,-9.18,-0.06,-0.79,13.3,0.6,-8.98
15.82151806354523,3,3,3,3,-8.67,0.05,-0.29,14.64,1.12,-7.67
15.82151806354523,3,3,3,3,-8.67,0.05,-0.29,14.64,1.12,-7.67
15.84151804447174,3,3,3,3,-8.51,0.11,0.05,14.78,1.44,-7.1
15.84151804447174,3,3,3,3,-8.51,0.11,0.05,14.78,1.44,-7.1
15.86151802539825,3,3,3,3,-8.59,0.14,0.21,13.8,1.86,-6.17
15.86151802539825,3,3,3,3,-8.59,0.14,0.21,13.8,1.86,-6.17
15.88151800632477,3,3,3,3,-8.48,0.02,0.59,12.87,1.96,-6.07
15.88151800632477,3,3,3,3,-8.48,0.02,0.59,12.87,1.96,-6.07
15.90151798725128,3,3,3,3,-8.109999999999999,-0.47,0.44,9.630000000000001,3.33,-5.6
15.90151798725128,3,3,3,3,-8.109999999999999,-0.47,0.44,9.630000000000001,3.33,-5.6
15.9215179681778,3,3,3,3,-8.01,-0.64,0,6.61,2.74,-5.2
15.9215179681778,3,3,3,3,-8.01,-0.64,0,6.61,2.74,-5.2
15.94151794910431,3,3,3,3,-8.029999999999999,-2.05,0.76,5.1,2.43,-4.98
15.94151794910431,3,3,3,3,-8.029999999999999,-2.05,0.76,5.1,2.43,-4.98
15.96151793003082,3,3,3,3,-8.34,-3.35,1.19,3.83,1.9,-4.12
15.96151793003082,3,3,3,3,-8.34,-3.35,1.19,3.83,1.9,-4.12
15.98151791095734,3,3,3,3,-9.34,-4.19,1.91,3.64,2.2,-3.57
15.98151791095734,3,3,3,3,-9.34,-4.19,1.91,3.64,2.2,-3.57
16.00151789188385,3,3,3,3,-8.85,-3.57,2.53,6.14,0.48,-0.3
16.00151789188385,3,3,3,3,-8.85,-3.57,2.53,6.14,0.48,-0.3
16.02151787281036,3,3,3,3,-9.07,-4.81,3.17,4.06,1.44,0.03
16.02151787281036,3,3,3,3,-9.07,-4.81,3.17,4.06,1.44,0.03
16.04151809215546,3,3,3,2,-9.57,-6.38,3.41,3.75,1.98,-0.5
16.04151809215546,3,3,3,2,-9.57,-6.38,3.41,3.75,1.98,-0.5
16.06151807308197,3,3,3,2,-9.529999999999999,-6.73,1.3,5.23,2.13,-1.8
16.06151807308197,3,3,3,2,-9.529999999999999,-6.73,1.3,5.23,2.13,-1.8
16.08151805400848,3,3,3,2,-9.050000000000001,-5.3,0.39,5.41,2.05,-2.04
16.08151805400848,3,3,3,2,-9.050000000000001,-5.3,0.39,5.41,2.05,-2.04
16.101518034935,3,3,3,2,-7.77,-2.94,-0.24,4.07,2.96,-0.91
16.101518034935,3,3,3,2,-7.77,-2.94,-0.24,4.07,2.96,-0.91
16.12151801586151,3,3,3,2,-7.79,-1.31,-1.06,1.23,2.89,1.81
16.12151801586151,3,3,3,2,-7.79,-1.31,-1.06,1.23,2.89,1.81
16.14151799678802,3,3,3,2,-10.5,1.51,-0.37,-0.84,2.12,3.35
16.14151799678802,3,3,3,2,-10.5,1.51,-0.37,-0.84,2.12,3.35
16.16151797771454,3,3,3,2,-13.93,-4.81,3.57,-3.49,2.52,-0.76
16.16151797771454,3,3,3,2,-13.93,-4.81,3.57,-3.49,2.52,-0.76
16.18151795864105,3,3,3,2,-15.63,-9.16,3.63,-1.39,4.81,-0.35
16.18151795864105,3,3,3,2,-15.63,-9.16,3.63,-1.39,4.81,-0.35
16.20151793956757,3,3,3,2,-12.85,-1.3,0.9399999999999999,3.12,5.41,4.85
16.20151793956757,3,3,3,2,-12.85,-1.3,0.9399999999999999,3.12,5.41,4.85
16.22151792049408,3,3,3,2,-7.06,10.05,-3.83,-0.42,8.26,5.66
16.22151792049408,3,3,3,2,-7.06,10.05,-3.83,-0.42,8.26,5.66
16.24151790142059,3,3,3,2,-5.72,4.28,-5.11,-4.44,7.04,5.54
16.24151790142059,3,3,3,2,-5.72,4.28,-5.11,-4.44,7.04,5.54
16.26151788234711,3,3,3,2,-10.05,-2.5,-5.36,0.97,4.82,8.32
16.26151788234711,3,3,3,2,-10.05,-2.5,-5.36,0.97,4.82,8.32
16.28151786327362,3,3,3,2,-10.59,1.91,-4.4,3.63,4.32,9.109999999999999
16.28151786327362,3,3,3,2,-10.59,1.91,-4.4,3.63,4.32,9.109999999999999
16.30151808261871,3,3,3,2,-10.64,3.98,-2.15,0.11,6.49,9.01
16.30151808261871,3,3,3,2,-10.64,3.98,-2.15,0.11,6.49,9.01
16.32151806354523,3,3,3,2,-10.42,2.11,-1.41,-3.38,6.19,9.26
16.32151806354523,3,3,3,2,-10.42,2.11,-1.41,-3.38,6.19,9.26
16.34151804447174,3,3,3,2,-10.27,1.05,-0.53,-4.14,5.86,9.369999999999999
16.34151804447174,3,3,3,2,-10.27,1.05,-0.53,-4.14,5.86,9.369999999999999
16.36151802539825,3,3,3,2,-9.73,0.97,-2.22,-5.19,5.57,9.4
16.36151802539825,3,3,3,2,-9.73,0.97,-2.22,-5.19,5.57,9.4
16.38151800632477,3,3,3,2,-9.01,0.24,-3.57,-5.11,5.46,9.199999999999999
16.38151800632477,3,3,3,2,-9.01,0.24,-3.57,-5.11,5.46,9.199999999999999
16.40151798725128,3,3,3,2,-9.300000000000001,0.59,-3.06,-3.81,4.53,9.49
16.40151798725128,3,3,3,2,-9.300000000000001,0.59,-3.06,-3.81,4.53,9.49
16.4215179681778,3,3,3,2,-9.029999999999999,0.99,-2.49,-4.94,4.51,9.07
16.4215179681778,3,3,3,2,-9.029999999999999,0.99,-2.49,-4.94,4.51,9.07
16.44151794910431,3,3,3,2,-9.4,-0.16,-2.63,-5.82,4.43,8.609999999999999
16.44151794910431,3,3,3,2,-9.4,-0.16,-2.63,-5.82,4.43,8.609999999999999
16.46151793003082,3,3,3,2,-9.23,-1.5,-2.48,-6.6,4.44,7.31
16.46151793003082,3,3,3,2,-9.23,-1.5,-2.48,-6.6,4.44,7.31
16.48151791095734,3,3,3,2,-9.130000000000001,-2.13,-2.51,-6.27,4.24,7.2
16.48151791095734,3,3,3,2,-9.130000000000001,-2.13,-2.51,-6.27,4.24,7.2
16.50151789188385,3,3,3,2,-9.15,-2.45,-2.43,-4.25,4.05,6.72
16.50151789188385,3,3,3,2,-9.15,-2.45,-2.43,-4.25,4.05,6.72
16.52151787281036,3,3,3,2,-9.41,-2.6,-1.86,-2.9,3.66,6.15
16.52151787281036,3,3,3,2,-9.41,-2.6,-1.86,-2.9,3.66,6.15
16.54151809215546,3,3,3,2,-9.42,-1.45,-1.91,-2.35,3.54,6.05
16.54151809215546,3,3,3,2,-9.42,-1.45,-1.91,-2.35,3.54,6.05
16.56151807308197,3,3,3,2,-8.99,-1.85,-2.82,-1.31,4.05,5.58
16.56151807308197,3,3,3,2,-8.99,-1.85,-2.82,-1.31,4.05,5.58
16.58151805400848,3,3,3,2,-8.699999999999999,-2.36,-3.41,-0.33,3.94,5.49
16.58151805400848,3,3,3,2,-8.699999999999999,-2.36,-3.41,-0.33,3.94,5.49
16.60251796245575,3,3,3,2,-9.289999999999999,1.03,-2.44,2.76,2.53,6.24
16.60251796245575,3,3,3,2,-9.289999999999999,1.03,-2.44,2.76,2.53,6.24
16.62251794338226,3,3,3,2,-7.44,-1.22,-4.2,3.2,3.56,7.01
16.62251794338226,3,3,3,2,-7.44,-1.22,-4.2,3.2,3.56,7.01
16.64251792430878,3,3,3,2,-8.779999999999999,-4.61,-2.24,4.53,3.36,6.45
16.64251792430878,3,3,3,2,-8.779999999999999,-4.61,-2.24,4.53,3.36,6.45
16.66251790523529,3,3,3,2,-12.2,7.2,-0.46,7.11,-0.04,8.93
16.66251790523529,3,3,3,2,-12.2,7.2,-0.46,7.11,-0.04,8.93
16.6825178861618,3,3,3,2,-10.43,4.59,-2.47,2.34,1.25,9.35
16.6825178861618,3,3,3,2,-10.43,4.59,-2.47,2.34,1.25,9.35
16.70251786708832,3,3,3,2,-7.93,0.61,-3.09,-1.42,1.23,7.82
16.70251786708832,3,3,3,2,-7.93,0.61,-3.09,-1.42,1.23,7.82
16.72251808643341,3,3,3,2,-9.039999999999999,2.02,-3.83,-1.52,2.3,7.56
16.72251808643341,3,3,3,2,-9.039999999999999,2.02,-3.83,-1.52,2.3,7.56
16.74251806735992,3,3,3,2,-9.119999999999999,2.33,-3.59,-2.69,2.27,7.19
16.74251806735992,3,3,3,2,-9.119999999999999,2.33,-3.59,-2.69,2.27,7.19
16.76251804828644,3,3,3,2,-9.109999999999999,1.47,-2.5,-7.24,1.54,6.87
16.76251804828644,3,3,3,2,-9.109999999999999,1.47,-2.5,-7.24,1.54,6.87
16.78251802921295,3,3,3,2,-9.109999999999999,1.09,-2.43,-8.109999999999999,1.97,7.03
16.78251802921295,3,3,3,2,-9.109999999999999,1.09,-2.43,-8.109999999999999,1.97,7.03
16.80251801013947,3,3,3,2,-9.1,1,-2.68,-9.24,4.06,7
16.80251801013947,3,3,3,2,-9.1,1,-2.68,-9.24,4.06,7
16.82251799106598,3,3,3,2,-9.41,2.29,-3.34,-7.53,3.92,6.02
16.82251799106598,3,3,3,2,-9.41,2.29,-3.34,-7.53,3.92,6.02
16.84251797199249,3,3,3,2,-9.49,2.18,-3.45,-7.86,3.67,5.32
16.84251797199249,3,3,3,2,-9.49,2.18,-3.45,-7.86,3.67,5.32
16.86251795291901,3,3,3,2,-9.57,1.97,-2.5,-7.42,2.3,4.37
16.86251795291901,3,3,3,2,-9.57,1.97,-2.5,-7.42,2.3,4.37
16.88251793384552,3,3,3,2,-9.390000000000001,1.9,-2.33,-7.24,2,4.55
16.88251793384552,3,3,3,2,-9.390000000000001,1.9,-2.33,-7.24,2,4.55
16.90251791477203,3,3,3,2,-9.35,1,-2.67,-6.78,2.01,4.49
16.90251791477203,3,3,3,2,-9.35,1,-2.67,-6.78,2.01,4.49
16.92251789569855,3,3,3,2,-9.640000000000001,1.19,-2.81,-6.18,1.95,3.97
16.92251789569855,3,3,3,2,-9.640000000000001,1.19,-2.81,-6.18,1.95,3.97
16.94251787662506,3,3,3,2,-9.82,1.23,-2.8,-6.38,1.67,3.61
16.94251787662506,3,3,3,2,-9.82,1.23,-2.8,-6.38,1.67,3.61
16.96251785755157,3,3,3,2,-10.3,0.46,-2.5,-7.45,1.52,2.67
16.96251785755157,3,3,3,2,-10.3,0.46,-2.5,-7.45,1.52,2.67
16.98251807689667,3,3,3,2,-10.53,0.18,-2.52,-8.390000000000001,1.96,2.63
16.98251807689667,3,3,3,2,-10.53,0.18,-2.52,-8.390000000000001,1.96,2.63
17.00251805782318,3,3,3,2,-12.38,-1.51,-1.68,-7.72,0.65,2.09
17.00251805782318,3,3,3,2,-12.38,-1.51,-1.68,-7.72,0.65,2.09
17.02251803874969,3,3,3,2,-12.57,-3.53,-0.72,-6.64,-1.06,1.04
17.02251803874969,3,3,3,2,-12.57,-3.53,-0.72,-6.64,-1.06,1.04
17.04251801967621,3,3,3,2,-12.99,-3.89,-0.3,-3.45,-3.72,-1.06
17.04251801967621,3,3,3,2,-12.99,-3.89,-0.3,-3.45,-3.72,-1.06
17.06251800060272,3,3,3,2,-13.78,-5.69,0.87,-0.72,-7.24,-4.41
17.06251800060272,3,3,3,2,-13.78,-5.69,0.87,-0.72,-7.24,-4.41
17.08251798152924,3,3,3,2,-13.27,-5.96,1,0.71,-9.07,-7.7
17.08251798152924,3,3,3,2,-13.27,-5.96,1,0.71,-9.07,-7.7
17.10251796245575,3,3,3,2,-11.32,0.31,2.45,-3.75,-11.06,-8.640000000000001
17.10251796245575,3,3,3,2,-11.32,0.31,2.45,-3.75,-11.06,-8.640000000000001
17.12251794338226,3,3,3,2,-10.06,-0.64,-0.17,-9.98,-9.81,-12.33
17.12251794338226,3,3,3,2,-10.06,-0.64,-0.17,-9.98,-9.81,-12.33
17.14251792430878,3,3,3,2,-10.35,-0.44,-2.2,-9.52,-8.710000000000001,-16.15
17.14251792430878,3,3,3,2,-10.35,-0.44,-2.2,-9.52,-8.710000000000001,-16.15
17.16251790523529,3,3,3,2,-12.97,3.35,-2.13,-6.13,-8.98,-16.31
17.16251790523529,3,3,3,2,-12.97,3.35,-2.13,-6.13,-8.98,-16.31
17.1825178861618,3,3,3,2,-12.75,5.01,-2.97,-5.91,-7.28,-15.58
17.1825178861618,3,3,3,2,-12.75,5.01,-2.97,-5.91,-7.28,-15.58
17.20251786708832,3,3,3,2,-11.48,4.67,-3.28,-5.76,-5.54,-16.48
17.20251786708832,3,3,3,2,-11.48,4.67,-3.28,-5.76,-5.54,-16.48
17.22251808643341,3,3,3,2,-10.53,3.56,-2.21,-4.65,-4.91,-17.78
17.22251808643341,3,3,3,2,-10.53,3.56,-2.21,-4.65,-4.91,-17.78
17.24251806735992,3,3,3,2,-13.51,7.18,-0.67,-9.5,-7.07,-19.29
17.24251806735992,3,3,3,2,-13.51,7.18,-0.67,-9.5,-7.07,-19.29
17.26251804828644,3,3,3,2,-9.890000000000001,4.69,-2.86,-1.1,-3.61,-17.66
17.26251804828644,3,3,3,2,-9.890000000000001,4.69,-2.86,-1.1,-3.61,-17.66
17.28251802921295,3,3,3,2,-9.710000000000001,4.04,-2.86,-0.5,-2.71,-17.45
17.28251802921295,3,3,3,2,-9.710000000000001,4.04,-2.86,-0.5,-2.71,-17.45
17.30251801013947,3,3,3,2,-8.890000000000001,3.04,-3.03,2.31,-1.8,-17.85
17.30251801013947,3,3,3,2,-8.890000000000001,3.04,-3.03,2.31,-1.8,-17.85
17.32251799106598,3,3,3,2,-8.4,2.59,-2.77,6.63,-1.29,-17.33
17.32251799106598,3,3,3,2,-8.4,2.59,-2.77,6.63,-1.29,-17.33
17.34251797199249,3,3,3,2,-8.619999999999999,3.12,-2.83,10.23,-0.74,-16.23
17.34251797199249,3,3,3,2,-8.619999999999999,3.12,-2.83,10.23,-0.74,-16.23
17.36251795291901,3,3,3,2,-8.720000000000001,3.45,-2.79,12.43,-1.17,-15.15
17.36251795291901,3,3,3,2,-8.720000000000001,3.45,-2.79,12.43,-1.17,-15.15
17.38251793384552,3,3,3,2,-8.529999999999999,3.49,-2.31,13.71,-0.92,-14.52
17.38251793384552,3,3,3,2,-8.529999999999999,3.49,-2.31,13.71,-0.92,-14.52
17.40251791477203,3,3,3,2,-8.32,3.63,-2.46,12.82,-0.55,-13.68
17.40251791477203,3,3,3,2,-8.32,3.63,-2.46,12.82,-0.55,-13.68
17.42251789569855,3,3,3,2,-7.65,3.53,-2.4,11.76,0.38,-12.85
17.42251789569855,3,3,3,2,-7.65,3.53,-2.4,11.76,0.38,-12.85
17.44251787662506,3,3,3,2,-7.4,2.42,-1.91,8.970000000000001,1.72,-10.98
17.44251787662506,3,3,3,2,-7.4,2.42,-1.91,8.970000000000001,1.72,-10.98
17.46251785755157,3,3,3,2,-7.09,2.35,-1.22,7.3,1.6,-9.69
17.46251785755157,3,3,3,2,-7.09,2.35,-1.22,7.3,1.6,-9.69
17.48251807689667,3,3,3,2,-6.23,2.15,-0.9399999999999999,6.77,1.85,-8.18
17.48251807689667,3,3,3,2,-6.23,2.15,-0.9399999999999999,6.77,1.85,-8.18
17.50251805782318,3,3,3,2,-6.1,1.57,-1.15,4.47,3.39,-5.9
17.50251805782318,3,3,3,2,-6.1,1.57,-1.15,4.47,3.39,-5.9
17.52251803874969,3,3,3,2,-6.58,0.18,-1.53,2.04,5.11,-3.38
17.52251803874969,3,3,3,2,-6.58,0.18,-1.53,2.04,5.11,-3.38
17.54251801967621,3,3,3,2,-7.32,-0.42,-1.35,0.87,5.69,-1.69
17.54251801967621,3,3,3,2,-7.32,-0.42,-1.35,0.87,5.69,-1.69
17.56251800060272,3,3,3,2,-8.56,-2.25,-0.44,2.32,5.4,-0.36
17.56251800060272,3,3,3,2,-8.56,-2.25,-0.44,2.32,5.4,-0.36
17.58251798152924,3,3,3,1,-9.859999999999999,-4.79,0.73,5.78,4.74,-0.49
17.58251798152924,3,3,3,1,-9.859999999999999,-4.79,0.73,5.78,4.74,-0.49
17.60251796245575,3,3,3,1,-11.5,-7.23,2.63,9.1,3.09,-1.26
17.60251796245575,3,3,3,1,-11.5,-7.23,2.63,9.1,3.09,-1.26
17.62351787090302,3,3,3,1,-12.37,-9.67,3.08,10.85,-1.15,-0.51
17.62351787090302,3,3,3,1,-12.37,-9.67,3.08,10.85,-1.15,-0.51
17.64351809024811,3,3,3,1,-12.74,-11.62,2.87,9.890000000000001,-4.55,-2.91
17.64351809024811,3,3,3,1,-12.74,-11.62,2.87,9.890000000000001,-4.55,-2.91
17.66351807117462,3,3,3,1,-10.64,-6.38,1.56,5.58,-4.5,-3.3
17.66351807117462,3,3,3,1,-10.64,-6.38,1.56,5.58,-4.5,-3.3
17.68351805210114,3,3,3,1,-7.93,-2.8,-1.76,3.92,0.5600000000000001,-3.93
17.68351805210114,3,3,3,1,-7.93,-2.8,-1.76,3.92,0.5600000000000001,-3.93
17.70351803302765,3,3,3,1,-6.06,3.21,-2.38,-4.87,7.55,-1.85
17.70351803302765,3,3,3,1,-6.06,3.21,-2.38,-4.87,7.55,-1.85
17.72351801395416,3,3,3,1,-12.77,-0.7,3.44,-7.97,7.44,9.06
17.72351801395416,3,3,3,1,-12.77,-0.7,3.44,-7.97,7.44,9.06
17.74351799488068,3,3,3,1,-15.45,-9.81,4.76,3.44,0.62,4.74
17.74351799488068,3,3,3,1,-15.45,-9.81,4.76,3.44,0.62,4.74
17.76351797580719,3,3,3,1,-14.43,0.49,0.64,10.06,4.73,8.390000000000001
17.76351797580719,3,3,3,1,-14.43,0.49,0.64,10.06,4.73,8.390000000000001
17.7835179567337,3,3,3,1,-11.41,7.21,0.89,3.57,2.15,9.550000000000001
17.7835179567337,3,3,3,1,-11.41,7.21,0.89,3.57,2.15,9.550000000000001
17.80351793766022,3,3,3,1,-7.86,4.89,-8.68,-1.54,9.41,10.11
17.80351793766022,3,3,3,1,-7.86,4.89,-8.68,-1.54,9.41,10.11
17.82351791858673,3,3,3,1,-8.33,0.51,-8.73,-3.14,9.65,10.65
17.82351791858673,3,3,3,1,-8.33,0.51,-8.73,-3.14,9.65,10.65
17.84351789951324,3,3,3,0,-9.73,2.63,-3.95,1.98,7.54,13.78
17.84351789951324,3,3,3,0,-9.73,2.63,-3.95,1.98,7.54,13.78
17.86351788043976,3,3,3,0,-8.85,4.4,-3.81,3.16,7.02,14.38
17.86351788043976,3,3,3,0,-8.85,4.4,-3.81,3.16,7.02,14.38
17.88351786136627,3,3,3,0,-9.48,1.97,-2.12,0.77,6.5,12.94
17.88351786136627,3,3,3,0,-9.48,1.97,-2.12,0.77,6.5,12.94
17.90351808071136,3,3,3,0,-10.41,0.83,-1.27,0.29,5.73,12.87
17.90351808071136,3,3,3,0,-10.41,0.83,-1.27,0.29,5.73,12.87
17.92351806163788,3,3,3,0,-9.41,0.59,-1.81,0.44,5.46,12.67
17.92351806163788,3,3,3,0,-9.41,0.59,-1.81,0.44,5.46,12.67
17.94351804256439,3,3,3,0,-8.82,-0.62,-2.8,-0.79,5.44,11.66
17.94351804256439,3,3,3,0,-8.82,-0.62,-2.8,-0.79,5.44,11.66
17.96351802349091,3,3,3,0,-8.93,-1.52,-3.59,-1.45,5.36,10.17
17.96351802349091,3,3,3,0,-8.93,-1.52,-3.59,-1.45,5.36,10.17
17.98351800441742,3,3,3,0,-9.380000000000001,-1.51,-3.14,-2.17,5.31,8.92
17.98351800441742,3,3,3,0,-9.380000000000001,-1.51,-3.14,-2.17,5.31,8.92
18.00351798534393,3,3,3,0,-9.800000000000001,-1.38,-2,-3.14,4.76,7.95
18.00351798534393,3,3,3,0,-9.800000000000001,-1.38,-2,-3.14,4.76,7.95
18.02351796627045,3,3,3,0,-10,-1.7,-1.7,-4.31,4.25,6.62
18.02351796627045,3,3,3,0,-10,-1.7,-1.7,-4.31,4.25,6.62
18.04351794719696,3,3,3,0,-9.550000000000001,-0.91,-2.09,-5.71,4.24,5.55
18.04351794719696,3,3,3,0,-9.550000000000001,-0.91,-2.09,-5.71,4.24,5.55
18.06351792812347,3,3,3,0,-9.57,0.13,-2.53,-7,3.89,4.78
18.06351792812347,3,3,3,0,-9.57,0.13,-2.53,-7,3.89,4.78
18.08351790904999,3,3,3,0,-9.15,0.97,-3.16,-8.199999999999999,3.93,4.74
18.08351790904999,3,3,3,0,-9.15,0.97,-3.16,-8.199999999999999,3.93,4.74
18.1035178899765,3,3,3,0,-8.9,0.92,-3.3,-8.41,3.52,5.03
18.1035178899765,3,3,3,0,-8.9,0.92,-3.3,-8.41,3.52,5.03
18.12351787090302,3,3,3,0,-8.890000000000001,0.75,-3.18,-7.21,2.82,5.64
18.12351787090302,3,3,3,0,-8.890000000000001,0.75,-3.18,-7.21,2.82,5.64
18.14351809024811,3,3,3,0,-8.92,0.77,-3.09,-5.37,2.32,6.33
18.14351809024811,3,3,3,0,-8.92,0.77,-3.09,-5.37,2.32,6.33
18.16351807117462,3,3,3,0,-9.039999999999999,0.63,-3.31,-4.29,2.07,6.54
18.16351807117462,3,3,3,0,-9.039999999999999,0.63,-3.31,-4.29,2.07,6.54
18.18351805210114,3,3,3,0,-9.380000000000001,1.1,-2.6,-3.62,1.57,7.05
18.18351805210114,3,3,3,0,-9.380000000000001,1.1,-2.6,-3.62,1.57,7.05
18.20351803302765,3,3,3,0,-9.130000000000001,1.17,-2.65,-3.84,1.33,7.56
18.20351803302765,3,3,3,0,-9.130000000000001,1.17,-2.65,-3.84,1.33,7.56
18.22351801395416,3,3,3,0,-8.960000000000001,1.42,-1.99,-5.38,1.43,8.07
18.22351801395416,3,3,3,0,-8.960000000000001,1.42,-1.99,-5.38,1.43,8.07
18.24351799488068,3,3,3,0,-8.859999999999999,0.43,-2.07,-10.09,1.56,8.52
18.24351799488068,3,3,3,0,-8.859999999999999,0.43,-2.07,-10.09,1.56,8.52
18.26351797580719,3,3,3,0,-9.23,1.06,-2.42,-10.25,3.63,8.19
18.26351797580719,3,3,3,0,-9.23,1.06,-2.42,-10.25,3.63,8.19
18.2835179567337,3,3,3,1,-9.710000000000001,1.44,-2.64,-9.91,4.2,6.7
18.2835179567337,3,3,3,1,-9.710000000000001,1.44,-2.64,-9.91,4.2,6.7
18.30351793766022,3,3,3,1,-9.51,1.48,-3.07,-8.779999999999999,2.69,5.5
18.30351793766022,3,3,3,1,-9.51,1.48,-3.07,-8.779999999999999,2.69,5.5
18.32351791858673,3,3,3,1,-9.31,1.47,-2.91,-7.11,1.72,5.51
18.32351791858673,3,3,3,1,-9.31,1.47,-2.91,-7.11,1.72,5.51
18.34351789951324,3,3,3,1,-9.279999999999999,0.95,-2.71,-6.49,1.57,5.87
18.34351789951324,3,3,3,1,-9.279999999999999,0.95,-2.71,-6.49,1.57,5.87
18.36351788043976,3,3,3,1,-9.51,1.01,-2.23,-5.5,1.49,6.03
18.36351788043976,3,3,3,1,-9.51,1.01,-2.23,-5.5,1.49,6.03
18.38351786136627,3,3,3,1,-9.35,1.33,-1.86,-5.34,1.64,6.07
18.38351786136627,3,3,3,1,-9.35,1.33,-1.86,-5.34,1.64,6.07
18.40351808071136,3,3,3,1,-9.25,1.32,-2.06,-5.61,1.85,6.2
18.40351808071136,3,3,3,1,-9.25,1.32,-2.06,-5.61,1.85,6.2
18.42351806163788,3,3,3,1,-9.859999999999999,0.88,-2.77,-5.63,1.43,6.29
18.42351806163788,3,3,3,1,-9.859999999999999,0.88,-2.77,-5.63,1.43,6.29
18.44351804256439,3,3,3,2,-10.62,1.01,-2.86,-4.58,0.4,5.74
18.44351804256439,3,3,3,2,-10.62,1.01,-2.86,-4.58,0.4,5.74
18.46351802349091,3,3,3,2,-11.18,0.66,-3.2,-5.23,0.51,4.94
18.46351802349091,3,3,3,2,-11.18,0.66,-3.2,-5.23,0.51,4.94
18.48351800441742,3,3,3,2,-12.21,0.52,-2.69,-6.13,0.88,4.2
18.48351800441742,3,3,3,2,-12.21,0.52,-2.69,-6.13,0.88,4.2
18.50351798534393,3,3,3,2,-12.01,-1.31,-1.88,-7.3,0.22,3.51
18.50351798534393,3,3,3,2,-12.01,-1.31,-1.88,-7.3,0.22,3.51
18.52351796627045,3,3,3,2,-12.77,-2.88,-0.8,-6.96,-1.22,2.27
18.52351796627045,3,3,3,2,-12.77,-2.88,-0.8,-6.96,-1.22,2.27
18.54351794719696,3,3,3,2,-14.26,-4.21,0.28,-3.67,-5.16,0
18.54351794719696,3,3,3,2,-14.26,-4.21,0.28,-3.67,-5.16,0
18.56351792812347,3,3,3,2,-13.86,-6.18,0.98,-1.4,-7.89,-4.53
18.56351792812347,3,3,3,2,-13.86,-6.18,0.98,-1.4,-7.89,-4.53
18.58351790904999,3,3,3,2,-12.19,-3.14,2.82,0.64,-11.33,-7.68
18.58351790904999,3,3,3,2,-12.19,-3.14,2.82,0.64,-11.33,-7.68
18.6035178899765,3,3,3,2,-10.09,-2.28,1.68,-5.93,-11.04,-10.24
18.6035178899765,3,3,3,2,-10.09,-2.28,1.68,-5.93,-11.04,-10.24
18.62351787090302,3,3,3,2,-9.99,-1.96,-2.14,-7.64,-9.199999999999999,-14.41
18.62351787090302,3,3,3,2,-9.99,-1.96,-2.14,-7.64,-9.199999999999999,-14.41
18.64451801776886,3,3,3,2,-12.19,0.78,-2.34,-2.18,-9.4,-17.18
18.64451801776886,3,3,3,2,-12.19,0.78,-2.34,-2.18,-9.4,-17.18
18.66451799869537,3,3,3,2,-14.05,4.85,-2.51,-0.49,-9.1,-16.65
18.66451799869537,3,3,3,2,-14.05,4.85,-2.51,-0.49,-9.1,-16.65
18.68451797962189,3,3,3,2,-13.58,6.62,-2.95,-2.26,-7.53,-17.08
