timestamp,magCalib,accCalib,gyrCalib,sysCalib,accX,accY,accZ,gyrX,gyrY,gyrZ
-0.01848208904266357,2,3,3,3,-9.460000000000001,-0.63,2.41,0.03,-0.08,-0.03
-0.008482098579406738,2,3,3,3,-9.49,-0.64,2.41,0.07000000000000001,-0.04,-0.01
0.001517891883850098,2,3,3,3,-9.5,-0.62,2.43,0.05,-0.05,-0.01
0.01151788234710693,2,3,3,3,-9.48,-0.64,2.34,0.03,-0.05,0.04
0.02151787281036377,2,3,3,3,-9.51,-0.63,2.38,0.02,-0.09,0.08
0.03151786327362061,2,3,3,3,-9.49,-0.63,2.38,-0.02,-0.1,0.07000000000000001
0.04151809215545654,2,3,3,3,-9.5,-0.6,2.39,0,-0.11,0.05
0.05151808261871338,2,3,3,3,-9.49,-0.57,2.4,0.03,-0.15,0.05
0.06251800060272217,2,3,3,3,-9.470000000000001,-0.62,2.31,0.02,-0.16,0.03
0.07151806354522705,2,3,3,3,-9.49,-0.62,2.38,0.02,-0.1,0.03
0.08151805400848389,2,3,3,3,-9.470000000000001,-0.63,2.39,-0.01,-0.09,0.04
0.09251797199249268,2,3,3,3,-9.460000000000001,-0.6,2.43,-0.1,-0.04,0.01
0.1015180349349976,2,3,3,3,-9.470000000000001,-0.59,2.41,-0.14,0.05,-0.01
0.1115180253982544,2,3,3,3,-9.5,-0.6,2.34,-0.12,0.04,-0.01
0.1225179433822632,2,3,3,3,-9.48,-0.61,2.36,-0.1,0.01,-0.04
0.1315180063247681,2,3,3,3,-9.5,-0.65,2.39,-0.1,-0.02,-0.06
0.1415179967880249,2,3,3,3,-9.48,-0.67,2.43,-0.04,0,-0.07000000000000001
0.1525179147720337,2,3,3,3,-9.48,-0.65,2.47,-0.03,0.01,-0.05
0.1625179052352905,2,3,3,3,-9.48,-0.63,2.32,-0.05,0.02,-0.02
0.1725178956985474,2,3,3,3,-9.44,-0.65,2.38,-0.05,-0.01,-0.01
0.1825178861618042,2,3,3,3,-9.449999999999999,-0.65,2.39,-0.06,-0.03,0.01
0.192517876625061,2,3,3,3,-9.460000000000001,-0.64,2.43,-0.08,0.03,0.04
0.2025178670883179,2,3,3,3,-9.529999999999999,-0.61,2.38,-0.11,0.02,0.08
0.2125178575515747,2,3,3,3,-9.5,-0.62,2.31,-0.07000000000000001,0.01,0.03
0.2225180864334106,2,3,3,3,-9.470000000000001,-0.64,2.35,-0.05,0.02,0.01
0.2325180768966675,2,3,3,3,-9.48,-0.64,2.4,-0.04,-0.01,0
0.2425180673599243,2,3,3,3,-9.5,-0.64,2.44,-0.04,-0.04,-0.03
0.2525180578231812,2,3,3,3,-9.49,-0.65,2.41,-0.06,-0.02,-0.05
0.262518048286438,2,3,3,3,-9.5,-0.65,2.34,-0.09,0,-0.03
0.2725180387496948,2,3,3,3,-9.5,-0.6899999999999999,2.34,-0.07000000000000001,0.02,0
0.2825180292129517,2,3,3,3,-9.460000000000001,-0.65,2.39,-0.07000000000000001,0.01,0.01
0.2925180196762085,2,3,3,3,-9.449999999999999,-0.65,2.41,-0.04,0.02,-0.01
0.3025180101394653,2,3,3,3,-9.460000000000001,-0.63,2.44,-0.04,0.02,0.06
0.3125180006027222,2,3,3,3,-9.449999999999999,-0.66,2.34,-0.05,0.01,0.07000000000000001
0.322517991065979,2,3,3,3,-9.5,-0.65,2.36,-0.08,-0.01,0.08
0.3325179815292358,2,3,3,3,-9.51,-0.64,2.37,-0.05,0,0.08
0.3425179719924927,2,3,3,3,-9.52,-0.62,2.41,0,0,0.06
0.3525179624557495,2,3,3,3,-9.449999999999999,-0.63,2.35,0.01,0.01,0.06
0.3625179529190063,2,3,3,3,-9.449999999999999,-0.65,2.31,0.01,0,0.03
0.3725179433822632,2,3,3,3,-9.470000000000001,-0.64,2.38,-0.03,-0.01,0.06
0.38251793384552,2,3,3,3,-9.449999999999999,-0.66,2.41,-0.01,-0.04,0.07000000000000001
0.3925179243087769,2,3,3,3,-9.49,-0.66,2.42,0.08,-0.02,0.06
0.4025179147720337,2,3,3,3,-9.48,-0.64,2.43,0.08,-0.04,0.07000000000000001
0.4125179052352905,2,3,3,3,-9.48,-0.62,2.31,0.05,-0.07000000000000001,0.1
0.4225178956985474,2,3,3,3,-9.470000000000001,-0.62,2.31,-0.01,-0.1,0.11
0.4325178861618042,2,3,3,3,-9.5,-0.59,2.37,-0.03,-0.03,0.1
0.442517876625061,2,3,3,3,-9.52,-0.59,2.45,0.02,-0.01,0.06
0.4525178670883179,2,3,3,3,-9.539999999999999,-0.58,2.46,0.07000000000000001,-0.06,0.04
0.4625178575515747,2,3,3,3,-9.5,-0.58,2.34,0.1,-0.07000000000000001,0.04
0.4725180864334106,2,3,3,3,-9.470000000000001,-0.6,2.39,0.06,-0.05,0.03
0.4825180768966675,2,3,3,3,-9.48,-0.59,2.41,0.04,-0.06,0.06
0.4925180673599243,2,3,3,3,-9.470000000000001,-0.6,2.41,-0.04,-0.08,0.1
0.5025180578231812,2,3,3,3,-9.51,-0.59,2.4,-0.08,-0.08,0.12
0.512518048286438,2,3,3,3,-9.5,-0.59,2.29,0.01,-0.06,0.13
0.5225180387496948,2,3,3,3,-9.5,-0.6,2.34,0.06,-0.08,0.08
0.5325180292129517,2,3,3,3,-9.49,-0.65,2.38,0.04,-0.13,0.08
0.5425180196762085,2,3,3,3,-9.5,-0.66,2.37,0.01,-0.08,0.08
0.5525180101394653,2,3,3,3,-9.52,-0.62,2.35,0.02,-0.04,0.13
0.5625180006027222,2,3,3,3,-9.49,-0.61,2.3,0.02,-0.03,0.16
0.572517991065979,2,3,3,3,-9.48,-0.6,2.31,0.11,-0.05,0.18
0.5825179815292358,2,3,3,3,-9.449999999999999,-0.58,2.46,0.16,-0.1,0.15
0.5925179719924927,2,3,3,3,-9.470000000000001,-0.6,2.43,0.16,-0.07000000000000001,0.14
0.6025179624557495,2,3,3,3,-9.449999999999999,-0.58,2.45,0.19,-0.04,0.1
0.6125179529190063,2,3,3,3,-9.5,-0.55,2.34,0.18,-0.1,0.06
0.6225179433822632,2,3,3,3,-9.49,-0.53,2.36,0.11,-0.14,0.07000000000000001
0.63251793384552,2,3,3,3,-9.5,-0.54,2.39,0.07000000000000001,-0.18,0.1
0.6425179243087769,2,3,3,3,-9.5,-0.5600000000000001,2.44,0.03,-0.17,0.15
0.6525179147720337,2,3,3,3,-9.470000000000001,-0.55,2.44,-0.07000000000000001,-0.17,0.14
0.6625179052352905,2,3,3,3,-9.48,-0.5600000000000001,2.29,-0.07000000000000001,-0.09,0.15
0.6725178956985474,2,3,3,3,-9.48,-0.57,2.36,-0.04,-0.07000000000000001,0.15
0.6825178861618042,2,3,3,3,-9.5,-0.57,2.4,-0.07000000000000001,-0.09,0.14
0.692517876625061,2,3,3,3,-9.48,-0.58,2.39,-0.14,-0.11,0.16
0.7025178670883179,2,3,3,3,-9.51,-0.57,2.42,-0.13,-0.11,0.18
0.7125178575515747,2,3,3,3,-9.49,-0.5600000000000001,2.3,-0.15,-0.14,0.17
0.7225180864334106,2,3,3,3,-9.449999999999999,-0.55,2.34,-0.14,-0.12,0.15
0.7325180768966675,2,3,3,3,-9.42,-0.55,2.47,-0.18,-0.11,0.14
0.7425180673599243,2,3,3,3,-9.44,-0.5600000000000001,2.46,-0.24,-0.1,0.09
0.7525180578231812,2,3,3,3,-9.460000000000001,-0.55,2.42,-0.33,-0.04,0.05
0.762518048286438,2,3,3,3,-9.51,-0.5600000000000001,2.32,-0.36,-0.03,0.01
0.7725180387496948,2,3,3,3,-9.5,-0.6,2.34,-0.36,0,-0.03
0.7825180292129517,2,3,3,3,-9.52,-0.63,2.37,-0.34,0.02,-0.07000000000000001
0.7925180196762085,2,3,3,3,-9.5,-0.65,2.4,-0.27,0.05,-0.11
0.8025180101394653,2,3,3,3,-9.49,-0.66,2.41,-0.28,0.06,-0.15
0.8125180006027222,2,3,3,3,-9.49,-0.7,2.27,-0.27,0.09,-0.17
0.822517991065979,2,3,3,3,-9.470000000000001,-0.66,2.32,-0.2,0.05,-0.18
0.8325179815292358,2,3,3,3,-9.43,-0.7,2.4,-0.11,0.05,-0.17
0.8425179719924927,2,3,3,3,-9.460000000000001,-0.72,2.42,-0.06,0.01,-0.15
0.8525179624557495,2,3,3,3,-9.49,-0.74,2.34,-0.06,0.06,-0.16
0.8625179529190063,2,3,3,3,-9.5,-0.71,2.25,-0.08,0.11,-0.15
0.8725179433822632,2,3,3,3,-9.539999999999999,-0.68,2.28,-0.03,0.15,-0.12
0.88251793384552,2,3,3,3,-9.52,-0.62,2.32,0.04,0.14,-0.04
0.8925179243087769,2,3,3,3,-9.470000000000001,-0.59,2.42,0.13,0.15,0
0.9025179147720337,2,3,3,3,-9.48,-0.6,2.45,0.19,0.08,0.04
0.9125179052352905,2,3,3,3,-9.470000000000001,-0.57,2.37,0.25,0.05,0.11
0.9225178956985474,2,3,3,3,-9.470000000000001,-0.53,2.44,0.18,-0.01,0.14
0.9325178861618042,2,3,3,3,-9.49,-0.49,2.48,0.08,0.01,0.18
0.942517876625061,2,3,3,3,-9.48,-0.48,2.5,0,-0.01,0.21
0.9525178670883179,2,3,3,3,-9.49,-0.46,2.49,-0.03,-0.02,0.22
0.9625178575515747,2,3,3,3,-9.470000000000001,-0.5,2.36,-0.11,0.01,0.24
0.9725180864334106,2,3,3,3,-9.48,-0.54,2.39,-0.2,0.02,0.2
0.9825180768966675,2,3,3,3,-9.460000000000001,-0.52,2.4,-0.21,0.04,0.2
0.9925180673599243,2,3,3,3,-9.48,-0.53,2.43,-0.2,0.06,0.15
1.002518057823181,2,3,3,3,-9.51,-0.53,2.4,-0.15,0.04,0.17
1.012518048286438,2,3,3,3,-9.460000000000001,-0.54,2.32,-0.16,-0.01,0.2
1.022518038749695,2,3,3,3,-9.460000000000001,-0.5600000000000001,2.37,-0.16,-0.09,0.22
1.032518029212952,2,3,3,3,-9.470000000000001,-0.57,2.41,-0.17,-0.08,0.27
1.042518019676208,2,3,3,3,-9.460000000000001,-0.57,2.43,-0.15,-0.08,0.31
1.052518010139465,2,3,3,3,-9.48,-0.57,2.42,-0.17,-0.02,0.27
1.062518000602722,2,3,3,3,-9.470000000000001,-0.6,2.31,-0.11,-0.05,0.29
1.072517991065979,2,3,3,3,-9.48,-0.55,2.32,-0.04,-0.02,0.23
1.082517981529236,2,3,3,3,-9.48,-0.55,2.44,0.03,-0.01,0.18
1.092517971992493,2,3,3,3,-9.449999999999999,-0.54,2.46,0.07000000000000001,0.01,0.16
1.10251796245575,2,3,3,3,-9.470000000000001,-0.53,2.46,0.04,0.01,0.14
1.112517952919006,2,3,3,3,-9.48,-0.53,2.33,-0.02,-0.01,0.1
1.122517943382263,2,3,3,3,-9.48,-0.54,2.37,-0.07000000000000001,0.09,0.08
1.13251793384552,2,3,3,3,-9.51,-0.53,2.42,-0.06,0.11,0.08
1.142517924308777,2,3,3,3,-9.52,-0.54,2.43,-0.06,0.11,0.1
1.152517914772034,2,3,3,3,-9.550000000000001,-0.54,2.39,-0.07000000000000001,0.1,0.14
1.162517905235291,2,3,3,3,-9.539999999999999,-0.54,2.34,-0.08,-0.01,0.16
1.172517895698547,2,3,3,3,-9.52,-0.55,2.38,-0.12,-0.04,0.2
1.183518052101135,2,3,3,3,-9.5,-0.55,2.4,-0.16,-0.04,0.21
1.193518042564392,2,3,3,3,-9.460000000000001,-0.58,2.42,-0.2,-0.02,0.19
1.203518033027649,2,3,3,3,-9.43,-0.57,2.43,-0.25,-0.04,0.15
1.213518023490906,2,3,3,3,-9.43,-0.58,2.29,-0.29,0.01,0.13
1.223518013954163,2,3,3,3,-9.460000000000001,-0.62,2.28,-0.36,0.04,0.11
1.233518004417419,2,3,3,3,-9.529999999999999,-0.6,2.34,-0.31,0.1,0.12
1.243517994880676,2,3,3,3,-9.529999999999999,-0.61,2.38,-0.25,0.06,0.11
1.253517985343933,2,3,3,3,-9.52,-0.6,2.41,-0.14,0.06,0.1
1.26351797580719,2,3,3,3,-9.5,-0.63,2.3,-0.14,0.01,0.12
1.273517966270447,2,3,3,3,-9.49,-0.59,2.35,-0.13,0.02,0.12
1.283517956733704,2,3,3,3,-9.470000000000001,-0.61,2.37,-0.07000000000000001,0.02,0.1
1.29351794719696,2,3,3,3,-9.44,-0.61,2.39,-0.05,0.08,0.06
1.303517937660217,2,3,3,3,-9.44,-0.6,2.31,-0.07000000000000001,0.12,0
1.313517928123474,2,3,3,3,-9.460000000000001,-0.6,2.22,-0.15,0.19,-0.01
1.323517918586731,2,3,3,3,-9.49,-0.63,2.24,-0.21,0.19,-0.04
1.333517909049988,2,3,3,3,-9.539999999999999,-0.62,2.27,-0.19,0.18,-0.06
1.343517899513245,2,3,3,3,-9.550000000000001,-0.58,2.35,-0.1,0.14,-0.02
1.353517889976501,2,3,3,3,-9.550000000000001,-0.58,2.36,-0.02,0.07000000000000001,0.01
1.363517880439758,2,3,3,3,-9.539999999999999,-0.57,2.28,-0.02,0,0.07000000000000001
1.373517870903015,2,3,3,3,-9.539999999999999,-0.6,2.3,-0.08,-0.04,0.08
1.383517861366272,2,3,3,3,-9.51,-0.54,2.34,-0.11,-0.03,0.1
1.393518090248108,2,3,3,3,-9.49,-0.54,2.37,-0.13,-0.02,0.12
1.403518080711365,2,3,3,3,-9.470000000000001,-0.53,2.35,-0.16,-0.02,0.08
1.413518071174622,2,3,3,3,-9.49,-0.55,2.24,-0.19,-0.1,0.07000000000000001
1.423518061637878,2,3,3,3,-9.550000000000001,-0.62,2.23,-0.24,-0.17,0.09
1.433518052101135,2,3,3,3,-9.550000000000001,-0.65,2.3,-0.24,-0.28,0.19
1.443518042564392,2,3,3,3,-9.59,-0.67,2.33,-0.29,-0.47,0.26
1.453518033027649,2,3,3,3,-9.609999999999999,-0.7,2.35,-0.27,-0.67,0.37
1.463518023490906,2,3,3,3,-9.56,-0.79,2.2,-0.3,-0.85,0.43
1.473518013954163,2,3,3,3,-9.550000000000001,-0.86,2.19,-0.31,-0.98,0.44
1.483518004417419,2,3,3,3,-9.550000000000001,-0.88,2.24,-0.28,-1.16,0.48
1.493517994880676,2,3,3,3,-9.58,-0.95,2.36,-0.22,-1.31,0.5
1.503517985343933,2,3,3,3,-9.58,-0.98,2.35,-0.05,-1.47,0.54
1.51351797580719,2,3,3,3,-9.550000000000001,-0.96,2.22,0.03,-1.62,0.58
1.523517966270447,2,3,3,3,-9.51,-0.98,2.2,-0.07000000000000001,-1.52,0.62
1.533517956733704,2,3,3,3,-9.609999999999999,-1.03,2.41,-0.02,-1.26,0.63
1.54351794719696,2,3,3,3,-9.66,-1.09,2.48,0,-1.15,0.62
1.553517937660217,2,3,3,3,-9.75,-1.21,2.5,-0.1,-1.17,0.62
1.563517928123474,2,3,3,3,-9.789999999999999,-1.36,2.37,-0.24,-1.45,0.62
1.573517918586731,2,3,3,3,-9.6,-1.53,2.05,-0.65,-1.64,0.53
1.583517909049988,2,3,3,3,-9.609999999999999,-1.65,2.13,-0.6899999999999999,-1.46,0.49
1.593517899513245,2,3,3,3,-9.640000000000001,-1.72,2.14,-0.36,-1.4,0.54
1.603517889976501,2,3,3,3,-9.6,-1.86,2.06,-0.09,-1.45,0.51
1.613517880439758,2,3,3,3,-9.59,-1.93,2.01,0.33,-1.32,0.44
1.623517870903015,2,3,3,3,-9.58,-1.91,2.15,1.03,-1.25,0.36
1.633517861366272,2,3,3,3,-9.550000000000001,-1.89,2.27,1.61,-1.24,0.2
1.643518090248108,2,3,3,3,-9.470000000000001,-1.89,2.27,2,-1.02,-0.02
1.653518080711365,2,3,3,3,-9.35,-1.79,2.16,2.32,-0.74,-0.27
1.663518071174622,2,3,3,3,-9.26,-1.7,2.08,2.7,-0.25,-0.58
1.673518061637878,2,3,3,3,-9.17,-1.53,2.15,3.16,0.33,-0.85
1.683518052101135,2,3,3,3,-9.15,-1.06,2.2,3.46,0.97,-1.26
1.693518042564392,2,3,3,3,-9.33,-0.74,2.32,3.56,1.71,-1.56
1.703518033027649,2,3,3,3,-9.48,-0.31,2.54,3.54,2.42,-1.8
1.713518023490906,2,3,3,3,-9.51,0.09,2.62,2.97,2.71,-2.08
1.723518013954163,2,3,3,3,-9.51,0.51,2.82,1.85,2.82,-2.21
1.733518004417419,2,3,3,3,-9.56,0.51,2.84,0.59,3.1,-2.32
1.743517994880676,2,3,3,3,-9.609999999999999,0.47,2.8,-0.6899999999999999,3.33,-2.51
1.753517985343933,2,3,3,3,-9.73,0.43,2.68,-1.82,3.5,-2.8
1.76351797580719,2,3,3,3,-9.720000000000001,0.41,2.41,-2.77,3.4,-3.06
1.773517966270447,2,3,3,3,-9.65,0.28,2.36,-3.69,3.13,-3.36
1.783517956733704,2,3,3,3,-9.550000000000001,0.05,2.28,-4.4,2.92,-3.59
1.79351794719696,2,3,3,3,-9.449999999999999,-0.18,2.24,-4.79,2.73,-3.73
1.803517937660217,2,3,3,3,-9.49,-0.6,2.07,-4.77,2.63,-3.78
1.813517928123474,2,3,3,3,-9.42,-0.7,1.98,-4.46,2.28,-3.73
1.823517918586731,2,3,3,3,-9.32,-0.76,2.1,-4.05,1.9,-3.61
1.833517909049988,2,3,3,3,-9.220000000000001,-0.88,2.44,-3.75,1.71,-3.36
1.843517899513245,2,3,3,3,-9.300000000000001,-0.88,2.55,-3.59,1.55,-3.16
1.853517889976501,2,3,3,3,-9.33,-0.93,2.51,-3.6,1.49,-3.07
1.863517880439758,2,3,3,3,-9.44,-0.97,2.3,-3.79,1.62,-3.05
1.873517870903015,2,3,3,3,-9.65,-1.09,2.07,-3.98,1.81,-3.01
1.883517861366272,2,3,3,3,-9.67,-1.22,2,-3.92,1.79,-3.09
1.893518090248108,2,3,3,3,-9.57,-1.46,1.91,-3.65,1.63,-3.26
1.903518080711365,2,3,3,3,-9.449999999999999,-1.65,1.82,-3.1,1.51,-3.54
1.913518071174622,2,3,3,3,-9.31,-2.11,1.83,-2.42,1.6,-3.79
1.923518061637878,2,3,3,3,-9.289999999999999,-2.19,1.8,-1.68,1.8,-4.03
1.933518052101135,2,3,3,3,-9.32,-2.17,1.77,-1,1.97,-4.27
1.943518042564392,2,3,3,3,-9.369999999999999,-2.09,1.86,-0.2,2.02,-4.44
1.953518033027649,2,3,3,3,-9.32,-1.79,2.1,0.54,1.86,-4.49
1.963518023490906,2,3,3,3,-9.25,-1.64,2.04,1.08,1.41,-4.29
1.973518013954163,2,3,3,3,-9.199999999999999,-1.47,2.04,1.31,1.18,-4.03
1.983518004417419,2,3,3,3,-9.23,-1.35,2.15,1.5,1.29,-3.72
1.993517994880676,2,3,3,3,-9.529999999999999,-1,2.34,1.62,1.39,-3.47
2.003517985343933,2,3,3,3,-9.6,-0.83,2.32,1.57,1.47,-3.31
2.01351797580719,2,3,3,3,-9.65,-0.6899999999999999,2.23,1.44,1.4,-3.17
2.023517966270447,2,3,3,3,-9.6,-0.6,2.29,1.2,1.29,-3.09
2.033517956733704,2,3,3,3,-9.550000000000001,-0.66,2.25,0.78,1.14,-3.06
2.04351794719696,2,3,3,3,-9.5,-0.8100000000000001,2.18,0.31,0.91,-3.07
2.053517937660217,2,3,3,3,-9.539999999999999,-0.95,2.2,0.08,0.78,-2.98
2.063517928123474,2,3,3,3,-9.57,-1.22,1.98,0.01,0.72,-2.87
2.073517918586731,2,3,3,3,-9.539999999999999,-1.27,1.98,-0.1,0.52,-2.68
2.083517909049988,2,3,3,3,-9.51,-1.31,2,-0.1,0.43,-2.5
2.093517899513245,2,3,3,3,-9.470000000000001,-1.32,2.08,-0.07000000000000001,0.4,-2.24
2.103517889976501,2,3,3,3,-9.41,-1.33,2.07,0.03,0.45,-1.99
2.113517880439758,2,3,3,3,-9.449999999999999,-1.37,2,0.18,0.37,-1.7
2.123517870903015,2,3,3,3,-9.460000000000001,-1.42,2.04,0.35,0.37,-1.49
2.133517861366272,2,3,3,3,-9.5,-1.44,2.08,0.49,0.34,-1.3
2.143518090248108,2,3,3,3,-9.51,-1.49,2.04,0.52,0.15,-1.15
2.153518080711365,2,3,3,3,-9.51,-1.47,2.03,0.57,0.07000000000000001,-0.98
2.163518071174622,2,3,3,3,-9.51,-1.48,1.95,0.54,0.17,-0.8
2.173518061637878,2,3,3,3,-9.5,-1.48,1.95,0.44,0.25,-0.61
2.183518052101135,2,3,3,3,-9.51,-1.53,2.04,0.39,0.32,-0.53
2.193518042564392,2,3,3,3,-9.57,-1.53,2.09,0.42,0.24,-0.51
2.204517960548401,2,3,3,3,-9.58,-1.56,2.09,0.37,0.12,-0.51
2.214517951011658,2,3,3,3,-9.57,-1.6,1.99,0.29,-0.01,-0.45
2.224517941474915,2,3,3,3,-9.42,-1.75,2,0.2,-0.05,-0.39
2.234517931938171,2,3,3,3,-9.369999999999999,-1.86,1.98,0.15,-0.03,-0.41
2.244517922401428,2,3,3,3,-9.4,-1.91,1.96,0.21,0.14,-0.33
2.254517912864685,2,3,3,3,-9.51,-1.98,1.95,0.43,0.32,-0.27
2.264517903327942,2,3,3,3,-9.52,-1.99,1.86,0.64,0.26,-0.21
2.274517893791199,2,3,3,3,-9.5,-2,1.81,0.73,0.1,-0.15
2.284517884254456,2,3,3,3,-9.48,-1.97,1.79,0.86,0.08,-0.07000000000000001
2.294517874717712,2,3,3,3,-9.470000000000001,-1.85,1.93,1.08,0.11,-0.02
2.304517865180969,2,3,3,3,-9.470000000000001,-1.8,1.89,1.28,0.04,0.07000000000000001
2.314518094062805,2,3,3,3,-9.449999999999999,-1.74,1.81,1.35,-0.03,0.14
2.324518084526062,2,3,3,3,-9.42,-1.72,1.87,1.39,-0.01,0.23
2.334518074989319,2,3,3,3,-9.449999999999999,-1.67,2.02,1.35,-0.03,0.31
2.344518065452576,2,3,3,3,-9.449999999999999,-1.67,2.01,1.17,-0.13,0.42
2.354518055915833,2,3,3,3,-9.49,-1.69,2,1.03,-0.11,0.47
2.364518046379089,2,3,3,3,-9.48,-1.68,1.92,0.95,-0.06,0.54
2.374518036842346,2,3,3,3,-9.52,-1.73,1.84,0.84,-0.01,0.53
2.384518027305603,2,3,3,3,-9.539999999999999,-1.74,1.88,0.72,0.01,0.48
2.39451801776886,2,3,3,3,-9.539999999999999,-1.72,1.9,0.67,-0.02,0.46
2.404518008232117,2,3,3,3,-9.539999999999999,-1.71,1.81,0.75,-0.12,0.4
2.414517998695374,2,3,3,3,-9.48,-1.69,1.81,0.87,-0.21,0.44
2.42451798915863,2,3,3,3,-9.48,-1.67,1.89,0.95,-0.29,0.49
2.434517979621887,2,3,3,3,-9.43,-1.66,1.93,0.9399999999999999,-0.28,0.5600000000000001
2.444517970085144,2,3,3,3,-9.42,-1.65,1.98,0.88,-0.23,0.63
2.454517960548401,2,3,3,3,-9.43,-1.66,2.01,0.83,-0.14,0.6899999999999999
2.464517951011658,2,3,3,3,-9.49,-1.67,1.86,0.73,-0.03,0.72
2.474517941474915,2,3,3,3,-9.49,-1.66,1.82,0.6,-0.01,0.73
2.484517931938171,2,3,3,3,-9.529999999999999,-1.67,1.89,0.58,0.03,0.76
2.494517922401428,2,3,3,3,-9.52,-1.67,1.9,0.54,-0.06,0.8
2.504517912864685,2,3,3,3,-9.49,-1.66,1.92,0.5,-0.1,0.77
2.514517903327942,2,3,3,3,-9.48,-1.67,1.88,0.43,-0.07000000000000001,0.78
2.524517893791199,2,3,3,3,-9.48,-1.64,1.93,0.39,-0.08,0.8
2.534517884254456,2,3,3,3,-9.51,-1.64,1.88,0.3,-0.09,0.79
2.544517874717712,2,3,3,3,-9.52,-1.59,1.9,0.19,-0.11,0.75
2.554517865180969,2,3,3,3,-9.550000000000001,-1.57,1.93,0.17,-0.19,0.76
2.564518094062805,2,3,3,3,-9.539999999999999,-1.6,1.91,0.18,-0.26,0.76
2.574518084526062,2,3,3,3,-9.470000000000001,-1.59,1.93,0.13,-0.33,0.76
2.584518074989319,2,3,3,3,-9.470000000000001,-1.6,1.96,0.08,-0.31,0.76
2.594518065452576,2,3,3,3,-9.44,-1.64,1.98,0.04,-0.32,0.79
2.604518055915833,2,3,3,3,-9.460000000000001,-1.65,1.92,-0.06,-0.27,0.8
2.614518046379089,2,3,3,3,-9.470000000000001,-1.65,1.8,-0.1,-0.23,0.8
2.624518036842346,2,3,3,3,-9.529999999999999,-1.66,1.83,0.04,-0.2,0.82
2.634518027305603,2,3,3,3,-9.539999999999999,-1.67,1.93,0.16,-0.3,0.8100000000000001
2.64451801776886,2,3,3,3,-9.550000000000001,-1.64,1.93,0.3,-0.34,0.78
2.654518008232117,2,3,3,3,-9.539999999999999,-1.62,1.96,0.42,-0.35,0.85
2.664517998695374,2,3,3,3,-9.52,-1.6,1.9,0.49,-0.32,0.86
2.67451798915863,2,3,3,3,-9.48,-1.5,1.95,0.51,-0.37,0.96
2.684517979621887,2,3,3,3,-9.43,-1.45,1.96,0.47,-0.44,0.98
2.694517970085144,2,3,3,3,-9.460000000000001,-1.4,1.94,0.38,-0.57,0.99
2.704517960548401,2,3,3,3,-9.5,-1.4,1.95,0.32,-0.65,1.01
2.714517951011658,2,3,3,3,-9.58,-1.43,1.83,0.21,-0.72,1.02
2.724517941474915,2,3,3,3,-9.58,-1.39,1.93,0.08,-0.87,1.01
2.734517931938171,2,3,3,3,-9.59,-1.43,2.02,-0.02,-0.9399999999999999,1.01
2.744517922401428,2,3,3,3,-9.57,-1.39,2.01,0,-1.06,0.99
2.754517912864685,2,3,3,3,-9.43,-1.4,2.02,-0.06,-1.15,1.02
2.764517903327942,2,3,3,3,-9.42,-1.41,1.96,-0.14,-1.09,1.04
2.774517893791199,2,3,3,3,-9.44,-1.44,1.99,-0.3,-0.99,1.13
2.784517884254456,2,3,3,3,-9.51,-1.41,1.94,-0.44,-0.86,1.18
2.794517874717712,2,3,3,3,-9.550000000000001,-1.36,2.04,-0.41,-0.68,1.21
2.804517865180969,2,3,3,3,-9.59,-1.33,2.03,-0.26,-0.67,1.28
2.814518094062805,2,3,3,3,-9.59,-1.32,1.94,-0.25,-0.8100000000000001,1.36
2.824518084526062,2,3,3,3,-9.529999999999999,-1.33,1.98,-0.2,-0.9,1.41
2.834518074989319,2,3,3,3,-9.48,-1.34,2.02,-0.18,-1.01,1.55
2.844518065452576,2,3,3,3,-9.449999999999999,-1.37,2.04,-0.31,-0.98,1.7
2.854518055915833,2,3,3,3,-9.48,-1.42,2.09,-0.34,-0.96,1.83
2.864518046379089,2,3,3,3,-9.470000000000001,-1.41,1.9,-0.25,-1.03,1.96
2.874518036842346,2,3,3,3,-9.44,-1.39,1.91,-0.12,-1.17,2.1
2.884518027305603,2,3,3,3,-9.460000000000001,-1.37,1.98,0.04,-1.13,2.27
2.89451801776886,2,3,3,3,-9.49,-1.3,2,0.29,-1.14,2.37
2.904518008232117,2,3,3,3,-9.43,-1.16,2.13,0.52,-1.23,2.45
2.914517998695374,2,3,3,3,-9.44,-1.1,2.08,0.71,-1.32,2.48
2.92451798915863,2,3,3,3,-9.449999999999999,-1.05,2.22,0.75,-1.47,2.48
2.934517979621887,2,3,3,3,-9.44,-0.9399999999999999,2.28,0.7,-1.46,2.51
2.944517970085144,2,3,3,3,-9.44,-0.86,2.31,0.5,-1.35,2.51
2.954517960548401,2,3,3,3,-9.48,-0.87,2.27,0.14,-1.23,2.45
2.964517951011658,2,3,3,3,-9.56,-0.88,2.11,-0.18,-1.16,2.39
2.974517941474915,2,3,3,3,-9.6,-0.87,2.14,-0.21,-1.08,2.26
2.984517931938171,2,3,3,3,-9.59,-0.93,2.18,-0.18,-1.04,2.18
2.994517922401428,2,3,3,3,-9.6,-0.96,2.21,-0.23,-1.04,2.15
3.004517912864685,2,3,3,3,-9.56,-0.99,2.16,-0.27,-1.13,2.16
3.014517903327942,2,3,3,3,-9.51,-1.05,2.13,-0.21,-1.12,2.17
3.024517893791199,2,3,3,3,-9.5,-1.03,2.16,-0.11,-1.09,2.25
3.034517884254456,2,3,3,3,-9.5,-1.03,2.15,-0.08,-1.14,2.3
3.044517874717712,2,3,3,3,-9.460000000000001,-1.01,2.11,-0.03,-1.22,2.33
3.054517865180969,2,3,3,3,-9.390000000000001,-0.99,2.18,0.01,-1.23,2.36
3.064518094062805,2,3,3,3,-9.42,-1.04,2.21,0.15,-1.21,2.41
3.074518084526062,2,3,3,3,-9.470000000000001,-1.08,2.31,0.3,-1.21,2.39
3.084518074989319,2,3,3,3,-9.470000000000001,-1.03,2.28,0.57,-1.38,2.34
3.094518065452576,2,3,3,3,-9.449999999999999,-0.95,2.27,0.59,-1.46,2.32
3.104518055915833,2,3,3,3,-9.44,-0.95,2.27,0.62,-1.37,2.28
3.114518046379089,2,3,3,3,-9.470000000000001,-0.85,2.24,0.73,-1.2,2.19
3.124518036842346,2,3,3,3,-9.44,-0.83,2.27,0.78,-1.08,2.12
3.134518027305603,2,3,3,3,-9.43,-0.77,2.31,0.6899999999999999,-0.97,2.07
3.14451801776886,2,3,3,3,-9.41,-0.82,2.34,0.5600000000000001,-0.78,2.03
3.154518008232117,2,3,3,3,-9.470000000000001,-0.85,2.34,0.42,-0.79,2.04
3.164517998695374,2,3,3,3,-9.5,-0.87,2.17,0.35,-0.8,1.98
3.17451798915863,2,3,3,3,-9.5,-0.85,2.2,0.37,-0.86,1.95
3.184517979621887,2,3,3,3,-9.5,-0.84,2.25,0.47,-0.9399999999999999,1.87
3.194517970085144,2,3,3,3,-9.49,-0.88,2.37,0.68,-1.03,1.82
3.204517960548401,2,3,3,3,-9.44,-0.89,2.45,0.99,-1.17,1.75
3.214517951011658,2,3,3,3,-9.42,-0.92,2.36,1.13,-1.32,1.72
3.225517868995667,2,3,3,3,-9.41,-0.91,2.48,1.1,-1.3,1.72
3.235517859458923,2,3,3,3,-9.4,-0.9,2.51,1.02,-1.21,1.65
3.265518069267273,2,3,3,3,-9.539999999999999,-0.51,2.45,0.8100000000000001,-0.82,1.42
3.27551805973053,2,3,3,3,-9.470000000000001,-0.48,2.48,0.76,-0.71,1.29
3.285518050193787,2,3,3,3,-9.359999999999999,-0.59,2.62,0.86,-0.62,1.18
3.295518040657043,2,3,3,3,-9.390000000000001,-0.65,2.68,0.87,-0.55,1.04
3.3055180311203,2,3,3,3,-9.44,-0.7,2.61,0.82,-0.54,0.92
3.315518021583557,2,3,3,3,-9.48,-0.75,2.47,0.72,-0.63,0.82
3.325518012046814,2,3,3,3,-9.43,-0.8100000000000001,2.44,0.64,-0.8,0.73
3.335518002510071,2,3,3,3,-9.34,-0.86,2.43,0.6899999999999999,-0.77,0.72
3.345517992973328,2,3,3,3,-9.41,-0.88,2.5,0.8,-0.53,0.73
3.355517983436584,2,3,3,3,-9.550000000000001,-0.85,2.49,0.97,-0.47,0.72
3.365517973899841,2,3,3,3,-9.51,-0.83,2.44,1.09,-0.5600000000000001,0.66
3.375517964363098,2,3,3,3,-9.460000000000001,-0.75,2.54,1.22,-0.5600000000000001,0.61
3.385517954826355,2,3,3,3,-9.4,-0.73,2.59,1.23,-0.51,0.55
3.395517945289612,2,3,3,3,-9.390000000000001,-0.63,2.74,1.28,-0.51,0.55
3.405517935752869,2,3,3,3,-9.42,-0.6,2.69,1.43,-0.5600000000000001,0.5600000000000001
3.415517926216125,2,3,3,3,-9.35,-0.58,2.57,1.42,-0.6,0.61
3.425517916679382,2,3,3,3,-9.31,-0.54,2.56,1.3,-0.55,0.66
3.435517907142639,2,3,3,3,-9.4,-0.52,2.72,1.26,-0.32,0.71
3.445517897605896,2,3,3,3,-9.44,-0.43,2.73,1.53,-0.39,0.75
3.455517888069153,2,3,3,3,-9.449999999999999,-0.44,2.69,1.49,-0.59,0.77
3.46551787853241,2,3,3,3,-9.49,-0.52,2.55,1.4,-0.66,0.7
3.475517868995667,2,3,3,3,-9.470000000000001,-0.6,2.52,1.37,-0.7,0.65
3.485517859458923,2,3,3,3,-9.460000000000001,-0.57,2.55,1.59,-0.76,0.57
3.495518088340759,2,3,3,3,-9.48,-0.54,2.57,1.72,-0.65,0.53
3.505518078804016,2,3,3,3,-9.550000000000001,-0.47,2.61,1.78,-0.55,0.49
3.515518069267273,2,3,3,3,-9.529999999999999,-0.28,2.64,1.77,-0.61,0.48
3.52551805973053,2,3,3,3,-9.470000000000001,-0.2,2.73,1.66,-0.79,0.48
3.535518050193787,2,3,3,3,-9.35,-0.13,2.83,1.49,-0.91,0.51
3.545518040657043,2,3,3,3,-9.279999999999999,-0.18,2.78,1.19,-0.83,0.45
3.5555180311203,2,3,3,3,-9.34,-0.2,2.79,0.88,-0.59,0.42
3.565518021583557,2,3,3,3,-9.380000000000001,-0.24,2.72,0.74,-0.41,0.35
3.575518012046814,2,3,3,3,-9.5,-0.25,2.72,0.73,-0.49,0.32
3.585518002510071,2,3,3,3,-9.48,-0.26,2.8,0.84,-0.77,0.35
3.595517992973328,2,3,3,3,-9.48,-0.26,2.8,0.84,-0.77,0.35
3.605517983436584,2,3,3,3,-9.449999999999999,-0.26,2.72,0.68,-1.01,0.41
3.615517973899841,2,3,3,3,-9.35,-0.34,2.53,0.24,-1.23,0.49
3.625517964363098,2,3,3,3,-9.27,-0.32,2.61,0.26,-1.23,0.55
3.635517954826355,2,3,3,3,-9.26,-0.34,2.63,0.3,-1.09,0.6
3.645517945289612,2,3,3,3,-9.26,-0.34,2.63,0.3,-1.09,0.6
3.655517935752869,2,3,3,3,-9.31,-0.32,2.66,0.32,-0.87,0.67
3.665517926216125,2,3,3,3,-9.449999999999999,-0.16,2.61,0.43,-0.79,0.78
3.675517916679382,2,3,3,3,-9.43,-0.14,2.68,0.33,-0.86,0.78
3.685517907142639,2,3,3,3,-9.369999999999999,-0.09,2.76,0.12,-0.86,0.75
3.695517897605896,2,3,3,3,-9.369999999999999,-0.09,2.76,0.12,-0.86,0.75
3.705517888069153,2,3,3,3,-9.369999999999999,-0.07000000000000001,2.78,-0.12,-0.67,0.66
3.71551787853241,2,3,3,3,-9.44,-0.09,2.69,-0.57,-0.24,0.5
3.725517868995667,2,3,3,3,-9.51,-0.12,2.79,-0.62,-0.17,0.48
3.735517859458923,2,3,3,3,-9.52,-0.11,2.86,-0.38,-0.42,0.45
3.745518088340759,2,3,3,3,-9.52,-0.11,2.86,-0.38,-0.42,0.45
3.755518078804016,2,3,3,3,-9.44,-0.09,2.81,-0.26,-0.83,0.49
3.765518069267273,2,3,3,3,-9.32,-0.19,2.62,-0.53,-1.07,0.49
3.77551805973053,2,3,3,3,-9.359999999999999,-0.22,2.76,-0.48,-1.04,0.53
3.785518050193787,2,3,3,3,-9.35,-0.23,2.87,-0.4,-1.12,0.5600000000000001
3.795518040657043,2,3,3,3,-9.35,-0.23,2.87,-0.4,-1.12,0.5600000000000001
3.8055180311203,2,3,3,3,-9.359999999999999,-0.22,2.91,-0.35,-1.12,0.62
3.815518021583557,2,3,3,3,-9.34,-0.11,2.82,-0.22,-1.15,0.71
3.825518012046814,2,3,3,3,-9.33,-0.07000000000000001,2.79,-0.35,-1.18,0.7
3.835518002510071,2,3,3,3,-9.33,-0.08,2.85,-0.57,-1.06,0.64
3.845517992973328,2,3,3,3,-9.33,-0.08,2.85,-0.57,-1.06,0.64
3.855517983436584,2,3,3,3,-9.380000000000001,-0.07000000000000001,2.95,-0.66,-0.83,0.55
3.865517973899841,2,3,3,3,-9.44,-0.05,2.81,-1.02,-0.31,0.29
3.875517964363098,2,3,3,3,-9.449999999999999,-0.06,2.83,-1.08,-0.18,0.16
3.885517954826355,2,3,3,3,-9.44,-0.09,2.93,-1.1,-0.06,0.05
3.895517945289612,2,3,3,3,-9.44,-0.09,2.93,-1.1,-0.06,0.05
3.905517935752869,2,3,3,3,-9.359999999999999,-0.13,2.93,-0.98,-0.03,-0.04
3.925517916679382,2,3,3,3,-9.27,-0.24,2.96,-0.74,-0.12,0
3.935517907142639,2,3,3,3,-9.24,-0.27,2.96,-0.71,-0.24,0.08
3.945517897605896,2,3,3,3,-9.24,-0.27,2.96,-0.71,-0.24,0.08
3.955517888069153,2,3,3,3,-9.210000000000001,-0.3,2.91,-0.82,-0.27,0.22
3.96551787853241,2,3,3,3,-9.31,-0.24,2.8,-0.8100000000000001,0.03,0.39
3.975517868995667,2,3,3,3,-9.359999999999999,-0.2,2.87,-0.74,0.08,0.4
3.985517859458923,2,3,3,3,-9.359999999999999,-0.19,2.92,-0.65,0.09,0.39
3.995518088340759,2,3,3,3,-9.359999999999999,-0.19,2.92,-0.65,0.09,0.39
4.005518078804016,2,3,3,3,-9.4,-0.17,2.93,-0.64,0.12,0.36
4.015518069267273,2,3,3,3,-9.380000000000001,-0.1,2.86,-0.5600000000000001,0.19,0.31
4.02551805973053,2,3,3,3,-9.359999999999999,-0.11,2.89,-0.6899999999999999,0.23,0.28
4.035518050193787,2,3,3,3,-9.33,-0.12,2.97,-0.75,0.32,0.23
4.045518040657043,2,3,3,3,-9.33,-0.12,2.97,-0.75,0.32,0.23
4.0555180311203,2,3,3,3,-9.42,-0.18,3.16,-0.74,0.39,0.22
4.065518021583557,2,3,3,3,-9.380000000000001,-0.26,2.89,-0.74,-0.07000000000000001,0.25
4.075518012046814,2,3,3,3,-9.31,-0.26,2.84,-0.93,-0.16,0.21
4.085518002510071,2,3,3,3,-9.31,-0.26,2.84,-0.9399999999999999,-0.02,0.2
4.095517992973328,2,3,3,3,-9.32,-0.31,2.85,-0.9399999999999999,-0.02,0.2
4.105517983436584,2,3,3,3,-9.32,-0.29,2.94,-0.65,0.09,0.18
4.115517973899841,2,3,3,3,-9.34,-0.24,2.94,-0.11,-0.01,0.14
4.125517964363098,2,3,3,3,-9.31,-0.22,2.85,-0.06,-0.02,0.13
4.135517954826355,2,3,3,3,-9.33,-0.2,2.94,-0.13,0.02,0.14
4.145517945289612,2,3,3,3,-9.33,-0.21,2.94,-0.13,0.02,0.14
4.155517935752869,2,3,3,3,-9.34,-0.21,2.99,-0.22,0.1,0.15
4.165517926216125,2,3,3,3,-9.380000000000001,-0.17,2.9,-0.27,0.25,0.12
4.175517916679382,2,3,3,3,-9.390000000000001,-0.16,2.95,-0.08,0.22,0.13
4.185517907142639,2,3,3,3,-9.4,-0.15,3.03,-0.15,0.08,0.12
4.195517897605896,2,3,3,3,-9.35,-0.15,2.93,-0.15,0.08,0.12
4.205517888069153,2,3,3,3,-9.33,-0.13,2.98,-0.18,0.1,0.01
4.21551787853241,2,3,3,3,-9.33,-0.16,2.96,-0.31,0.11,0.03
4.225517868995667,2,3,3,3,-9.35,-0.17,2.85,-0.25,0.15,0.02
4.235517859458923,2,3,3,3,-9.369999999999999,-0.17,2.94,-0.21,0.09,0.03
4.245518088340759,2,3,3,3,-9.35,-0.18,3.02,-0.1,0.1,0.03
4.256518006324768,2,3,3,3,-9.33,-0.16,2.98,-0.16,0.06,0.06
4.266517996788025,2,3,3,3,-9.31,-0.17,2.97,-0.17,0.04,0.04
4.276517987251282,2,3,3,3,-9.32,-0.2,2.85,-0.26,0.05,0.04
4.286517977714539,2,3,3,3,-9.34,-0.19,2.89,-0.27,0.14,0.02
4.296517968177795,2,3,3,3,-9.390000000000001,-0.2,2.91,-0.27,0.14,0.02
4.306517958641052,2,3,3,3,-9.390000000000001,-0.18,2.96,-0.24,0.17,0.03
4.316517949104309,2,3,3,3,-9.369999999999999,-0.22,2.87,-0.36,0.17,0.01
4.326517939567566,2,3,3,3,-9.359999999999999,-0.19,2.79,-0.24,0.18,-0.01
4.336517930030823,2,3,3,3,-9.390000000000001,-0.21,2.88,-0.11,0.12,-0.05
4.34651792049408,2,3,3,3,-9.369999999999999,-0.21,2.96,-0.05,0.04,-0.06
4.356517910957336,2,3,3,3,-9.369999999999999,-0.25,3,-0.11,-0.03,-0.09
4.366517901420593,2,3,3,3,-9.35,-0.23,2.92,-0.14,-0.01,-0.12
4.37651789188385,2,3,3,3,-9.359999999999999,-0.23,2.8,-0.12,0.01,-0.13
4.386517882347107,2,3,3,3,-9.359999999999999,-0.22,2.83,-0.14,0.06,-0.12
4.396517872810364,2,3,3,3,-9.33,-0.25,2.89,-0.14,0.06,-0.12
4.406517863273621,2,3,3,3,-9.34,-0.25,2.92,0.01,0.22,-0.1
4.416518092155457,2,3,3,3,-9.369999999999999,-0.22,2.95,0.16,0.09,-0.1
4.426518082618713,2,3,3,3,-9.369999999999999,-0.22,2.88,0.19,-0.02,-0.08
4.43651807308197,2,3,3,3,-9.33,-0.21,2.87,0.22,0,-0.06
4.446518063545227,2,3,3,3,-9.34,-0.19,2.91,0.13,-0.01,-0.07000000000000001
4.456518054008484,2,3,3,3,-9.35,-0.15,2.9,0.04,0.04,-0.08
4.466518044471741,2,3,3,3,-9.380000000000001,-0.16,2.87,0.04,0.17,-0.12
4.476518034934998,2,3,3,3,-9.380000000000001,-0.17,2.83,0.1,0.21,-0.15
4.486518025398254,2,3,3,3,-9.390000000000001,-0.14,2.93,0.19,0.2,-0.15
4.496518015861511,2,3,3,3,-9.4,-0.13,2.96,0.19,0.2,-0.15
4.506518006324768,2,3,3,3,-9.35,-0.11,2.98,0.01,0.1,-0.18
4.516517996788025,2,3,3,3,-9.34,-0.14,2.89,0,0.12,-0.18
4.526517987251282,2,3,3,3,-9.35,-0.14,2.83,0.09,0.11,-0.22
4.536517977714539,2,3,3,3,-9.35,-0.13,2.82,0.07000000000000001,0.12,-0.19
4.546517968177795,2,3,3,3,-9.359999999999999,-0.17,2.88,0.08,0.14,-0.19
4.556517958641052,2,3,3,3,-9.359999999999999,-0.18,2.94,0.11,0.16,-0.18
4.566517949104309,2,3,3,3,-9.34,-0.18,2.92,0.05,0.2,-0.18
4.576517939567566,2,3,3,3,-9.35,-0.18,2.82,0.12,0.26,-0.18
4.586517930030823,2,3,3,3,-9.380000000000001,-0.19,2.91,0.17,0.2,-0.15
4.59651792049408,2,3,3,3,-9.380000000000001,-0.2,2.92,0.17,0.2,-0.15
4.606517910957336,2,3,3,3,-9.369999999999999,-0.2,2.93,0.21,0.1,-0.17
4.616517901420593,2,3,3,3,-9.35,-0.18,2.89,0.08,0.06,-0.17
4.62651789188385,2,3,3,3,-9.380000000000001,-0.2,2.77,0.02,0.11,-0.17
4.636517882347107,2,3,3,3,-9.369999999999999,-0.19,2.81,-0.06,0.1,-0.17
4.646517872810364,2,3,3,3,-9.369999999999999,-0.19,2.85,-0.08,0.14,-0.15
4.656517863273621,2,3,3,3,-9.369999999999999,-0.2,2.84,-0.07000000000000001,0.17,-0.19
4.666518092155457,2,3,3,3,-9.359999999999999,-0.2,2.84,-0.06,0.14,-0.18
4.676518082618713,2,3,3,3,-9.369999999999999,-0.21,2.76,-0.04,0.15,-0.16
4.68651807308197,2,3,3,3,-9.33,-0.2,2.8,0.11,0.27,-0.19
4.696518063545227,2,3,3,3,-9.34,-0.16,2.89,0.11,0.27,-0.19
4.706518054008484,2,3,3,3,-9.369999999999999,-0.14,3.04,0.33,0.31,-0.12
4.716518044471741,2,3,3,3,-9.380000000000001,-0.13,3.08,0.38,-0.07000000000000001,-0.05
4.726518034934998,2,3,3,3,-9.35,-0.13,2.88,0.18,-0.07000000000000001,-0.04
4.736518025398254,2,3,3,3,-9.35,-0.14,2.82,0.07000000000000001,0.07000000000000001,-0.02
4.746518015861511,2,3,3,3,-9.4,-0.13,2.86,0.07000000000000001,0.11,-0.06
4.756518006324768,2,3,3,3,-9.4,-0.13,2.86,0.07000000000000001,0.17,-0.09
4.766517996788025,2,3,3,3,-9.390000000000001,-0.15,2.83,0.14,0.16,-0.09
4.776517987251282,2,3,3,3,-9.380000000000001,-0.15,2.78,0.21,0.11,-0.12
4.786517977714539,2,3,3,3,-9.380000000000001,-0.18,2.84,0.21,0.03,-0.13
4.796517968177795,2,3,3,3,-9.380000000000001,-0.17,2.89,0.21,0.03,-0.13
4.806517958641052,2,3,3,3,-9.369999999999999,-0.15,2.87,0.21,-0.03,-0.11
4.816517949104309,2,3,3,3,-9.34,-0.13,2.87,0.15,-0.06,-0.07000000000000001
4.826517939567566,2,3,3,3,-9.35,-0.16,2.79,0.12,-0.04,-0.06
4.836517930030823,2,3,3,3,-9.35,-0.2,2.83,0.09,-0.03,-0.03
4.84651792049408,2,3,3,3,-9.33,-0.2,2.86,0.09,-0.03,-0.03
4.856517910957336,2,3,3,3,-9.35,-0.18,2.89,0.13,0.04,-0.02
4.866517901420593,2,3,3,3,-9.34,-0.18,2.87,0.18,0.06,-0.02
4.87651789188385,2,3,3,3,-9.380000000000001,-0.16,2.8,0.18,0.04,0.01
4.886517882347107,2,3,3,3,-9.380000000000001,-0.13,2.85,0.2,0,0.03
4.896517872810364,2,3,3,3,-9.41,-0.15,2.9,0.2,0,0.03
4.906517863273621,2,3,3,3,-9.359999999999999,-0.11,2.91,0.21,-0.06,0.01
4.916518092155457,2,3,3,3,-9.35,-0.11,2.89,-0.01,-0.01,0.03
4.926518082618713,2,3,3,3,-9.35,-0.14,2.79,0.02,-0.01,0.05
4.93651807308197,2,3,3,3,-9.359999999999999,-0.15,2.85,0.02,-0.04,0.05
4.946518063545227,2,3,3,3,-9.35,-0.18,2.87,0.02,-0.04,0.05
4.956518054008484,2,3,3,3,-9.359999999999999,-0.19,2.91,0,0.04,0.04
4.966518044471741,2,3,3,3,-9.359999999999999,-0.15,2.81,0.07000000000000001,0.04,0.02
4.976518034934998,2,3,3,3,-9.380000000000001,-0.16,2.74,0.16,-0.01,0.05
4.986518025398254,2,3,3,3,-9.380000000000001,-0.15,2.83,0.22,-0.07000000000000001,0.05
4.996518015861511,2,3,3,3,-9.380000000000001,-0.16,2.86,0.22,-0.07000000000000001,0.05
5.006518006324768,2,3,3,3,-9.380000000000001,-0.17,2.9,0.12,-0.15,0.1
5.016517996788025,2,3,3,3,-9.369999999999999,-0.19,2.86,0.09,-0.12,0.11
5.026517987251282,2,3,3,3,-9.34,-0.19,2.78,0.05,-0.02,0.11
5.036517977714539,2,3,3,3,-9.369999999999999,-0.2,2.79,0.04,-0.02,0.12
5.046517968177795,2,3,3,3,-9.380000000000001,-0.16,2.86,0.04,-0.02,0.12
5.056517958641052,2,3,3,3,-9.369999999999999,-0.16,2.88,0.04,0,0.07000000000000001
5.066517949104309,2,3,3,3,-9.359999999999999,-0.2,2.88,0.04,-0.01,0.08
5.076517939567566,2,3,3,3,-9.390000000000001,-0.17,2.79,0.05,0.02,0.06
5.086517930030823,2,3,3,3,-9.359999999999999,-0.18,2.84,0.12,-0.03,0.06
5.09651792049408,2,3,3,3,-9.359999999999999,-0.16,2.87,0.14,-0.06,0.05
5.106517910957336,2,3,3,3,-9.359999999999999,-0.14,2.91,0.21,-0.08,0.07000000000000001
5.116517901420593,2,3,3,3,-9.369999999999999,-0.14,2.88,0.19,-0.13,0.08
5.12651789188385,2,3,3,3,-9.34,-0.16,2.77,0.13,-0.15,0.1
5.136517882347107,2,3,3,3,-9.35,-0.17,2.85,0.04,-0.11,0.09
5.146517872810364,2,3,3,3,-9.380000000000001,-0.2,2.86,0.03,-0.06,0.09
5.156517863273621,2,3,3,3,-9.369999999999999,-0.2,2.84,-0.02,-0.06,0.08
5.166518092155457,2,3,3,3,-9.369999999999999,-0.22,2.87,-0.09,0.03,0.08
5.176518082618713,2,3,3,3,-9.380000000000001,-0.2,2.76,-0.04,0.03,0.07000000000000001
5.18651807308197,2,3,3,3,-9.390000000000001,-0.2,2.79,0.05,-0.01,0.06
5.196518063545227,2,3,3,3,-9.42,-0.19,2.9,0.17,-0.07000000000000001,0.05
5.206518054008484,2,3,3,3,-9.369999999999999,-0.2,2.93,0.2,-0.17,0.04
5.216518044471741,2,3,3,3,-9.359999999999999,-0.2,2.86,0.1,-0.16,0.06
5.226518034934998,2,3,3,3,-9.34,-0.16,2.76,0.02,-0.07000000000000001,0.06
5.236518025398254,2,3,3,3,-9.359999999999999,-0.17,2.85,0.06,-0.03,0.07000000000000001
5.246518015861511,2,3,3,3,-9.359999999999999,-0.16,2.88,0.16,-0.03,0.06
5.256518006324768,2,3,3,2,-9.34,-0.18,2.9,0.16,-0.06,0.1
5.266517996788025,2,3,3,2,-9.369999999999999,-0.17,2.83,0.1,-0.04,0.08
5.277517914772034,2,3,3,2,-9.41,-0.18,2.8,0.15,-0.06,0.06
5.287517905235291,2,3,3,2,-9.41,-0.16,2.83,0.25,-0.15,0.04
5.297517895698547,2,3,3,2,-9.4,-0.14,2.86,0.17,-0.18,0.06
5.307517886161804,2,3,3,2,-9.380000000000001,-0.17,2.88,0.14,-0.15,0.06
5.317517876625061,2,3,3,2,-9.369999999999999,-0.17,2.84,0.09,-0.12,0.05
5.327517867088318,2,3,3,2,-9.34,-0.16,2.75,0.08,-0.07000000000000001,0.05
5.337517857551575,2,3,3,2,-9.359999999999999,-0.14,2.74,0.07000000000000001,-0.06,0.01
5.347518086433411,2,3,3,2,-9.35,-0.16,2.86,0.04,-0.03,0
5.357518076896667,2,3,3,2,-9.35,-0.15,2.85,0.01,-0.01,-0.01
5.367518067359924,2,3,3,2,-9.35,-0.17,2.89,0.01,0.02,0.02
5.377518057823181,2,3,3,2,-9.359999999999999,-0.11,2.8,0.05,0.04,0.04
5.387518048286438,2,3,3,2,-9.359999999999999,-0.11,2.89,0.1,0.04,0.05
5.397518038749695,2,3,3,2,-9.359999999999999,-0.1,2.93,0.18,-0.02,0.08
5.407518029212952,2,3,3,2,-9.359999999999999,-0.1,2.9,0.16,-0.12,0.06
5.417518019676208,2,3,3,2,-9.359999999999999,-0.12,2.83,0.11,-0.12,0.07000000000000001
5.427518010139465,2,3,3,2,-9.35,-0.15,2.74,-0.03,-0.09,0.06
5.437518000602722,2,3,3,2,-9.359999999999999,-0.13,2.78,-0.12,0,0.04
5.447517991065979,2,3,3,2,-9.380000000000001,-0.14,2.82,-0.08,0.07000000000000001,0.03
5.457517981529236,2,3,3,2,-9.390000000000001,-0.14,2.91,-0.06,0.04,-0.02
5.467517971992493,2,3,3,2,-9.369999999999999,-0.14,2.9,0.04,0.04,-0.01
5.47751796245575,2,3,3,2,-9.34,-0.15,2.81,0.12,0.03,-0.03
5.487517952919006,2,3,3,2,-9.359999999999999,-0.13,2.82,0.19,-0.01,0.01
5.497517943382263,2,3,3,2,-9.33,-0.15,2.95,0.18,-0.05,0.01
5.50751793384552,2,3,3,2,-9.33,-0.14,2.89,0.15,-0.07000000000000001,0.03
5.517517924308777,2,3,3,2,-9.369999999999999,-0.14,2.89,0,-0.02,0.05
5.527517914772034,2,3,3,2,-9.369999999999999,-0.18,2.8,-0.03,0.05,0.03
5.547517895698547,2,3,3,2,-9.41,-0.19,2.81,-0.11,0.09,-0.04
5.577517867088318,2,3,3,2,-9.35,-0.18,2.76,0,-0.01,-0.07000000000000001
5.587517857551575,2,3,3,2,-9.33,-0.19,2.81,0.02,-0.06,-0.1
5.597518086433411,2,3,3,2,-9.33,-0.16,2.84,0.09,-0.04,-0.06
5.607518076896667,2,3,3,2,-9.33,-0.11,2.94,0.12,0,-0.08
5.617518067359924,2,3,3,2,-9.369999999999999,-0.13,2.88,0.09,-0.01,-0.1
5.627518057823181,2,3,3,2,-9.369999999999999,-0.13,2.78,0.04,0.05,-0.09
5.637518048286438,2,3,3,2,-9.359999999999999,-0.13,2.83,0.01,0.07000000000000001,-0.12
5.647518038749695,2,3,3,2,-9.359999999999999,-0.13,2.91,0.02,0.12,-0.09
5.657518029212952,2,3,3,2,-9.35,-0.12,2.88,0.05,0.05,-0.07000000000000001
5.72751796245575,2,3,3,2,-9.35,-0.16,2.74,0.08,-0.06,-0.05
5.737517952919006,2,3,3,2,-9.33,-0.15,2.8,0.1,-0.01,-0.02
5.747517943382263,2,3,3,2,-9.35,-0.13,2.87,0.14,-0.04,-0.02
5.75751793384552,2,3,3,2,-9.34,-0.11,2.95,0.12,-0.08,0.01
5.767517924308777,2,3,3,2,-9.35,-0.11,2.89,0.13,-0.07000000000000001,-0.02
5.777517914772034,2,3,3,2,-9.34,-0.1,2.8,0.04,-0.07000000000000001,0
5.787517905235291,2,3,3,2,-9.35,-0.12,2.8,-0.04,-0.02,-0.01
5.797517895698547,2,3,3,2,-9.380000000000001,-0.12,2.94,-0.04,0.04,-0.02
5.807517886161804,2,3,3,2,-9.359999999999999,-0.14,2.88,-0.09,0.02,-0.01
5.817517876625061,2,3,3,2,-9.369999999999999,-0.18,2.9,-0.11,0.04,-0.01
5.827517867088318,2,3,3,2,-9.380000000000001,-0.17,2.77,-0.05,0.09,-0.05
5.837517857551575,2,3,3,2,-9.369999999999999,-0.17,2.79,0.04,0.05,-0.03
5.847518086433411,2,3,3,2,-9.369999999999999,-0.17,2.83,0.08,0.01,-0.05
5.857518076896667,2,3,3,2,-9.380000000000001,-0.17,2.9,0.11,0.03,-0.04
5.867518067359924,2,3,3,2,-9.380000000000001,-0.16,2.85,0.12,0,-0.05
5.877518057823181,2,3,3,2,-9.35,-0.13,2.8,0.01,-0.01,-0.03
5.887518048286438,2,3,3,2,-9.34,-0.14,2.83,-0.04,0.06,-0.05
5.897518038749695,2,3,3,2,-9.34,-0.11,2.88,-0.04,0.04,-0.02
5.907518029212952,2,3,3,2,-9.35,-0.14,2.91,-0.02,0.06,-0.03
5.917518019676208,2,3,3,2,-9.359999999999999,-0.12,2.91,0.02,0.03,-0.01
5.927518010139465,2,3,3,2,-9.369999999999999,-0.17,2.81,0.08,0.01,0
5.937518000602722,2,3,3,2,-9.359999999999999,-0.16,2.8,0.07000000000000001,0.01,-0.01
5.947517991065979,2,3,3,2,-9.4,-0.13,2.85,0.08,0.02,-0.02
5.957517981529236,2,3,3,2,-9.369999999999999,-0.12,2.87,0.14,0.04,-0.06
5.967517971992493,2,3,3,2,-9.380000000000001,-0.12,2.88,0.16,0.05,-0.07000000000000001
5.997517943382263,2,3,3,2,-9.369999999999999,-0.15,2.88,0.05,0.09,-0.11
6.00751793384552,2,3,3,2,-9.359999999999999,-0.16,2.94,0.13,0.09,-0.13
6.017517924308777,2,3,3,2,-9.35,-0.16,2.88,0.1,0.07000000000000001,-0.18
6.027517914772034,2,3,3,2,-9.359999999999999,-0.19,2.73,0.07000000000000001,0.2,-0.14
6.037517905235291,2,3,3,2,-9.35,-0.22,2.79,0.06,0.26,-0.14
6.047517895698547,2,3,3,2,-9.359999999999999,-0.22,2.79,-0.04,0.22,-0.19
6.057517886161804,2,3,3,2,-9.359999999999999,-0.24,2.79,-0.14,0.33,-0.21
6.067517876625061,2,3,3,2,-9.43,-0.26,2.8,-0.05,0.41,-0.3
6.077517867088318,2,3,3,2,-9.44,-0.28,2.76,0.09,0.44,-0.33
6.087517857551575,2,3,3,2,-9.460000000000001,-0.3,2.84,0.2,0.46,-0.4
6.097518086433411,2,3,3,2,-9.4,-0.29,2.86,0.26,0.45,-0.53
6.107518076896667,2,3,3,2,-9.359999999999999,-0.29,2.8,0.17,0.44,-0.61
6.117518067359924,2,3,3,2,-9.380000000000001,-0.32,2.82,0.03,0.53,-0.74
6.127518057823181,2,3,3,2,-9.42,-0.34,2.71,0.06,0.65,-0.86
6.137518048286438,2,3,3,2,-9.449999999999999,-0.38,2.68,0.06,0.76,-0.98
6.147518038749695,2,3,3,2,-9.49,-0.38,2.72,0.16,0.82,-1.09
6.157518029212952,2,3,3,2,-9.449999999999999,-0.44,2.72,0.22,0.76,-1.25
6.167518019676208,2,3,3,2,-9.44,-0.47,2.74,0.23,0.77,-1.39
6.177518010139465,2,3,3,2,-9.43,-0.59,2.57,0.2,0.76,-1.49
6.187518000602722,2,3,3,2,-9.41,-0.61,2.58,0.09,0.85,-1.62
6.197517991065979,2,3,3,2,-9.41,-0.62,2.57,0.03,1.03,-1.69
6.207517981529236,2,3,3,2,-9.390000000000001,-0.64,2.59,0.07000000000000001,1.15,-1.8
6.217517971992493,2,3,3,2,-9.380000000000001,-0.6899999999999999,2.36,0.05,1.2,-1.92
6.22751796245575,2,3,3,2,-9.369999999999999,-0.73,2.28,0,1.23,-2.02
6.237517952919006,2,3,3,2,-9.35,-0.73,2.34,0.31,1.23,-2.07
6.247517943382263,2,3,3,2,-9.279999999999999,-0.71,2.36,0.47,1.14,-2.06
6.25751793384552,2,3,3,2,-9.17,-0.72,2.49,0.64,1.19,-2.02
6.267517924308777,2,3,3,2,-9.15,-0.73,2.52,0.78,1.22,-1.91
6.277517914772034,2,3,3,2,-9.130000000000001,-0.68,2.46,0.83,1.3,-1.78
6.287517905235291,2,3,3,2,-9.109999999999999,-0.71,2.44,0.79,1.34,-1.68
6.297517895698547,2,3,3,2,-9.19,-0.71,2.5,0.83,1.32,-1.67
6.308518052101135,2,3,3,3,-9.16,-0.6899999999999999,2.39,0.72,1.3,-1.69
6.318518042564392,2,3,3,3,-9.119999999999999,-0.75,2.25,0.26,1.35,-1.82
6.328518033027649,2,3,3,3,-9.039999999999999,-0.8,1.8,-0.15,1.57,-2.07
6.338518023490906,2,3,3,3,-9.01,-0.87,1.89,-0.39,1.83,-2.36
6.348518013954163,2,3,3,3,-9.029999999999999,-0.97,2.03,-0.21,1.99,-2.57
6.358518004417419,2,3,3,3,-9.029999999999999,-1.01,2.15,0.23,1.99,-2.62
6.368517994880676,2,3,3,3,-8.93,-1.17,2.19,0.3,1.97,-2.66
6.378517985343933,2,3,3,3,-8.73,-1.22,2.06,0.09,1.74,-2.76
6.38851797580719,2,3,3,3,-8.470000000000001,-1.14,1.96,-0.44,1.55,-2.98
6.398517966270447,2,3,3,3,-8.24,-1.16,1.87,-1.18,1.8,-3.3
6.408517956733704,2,3,3,3,-8.07,-1.29,1.84,-1.61,2.01,-3.66
6.41851794719696,2,3,3,3,-8.07,-1.43,1.74,-1.76,1.97,-4
6.428517937660217,2,3,3,3,-8.07,-1.61,1.55,-1.93,1.92,-4.31
6.438517928123474,2,3,3,3,-8.01,-1.78,1.49,-1.89,1.78,-4.59
6.448517918586731,2,3,3,3,-7.87,-1.67,1.33,-1.55,1.4,-4.88
6.458517909049988,2,3,3,3,-7.72,-1.55,1.41,-0.9399999999999999,0.88,-5.07
6.468517899513245,2,3,3,3,-7.52,-1.37,1.63,0.06,0.53,-5.21
6.478517889976501,2,3,3,3,-7.4,-1.12,1.83,0.78,0.13,-5.37
6.488517880439758,2,3,3,3,-7.18,-0.78,1.73,0.72,-0.27,-5.68
6.498517870903015,2,3,3,3,-7.07,-0.63,1.64,0.13,-0.73,-6.11
6.508517861366272,2,3,3,3,-7.11,-0.5,1.68,-0.22,-0.66,-6.58
6.518518090248108,2,3,3,3,-7.07,-0.27,1.84,-0.04,-0.34,-6.87
6.528518080711365,2,3,3,3,-7.07,-0.16,1.79,-0.13,-0.21,-7.02
6.538518071174622,2,3,3,3,-7.07,-0.12,2,-0.51,-0.55,-6.98
6.548518061637878,2,3,3,3,-7.23,-0.16,2.28,-0.52,-1.16,-6.6
6.558518052101135,2,3,3,3,-7.47,-0.4,2.62,-0.33,-2.02,-5.97
6.568518042564392,2,3,3,3,-7.66,-0.52,2.66,-0.33,-2.52,-5.29
6.578518033027649,2,3,3,3,-7.87,-0.6899999999999999,2.48,-0.72,-2.65,-4.86
6.588518023490906,2,3,3,3,-8.18,-0.77,2.31,-1.4,-2.92,-4.5
6.598518013954163,2,3,3,3,-8.17,-0.5,2.2,-1.67,-2.79,-4.19
6.608518004417419,2,3,3,3,-8.15,-0.27,2.31,-1.75,-2.22,-4.12
6.618517994880676,2,3,3,3,-8.039999999999999,-0.15,2.64,-1.5,-1.8,-4.21
6.628517985343933,2,3,3,3,-8.07,-0.13,2.89,-1.19,-1.9,-3.77
6.63851797580719,2,3,3,3,-8.300000000000001,-0.42,3.27,-1.02,-2.57,-2.86
6.648517966270447,2,3,3,3,-8.550000000000001,-0.55,3.57,-1.13,-3.13,-2.02
6.658517956733704,2,3,3,3,-8.98,-0.92,3.68,-1,-3.09,-1.3
6.66851794719696,2,3,3,3,-9.41,-1.17,3.58,-1.03,-2.84,-0.88
6.678517937660217,2,3,3,3,-10.24,-1.5,3.51,-1.23,-2.9,-0.46
6.688517928123474,2,3,3,3,-10.65,-1.44,3.61,-1.12,-3.22,-0.21
6.698517918586731,2,3,3,3,-11.06,-1.27,3.92,-0.71,-3.46,0.06
6.708517909049988,2,3,3,3,-12.21,-1.07,4.38,-0.3,-3.25,0.5
6.718517899513245,2,3,3,3,-12.68,-0.93,4.46,-0.01,-2.98,0.95
6.728517889976501,2,3,3,3,-13.08,-1.03,4.59,0.43,-2.59,1.22
6.738517880439758,2,3,3,3,-13.49,-1.22,4.84,0.9,-2.11,1.49
6.748517870903015,2,3,3,3,-14.11,-1.52,5.09,0.95,-2.3,1.47
6.758517861366272,2,3,3,3,-14.31,-1.68,5.2,0.24,-2.6,1.12
6.768518090248108,2,3,3,3,-14.64,-1.79,5.4,-0.7,-2.44,0.78
6.778518080711365,2,3,3,3,-15.08,-1.87,5.51,-1.73,-2.06,0.63
6.788518071174622,2,3,3,3,-16.04,-1.78,5.94,-2.63,-1.8,0.84
6.798518061637878,2,3,3,3,-16.39,-1.98,6.22,-3.41,-1.14,1.13
6.808518052101135,2,3,3,3,-16.66,-2.32,5.97,-4.02,-0.08,1.05
6.818518042564392,2,3,3,3,-17.04,-2.57,5.56,-4.71,0.83,0.52
6.828518033027649,2,3,3,3,-18.45,-3.01,5.85,-4.08,1.89,0.03
6.838518023490906,2,3,3,3,-19.24,-3.27,5.96,-3.03,2.2,-0.31
6.848518013954163,2,3,3,3,-19.92,-3.26,6.07,-2.32,1.52,-0.72
6.858518004417419,2,3,3,3,-20.42,-2.99,5.82,-1.66,1.5,-0.95
6.868517994880676,2,3,3,3,-20.76,-2.55,6.04,-0.02,3.17,-0.49
6.878517985343933,2,3,3,3,-21.08,-2.16,6,2.19,5.27,0.48
6.88851797580719,2,3,3,3,-21.39,-1.7,6.14,3.42,6.77,1.49
6.898517966270447,2,3,3,3,-22.44,0.32,7.87,4.27,7.57,2.25
6.908517956733704,2,3,3,3,-22.75,1.39,8.08,5.11,8.220000000000001,3.54
6.91851794719696,2,3,3,3,-22.98,1.94,7.83,4.93,9.9,5.55
6.928517937660217,2,3,3,3,-22.89,2.17,7.24,3.97,11.65,7.36
6.938517928123474,2,3,3,3,-20.96,1.08,6.05,2.56,12.61,8.380000000000001
6.948517918586731,2,3,3,3,-18.71,-0.45,5.1,0.62,11.94,8.300000000000001
6.958517909049988,2,3,3,3,-16.27,-2.03,3.99,-1.8,10.27,7.34
6.968517899513245,2,3,3,3,-13.46,-3.27,2.75,-4.11,8.34,5.48
6.978517889976501,2,3,3,3,-8.140000000000001,-7.4,1.12,-6.26,7.5,3.2
6.988517880439758,2,3,3,3,-5.42,-7.25,0.19,-6.72,6.9,0.5
6.998517870903015,2,3,3,3,-2.63,-6.79,-0.99,-6.99,6.36,-2.3
7.008517861366272,2,3,3,3,-0.27,-6.39,-1.04,-9.460000000000001,8.69,-4.88
7.018518090248108,2,3,3,3,1.53,-11.71,-9.07,-19.27,6.83,-8.74
7.028518080711365,2,3,3,3,2.37,-14.07,-15.51,-34.89,-2,-12.91
7.038518071174622,2,3,3,3,1.49,-14.46,-16.72,-33.08,-2.01,-12.41
7.048518061637878,2,3,3,3,0.83,-13.55,-0.58,-5.62,8.35,-10.18
7.058518052101135,2,3,3,3,4.54,-10.59,2.98,24.79,6.85,-10.3
7.068518042564392,2,3,3,3,7.56,-5.96,1.88,33.31,-4.15,-7.75
7.078518033027649,2,3,3,3,7.32,-1.07,1,28.29,-9.19,0.58
7.088518023490906,2,3,3,3,5.54,3.95,1.14,26.28,-9.130000000000001,8.44
7.098518013954163,2,3,3,3,4.95,6.72,1.3,24.6,-5.56,11.68
7.108518004417419,2,3,3,3,3.35,7.97,1.36,23.66,-0.14,11.98
7.118517994880676,2,3,3,3,1.39,7.73,1.43,19.93,2.87,12.12
7.128517985343933,2,3,3,3,-2.25,5.26,1.88,14.29,0.9,10.78
7.13851797580719,2,3,3,3,-2.92,4.15,1.72,7.16,-3.03,8.73
7.148517966270447,2,3,3,3,-3.27,2.85,1.13,0.02,-6.17,6.91
7.158517956733704,2,3,3,3,-3.59,1.56,0.21,-5.4,-6.18,5.1
7.16851794719696,2,3,3,3,-3.92,1.16,-1.01,-7.82,-2.12,3.85
7.178517937660217,2,3,3,3,-4.3,1.41,-1,-7.73,3.29,3.07
7.188517928123474,2,3,3,3,-4.53,1.28,-0.57,-6.83,5.86,2.04
7.198517918586731,2,3,3,3,-4.41,0.86,-0.09,-6.44,4.2,0.46
7.208517909049988,2,3,3,3,-2.88,0.02,0.14,-6.79,-0.3,-1.07
7.218517899513245,2,3,3,3,-1.84,-0.53,-0.15,-7.14,-4.11,-2.38
7.228517889976501,2,3,3,3,-0.99,-1.11,-0.42,-6.6,-4.78,-3.53
7.238517880439758,2,3,3,3,0.07000000000000001,-1.88,-0.74,-5.29,-3.64,-4.76
7.248517870903015,2,3,3,3,0.46,-1.87,-0.84,-3.44,-2.2,-6.41
7.258517861366272,2,3,3,3,0.92,-1.93,-0.96,-1.5,-1.46,-7.88
7.268518090248108,2,3,3,3,1.75,-2.05,-1.16,-0.4,-2.3,-8.66
7.278518080711365,2,3,3,3,3.46,-2.29,-1.46,0.28,-3.33,-8.51
7.288518071174622,2,3,3,3,3.78,-1.83,-1.28,1.32,-3.17,-7.68
7.298518061637878,2,3,3,3,3.56,-0.99,-0.89,3.19,-2.34,-5.88
7.308518052101135,2,3,3,3,2.9,-0.26,-0.26,4.98,-1.72,-3.59
7.318518042564392,2,3,3,3,0.93,0.76,1.61,6.8,-2.05,-1
7.329517960548401,2,3,3,3,0.84,0.7,2.26,7.59,-4.02,1.49
7.339517951011658,2,3,3,3,0.43,0.24,1.43,4.95,-6.36,4.01
7.349517941474915,2,3,3,3,-0.32,-0.98,2.06,1.15,-8.82,6.85
7.359517931938171,2,3,3,3,-1.28,-3.11,2.48,0.02,-10.21,9.24
7.369517922401428,2,3,3,3,-1.27,-5.31,3.2,-0.95,-8.51,11.05
7.379517912864685,2,3,3,3,-2.65,-8.17,1.83,-0.71,-1.78,13.74
7.389517903327942,2,3,3,3,-6.13,-11.36,1.04,-0.49,5.85,17.53
7.399517893791199,2,3,3,3,-28.77,-11.66,7.12,6.06,16.61,22.87
7.409517884254456,2,3,3,3,-39.11,-12.14,14.28,11.81,15.59,27.1
7.419517874717712,2,3,3,3,-39.06,-7.1,-7.37,26,-13.03,22.8
7.429517865180969,2,3,3,3,-33.99,18.31,1.64,33.5,28.16,-1.36
7.439518094062805,2,3,3,3,-24.63,22.64,8.51,36.64,-7.18,-18.86
7.449518084526062,2,3,3,3,-18.13,12.75,14.06,14.51,-23.25,-10.72
7.459518074989319,2,3,3,3,-12.83,8,15.52,-1.2,-4.25,5.61
7.469518065452576,2,3,3,3,-7.84,3.1,11.56,-8.970000000000001,-12.68,16.18
7.479518055915833,2,3,3,3,-10.74,0.63,9.75,-13.77,-16.5,17.28
7.489518046379089,2,3,3,3,-15.24,1.17,7.82,-13.73,-4.25,12.08
7.499518036842346,2,3,3,3,-20.95,1.69,5.48,-14.68,10.76,6.21
7.509518027305603,2,3,3,3,-28.68,1.07,-2.68,-13.34,21.66,0.29
7.51951801776886,2,3,3,3,-25.94,0.08,-2.58,-4.07,20.43,-5.58
7.529518008232117,2,3,3,3,-19.85,-0.82,0.71,5.41,3.7,-11.23
7.539517998695374,2,3,3,3,-13.23,-1.2,4.09,6.51,-13.66,-13.86
7.54951798915863,2,3,3,3,-7.02,-1,5.76,3.71,-16.09,-12.37
7.559517979621887,2,3,3,3,-7.98,-0.02,5.54,3.12,-6.91,-8.94
7.569517970085144,2,3,3,3,-10,1.44,5.53,3.92,2.16,-6.21
7.579517960548401,2,3,3,3,-12.12,2.27,5.52,3.04,5.29,-4.59
7.589517951011658,2,3,3,3,-13.61,1.67,4,0.28,4.69,-3.39
7.599517941474915,2,3,3,3,-12.77,1.28,3.23,-1.61,2.32,-2.19
7.609517931938171,2,3,3,3,-11.13,0.85,2.68,-2.8,0.02,-1.15
7.619517922401428,2,3,3,3,-7.29,0.21,1.93,-4.16,-0.93,0.05
7.629517912864685,2,3,3,3,-6.1,-0.19,1.84,-5.46,0.22,1.25
7.639517903327942,2,3,3,3,-5.62,-0.54,2.01,-6.38,2.04,1.74
7.649517893791199,2,3,3,3,-5.37,-0.65,2.04,-6.78,2.37,1.31
7.659517884254456,2,3,3,3,-5.04,-0.96,1.6,-7.32,1.47,0.71
7.669517874717712,2,3,3,3,-4.94,-1.22,1.37,-8,0.53,0.28
7.679517865180969,2,3,3,3,-4.9,-1.53,1.17,-8.550000000000001,-0.29,-0.33
7.689518094062805,2,3,3,3,-4.91,-1.93,1.03,-8.91,-0.8,-0.89
7.699518084526062,2,3,3,3,-5.03,-2.68,0.96,-8.800000000000001,-0.32,-1.21
7.709518074989319,2,3,3,3,-5.28,-2.9,1.04,-7.9,0.79,-1.12
7.719518065452576,2,3,3,3,-5.54,-2.99,1.19,-6.19,1.77,-0.79
7.729518055915833,2,3,3,3,-5.78,-2.99,1.16,-4.2,2.24,-0.25
7.739518046379089,2,3,3,3,-6.39,-3.04,1.38,-2.26,2.38,0.36
7.749518036842346,2,3,3,3,-6.94,-2.8,1.58,-0.66,2.13,0.85
7.759518027305603,2,3,3,3,-7.6,-2.43,1.79,0.68,1.35,1.2
7.76951801776886,2,3,3,3,-8.25,-1.89,1.99,1.43,-0.08,1.38
7.779518008232117,2,3,3,3,-9.07,-0.93,2.04,1.65,-1.1,1.4
7.789517998695374,2,3,3,3,-9.43,-0.65,2.18,1.34,-1.45,1.41
7.79951798915863,2,3,3,3,-9.75,-0.54,2.27,0.71,-1.64,1.36
7.809517979621887,2,3,3,3,-10.25,-0.38,2.32,0.11,-1.73,1.36
7.819517970085144,2,3,3,3,-10.25,-0.34,2.34,-0.18,-1.4,1.51
7.829517960548401,2,3,3,3,-10.13,-0.27,2.23,-0.58,-1.09,1.79
7.839517951011658,2,3,3,3,-10.05,-0.17,2.45,-0.92,-0.93,2.07
7.849517941474915,2,3,3,3,-10.35,-0.47,2.93,-0.75,-1.34,2.4
7.859517931938171,2,3,3,3,-10.39,-0.58,2.98,-0.65,-2.2,2.52
7.869517922401428,2,3,3,3,-10.24,-0.44,2.65,-0.45,-3.09,2.42
7.879517912864685,2,3,3,3,-9.83,-0.39,2.17,-0.76,-3.1,2.04
7.889517903327942,2,3,3,3,-9.73,-0.32,2.63,-0.8100000000000001,-1.52,1.54
7.899517893791199,2,3,3,3,-9.789999999999999,-0.3,2.81,-0.12,0.06,0.95
7.909517884254456,2,3,3,3,-9.77,-0.36,2.79,0.19,0.63,0.2
7.919517874717712,2,3,3,3,-9.74,-0.34,2.56,0.11,0.83,-0.5600000000000001
7.929517865180969,2,3,3,3,-9.34,-0.23,2.22,0.14,0.74,-1.09
7.939518094062805,2,3,3,3,-9.109999999999999,-0.22,2.27,0.29,0.67,-1.44
7.949518084526062,2,3,3,3,-8.970000000000001,-0.32,2.34,0.31,0.66,-1.54
7.959518074989319,2,3,3,3,-8.949999999999999,-0.65,2.22,0.11,0.65,-1.46
7.969518065452576,2,3,3,3,-9.15,-0.84,2.16,-0.26,0.44,-1.37
7.979518055915833,2,3,3,3,-9.460000000000001,-0.87,1.99,-0.47,0.32,-1.21
7.989518046379089,2,3,3,3,-9.83,-0.84,1.88,-0.5600000000000001,0.21,-0.97
7.999518036842346,2,3,3,3,-9.56,-0.98,1.97,-0.5,-0.21,-0.72
8.009518027305603,2,3,3,3,-9.24,-1.07,1.87,-0.32,-0.79,-0.83
8.01951801776886,2,3,3,3,-9.09,-1.14,1.85,-0.42,-1.19,-0.9399999999999999
8.029518008232117,2,3,3,3,-9,-1.21,1.78,-0.48,-1.02,-0.78
8.039517998695374,2,3,3,3,-8.92,-1.27,2.04,-0.24,-0.82,-0.49
8.04951798915863,2,3,3,3,-8.859999999999999,-1.26,2.09,-0.01,-0.89,-0.4
8.059517979621887,2,3,3,3,-8.93,-1.18,2.21,0.08,-0.88,-0.29
8.069517970085144,2,3,3,3,-9.1,-1.04,2.41,0.33,-0.82,-0.2
8.079517960548401,2,3,3,3,-9.140000000000001,-0.86,2.43,0.65,-0.99,-0.05
8.089517951011658,2,3,3,3,-9.130000000000001,-0.9,2.53,0.45,-1.25,0.08
8.099517941474915,2,3,3,3,-9.130000000000001,-0.91,2.56,0.29,-1.29,0.14
8.109517931938171,2,3,3,3,-9.130000000000001,-0.98,2.51,-0.14,-1.25,0.2
8.119517922401428,2,3,3,3,-9.27,-0.95,2.33,-0.59,-0.93,0.28
8.129517912864685,2,3,3,3,-9.41,-0.88,2.31,-0.8,-0.54,0.38
8.139517903327942,2,3,3,3,-9.539999999999999,-0.8,2.34,-0.64,-0.27,0.39
8.149517893791199,2,3,3,3,-9.640000000000001,-0.62,2.66,-0.3,-0.3,0.31
8.159517884254456,2,3,3,3,-9.529999999999999,-0.58,2.69,0.17,-0.54,0.09
8.169517874717712,2,3,3,3,-9.279999999999999,-0.55,2.46,0.31,-0.9399999999999999,-0.21
8.179517865180969,2,3,3,3,-9.109999999999999,-0.66,2.33,-0.18,-0.8100000000000001,-0.48
8.189518094062805,2,3,3,3,-9.210000000000001,-0.85,2.48,-0.38,-0.12,-0.57
8.199518084526062,2,3,3,3,-9.32,-0.95,2.47,-0.73,0.39,-0.61
8.209518074989319,2,3,3,3,-9.460000000000001,-1.03,2.38,-1.07,0.73,-0.57
8.219518065452576,2,3,3,3,-9.539999999999999,-1.1,2.23,-1.35,1.03,-0.57
8.229518055915833,2,3,3,3,-9.550000000000001,-1.24,1.9,-1.52,1.23,-0.67
8.239518046379089,2,3,3,3,-9.44,-1.28,1.85,-1.65,1.43,-0.88
8.249518036842346,2,3,3,3,-9.369999999999999,-1.32,1.8,-1.65,1.65,-1.26
8.259518027305603,2,3,3,3,-9.210000000000001,-1.33,1.81,-1.49,1.65,-1.67
8.26951801776886,2,3,3,3,-8.91,-1.38,1.73,-1.39,1.52,-1.98
8.279518008232117,2,3,3,3,-8.77,-1.44,1.64,-1.41,1.42,-2.12
8.289517998695374,2,3,3,3,-8.58,-1.56,1.7,-1.62,1.33,-2.21
8.29951798915863,2,3,3,3,-8.380000000000001,-1.67,1.63,-2.03,1.21,-2.26
8.310517907142639,2,3,3,3,-7.93,-1.94,1.4,-2.35,1.13,-2.36
8.319517970085144,2,3,3,3,-7.65,-2.12,1.45,-2.76,1.12,-2.49
8.329517960548401,2,3,3,3,-7.29,-2.16,1.1,-3.04,1.17,-2.66
8.34051787853241,2,3,3,3,-7.27,-1.88,0.96,-3.04,1.57,-2.63
8.350517868995667,2,3,3,3,-7.74,-1.82,1.44,-1.82,2.33,-1.89
8.360517859458923,2,3,3,3,-8.01,-1.87,1.69,-0.11,1.64,-0.95
8.370518088340759,2,3,3,3,-8,-1.88,1.9,0.97,-0.45,-0.21
8.380518078804016,2,3,3,3,-7.74,-1.45,1.8,2,-2.03,0.48
8.390518069267273,2,3,3,3,-7.92,-1,2.04,2.76,-2.74,1.42
8.40051805973053,2,3,3,3,-8.59,-0.59,3.07,3.91,-2.29,2.47
8.410518050193787,2,3,3,3,-8.59,-0.59,3.07,5.35,-1.96,3.25
8.420518040657043,2,3,3,3,-9.41,-0.3,4.13,4.96,-2.16,3.45
8.4305180311203,2,3,3,3,-11.83,0.42,3.61,3.26,-1.21,3.06
8.440518021583557,2,3,3,3,-12.56,1.02,3.34,1.61,0.85,2.27
8.450518012046814,2,3,3,3,-12.97,1.49,3.08,0.08,2.72,1.01
8.460518002510071,2,3,3,3,-12.97,1.49,3.08,-0.82,3.21,-0.3
8.470517992973328,2,3,3,3,-12.46,0.73,3.21,-1.18,2.15,-1.2
8.480517983436584,2,3,3,3,-11.47,-0.65,2.75,-1.78,1.28,-1.75
8.490517973899841,2,3,3,3,-11.26,-1.18,2.44,-2.06,1.5,-2.13
8.500517964363098,2,3,3,3,-11,-1.81,2.06,-1.54,1.77,-2.43
8.510517954826355,2,3,3,3,-11,-1.81,2.06,-0.86,1.31,-2.76
8.520517945289612,2,3,3,3,-10.6,-1.85,2.03,-0.46,0.48,-2.93
8.530517935752869,2,3,3,3,-9.34,-1.65,2.24,-0.28,-0.12,-2.87
8.540517926216125,2,3,3,3,-9.220000000000001,-1.63,2.3,-0.44,-0.23,-2.6
8.550517916679382,2,3,3,3,-9.26,-1.64,2.25,-0.95,-0.27,-2.37
8.560517907142639,2,3,3,3,-9.26,-1.64,2.25,-1.4,-0.33,-2.27
8.570517897605896,2,3,3,3,-9.289999999999999,-1.69,2.09,-1.69,-0.48,-2.22
8.580517888069153,2,3,3,3,-9.119999999999999,-1.87,1.46,-1.79,-0.76,-2.35
8.59051787853241,2,3,3,3,-8.869999999999999,-1.9,1.48,-1.69,-1.13,-2.7
8.600517868995667,2,3,3,3,-8.68,-1.99,1.63,-1.29,-1.39,-3.07
8.610517859458923,2,3,3,3,-8.68,-1.99,1.63,-0.82,-1.47,-3.43
8.620518088340759,2,3,3,3,-8.369999999999999,-2.2,1.72,-0.63,-1.71,-3.79
8.630518078804016,2,3,3,3,-7.82,-2.3,1.28,-0.6899999999999999,-1.83,-4.17
8.640518069267273,2,3,3,3,-7.52,-2.29,1.19,-0.77,-1.32,-4.51
8.65051805973053,2,3,3,3,-6.78,-2.2,0.92,-0.71,-0.63,-4.78
8.660518050193787,2,3,3,3,-6.78,-2.2,0.92,-0.86,-0.23,-5.12
8.670518040657043,2,3,3,3,-6.17,-2.11,0.7,-1.18,0.28,-5.47
8.6805180311203,2,3,3,3,-5.47,-1.63,1.27,-0.8100000000000001,0.95,-5.57
8.690518021583557,2,3,3,3,-5.48,-1.33,1.97,-0.05,0.74,-5.15
8.700518012046814,2,3,3,3,-5.6,-1.44,2.06,-0.15,-0.01,-4.43
8.710518002510071,2,3,3,3,-5.6,-1.44,2.06,-0.15,-0.01,-4.43
8.720517992973328,2,3,3,3,-5.86,-1.6,1.98,-0.95,-0.55,-3.81
8.730517983436584,2,3,3,3,-7.28,-2.09,1.19,-3.21,-0.49,-3.46
8.740517973899841,2,3,3,3,-7.6,-1.96,1.14,-3.75,-0.45,-3.76
8.750517964363098,2,3,3,3,-7.91,-1.87,1.32,-3.41,-0.51,-4.27
8.760517954826355,2,3,3,3,-7.91,-1.87,1.32,-3.41,-0.51,-4.27
8.770517945289612,2,3,3,3,-7.91,-1.75,1.14,-2.47,-1.24,-4.81
8.780517935752869,2,3,3,3,-6.91,-1.49,0.84,-2.03,-2.54,-5.72
8.790517926216125,2,3,3,3,-6.61,-1.28,1.39,-1.29,-1.77,-5.97
8.800517916679382,2,3,3,3,-6.74,-1.4,2.82,-0.28,-1.61,-5.65
8.810517907142639,2,3,3,3,-6.74,-1.4,2.82,-0.28,-1.61,-5.65
8.820517897605896,2,3,3,3,-7.06,-1.47,3.26,0.35,-2.56,-4.7
8.830517888069153,2,3,3,3,-7.86,-1.56,3.54,-1.59,-4.33,-2.16
8.84051787853241,2,3,3,3,-9.41,-1.71,4.03,-3.08,-4.4,-1.28
8.850517868995667,2,3,3,3,-10.25,-1.74,4.17,-3.55,-3.84,-0.54
8.860517859458923,2,3,3,3,-10.25,-1.74,4.17,-3.55,-3.84,-0.54
8.870518088340759,2,3,3,3,-10.92,-1.91,4.11,-3.34,-3.54,0.17
8.880518078804016,2,3,3,3,-12.83,-2.3,3.39,-1.41,-2.76,0.66
8.890518069267273,2,3,3,3,-13.22,-2.31,3.38,0.27,-1.88,0.63
8.90051805973053,2,3,3,3,-13.39,-2.3,3.64,1.17,-1.76,0.21
8.910518050193787,2,3,3,3,-13.39,-2.3,3.64,1.17,-1.76,0.21
8.920518040657043,2,3,3,3,-13.38,-1.91,4.72,1.58,-2.81,0.18
8.9305180311203,2,3,3,3,-13.27,-1.82,5.03,1.89,-4.16,2.65
8.940518021583557,2,3,3,3,-13.51,-1.86,5.13,2.06,-2.98,3.73
8.950518012046814,2,3,3,3,-14.05,-1.75,5.3,1.92,-1.59,4.16
8.960518002510071,2,3,3,3,-15.7,-1.33,5.86,1.92,-1.59,4.16
8.970517992973328,2,3,3,3,-16.32,-1.15,5.74,0.27,0.19,3.47
8.980517983436584,2,3,3,3,-16.69,-1.05,5.6,-0.61,1.14,2.73
8.990517973899841,2,3,3,3,-17.1,-1.02,5.63,-0.92,1.17,2.14
9.000517964363098,2,3,3,3,-16.97,-1.52,5.77,-1.18,0.58,1.42
9.010517954826355,2,3,3,3,-16.86,-1.79,5.9,-1.18,0.58,1.42
9.020517945289612,2,3,3,3,-16.98,-2.27,6.35,-1.49,0.55,0.63
9.030517935752869,2,3,3,3,-17.41,-3.09,6.42,-2.83,-0.04,-0.7
9.040517926216125,2,3,3,3,-18.15,-3.69,5.58,-2.84,0.65,-0.9399999999999999
9.050517916679382,2,3,3,3,-18.66,-3.98,5.45,-1.74,1.78,-0.71
9.060517907142639,2,3,3,3,-19.4,-4.08,5.47,-1.74,1.78,-0.71
9.070517897605896,2,3,3,3,-20.79,-3.49,5.53,0.21,2.96,-0.24
9.080517888069153,2,3,3,3,-21.01,-2.72,5.68,4.87,5.98,1.82
9.09051787853241,2,3,3,3,-21.04,-1.86,5.91,5.77,6.61,3.28
9.100517868995667,2,3,3,3,-21,-0.86,6.57,6.65,7.1,4.94
9.110517859458923,2,3,3,3,-21.22,1.04,7.32,6.65,7.1,4.94
9.120518088340759,2,3,3,3,-21.31,1.34,7.74,7.54,7.89,6.91
9.130518078804016,2,3,3,3,-21.42,1.01,7.8,7.98,8.869999999999999,10.04
9.140518069267273,2,3,3,3,-20.94,0.58,7.49,6.66,8.630000000000001,9.92
9.15051805973053,2,3,3,3,-19.44,-0.61,6.03,4.3,8.609999999999999,8.52
9.160518050193787,2,3,3,3,-17.69,-1.49,4.69,4.3,8.609999999999999,8.52
9.170518040657043,2,3,3,3,-15.61,-3.65,3.91,1.32,7.5,6.76
9.1805180311203,2,3,3,3,-13.53,-6.69,3.67,0.29,6.24,1.17
9.190518021583557,2,3,3,3,-7.5,-8.85,-0.07000000000000001,0.66,5.23,-2.5
9.200518012046814,2,3,3,3,-3.67,-7.25,-2.51,-0.87,7.57,-5.8
9.210518002510071,2,3,3,3,-1.37,-6.05,-3.57,-0.87,7.57,-5.8
9.220517992973328,2,3,3,3,-0.03,-7.24,-3.15,-7.17,8.18,-7.92
9.230517983436584,2,3,3,3,0.57,-11.29,-12.59,-31.24,-3.54,-11.24
9.240517973899841,2,3,3,3,0.6899999999999999,-12.35,-14.86,-20.49,2.24,-10.35
9.250517964363098,2,3,3,3,1.44,-11.22,-10.99,5.9,8.82,-10.51
9.260517954826355,2,3,3,3,5.12,-7.07,2.46,5.9,8.82,-10.51
9.270517945289612,2,3,3,3,5.67,-4.05,4.14,23.68,3.66,-11.49
9.280517935752869,2,3,3,3,5.51,-2.11,2.82,13.58,-13.61,0.09
9.290517926216125,2,3,3,3,5.63,-0.33,1.01,12.17,-11.07,5.81
9.300517916679382,2,3,3,3,6.44,5.04,1.18,14.42,-0.97,9.08
9.310517907142639,2,3,3,3,4.97,6.73,2.54,14.42,-0.97,9.08
9.320517897605896,2,3,3,3,2.41,6.61,3.34,14.39,6.54,11.62
9.330517888069153,2,3,3,3,0.6,5.66,2.75,3.25,-2.22,10.52
9.34051787853241,2,3,3,3,-1.97,3.8,1.22,-1.26,-7.33,8.720000000000001
9.350517868995667,2,3,3,3,-3.1,2.88,1.06,-3.8,-9.09,7.38
9.360517859458923,2,3,3,3,-3.27,1.97,0.74,-3.8,-9.09,7.38
9.370518088340759,2,3,3,3,-2.91,1.37,0.28,-6.15,-6.87,7.65
9.381518006324768,2,3,3,3,-3.21,1.46,0.11,-7.85,2.99,6.29
9.391517996788025,2,3,3,3,-3.87,1.3,0.17,-7.38,3.29,3.06
9.401517987251282,2,3,3,3,-4.15,0.9399999999999999,0.3,-7.66,0.65,-0.66
9.411517977714539,2,3,3,3,-4.08,0.47,0.33,-7.66,0.65,-0.66
9.421517968177795,2,3,3,3,-2.87,-0.27,-0.1,-8.15,-2.5,-4.2
9.431517958641052,2,3,3,3,-1.88,-1.03,-0.41,-6.95,-4.85,-7.76
9.441517949104309,2,3,3,3,-0.91,-1.84,-0.72,-5.28,-3.39,-8.050000000000001
9.451517939567566,2,3,3,3,0.77,-2.33,-1.37,-3.28,-1.58,-7.94
9.461517930030823,2,3,3,3,1.28,-2.22,-1.56,-3.28,-1.58,-7.94
9.47151792049408,2,3,3,3,1.7,-1.93,-1.64,-1.01,-0.48,-7.77
9.481517910957336,2,3,3,3,2.22,-1.53,-1.72,4.29,-1.17,-6.79
9.491517901420593,2,3,3,3,2.67,-0.7,-1.33,6.78,-1.55,-6.37
9.50151789188385,2,3,3,3,2.6,0,-0.58,8.33,-2.17,-5.54
9.511517882347107,2,3,3,3,2.15,0.76,0.25,8.33,-2.17,-5.54
9.521517872810364,2,3,3,3,1.62,1.17,0.83,7.92,-2.99,-3.93
9.531517863273621,2,3,3,3,0.59,0.91,1.14,2.68,-4.59,-0.03
9.541518092155457,2,3,3,3,0.48,0.43,0.68,0.22,-5.33,1.42
9.551518082618713,2,3,3,3,0.43,-0.01,0.86,-0.64,-5.25,2.79
9.56151807308197,2,3,3,3,0.48,-0.59,1.1,-0.64,-5.25,2.79
9.571518063545227,2,3,3,3,0.72,-1.86,1.04,-0.13,-4.63,4.28
9.581518054008484,2,3,3,3,0.08,-3.48,0.96,1.51,-1.79,8.779999999999999
9.591518044471741,2,3,3,3,-1.05,-4.49,3.2,2.95,-2.12,9.970000000000001
9.601518034934998,2,3,3,3,-1.15,-6.28,3.57,0.52,-1.76,10.53
9.611518025398254,2,3,3,3,-3.42,-9.73,0.36,0.52,-1.76,10.53
9.621518015861511,2,3,3,3,-5.92,-10.61,-1.53,-0.28,1.51,12.89
9.631518006324768,2,3,3,3,-12.43,-7.83,1.85,8.32,17.53,16.88
9.641517996788025,2,3,3,3,-39.11,-6.48,14.2,13.42,-0.23,17.18
9.651517987251282,2,3,3,3,-39.11,-3.01,5.13,19.53,-9.42,16.23
9.661517977714539,2,3,3,3,-39.08,-1.11,-5.75,19.53,-9.42,16.23
9.671517968177795,2,3,3,3,-38.82,8.44,-2.09,20.58,14.77,-2.34
9.681517958641052,2,3,3,3,-14.17,12,10.18,4.03,-23.39,-12.04
9.691517949104309,2,3,3,3,-9.69,1.63,12.83,-2.92,-11.34,6.4
9.701517939567566,2,3,3,3,-9.35,-2.06,12.7,0.68,-8.210000000000001,16.79
9.711517930030823,2,3,3,3,-11.06,-2.86,10.51,0.68,-8.210000000000001,16.79
9.72151792049408,2,3,3,3,-16.62,2.42,8.210000000000001,4.96,-5,15.56
9.731517910957336,2,3,3,3,-17.59,4.87,7.77,-1.31,2.62,6.77
9.741517901420593,2,3,3,3,-18.84,5.87,6.57,-5.25,7.8,4.27
9.75151789188385,2,3,3,3,-19.83,4.77,3.79,-1.77,9.67,1.31
9.761517882347107,2,3,3,3,-19.33,1.38,3.24,-1.77,9.67,1.31
9.771517872810364,2,3,3,3,-17.56,0.72,5.04,1.15,4.59,-2.74
9.781517863273621,2,3,3,3,-15.55,0.04,6.23,-0.85,-2.81,-8.609999999999999
9.791518092155457,2,3,3,3,-14.02,-0.47,6.94,0.08,-2.12,-8.15
9.801518082618713,2,3,3,3,-13.55,-0.63,7.5,0.27,0.28,-6.3
9.81151807308197,2,3,3,3,-13.75,-0.53,6.95,0.27,0.28,-6.3
9.821518063545227,2,3,3,3,-13.84,-1.2,5.96,-1.23,1.86,-4.27
9.831518054008484,2,3,3,3,-13.46,-2.09,3.83,-3.42,1.81,-0.6899999999999999
9.841518044471741,2,3,3,3,-12.58,-2.12,2.8,-3.02,2.89,1.32
9.851518034934998,2,3,3,3,-11.59,-1.99,2.24,-2.3,4.79,3.02
9.861518025398254,2,3,3,3,-10.92,-1.9,2.19,-2.3,4.79,3.02
9.871518015861511,2,3,3,3,-10.81,-1.39,3,-1.4,5.57,3.81
9.881518006324768,2,3,3,3,-10.58,-0.88,3.18,-0.64,0.35,3.01
9.891517996788025,2,3,3,3,-10.47,-0.39,2.97,-0.64,0.35,3.01
9.901517987251282,2,3,3,3,-10.06,-0.08,2.72,-2.29,-3.71,1.41
9.911517977714539,2,3,3,3,-8.4,0.44,2.27,-2.29,-3.71,1.41
9.921517968177795,2,3,3,3,-7.32,0.36,2.02,-3.29,-3.22,0.28
9.931517958641052,2,3,3,3,-6.47,0.13,1.89,-5.5,1.09,-2.34
9.941517949104309,2,3,3,3,-5.92,-0.41,1.77,-5.5,1.09,-2.34
9.951517939567566,2,3,3,3,-5.65,-1.47,1.59,-6.32,3.24,-3.29
9.961517930030823,2,3,3,3,-5.65,-1.97,1.4,-6.83,4.11,-3.47
9.97151792049408,2,3,3,3,-5.9,-2.34,1.36,-6.88,4.4,-3.14
9.981517910957336,2,3,3,3,-6.31,-2.68,1.37,-6.3,4.51,-2.42
9.991517901420593,2,3,3,3,-7.23,-2.82,1.28,-5.23,3.89,-1.84
10.00151789188385,2,3,3,3,-7.34,-2.61,1.17,-3.63,2.94,-1.38
10.01151788234711,2,3,3,3,-7.18,-2.23,1.04,-1.74,2.42,-0.73
10.02151787281036,2,3,3,3,-6.68,-1.9,1.25,0.13,2.2,-0.28
10.03151786327362,2,3,3,3,-6.5,-1.86,1.43,1.63,1.86,-0.14
10.04151809215546,2,3,3,3,-6.49,-1.76,1.71,2.6,0.87,-0.11
10.05151808261871,2,3,3,3,-6.7,-1.62,2.03,3.23,-0.1,0.07000000000000001
10.06151807308197,2,3,3,3,-7.14,-1.13,2.12,3.45,-0.72,0.48
10.07151806354523,2,3,3,3,-7.3,-0.85,1.99,3.32,-0.96,1.01
10.08151805400848,2,3,3,3,-7.36,-0.61,1.8,3,-0.91,1.49
10.09151804447174,2,3,3,3,-7.46,-0.47,1.66,2.9,-0.44,1.82
10.101518034935,2,3,3,3,-7.97,-0.45,2.31,3.16,0.32,1.99
10.11151802539825,2,3,3,3,-8.449999999999999,-0.54,2.49,3.22,0.98,2.03
10.12151801586151,2,3,3,3,-8.949999999999999,-0.61,2.4,2.54,1.42,1.81
10.13151800632477,2,3,3,3,-9.51,-0.53,2.28,1.75,1.97,1.52
10.14151799678802,2,3,3,3,-10.8,-0.19,2.57,1.4,2.56,1.32
10.15151798725128,2,3,3,3,-11.14,0,2.77,1.35,2.62,1
10.16151797771454,2,3,3,3,-11.15,0.12,2.72,1.35,1.42,0.71
10.1715179681778,2,3,3,3,-10.87,0.13,2.49,1.32,-0.31,0.55
10.18151795864105,2,3,3,3,-10.04,0.04,2.22,1.18,-1.18,0.27
10.19151794910431,2,3,3,3,-10.01,0.06,2.36,0.95,-1.08,0
10.20251786708832,2,3,3,3,-10.07,0.13,2.66,0.91,-0.75,-0.2
10.21151793003082,2,3,3,3,-9.83,0.37,2.5,0.86,-0.8,-0.28
10.22151792049408,2,3,3,3,-9.56,0.41,2.36,0.4,-1.05,-0.27
10.23151791095734,2,3,3,3,-9.42,0.29,2.53,-0.23,-0.87,-0.23
10.24151790142059,2,3,3,3,-9.35,0.13,2.57,-0.46,-0.53,-0.12
10.25151789188385,2,3,3,3,-9.24,-0.29,2.6,-0.6,-0.49,-0.01
10.26151788234711,2,3,3,3,-9.34,-0.43,2.48,-0.8,-0.32,0.06
10.27151787281036,2,3,3,3,-9.43,-0.6,2.34,-1.14,-0.11,0.08
10.28151786327362,2,3,3,3,-9.539999999999999,-0.64,2.2,-1.38,0.11,0.11
10.29251801967621,2,3,3,3,-9.6,-0.67,2.07,-1.3,0.19,0.12
10.30151808261871,2,3,3,3,-9.43,-0.71,1.98,-1.01,0.03,0.08
10.31151807308197,2,3,3,3,-9.18,-0.8,1.67,-0.9399999999999999,-0.25,-0.06
10.32251799106598,2,3,3,3,-9.07,-0.87,1.78,-1.07,-0.13,-0.14
10.33151805400848,2,3,3,3,-9.140000000000001,-0.89,1.97,-0.52,0.27,-0.12
10.34151804447174,2,3,3,3,-9.119999999999999,-0.87,1.81,-0.4,0.28,0.02
10.35251796245575,2,3,3,3,-9.08,-1.04,1.91,-0.58,0.3,0.18
10.36151802539825,2,3,3,3,-9.119999999999999,-1.1,2.01,-0.53,0.63,0.31
10.37151801586151,2,3,3,3,-9.210000000000001,-1.19,1.91,-0.68,0.62,0.46
10.38251793384552,2,3,3,3,-9.19,-1.17,1.86,-0.8,0.6,0.55
10.39151799678802,2,3,3,3,-9.130000000000001,-1.18,1.75,-0.78,0.63,0.44
10.40251791477203,2,3,3,3,-9.029999999999999,-1.26,1.93,-0.58,0.62,0.31
10.41251790523529,2,3,3,3,-8.94,-1.34,1.93,-0.4,0.43,0.23
10.42251789569855,2,3,3,3,-8.82,-1.32,1.85,-0.33,0.27,0.25
10.4325178861618,2,3,3,3,-8.84,-1.33,1.82,-0.24,0.32,0.25
10.44251787662506,2,3,3,3,-9.1,-1.18,1.88,0.01,0.38,0.3
10.45251786708832,2,3,3,3,-9.279999999999999,-1,2.02,0.33,0.33,0.39
10.46251785755157,2,3,3,3,-9.4,-0.78,2.18,0.76,0.06,0.46
10.47251808643341,2,3,3,3,-9.390000000000001,-0.58,2.25,1.07,-0.29,0.58
10.48251807689667,2,3,3,3,-9.51,-0.43,2.29,0.84,-0.41,0.65
10.49251806735992,2,3,3,3,-9.6,-0.41,2.15,0.5600000000000001,-0.15,0.66
10.50251805782318,2,3,3,3,-9.640000000000001,-0.34,2.08,0.32,0.08,0.54
10.51251804828644,2,3,3,3,-9.640000000000001,-0.3,2.12,0.02,0.22,0.32
10.52251803874969,2,3,3,3,-9.68,-0.33,2.38,-0.11,0.41,0.04
10.53251802921295,2,3,3,3,-9.640000000000001,-0.39,2.38,-0.29,0.38,-0.19
10.54251801967621,2,3,3,3,-9.550000000000001,-0.49,2.23,-0.6,0.22,-0.38
10.55251801013947,2,3,3,3,-9.619999999999999,-0.6899999999999999,2.11,-0.96,0.34,-0.53
10.56251800060272,2,3,3,3,-9.609999999999999,-0.67,2.12,-1.09,0.63,-0.57
10.57251799106598,2,3,3,3,-9.6,-0.66,2.17,-0.95,0.86,-0.67
10.58251798152924,2,3,3,3,-9.58,-0.66,2.36,-0.48,0.96,-0.64
10.59251797199249,2,3,3,3,-9.44,-0.72,2.47,0,0.6899999999999999,-0.58
10.60251796245575,2,3,3,3,-9.31,-0.76,2.36,0.11,0.3,-0.46
10.61251795291901,2,3,3,3,-9.23,-0.65,2.23,-0.09,0.17,-0.39
10.62251794338226,2,3,3,3,-9.34,-0.62,2.33,-0.1,0.58,-0.29
10.63251793384552,2,3,3,3,-9.609999999999999,-0.5,2.51,0.22,0.9399999999999999,-0.09
10.64251792430878,2,3,3,3,-9.67,-0.49,2.34,0.28,0.75,0.05
10.65251791477203,2,3,3,3,-9.69,-0.49,2.21,0.08,0.4,0.14
10.66251790523529,2,3,3,3,-9.67,-0.44,2.15,-0.1,0.26,0.13
10.67251789569855,2,3,3,3,-9.65,-0.4,2.28,0.03,0.38,0.12
10.6825178861618,2,3,3,3,-9.65,-0.47,2.31,0.26,0.35,0.05
10.69251787662506,2,3,3,3,-9.609999999999999,-0.55,2.25,0.39,0.1,0.01
10.70251786708832,2,3,3,3,-9.640000000000001,-0.64,2.25,0.37,-0.18,0
10.71251785755157,2,3,3,3,-9.720000000000001,-0.73,2.31,0.33,-0.24,0.06
10.72251808643341,2,3,3,3,-9.710000000000001,-0.68,2.19,0.13,-0.27,0.07000000000000001
10.73251807689667,2,3,3,3,-9.65,-0.63,2.15,-0.15,-0.19,0.01
10.74251806735992,2,3,3,3,-9.57,-0.6,2.04,-0.25,0.05,-0.14
10.75251805782318,2,3,3,3,-9.35,-0.64,2.09,-0.19,0.18,-0.37
10.76251804828644,2,3,3,3,-9.279999999999999,-0.71,2.18,-0.07000000000000001,0.21,-0.52
10.77251803874969,2,3,3,3,-9.23,-0.77,2.18,0.07000000000000001,0.23,-0.59
10.78251802921295,2,3,3,3,-9.24,-0.88,2.21,0.12,0.23,-0.65
10.79251801967621,2,3,3,3,-9.24,-0.85,2.14,0.28,0.14,-0.58
10.80251801013947,2,3,3,3,-9.27,-0.84,2.15,0.39,-0.01,-0.48
10.81251800060272,2,3,3,3,-9.26,-0.74,2.21,0.39,-0.09,-0.32
10.82251799106598,2,3,3,3,-9.390000000000001,-0.6,2.41,0.5,-0.1,-0.18
10.83251798152924,2,3,3,3,-9.449999999999999,-0.57,2.43,0.63,-0.17,-0.05
10.84251797199249,2,3,3,3,-9.49,-0.58,2.28,0.62,-0.31,0.01
10.85251796245575,2,3,3,3,-9.49,-0.61,2.25,0.43,-0.47,-0.01
10.86251795291901,2,3,3,3,-9.470000000000001,-0.73,2.15,0.31,-0.55,-0.09
10.87251794338226,2,3,3,3,-9.43,-0.72,2.11,0.19,-0.51,-0.22
10.88251793384552,2,3,3,3,-9.470000000000001,-0.7,2.13,0.13,-0.3,-0.31
10.89251792430878,2,3,3,3,-9.609999999999999,-0.7,2.17,0.27,-0.11,-0.35
10.90251791477203,2,3,3,3,-9.75,-0.67,2.4,0.5,-0.18,-0.36
10.91251790523529,2,3,3,3,-9.720000000000001,-0.73,2.49,0.55,-0.32,-0.32
10.92251789569855,2,3,3,3,-9.67,-0.8100000000000001,2.42,0.41,-0.34,-0.29
10.9325178861618,2,3,3,3,-9.550000000000001,-0.91,2.15,0.12,-0.28,-0.31
10.94251787662506,2,3,3,3,-9.5,-0.91,1.98,-0.07000000000000001,-0.08,-0.42
10.95251786708832,2,3,3,3,-9.41,-0.92,2.03,-0.15,0.22,-0.52
10.96251785755157,2,3,3,3,-9.32,-0.92,2.08,-0.03,0.34,-0.66
10.97251808643341,2,3,3,3,-9.220000000000001,-0.91,2.19,0.13,0.4,-0.73
10.98251807689667,2,3,3,3,-9.26,-0.9399999999999999,2.2,0.28,0.32,-0.77
10.99251806735992,2,3,3,3,-9.33,-0.93,2.11,0.49,0.28,-0.68
11.00251805782318,2,3,3,3,-9.390000000000001,-0.93,2.16,0.52,0.19,-0.5600000000000001
11.01251804828644,2,3,3,3,-9.539999999999999,-0.83,2.22,0.44,0.07000000000000001,-0.46
11.02251803874969,2,3,3,3,-9.52,-0.84,2.2,0.25,-0.1,-0.36
11.03251802921295,2,3,3,3,-9.49,-0.89,2.16,-0.06,-0.16,-0.36
11.04251801967621,2,3,3,3,-9.52,-0.96,2.07,-0.35,-0.06,-0.48
11.05251801013947,2,3,3,3,-9.56,-1.15,2.08,-0.53,0.02,-0.61
11.06251800060272,2,3,3,3,-9.529999999999999,-1.27,2.05,-0.67,0.07000000000000001,-0.75
11.07251799106598,2,3,3,3,-9.42,-1.34,1.97,-0.8100000000000001,0.06,-0.88
11.08251798152924,2,3,3,3,-9.33,-1.38,1.87,-0.91,0.13,-0.99
11.09251797199249,2,3,3,3,-9.16,-1.37,1.66,-0.87,0.22,-1.08
11.10251796245575,2,3,3,3,-9.140000000000001,-1.31,1.85,-0.57,0.32,-1.13
11.11251795291901,2,3,3,3,-9.130000000000001,-1.29,2.04,-0.1,0.31,-1.09
11.12251794338226,2,3,3,3,-9.210000000000001,-1.31,2.25,0.25,0.05,-0.88
11.13251793384552,2,3,3,3,-9.23,-1.31,2.22,0.26,-0.25,-0.7
11.14251792430878,2,3,3,3,-9.27,-1.28,2.09,0.08,-0.48,-0.59
11.15251791477203,2,3,3,3,-9.26,-1.22,2.03,-0.24,-0.51,-0.63
11.16251790523529,2,3,3,3,-9.289999999999999,-1.27,2.04,-0.54,-0.35,-0.78
11.17251789569855,2,3,3,3,-9.27,-1.33,1.97,-0.83,-0.13,-1.08
11.1825178861618,2,3,3,3,-9.220000000000001,-1.48,1.84,-1.12,-0.03,-1.57
11.19251787662506,2,3,3,3,-9.1,-1.6,1.61,-1.44,0.02,-2.14
11.20251786708832,2,3,3,3,-8.710000000000001,-1.87,1.41,-1.54,0.2,-2.79
11.21251785755157,2,3,3,3,-8.43,-1.97,1.39,-1.55,0.41,-3.52
11.22251808643341,2,3,3,3,-8.140000000000001,-2.01,1.38,-1.47,0.64,-4.14
11.23251807689667,2,3,3,3,-7.86,-2.05,1.43,-1.35,0.8100000000000001,-4.57
11.24251806735992,2,3,3,3,-7.35,-2.23,1.32,-1.44,0.73,-4.88
11.25251805782318,2,3,3,3,-7.09,-2.17,1.27,-1.61,0.76,-5.16
11.26251804828644,2,3,3,3,-6.9,-2.14,1.25,-1.98,0.65,-5.48
11.27251803874969,2,3,3,3,-6.76,-2.08,1.19,-2.33,0.54,-5.81
11.28251802921295,2,3,3,3,-6.46,-1.94,0.9399999999999999,-2.47,0.41,-6.12
11.29251801967621,2,3,3,3,-6.27,-1.88,0.73,-2.58,0.08,-6.44
11.30251801013947,2,3,3,3,-6.04,-1.8,0.73,-2.81,-0.18,-6.91
11.31251800060272,2,3,3,3,-6.12,-1.68,1.12,-3.07,-0.14,-7.52
11.32251799106598,2,3,3,3,-6.21,-1.73,1.16,-3.14,-0.16,-8.119999999999999
11.33251798152924,2,3,3,3,-6.1,-1.82,0.8100000000000001,-3.48,-0.5,-8.630000000000001
11.34251797199249,2,3,3,3,-5.94,-1.87,0.47,-3.86,-0.58,-9.140000000000001
11.35251796245575,2,3,3,3,-5.92,-1.56,1.29,-3.45,0.09,-9.220000000000001
11.36251795291901,2,3,3,3,-6.11,-1.59,1.88,-2.76,0.39,-8.960000000000001
11.37251794338226,2,3,3,3,-6.29,-1.67,1.97,-2.62,-0.41,-8.44
11.38251793384552,2,3,3,3,-6.38,-1.7,1.81,-2.63,-1.97,-7.94
11.39251792430878,2,3,3,3,-6.77,-1.85,1.81,-2.53,-2.81,-7.28
11.40251791477203,2,3,3,3,-7.27,-2.06,2.01,-2,-2.81,-6.51
11.41251790523529,2,3,3,3,-7.86,-2.2,2.28,-1.4,-2.62,-5.8
11.42251789569855,2,3,3,3,-8.529999999999999,-2.31,2.68,-1.07,-2.8,-5.08
11.43351805210114,2,3,3,3,-9.85,-1.95,2.88,-0.9,-3.34,-4.36
11.44351804256439,2,3,3,3,-10.05,-1.56,2.94,-1.36,-3.96,-4.24
11.45351803302765,2,3,3,3,-10.22,-1.29,3.4,-2.1,-4.39,-4.65
11.46351802349091,2,3,3,3,-10.44,-0.92,3.76,-2.43,-4.68,-4.89
11.47351801395416,2,3,3,3,-10.14,-1.12,3.23,-2.3,-5.35,-4.44
11.48351800441742,2,3,3,3,-9.94,-1.33,2.78,-2.5,-5.22,-3.66
11.49351799488068,2,3,3,3,-9.92,-1.63,2.6,-2.01,-4.15,-2.47
11.50351798534393,2,3,3,3,-9.609999999999999,-1.96,4.01,-0.99,-4.15,-1.27
11.51351797580719,2,3,3,3,-9.77,-2.15,4.8,-0.33,-5.27,-0.1
11.52351796627045,2,3,3,3,-10.37,-2.34,5.41,-0.6,-6.06,1.25
11.5335179567337,2,3,3,3,-11.31,-2.66,5.54,-1.13,-6.26,2.37
11.54351794719696,2,3,3,3,-13.39,-2.57,5.44,-1.24,-5.47,2.93
11.55351793766022,2,3,3,3,-14.42,-2.35,5.5,-0.96,-3.84,2.99
11.56351792812347,2,3,3,3,-15.27,-2.36,5.33,-0.45,-2.56,2.97
11.57351791858673,2,3,3,3,-16.02,-2.61,5.1,-0.07000000000000001,-2.04,2.65
11.58351790904999,2,3,3,3,-17.83,-3.28,5.86,0.59,-1.87,1.92
11.59351789951324,2,3,3,3,-18.69,-3.64,6.27,1.3,-1.83,1.3
11.6035178899765,2,3,3,3,-19.27,-3.66,6.3,1.4,-2.04,1.2
11.61351788043976,2,3,3,3,-19.56,-3.25,6.4,1.19,-1.46,1.1
11.62351787090302,2,3,3,3,-19.78,-2.83,6.49,0.85,0.76,1.09
11.63351786136627,2,3,3,3,-19.71,-2.97,6.76,0.58,2.97,1.08
11.64351809024811,2,3,3,3,-19.41,-3.15,6.82,-0.24,2.83,0.86
11.65351808071136,2,3,3,3,-19.39,-3.53,7.27,-1.6,1.83,0.8
11.66351807117462,2,3,3,3,-20.12,-4.03,7.7,-2.33,1.66,1.31
11.67351806163788,2,3,3,3,-20.66,-4.05,6.93,-2.13,2.24,2.08
11.68351805210114,2,3,3,3,-21.21,-3.76,6.1,-0.85,3.94,3.14
11.69351804256439,2,3,3,3,-21.78,-2.89,5.9,1.38,4.97,4.24
11.70351803302765,2,3,3,3,-21.51,-2.29,6.51,4.09,4.78,5.27
11.71351802349091,2,3,3,3,-20.98,-1.64,7.08,6.57,4.39,6.29
11.72351801395416,2,3,3,3,-20.31,-0.72,7.43,8.07,4.38,7.25
11.73351800441742,2,3,3,3,-19.36,-0.73,7.65,8.82,5.08,8.02
11.74351799488068,2,3,3,3,-19.18,-0.71,7.43,8.68,6.09,7.85
11.75351798534393,2,3,3,3,-19.42,-0.88,7.34,7.93,6.98,7.1
11.76351797580719,2,3,3,3,-19.86,-1.15,6.93,6.61,8.6,6.13
11.77351796627045,2,3,3,3,-20.02,-2.22,4.91,4.42,10.32,5.37
11.7835179567337,2,3,3,3,-18.95,-3.55,3.87,1.75,10.75,5.02
11.79351794719696,2,3,3,3,-16.83,-5.15,2.3,-0.62,9.960000000000001,3.83
11.80351793766022,2,3,3,3,-13.28,-6.45,0.78,-1.74,8.369999999999999,0.97
11.81351792812347,2,3,3,3,-5.41,-6.43,-1.81,-2.07,6.53,-3.01
11.82351791858673,2,3,3,3,-2.23,-5.51,-1.85,-1.59,5.58,-6.31
11.83351790904999,2,3,3,3,0.3,-4.8,-2.3,-1.83,5.38,-6.55
11.84351789951324,2,3,3,3,2.47,-5.66,-2.02,-4.89,5.37,-6.56
11.8535178899765,2,3,3,3,6.29,-10.33,-3.9,-10.69,2.17,-8.15
11.86351788043976,2,3,3,3,6.13,-11.6,-6.29,-16.26,-5.64,-11.21
11.87351787090302,2,3,3,3,5.18,-11.11,-6.83,-16.42,-6.83,-11.43
11.88351786136627,2,3,3,3,6.69,-7.12,-4.94,-9.109999999999999,-1.86,-8.75
11.89351809024811,2,3,3,3,6.05,-5.57,-2.95,0.38,0.74,-6.62
11.90351808071136,2,3,3,3,4.63,-4.06,-1.13,7.36,0.79,-3.9
11.91351807117462,2,3,3,3,3.68,-2.26,0.07000000000000001,11.24,-1.21,0.45
11.92351806163788,2,3,3,3,1.9,0.68,0.83,12.9,-2.35,4.65
11.93351805210114,2,3,3,3,1.61,1.61,0.9,13.53,-2.5,7.43
11.94351804256439,2,3,3,3,1.63,2.63,0.57,14.33,-3.14,9.699999999999999
11.95351803302765,2,3,3,3,1.48,3.33,0.4,14.07,-2.86,11.99
11.96351802349091,2,3,3,3,-0.17,3.23,0.7,11.9,-2.43,12.52
11.97351801395416,2,3,3,3,-1.38,2.96,0.64,9.25,-2.45,11.87
11.98351800441742,2,3,3,3,-2.48,2.67,0.2,6.63,-2.35,10.88
11.99351799488068,2,3,3,3,-3.22,2.29,0.07000000000000001,3.84,-1.57,9.550000000000001
12.00351798534393,2,3,3,3,-4.48,2.21,1.7,1.78,-0.52,7.99
12.01351797580719,2,3,3,3,-4.86,2.44,2.06,0.06,-0.71,6.06
12.02351796627045,2,3,3,3,-4.76,2.41,1.52,-2.04,-1.78,3.62
12.0335179567337,2,3,3,3,-4.32,2.1,0.47,-4.7,-2.4,0.63
12.04351794719696,2,3,3,3,-3.28,1.2,-1.14,-6.8,-1.33,-2.61
12.05351793766022,2,3,3,3,-2.39,0.64,-1.28,-7.45,0.47,-5.69
12.06351792812347,2,3,3,3,-1.26,0.06,-1.34,-6.81,2.1,-8.1
12.07351791858673,2,3,3,3,0.21,-0.49,-0.8100000000000001,-5.34,2.99,-9.99
12.08351790904999,2,3,3,3,0.38,-0.72,-0.45,-3.79,2.92,-11.2
12.09351789951324,2,3,3,3,0.79,-1.11,-0.43,-3.13,1.8,-11.88
12.1035178899765,2,3,3,3,1.22,-1.4,-0.5,-3.15,0.12,-12.04
12.11351788043976,2,3,3,3,2.04,-1.54,-0.75,-3.2,-1,-11.73
12.12351787090302,2,3,3,3,2.27,-1.38,-0.37,-2.14,-1.15,-10.99
12.13351786136627,2,3,3,3,2.61,-1.34,-0.26,-0.59,-1.64,-9.800000000000001
12.14351809024811,2,3,3,3,3.21,-1.31,-1.22,0.22,-3.05,-8.1
12.15351808071136,2,3,3,3,2.68,-0.3,-0.67,1.61,-3.16,-5.87
12.16351807117462,2,3,3,3,1.79,0.4,0.24,4.78,-1.46,-3.46
12.17351806163788,2,3,3,3,1.21,0.99,0.55,7.04,-1.44,-1.04
12.18351805210114,2,3,3,3,0.97,1.35,0.4,7.04,-2.79,1.35
12.19351804256439,2,3,3,3,1.01,1.11,0.92,6.07,-3.32,3.34
12.20351803302765,2,3,3,3,0.59,1.03,2.24,6.85,-2.37,5.06
12.21351802349091,2,3,3,3,-0.5600000000000001,0.21,2.3,7.91,-0.99,6.74
12.22351801395416,2,3,3,3,-2.26,-4.03,3.54,4.03,-3.37,8.24
12.23351800441742,2,3,3,3,-2.05,-6.57,3.9,-0.42,-6.36,9.73
12.24351799488068,2,3,3,3,-2.76,-9.199999999999999,4.39,-3.37,-4.29,11.44
12.25351798534393,2,3,3,3,-4.26,-11.89,3.66,-5.5,0.43,14.39
12.26351797580719,2,3,3,3,-21.81,-11.25,3.73,-7.95,7.11,16.64
12.27351796627045,2,3,3,3,-39.11,-16.64,13.58,-7.59,24.24,19.71
12.2835179567337,2,3,3,3,-39.11,-19.29,-0.23,6.07,8.9,22.85
12.29351794719696,2,3,3,3,-39.07,-9.970000000000001,-17.22,27.26,-6.95,9.93
12.30351793766022,2,3,3,3,-17.06,23.15,4.19,38.6,16.69,-15.14
12.31351792812347,2,3,3,3,-9.210000000000001,10.6,16.47,26.56,-38.8,-30.5
12.32351791858673,2,3,3,3,-10.57,2.98,19.91,7.78,-17.13,-11.79
12.33351790904999,2,3,3,3,-8.890000000000001,0.31,14.19,3.67,-4,12.45
12.34351789951324,2,3,3,3,-14.08,0.73,9.98,-2.77,-10.53,21.91
12.3535178899765,2,3,3,3,-18.04,3.91,10.06,2.04,-4.87,21.07
12.36351788043976,2,3,3,3,-19.62,6.15,8.56,-4.14,-1.02,17.89
12.37351787090302,2,3,3,3,-23.12,6.05,4.43,-15.85,7.93,13.63
12.38351786136627,2,3,3,3,-28.55,1.44,-3.71,-13.79,22.21,6.5
12.39351809024811,2,3,3,3,-24.84,-1.12,-0.03,1.35,21.33,-4.45
12.40351808071136,2,3,3,3,-19.07,-2.85,3.88,2.68,-1.29,-12.65
12.41351807117462,2,3,3,3,-8.92,-4.21,6.22,-4.14,-18.2,-15.22
12.42351806163788,2,3,3,3,-6.91,-3.59,6.27,-5.96,-18.33,-13.03
12.43351805210114,2,3,3,3,-6.85,-3.4,5.61,-4.26,-9.789999999999999,-9.779999999999999
12.44351804256439,2,3,3,3,-8.630000000000001,-3.14,4.83,-2.87,0.37,-7.07
12.4545179605484,2,3,3,3,-14.12,-3.05,3.51,-2,6.79,-4.61
12.46451795101166,2,3,3,3,-14.98,-2.83,2.46,-2,7.76,-2.8
12.47451794147491,2,3,3,3,-13.76,-2.34,1.43,-1.8,4.32,-1.1
12.48451793193817,2,3,3,3,-11.67,-2,0.82,-1.45,0.72,0.87
12.49451792240143,2,3,3,3,-8.25,-0.9,1.59,-1.3,-0.21,2.36
12.50451791286469,2,3,3,3,-7.4,-0.75,2.47,-0.64,0.3,3.2
12.51451790332794,2,3,3,3,-6.95,-0.7,2.75,-0.08,0.27,3.45
12.5245178937912,2,3,3,3,-6.47,-0.83,2.47,-0.2,-0.78,2.8
12.53451788425446,2,3,3,3,-5.68,-0.83,1.95,-0.68,-2.38,1.84
12.54451787471771,2,3,3,3,-5.21,-0.82,2.2,-1.02,-4.57,0.88
12.55451786518097,2,3,3,3,-4.62,-0.9,2.15,-1.31,-6.5,0.16
12.56451809406281,2,3,3,3,-4.06,-1.03,1.89,-2.3,-6.72,-0.51
12.57451808452606,2,3,3,3,-3.93,-1.61,2,-3.02,-4.03,-1.02
12.58451807498932,2,3,3,3,-4.23,-1.87,2.18,-2.72,-0.08,-1.5
12.59451806545258,2,3,3,3,-4.64,-2.21,2.08,-2.37,2.66,-1.57
12.60451805591583,2,3,3,3,-5.69,-3.16,2.09,-2.46,3.98,-1.35
12.61451804637909,2,3,3,3,-6.21,-3.56,1.79,-2.38,4.02,-1.1
12.62451803684235,2,3,3,3,-6.71,-3.67,1.53,-2.06,3.29,-0.84
12.6345180273056,2,3,3,3,-7.18,-3.42,1.33,-0.93,3.07,-0.5
12.64451801776886,2,3,3,3,-7.62,-2.67,1.21,0.78,3.12,-0.04
12.65451800823212,2,3,3,3,-7.75,-2.7,1.64,2.16,2.6,0.35
12.66451799869537,2,3,3,3,-7.57,-2.68,2.04,3.22,0.58,0.76
12.67451798915863,2,3,3,3,-7.18,-2.57,2.31,3.96,-2.05,1.31
12.68451797962189,2,3,3,3,-7.25,-2.51,2.56,4.45,-2.95,1.62
12.69451797008514,2,3,3,3,-7.53,-2.06,2.52,4.75,-1.73,2.1
12.7045179605484,2,3,3,3,-7.84,-1.53,2.7,4.8,-0.01,2.74
12.71451795101166,2,3,3,3,-8,-0.97,3.02,5.14,0.89,3.28
12.72451794147491,2,3,3,3,-8.119999999999999,-0.7,3.56,5.1,1.08,3.7
12.73451793193817,2,3,3,3,-8.449999999999999,-0.84,3.27,4.5,1.26,3.8
12.74451792240143,2,3,3,3,-9.109999999999999,-1.19,2.97,3.39,1.28,3.64
12.75451791286469,2,3,3,3,-10.06,-1.43,2.81,2.13,1.84,3.58
12.76451790332794,2,3,3,3,-12.57,-1.21,2.56,1.38,2.63,3.47
12.7745178937912,2,3,3,3,-13.27,-0.78,1.99,0.98,3.33,3.05
12.78451788425446,2,3,3,3,-13.19,-0.46,1.47,0.76,3.65,2.26
12.79451787471771,2,3,3,3,-12.43,-0.22,1.27,0.8,3.89,1
12.80451786518097,2,3,3,3,-9.76,-0.39,1.84,1.21,2.73,-0.59
12.81451809406281,2,3,3,3,-8.65,-0.6,2.34,1.15,0.34,-2.33
12.82451808452606,2,3,3,3,-7.89,-0.74,2.81,0.68,-1.2,-3.49
12.83451807498932,2,3,3,3,-7.33,-0.96,2.83,0.05,-1.38,-3.66
12.84451806545258,2,3,3,3,-7.29,-0.9,2.55,-0.96,-0.8100000000000001,-3.16
12.85451805591583,2,3,3,3,-7.38,-1.1,2.61,-1.65,0.03,-2.35
12.86451804637909,2,3,3,3,-7.66,-1.34,2.61,-2.04,1.19,-1.36
12.87451803684235,2,3,3,3,-8.34,-1.77,2.42,-2.16,1.88,-0.47
12.8845180273056,2,3,3,3,-8.77,-2.05,2.15,-2.19,2.03,0.16
12.89451801776886,2,3,3,3,-9.380000000000001,-2.45,2.05,-1.8,2.04,0.64
12.90451800823212,2,3,3,3,-9.9,-2.81,1.97,-1.21,1.95,1.07
12.91451799869537,2,3,3,3,-10.58,-2.91,1.51,-0.47,1.46,1.12
12.92451798915863,2,3,3,3,-10.57,-2.59,1.64,0.46,1.12,0.82
12.93451797962189,2,3,3,3,-10.56,-2.15,1.88,2.13,1.01,0.15
12.94451797008514,2,3,3,3,-10.38,-1.7,1.96,3.5,0.55,-0.59
12.9545179605484,2,3,3,3,-9.94,-0.76,2.56,3.94,-0.24,-0.8100000000000001
12.96451795101166,2,3,3,3,-9.67,-0.39,2.75,3.7,-0.62,-0.45
12.97451794147491,2,3,3,3,-9.550000000000001,-0.05,2.93,2.98,-0.39,0.23
12.98451793193817,2,3,3,3,-9.44,0.02,3.09,2.09,0.22,0.88
12.99451792240143,2,3,3,3,-8.84,0.06,3.08,1.51,0.52,1.3
13.00451791286469,2,3,3,3,-8.720000000000001,-0.08,2.93,0.96,0.8,1.49
13.01451790332794,2,3,3,3,-8.800000000000001,-0.25,2.74,0.23,1.2,1.44
13.0245178937912,2,3,3,3,-9.33,-0.66,2.45,-0.52,1.34,1.33
13.03451788425446,2,3,3,3,-9.51,-0.92,2.19,-1.06,0.95,1.23
13.04451787471771,2,3,3,3,-9.539999999999999,-1.11,1.93,-1.41,0.6,1.2
13.05451786518097,2,3,3,3,-9.51,-1.26,1.87,-1.43,0.53,1.12
13.06451809406281,2,3,3,3,-9.529999999999999,-1.27,1.99,-1.27,0.57,0.92
13.07451808452606,2,3,3,3,-9.57,-1.19,2.15,-0.8100000000000001,0.42,0.55
13.08451807498932,2,3,3,3,-9.529999999999999,-1.15,2.28,-0.18,0.01,0.13
13.09451806545258,2,3,3,3,-9.470000000000001,-1.13,2.31,0.4,-0.34,-0.23
13.10451805591583,2,3,3,3,-9.289999999999999,-1.14,2.55,0.64,-0.53,-0.37
13.11451804637909,2,3,3,3,-9.25,-1.12,2.59,0.55,-0.66,-0.32
13.12451803684235,2,3,3,3,-9.27,-1.11,2.64,0.32,-0.7,-0.06
13.1345180273056,2,3,3,3,-9.27,-1.11,2.64,0.03,-0.75,0.29
13.14451801776886,2,3,3,3,-9.42,-1.01,2.32,-0.35,-0.8,0.66
13.15451800823212,2,3,3,3,-9.49,-1,2.34,-0.57,-0.78,0.97
13.16451799869537,2,3,3,3,-9.460000000000001,-1.01,2.27,-0.7,-0.83,1.17
13.17451798915863,2,3,3,3,-9.460000000000001,-1.01,2.27,-0.87,-0.89,1.22
13.18451797962189,2,3,3,3,-9.609999999999999,-1.19,2.08,-1.04,-0.88,1.21
13.19451797008514,2,3,3,3,-9.68,-1.22,1.97,-1.08,-0.72,1.17
13.2045179605484,2,3,3,3,-9.75,-1.22,2.09,-0.96,-0.5600000000000001,1.08
13.21451795101166,2,3,3,3,-9.710000000000001,-1.23,2.38,-0.58,-0.46,0.96
13.22451794147491,2,3,3,3,-9.68,-1.18,2.46,-0.11,-0.4,0.79
13.23451793193817,2,3,3,3,-9.67,-1.13,2.53,0.27,-0.32,0.55
13.24451792240143,2,3,3,3,-9.6,-0.99,2.5,0.59,-0.32,0.32
13.25451791286469,2,3,3,3,-9.4,-0.84,2.7,0.59,-0.36,0.13
13.26451790332794,2,3,3,3,-9.369999999999999,-0.76,2.88,0.47,-0.36,0.07000000000000001
13.2745178937912,2,3,3,3,-9.27,-0.78,2.83,0.25,-0.38,0.06
13.28451788425446,2,3,3,3,-9.210000000000001,-0.78,2.72,-0.27,-0.25,0.08
13.29451787471771,2,3,3,3,-9.279999999999999,-0.76,2.51,-0.8100000000000001,0.14,0.1
13.30451786518097,2,3,3,3,-9.31,-0.79,2.49,-1.21,0.48,0.13
13.31451809406281,2,3,3,3,-9.33,-0.86,2.45,-1.52,0.63,0.15
13.32451808452606,2,3,3,3,-9.33,-0.96,2.34,-1.73,0.6899999999999999,0.13
13.33451807498932,2,3,3,3,-9.460000000000001,-1.15,2.19,-1.79,0.79,0.21
13.34451806545258,2,3,3,3,-9.58,-1.19,2.07,-1.68,0.79,0.33
13.35451805591583,2,3,3,3,-9.619999999999999,-1.21,2.16,-1.45,0.6899999999999999,0.4
13.36451804637909,2,3,3,3,-9.5,-1.22,2.33,-1.09,0.41,0.4
13.37451803684235,2,3,3,3,-9.4,-1.18,2.37,-0.73,0.14,0.36
13.3845180273056,2,3,3,3,-9.42,-1.12,2.45,-0.42,0.08,0.36
13.39451801776886,2,3,3,3,-9.48,-1.01,2.38,-0.24,0.18,0.43
13.40451800823212,2,3,3,3,-9.390000000000001,-0.8,2.41,-0.1,0.17,0.54
13.41451799869537,2,3,3,3,-9.279999999999999,-0.72,2.48,-0.17,0.03,0.59
13.42451798915863,2,3,3,3,-9.24,-0.6899999999999999,2.56,-0.34,-0.07000000000000001,0.62
13.43451797962189,2,3,3,3,-9.25,-0.65,2.56,-0.42,0.02,0.62
13.44451797008514,2,3,3,3,-9.369999999999999,-0.58,2.4,-0.59,0.15,0.63
13.4545179605484,2,3,3,3,-9.380000000000001,-0.63,2.47,-0.7,0.17,0.65
13.46451795101166,2,3,3,3,-9.42,-0.68,2.43,-0.73,0.09,0.65
13.47551786899567,2,3,3,3,-9.51,-0.74,2.39,-0.9399999999999999,0.13,0.68
13.48551785945892,2,3,3,3,-9.65,-0.86,2.33,-1.12,0.2,0.66
13.49551808834076,2,3,3,3,-9.67,-0.93,2.22,-1.14,0.3,0.61
13.50551807880402,2,3,3,3,-9.68,-0.96,2.2,-1.21,0.46,0.54
13.51551806926727,2,3,3,3,-9.65,-0.96,2.3,-1.25,0.48,0.44
13.52551805973053,2,3,3,3,-9.609999999999999,-1,2.22,-1.22,0.47,0.35
13.53551805019379,2,3,3,3,-9.609999999999999,-1,2.22,-1.22,0.47,0.35
13.54551804065704,2,3,3,3,-9.630000000000001,-0.97,2.14,-1.25,0.63,0.23
13.5555180311203,2,3,3,3,-9.550000000000001,-0.98,2.24,-1.05,0.68,0.17
13.56551802158356,2,3,3,3,-9.35,-1.01,2.24,-0.9399999999999999,0.63,0.13
13.57551801204681,2,3,3,3,-9.35,-1.01,2.24,-0.9399999999999999,0.63,0.13
13.58551800251007,2,3,3,3,-9.42,-1.02,2.31,-1.06,0.67,0.08
13.59551799297333,2,3,3,3,-9.460000000000001,-1,2.02,-1.14,0.73,0.06
13.60551798343658,2,3,3,3,-9.460000000000001,-1.03,2.13,-1.07,0.71,0.05
13.61551797389984,2,3,3,3,-9.44,-1.02,2.15,-0.88,0.59,0.07000000000000001
13.6255179643631,2,3,3,3,-9.44,-1.02,2.15,-0.88,0.59,0.07000000000000001
13.63551795482635,2,3,3,3,-9.43,-1.08,2.2,-0.85,0.37,0.04
13.64551794528961,2,3,3,3,-9.56,-1.05,2.07,-0.68,0.1,0.05
13.65551793575287,2,3,3,3,-9.630000000000001,-1.03,2.18,-0.49,0.06,0.04
13.66551792621613,2,3,3,3,-9.59,-1.03,2.19,-0.33,-0.11,0.08
13.67551791667938,2,3,3,3,-9.59,-1.03,2.19,-0.33,-0.11,0.08
13.68551790714264,2,3,3,3,-9.4,-1.14,2.28,-0.33,-0.27,0.1
13.6955178976059,2,3,3,3,-9.369999999999999,-1.18,2.03,-0.5600000000000001,-0.01,0.14
13.70551788806915,2,3,3,3,-9.640000000000001,-1.07,2.1,-0.77,0.28,0.17
13.71551787853241,2,3,3,3,-9.84,-0.91,2.16,-0.58,0.19,0.21
13.72551786899567,2,3,3,3,-9.84,-0.91,2.16,-0.58,0.19,0.21
13.73551785945892,2,3,3,3,-9.67,-0.92,2.15,-0.33,-0.13,0.26
13.74551808834076,2,3,3,3,-9.300000000000001,-1.12,2.09,-0.29,-0.27,0.11
13.75551807880402,2,3,3,3,-9.359999999999999,-1.15,2.05,-0.38,-0.08,0.03
13.76551806926727,2,3,3,3,-9.5,-1.15,2.09,-0.49,0.27,-0.01
13.77551805973053,2,3,3,3,-9.5,-1.15,2.09,-0.49,0.27,-0.01
13.78551805019379,2,3,3,3,-9.57,-1.11,2.13,-0.46,0.38,0.01
13.79551804065704,2,3,3,3,-9.51,-1.05,2.04,-0.32,0.09,0.2
13.8055180311203,2,3,3,3,-9.49,-0.99,2.1,-0.25,0.07000000000000001,0.17
13.81551802158356,2,3,3,3,-9.470000000000001,-1.01,2.18,-0.17,0.11,0.18
13.82551801204681,2,3,3,3,-9.470000000000001,-1.01,2.18,-0.14,0.13,0.12
13.83551800251007,2,3,3,3,-9.44,-1.14,2.09,-0.22,0.15,0.09
13.84551799297333,2,3,3,3,-9.529999999999999,-1.16,2.01,-0.32,0.1,0.01
13.85551798343658,2,3,3,3,-9.59,-1.16,2.05,-0.39,0.13,0.01
13.86551797389984,2,3,3,3,-9.56,-1.1,2.14,-0.39,0.1,0.04
13.8755179643631,2,3,3,3,-9.56,-1.1,2.14,-0.34,0.08,0.1
13.88551795482635,2,3,3,3,-9.52,-1.1,2.16,-0.34,0.08,0.1
13.89551794528961,2,3,3,3,-9.449999999999999,-1.12,2.11,-0.17,0.08,0.11
13.90551793575287,2,3,3,3,-9.5,-1.12,2.15,-0.14,0.09,0.09
13.91551792621613,2,3,3,3,-9.52,-1.07,2.13,-0.22,0.05,0.07000000000000001
13.92551791667938,2,3,3,3,-9.52,-1.07,2.13,-0.22,0.05,0.07000000000000001
13.93551790714264,2,3,3,3,-9.550000000000001,-1.03,2.16,-0.22,0.02,0.05
13.9455178976059,2,3,3,3,-9.52,-1.05,2.07,-0.15,0.11,-0.01
13.95551788806915,2,3,3,3,-9.51,-1.07,2.12,-0.12,0.17,-0.05
13.96551787853241,2,3,3,3,-9.51,-1.1,2.13,-0.15,0.18,-0.06
13.97551786899567,2,3,3,3,-9.51,-1.1,2.13,-0.15,0.18,-0.06
13.98551785945892,2,3,3,3,-9.57,-1.12,2.11,-0.23,0.17,-0.05
13.99551808834076,2,3,3,3,-9.57,-1.1,1.96,-0.22,0.19,-0.04
14.00551807880402,2,3,3,3,-9.550000000000001,-1.05,2.01,-0.24,0.17,-0.08
14.01551806926727,2,3,3,3,-9.539999999999999,-1.03,2.13,-0.21,0.18,-0.13
14.02551805973053,2,3,3,3,-9.539999999999999,-1.03,2.13,-0.21,0.18,-0.13
14.03551805019379,2,3,3,3,-9.49,-1.1,2.16,-0.17,0.08,-0.15
14.04551804065704,2,3,3,3,-9.51,-1.11,2.12,-0.23,0.08,-0.16
14.0555180311203,2,3,3,3,-9.539999999999999,-1.13,2.05,-0.17,0.07000000000000001,-0.18
14.06551802158356,2,3,3,3,-9.52,-1.21,2.02,-0.15,0.09,-0.16
14.07551801204681,2,3,3,3,-9.5,-1.19,2.04,-0.14,0.16,-0.14
14.08551800251007,2,3,3,3,-9.470000000000001,-1.18,2.06,-0.06,0.18,-0.14
14.09551799297333,2,3,3,3,-9.460000000000001,-1.14,2.13,-0.03,0.15,-0.11
14.10551798343658,2,3,3,3,-9.48,-1.09,1.97,0.02,0.1,-0.09
14.11551797389984,2,3,3,3,-9.5,-1.05,2.06,0.1,0.03,-0.08
14.1255179643631,2,3,3,3,-9.5,-1.03,2.14,0.1,0.03,-0.08
14.13551795482635,2,3,3,3,-9.48,-1.06,2.18,0.22,0.02,-0.07000000000000001
14.14551794528961,2,3,3,3,-9.5,-1.1,2.05,0.02,0.18,-0.17
14.15551793575287,2,3,3,3,-9.6,-1.07,2.04,0.03,0.27,-0.18
14.16551792621613,2,3,3,3,-9.619999999999999,-1.09,2.03,0.08,0.15,-0.19
14.17551791667938,2,3,3,3,-9.539999999999999,-1.07,2.04,0.08,0.15,-0.19
14.18551790714264,2,3,3,3,-9.5,-1.08,2.1,0.06,0.09,-0.14
14.1955178976059,2,3,3,3,-9.49,-1.07,2.15,0.11,0.05,-0.12
14.20551788806915,2,3,3,3,-9.5,-1.09,2.06,0.12,-0.02,-0.09
14.21551787853241,2,3,3,3,-9.51,-1.08,2.11,0.08,-0.04,-0.06
14.22551786899567,2,3,3,3,-9.51,-1.08,2.16,0.08,-0.04,-0.06
14.23551785945892,2,3,3,3,-9.529999999999999,-1.09,2.12,0.03,0.05,-0.02
14.24551808834076,2,3,3,3,-9.529999999999999,-1.06,2.18,0,0.08,-0.01
14.25551807880402,2,3,3,3,-9.52,-1.09,2.02,-0.07000000000000001,0.07000000000000001,0
14.26551806926727,2,3,3,3,-9.49,-1.08,2.09,-0.01,0.09,-0.02
14.27551805973053,2,3,3,3,-9.460000000000001,-1.06,2.1,-0.01,0.09,-0.02
14.28551805019379,2,3,3,3,-9.449999999999999,-1.07,2.16,0.02,0.13,-0.1
14.29551804065704,2,3,3,3,-9.48,-1.12,2.14,0,0.04,-0.11
14.3055180311203,2,3,3,3,-9.48,-1.12,2.03,-0.09,0.04,-0.13
14.31551802158356,2,3,3,3,-9.539999999999999,-1.11,2.08,-0.13,0.08,-0.09
14.32551801204681,2,3,3,3,-9.58,-1.11,2.07,-0.13,0.08,-0.09
14.33551800251007,2,3,3,3,-9.6,-1.09,2.15,-0.12,0.09,-0.06
14.34551799297333,2,3,3,3,-9.57,-1.06,2.16,-0.06,0.07000000000000001,-0.1
14.35551798343658,2,3,3,3,-9.539999999999999,-1.06,2.05,0.04,0.15,-0.15
14.36551797389984,2,3,3,3,-9.51,-1.09,2.07,0.03,0.11,-0.2
14.3755179643631,2,3,3,3,-9.49,-1.08,2.16,0.03,0.11,-0.2
14.38551795482635,2,3,3,3,-9.5,-1.15,2.18,-0.01,0.1,-0.23
14.39551794528961,2,3,3,3,-9.49,-1.13,2.1,-0.28,0.17,-0.15
14.40551793575287,2,3,3,3,-9.529999999999999,-1.1,1.99,-0.24,0.24,-0.16
14.41551792621613,2,3,3,3,-9.52,-1.09,2.05,-0.17,0.26,-0.12
14.42551791667938,2,3,3,3,-9.5,-1.11,2.1,-0.17,0.26,-0.12
14.43551790714264,2,3,3,3,-9.48,-1.13,2.1,-0.18,0.23,-0.11
14.4455178976059,2,3,3,3,-9.550000000000001,-1.16,2.11,-0.08,0.13,-0.08
14.45551788806915,2,3,3,3,-9.58,-1.15,2.02,-0.01,0.06,-0.06
14.46551787853241,2,3,3,3,-9.529999999999999,-1.15,2.03,0,0.03,-0.06
14.47551786899567,2,3,3,3,-9.470000000000001,-1.16,2.1,0,0.03,-0.06
14.48551785945892,2,3,3,3,-9.449999999999999,-1.14,2.14,-0.1,0.17,-0.06
14.49551808834076,2,3,3,3,-9.57,-1.07,2.19,-0.01,0.15,-0.06
14.50651800632477,2,3,3,3,-9.609999999999999,-1.05,2.07,0.02,0.08,-0.04
14.51651799678802,2,3,3,3,-9.51,-1.06,2.11,-0.01,0.11,-0.01
14.52651798725128,2,3,3,3,-9.44,-1.1,2.13,-0.01,0.11,-0.01
14.53651797771454,2,3,3,3,-9.44,-1.1,2.13,-0.14,0.17,-0.12
14.5465179681778,2,3,3,3,-9.470000000000001,-1.1,2.15,-0.16,0.16,-0.13
14.55651795864105,2,3,3,3,-9.6,-1.12,2,-0.15,0.13,-0.12
14.56651794910431,2,3,3,3,-9.56,-1.11,2.04,-0.17,0.05,-0.09
14.57651793956757,2,3,3,3,-9.51,-1.13,2.03,-0.17,0.05,-0.09
14.58651793003082,2,3,3,3,-9.48,-1.14,2.09,-0.21,0.03,-0.07000000000000001
14.59651792049408,2,3,3,3,-9.49,-1.16,2.05,-0.12,0.1,-0.07000000000000001
14.60651791095734,2,3,3,3,-9.52,-1.16,2.02,-0.02,0.07000000000000001,-0.09
14.61651790142059,2,3,3,3,-9.49,-1.18,2.06,0,-0.05,-0.04
14.62651789188385,2,3,3,3,-9.470000000000001,-1.18,2.09,0,-0.05,-0.04
14.63651788234711,2,3,3,3,-9.5,-1.14,2.15,-0.08,-0.13,0.06
14.64651787281036,2,3,3,3,-9.539999999999999,-1.12,2.18,-0.05,-0.11,0.1
14.65651786327362,2,3,3,3,-9.550000000000001,-1.1,2.09,-0.06,-0.08,0.13
14.66651809215546,2,3,3,3,-9.52,-1.11,2.09,-0.07000000000000001,-0.1,0.11
14.67651808261871,2,3,3,3,-9.48,-1.09,2.14,-0.07000000000000001,-0.1,0.11
14.68651807308197,2,3,3,3,-9.449999999999999,-1.11,2.1,-0.12,-0.2,-0.03
14.69651806354523,2,3,3,3,-9.460000000000001,-1.14,2.14,-0.11,-0.17,-0.09
14.70651805400848,2,3,3,3,-9.539999999999999,-1.21,2.02,-0.11,-0.25,-0.1
14.71651804447174,2,3,3,3,-9.550000000000001,-1.22,2.11,-0.1,-0.33,-0.09
14.726518034935,2,3,3,3,-9.529999999999999,-1.2,2.11,-0.1,-0.33,-0.09
14.73651802539825,2,3,3,3,-9.539999999999999,-1.18,2.09,-0.12,-0.42,-0.08
14.74651801586151,2,3,3,3,-9.550000000000001,-1.17,2.07,-0.06,-0.4,0.02
14.75651800632477,2,3,3,3,-9.550000000000001,-1.16,2.05,0.06,-0.44,0.05
14.76651799678802,2,3,3,3,-9.550000000000001,-1.19,2.13,0.19,-0.48,0.01
14.77651798725128,2,3,3,3,-9.460000000000001,-1.21,2.17,0.19,-0.48,0.01
14.78651797771454,2,3,3,3,-9.42,-1.2,2.18,0.27,-0.42,-0.02
14.7965179681778,2,3,3,3,-9.44,-1.21,2.17,0.3,-0.22,-0.09
14.80651795864105,2,3,3,3,-9.5,-1.19,2.13,0.27,-0.25,-0.07000000000000001
14.81651794910431,2,3,3,3,-9.52,-1.16,2.14,0.31,-0.19,-0.08
14.82651793956757,2,3,3,3,-9.51,-1.13,2.18,0.31,-0.19,-0.08
14.83651793003082,2,3,3,3,-9.48,-1.1,2.19,0.29,-0.17,-0.09
14.84651792049408,2,3,3,3,-9.48,-1.11,2.21,0.22,-0.13,-0.11
14.85651791095734,2,3,3,3,-9.539999999999999,-1.13,2.14,0.22,-0.19,-0.13
14.86651790142059,2,3,3,3,-9.56,-1.12,2.1,0.28,-0.29,-0.13
14.87651789188385,2,3,3,3,-9.529999999999999,-1.15,2.16,0.28,-0.29,-0.13
14.88651788234711,2,3,3,3,-9.470000000000001,-1.14,2.2,0.35,-0.32,-0.14
14.89651787281036,2,3,3,3,-9.460000000000001,-1.18,2.23,0.33,-0.34,-0.18
14.90651786327362,2,3,3,3,-9.48,-1.16,2.15,0.33,-0.34,-0.18
14.91651809215546,2,3,3,3,-9.56,-1.11,2.18,0.43,-0.43,-0.14
14.92651808261871,2,3,3,3,-9.58,-1.08,2.28,0.43,-0.43,-0.14
14.93651807308197,2,3,3,3,-9.65,-1.07,2.34,0.55,-0.62,-0.13
14.94651806354523,2,3,3,3,-9.630000000000001,-1,2.34,0.64,-0.8100000000000001,-0.19
14.95651805400848,2,3,3,3,-9.57,-0.99,2.3,0.8,-1.14,-0.33
14.96651804447174,2,3,3,3,-9.51,-1.02,2.38,0.68,-1.21,-0.32
14.976518034935,2,3,3,3,-9.33,-1.09,2.45,0.68,-1.21,-0.32
14.98651802539825,2,3,3,3,-9.279999999999999,-1.12,2.49,0.38,-1.15,-0.42
14.99651801586151,2,3,3,3,-9.279999999999999,-1.19,2.51,0.05,-0.6899999999999999,-0.5
15.00651800632477,2,3,3,3,-9.289999999999999,-1.2,2.37,-0.08,-0.48,-0.58
15.01651799678802,2,3,3,3,-9.42,-1.27,2.46,-0.08,-0.31,-0.5600000000000001
15.02651798725128,2,3,3,3,-9.52,-1.25,2.49,-0.08,-0.31,-0.5600000000000001
15.03651797771454,2,3,3,3,-9.550000000000001,-1.24,2.6,-0.05,-0.26,-0.5600000000000001
15.0465179681778,2,3,3,3,-9.56,-1.19,2.63,0.11,-0.13,-0.54
15.05651795864105,2,3,3,3,-9.359999999999999,-1.13,2.71,0.5600000000000001,0.09,-0.74
15.06651794910431,2,3,3,3,-9.220000000000001,-1.09,2.77,0.5600000000000001,0.09,-0.74
15.07651793956757,2,3,3,3,-9.130000000000001,-1.03,2.85,0.61,0.22,-0.88
15.08651793003082,2,3,3,3,-9.08,-0.89,3.08,0.57,0.38,-0.96
15.09651792049408,2,3,3,3,-9.08,-0.79,3.07,0.44,0.37,-0.95
15.10651791095734,2,3,3,3,-9.029999999999999,-0.76,2.96,0.26,0.28,-0.78
15.11651790142059,2,3,3,3,-8.99,-0.76,2.91,0.06,0.24,-0.51
15.12651789188385,2,3,3,3,-9.07,-0.85,3.01,-0.15,0.34,-0.27
15.13651788234711,2,3,3,3,-9.220000000000001,-0.97,3.05,-0.3,0.46,-0.04
15.14651787281036,2,3,3,3,-9.390000000000001,-1.03,3.01,-0.53,0.41,0.15
15.15651786327362,2,3,3,3,-9.56,-1.08,2.93,-0.74,0.17,0.28
15.16651809215546,2,3,3,3,-9.69,-1.09,3.05,-0.62,-0.23,0.43
15.17651808261871,2,3,3,3,-9.56,-1.07,2.85,-0.28,-0.84,0.48
15.18651807308197,2,3,3,3,-9.380000000000001,-1.08,2.7,-0.26,-1.39,0.4
15.19651806354523,2,3,3,3,-9.289999999999999,-1.15,2.69,-0.42,-1.5,0.18
15.20651805400848,2,3,3,3,-9.26,-1.29,2.58,-0.54,-1.32,-0.08
15.21651804447174,2,3,3,3,-9.26,-1.35,2.65,-0.66,-1.18,-0.29
15.226518034935,2,3,3,3,-9.27,-1.4,2.68,-0.57,-0.96,-0.38
15.23651802539825,2,3,3,3,-9.220000000000001,-1.42,2.73,-0.33,-0.88,-0.38
15.24651801586151,2,3,3,3,-9.1,-1.42,2.9,-0.05,-0.9,-0.29
15.25651800632477,2,3,3,3,-9.119999999999999,-1.4,2.99,0.41,-0.97,-0.17
15.26651799678802,2,3,3,3,-9.130000000000001,-1.35,3.14,0.92,-1.23,-0.07000000000000001
15.27651798725128,2,3,3,3,-9.23,-1.23,3.05,1.16,-1.67,0.03
15.28651797771454,2,3,3,3,-9.199999999999999,-1.17,2.9,0.85,-2.06,0.14
15.2965179681778,2,3,3,3,-9.17,-1.14,2.94,0.53,-2.22,0.22
15.30651795864105,2,3,3,3,-9.17,-1.11,2.81,0.36,-1.96,0.31
15.31651794910431,2,3,3,3,-9.18,-1.11,3.1,0.27,-1.7,0.3
15.32651793956757,2,3,3,3,-9.380000000000001,-1.09,3.52,0.41,-1.33,0.23
15.33651793003082,2,3,3,3,-9.550000000000001,-1.01,3.71,1.19,-1.25,0.18
15.34651792049408,2,3,3,3,-9.380000000000001,-0.99,3.07,1.32,-2,0.23
15.35651791095734,2,3,3,3,-8.98,-1.13,2.47,0.04,-2.58,0.21
15.36651790142059,2,3,3,3,-9.09,-1.15,2.83,-0.68,-1.86,0.23
15.37651789188385,2,3,3,3,-9.17,-1.2,2.98,-0.39,-1.26,0.37
15.38651788234711,2,3,3,3,-9.23,-1.3,2.72,-0.31,-1.19,0.55
15.39651787281036,2,3,3,3,-9.48,-1.34,2.79,-0.29,-0.98,0.73
15.40651786327362,2,3,3,3,-9.369999999999999,-1.23,2.17,0.66,-0.95,0.97
15.41651809215546,2,3,3,3,-9.210000000000001,-0.97,2.27,0.72,-1.32,1.04
15.42651808261871,2,3,3,3,-9.1,-0.88,2.43,1.07,-1.15,0.8
15.43651807308197,2,3,3,3,-8.84,-0.72,2.48,1.27,-0.91,0.53
15.44651806354523,2,3,3,3,-8.83,-0.79,2.58,1.06,-0.63,0.35
15.45651805400848,2,3,3,3,-8.970000000000001,-0.88,2.45,0.68,-0.25,0.26
15.46651804447174,2,3,3,3,-9.34,-0.79,1.98,0.63,0.19,0.3
15.476518034935,2,3,3,3,-9.49,-0.66,2.01,0.24,0.64,0.45
15.48651802539825,2,3,3,3,-9.619999999999999,-0.61,2.05,-0.34,0.95,0.59
15.49651801586151,2,3,3,3,-9.65,-0.68,1.98,-0.83,1.01,0.62
15.50651800632477,2,3,3,3,-9.779999999999999,-0.62,1.79,-1.34,0.95,0.53
15.51651799678802,2,3,3,3,-9.859999999999999,-0.82,1.75,-1.53,1.01,0.39
15.52751791477203,2,3,3,3,-9.890000000000001,-0.97,1.76,-1.79,1.09,0.18
15.53751790523529,2,3,3,3,-9.779999999999999,-0.98,1.7,-1.64,0.8,0.09
15.54751789569855,2,3,3,3,-9.630000000000001,-0.67,1.72,-1.22,0.36,0.08
15.5575178861618,2,3,3,3,-9.51,-0.5,1.88,-0.72,0.43,0.1
15.56751787662506,2,3,3,3,-9.359999999999999,-0.39,1.98,-0.17,0.74,-0.05
15.57751786708832,2,3,3,3,-9.279999999999999,-0.27,2.14,0.17,1.21,-0.18
15.58751785755157,2,3,3,3,-9.470000000000001,0.07000000000000001,2.23,0.21,1.9,-0.28
15.59751808643341,2,3,3,3,-9.640000000000001,0.11,2.12,0.03,2.64,-0.32
15.60751807689667,2,3,3,3,-9.68,0.11,2.03,-0.08,3.21,-0.42
15.61751806735992,2,3,3,3,-9.699999999999999,0.06,1.99,-0.14,3.46,-0.53
15.62751805782318,2,3,3,3,-9.720000000000001,-0.02,2.04,0.02,3.41,-0.55
15.63751804828644,2,3,3,3,-9.699999999999999,0.01,2.07,0.43,3.17,-0.5600000000000001
15.64751803874969,2,3,3,3,-9.640000000000001,-0.03,2.1,0.6,2.89,-0.53
15.65751802921295,2,3,3,3,-9.460000000000001,0,1.94,0.44,2.77,-0.53
15.66751801967621,2,3,3,3,-9.41,0.02,1.89,0.12,2.96,-0.53
15.67751801013947,2,3,3,3,-9.41,0.05,1.85,-0.37,3.3,-0.41
15.68751800060272,2,3,3,3,-9.52,0,1.77,-0.87,3.67,-0.36
15.69751799106598,2,3,3,3,-9.640000000000001,-0.12,1.66,-1.01,3.96,-0.3
15.70751798152924,2,3,3,3,-9.699999999999999,-0.28,1.6,-0.92,3.94,-0.31
15.71751797199249,2,3,3,3,-9.710000000000001,-0.44,1.62,-0.74,3.64,-0.44
15.72751796245575,2,3,3,3,-9.699999999999999,-0.46,1.57,-0.64,3.33,-0.5600000000000001
15.73751795291901,2,3,3,3,-9.56,-0.57,1.5,-0.59,3.24,-0.62
15.74751794338226,2,3,3,3,-9.44,-0.54,1.52,-0.52,3.02,-0.75
15.75751793384552,2,3,3,3,-9.380000000000001,-0.5600000000000001,1.5,-0.44,2.61,-0.97
15.76751792430878,2,3,3,3,-9.4,-0.63,1.66,-0.38,2.2,-1.13
15.77751791477203,2,3,3,3,-9.460000000000001,-0.8100000000000001,1.62,-0.29,1.95,-1.19
15.78751790523529,2,3,3,3,-9.43,-0.88,1.57,-0.35,1.8,-1.22
15.79751789569855,2,3,3,3,-9.390000000000001,-0.91,1.55,-0.19,1.92,-1.24
15.8075178861618,2,3,3,3,-9.43,-0.9,1.45,0.18,2.06,-1.36
15.81751787662506,2,3,3,3,-9.5,-0.8100000000000001,1.58,0.62,2.14,-1.48
15.82751786708832,2,3,3,3,-9.56,-0.71,1.52,1.07,2.11,-1.57
15.83751785755157,2,3,3,3,-9.57,-0.62,1.51,1.47,2,-1.62
15.84751808643341,2,3,3,3,-9.57,-0.46,1.54,1.78,2.01,-1.56
15.85751807689667,2,3,3,3,-9.529999999999999,-0.42,1.47,2.07,2.03,-1.56
15.86751806735992,2,3,3,3,-9.550000000000001,-0.41,1.52,2.31,1.96,-1.58
15.87751805782318,2,3,3,3,-9.6,-0.33,1.64,2.56,1.84,-1.6
15.88751804828644,2,3,3,3,-9.57,0,1.67,2.99,1.33,-1.73
15.89751803874969,2,3,3,3,-9.539999999999999,0.12,1.75,2.99,1.33,-1.73
15.90751802921295,2,3,3,3,-9.470000000000001,0.25,1.7,2.98,1.19,-1.73
15.91751801967621,2,3,3,3,-9.44,0.32,1.8,2.77,1.17,-1.72
15.92751801013947,2,3,3,3,-9.470000000000001,0.38,1.79,2.49,1.23,-1.74
15.93751800060272,2,3,3,3,-9.449999999999999,0.31,1.67,2.37,1.13,-1.8
15.94751799106598,2,3,3,3,-9.43,0.21,1.55,2.12,1.03,-1.89
15.95751798152924,2,3,3,3,-9.4,0.08,1.39,2,1.01,-2.08
15.96751797199249,2,3,3,3,-9.369999999999999,-0.05,1.26,2.08,1.06,-2.28
15.97751796245575,2,3,3,3,-9.34,-0.04,1.19,2.37,1,-2.39
15.98751795291901,2,3,3,3,-9.32,-0.08,1.21,2.99,0.7,-2.49
15.99751794338226,2,3,3,3,-9.4,-0.08,1.15,2.99,0.7,-2.49
16.00751793384552,2,3,3,3,-9.539999999999999,-0.02,0.93,3.26,0.43,-2.39
16.01751792430878,2,3,3,3,-9.699999999999999,-0.04,1.06,3.24,0.27,-2.32
16.02751791477203,2,3,3,3,-9.82,-0.06,1.2,3.42,0.32,-2.21
16.03751790523529,2,3,3,3,-10.03,-0.11,1.32,4.39,-0.01,-2.31
16.04751789569855,2,3,3,3,-10.09,-0.18,1.28,4.39,-0.01,-2.31
16.0575178861618,2,3,3,3,-10.18,-0.19,1.11,5.08,-0.38,-2.43
16.06751787662506,2,3,3,3,-10.19,-0.02,1.26,5.68,-0.5600000000000001,-2.37
16.07751786708832,2,3,3,3,-10.14,0.13,1.73,6.35,-0.63,-2.17
16.08751785755157,2,3,3,3,-10.27,0.11,1.99,6.64,-0.58,-1.78
16.09751808643341,2,3,3,3,-10.52,0.03,2.15,6.64,-0.58,-1.78
16.10751807689667,2,3,3,3,-10.88,-0.04,2.21,6.34,-0.01,-1.33
16.11751806735992,2,3,3,3,-11.79,-0.01,2.18,5.59,0.64,-0.67
16.12751805782318,2,3,3,3,-12.14,0.06,2.11,4.33,1.21,0.12
16.13751804828644,2,3,3,3,-12.44,0.24,1.98,1.1,2.76,1.37
16.14751803874969,2,3,3,3,-12.7,0.4,1.67,1.1,2.76,1.37
16.15751802921295,2,3,3,3,-13.17,0.39,0.51,-0.7,3.61,1.74
16.16751801967621,2,3,3,3,-13.61,-0.13,0.71,-2.45,4.15,1.62
16.17751801013947,2,3,3,3,-13.81,-0.71,1.21,-3.36,1.12,0.58
16.18751800060272,2,3,3,3,-13.99,-1.41,1.44,-3.34,-0.88,-0.35
16.19751799106598,2,3,3,3,-13.49,-3.29,1.68,-3.34,-0.88,-0.35
16.20751798152924,2,3,3,3,-12.95,-3.96,1.57,-2.71,-1.87,-1.08
16.21751797199249,2,3,3,3,-12.21,-4.22,1.45,-0.09,-1.97,-0.82
16.22751796245575,2,3,3,3,-10.49,-4.12,1.36,-0.09,-1.97,-0.82
16.23751795291901,2,3,3,3,-9.69,-3.86,1.22,0.9399999999999999,-0.93,0.54
16.24751794338226,2,3,3,3,-9.25,-3.77,1.09,0.9399999999999999,-0.93,0.54
16.25751793384552,2,3,3,3,-9.19,-3.7,1.13,1.52,0.84,1.4
16.26751792430878,2,3,3,3,-9.09,-3.28,1.89,2.93,2.46,1.85
16.27751791477203,2,3,3,3,-8.869999999999999,-3.04,1.86,4.37,2.83,1.95
16.28751790523529,2,3,3,3,-8.56,-2.84,1.56,3.25,1.49,1.79
16.29751789569855,2,3,3,3,-8.210000000000001,-2.68,1.31,3.25,1.49,1.79
16.3075178861618,2,3,3,3,-7.87,-2.18,1.37,2.07,1.26,1.78
16.31751787662506,2,3,3,3,-7.75,-2.06,1.73,1.67,1.4,1.76
16.32751786708832,2,3,3,3,-7.77,-1.99,2.1,1.7,1.2,1.7
16.33751785755157,2,3,3,3,-7.75,-1.95,2.18,1.7,-0.15,1.67
16.34751808643341,2,3,3,3,-7.78,-1.7,2.18,1.7,-0.15,1.67
16.35751807689667,2,3,3,3,-7.96,-1.46,2.22,1.69,-0.4,1.87
16.36751806735992,2,3,3,3,-8.220000000000001,-1.04,2.42,2.71,-1.62,2.78
16.37751805782318,2,3,3,3,-8.48,-0.54,2.78,2.71,-1.62,2.78
16.38751804828644,2,3,3,3,-8.539999999999999,-0.26,2.9,2.94,-4.44,3.71
16.39751803874969,2,3,3,3,-8.630000000000001,-0.04,2.94,2.94,-4.44,3.71
16.40751802921295,2,3,3,3,-8.73,0.1,2.77,2.18,-5.93,3.95
16.41751801967621,2,3,3,3,-9,0.24,2.46,-1.45,-7.43,4.01
16.42751801013947,2,3,3,3,-9.220000000000001,0.18,2.43,-1.45,-7.43,4.01
16.43751800060272,2,3,3,2,-9.24,0.04,2.45,-4.58,-7.79,3.76
16.44751799106598,2,3,3,2,-9.06,-0.22,2.29,-4.58,-7.79,3.76
16.45751798152924,2,3,3,2,-8.34,-1.25,1.96,-6.13,-7.89,3.19
16.46751797199249,2,3,3,2,-8.15,-1.55,2.04,-6.89,-6.29,2.21
16.47751796245575,2,3,3,2,-8.32,-1.62,2.2,-6.25,-5.37,2.04
16.48751795291901,2,3,3,2,-8.52,-2.03,2.31,-5.75,-5.51,1.98
16.49751794338226,2,3,3,2,-8.52,-2.36,2.29,-5.75,-5.51,1.98
16.50751793384552,2,3,3,2,-8.48,-2.36,2.17,-4.74,-5.46,2.11
16.51751792430878,2,3,3,2,-8.4,-2.32,2.24,-3.17,-4.91,2.05
16.52751791477203,2,3,3,2,-8.31,-2.3,2.27,-2.28,-4.77,2.06
16.53751790523529,2,3,3,2,-8.43,-1.95,2.55,-1.04,-4.42,2.24
16.54751789569855,2,3,3,2,-8.699999999999999,-1.74,2.61,0.22,-4.61,2.7
16.55851805210114,2,3,3,2,-8.92,-1.57,2.38,0.8,-5.41,3.15
16.56851804256439,2,3,3,2,-8.91,-1.27,2.66,1,-5.99,3.22
16.57851803302765,2,3,3,2,-8.77,-1.11,3.21,1.42,-5.68,2.96
16.58851802349091,2,3,3,1,-8.65,-0.99,3.7,2.08,-4.97,2.9
16.59851801395416,2,3,3,1,-8.529999999999999,-0.74,3.78,2.28,-4.99,2.74
16.60851800441742,2,3,3,1,-8.17,-0.66,3.39,2.07,-4.77,2.53
16.61851799488068,2,3,3,1,-8.289999999999999,-0.53,3.54,2.45,-3.63,2.27
16.62851798534393,2,3,3,1,-8.49,-0.09,3.56,2.38,-3.02,2.29
16.63851797580719,2,3,3,1,-8.73,0.6,3.61,1.7,-2.99,2.62
16.64851796627045,2,3,3,1,-8.869999999999999,1.77,3.38,0.41,-2.9,2.84
16.6585179567337,2,3,3,1,-8.779999999999999,2.02,3.16,-0.88,-2.26,2.58
16.66851794719696,2,3,3,1,-8.859999999999999,1.88,3.2,-1.43,-1.2,1.98
16.67851793766022,2,3,3,1,-9.15,1.6,3.34,-1.19,-0.47,1.26
16.68851792812347,2,3,3,0,-9.550000000000001,1.03,3.35,-1.15,-0.45,0.63
16.69851791858673,2,3,3,0,-9.44,0.93,3.33,-1.78,-0.97,0.2
16.70851790904999,2,3,3,0,-9.24,0.87,3.37,-2.4,-1.3,0.03
16.71851789951324,2,3,3,0,-9.06,0.93,3.59,-2.98,-1.37,-0.02
16.7285178899765,2,3,3,0,-8.49,1,3.72,-3.76,-1.15,-0.02
16.73851788043976,2,3,3,0,-8.26,1.14,3.66,-4.51,-0.5600000000000001,0.12
16.74851787090302,2,3,3,0,-8.210000000000001,1.31,3.68,-5.22,0.07000000000000001,0.4
16.75851786136627,2,3,3,0,-8.210000000000001,1.26,3.62,-6.11,0.32,0.78
16.76851809024811,2,3,3,0,-8.109999999999999,1.1,3.61,-7.17,0.4,1.13
16.77851808071136,2,3,3,0,-7.99,0.87,3.63,-8.119999999999999,0.55,1.38
16.78851807117462,2,3,3,0,-8.029999999999999,0.62,3.67,-8.69,0.61,1.46
16.79851806163788,2,3,3,0,-8.289999999999999,-0.01,3.7,-8.949999999999999,0.38,1.57
16.80851805210114,2,3,3,0,-8.49,-0.36,3.56,-9.42,-0.07000000000000001,1.68
16.81851804256439,2,3,3,0,-8.65,-0.78,3.4,-9.970000000000001,-0.41,1.8
16.82851803302765,2,3,3,0,-8.710000000000001,-1.26,3.19,-10.26,-0.25,1.93
16.83851802349091,2,3,3,0,-9.369999999999999,-1.31,2.78,-9.800000000000001,0.42,2.1
16.84851801395416,2,3,3,0,-9.84,-1.46,2.72,-8.800000000000001,0.49,2.07
16.85851800441742,2,3,3,0,-10.26,-0.95,2.68,-6.57,-0.01,1.98
16.86851799488068,2,3,3,0,-10.34,-0.36,2.81,-4.32,-0.97,1.93
16.87851798534393,2,3,3,0,-9.699999999999999,1.08,3.92,-2.18,-1.55,2
16.88851797580719,2,3,3,0,-9.44,1.62,4.95,-0.95,-1.91,2.5
16.89851796627045,2,3,3,0,-9.449999999999999,1.86,5.76,-1.39,-2.82,3.45
16.9085179567337,2,3,3,0,-9.49,1.91,6.23,-3.5,-3.95,4.7
16.91851794719696,2,3,3,0,-10.46,0.79,5.77,-6.81,-4.23,6.03
16.92851793766022,2,3,3,0,-11.03,0.09,4.97,-9.01,-2.79,6.75
16.93851792812347,2,3,3,0,-11.92,-0.21,4.84,-8.609999999999999,0.25,6.33
16.94851791858673,2,3,3,0,-14.49,-0.8100000000000001,5.52,-6.66,1.9,4.9
16.95851790904999,2,3,3,0,-14.75,-1.18,4.72,-6,0.83,2.27
16.96851789951324,2,3,3,0,-14.12,-1.94,2.73,-6.12,0.09,-0.47
16.9785178899765,2,3,3,0,-13.56,-2.23,2.02,-2.89,0.07000000000000001,-2.5
16.98851788043976,2,3,3,0,-11.68,-1.8,4.33,1.58,-2.31,-3.36
16.99851787090302,2,3,3,0,-9.84,-2.14,4.49,3.37,-5.78,-3.05
17.00851786136627,2,3,3,0,-8.369999999999999,-2.38,4.2,4.11,-6.22,-1.99
17.01851809024811,2,3,3,0,-7.53,-2.42,4.36,5.29,-3.27,-0.8
17.02851808071136,2,3,3,0,-7.51,-1.84,4.39,4.82,0.05,0.42
17.03851807117462,2,3,3,0,-8.050000000000001,-1.28,4.03,3.55,2.3,1.23
17.04851806163788,2,3,3,0,-8.609999999999999,-0.52,3.39,2.2,4.01,1.2
17.05851805210114,2,3,3,0,-9.19,-0.03,2.56,0.74,5.38,0.35
17.06851804256439,2,3,3,0,-9.77,0.3,1.32,-0.97,6.01,-1.04
17.07851803302765,2,3,3,0,-9.67,0.03,1.17,-2.8,5.85,-2.4
17.08851802349091,2,3,3,0,-9.52,-0.45,1.07,-4.18,4.81,-3.25
17.09851801395416,2,3,3,0,-9.4,-1.07,1.1,-5.27,2.78,-3.49
17.10851800441742,2,3,3,0,-8.460000000000001,-2.23,1.04,-6.52,0.55,-3.42
17.11851799488068,2,3,3,0,-8.140000000000001,-2.78,1.24,-7.06,-0.89,-2.93
17.12851798534393,2,3,3,0,-8.029999999999999,-3.24,1.31,-6.45,-1.64,-2.17
17.13851797580719,2,3,3,0,-7.82,-3.65,1.6,-5.24,-1.79,-1.38
17.14851796627045,2,3,3,0,-7.68,-3.56,1.73,-3.71,-1.69,-0.53
17.1585179567337,2,3,3,0,-7.57,-3.34,1.82,-2.4,-1.21,0.36
17.16851794719696,2,3,3,0,-7.53,-3.09,1.93,-1.23,-0.17,1.19
17.17851793766022,2,3,3,0,-7.61,-2.35,2.06,0.04,1.09,1.78
17.18851792812347,2,3,3,0,-7.83,-2,1.94,1.18,2.15,2.02
17.19851791858673,2,3,3,0,-8.06,-1.77,1.88,1.97,2.75,2
17.20851790904999,2,3,3,0,-8.23,-1.8,1.65,2.86,3.05,1.69
17.21851789951324,2,3,3,0,-8.859999999999999,-1.78,1.5,3.77,3.17,1.16
17.24851787090302,2,3,3,0,-9.449999999999999,-1.35,1.4,5.23,4.53,-1.37
17.25851786136627,2,3,3,0,-9.31,-1.12,1.6,5.3,4.59,-2.09
17.26851809024811,2,3,3,0,-9.19,-0.91,1.7,4.93,4.42,-2.58
17.27851808071136,2,3,3,0,-9.039999999999999,-0.85,1.82,4.27,4.1,-2.9
17.28851807117462,2,3,3,0,-8.93,-0.88,1.69,3.58,4.13,-3.04
17.29851806163788,2,3,3,0,-8.98,-1.02,1.65,3.05,4.11,-3.23
17.30851805210114,2,3,3,0,-9.130000000000001,-1.12,1.5,2.47,3.84,-3.58
17.31851804256439,2,3,3,0,-9.449999999999999,-1.19,1.55,2.43,3.65,-3.73
17.32851803302765,2,3,3,0,-9.779999999999999,-1.11,1.36,2.75,3.4,-3.68
17.33851802349091,2,3,3,0,-9.83,-1.1,1.4,3.17,3.14,-3.58
17.34851801395416,2,3,3,0,-9.710000000000001,-0.9399999999999999,1.45,3.88,2.76,-3.42
17.35851800441742,2,3,3,0,-9.550000000000001,-0.59,1.42,4.47,2.11,-3.19
17.36851799488068,2,3,3,0,-9.25,0.02,2,4.52,1.53,-2.76
17.37851798534393,2,3,3,0,-9.140000000000001,0.07000000000000001,2.21,4.12,1.03,-2.43
17.38851797580719,2,3,3,0,-9.050000000000001,-0.01,2.41,3.2,0.89,-2.12
17.39851796627045,2,3,3,0,-9.02,-0.12,2.59,2.08,0.97,-1.83
17.4085179567337,2,3,3,0,-9.220000000000001,-0.68,2.33,0.88,1.17,-1.71
17.41851794719696,2,3,3,0,-9.33,-0.93,2.18,-0.11,1.36,-1.66
17.42851793766022,2,3,3,0,-9.44,-1.1,1.98,-0.63,1.43,-1.75
17.43851792812347,2,3,3,0,-9.539999999999999,-1.22,1.93,-0.6899999999999999,1.38,-1.98
17.44851791858673,2,3,3,0,-9.539999999999999,-1.27,1.71,-0.38,1.31,-2.42
17.45851790904999,2,3,3,0,-9.48,-1.19,1.7,0.34,1.24,-3.02
17.46851789951324,2,3,3,0,-9.51,-1.01,1.88,1.21,1.04,-3.7
17.4785178899765,2,3,3,0,-9.6,-0.67,2.25,2.06,0.65,-4.3
17.48851788043976,2,3,3,0,-9.67,-0.57,2.31,2.71,0.13,-4.7
17.49851787090302,2,3,3,0,-9.609999999999999,-0.53,2.3,3.22,-0.41,-4.88
17.50851786136627,2,3,3,0,-9.59,-0.51,2.24,3.78,-0.88,-4.94
17.51851809024811,2,3,3,0,-9.44,-0.61,2.16,4.38,-1.37,-4.85
17.52851808071136,2,3,3,0,-9.279999999999999,-0.6899999999999999,2.22,4.85,-1.73,-4.78
17.53851807117462,2,3,3,0,-9.15,-0.77,2.27,5.49,-1.76,-4.67
17.54851806163788,2,3,3,0,-9.109999999999999,-0.82,2.31,6.17,-1.4,-4.44
17.55851805210114,2,3,3,0,-9.34,-0.59,1.93,6.85,-0.85,-4.09
17.56851804256439,2,3,3,0,-9.539999999999999,-0.36,1.93,7.52,-0.52,-3.69
17.5795179605484,2,3,3,0,-9.67,-0.08,1.89,7.9,-0.44,-3.33
17.58951795101166,2,3,3,0,-9.75,0.2,1.92,8.01,-0.36,-3.08
17.59951794147491,2,3,3,0,-9.82,0.9,2.02,7.74,-0.01,-2.84
17.60951793193817,2,3,3,0,-9.9,1.26,2.05,7.36,0.43,-2.63
17.61951792240143,2,3,3,0,-10.02,1.57,2.23,6.9,0.51,-2.41
17.62951791286469,2,3,3,0,-10.12,1.79,2.48,6.51,0.15,-2.31
17.63951790332794,2,3,3,0,-10.15,1.62,3.26,6.29,-0.4,-2.35
17.6495178937912,2,3,3,0,-10.03,1.3,3.63,6.15,-0.52,-2.42
17.65951788425446,2,3,3,0,-10.01,0.92,3.91,6.06,-0.23,-2.4
17.66951787471771,2,3,3,0,-10.46,0.48,4.3,5.52,0.33,-1.91
17.67951786518097,2,3,3,0,-10.68,0.39,3.91,4.18,1.31,-1.09
17.68951809406281,2,3,3,0,-10.81,0.34,3.5,2.51,3.07,-0.15
17.69951808452606,2,3,3,0,-10.97,0.23,3.39,1.59,4.76,0.51
17.70951807498932,2,3,3,0,-11.73,-0.52,3.17,1.26,6.08,0.78
17.71951806545258,2,3,3,0,-12.38,-0.87,2.82,0.93,7.16,0.92
17.72951805591583,2,3,3,0,-12.95,-0.97,2.04,-0.25,7.97,1.17
17.73951804637909,2,3,3,0,-13.26,-1.11,1.08,-2.22,8.26,1.61
17.74951803684235,2,3,3,0,-13.09,-1.59,0.38,-3.77,7.93,1.81
17.7595180273056,2,3,3,0,-12.76,-2.21,0.92,-4.45,6.66,1.71
17.76951801776886,2,3,3,0,-12.24,-3.12,1.31,-5.51,5.43,1.6
17.77951800823212,2,3,3,0,-11.53,-4.1,1.17,-6.6,5.19,1.57
17.78951799869537,2,3,3,0,-10.35,-5.8,0.62,-6.28,5.41,1.79
17.79951798915863,2,3,3,0,-9.81,-6.25,0.6899999999999999,-4.56,5.17,2.34
17.80951797962189,2,3,3,0,-9.24,-6.54,0.78,-1.68,4.28,3.3
17.81951797008514,2,3,3,0,-8.06,-6.01,0.9399999999999999,1.49,3.61,4.05
17.8295179605484,2,3,3,0,-7.66,-5.49,1.17,4.29,3.03,4.87
17.83951795101166,2,3,3,0,-7.4,-4.62,1.49,7.03,2.79,5.5
17.84951794147491,2,3,3,0,-7.31,-3.73,1.74,8.67,2.31,6.09
17.85951793193817,2,3,3,0,-7.53,-2.07,2.36,9.93,1.6,6.34
17.86951792240143,2,3,3,0,-7.74,-1.21,2.61,10.3,0.44,6.19
17.87951791286469,2,3,3,0,-8.08,-0.47,2.72,9.279999999999999,-0.9,5.8
17.88951790332794,2,3,3,0,-8.460000000000001,0.02,2.73,7.24,-2.3,5.35
17.8995178937912,2,3,3,0,-9.31,0.57,2.58,4.84,-3.65,4.83
17.90951788425446,2,3,3,0,-9.619999999999999,0.63,2.41,2.47,-4.75,4.12
17.91951787471771,2,3,3,0,-9.82,0.5600000000000001,2.49,0.49,-5.17,3.54
17.92951786518097,2,3,3,0,-10.19,0.49,2.57,-1.08,-5.11,3.12
17.93951809406281,2,3,3,0,-10.58,0.18,2.61,-2.48,-5.77,3.06
17.94951808452606,2,3,3,0,-10.48,0.02,2.62,-3.95,-6.9,3.25
17.95951807498932,2,3,3,0,-10.33,-0.17,2.66,-5.27,-8.16,3.58
17.96951806545258,2,3,3,0,-10.14,-0.2,2.8,-6.46,-9.09,4.01
17.97951805591583,2,3,3,0,-9.43,-0.47,2.71,-8.09,-9.869999999999999,4.22
17.98951804637909,2,3,3,0,-8.82,-0.58,2.28,-10.35,-9.949999999999999,4.16
17.99951803684235,2,3,3,0,-8.390000000000001,-0.61,1.93,-12.14,-8.5,3.98
18.0095180273056,2,3,3,0,-8.5,-0.77,1.9,-12.48,-6.42,4.02
18.01951801776886,2,3,3,0,-9.27,-1.33,2.62,-11.81,-5.87,4.1
18.02951800823212,2,3,3,0,-9.27,-1.64,2.56,-11.21,-6.53,3.99
18.03951799869537,2,3,3,0,-9.06,-1.99,2.45,-10.33,-6.81,3.85
18.04951798915863,2,3,3,0,-8.48,-2.39,2.59,-8.67,-6.57,3.63
18.05951797962189,2,3,3,0,-8.210000000000001,-2.41,2.68,-6.82,-6.45,3.31
18.06951797008514,2,3,3,0,-7.98,-2.26,2.75,-5.16,-6.45,2.95
18.0795179605484,2,3,3,0,-7.77,-2.07,2.79,-3.91,-6.09,2.57
18.08951795101166,2,3,3,0,-7.72,-1.21,2.97,-2.81,-5.47,2.25
18.09951794147491,2,3,3,0,-7.63,-0.7,3.11,-2.04,-5.13,1.96
18.10951793193817,2,3,3,0,-7.76,-0.21,3.16,-1.81,-4.8,1.89
18.11951792240143,2,3,3,0,-7.92,0.08,3.28,-2.11,-4.08,1.89
18.12951791286469,2,3,3,0,-8.140000000000001,0.44,3.35,-2.78,-3.66,1.84
18.13951790332794,2,3,3,0,-8.119999999999999,0.51,3.19,-3.53,-3.4,1.76
18.1495178937912,2,3,3,0,-8.029999999999999,0.58,3.09,-4.18,-2.88,1.6
18.15951788425446,2,3,3,0,-8,0.54,2.9,-4.79,-2.17,1.34
18.16951787471771,2,3,3,0,-8.08,0.42,3.06,-5.08,-1.63,0.93
18.17951786518097,2,3,3,0,-7.97,0.41,3.09,-5.25,-1.35,0.48
18.18951809406281,2,3,3,0,-7.81,0.4,3.07,-5.4,-0.73,-0.02
18.19951808452606,2,3,3,0,-7.65,0.41,3.01,-5.33,0.09,-0.44
18.20951807498932,2,3,3,0,-7.61,0.45,2.96,-5.1,0.92,-0.75
18.21951806545258,2,3,3,0,-7.59,0.52,3.14,-4.65,1.68,-0.91
18.22951805591583,2,3,3,0,-7.63,0.51,3.34,-4.07,2.19,-0.88
18.23951804637909,2,3,3,0,-7.58,0.62,3.56,-3.62,2.44,-0.7
18.24951803684235,2,3,3,0,-7.53,0.68,3.56,-3.42,2.75,-0.39
18.2595180273056,2,3,3,0,-7.6,0.76,3.6,-3.11,3.33,-0.05
18.26951801776886,2,3,3,0,-7.72,0.86,3.6,-2.83,3.87,0.36
18.27951800823212,2,3,3,0,-8.25,0.96,4.16,-2.51,4.27,0.77
18.28951799869537,2,3,3,0,-8.529999999999999,0.95,4.37,-2.14,4.11,1.25
18.29951798915863,2,3,3,0,-8.69,0.86,4.31,-2.52,3.36,1.7
18.30951797962189,2,3,3,0,-8.710000000000001,0.64,4.02,-3.86,2.89,1.99
18.31951797008514,2,3,3,0,-9,-0.23,3.78,-5.68,2.62,1.99
18.3295179605484,2,3,3,0,-9.17,-0.84,3.8,-7.47,2.01,1.58
18.33951795101166,2,3,3,0,-9.390000000000001,-1.56,3.48,-9.279999999999999,1.12,0.8100000000000001
18.34951794147491,2,3,3,0,-9.48,-2.03,2.51,-10.46,0.9,-0.36
18.35951793193817,2,3,3,0,-10.57,-1.72,1.1,-9.050000000000001,2.19,-1.35
18.36951792240143,2,3,3,0,-11.62,-1.1,2.23,-4.22,2.85,-1.71
18.37951791286469,2,3,3,0,-12.46,-0.35,4.23,2.54,0.68,-1.31
18.38951790332794,2,3,3,0,-12.46,-0.35,4.23,7.33,-3.23,-0.13
18.3995178937912,2,3,3,0,-11.32,1.79,6.41,6.97,-6.59,1.97
18.40951788425446,2,3,3,0,-11.3,1.71,6.51,3.71,-7.9,5.13
18.41951787471771,2,3,3,0,-11.36,1.83,6.43,0.1,-7.47,7.57
18.42951786518097,2,3,3,0,-12.81,2.17,6.66,-2.83,-5.01,8.77
18.43951809406281,2,3,3,0,-12.81,2.17,6.66,-5.14,-2.95,8.91
18.44951808452606,2,3,3,0,-16.18,0.96,6.14,-7.68,-2.61,6.65
18.45951807498932,2,3,3,0,-17.27,-0.16,4.36,-8.970000000000001,-2.32,2.11
18.46951806545258,2,3,3,0,-16.51,-0.57,1.71,-6.93,-1.18,-2.79
18.49951803684235,2,3,3,0,-7.16,-2.28,5.44,4.82,-10.38,-4.29
18.53951799869537,2,3,3,0,-4.5,-1.96,3.98,0.12,3.95,2.62
18.54951798915863,2,3,3,0,-6.53,-1.2,3.62,-0.9399999999999999,4.91,2.34
18.55951797962189,2,3,3,0,-10.74,-0.11,1.14,-1.68,5.51,1.13
18.56951797008514,2,3,3,0,-11,-0.3,0.26,-2.9,5.86,-0.71
18.5795179605484,2,3,3,0,-10.72,-1.62,-0.1,-4.04,5.02,-2.64
18.58951795101166,2,3,3,0,-10.72,-1.62,-0.1,-5.03,2.67,-4.08
18.60051786899567,2,3,3,0,-9.390000000000001,-3.07,0.57,-5.92,-0.54,-4.31
18.61051785945892,2,3,3,0,-8.699999999999999,-3.55,0.91,-5.86,-3.09,-3.51
18.62051808834076,2,3,3,0,-7.78,-4.02,1.44,-5.03,-3.91,-2.36
18.63051807880402,2,3,3,0,-7.44,-4.09,1.58,-4.01,-3.34,-1.23
18.64051806926727,2,3,3,0,-7.44,-4.09,1.58,-4.01,-3.34,-1.23
18.65051805973053,2,3,3,0,-7.21,-3.89,1.81,-2.08,-1.33,1.19
18.66051805019379,2,3,3,0,-7.21,-2.86,1.97,-1.21,-0.16,1.9
18.67051804065704,2,3,3,0,-7.41,-2.51,1.9,-0.31,1.42,2.26
18.6805180311203,2,3,3,0,-7.72,-2.34,1.86,0.85,2.92,2.14
18.69051802158356,2,3,3,0,-7.72,-2.34,1.86,0.85,2.92,2.14
18.70051801204681,2,3,3,0,-7.94,-2.39,1.71,3.77,4.53,0.9
18.71051800251007,2,3,3,0,-8.359999999999999,-2.39,1.33,5.37,5,0.01
18.72051799297333,2,3,3,0,-8.619999999999999,-2.22,1.32,7.02,5.11,-0.91
18.73051798343658,2,3,3,0,-9.06,-1.62,1.55,8.51,5.28,-1.79
18.74051797389984,2,3,3,0,-9.06,-1.62,1.55,8.51,5.28,-1.79
18.7505179643631,2,3,3,0,-9.17,-1.26,1.68,9.56,5.49,-2.56
18.76051795482635,2,3,3,0,-8.960000000000001,-0.35,1.91,9.76,5.09,-3.6
