timestamp,magCalib,accCalib,gyrCalib,sysCalib,accX,accY,accZ,gyrX,gyrY,gyrZ
0.03151786327362061,2,3,3,3,-9.67,0.85,1.72,0.04,0.04,-0.01
0.04151809215545654,2,3,3,3,-9.66,0.85,1.76,0.03,0.05,-0.01
0.05151808261871338,2,3,3,3,-9.65,0.84,1.76,0.03,0.02,-0.02
0.06151807308197021,2,3,3,3,-9.65,0.82,1.68,-0.04,0.02,-0.04
0.07151806354522705,2,3,3,3,-9.640000000000001,0.83,1.71,-0.1,0,-0.07000000000000001
0.08151805400848389,2,3,3,3,-9.699999999999999,0.82,1.78,-0.11,0.01,-0.06
0.09151804447174072,2,3,3,3,-9.720000000000001,0.8,1.8,-0.14,0.02,-0.09
0.1015180349349976,2,3,3,3,-9.699999999999999,0.79,1.81,-0.17,-0.03,-0.1
0.1115180253982544,2,3,3,3,-9.67,0.78,1.69,-0.15,-0.03,-0.07000000000000001
0.1215180158615112,2,3,3,3,-9.68,0.79,1.78,-0.1,-0.03,-0.08
0.1315180063247681,2,3,3,3,-9.66,0.82,1.83,-0.2,0,-0.04
0.1415179967880249,2,3,3,3,-9.66,0.82,1.79,-0.2,-0.17,0.02
0.1515179872512817,2,3,3,3,-9.66,0.83,1.73,-0.13,-0.12,0.02
0.1615179777145386,2,3,3,3,-9.69,0.83,1.71,-0.24,-0.13,0.04
0.1715179681777954,2,3,3,3,-9.67,0.8100000000000001,1.74,-0.28,-0.19,0
0.1815179586410522,2,3,3,3,-9.69,0.8100000000000001,1.69,-0.22,-0.19,-0.04
0.1915179491043091,2,3,3,3,-9.67,0.82,1.73,-0.17,-0.18,-0.06
0.2015179395675659,2,3,3,3,-9.68,0.88,1.72,-0.16,-0.16,-0.07000000000000001
0.2115179300308228,2,3,3,3,-9.68,0.84,1.65,-0.16,-0.14,-0.03
0.2215179204940796,2,3,3,3,-9.65,0.85,1.68,-0.16,-0.11,-0.02
0.2315179109573364,2,3,3,3,-9.66,0.85,1.73,-0.13,-0.09,-0.03
0.2415179014205933,2,3,3,3,-9.66,0.83,1.79,-0.13,-0.06,-0.03
0.2515178918838501,2,3,3,3,-9.640000000000001,0.84,1.81,-0.16,-0.01,-0.02
0.2615178823471069,2,3,3,3,-9.65,0.8,1.71,-0.17,-0.03,-0.02
0.2715178728103638,2,3,3,3,-9.640000000000001,0.8,1.75,-0.11,0.01,-0.03
0.2815178632736206,2,3,3,3,-9.65,0.8,1.78,-0.09,0.01,-0.02
0.2915180921554565,2,3,3,3,-9.66,0.83,1.79,-0.13,0.03,-0.02
0.3015180826187134,2,3,3,3,-9.710000000000001,0.8100000000000001,1.8,-0.08,0,-0.03
0.3115180730819702,2,3,3,3,-9.69,0.86,1.68,-0.03,0.01,-0.05
0.3215180635452271,2,3,3,3,-9.67,0.84,1.69,-0.05,0.02,-0.04
0.3315180540084839,2,3,3,3,-9.67,0.84,1.74,-0.06,0.01,-0.04
0.3415180444717407,2,3,3,3,-9.68,0.82,1.78,-0.12,0.02,-0.04
0.3515180349349976,2,3,3,3,-9.640000000000001,0.79,1.76,-0.09,0,-0.06
0.3615180253982544,2,3,3,3,-9.640000000000001,0.8100000000000001,1.69,-0.1,0.02,-0.08
0.3715180158615112,2,3,3,3,-9.65,0.82,1.73,-0.08,0.03,-0.12
0.3815180063247681,2,3,3,3,-9.66,0.8,1.77,-0.04,0.06,-0.09
0.3915179967880249,2,3,3,3,-9.699999999999999,0.77,1.79,0.01,0.08,-0.1
0.4015179872512817,2,3,3,3,-9.699999999999999,0.76,1.8,0.05,0.1,-0.07000000000000001
0.4115179777145386,2,3,3,3,-9.720000000000001,0.79,1.7,0.05,0.13,-0.09
0.4215179681777954,2,3,3,3,-9.68,0.8100000000000001,1.73,0.07000000000000001,0.09,-0.1
0.4315179586410522,2,3,3,3,-9.69,0.8100000000000001,1.74,0.08,0.04,-0.1
0.4415179491043091,2,3,3,3,-9.67,0.82,1.79,0.09,0.03,-0.13
0.4515179395675659,2,3,3,3,-9.65,0.8,1.78,0.05,0.01,-0.12
0.4615179300308228,2,3,3,3,-9.67,0.78,1.74,-0.01,0.05,-0.1
0.4715179204940796,2,3,3,3,-9.68,0.75,1.78,-0.05,0.09,-0.06
0.4815179109573364,2,3,3,3,-9.69,0.77,1.84,-0.09,0.13,-0.05
0.4915179014205933,2,3,3,3,-9.720000000000001,0.77,1.85,-0.06,0.13,-0.07000000000000001
0.5015178918838501,2,3,3,3,-9.710000000000001,0.78,1.76,0.05,0.06,-0.08
0.5115178823471069,2,3,3,3,-9.68,0.8,1.7,0.11,0.06,-0.11
0.5215178728103638,2,3,3,3,-9.69,0.8,1.72,0.12,0.07000000000000001,-0.08
0.5315178632736206,2,3,3,3,-9.66,0.82,1.72,0.02,0.07000000000000001,-0.09
0.5415180921554565,2,3,3,3,-9.65,0.8100000000000001,1.78,-0.08,0.05,-0.05
0.5515180826187134,2,3,3,3,-9.65,0.8,1.78,-0.14,0.01,-0.08
0.5615180730819702,2,3,3,3,-9.640000000000001,0.82,1.73,-0.12,0.02,-0.14
0.5715180635452271,2,3,3,3,-9.699999999999999,0.83,1.76,-0.11,-0.02,-0.2
0.5815180540084839,2,3,3,3,-9.69,0.74,1.74,-0.03,-0.04,-0.21
0.5915180444717407,2,3,3,3,-9.69,0.74,1.74,0.06,0.02,-0.24
0.6015180349349976,2,3,3,3,-9.65,0.74,1.75,0.06,0.02,-0.24
0.6115180253982544,2,3,3,3,-9.630000000000001,0.72,1.75,-0.04,0.1,-0.12
0.6215180158615112,2,3,3,3,-9.67,0.73,1.85,-0.08,0,-0.05
0.6315180063247681,2,3,3,3,-9.710000000000001,0.74,1.83,0,-0.06,-0.04
0.6415179967880249,2,3,3,3,-9.699999999999999,0.78,1.82,0.18,-0.09,-0.08
0.6515179872512817,2,3,3,3,-9.65,0.8,1.74,0.24,-0.04,-0.1
0.6615179777145386,2,3,3,3,-9.65,0.8100000000000001,1.69,0.25,0.03,-0.09
0.6715179681777954,2,3,3,3,-9.640000000000001,0.84,1.74,0.22,0.06,0.02
0.6815179586410522,2,3,3,3,-9.640000000000001,0.84,1.74,0.21,0.03,0.12
0.6915179491043091,2,3,3,3,-9.65,0.87,1.76,0.16,0.05,0.19
0.7015179395675659,2,3,3,3,-9.74,0.92,1.75,0.07000000000000001,0.03,0.18
0.7115179300308228,2,3,3,3,-9.710000000000001,0.93,1.71,-0.05,0.07000000000000001,0.11
0.7215179204940796,2,3,3,3,-9.68,0.91,1.64,-0.21,0.07000000000000001,0.08
0.7315179109573364,2,3,3,3,-9.65,0.89,1.68,-0.31,0,0.03
0.7415179014205933,2,3,3,3,-9.619999999999999,0.8100000000000001,1.79,-0.31,0,0.03
0.7515178918838501,2,3,3,3,-9.6,0.79,1.88,-0.31,-0.03,0.02
0.7615178823471069,2,3,3,3,-9.640000000000001,0.79,1.87,-0.13,-0.06,0.06
0.7725180387496948,2,3,3,3,-9.65,0.82,1.79,-0.04,0.02,0.11
0.7825180292129517,2,3,3,3,-9.67,0.84,1.75,-0.04,0.02,0.15
0.7925180196762085,2,3,3,3,-9.710000000000001,0.83,1.77,-0.04,0.02,0.15
0.8025180101394653,2,3,3,3,-9.699999999999999,0.8,1.78,-0.24,-0.01,0.17
0.8125180006027222,2,3,3,3,-9.699999999999999,0.76,1.79,-0.3,0,0.15
0.822517991065979,2,3,3,3,-9.67,0.77,1.74,-0.32,-0.02,0.18
0.8325179815292358,2,3,3,3,-9.66,0.75,1.78,-0.3,-0.06,0.19
0.8425179719924927,2,3,3,3,-9.66,0.73,1.82,-0.3,-0.06,0.19
0.8525179624557495,2,3,3,3,-9.65,0.74,1.85,-0.23,-0.04,0.19
0.8625179529190063,2,3,3,3,-9.65,0.76,1.82,-0.02,-0.07000000000000001,0.15
0.8725179433822632,2,3,3,3,-9.65,0.75,1.72,0.1,-0.08,0.19
0.88251793384552,2,3,3,3,-9.67,0.77,1.75,0.14,-0.08,0.2
0.8925179243087769,2,3,3,3,-9.67,0.85,1.76,0.14,-0.08,0.2
0.9025179147720337,2,3,3,3,-9.66,0.84,1.78,0.14,-0.02,0.13
0.9125179052352905,2,3,3,3,-9.699999999999999,0.86,1.77,0.07000000000000001,-0.02,0.12
0.9225178956985474,2,3,3,3,-9.69,0.84,1.67,-0.05,-0.01,0.08
0.9325178861618042,2,3,3,3,-9.65,0.86,1.72,-0.17,-0.05,0.02
0.942517876625061,2,3,3,3,-9.66,0.84,1.76,-0.17,-0.05,0.02
0.9525178670883179,2,3,3,3,-9.640000000000001,0.83,1.82,-0.13,-0.17,-0.07000000000000001
0.9625178575515747,2,3,3,3,-9.6,0.85,1.83,-0.1,-0.18,-0.1
0.9725180864334106,2,3,3,3,-9.59,0.85,1.74,-0.13,-0.11,-0.11
0.9825180768966675,2,3,3,3,-9.609999999999999,0.84,1.76,-0.15,-0.03,-0.14
0.9925180673599243,2,3,3,3,-9.630000000000001,0.82,1.81,-0.15,-0.03,-0.14
1.002518057823181,2,3,3,3,-9.65,0.78,1.84,-0.24,-0.05,-0.16
1.012518048286438,2,3,3,3,-9.67,0.77,1.82,-0.36,-0.14,-0.2
1.022518038749695,2,3,3,3,-9.69,0.78,1.74,-0.42,-0.13,-0.22
1.032518029212952,2,3,3,3,-9.65,0.76,1.75,-0.54,-0.2,-0.22
1.042518019676208,2,3,3,3,-9.67,0.73,1.83,-0.54,-0.2,-0.22
1.052518010139465,2,3,3,3,-9.66,0.73,1.82,-0.48,-0.23,-0.23
1.062518000602722,2,3,3,3,-9.67,0.73,1.8,-0.45,-0.15,-0.25
1.072517991065979,2,3,3,3,-9.69,0.74,1.74,-0.39,-0.11,-0.29
1.082517981529236,2,3,3,3,-9.65,0.7,1.85,-0.41,-0.1,-0.31
1.092517971992493,2,3,3,3,-9.67,0.68,1.91,-0.41,-0.1,-0.31
1.10251796245575,2,3,3,3,-9.65,0.63,1.86,-0.37,-0.2,-0.28
1.112517952919006,2,3,3,3,-9.65,0.64,1.91,-0.22,-0.21,-0.3
1.122517943382263,2,3,3,3,-9.65,0.68,1.74,-0.09,-0.24,-0.26
1.13251793384552,2,3,3,3,-9.68,0.6899999999999999,1.8,0.06,-0.18,-0.18
1.142517924308777,2,3,3,3,-9.65,0.7,1.79,0.07000000000000001,-0.15,-0.12
1.152517914772034,2,3,3,3,-9.65,0.73,1.81,0.05,-0.07000000000000001,-0.1
1.162517905235291,2,3,3,3,-9.68,0.8,1.79,0.01,-0.1,-0.04
1.172517895698547,2,3,3,3,-9.699999999999999,0.8100000000000001,1.74,0,-0.13,-0.01
1.182517886161804,2,3,3,3,-9.76,0.8100000000000001,1.82,-0.08,-0.13,-0.05
1.192517876625061,2,3,3,3,-9.699999999999999,0.8,1.84,-0.22,-0.28,-0.09
1.202517867088318,2,3,3,3,-9.630000000000001,0.8,1.83,-0.24,-0.43,-0.12
1.212517857551575,2,3,3,3,-9.58,0.8100000000000001,1.79,-0.16,-0.47,-0.15
1.222518086433411,2,3,3,3,-9.57,0.82,1.72,-0.16,-0.34,-0.15
1.232518076896667,2,3,3,3,-9.6,0.8,1.79,-0.25,-0.15,-0.17
1.242518067359924,2,3,3,3,-9.6,0.82,1.82,-0.26,-0.14,-0.18
1.252518057823181,2,3,3,3,-9.619999999999999,0.8,1.83,-0.26,-0.15,-0.17
1.262518048286438,2,3,3,3,-9.640000000000001,0.8100000000000001,1.82,-0.17,-0.02,-0.18
1.272518038749695,2,3,3,3,-9.69,0.77,1.77,-0.26,0.07000000000000001,-0.16
1.282518029212952,2,3,3,3,-9.699999999999999,0.74,1.85,-0.31,0.14,-0.13
1.292518019676208,2,3,3,3,-9.710000000000001,0.72,1.84,-0.27,0.11,-0.06
1.302518010139465,2,3,3,3,-9.68,0.71,1.87,-0.22,0.14,-0.06
1.312518000602722,2,3,3,3,-9.66,0.71,1.82,-0.18,0.21,-0.02
1.322517991065979,2,3,3,3,-9.66,0.71,1.79,-0.09,0.18,-0.01
1.332517981529236,2,3,3,3,-9.65,0.76,1.88,-0.02,0.14,-0.02
1.342517971992493,2,3,3,3,-9.67,0.79,1.94,0,0.12,0
1.35251796245575,2,3,3,3,-9.699999999999999,0.8100000000000001,1.86,0.04,0,0.02
1.362517952919006,2,3,3,3,-9.68,0.84,1.84,0.08,-0.06,0.01
1.372517943382263,2,3,3,3,-9.699999999999999,0.83,1.75,0.06,-0.05,0.01
1.38251793384552,2,3,3,3,-9.68,0.84,1.86,-0.03,0.01,0.05
1.392517924308777,2,3,3,3,-9.68,0.84,1.87,-0.13,0.05,0.04
1.402517914772034,2,3,3,3,-9.66,0.86,1.88,-0.16,0.07000000000000001,0.07000000000000001
1.412517905235291,2,3,3,3,-9.67,0.86,1.92,-0.14,0.07000000000000001,0.1
1.422517895698547,2,3,3,3,-9.67,0.92,1.81,-0.1,0.06,0.14
1.432517886161804,2,3,3,3,-9.69,0.96,1.83,0,0.05,0.2
1.442517876625061,2,3,3,3,-9.68,0.95,1.87,-0.01,0.01,0.21
1.452517867088318,2,3,3,3,-9.69,0.97,1.87,0,0.06,0.18
1.462517857551575,2,3,3,3,-9.710000000000001,0.98,1.84,-0.04,0.05,0.14
1.472518086433411,2,3,3,3,-9.67,0.98,1.78,-0.12,0.04,0.09
1.482518076896667,2,3,3,3,-9.66,1.05,1.81,-0.17,-0.05,0.06
1.492518067359924,2,3,3,3,-9.67,1.05,1.85,-0.18,-0.07000000000000001,0.05
1.502518057823181,2,3,3,3,-9.65,1.09,1.86,-0.23,-0.08,0.01
1.512518048286438,2,3,3,3,-9.65,1.13,1.82,-0.14,-0.14,-0.05
1.522518038749695,2,3,3,3,-9.640000000000001,1.13,1.69,-0.11,-0.12,-0.11
1.532518029212952,2,3,3,3,-9.65,1.1,1.73,-0.15,-0.09,-0.2
1.542518019676208,2,3,3,3,-9.619999999999999,1.1,1.83,-0.28,-0.1,-0.29
1.552518010139465,2,3,3,3,-9.6,1.1,1.84,-0.4,-0.11,-0.34
1.562518000602722,2,3,3,3,-9.6,1.08,1.85,-0.43,-0.15,-0.43
1.572517991065979,2,3,3,3,-9.6,1.08,1.77,-0.31,-0.18,-0.46
1.582517981529236,2,3,3,3,-9.65,1.11,1.76,-0.18,-0.1,-0.47
1.592517971992493,2,3,3,3,-9.720000000000001,1.11,1.71,-0.04,0.05,-0.43
1.60251796245575,2,3,3,3,-9.74,1.14,1.68,0.03,0.17,-0.4
1.612517952919006,2,3,3,3,-9.779999999999999,1.09,1.63,-0.04,0.28,-0.38
1.622517943382263,2,3,3,3,-9.77,1.08,1.6,-0.11,0.27,-0.44
1.63251793384552,2,3,3,3,-9.74,1.08,1.67,-0.18,0.18,-0.53
1.642517924308777,2,3,3,3,-9.69,1.05,1.72,-0.12,0.05,-0.64
1.652517914772034,2,3,3,3,-9.58,1.01,1.83,0.05,0.01,-0.83
1.662517905235291,2,3,3,3,-9.550000000000001,1,1.82,0.37,0.02,-1.06
1.672517895698547,2,3,3,3,-9.539999999999999,1.04,1.78,0.84,0.05,-1.27
1.682517886161804,2,3,3,3,-9.52,1.12,1.83,1.39,0.11,-1.36
1.692517876625061,2,3,3,3,-9.66,1.35,1.68,2.2,0.16,-1.36
1.702517867088318,2,3,3,3,-9.69,1.44,1.46,3.09,0.22,-1.18
1.712517857551575,2,3,3,3,-9.76,1.52,1.33,3.71,0.73,-0.91
1.722518086433411,2,3,3,3,-9.789999999999999,1.58,1.22,3.86,1.44,-0.61
1.732518076896667,2,3,3,3,-9.800000000000001,1.72,1.44,3.91,2.09,-0.3
1.742518067359924,2,3,3,3,-9.76,1.82,1.4,3.7,2.35,0.16
1.752518057823181,2,3,3,3,-9.66,1.92,1.19,3.23,2.47,0.75
1.762518048286438,2,3,3,3,-9.69,2.1,1.19,2.44,3.01,1.25
1.772518038749695,2,3,3,3,-9.630000000000001,2.24,1.37,1.35,3.45,1.66
1.782518029212952,2,3,3,3,-9.68,2.19,1.47,0.61,3.58,2.11
1.79351794719696,2,3,3,3,-9.720000000000001,2.07,1.63,0.18,3.38,2.61
1.803517937660217,2,3,3,3,-9.69,1.83,1.7,-0.2,3.04,3.1
1.813517928123474,2,3,3,3,-9.73,1.72,1.54,-0.44,2.83,3.48
1.823517918586731,2,3,3,3,-9.74,1.58,1.37,-0.77,2.79,3.74
1.833517909049988,2,3,3,3,-9.75,1.46,1.41,-1.23,2.82,3.95
1.843517899513245,2,3,3,3,-9.66,1.25,1.41,-1.74,2.93,4.19
1.853517889976501,2,3,3,3,-9.630000000000001,1.1,1.41,-2.07,3.08,4.48
1.863517880439758,2,3,3,3,-9.68,0.99,1.5,-2.33,3.16,4.74
1.873517870903015,2,3,3,3,-9.76,0.85,1.51,-2.72,3.01,4.77
1.883517861366272,2,3,3,3,-9.640000000000001,0.48,1.53,-3.07,2.68,4.7
1.893518090248108,2,3,3,3,-9.640000000000001,0.26,1.67,-3.15,2.26,4.45
1.903518080711365,2,3,3,3,-9.6,0.1,1.66,-3.04,1.88,4.19
1.913518071174622,2,3,3,3,-9.449999999999999,0.04,1.63,-2.7,1.61,4.05
1.923518061637878,2,3,3,3,-9.44,0.22,1.51,-2.16,1.64,4.05
1.933518052101135,2,3,3,3,-9.56,0.31,1.49,-1.43,1.81,4.07
1.943518042564392,2,3,3,3,-9.710000000000001,0.46,1.44,-0.77,1.62,4.13
1.953518033027649,2,3,3,3,-9.859999999999999,0.51,1.27,-0.41,1.19,4.07
1.963518023490906,2,3,3,3,-9.93,0.57,1.1,-0.18,0.87,3.95
1.973518013954163,2,3,3,3,-9.859999999999999,0.52,0.99,-0.01,0.76,3.83
1.983518004417419,2,3,3,3,-9.82,0.5,1.08,0.35,0.78,3.75
1.993517994880676,2,3,3,3,-9.699999999999999,0.52,1.25,0.73,0.86,3.69
2.003517985343933,2,3,3,2,-9.65,0.6,1.31,1.04,0.87,3.65
2.01351797580719,2,3,3,2,-9.59,0.6899999999999999,1.29,1.37,0.8,3.62
2.023517966270447,2,3,3,2,-9.550000000000001,0.84,1.18,1.76,0.65,3.67
2.033517956733704,2,3,3,2,-9.52,1.07,1.22,2.12,0.54,3.62
2.04351794719696,2,3,3,2,-9.52,1.15,1.27,2.31,0.48,3.51
2.053517937660217,2,3,3,2,-9.57,1.35,1.33,2.28,0.5600000000000001,3.32
2.063517928123474,2,3,3,2,-9.58,1.4,1.28,2.15,0.5600000000000001,3.13
2.073517918586731,2,3,3,2,-9.57,1.51,1,2.2,0.51,2.93
2.083517909049988,2,3,3,2,-9.640000000000001,1.61,1.13,2.12,0.5600000000000001,2.78
2.093517899513245,2,3,3,2,-9.69,1.64,1.19,1.8,0.71,2.61
2.103517889976501,2,3,3,2,-9.699999999999999,1.65,1.14,1.43,0.7,2.49
2.113517880439758,2,3,3,2,-9.68,1.61,1.17,1.37,0.7,2.41
2.123517870903015,2,3,3,2,-9.77,1.56,1.18,1.23,0.78,2.27
2.133517861366272,2,3,3,2,-9.77,1.49,1.24,1.05,0.84,2.15
2.143518090248108,2,3,3,2,-9.789999999999999,1.44,1.26,0.83,0.8100000000000001,2.04
2.153518080711365,2,3,3,2,-9.779999999999999,1.47,1.3,0.86,0.65,1.95
2.163518071174622,2,3,3,2,-9.75,1.53,1.19,1.24,0.53,1.85
2.173518061637878,2,3,3,2,-9.699999999999999,1.62,1.04,1.56,0.42,1.77
2.183518052101135,2,3,3,2,-9.74,1.78,1.11,1.68,0.38,1.61
2.193518042564392,2,3,3,2,-9.74,1.84,1.13,1.62,0.24,1.5
2.203518033027649,2,3,3,2,-9.73,1.88,1.06,1.53,0.13,1.38
2.213518023490906,2,3,3,2,-9.76,1.88,1.03,1.31,-0.03,1.27
2.223518013954163,2,3,3,2,-9.57,1.89,1.02,0.85,-0.09,1.06
2.233518004417419,2,3,3,2,-9.529999999999999,1.8,0.99,0.55,-0.13,0.92
2.243517994880676,2,3,3,2,-9.550000000000001,1.76,1.09,0.41,0.01,0.71
2.253517985343933,2,3,3,2,-9.6,1.65,1.16,0.21,0.09,0.49
2.26351797580719,2,3,3,2,-9.68,1.64,1.09,0.18,0.09,0.35
2.273517966270447,2,3,3,2,-9.75,1.58,1.06,0.37,0.11,0.3
2.283517956733704,2,3,3,2,-9.85,1.61,1.1,0.59,0.1,0.28
2.29351794719696,2,3,3,2,-9.84,1.66,1.1,0.88,0.09,0.19
2.303517937660217,2,3,3,2,-9.779999999999999,1.73,0.98,1.2,0.01,0.1
2.313517928123474,2,3,3,2,-9.69,1.84,0.92,1.42,-0.2,0.13
2.323517918586731,2,3,3,2,-9.609999999999999,1.96,0.86,1.62,-0.34,0.2
2.333517909049988,2,3,3,2,-9.56,2.02,0.95,1.53,-0.23,0.19
2.343517899513245,2,3,3,2,-9.539999999999999,2.1,1.11,1.32,-0.15,0.16
2.353517889976501,2,3,3,2,-9.550000000000001,2.09,1.15,1.25,-0.13,0.01
2.363517880439758,2,3,3,2,-9.550000000000001,2.07,1.14,1.17,-0.21,-0.11
2.373517870903015,2,3,3,2,-9.529999999999999,2.06,1.03,1.09,-0.41,-0.21
2.383517861366272,2,3,3,2,-9.539999999999999,2.1,1,1.06,-0.55,-0.34
2.393518090248108,2,3,3,2,-9.539999999999999,2.12,1,1.02,-0.6,-0.4
2.403518080711365,2,3,3,2,-9.57,2.11,1.01,0.89,-0.41,-0.44
2.413518071174622,2,3,3,2,-9.640000000000001,2.2,0.93,0.89,-0.41,-0.44
2.423518061637878,2,3,3,2,-9.6,2.2,0.87,0.82,-0.3,-0.46
2.433518052101135,2,3,3,2,-9.59,2.16,0.95,0.5,-0.24,-0.41
2.443518042564392,2,3,3,2,-9.6,2.09,1.06,0.35,-0.34,-0.47
2.453518033027649,2,3,3,2,-9.58,2.05,1.17,0.4,-0.4,-0.53
2.463518023490906,2,3,3,2,-9.56,2.02,1.15,0.49,-0.41,-0.59
2.473518013954163,2,3,3,2,-9.57,2,1.08,0.54,-0.37,-0.62
2.483518004417419,2,3,3,2,-9.56,2.01,1.05,0.52,-0.32,-0.67
2.493517994880676,2,3,3,2,-9.550000000000001,2.04,1.14,0.53,-0.32,-0.71
2.503517985343933,2,3,3,2,-9.57,2.08,1.15,0.66,-0.32,-0.7
2.51351797580719,2,3,3,2,-9.57,2.08,1.15,0.76,-0.28,-0.66
2.523517966270447,2,3,3,2,-9.529999999999999,2.16,1,0.6899999999999999,-0.18,-0.6
2.533517956733704,2,3,3,2,-9.539999999999999,2.21,0.95,0.54,-0.14,-0.5
2.54351794719696,2,3,3,2,-9.57,2.28,0.98,0.44,-0.2,-0.47
2.553517937660217,2,3,3,2,-9.57,2.28,0.98,0.23,-0.3,-0.48
2.563517928123474,2,3,3,2,-9.57,2.28,1.01,0.1,-0.31,-0.5600000000000001
2.573517918586731,2,3,3,2,-9.5,2.14,1.04,-0.07000000000000001,-0.26,-0.64
2.583517909049988,2,3,3,2,-9.51,2.1,1.16,-0.29,-0.2,-0.7
2.593517899513245,2,3,3,2,-9.51,2.02,1.16,-0.36,-0.27,-0.72
2.603517889976501,2,3,3,2,-9.51,2.02,1.16,-0.29,-0.28,-0.72
2.613517880439758,2,3,3,2,-9.48,1.96,1.17,-0.2,-0.22,-0.76
2.623517870903015,2,3,3,2,-9.609999999999999,1.92,1,-0.06,-0.17,-0.75
2.633517861366272,2,3,3,2,-9.68,1.87,1.02,0,-0.03,-0.74
2.643518090248108,2,3,3,2,-9.720000000000001,1.92,1.13,-0.07000000000000001,0,-0.68
2.653518080711365,2,3,3,3,-9.720000000000001,1.92,1.13,-0.07000000000000001,0,-0.68
2.663518071174622,2,3,3,3,-9.65,1.88,1.14,-0.12,0.02,-0.66
2.673518061637878,2,3,3,3,-9.539999999999999,1.95,1.13,-0.18,-0.15,-0.66
2.683518052101135,2,3,3,3,-9.449999999999999,2.05,1.18,-0.21,-0.44,-0.7
2.693518042564392,2,3,3,3,-9.43,2.05,1.15,-0.14,-0.61,-0.75
2.703518033027649,2,3,3,3,-9.42,2.12,1.08,0.02,-0.65,-0.84
2.713518023490906,2,3,3,3,-9.42,2.12,1.08,-0.11,-0.5600000000000001,-0.98
2.723518013954163,2,3,3,3,-9.619999999999999,2.13,1.02,-0.42,-0.41,-1.09
2.733518004417419,2,3,3,3,-9.619999999999999,2.14,1.07,-0.6,-0.34,-1.16
2.743517994880676,2,3,3,3,-9.640000000000001,2.1,1.11,-0.64,-0.22,-1.17
2.753517985343933,2,3,3,3,-9.640000000000001,2.1,1.11,-0.8,-0.1,-1.2
2.76351797580719,2,3,3,3,-9.65,2.07,1.15,-0.96,-0.01,-1.17
2.773517966270447,2,3,3,3,-9.57,1.8,1.2,-1.04,0.07000000000000001,-1.15
2.783517956733704,2,3,3,3,-9.609999999999999,1.74,1.28,-1.09,0.05,-1.06
2.794517874717712,2,3,3,3,-9.57,1.68,1.22,-0.93,0.01,-1.01
2.803517937660217,2,3,3,3,-9.57,1.68,1.22,-0.93,0.01,-1.01
2.813517928123474,2,3,3,3,-9.56,1.71,1.16,-0.78,0.11,-0.97
2.824518084526062,2,3,3,3,-9.57,1.73,1.11,-0.75,0.35,-0.98
2.834518074989319,2,3,3,3,-9.640000000000001,1.72,1.25,-0.87,0.39,-1.03
2.844518065452576,2,3,3,3,-9.67,1.73,1.31,-0.89,0.26,-1.12
2.854518055915833,2,3,3,3,-9.67,1.73,1.31,-0.89,0.26,-1.12
2.864518046379089,2,3,3,3,-9.720000000000001,1.7,1.36,-0.88,0.08,-1.25
2.874518036842346,2,3,3,3,-9.69,1.66,1.35,-0.8100000000000001,-0.05,-1.62
2.884518027305603,2,3,3,3,-9.73,1.59,1.27,-0.79,-0.13,-1.8
2.89451801776886,2,3,3,3,-9.73,1.59,1.27,-0.76,-0.22,-1.95
2.904518008232117,2,3,3,3,-9.68,1.61,1.23,-0.76,-0.22,-1.95
2.914517998695374,2,3,3,3,-9.609999999999999,1.62,1.17,-0.83,-0.27,-2.06
2.92451798915863,2,3,3,3,-9.66,1.61,1.29,-1.04,-0.39,-2.35
2.934517979621887,2,3,3,3,-9.68,1.6,1.27,-0.92,-0.52,-2.55
2.944517970085144,2,3,3,3,-9.640000000000001,1.55,1.28,-0.77,-0.46,-2.7
2.954517960548401,2,3,3,3,-9.6,1.48,1.29,-0.77,-0.46,-2.7
2.964517951011658,2,3,3,3,-9.619999999999999,1.34,1.35,-0.75,-0.21,-2.71
2.974517941474915,2,3,3,3,-9.699999999999999,1.25,1.39,-0.8100000000000001,-0.05,-2.74
2.984517931938171,2,3,3,3,-9.73,1.23,1.32,-0.83,-0.2,-2.64
2.994517922401428,2,3,3,3,-9.699999999999999,1.26,1.36,-0.8100000000000001,-0.33,-2.51
3.004517912864685,2,3,3,3,-9.630000000000001,1.27,1.38,-0.8100000000000001,-0.33,-2.51
3.014517903327942,2,3,3,3,-9.609999999999999,1.3,1.31,-0.7,-0.3,-2.42
3.024517893791199,2,3,3,3,-9.640000000000001,1.29,1.32,-0.76,-0.16,-2.35
3.034517884254456,2,3,3,3,-9.68,1.32,1.15,-0.83,-0.2,-2.32
3.044517874717712,2,3,3,3,-9.640000000000001,1.28,1.21,-0.89,-0.18,-2.31
3.054517865180969,2,3,3,3,-9.619999999999999,1.28,1.36,-0.89,-0.18,-2.31
3.064518094062805,2,3,3,3,-9.58,1.29,1.4,-0.9399999999999999,-0.19,-2.35
3.074518084526062,2,3,3,3,-9.58,1.23,1.32,-0.6899999999999999,-0.19,-2.43
3.084518074989319,2,3,3,3,-9.609999999999999,1.21,1.29,-0.6899999999999999,-0.24,-2.36
3.094518065452576,2,3,3,3,-9.6,1.16,1.3,-0.76,-0.2,-2.22
3.104518055915833,2,3,3,3,-9.619999999999999,1.12,1.31,-0.76,-0.2,-2.22
3.114518046379089,2,3,3,3,-9.68,1.11,1.45,-0.9,-0.17,-2.06
3.124518036842346,2,3,3,3,-9.69,1.08,1.39,-0.6,-0.37,-1.89
3.134518027305603,2,3,3,3,-9.76,1.04,1.29,-0.33,-0.39,-1.9
3.14451801776886,2,3,3,3,-9.77,0.99,1.27,-0.17,-0.33,-1.91
3.154518008232117,2,3,3,3,-9.85,1.01,1.34,-0.17,-0.33,-1.91
3.164517998695374,2,3,3,3,-9.779999999999999,1.08,1.33,-0.1,-0.49,-1.91
3.17451798915863,2,3,3,3,-9.710000000000001,1.09,1.26,-0.1,-0.64,-1.86
3.184517979621887,2,3,3,3,-9.619999999999999,1.18,1.19,-0.22,-0.78,-1.83
3.194517970085144,2,3,3,3,-9.57,1.22,1.3,-0.32,-0.92,-1.85
3.204517960548401,2,3,3,3,-9.539999999999999,1.21,1.37,-0.32,-0.92,-1.85
3.214517951011658,2,3,3,3,-9.529999999999999,1.19,1.35,-0.38,-1.04,-1.95
3.224517941474915,2,3,3,3,-9.539999999999999,1.05,1.27,-0.45,-1.02,-2.01
3.234517931938171,2,3,3,3,-9.57,1.01,1.25,-0.67,-0.7,-2.05
3.244517922401428,2,3,3,3,-9.67,0.93,1.29,-0.75,-0.6899999999999999,-1.97
3.254517912864685,2,3,3,3,-9.74,0.87,1.35,-0.75,-0.6899999999999999,-1.97
3.264517903327942,2,3,3,3,-9.800000000000001,0.76,1.39,-0.64,-0.76,-1.85
3.274517893791199,2,3,3,3,-9.800000000000001,0.76,1.35,-0.15,-0.6,-1.5
3.284517884254456,2,3,3,3,-9.77,0.8,1.28,-0.15,-0.6,-1.5
3.294517874717712,2,3,3,3,-9.81,0.8100000000000001,1.3,0.03,-0.55,-1.36
3.304517865180969,2,3,3,3,-9.84,0.84,1.27,0.11,-0.67,-1.23
3.314518094062805,2,3,3,2,-9.82,0.86,1.28,0.04,-0.77,-1.22
3.324518084526062,2,3,3,2,-9.779999999999999,0.87,1.29,-0.05,-0.89,-1.24
3.334518074989319,2,3,3,2,-9.699999999999999,0.86,1.25,-0.22,-1.01,-1.26
3.344518065452576,2,3,3,2,-9.57,0.79,1.37,-0.22,-1.01,-1.26
3.354518055915833,2,3,3,2,-9.57,0.77,1.41,-0.19,-0.9399999999999999,-1.29
3.364518046379089,2,3,3,2,-9.57,0.76,1.38,-0.12,-0.9,-1.33
3.374518036842346,2,3,3,2,-9.609999999999999,0.75,1.4,0,-0.79,-1.32
3.384518027305603,2,3,3,2,-9.859999999999999,0.74,1.36,0.04,-0.6899999999999999,-1.35
3.39451801776886,2,3,3,2,-9.91,0.76,1.41,0.2,-0.78,-1.43
3.404518008232117,2,3,3,2,-9.859999999999999,0.73,1.37,0.45,-0.93,-1.51
3.414517998695374,2,3,3,2,-9.779999999999999,0.79,1.38,0.52,-0.95,-1.57
3.42451798915863,2,3,3,2,-9.76,0.8,1.38,0.44,-0.85,-1.61
3.434517979621887,2,3,3,2,-9.73,0.8,1.31,0.37,-0.9399999999999999,-1.59
3.444517970085144,2,3,3,2,-9.720000000000001,0.77,1.33,0.36,-1.01,-1.58
3.454517960548401,2,3,3,2,-9.67,0.73,1.42,0.33,-1.04,-1.58
3.464517951011658,2,3,3,2,-9.67,0.74,1.48,0.21,-1.05,-1.6
3.474517941474915,2,3,3,2,-9.65,0.71,1.5,0.04,-1.13,-1.58
3.484517931938171,2,3,3,2,-9.65,0.71,1.41,-0.05,-1.27,-1.53
3.494517922401428,2,3,3,2,-9.640000000000001,0.87,1.49,0.05,-1.32,-1.45
3.504517912864685,2,3,3,2,-9.76,0.9399999999999999,1.49,0.41,-1.19,-1.41
3.514517903327942,2,3,3,2,-9.9,0.9,1.57,0.76,-0.87,-1.4
3.524517893791199,2,3,3,2,-10.03,0.83,1.57,1,-0.75,-1.37
3.534517884254456,2,3,3,2,-9.92,0.71,1.36,1.28,-0.65,-1.31
3.544517874717712,2,3,3,2,-9.77,0.74,1.44,1.3,-0.51,-1.13
3.554517865180969,2,3,3,2,-9.640000000000001,0.82,1.48,1.08,-0.31,-0.86
3.564518094062805,2,3,3,2,-9.539999999999999,0.88,1.45,0.73,-0.17,-0.59
3.574518084526062,2,3,3,2,-9.640000000000001,0.91,1.41,0.39,-0.13,-0.46
3.584518074989319,2,3,3,2,-9.67,0.88,1.4,0.07000000000000001,-0.07000000000000001,-0.49
3.594518065452576,2,3,3,2,-9.720000000000001,0.83,1.54,-0.16,-0.21,-0.57
3.604518055915833,2,3,3,2,-9.69,0.75,1.67,-0.28,-0.52,-0.67
3.614518046379089,2,3,3,2,-9.699999999999999,0.7,1.72,-0.35,-0.8,-0.73
3.624518036842346,2,3,3,2,-9.68,0.73,1.66,-0.31,-1.02,-0.84
3.664517998695374,2,3,3,2,-9.859999999999999,0.77,1.65,-0.26,-1.51,-1.02
3.67451798915863,2,3,3,2,-9.800000000000001,0.74,1.65,-0.29,-1.44,-0.99
3.684517979621887,2,3,3,2,-9.720000000000001,0.66,1.69,-0.36,-1.2,-0.89
3.695517897605896,2,3,3,2,-9.69,0.68,1.77,-0.42,-0.9399999999999999,-0.77
3.704517960548401,2,3,3,2,-9.630000000000001,0.66,1.79,-0.4,-0.8100000000000001,-0.63
3.714517951011658,2,3,3,2,-9.59,0.65,1.78,-0.25,-0.65,-0.48
3.724517941474915,2,3,3,2,-9.6,0.67,1.77,-0.3,-0.42,-0.4
3.734517931938171,2,3,3,2,-9.65,0.65,1.73,-0.44,-0.27,-0.29
3.744517922401428,2,3,3,2,-9.66,0.64,1.74,-0.62,-0.2,-0.33
3.755518078804016,2,3,3,2,-9.66,0.61,1.78,-0.63,-0.25,-0.39
3.764517903327942,2,3,3,2,-9.66,0.59,1.88,-0.72,-0.27,-0.45
3.774517893791199,2,3,3,2,-9.69,0.57,1.9,-0.82,-0.3,-0.43
3.785518050193787,2,3,3,2,-9.74,0.54,1.83,-0.87,-0.35,-0.43
3.794517874717712,2,3,3,2,-9.76,0.5,1.85,-0.85,-0.4,-0.39
3.804517865180969,2,3,3,2,-9.789999999999999,0.49,1.86,-0.8,-0.42,-0.33
3.815518021583557,2,3,3,2,-9.74,0.48,1.87,-0.7,-0.4,-0.27
3.824518084526062,2,3,3,2,-9.699999999999999,0.46,1.86,-0.67,-0.33,-0.23
3.834518074989319,2,3,3,2,-9.68,0.42,1.76,-0.65,-0.23,-0.15
3.845517992973328,2,3,3,2,-9.67,0.39,1.79,-0.63,-0.18,-0.07000000000000001
3.855517983436584,2,3,3,2,-9.67,0.39,1.85,-0.64,-0.2,0.01
3.865517973899841,2,3,3,2,-9.66,0.38,1.9,-0.65,-0.17,0.07000000000000001
3.875517964363098,2,3,3,2,-9.69,0.43,1.82,-0.64,-0.2,0.11
3.885517954826355,2,3,3,2,-9.710000000000001,0.45,1.75,-0.53,-0.25,0.16
3.895517945289612,2,3,3,2,-9.699999999999999,0.49,1.77,-0.51,-0.24,0.15
3.905517935752869,2,3,3,2,-9.68,0.49,1.8,-0.6,-0.27,0.16
3.915517926216125,2,3,3,2,-9.68,0.45,1.88,-0.71,-0.29,0.13
3.925517916679382,2,3,3,2,-9.67,0.45,1.9,-0.84,-0.39,0.11
3.935517907142639,2,3,3,2,-9.65,0.42,1.81,-0.91,-0.4,0.12
3.945517897605896,2,3,3,2,-9.66,0.4,1.83,-0.93,-0.34,0.13
3.955517888069153,2,3,3,2,-9.710000000000001,0.35,1.9,-0.95,-0.25,0.17
3.96551787853241,2,3,3,2,-9.699999999999999,0.35,1.91,-0.87,-0.18,0.22
3.975517868995667,2,3,3,2,-9.69,0.32,1.92,-0.78,-0.14,0.27
3.985517859458923,2,3,3,2,-9.720000000000001,0.35,1.8,-0.63,-0.14,0.31
3.995518088340759,2,3,3,2,-9.68,0.4,1.79,-0.59,-0.12,0.35
4.005518078804016,2,3,3,2,-9.69,0.4,1.82,-0.54,-0.1,0.39
4.015518069267273,2,3,3,2,-9.66,0.43,1.81,-0.54,-0.16,0.37
4.02551805973053,2,3,3,2,-9.640000000000001,0.41,1.82,-0.59,-0.19,0.31
4.035518050193787,2,3,3,2,-9.66,0.39,1.76,-0.64,-0.25,0.25
4.045518040657043,2,3,3,2,-9.65,0.36,1.85,-0.72,-0.26,0.17
4.0555180311203,2,3,3,2,-9.65,0.36,1.89,-0.79,-0.33,0.1
4.065518021583557,2,3,3,2,-9.619999999999999,0.32,1.92,-0.84,-0.36,-0.02
4.075518012046814,2,3,3,2,-9.619999999999999,0.35,1.92,-0.78,-0.33,-0.09
4.085518002510071,2,3,3,2,-9.619999999999999,0.3,1.8,-0.76,-0.28,-0.13
4.095517992973328,2,3,3,2,-9.65,0.29,1.85,-0.74,-0.26,-0.12
4.105517983436584,2,3,3,2,-9.699999999999999,0.28,1.91,-0.67,-0.25,-0.08
4.115517973899841,2,3,3,2,-9.710000000000001,0.29,1.94,-0.65,-0.32,-0.08
4.125517964363098,2,3,3,2,-9.710000000000001,0.28,1.9,-0.61,-0.36,-0.08
4.135517954826355,2,3,3,2,-9.67,0.26,1.84,-0.58,-0.34,-0.08
4.145517945289612,2,3,3,2,-9.67,0.25,1.86,-0.5,-0.3,-0.09
4.155517935752869,2,3,3,2,-9.67,0.25,1.9,-0.36,-0.29,-0.06
4.165517926216125,2,3,3,2,-9.699999999999999,0.24,1.92,-0.31,-0.22,0.01
4.175517916679382,2,3,3,2,-9.68,0.28,1.9,-0.2,-0.15,0.06
4.185517907142639,2,3,3,2,-9.66,0.32,1.8,-0.17,-0.12,0.1
4.195517897605896,2,3,3,2,-9.66,0.35,1.84,-0.17,-0.12,0.13
4.205517888069153,2,3,3,2,-9.640000000000001,0.35,1.88,-0.27,-0.17,0.07000000000000001
4.21551787853241,2,3,3,2,-9.640000000000001,0.36,1.98,-0.28,-0.23,0.02
4.225517868995667,2,3,3,2,-9.6,0.35,1.95,-0.28,-0.25,-0.01
4.235517859458923,2,3,3,2,-9.609999999999999,0.33,1.85,-0.22,-0.22,-0.06
4.245518088340759,2,3,3,2,-9.65,0.34,1.88,-0.18,-0.19,-0.05
4.255518078804016,2,3,3,2,-9.65,0.36,1.87,-0.13,-0.13,-0.03
4.265518069267273,2,3,3,2,-9.67,0.35,1.91,-0.11,-0.11,0.01
4.27551805973053,2,3,3,2,-9.699999999999999,0.32,1.89,-0.1,-0.04,0.08
4.285518050193787,2,3,3,2,-9.69,0.35,1.8,-0.13,-0.01,0.12
4.295518040657043,2,3,3,2,-9.66,0.33,1.85,-0.18,0.03,0.13
4.3055180311203,2,3,3,2,-9.69,0.36,1.94,-0.21,0.01,0.13
4.315518021583557,2,3,3,2,-9.67,0.38,1.99,-0.25,-0.05,0.16
4.325518012046814,2,3,3,2,-9.65,0.36,1.97,-0.24,-0.09,0.12
4.335518002510071,2,3,3,2,-9.619999999999999,0.36,1.82,-0.15,-0.09,0.09
4.345517992973328,2,3,3,2,-9.609999999999999,0.34,1.9,-0.06,0.01,0.05
4.355517983436584,2,3,3,2,-9.640000000000001,0.33,1.93,-0.13,0.09,0.07000000000000001
4.365517973899841,2,3,3,2,-9.640000000000001,0.33,1.96,-0.13,0.11,0.04
4.375517964363098,2,3,3,2,-9.65,0.3,1.92,-0.13,0.06,0.03
4.385517954826355,2,3,3,2,-9.66,0.3,1.85,-0.09,0.06,-0.04
4.395517945289612,2,3,3,2,-9.68,0.27,1.88,-0.02,0.02,-0.04
4.405517935752869,2,3,3,2,-9.68,0.32,1.95,0.03,0.01,-0.08
4.415517926216125,2,3,3,2,-9.69,0.3,1.96,0.06,0.04,-0.08
4.425517916679382,2,3,3,2,-9.68,0.29,1.96,0.08,0.02,-0.06
4.435517907142639,2,3,3,2,-9.66,0.31,1.85,0.13,0.04,-0.07000000000000001
4.445517897605896,2,3,3,2,-9.66,0.31,1.9,0.21,0.04,-0.08
4.455517888069153,2,3,3,2,-9.65,0.34,1.98,0.24,0.07000000000000001,-0.07000000000000001
4.46551787853241,2,3,3,2,-9.65,0.32,1.97,0.19,0.03,-0.1
4.475517868995667,2,3,3,2,-9.630000000000001,0.33,1.97,0.23,0.03,-0.09
4.485517859458923,2,3,3,2,-9.67,0.34,1.86,0.31,0.03,-0.13
4.495518088340759,2,3,3,2,-9.65,0.33,1.93,0.34,0.07000000000000001,-0.14
4.505518078804016,2,3,3,2,-9.65,0.35,1.95,0.31,0.09,-0.15
4.515518069267273,2,3,3,2,-9.65,0.33,1.93,0.34,0.09,-0.11
4.52551805973053,2,3,3,2,-9.68,0.36,1.93,0.33,0.1,-0.11
4.535518050193787,2,3,3,2,-9.69,0.35,1.85,0.28,0.12,-0.1
4.545518040657043,2,3,3,2,-9.69,0.35,1.91,0.25,0.11,-0.1
4.5555180311203,2,3,3,2,-9.69,0.36,1.94,0.25,0.08,-0.11
4.565518021583557,2,3,3,2,-9.66,0.37,2.01,0.28,0.03,-0.09
4.575518012046814,2,3,3,2,-9.640000000000001,0.35,1.91,0.32,0.01,-0.12
4.585518002510071,2,3,3,2,-9.630000000000001,0.35,1.82,0.41,0.1,-0.05
4.595517992973328,2,3,3,2,-9.65,0.38,1.9,0.43,0.16,-0.02
4.605517983436584,2,3,3,2,-9.65,0.39,1.95,0.38,0.2,0.01
4.615517973899841,2,3,3,2,-9.65,0.37,1.94,0.33,0.13,0.01
4.625517964363098,2,3,3,2,-9.69,0.4,1.96,0.28,0.12,0.01
4.635517954826355,2,3,3,2,-9.68,0.38,1.81,0.29,0.13,-0.01
4.645517945289612,2,3,3,2,-9.66,0.41,1.84,0.3,0.13,-0.02
4.655517935752869,2,3,3,2,-9.65,0.41,1.92,0.29,0.15,-0.03
4.665517926216125,2,3,3,2,-9.640000000000001,0.4,1.97,0.2,0.17,-0.01
4.675517916679382,2,3,3,2,-9.640000000000001,0.39,1.92,0.19,0.17,-0.03
4.685517907142639,2,3,3,2,-9.65,0.38,1.85,0.15,0.11,-0.03
4.695517897605896,2,3,3,2,-9.68,0.39,1.91,0.15,0.1,-0.03
4.705517888069153,2,3,3,2,-9.69,0.35,1.95,0.21,0.12,-0.07000000000000001
4.71551787853241,2,3,3,2,-9.69,0.36,1.92,0.25,0.11,-0.05
4.725517868995667,2,3,3,2,-9.68,0.36,1.91,0.25,0.11,-0.05
4.735517859458923,2,3,3,2,-9.69,0.33,1.85,0.26,0.1,-0.09
4.745518088340759,2,3,3,2,-9.66,0.34,1.84,0.29,0.02,-0.08
4.755518078804016,2,3,3,2,-9.65,0.34,1.92,0.22,0.06,-0.04
4.765518069267273,2,3,3,2,-9.67,0.35,1.94,0.14,0.12,-0.04
4.77551805973053,2,3,3,2,-9.67,0.32,1.99,0.1,0.1,-0.02
4.785518050193787,2,3,3,2,-9.630000000000001,0.33,1.93,0.16,0.12,-0.02
4.795518040657043,2,3,3,2,-9.65,0.35,1.92,0.26,0.14,-0.03
4.8055180311203,2,3,3,2,-9.66,0.36,1.93,0.26,0.17,-0.04
4.815518021583557,2,3,3,2,-9.69,0.35,1.9,0.24,0.16,-0.03
4.825518012046814,2,3,3,2,-9.69,0.4,1.85,0.2,0.15,-0.03
4.835518002510071,2,3,3,2,-9.66,0.38,1.82,0.06,0.1,-0.03
4.845517992973328,2,3,3,2,-9.66,0.34,1.88,-0.03,0,-0.06
4.855517983436584,2,3,3,2,-9.67,0.32,1.93,0.03,-0.03,-0.09
4.865517973899841,2,3,3,2,-9.65,0.37,1.97,0.14,-0.03,-0.08
4.87651789188385,2,3,3,2,-9.68,0.35,1.93,0.22,-0.01,-0.05
4.886517882347107,2,3,3,2,-9.69,0.36,1.82,0.28,0.06,-0.02
4.896517872810364,2,3,3,2,-9.69,0.38,1.83,0.24,0.11,-0.02
4.906517863273621,2,3,3,2,-9.720000000000001,0.39,1.87,0.18,0.1,0
4.916518092155457,2,3,3,2,-9.69,0.4,1.9,0.08,0.09,0
4.926518082618713,2,3,3,2,-9.66,0.36,1.88,0.01,0.01,-0.01
4.93651807308197,2,3,3,2,-9.66,0.39,1.85,-0.02,0,-0.03
4.946518063545227,2,3,3,2,-9.640000000000001,0.35,1.94,-0.06,-0.01,-0.04
4.956518054008484,2,3,3,2,-9.65,0.36,1.97,-0.07000000000000001,-0.01,-0.07000000000000001
4.966518044471741,2,3,3,2,-9.630000000000001,0.35,1.94,0.03,-0.05,-0.09
4.976518034934998,2,3,3,2,-9.640000000000001,0.35,1.94,0.12,-0.02,-0.13
4.986518025398254,2,3,3,2,-9.69,0.35,1.8,0.11,0.02,-0.11
4.996518015861511,2,3,3,2,-9.699999999999999,0.35,1.84,0.06,0.04,-0.09
5.006518006324768,2,3,3,2,-9.720000000000001,0.35,1.85,-0.02,0.03,-0.05
5.016517996788025,2,3,3,2,-9.720000000000001,0.35,1.85,-0.09,0,-0.02
5.026517987251282,2,3,3,2,-9.67,0.34,1.9,-0.1,-0.03,-0.01
5.036517977714539,2,3,3,2,-9.66,0.33,1.85,-0.09,0,-0.03
5.046517968177795,2,3,3,2,-9.65,0.34,1.88,-0.03,-0.01,-0.05
5.056517958641052,2,3,3,2,-9.69,0.37,1.96,-0.04,0,-0.02
5.066517949104309,2,3,3,2,-9.69,0.37,1.96,-0.01,0.02,-0.02
5.076517939567566,2,3,3,2,-9.68,0.38,1.93,-0.02,0.02,-0.05
5.086517930030823,2,3,3,2,-9.68,0.37,1.89,-0.06,0.01,-0.02
5.09651792049408,2,3,3,2,-9.67,0.37,1.79,-0.08,-0.01,-0.04
5.106517910957336,2,3,3,2,-9.66,0.35,1.94,-0.09,-0.07000000000000001,-0.03
5.116517901420593,2,3,3,2,-9.65,0.32,1.94,-0.09,-0.07000000000000001,-0.03
5.12651789188385,2,3,3,2,-9.65,0.35,1.95,-0.01,-0.04,-0.07000000000000001
5.136517882347107,2,3,3,2,-9.66,0.33,1.91,-0.06,-0.01,-0.07000000000000001
5.146517872810364,2,3,3,2,-9.68,0.3,1.84,-0.03,-0.02,-0.04
5.156517863273621,2,3,3,2,-9.66,0.32,1.9,0.01,-0.03,-0.03
5.166518092155457,2,3,3,2,-9.65,0.33,1.9,0.02,0.02,0
5.176518082618713,2,3,3,2,-9.65,0.33,1.92,0,0.02,-0.01
5.18651807308197,2,3,3,2,-9.710000000000001,0.35,1.89,-0.01,0.05,0
5.196518063545227,2,3,3,2,-9.710000000000001,0.37,1.84,-0.02,-0.02,0.01
5.206518054008484,2,3,3,2,-9.69,0.37,1.85,-0.01,-0.01,0.02
5.216518044471741,2,3,3,2,-9.65,0.38,1.89,-0.01,-0.01,0.02
5.226518034934998,2,3,3,2,-9.65,0.34,1.92,-0.1,0,-0.04
5.236518025398254,2,3,3,2,-9.66,0.36,1.96,-0.1,-0.05,-0.05
5.246518015861511,2,3,3,2,-9.66,0.36,1.88,-0.04,-0.03,-0.04
5.256518006324768,2,3,3,2,-9.66,0.35,1.91,-0.04,-0.01,-0.09
5.266517996788025,2,3,3,2,-9.66,0.34,1.92,-0.04,-0.01,-0.09
5.276517987251282,2,3,3,2,-9.66,0.35,1.97,-0.03,-0.04,-0.1
5.286517977714539,2,3,3,2,-9.65,0.33,1.97,0,-0.01,-0.08
5.296517968177795,2,3,3,2,-9.66,0.31,1.85,0.02,0.03,-0.06
5.306517958641052,2,3,3,2,-9.67,0.33,1.89,0.02,0.05,-0.06
5.316517949104309,2,3,3,2,-9.68,0.34,1.94,0.02,0.05,-0.06
5.326517939567566,2,3,3,2,-9.67,0.33,1.97,0.02,-0.02,0.02
5.336517930030823,2,3,3,2,-9.68,0.37,1.88,0.06,0,-0.01
5.34651792049408,2,3,3,2,-9.69,0.39,1.84,0.09,-0.02,0.03
5.356517910957336,2,3,3,2,-9.68,0.37,1.9,0.06,-0.03,-0.01
5.366517901420593,2,3,3,2,-9.66,0.36,1.9,0.06,-0.03,-0.01
5.37651789188385,2,3,3,2,-9.66,0.35,1.93,-0.01,0.06,-0.03
5.386517882347107,2,3,3,2,-9.69,0.38,1.96,-0.06,-0.03,-0.04
5.396517872810364,2,3,3,2,-9.66,0.36,1.85,-0.02,-0.01,-0.07000000000000001
5.406517863273621,2,3,3,2,-9.65,0.35,1.85,-0.01,-0.03,-0.05
5.416518092155457,2,3,3,2,-9.65,0.34,1.9,-0.01,-0.03,-0.05
5.426518082618713,2,3,3,2,-9.66,0.32,1.98,-0.05,0.04,-0.09
5.43651807308197,2,3,3,2,-9.67,0.33,1.97,-0.07000000000000001,0.04,-0.09
5.446518063545227,2,3,3,2,-9.67,0.31,1.89,-0.07000000000000001,0.03,-0.1
5.456518054008484,2,3,3,2,-9.66,0.29,1.93,-0.09,0.04,-0.08
5.466518044471741,2,3,3,2,-9.65,0.3,1.96,-0.09,0.04,-0.08
5.476518034934998,2,3,3,2,-9.66,0.3,1.99,-0.02,0.05,-0.01
5.486518025398254,2,3,3,2,-9.68,0.34,1.92,0.04,0.03,0.04
5.496518015861511,2,3,3,2,-9.66,0.31,1.86,0.06,0.04,0.02
5.506518006324768,2,3,3,2,-9.67,0.31,1.87,0.06,0.04,0.02
5.516517996788025,2,3,3,2,-9.67,0.33,1.92,0.09,0.04,0.01
5.526517987251282,2,3,3,2,-9.67,0.3,1.93,0.13,0.08,0
5.536517977714539,2,3,3,2,-9.66,0.34,1.92,0.06,0.11,0
5.546517968177795,2,3,3,2,-9.65,0.35,1.87,0,0.11,-0.01
5.556517958641052,2,3,3,2,-9.67,0.35,1.92,-0.06,0.05,-0.01
5.576517939567566,2,3,3,2,-9.67,0.35,1.95,0.02,0,0.02
5.606517910957336,2,3,3,2,-9.640000000000001,0.35,1.91,-0.02,0.13,0.04
5.636517882347107,2,3,3,2,-9.65,0.3,1.85,0.08,0.04,0.03
5.666518092155457,2,3,3,2,-9.69,0.28,1.97,-0.06,0.14,0.06
5.676518082618713,2,3,3,2,-9.65,0.29,1.97,0,0.14,0.04
5.68651807308197,2,3,3,2,-9.65,0.3,1.94,0.12,0.19,0.02
5.696518063545227,2,3,3,2,-9.67,0.29,1.88,0.12,0.17,0.04
5.706518054008484,2,3,3,2,-9.67,0.33,1.87,0.12,0.11,0.03
5.716518044471741,2,3,3,2,-9.67,0.33,1.92,0.15,0.05,0.05
5.726518034934998,2,3,3,2,-9.67,0.36,1.93,0.14,0.01,0.01
5.736518025398254,2,3,3,2,-9.65,0.32,1.95,0.13,0,-0.02
5.746518015861511,2,3,3,2,-9.67,0.33,1.8,0.12,0.05,-0.02
5.756518006324768,2,3,3,2,-9.65,0.34,1.91,0.09,0.08,-0.01
5.766517996788025,2,3,3,2,-9.66,0.34,1.93,0.07000000000000001,0.1,-0.01
5.776517987251282,2,3,3,2,-9.66,0.34,1.92,0.06,0.05,-0.01
5.786517977714539,2,3,3,2,-9.67,0.34,1.91,0.07000000000000001,0.04,-0.02
5.796517968177795,2,3,3,2,-9.67,0.36,1.85,0.03,0.05,-0.04
5.806517958641052,2,3,3,2,-9.68,0.29,1.89,-0.04,0.07000000000000001,-0.03
5.816517949104309,2,3,3,2,-9.68,0.3,1.92,-0.08,0.06,-0.06
5.826517939567566,2,3,3,2,-9.69,0.29,1.99,-0.09,0.05,-0.06
5.836517930030823,2,3,3,2,-9.67,0.29,1.97,-0.03,0.02,-0.05
5.84651792049408,2,3,3,2,-9.65,0.27,1.92,0.02,-0.01,-0.05
5.856517910957336,2,3,3,2,-9.66,0.29,1.89,0.12,0,-0.02
5.866517901420593,2,3,3,2,-9.68,0.33,1.91,0.15,0.04,-0.02
5.87651789188385,2,3,3,2,-9.699999999999999,0.34,1.88,0.22,0.02,0.02
5.886517882347107,2,3,3,2,-9.68,0.38,1.9,0.2,0.04,0.05
5.897518038749695,2,3,3,2,-9.68,0.4,1.8,0.15,0.05,0.04
5.907518029212952,2,3,3,2,-9.630000000000001,0.38,1.85,0.06,0.03,0.02
5.917518019676208,2,3,3,2,-9.65,0.36,1.93,0.02,0.08,0.01
5.927518010139465,2,3,3,2,-9.68,0.33,1.96,-0.07000000000000001,0.09,-0.05
5.937518000602722,2,3,3,2,-9.65,0.3,2,-0.1,0.05,-0.07000000000000001
5.947517991065979,2,3,3,2,-9.68,0.29,1.87,-0.07000000000000001,0.05,-0.08
5.967517971992493,2,3,3,2,-9.68,0.29,1.92,0.03,0.06,-0.03
5.97751796245575,2,3,3,2,-9.67,0.32,1.94,0.12,0.06,0.04
5.987517952919006,2,3,3,2,-9.67,0.36,1.82,0.17,0.09,0.12
5.997517943382263,2,3,3,2,-9.68,0.36,1.79,0.23,0.14,0.14
6.00751793384552,2,3,3,2,-9.67,0.39,1.83,0.19,0.21,0.17
6.017517924308777,2,3,3,2,-9.65,0.41,1.89,0.08,0.2,0.21
6.027517914772034,2,3,3,2,-9.66,0.43,1.9,0.03,0.19,0.2
6.037517905235291,2,3,3,2,-9.65,0.41,1.86,-0.02,0.25,0.23
6.047517895698547,2,3,3,2,-9.640000000000001,0.42,1.81,-0.01,0.26,0.23
6.057517886161804,2,3,3,2,-9.640000000000001,0.41,1.85,-0.08,0.32,0.22
6.087517857551575,2,3,3,3,-9.68,0.33,1.9,-0.1,0.58,0.35
6.097518086433411,2,3,3,3,-9.779999999999999,0.35,1.95,-0.18,0.6,0.39
6.107518076896667,2,3,3,3,-9.75,0.34,2.01,-0.31,0.5,0.48
6.117518067359924,2,3,3,3,-9.59,0.29,1.88,-0.27,0.07000000000000001,0.64
6.127518057823181,2,3,3,3,-9.539999999999999,0.32,1.79,0.23,0.12,0.75
6.137518048286438,2,3,3,3,-9.630000000000001,0.3,1.85,0.33,0.5,0.79
6.147518038749695,2,3,3,3,-9.699999999999999,0.31,1.84,0.24,0.78,0.8
6.157518029212952,2,3,3,3,-9.73,0.32,1.85,0.29,0.82,0.86
6.167518019676208,2,3,3,3,-9.73,0.37,1.84,0.47,0.74,0.96
6.177518010139465,2,3,3,3,-9.779999999999999,0.43,1.76,0.65,0.8100000000000001,1.1
6.187518000602722,2,3,3,3,-9.779999999999999,0.43,1.74,0.72,0.95,1.26
6.197517991065979,2,3,3,3,-9.81,0.47,1.67,0.73,1.01,1.39
6.207517981529236,2,3,3,3,-9.789999999999999,0.54,1.71,0.77,1.04,1.53
6.217517971992493,2,3,3,3,-9.73,0.62,1.74,0.87,0.97,1.67
6.22751796245575,2,3,3,3,-9.699999999999999,0.65,1.75,0.95,0.96,1.84
6.237517952919006,2,3,3,3,-9.67,0.71,1.76,1.09,1.02,1.94
6.247517943382263,2,3,3,3,-9.65,0.75,1.61,1.15,1.06,2.03
6.25751793384552,2,3,3,3,-9.630000000000001,0.77,1.65,1.26,1.09,2.06
6.267517924308777,2,3,3,3,-9.640000000000001,0.77,1.7,1.25,1.06,2.09
6.277517914772034,2,3,3,3,-9.630000000000001,0.8100000000000001,1.69,1.23,1.06,2.03
6.287517905235291,2,3,3,3,-9.630000000000001,0.86,1.67,1.22,0.91,1.97
6.297517895698547,2,3,3,3,-9.59,0.89,1.58,1.23,0.76,1.9
6.307517886161804,2,3,3,3,-9.550000000000001,0.93,1.6,1.3,0.65,1.86
6.317517876625061,2,3,3,3,-9.529999999999999,0.99,1.67,1.4,0.62,1.8
6.327517867088318,2,3,3,3,-9.48,1.13,1.78,1.45,0.61,1.78
6.337517857551575,2,3,3,3,-9.48,1.16,1.71,1.52,0.55,1.84
6.347518086433411,2,3,3,3,-9.449999999999999,1.18,1.56,1.72,0.49,1.94
6.357518076896667,2,3,3,3,-9.44,1.22,1.5,1.9,0.55,2.02
6.367518067359924,2,3,3,3,-9.44,1.36,1.53,1.9,0.6,2.14
6.377518057823181,2,3,3,3,-9.43,1.44,1.53,1.75,0.62,2.35
6.387518048286438,2,3,3,3,-9.35,1.47,1.52,1.58,0.54,2.58
6.397518038749695,2,3,3,3,-9.25,1.55,1.32,1.63,0.28,2.85
6.407518029212952,2,3,3,3,-8.960000000000001,1.69,1.15,1.88,0.13,3.19
6.417518019676208,2,3,3,3,-8.800000000000001,1.67,1.17,2.05,0.18,3.56
6.427518010139465,2,3,3,3,-8.710000000000001,1.6,1.26,1.87,0.25,3.92
6.437518000602722,2,3,3,3,-8.65,1.53,1.4,1.42,0.18,4.25
6.447517991065979,2,3,3,3,-8.550000000000001,1.53,1.4,1.27,-0.13,4.53
6.457517981529236,2,3,3,3,-8.460000000000001,1.61,1.27,1.51,-0.7,4.8
6.467517971992493,2,3,3,3,-8.26,1.62,1.17,2.13,-1.18,5.08
6.47751796245575,2,3,3,3,-8.109999999999999,1.72,1.21,2.58,-1.12,5.44
6.487517952919006,2,3,3,3,-7.85,1.7,0.93,2.95,-0.96,5.78
6.497517943382263,2,3,3,3,-7.34,1.59,0.57,3.68,-1.18,6.29
6.50751793384552,2,3,3,3,-7.01,1.49,0.75,3.74,-0.85,7.03
6.517517924308777,2,3,3,3,-6.58,1.22,1.41,2.58,-0.22,7.61
6.527517914772034,2,3,3,3,-6.31,1.25,1.65,1.93,-0.28,7.99
6.537517905235291,2,3,3,3,-6.09,1.25,1.61,2.66,-0.7,8.140000000000001
6.547517895698547,2,3,3,3,-5.86,1.2,1.07,4.06,-0.68,8.130000000000001
6.557517886161804,2,3,3,3,-6.04,1.22,0.92,5.28,0.46,7.96
6.567517876625061,2,3,3,3,-6.23,1.18,1.28,4.72,2.14,7.77
6.577517867088318,2,3,3,3,-6.43,0.93,1.49,3.08,2.95,7.72
6.587517857551575,2,3,3,3,-6.61,0.87,1.52,1.87,3.02,7.59
6.597518086433411,2,3,3,3,-7.05,1.08,1.52,1.41,2.49,7.01
6.607518076896667,2,3,3,3,-7.16,1.27,1.42,1.63,1.88,6.26
6.617518067359924,2,3,3,3,-7.49,1.4,1.51,2.22,1.66,5.55
6.627518057823181,2,3,3,3,-8.41,1.57,1.63,2.1,1.53,4.86
6.637518048286438,2,3,3,3,-8.949999999999999,1.77,1.68,1.71,1.24,4.16
6.647518038749695,2,3,3,3,-9.18,1.48,1.58,1.61,0.97,3.78
6.657518029212952,2,3,3,3,-9.390000000000001,1.39,1.58,1.59,0.75,3.91
6.667518019676208,2,3,3,3,-10.04,1.38,1.54,1.37,0.86,3.8
6.677518010139465,2,3,3,3,-9.800000000000001,1.36,1.32,0.4,0.78,3.31
6.687518000602722,2,3,3,3,-9.48,1.26,1.29,-0.63,0.09,2.89
6.697517991065979,2,3,3,3,-9.59,1.15,1.52,-1.54,0.08,2.48
6.707517981529236,2,3,3,3,-10,1.05,2.11,-2.05,0.18,1.8
6.717517971992493,2,3,3,3,-10.18,1.15,2.18,-1.59,-0.97,0.87
6.72751796245575,2,3,3,3,-10.55,1.2,2.39,-0.66,-1.76,0.01
6.737517952919006,2,3,3,3,-11.01,1.29,2.61,-0.08,-1.55,-0.68
6.747517943382263,2,3,3,3,-12.12,1.75,2.28,0.26,-1.18,-1.2
6.75751793384552,2,3,3,3,-12.55,2.1,2.28,0.3,-0.9,-1.57
6.767517924308777,2,3,3,3,-13.17,2.31,2.24,0.04,-0.8100000000000001,-1.77
6.777517914772034,2,3,3,3,-13.72,2.57,2.16,-0.41,-1.08,-1.84
6.787517905235291,2,3,3,3,-14.36,3.2,2.46,-0.32,-1.54,-2.09
6.797517895698547,2,3,3,3,-14.85,3.35,2.57,-0.13,-1.7,-2.3
6.807517886161804,2,3,3,3,-15.26,3.56,2.71,0.25,-1.34,-2.38
6.817517876625061,2,3,3,3,-16.3,3.8,2.95,0.45,-0.72,-2.32
6.827517867088318,2,3,3,3,-16.65,3.84,2.81,-0.36,-0.26,-2.04
6.837517857551575,2,3,3,3,-16.92,3.91,2.84,-1.39,0.24,-1.74
6.847518086433411,2,3,3,3,-17.13,3.91,2.91,-2.31,0.99,-1.29
6.857518076896667,2,3,3,3,-18.28,3.69,3.95,-2.65,1.71,-0.73
6.867518067359924,2,3,3,3,-18.87,3.56,4.59,-2.56,2.05,-0.39
6.877518057823181,2,3,3,3,-19.68,3.66,5.16,-1.85,1.57,-0.52
6.887518048286438,2,3,3,3,-20.64,3.55,5.18,-0.59,0.91,-0.75
6.897518038749695,2,3,3,3,-22.62,3.07,4.65,-0.01,0.79,-1.1
6.908517956733704,2,3,3,3,-23.68,2.89,4.88,0.68,1.65,-1.59
6.91851794719696,2,3,3,3,-24.61,2.54,4.97,-0.48,2.66,-1.82
6.928517937660217,2,3,3,3,-25.43,2.42,5.47,-1.66,3.25,-2.14
6.938517928123474,2,3,3,3,-25.74,1.65,4.71,-2.82,3.06,-2.99
6.948517918586731,2,3,3,3,-25.17,1.05,4.24,-3.19,2.18,-4.54
6.958517909049988,2,3,3,3,-24.15,0.48,4.29,-3.68,2.75,-6.41
6.968517899513245,2,3,3,3,-22.54,-0.29,3.94,-4.64,4.48,-8.130000000000001
6.978517889976501,2,3,3,3,-22.54,-0.29,3.94,-3.86,5.45,-9.35
6.988517880439758,2,3,3,3,-19.93,-0.65,3.86,-1.56,5.82,-9.720000000000001
6.998517870903015,2,3,3,3,-15.78,2.53,3.14,1.5,4.24,-8.390000000000001
7.008517861366272,2,3,3,3,-11.06,7.75,0.38,4.57,2.11,-5.99
7.018518090248108,2,3,3,3,-9.119999999999999,8.640000000000001,-2.88,8.49,0.83,-1.42
7.028518080711365,2,3,3,3,-9.119999999999999,8.640000000000001,-2.88,13.27,1.7,4.8
7.038518071174622,2,3,3,3,-7.17,8.77,-6.32,13.27,1.7,4.8
7.048518061637878,2,3,3,3,3.91,8.470000000000001,-1.44,7.39,2.33,5.38
7.058518052101135,2,3,3,3,7.62,10.17,0.16,-4.01,1.71,3.69
7.068518042564392,2,3,3,3,8.98,9.43,-1.31,2.34,-2.22,3.01
7.078518033027649,2,3,3,3,8.98,9.43,-1.31,2.34,-2.22,3.01
7.088518023490906,2,3,3,3,8.529999999999999,8.529999999999999,-5.5,12.52,-1.88,2.19
7.098518013954163,2,3,3,3,3.81,0.75,-3.09,-2.62,1.67,-1.43
7.108518004417419,2,3,3,3,1.28,-0.84,0.96,-12.28,3.44,-3
7.118517994880676,2,3,3,3,0.03,-0.96,2.38,-13.95,-0.92,-3.42
7.128517985343933,2,3,3,3,0.03,-0.96,2.38,-13.95,-0.92,-3.42
7.13851797580719,2,3,3,3,0.26,0.03,1.35,-11.33,-4.51,-3.94
7.148517966270447,2,3,3,3,1.06,0.36,1.46,-8.470000000000001,-3.69,-5.91
7.158517956733704,2,3,3,3,0.79,-1.26,1.84,-6.51,-2.15,-6.07
7.16851794719696,2,3,3,3,-1.55,-2.82,1.31,-2.27,-2.43,-6.38
7.178517937660217,2,3,3,3,-1.55,-2.82,1.31,1.98,-2.97,-5.96
7.188517928123474,2,3,3,3,-2.43,-2.52,0.92,4.84,-2.53,-4.61
7.198517918586731,2,3,3,3,-2.72,-1.39,0.32,4.96,-2.1,-3.22
7.208517909049988,2,3,3,3,-2.58,-1,-0.5,3.51,-1.05,-1.74
7.218517899513245,2,3,3,3,-2.59,-1.01,-0.89,2.15,1.61,-0.14
7.228517889976501,2,3,3,3,-2.59,-1.01,-0.89,2.15,1.61,-0.14
7.238517880439758,2,3,3,3,-2.79,-0.71,-0.63,1.42,3.2,1.35
7.248517870903015,2,3,3,3,-0.5600000000000001,0.7,0.07000000000000001,1.63,-2.3,4.42
7.258517861366272,2,3,3,3,-0.5600000000000001,0.7,0.07000000000000001,2.76,-2.9,5.36
7.268518090248108,2,3,3,3,0.73,0.7,-0.21,4.11,-1.22,5.33
7.278518080711365,2,3,3,3,1.72,0.58,-0.44,4.11,-1.22,5.33
7.288518071174622,2,3,3,3,1.79,0.35,0.04,4.82,0.68,5.08
7.298518061637878,2,3,3,3,1.46,0.15,0.39,6.22,-0.2,5
7.308518052101135,2,3,3,3,1.43,0.11,0.32,8.33,-0.89,4.53
7.318518042564392,2,3,3,3,1.29,0.33,0.06,9.52,-1.34,3.76
7.328518033027649,2,3,3,3,0.77,0.79,-0.88,9.52,-1.34,3.76
7.338518023490906,2,3,3,3,0.59,0.99,-1.41,9.31,-1.44,2.81
7.348518013954163,2,3,3,3,0.46,1.22,-1.66,3.86,-0.21,1.59
7.358518004417419,2,3,3,3,0.22,1.33,-1.64,-0.17,-1.91,1.03
7.368517994880676,2,3,3,3,-1.22,1.48,-0.1,-2.49,-6.49,-0.02
7.378517985343933,2,3,3,3,-1.25,1.76,0.54,-2.49,-6.49,-0.02
7.38851797580719,2,3,3,3,-0.09,2.61,1.12,-2.29,-9.449999999999999,-1.62
7.398517966270447,2,3,3,3,0.51,3.3,-0.26,-0.47,-5.35,-4.76
7.408517956733704,2,3,3,3,-0.22,5.46,1.21,-1.65,-3.44,-6.62
7.41851794719696,2,3,3,3,-2.02,6.61,0.96,-2.27,-3.55,-9.880000000000001
7.428517937660217,2,3,3,3,-5.9,10.06,1.47,-2.27,-3.55,-9.880000000000001
7.438517928123474,2,3,3,3,-18.01,10.22,5.48,-6.53,-4.9,-13
7.448517918586731,2,3,3,3,-30.74,9.6,8.210000000000001,-23.31,-22.91,-34.13
7.458517909049988,2,3,3,3,-37.65,8.57,7.46,-28.47,-2.08,-31.9
7.468517899513245,2,3,3,3,-32.14,0.12,-1.03,-25.44,34.93,-10.32
7.478517889976501,2,3,3,3,-39.29,-10.09,4.2,-25.44,34.93,-10.32
7.488517880439758,2,3,3,3,-39.27,-7.06,1.13,-10.58,-1.89,-4.51
7.498517870903015,2,3,3,3,-32.8,-5.72,5.52,7.43,1.24,4.39
7.508517861366272,2,3,3,3,-17.67,-1.12,6.63,0.2,3.65,5.19
7.518518090248108,2,3,3,3,-9.470000000000001,-1.18,8.82,-0.5,-0.4,2.29
7.528518080711365,2,3,3,3,-10.75,-4.01,7.51,-0.5,-0.4,2.29
7.538518071174622,2,3,3,3,-13.63,-4.9,5.79,2.42,-1.51,-1.15
7.548518061637878,2,3,3,3,-16.02,-4.65,4.69,7.45,-0.57,-2.28
7.558518052101135,2,3,3,3,-18.19,-3.24,2.9,7.37,3.41,0.61
7.568518042564392,2,3,3,3,-18.09,-2.81,2.8,7.38,6.8,4.14
7.578518033027649,2,3,3,3,-17.73,-2.11,3.41,7.38,6.8,4.14
7.588518023490906,2,3,3,3,-17.07,-1.33,4,8.140000000000001,7.61,7.3
7.598518013954163,2,3,3,3,-15.89,0.34,3.44,8.67,-0.35,11.79
7.608518004417419,2,3,3,3,-14.97,1.62,2.68,9.33,-4.26,12.36
7.618517994880676,2,3,3,3,-13.19,2.62,1.55,9.24,-4.64,10.32
7.628517985343933,2,3,3,3,-9.94,3.65,0.72,9.24,-4.64,10.32
7.63851797580719,2,3,3,3,-8.880000000000001,4.22,0.96,7.5,-4.99,6.41
7.648517966270447,2,3,3,3,-8.199999999999999,3.24,1.22,5.78,1.3,2.12
7.658517956733704,2,3,3,3,-7.41,3.92,1.03,3.24,3.59,0.55
7.66851794719696,2,3,3,3,-6.47,3.57,0.54,0.3,5.16,-0.1
7.678517937660217,2,3,3,3,-6.09,3.28,0.44,0.3,5.16,-0.1
7.688517928123474,2,3,3,3,-6.21,3.06,0.13,-1.96,6.66,-0.37
7.698517918586731,2,3,3,3,-6.62,2.89,-0.07000000000000001,-3.95,6.91,-0.59
7.708517909049988,2,3,3,3,-7.02,2.37,-0.06,-5.79,5.07,-0.76
7.718517899513245,2,3,3,3,-6.71,2.14,0.19,-6.98,2.54,-0.83
7.728517889976501,2,3,3,3,-6.23,1.99,0.59,-7.57,0.83,-0.63
7.738517880439758,2,3,3,3,-5.78,1.69,0.87,-7.81,0.3,-0.11
7.748517870903015,2,3,3,3,-5.11,0.78,0.86,-7.21,0.39,0.54
7.758517861366272,2,3,3,3,-4.99,0.51,0.61,-5.83,1.26,0.87
7.768518090248108,2,3,3,3,-5.24,0.45,0.59,-4.52,1.97,1.23
7.778518080711365,2,3,3,3,-5.69,0.53,0.66,-3.68,2.38,1.32
7.788518071174622,2,3,3,3,-6.35,0.74,0.93,-2.93,1.99,1.14
7.798518061637878,2,3,3,3,-6.78,1.06,1.16,-2.47,1.25,0.75
7.808518052101135,2,3,3,3,-7.2,1.31,1.15,-2.06,0.44,0.18
7.818518042564392,2,3,3,3,-8.01,1.8,1.03,-1.32,0.13,-0.74
7.828518033027649,2,3,3,3,-8.789999999999999,1.87,1.23,-0.89,0.58,-1.86
7.838518023490906,2,3,3,3,-9.550000000000001,1.82,1.46,-1.24,0.79,-2.95
7.848518013954163,2,3,3,3,-10.09,1.73,1.58,-1.56,0.49,-3.83
7.858518004417419,2,3,3,3,-10.47,1.4,1.24,-1.78,0.39,-4.48
7.868517994880676,2,3,3,3,-10.68,1.3,1.09,-2.29,0.55,-4.73
7.878517985343933,2,3,3,3,-10.78,0.98,1.04,-3.4,0.92,-4.61
7.88851797580719,2,3,3,3,-10.96,0.54,1.17,-4.83,0.79,-4.1
7.898517966270447,2,3,3,3,-10.92,-0.07000000000000001,1.66,-5.93,0.16,-3.39
7.908517956733704,2,3,3,3,-10.99,-0.27,1.94,-6.11,-0.72,-2.6
7.91851794719696,2,3,3,3,-11.17,-0.46,2.25,-5.27,-1.5,-1.88
7.928517937660217,2,3,3,3,-11.24,-0.58,2.38,-3.77,-2.24,-1.33
7.938517928123474,2,3,3,3,-10.79,-0.54,2.01,-1.83,-2.44,-0.71
7.949518084526062,2,3,3,3,-10.37,-0.37,1.81,-0.05,-1.97,-0.01
7.959518074989319,2,3,3,3,-10.05,-0.19,1.73,0.9399999999999999,-1.15,0.66
7.969518065452576,2,3,3,3,-9.869999999999999,0.07000000000000001,1.85,1.4,-0.46,1.24
7.979518055915833,2,3,3,3,-9.630000000000001,0.7,1.96,1.66,-0.05,1.66
7.989518046379089,2,3,3,3,-9.539999999999999,0.97,2,1.7,0.13,1.8
7.999518036842346,2,3,3,3,-9.49,1.21,1.99,1.53,0.16,1.84
8.009518027305603,2,3,3,3,-9.369999999999999,1.35,1.92,1.26,0.09,1.69
8.01951801776886,2,3,3,3,-9.199999999999999,1.59,1.81,1.03,-0.13,1.6
8.029518008232117,2,3,3,3,-9.119999999999999,1.7,1.71,1.01,-0.48,1.61
8.039517998695374,2,3,3,3,-9.09,1.74,1.67,0.89,-0.65,1.61
8.04951798915863,2,3,3,3,-9.130000000000001,1.73,1.45,0.54,-0.59,1.52
8.059517979621887,2,3,3,3,-9.039999999999999,1.72,1.29,0.29,-0.45,1.38
8.069517970085144,2,3,3,3,-8.970000000000001,1.79,1.31,0.15,-0.14,1.16
8.079517960548401,2,3,3,3,-8.94,1.77,1.33,-0.26,0.26,0.8
8.089517951011658,2,3,3,3,-8.98,1.6,1.37,-0.61,0.46,0.36
8.099517941474915,2,3,3,3,-9.109999999999999,1.59,1.46,-0.59,0.47,-0.22
8.109517931938171,2,3,3,3,-9.210000000000001,1.51,1.44,-0.55,-0.04,-0.71
8.119517922401428,2,3,3,3,-9.25,1.4,1.52,-0.41,-0.79,-0.97
8.129517912864685,2,3,3,3,-9.41,1.42,1.65,-0.17,-1.12,-1.06
8.139517903327942,2,3,3,3,-9.52,1.39,1.66,-0.1,-1.04,-1.07
8.149517893791199,2,3,3,3,-9.720000000000001,1.31,1.61,-0.13,-0.88,-0.99
8.159517884254456,2,3,3,3,-9.92,1.24,1.48,-0.27,-0.82,-0.89
8.169517874717712,2,3,3,3,-9.970000000000001,1.05,1.46,-0.6899999999999999,-0.91,-0.67
8.179517865180969,2,3,3,3,-9.82,0.95,1.5,-1.03,-0.99,-0.29
8.189518094062805,2,3,3,3,-9.65,0.86,1.59,-1.27,-0.86,0.16
8.199518084526062,2,3,3,3,-9.529999999999999,0.8,1.76,-1.46,-0.52,0.6
8.209518074989319,2,3,3,3,-9.6,0.93,1.85,-1.43,-0.16,0.93
8.219518065452576,2,3,3,3,-9.67,1,1.94,-1.09,0.06,1.15
8.229518055915833,2,3,3,3,-9.75,1.08,1.93,-0.6,0.08,1.2
8.239518046379089,2,3,3,3,-9.609999999999999,1.28,1.76,0.08,0.01,1.21
8.249518036842346,2,3,3,3,-9.449999999999999,1.43,1.61,0.71,0.02,1.34
8.259518027305603,2,3,3,3,-9.23,1.56,1.43,1.16,0.16,1.62
8.26951801776886,2,3,3,3,-9,1.66,1.33,1.31,0.42,1.86
8.279518008232117,2,3,3,3,-8.710000000000001,1.83,1.27,1.29,0.85,2.14
8.289517998695374,2,3,3,3,-8.65,1.91,1.29,0.9399999999999999,1.13,2.31
8.29951798915863,2,3,3,3,-8.6,1.95,1.32,0.51,1.27,2.38
8.309517979621887,2,3,3,3,-8.57,2.01,1.28,0.17,1.25,2.29
8.319517970085144,2,3,3,3,-8.369999999999999,1.99,1.23,-0.09,1.23,2.1
8.329517960548401,2,3,3,3,-8.300000000000001,2,1.31,-0.39,1.45,1.9
8.339517951011658,2,3,3,3,-8.25,1.97,1.41,-0.84,1.77,1.73
8.349517941474915,2,3,3,3,-8.130000000000001,1.99,1.44,-0.9399999999999999,2.01,1.62
8.359517931938171,2,3,3,3,-7.96,1.99,1.39,-0.71,2.18,1.57
8.369517922401428,2,3,3,3,-7.91,1.9,1.48,-0.21,2.19,1.65
8.379517912864685,2,3,3,3,-8.07,1.76,1.6,0.29,2,1.58
8.389517903327942,2,3,3,3,-8.26,1.67,1.74,0.75,1.1,1.31
8.399517893791199,2,3,3,3,-7.9,1.88,0.84,1.65,-0.55,0.86
8.409517884254456,2,3,3,3,-7.97,1.85,0.39,2.94,-1.42,0.16
8.419517874717712,2,3,3,3,-8.84,1.89,0.86,2.16,-0.53,-0.73
8.429517865180969,2,3,3,3,-10.72,1.17,2.72,-0.61,-0.08,-1.64
8.439518094062805,2,3,3,3,-11.01,0.61,2.72,-2.3,-1.62,-2.48
8.449518084526062,2,3,3,3,-10.65,0.05,2.25,-2.53,-3.37,-2.86
8.459518074989319,2,3,3,3,-10.27,-0.25,1.86,-2.61,-2.91,-2.68
8.469518065452576,2,3,3,3,-10.6,-0.32,2.63,-2.72,-0.9399999999999999,-1.97
8.479518055915833,2,3,3,3,-11.21,-0.2,2.67,-1.9,0.26,-1.24
8.489518046379089,2,3,3,3,-11.61,-0.04,2.38,-0.08,-0.2,-0.68
8.499518036842346,2,3,3,3,-11.79,0.15,1.98,1.54,-1.34,-0.15
8.509518027305603,2,3,3,3,-11.88,0.8100000000000001,1.33,2.57,-1.15,0.52
8.51951801776886,2,3,3,3,-11.9,1.17,1.47,2.58,0.05,1.25
8.529518008232117,2,3,3,3,-11.75,1.47,1.6,2.1,0.8,1.85
8.539517998695374,2,3,3,3,-11.52,1.75,1.7,1.46,0.78,2.25
8.54951798915863,2,3,3,3,-10.94,1.91,1.64,0.7,0.28,2.48
8.559517979621887,2,3,3,3,-10.5,1.91,1.68,0.31,-0.72,2.53
8.569517970085144,2,3,3,3,-10.05,1.95,1.89,0.16,-1.44,2.41
8.579517960548401,2,3,3,3,-9.640000000000001,1.99,1.97,0.4,-1.44,2.27
8.589517951011658,2,3,3,3,-9.130000000000001,2.13,1.69,1.06,-0.96,2.29
8.599517941474915,2,3,3,3,-8.85,2.11,1.46,1.72,-0.38,2.57
8.609517931938171,2,3,3,3,-8.58,2.12,1.23,2.05,0.21,3.07
8.619517922401428,2,3,3,3,-8.050000000000001,2.07,1.18,1.84,0.59,3.6
8.629517912864685,2,3,3,3,-7.79,2.08,1.12,1.48,0.87,4.02
8.639517903327942,2,3,3,3,-7.54,2.06,1.01,1.18,1.01,4.24
8.649517893791199,2,3,3,3,-7.39,2.11,1.02,1.29,1.09,4.23
8.659517884254456,2,3,3,3,-7.29,2.29,1.02,1.49,1.2,4.23
8.669517874717712,2,3,3,3,-7.46,2.44,1.22,1.73,1.39,4.14
8.679517865180969,2,3,3,3,-7.73,2.6,1.32,1.73,1.36,3.99
8.689518094062805,2,3,3,3,-7.95,2.77,1.25,1.95,0.87,3.83
8.699518084526062,2,3,3,3,-8.27,2.96,1,2.57,0.4,3.81
8.709518074989319,2,3,3,3,-8.27,2.79,0.73,2.98,0.42,4.06
8.719518065452576,2,3,3,3,-8.1,2.63,0.5,3.2,0.75,4.44
8.729518055915833,2,3,3,3,-7.69,2.51,0.29,3.33,1.04,4.98
8.739518046379089,2,3,3,3,-6.52,2.21,0.37,2.8,1.08,5.67
8.749518036842346,2,3,3,3,-5.92,2.18,0.63,1.85,0.83,6.28
8.759518027305603,2,3,3,3,-5.42,2.22,0.87,0.8,0.43,6.56
8.76951801776886,2,3,3,3,-5.07,2.33,1.04,0.49,-0.07000000000000001,6.33
8.779518008232117,2,3,3,3,-4.83,2.61,1.04,1.04,-0.39,5.81
8.789517998695374,2,3,3,3,-4.89,2.49,0.88,1.74,-0.35,5.31
8.79951798915863,2,3,3,3,-5.09,2.34,0.9,1.9,0.58,5.05
8.809517979621887,2,3,3,3,-5.46,2.24,0.97,1.61,2.1,5.16
8.819517970085144,2,3,3,3,-6.53,2.11,1.23,1.3,3.41,5.6
8.829517960548401,2,3,3,3,-7.2,1.95,1.42,0.88,3.98,6.04
8.839517951011658,2,3,3,3,-8.08,1.82,1.63,0.72,3.78,6.14
8.849517941474915,2,3,3,3,-8.77,1.97,1.45,0.87,2.55,5.49
8.859517931938171,2,3,3,3,-9.01,2.2,1.42,0.87,0.99,4.59
8.869517922401428,2,3,3,3,-9.42,2.42,1.48,0.61,0.22,3.6
8.879517912864685,2,3,3,3,-9.93,2.49,1.3,0,0.1,2.74
8.889517903327942,2,3,3,3,-11.06,1.97,1.2,-0.5,0.16,2.11
8.899517893791199,2,3,3,3,-11.28,1.74,1.56,-1.45,0.26,1.67
8.909517884254456,2,3,3,3,-11.49,1.61,2,-2.57,-0.23,1.12
8.919517874717712,2,3,3,3,-11.82,1.57,2.36,-3.01,-1.47,0.39
8.929517865180969,2,3,3,3,-12.82,1.93,2.71,-2.28,-2.71,-0.64
8.939518094062805,2,3,3,3,-13.61,2.13,2.95,-1.23,-2.47,-1.87
8.949518084526062,2,3,3,3,-14.46,2.18,3.1,-0.88,-2.13,-3.02
8.959518074989319,2,3,3,3,-15.11,2.17,3,-0.6899999999999999,-2.2,-3.84
8.970517992973328,2,3,3,3,-15.5,2.51,2.9,-0.17,-2.09,-4.25
8.980517983436584,2,3,3,3,-15.56,2.65,2.72,0.23,-1.27,-4.07
8.990517973899841,2,3,3,3,-15.78,2.78,2.66,0.16,-0.14,-3.56
9.000517964363098,2,3,3,3,-15.97,2.83,2.7,-0.04,0.64,-2.91
9.010517954826355,2,3,3,3,-16.3,2.83,3.12,-0.22,0.5,-2.29
9.020517945289612,2,3,3,3,-16.52,2.68,3.62,-0.88,0.06,-1.97
9.030517935752869,2,3,3,3,-16.51,2.88,3.93,-0.5600000000000001,-0.41,-2
9.040517926216125,2,3,3,3,-17.03,3.19,3.88,0.89,-0.8,-1.82
9.050517916679382,2,3,3,3,-17.65,3.27,3.88,1.95,-0.3,-1.35
9.060517907142639,2,3,3,3,-18.02,3.56,4.09,2.17,0.71,-1.1
9.070517897605896,2,3,3,3,-18.18,3.61,3.71,2.64,0.98,-0.5600000000000001
9.080517888069153,2,3,3,3,-19.31,3.69,4.15,2.55,1.47,0.27
9.09051787853241,2,3,3,3,-20.01,3.45,4.3,1.54,2.39,-0.01
9.100517868995667,2,3,3,3,-20.2,3.72,3.87,1.18,2.9,-0.53
9.110517859458923,2,3,3,3,-21.38,3.66,4,1.77,2.65,-1.65
9.120518088340759,2,3,3,3,-22.53,3.43,4.56,0.43,2.06,-3.04
9.130518078804016,2,3,3,3,-23.12,2.35,4.16,-1.49,1.44,-4.62
9.140518069267273,2,3,3,3,-23.71,0.74,4.31,-4.54,1.39,-6.87
9.15051805973053,2,3,3,3,-23.62,-0.98,5.21,-8.279999999999999,2.48,-9.92
9.160518050193787,2,3,3,3,-22.78,-3.94,5.56,-10.12,4.5,-12.53
9.170518040657043,2,3,3,3,-22.27,-4.51,5.31,-7.85,7.43,-14.09
9.1805180311203,2,3,3,3,-21.56,-4.18,4.67,-2.6,8.69,-14.39
9.190518021583557,2,3,3,3,-20.16,-3.17,3.62,4.18,7.91,-13.64
9.200518012046814,2,3,3,3,-17.12,3.84,1.93,11,6.3,-11.05
9.210518002510071,2,3,3,3,-15.91,7.38,0.01,15.65,3.4,-5.43
9.220517992973328,2,3,3,3,-13.19,8.92,-3.57,18.9,0.61,1.59
9.230517983436584,2,3,3,3,-5.56,9.890000000000001,-9.33,23.2,-0.05,7.77
9.240517973899841,2,3,3,3,-2.46,12.48,-5.66,25.11,1.65,10.17
9.250517964363098,2,3,3,3,-0.35,14.61,-2.88,17.65,5.32,8.279999999999999
9.260517954826355,2,3,3,3,4.05,16.84,-3.06,7.14,3.21,5.45
9.270517945289612,2,3,3,3,11.91,15.18,-9.44,8.1,-8.01,3.57
9.280517935752869,2,3,3,3,13.55,10.33,-12.12,10.3,-13.89,3.55
9.290517926216125,2,3,3,3,13.55,10.33,-12.12,-9.76,5.99,3.47
9.300517916679382,2,3,3,3,10.91,6.21,-7.55,-9.76,5.99,3.47
9.310517907142639,2,3,3,3,0.84,1.01,2.41,-24.59,15.05,-0.1
9.320517897605896,2,3,3,3,0.21,1.22,0.44,-25.23,11.5,-1.88
9.330517888069153,2,3,3,3,1.42,0.35,-0.45,-21.17,2.63,-1.88
9.34051787853241,2,3,3,3,1.42,0.35,-0.45,-21.17,2.63,-1.88
9.350517868995667,2,3,3,3,2.78,-1.13,0.03,-20,0.06,-4.48
9.360517859458923,2,3,3,3,0.01,-5.21,0.46,-11.69,-0.75,-5.07
9.370518088340759,2,3,3,3,-1.48,-4.84,0.47,-6.95,-1.46,-4.29
9.380518078804016,2,3,3,3,-3.09,-4.38,0.67,-3.84,-2.14,-3.49
9.390518069267273,2,3,3,3,-3.09,-4.38,0.67,-3.84,-2.14,-3.49
9.40051805973053,2,3,3,3,-4.49,-3.07,0.49,-1.08,-2.64,-2.69
9.410518050193787,2,3,3,3,-4.68,-2.65,-0.17,-0.31,0.6899999999999999,-0.91
9.420518040657043,2,3,3,3,-4.68,-2.65,-0.17,-0.39,2.25,0.04
9.4305180311203,2,3,3,3,-3.99,-2.57,0.43,0.36,0.8100000000000001,1.32
9.440518021583557,2,3,3,3,-2.97,-1.91,0.77,0.36,0.8100000000000001,1.32
9.450518012046814,2,3,3,3,-1.51,-1.38,0.7,1.69,-1.64,2.47
9.460518002510071,2,3,3,3,-0.24,-1.14,0.75,4.87,-1.3,3.53
9.470517992973328,2,3,3,3,1.02,-1.08,0.08,6.78,-0.59,3.64
9.480517983436584,2,3,3,3,1.31,-0.71,-0.18,6.67,-1.04,4.2
9.490517973899841,2,3,3,3,1.25,-0.55,0.25,6.67,-1.04,4.2
9.500517964363098,2,3,3,3,1.43,-0.83,0.33,7.7,-3.39,4.97
9.510517954826355,2,3,3,3,1.95,-0.76,-0.39,9.99,-4.13,5.75
9.520517945289612,2,3,3,3,1.58,-0.49,-0.35,9.34,-3.6,5.81
9.530517935752869,2,3,3,3,1.38,-0.23,-0.29,8.81,-2.93,5.44
9.540517926216125,2,3,3,3,1.31,0.34,-0.43,8.81,-2.93,5.44
9.550517916679382,2,3,3,3,1.29,1.74,-0.84,7.72,-1.89,4.59
9.560517907142639,2,3,3,3,1.05,2.18,-0.9399999999999999,4.35,-1.19,0.64
9.570517897605896,2,3,3,3,0.58,2.38,-0.79,2.57,-2.88,-1.7
9.580517888069153,2,3,3,3,0.3,2.3,-0.5600000000000001,1.58,-3.76,-3.88
9.59051787853241,2,3,3,3,0.64,2.13,-1.16,1.58,-3.76,-3.88
9.600517868995667,2,3,3,3,0.03,2.09,-1.33,0.25,-3.81,-5.56
9.610517859458923,2,3,3,3,-0.42,2.55,-0.18,-2.33,-3.5,-7.27
9.620518088340759,2,3,3,3,-0.8,2.64,-0.43,-1.31,-3.22,-7.35
9.630518078804016,2,3,3,3,-2.79,3.47,0.65,-0.31,-6.3,-6.45
9.640518069267273,2,3,3,3,-4.1,4.86,1.23,-0.31,-6.3,-6.45
9.65051805973053,2,3,3,3,-5.92,7.42,0.62,1.79,-8.98,-6.03
9.660518050193787,2,3,3,3,-17.18,11.32,5.52,-9.57,-10.5,-15.03
9.670518040657043,2,3,3,3,-26.6,12.58,6.71,-20.2,-21.89,-23.69
9.6805180311203,2,3,3,3,-31.86,13.03,5.4,-31.93,-16.08,-21.3
9.690518021583557,2,3,3,3,-27.43,7.17,-0.62,-31.93,-16.08,-21.3
9.700518012046814,2,3,3,3,-33.78,-9.44,3.64,-28.83,14.24,-9.869999999999999
9.710518002510071,2,3,3,3,-39.29,-10.11,7.17,-6.07,-4.02,-2.4
9.720517992973328,2,3,3,3,-38.97,-12.65,7.21,9.800000000000001,-2.17,-2.34
9.730517983436584,2,3,3,3,-30.82,-5.25,7.87,13.92,1.51,-1.19
9.740517973899841,2,3,3,3,-14.06,2.54,8.050000000000001,13.92,1.51,-1.19
9.750517964363098,2,3,3,3,-12.14,0.82,6.99,11.9,-2.25,-4
9.760517954826355,2,3,3,3,-13.52,-2.29,6.14,5.69,3.54,-6.61
9.770517945289612,2,3,3,3,-16.61,-3.49,6.04,7.05,4.4,-5.06
9.780517935752869,2,3,3,3,-20.55,-1.98,3.24,6.98,3.81,-2.17
9.790517926216125,2,3,3,3,-20.18,-0.29,2.36,6.98,3.81,-2.17
9.800517916679382,2,3,3,3,-18.94,0.5,2.07,3.71,5.25,1.1
9.810517907142639,2,3,3,3,-18.07,0.88,2.91,2.02,2.64,4.45
9.820517897605896,2,3,3,3,-17.57,0.41,2.46,2.86,-0.3,5.02
9.830517888069153,2,3,3,3,-17.51,-0.19,2.42,3.16,-2.45,5.41
9.84051787853241,2,3,3,3,-17.28,-0.29,2.67,3.16,-2.45,5.41
9.850517868995667,2,3,3,3,-16.06,0.76,2.5,3.94,-4.39,5.39
9.860517859458923,2,3,3,3,-14.83,1.33,2.32,4.75,-5.87,4.93
9.870518088340759,2,3,3,3,-13.52,2.33,1.95,6.19,-5.85,4.03
9.880518078804016,2,3,3,3,-12.24,3.12,1.97,6.54,-3.26,2.4
9.890518069267273,2,3,3,3,-10.09,4.03,1.99,5.25,0.41,1.05
9.90051805973053,2,3,3,3,-9.4,3.95,1.63,3.16,3.87,0.47
9.910518050193787,2,3,3,3,-9.65,3.72,1.15,1.15,6.48,0.72
9.920518040657043,2,3,3,3,-10.18,3.53,0.66,-0.33,7.07,1.04
9.9305180311203,2,3,3,3,-10.55,3.16,0.48,-2.06,5.79,1.29
9.940518021583557,2,3,3,3,-10.04,2.93,0.51,-4.15,4.02,1.55
9.950518012046814,2,3,3,3,-9.33,2.71,0.6899999999999999,-6.17,2.76,1.87
9.960518002510071,2,3,3,3,-8.4,2.41,0.95,-7.58,1.98,2.24
9.970517992973328,2,3,3,3,-6.68,1.4,0.85,-8.32,1.27,2.31
9.980517983436584,2,3,3,3,-6.49,1.01,1.29,-8.16,0.32,2.19
9.990517973899841,2,3,3,3,-6.29,0.52,1.55,-7.28,0.37,1.62
10.00151789188385,2,3,3,3,-6.34,0,1.8,-5.82,0.03,1.05
10.01151788234711,2,3,3,3,-6.34,-0.58,1.61,-3.47,-0.13,0.67
10.02151787281036,2,3,3,3,-6.48,-0.65,1.44,-1.52,-0.11,0.55
10.03151786327362,2,3,3,3,-6.54,-0.51,1.4,0.06,-0.44,0.59
10.04151809215546,2,3,3,3,-6.44,0.1,1.14,1.58,-0.73,0.55
10.05151808261871,2,3,3,3,-6.46,0.53,1.08,2.79,-0.23,0.51
10.06151807308197,2,3,3,3,-6.6,0.86,1.1,3.57,0.92,0.34
10.07151806354523,2,3,3,3,-6.84,1.08,1.03,3.83,1.79,0.07000000000000001
10.08151805400848,2,3,3,3,-7.31,1.28,0.73,3.83,1.96,-0.26
10.09151804447174,2,3,3,3,-7.6,1.35,0.79,3.26,1.62,-0.65
10.101518034935,2,3,3,3,-7.94,1.46,1.02,2.3,0.89,-1.07
10.11151802539825,2,3,3,3,-8.220000000000001,1.6,1.14,1.49,-0.44,-1.29
10.12151801586151,2,3,3,3,-8.42,1.85,1,0.96,-1.81,-1.33
10.13151800632477,2,3,3,3,-8.51,1.85,1.08,0.39,-2.51,-1.23
10.14151799678802,2,3,3,3,-8.6,1.77,1.2,-0.02,-2.6,-1.12
10.15151798725128,2,3,3,3,-8.710000000000001,1.75,1.24,-0.25,-2.42,-1.02
10.16151797771454,2,3,3,3,-8.949999999999999,1.48,1.29,-0.26,-2.22,-0.87
10.1715179681778,2,3,3,3,-9.1,1.32,1.33,-0.1,-1.97,-0.82
10.18151795864105,2,3,3,3,-9.279999999999999,1.19,1.57,0.03,-1.53,-0.92
10.19151794910431,2,3,3,3,-9.539999999999999,1.09,1.77,0.05,-0.9399999999999999,-1.15
10.20151793956757,2,3,3,3,-9.83,0.85,1.92,-0.2,-0.51,-1.45
10.21151793003082,2,3,3,3,-9.880000000000001,0.78,1.95,-0.5,-0.22,-1.63
10.22151792049408,2,3,3,3,-9.94,0.73,1.95,-0.86,0.13,-1.68
10.23151791095734,2,3,3,3,-10.03,0.73,2.03,-1.09,0.26,-1.51
10.24151790142059,2,3,3,3,-10,0.61,2.02,-1.07,0.19,-1.35
10.25151789188385,2,3,3,3,-10.06,0.63,2.03,-0.84,0.24,-1.01
10.26151788234711,2,3,3,3,-10.09,0.6,2.07,-0.68,0.28,-0.62
10.27151787281036,2,3,3,3,-9.93,0.77,1.92,-0.68,0.36,-0.24
10.28151786327362,2,3,3,3,-9.9,0.87,1.92,-0.76,0.58,0.04
10.29151809215546,2,3,3,3,-10.03,0.9,1.89,-1,0.6899999999999999,0.13
10.30151808261871,2,3,3,3,-10.06,0.91,1.86,-1.21,0.39,0.16
10.31151807308197,2,3,3,3,-9.859999999999999,0.92,1.79,-1.26,-0.07000000000000001,0.15
10.32151806354523,2,3,3,3,-9.58,0.91,1.8,-1.29,-0.34,0.17
10.33151805400848,2,3,3,3,-9.34,0.9,1.95,-1.47,-0.35,0.21
10.34151804447174,2,3,3,3,-9.27,0.99,2.06,-1.37,-0.12,0.26
10.351518034935,2,3,3,3,-9.220000000000001,1.18,2,-1.05,-0.04,0.36
10.36151802539825,2,3,3,3,-9.31,1.25,1.83,-0.75,-0.07000000000000001,0.37
10.37151801586151,2,3,3,3,-9.41,1.27,1.63,-0.45,0.03,0.26
10.38151800632477,2,3,3,3,-9.460000000000001,1.3,1.53,-0.36,0.03,0.16
10.39151799678802,2,3,3,3,-9.529999999999999,1.32,1.59,-0.47,0.02,0.04
10.40151798725128,2,3,3,3,-9.550000000000001,1.39,1.67,-0.6,-0.27,-0.14
10.41151797771454,2,3,3,3,-9.49,1.45,1.65,-0.52,-0.71,-0.34
10.4215179681778,2,3,3,3,-9.41,1.48,1.52,-0.19,-1.1,-0.53
10.43151795864105,2,3,3,3,-9.26,1.46,1.7,0.11,-1.24,-0.6899999999999999
10.44151794910431,2,3,3,3,-9.199999999999999,1.42,1.76,0.29,-1.23,-0.71
10.45151793956757,2,3,3,3,-9.109999999999999,1.44,1.75,0.48,-1.34,-0.5600000000000001
10.46151793003082,2,3,3,3,-8.960000000000001,1.45,1.63,0.53,-1.44,-0.34
10.47151792049408,2,3,3,3,-8.92,1.45,1.54,0.55,-1.42,0.01
10.48151791095734,2,3,3,3,-8.94,1.43,1.55,0.36,-1.09,0.29
10.49151790142059,2,3,3,3,-9.029999999999999,1.42,1.58,0.14,-0.65,0.38
10.50151789188385,2,3,3,3,-9.119999999999999,1.36,1.75,-0.22,-0.23,0.39
10.51151788234711,2,3,3,3,-9.16,1.34,1.77,-0.54,-0.03,0.32
10.52151787281036,2,3,3,3,-9.19,1.3,1.74,-0.79,0.07000000000000001,0.23
10.53151786327362,2,3,3,3,-9.27,1.22,1.92,-1.09,0.22,0.09
10.54151809215546,2,3,3,3,-9.49,1.08,2.14,-1.27,0.24,-0.15
10.55151808261871,2,3,3,3,-9.529999999999999,0.95,2.09,-1.16,0.13,-0.29
10.56151807308197,2,3,3,3,-9.539999999999999,0.87,2.01,-0.71,0.02,-0.36
10.57151806354523,2,3,3,3,-9.57,0.79,1.95,-0.41,0.07000000000000001,-0.24
10.58151805400848,2,3,3,3,-9.640000000000001,0.6899999999999999,2.02,-0.28,0.2,0.01
10.59151804447174,2,3,3,3,-9.68,0.79,1.98,-0.01,0.17,0.23
10.601518034935,2,3,3,3,-9.69,0.87,1.89,0.39,0.06,0.39
10.61151802539825,2,3,3,3,-9.76,0.9,1.83,0.73,0.08,0.47
10.62151801586151,2,3,3,3,-9.76,0.86,1.57,0.86,0.05,0.45
10.63151800632477,2,3,3,3,-9.68,0.86,1.61,0.91,0.07000000000000001,0.4
10.64151799678802,2,3,3,3,-9.640000000000001,0.86,1.71,0.5600000000000001,0.19,0.38
10.65151798725128,2,3,3,3,-9.710000000000001,0.9,1.94,0.05,0.26,0.28
10.66151797771454,2,3,3,3,-9.74,0.9,1.96,-0.27,0.01,0.08
10.6715179681778,2,3,3,3,-9.66,0.99,1.87,-0.11,-0.42,-0.19
10.68151795864105,2,3,3,3,-9.65,1.02,1.9,0.18,-0.5600000000000001,-0.41
10.69151794910431,2,3,3,3,-9.619999999999999,0.98,1.91,0.4,-0.38,-0.5
10.70151793956757,2,3,3,3,-9.68,0.96,1.95,0.41,-0.01,-0.44
10.71151793003082,2,3,3,3,-9.789999999999999,0.9399999999999999,1.95,0.14,0.25,-0.35
10.72151792049408,2,3,3,3,-9.85,0.9,1.83,-0.05,0.21,-0.3
10.73151791095734,2,3,3,3,-9.82,0.97,1.76,-0.1,0.03,-0.31
10.74151790142059,2,3,3,3,-9.73,0.99,1.79,-0.09,-0.04,-0.27
10.75151789188385,2,3,3,3,-9.67,1.02,1.76,-0.09,0.02,-0.12
10.76151788234711,2,3,3,3,-9.609999999999999,1.01,1.78,-0.1,0.21,0.04
10.77151787281036,2,3,3,3,-9.6,0.93,1.79,-0.26,0.26,0.22
10.78151786327362,2,3,3,3,-9.56,0.93,1.86,-0.32,0.16,0.27
10.79151809215546,2,3,3,3,-9.56,0.92,1.91,-0.21,0.02,0.24
10.80151808261871,2,3,3,3,-9.539999999999999,0.91,1.89,0.06,0.06,0.16
10.81151807308197,2,3,3,3,-9.539999999999999,0.86,1.75,0.35,0.21,0.12
10.82151806354523,2,3,3,3,-9.539999999999999,0.86,1.61,0.67,0.38,0.09
10.83151805400848,2,3,3,3,-9.52,0.86,1.58,0.83,0.48,0.18
10.84151804447174,2,3,3,3,-9.460000000000001,0.97,1.66,0.76,0.5,0.3
10.851518034935,2,3,3,3,-9.42,1.04,1.68,0.6,0.4,0.42
10.86151802539825,2,3,3,3,-9.35,1.12,1.67,0.44,0.27,0.5600000000000001
10.87151801586151,2,3,3,3,-9.33,1.16,1.62,0.25,0.15,0.6
10.88151800632477,2,3,3,3,-9.380000000000001,1.19,1.84,0.12,0.13,0.55
10.89151799678802,2,3,3,3,-9.44,1.17,1.87,0.02,0.09,0.42
10.90151798725128,2,3,3,2,-9.529999999999999,1.13,1.89,0.13,0.13,0.17
10.91151797771454,2,3,3,2,-9.65,1.11,1.92,0.22,0.22,-0.16
10.9215179681778,2,3,3,2,-9.800000000000001,1.01,1.77,0.22,0.19,-0.34
10.93151795864105,2,3,3,2,-9.84,1,1.74,0.26,0.15,-0.46
10.94151794910431,2,3,3,2,-9.85,1.01,1.75,0.25,0.18,-0.45
10.95151793956757,2,3,3,2,-9.93,1.04,1.81,0.23,0.16,-0.26
10.96151793003082,2,3,3,2,-9.83,1.12,1.71,0.26,0.13,-0.07000000000000001
10.97151792049408,2,3,3,2,-9.81,1.16,1.63,0.48,0.16,0.14
10.98151791095734,2,3,3,2,-9.800000000000001,1.24,1.67,0.63,0.04,0.31
10.99151790142059,2,3,3,2,-9.720000000000001,1.29,1.65,0.76,0.06,0.45
11.00151789188385,2,3,3,2,-9.6,1.34,1.59,0.8100000000000001,0.12,0.53
11.01251804828644,2,3,3,2,-9.57,1.37,1.62,0.76,0.29,0.59
11.02251803874969,2,3,3,2,-9.529999999999999,1.38,1.53,0.58,0.41,0.62
11.03251802921295,2,3,3,2,-9.460000000000001,1.47,1.55,0.53,0.46,0.6899999999999999
11.04251801967621,2,3,3,2,-9.449999999999999,1.49,1.68,0.46,0.47,0.73
11.05251801013947,2,3,3,2,-9.449999999999999,1.49,1.74,0.23,0.52,0.77
11.06251800060272,2,3,3,2,-9.41,1.49,1.77,0,0.42,0.77
11.07251799106598,2,3,3,2,-9.41,1.57,1.68,-0.01,0.31,0.77
11.08251798152924,2,3,3,2,-9.42,1.6,1.62,0.14,0.13,0.77
11.09251797199249,2,3,3,2,-9.460000000000001,1.66,1.62,0.43,0.09,0.73
11.10251796245575,2,3,3,2,-9.529999999999999,1.66,1.59,0.71,0.22,0.7
11.11251795291901,2,3,3,2,-9.57,1.71,1.44,0.77,0.36,0.6899999999999999
11.12251794338226,2,3,3,2,-9.6,1.7,1.37,0.65,0.52,0.7
11.13251793384552,2,3,3,2,-9.550000000000001,1.69,1.43,0.44,0.55,0.79
11.14251792430878,2,3,3,2,-9.48,1.72,1.49,0.26,0.47,0.85
11.15251791477203,2,3,3,2,-9.31,1.74,1.51,0.1,0.29,0.98
11.16251790523529,2,3,3,2,-9.220000000000001,1.77,1.46,-0.01,0.12,1.05
11.17251789569855,2,3,3,2,-9.220000000000001,1.77,1.45,-0.11,0.1,1.14
11.1825178861618,2,3,3,2,-9.199999999999999,1.76,1.55,-0.3,0.07000000000000001,1.16
11.19251787662506,2,3,3,2,-9.16,1.76,1.7,-0.43,0.05,1.17
11.20251786708832,2,3,3,2,-9.130000000000001,1.79,1.68,-0.2,0.02,1.26
11.21251785755157,2,3,3,2,-9.109999999999999,1.82,1.59,0.19,0.07000000000000001,1.43
11.22251808643341,2,3,3,2,-9.039999999999999,1.89,1.38,0.71,0.32,1.76
11.23251807689667,2,3,3,2,-8.98,2.02,1.21,1.2,0.6,2.36
11.24251806735992,2,3,3,2,-8.960000000000001,2.1,1.15,1.62,0.84,3.01
11.25251805782318,2,3,3,2,-8.9,2.18,1.03,1.92,0.92,3.79
11.26251804828644,2,3,3,2,-8.76,2.42,0.97,2.09,0.86,4.53
11.27251803874969,2,3,3,2,-8.699999999999999,2.54,0.84,2.13,0.64,5.16
11.28251802921295,2,3,3,2,-8.49,2.64,0.79,2.13,0.33,5.78
11.29251801967621,2,3,3,2,-8.210000000000001,2.78,0.8,2.26,-0.12,6.39
11.30251801013947,2,3,3,2,-7.49,2.75,0.64,2.3,-0.49,7.04
11.31251800060272,2,3,3,2,-7.06,2.74,0.6,2.4,-0.74,7.59
11.32251799106598,2,3,3,2,-6.55,2.67,0.5,2.46,-0.8,8.16
11.33251798152924,2,3,3,2,-6.17,2.6,0.5,2.41,-0.63,8.75
11.34251797199249,2,3,3,2,-5.37,2.38,0.73,2.11,-0.35,9.43
11.35251796245575,2,3,3,2,-4.86,2.2,0.77,1.65,-0.37,10.05
11.36251795291901,2,3,3,2,-4.37,2.08,0.7,1.68,-0.61,10.54
11.37251794338226,2,3,3,2,-3.93,1.93,0.5,2.35,-0.37,10.82
11.38251793384552,2,3,3,2,-3.6,1.75,0.26,2.87,0.65,10.77
11.39251792430878,2,3,3,2,-4.01,1.55,0.75,2.38,2.57,10.51
11.40251791477203,2,3,3,2,-4.84,1.32,1.55,0.74,4.5,9.859999999999999
11.41251790523529,2,3,3,2,-5.7,1.42,2.23,-0.55,4.29,8.84
11.42251789569855,2,3,3,2,-6.62,1.69,2.34,-0.76,1.96,7.57
11.4325178861618,2,3,3,2,-7.03,2.29,2.09,0.79,-0.46,6.08
11.44251787662506,2,3,3,2,-7.39,2.8,1.61,3.59,-1.96,4.66
11.45251786708832,2,3,3,2,-7.39,2.8,1.61,5.55,-1.75,3.85
11.46251785755157,2,3,3,2,-8.720000000000001,2.77,0.72,5.31,0.17,3.53
11.47251808643341,2,3,3,2,-9.789999999999999,2.36,0.7,3.39,2.13,3.75
11.48251807689667,2,3,3,2,-9.859999999999999,2.39,0.67,1.77,3.09,4.36
11.49251806735992,2,3,3,2,-9.4,2.71,0.58,0.76,2.98,5.04
11.50251805782318,2,3,3,2,-9.4,2.71,0.58,0.76,2.98,5.04
11.51251804828644,2,3,3,2,-9.01,2.5,0.96,-0.54,2.29,5.14
11.52251803874969,2,3,3,2,-10.3,2.57,2.58,-4.03,0.97,4.15
11.53251802921295,2,3,3,2,-11.71,2.04,2.87,-4.26,-0.26,2.58
11.54251801967621,2,3,3,2,-12.26,1.86,2.73,-3.36,-1.21,0.44
11.55251801013947,2,3,3,2,-12.26,1.86,2.73,-3.36,-1.21,0.44
11.56251800060272,2,3,3,2,-12.38,1.44,2.7,-2.95,-1.74,-1.38
11.57251799106598,2,3,3,2,-13.99,1.46,2.54,-1.46,-0.21,-3.06
11.58251798152924,2,3,3,2,-14.86,1.39,2.61,-0.86,-0.3,-3.05
11.59251797199249,2,3,3,2,-15.63,1.55,3.15,-0.82,-0.86,-3.27
11.60251796245575,2,3,3,2,-15.63,1.55,3.15,-0.82,-0.86,-3.27
11.61251795291901,2,3,3,2,-16.02,1.86,3.78,2.49,-2.52,-3.32
11.62251794338226,2,3,3,2,-18.16,4.12,4.04,4.4,-1.63,-2.91
11.63251793384552,2,3,3,2,-18.86,4.9,3.34,5.31,-0.05,-2.26
11.64251792430878,2,3,3,2,-18.86,4.9,3.34,6.62,1.25,-1.52
11.65251791477203,2,3,3,2,-19.61,5.53,3.03,6.62,1.25,-1.52
11.66251790523529,2,3,3,2,-20.38,6.49,2.85,4.17,-0.76,0.41
11.67251789569855,2,3,3,2,-20.38,6.7,3.31,2.09,-2.04,0.99
11.6825178861618,2,3,3,2,-20.2,6.67,3.19,-3.51,0.23,-0.53
11.69251787662506,2,3,3,2,-20.14,5.78,4.59,-6.01,0.89,-2.35
11.70251786708832,2,3,3,2,-19.83,4.83,4.64,-6.01,0.89,-2.35
11.71251785755157,2,3,3,2,-19.61,4.05,4.86,-6.26,1.72,-5.02
11.72251808643341,2,3,3,2,-19.58,3.29,5.43,-5.95,4.01,-10.45
11.73251807689667,2,3,3,2,-20.53,1.61,5.91,-4.57,4.27,-12.32
11.74251806735992,2,3,3,2,-21.26,0.59,5.87,-3.67,5.13,-13.13
11.75251805782318,2,3,3,2,-22.27,-0.3,5.49,-3.67,5.13,-13.13
11.76251804828644,2,3,3,2,-23.2,-0.87,5.63,-3.12,5,-12.58
11.77251803874969,2,3,3,2,-24.41,-0.9399999999999999,5.62,-0.14,3.31,-8.710000000000001
11.78251802921295,2,3,3,2,-24.69,-0.51,5.06,2.08,2.35,-6.58
11.79251801967621,2,3,3,2,-24.27,0.25,3.94,3.39,1.61,-4.61
11.80251801013947,2,3,3,2,-23.62,0.92,3.32,3.39,1.61,-4.61
11.81251800060272,2,3,3,2,-21.11,2.36,1.65,4.3,1.06,-2.6
11.82251799106598,2,3,3,2,-19.3,3.23,0.82,8.119999999999999,3.36,0.39
11.83251798152924,2,3,3,2,-17.01,4.48,0.08,10.86,4.89,2.95
11.84251797199249,2,3,3,2,-14.06,5.6,-0.42,14.23,6.72,4.38
11.85251796245575,2,3,3,2,-7.58,7.72,-3.49,14.23,6.72,4.38
11.86251795291901,2,3,3,2,-4.98,7.31,-5.09,15.1,9.390000000000001,3.49
11.87251794338226,2,3,3,2,-2.81,6.31,-5.65,8.359999999999999,1.38,0.76
11.88251793384552,2,3,3,2,2.58,9.84,-1.87,7.52,-8.039999999999999,1.55
11.89251792430878,2,3,3,2,6.09,12.31,-2.3,10.17,-13.84,2.01
11.90251791477203,2,3,3,2,9.710000000000001,14.43,-4.36,10.17,-13.84,2.01
11.91251790523529,2,3,3,2,10.4,13.11,-6.78,10.46,-11.43,2.19
11.92251789569855,2,3,3,2,8.029999999999999,8.24,-4.98,-5.46,-3.01,-0.66
11.9325178861618,2,3,3,2,6.55,4.81,-3.49,-13.61,2.69,-2.4
11.94251787662506,2,3,3,2,5.16,2.58,-1.75,-18.51,6.91,-4.35
11.95251786708832,2,3,3,2,3.89,1.27,-0.83,-18.51,6.91,-4.35
11.96251785755157,2,3,3,3,0.22,-0.25,1.01,-20.62,7.93,-4.43
11.97251808643341,2,3,3,3,-1.42,-1.06,1.08,-16.19,-2.86,-1.27
11.98251807689667,2,3,3,3,-2.07,-1.81,0.79,-11.99,-6.45,-0.09
11.99251806735992,2,3,3,3,-1.48,-2.25,0.67,-7.78,-5.88,0.55
12.00251805782318,2,3,3,3,-0.25,-2.02,0.95,-7.78,-5.88,0.55
12.01251804828644,2,3,3,3,-0.12,-1.7,0.64,-3.51,-2.79,0.35
12.02251803874969,2,3,3,3,-0.27,-1.27,0.13,1.04,3.6,-1.47
12.03251802921295,2,3,3,3,-0.62,-1.06,-0.05,-1.05,6.14,-2.27
12.04351794719696,2,3,3,3,-1.69,-1.32,0.65,-2.82,6.56,-2
12.05351793766022,2,3,3,3,-1.96,-1.66,0.63,-2.82,6.56,-2
12.06351792812347,2,3,3,3,-2.19,-1.71,0.77,-3.92,5.44,-0.6899999999999999
12.07351791858673,2,3,3,3,-1.6,-1.68,0.75,-3.98,3.34,0.43
12.08351790904999,2,3,3,3,-0.74,-1.61,0.57,-2.52,1.84,1.06
12.09351789951324,2,3,3,3,-0.08,-1.62,0.65,-0.44,1.98,1.27
12.1035178899765,2,3,3,3,0.03,-1.65,0.83,1.91,2.13,1.94
12.11351788043976,2,3,3,3,0.24,-2.17,0.63,4.82,1.42,3.34
12.12351787090302,2,3,3,3,0.34,-1.71,0.4,7.98,1.38,4.99
12.13351786136627,2,3,3,3,0.26,-1.3,-0.08,10.22,2.02,6.34
12.14351809024811,2,3,3,3,0.05,-0.8,-0.27,11.62,2.56,7.07
12.15351808071136,2,3,3,3,-0.6,0.19,-0.06,11.95,2.19,7.41
12.16351807117462,2,3,3,3,-0.71,0.55,-0.09,12.03,1.14,7.22
12.17351806163788,2,3,3,3,-0.88,1.11,-0.08,12.07,0.07000000000000001,6.55
12.18351805210114,2,3,3,3,-0.89,1.64,-0.34,11.42,-1.88,5.82
12.19351804256439,2,3,3,3,-0.45,1.92,-1.2,9.74,-3.64,5.01
12.20351803302765,2,3,3,3,-0.34,1.94,-0.97,6.48,-4.89,4.21
12.21351802349091,2,3,3,3,0.19,1.71,-0.95,3.42,-6.42,3.37
12.22351801395416,2,3,3,3,0.97,1.52,-0.83,1.29,-6.6,2.11
12.23351800441742,2,3,3,3,0.83,1.46,0.34,-0.82,-5.93,0.68
12.24351799488068,2,3,3,3,0.53,1.26,-0.49,-1.27,-6.91,-0.98
12.25351798534393,2,3,3,3,0.88,1.99,0.31,-0.25,-7.44,-2.85
12.26351797580719,2,3,3,3,0.44,3.28,0.49,-0.8100000000000001,-4.19,-4.17
12.27351796627045,2,3,3,3,-0.34,4.74,0.86,-0.42,-2.67,-4.72
12.2835179567337,2,3,3,3,-2,6.82,0.82,0.9399999999999999,-3.19,-5.27
12.29351794719696,2,3,3,3,-3.53,10.12,0.03,4.5,-2.91,-5.24
12.30351793766022,2,3,3,3,-15.94,17.53,3.37,3.01,1.98,-8.550000000000001
12.31351792812347,2,3,3,3,-29.77,13.31,3.72,-8.050000000000001,-0.36,-17.56
12.32351791858673,2,3,3,3,-39.29,14.22,8.789999999999999,-26.81,-23.99,-27.58
12.33351790904999,2,3,3,3,-37.83,4.25,-2.41,-41.07,-20.74,-31.02
12.34351789951324,2,3,3,3,-39.29,-14.24,4.77,-31.58,34.82,-2.72
12.3535178899765,2,3,3,3,-39.29,-8.630000000000001,7.49,-16.13,2.47,-1.86
12.36351788043976,2,3,3,3,-33.88,-3.61,8.74,13.34,-15.46,-5.09
12.37351787090302,2,3,3,3,-19.52,3.06,7.63,23.04,0.84,1
12.38351786136627,2,3,3,3,-12.14,2.43,4.04,13.68,9.369999999999999,3.73
12.39351809024811,2,3,3,3,-14.92,-0.43,2.92,3.51,7.61,1.44
12.40351808071136,2,3,3,3,-17.34,-1.31,5.03,-4.15,3.25,-1.57
12.41351807117462,2,3,3,2,-18.61,-0.75,6.86,-5.29,-5.06,-3.38
12.42351806163788,2,3,3,2,-16.72,1.54,3.84,1.66,-7.74,-3.09
12.43351805210114,2,3,3,2,-16.14,0.99,2.87,4.43,-2.55,-1.83
12.44351804256439,2,3,3,2,-16.21,0.41,2.58,4.21,4.9,-0.12
12.45351803302765,2,3,3,2,-17.7,0.92,2.3,4,9.68,1.57
12.46351802349091,2,3,3,2,-17.57,0.82,1.95,2.28,8.77,3.72
12.47351801395416,2,3,3,2,-16.77,1.2,1.64,2.37,3.05,6.3
12.48351800441742,2,3,3,2,-15.68,2.16,1.53,5.12,-3.14,7.81
12.49351799488068,2,3,3,2,-12.54,4.33,1.41,7.31,-7.84,7.69
12.50351798534393,2,3,3,2,-10.81,5.03,1.24,8.26,-9.42,5.93
12.51351797580719,2,3,3,2,-9.92,5.31,1.41,7.73,-6.99,4.33
12.52351796627045,2,3,3,2,-9.050000000000001,5.51,1.44,5.74,-1.36,3.2
12.5335179567337,2,3,3,2,-7.84,4.9,0.63,2.42,2.88,2.69
12.54351794719696,2,3,3,2,-7.44,4.16,0.45,-1.39,5.66,2.11
12.55351793766022,2,3,3,2,-7.2,3.3,0.47,-4.24,7.37,1.17
12.56351792812347,2,3,3,2,-7.14,2.49,0.6899999999999999,-5.92,7.77,-0.2
12.57351791858673,2,3,3,2,-6.82,1.11,1.46,-6.98,6.15,-1.57
12.58351790904999,2,3,3,2,-5.86,0.45,0.88,-6.88,2.64,-2.14
12.59351789951324,2,3,3,2,-4.79,0.19,0.47,-4.72,0.14,-1.95
12.6035178899765,2,3,3,2,-4.51,0.13,0.52,-3.43,-0.35,-1.34
12.61351788043976,2,3,3,2,-4.77,-0.13,0.48,-2.8,-0.58,-0.44
12.62351787090302,2,3,3,2,-4.78,0.13,0.29,-0.8100000000000001,-0.47,0.04
12.63351786136627,2,3,3,2,-4.84,0.47,0.02,0.72,0.19,0.26
12.64351809024811,2,3,3,2,-5.1,0.82,-0.09,1.65,0.79,0.24
12.65351808071136,2,3,3,2,-5.27,1.04,-0.09,2.25,1.09,0
12.66351807117462,2,3,3,2,-5.65,1.47,0.09,2.73,0.87,-0.27
12.67351806163788,2,3,3,2,-6.05,1.82,0.16,2.83,0.58,-0.68
12.68351805210114,2,3,3,2,-7.63,2.37,0.51,2.6,0.54,-1.14
12.69351804256439,2,3,3,2,-8.35,2.47,0.59,2.1,-0.15,-1.71
12.70351803302765,2,3,3,2,-8.69,2.57,0.54,2.04,-1.2,-2.4
12.71351802349091,2,3,3,2,-8.890000000000001,2.62,0.44,2.15,-1.36,-3.06
12.72351801395416,2,3,3,2,-9.27,2.62,0.28,2.01,-0.77,-3.73
12.73351800441742,2,3,3,2,-9.279999999999999,2.65,0.05,1.4,-0.31,-4.11
12.74351799488068,2,3,3,2,-9.52,2.62,0.06,0.59,-0.19,-4.07
12.75351798534393,2,3,3,2,-9.82,2.31,0.11,-0.64,-0.11,-3.93
12.76351797580719,2,3,3,2,-10.53,1.84,0.71,-1.91,-0.5,-3.68
12.77351796627045,2,3,3,2,-10.72,1.78,1.24,-2.56,-0.92,-3.42
12.7835179567337,2,3,3,2,-10.89,1.76,1.51,-2.57,-1.36,-3.08
12.79351794719696,2,3,3,2,-11.06,1.74,1.74,-1.76,-1.96,-2.88
12.80351793766022,2,3,3,2,-11.23,1.88,1.77,-0.58,-2.66,-2.75
12.81351792812347,2,3,3,2,-10.94,1.84,1.66,0.54,-3.31,-2.46
12.82351791858673,2,3,3,2,-10.65,1.83,1.55,1.49,-2.99,-2.13
12.83351790904999,2,3,3,2,-10.3,1.77,1.41,1.8,-1.91,-1.7
12.84351789951324,2,3,3,2,-9.710000000000001,1.42,1.74,1.34,-0.58,-1.14
12.8535178899765,2,3,3,2,-9.33,1.3,1.85,0.49,0.11,-0.58
12.86351788043976,2,3,3,2,-8.789999999999999,1.22,1.79,0.24,0.15,-0.19
12.87351787090302,2,3,3,2,-8.02,1.32,1.66,0.46,0.62,-0.04
12.88351786136627,2,3,3,2,-7.45,1.32,1.54,0.74,1.14,-0.18
12.89351809024811,2,3,3,2,-6.77,1.43,1.23,0.89,1.88,-0.41
12.90351808071136,2,3,3,2,-5.78,1.97,1.19,1.8,-1.08,-0.72
12.91351807117462,2,3,3,2,-8.539999999999999,1.81,1.02,1.18,-4.16,-0.92
12.92351806163788,2,3,3,2,-9.119999999999999,1.88,1.06,0.36,-4.6,-0.52
12.93351805210114,2,3,3,2,-10,1.94,0.86,0.7,-1.27,-0.09
12.94351804256439,2,3,3,2,-10.23,1.8,0.61,0.42,0.24,-0.24
12.95351803302765,2,3,3,2,-10.72,1.33,0.67,-0.03,1.65,-0.29
12.96351802349091,2,3,3,2,-10.82,1.08,0.64,-0.64,2.85,-0.16
12.97351801395416,2,3,3,2,-10.72,1.05,0.83,-0.88,3.08,0.26
12.98351800441742,2,3,3,2,-11.01,1.35,1.09,-0.73,3.23,0.86
12.99351799488068,2,3,3,2,-10.78,1.21,1.26,-0.34,1.53,0.8
13.00351798534393,2,3,3,2,-10.75,1.22,1.35,0.24,0.29,0.36
13.01351797580719,2,3,3,2,-10.82,1.28,1.53,0.35,-0.4,-0.25
13.02351796627045,2,3,3,2,-10.62,1.33,1.44,0.24,-1.62,-0.72
13.0335179567337,2,3,3,2,-9.83,1.21,1.23,0.28,-2.79,-1.01
13.04351794719696,2,3,3,2,-9.52,1.2,1.41,-0.24,-3.04,-1.26
13.05351793766022,2,3,3,2,-9.26,1.15,1.5,-0.82,-3.27,-1.43
13.06351792812347,2,3,3,2,-8.5,1.12,1.67,-1.07,-3.71,-1.58
13.07451808452606,2,3,3,2,-8.390000000000001,1.24,1.72,-1.23,-3.41,-1.55
13.08451807498932,2,3,3,2,-8.449999999999999,1.31,1.77,-1.08,-2.85,-1.34
13.09451806545258,2,3,3,2,-8.66,1.59,1.84,-0.65,-1.94,-0.9399999999999999
13.10451805591583,2,3,3,2,-9.380000000000001,1.83,1.81,0.05,-1.63,-0.53
13.11451804637909,2,3,3,2,-9.56,1.83,1.42,0.72,-1.78,-0.02
13.12451803684235,2,3,3,2,-9.720000000000001,1.85,1.18,1.58,-1.53,0.44
13.1345180273056,2,3,3,2,-9.84,1.81,1.05,1.67,-1.15,0.78
13.14451801776886,2,3,3,2,-9.789999999999999,1.86,1.15,1.27,-0.91,1.05
13.15451800823212,2,3,3,2,-9.699999999999999,1.92,1.3,0.78,-0.91,1.25
13.16451799869537,2,3,3,2,-9.699999999999999,2.06,1.56,0.03,-0.95,1.34
13.17451798915863,2,3,3,2,-9.640000000000001,2.11,1.65,-0.95,-1.41,1.25
13.18451797962189,2,3,3,2,-9.4,1.97,1.38,-1.59,-1.93,0.96
13.19451797008514,2,3,3,2,-9.41,1.81,1.47,-1.85,-1.7,0.36
13.2045179605484,2,3,3,2,-9.43,1.68,1.74,-2.33,-1.1,-0.36
13.21451795101166,2,3,3,2,-9.43,1.51,1.89,-2.94,-0.79,-1.03
13.22451794147491,2,3,3,2,-9.48,1.23,1.8,-3.14,-0.5600000000000001,-1.6
13.23451793193817,2,3,3,2,-9.58,1.11,1.72,-2.97,-0.22,-1.99
13.24451792240143,2,3,3,2,-9.699999999999999,1.07,1.73,-2.77,0.13,-2.16
13.25451791286469,2,3,3,2,-9.75,0.85,1.71,-2.54,0.37,-2.15
13.26451790332794,2,3,3,2,-9.76,0.78,1.74,-2.25,0.72,-1.94
13.2745178937912,2,3,3,2,-9.74,0.71,1.73,-1.84,1.07,-1.69
13.28451788425446,2,3,3,2,-9.75,0.65,1.66,-1.3,1.4,-1.33
13.29451787471771,2,3,3,2,-9.710000000000001,0.78,1.65,-0.73,1.63,-0.99
13.30451786518097,2,3,3,2,-9.74,0.87,1.57,-0.17,1.77,-0.65
13.31451809406281,2,3,3,2,-9.73,1,1.52,0.31,1.79,-0.29
13.32451808452606,2,3,3,2,-9.75,1.11,1.53,0.37,1.72,0.02
13.33451807498932,2,3,3,2,-9.710000000000001,1.25,1.38,0.3,1.57,0.23
13.34451806545258,2,3,3,2,-9.710000000000001,1.31,1.45,0.12,1.33,0.27
13.35451805591583,2,3,3,2,-9.69,1.38,1.51,-0.18,1.03,0.3
13.36451804637909,2,3,3,2,-9.65,1.35,1.57,-0.51,0.72,0.2
13.37451803684235,2,3,3,2,-9.5,1.33,1.53,-0.66,0.34,0.08
13.3845180273056,2,3,3,2,-9.48,1.33,1.47,-0.72,-0.02,-0.03
13.39451801776886,2,3,3,2,-9.51,1.28,1.53,-0.9399999999999999,-0.22,-0.15
13.40451800823212,2,3,3,2,-9.48,1.23,1.59,-1.09,-0.37,-0.25
13.41451799869537,2,3,3,2,-9.49,1.21,1.58,-1.05,-0.49,-0.32
13.42451798915863,2,3,3,2,-9.529999999999999,1.2,1.58,-0.84,-0.44,-0.37
13.43451797962189,2,3,3,2,-9.59,1.2,1.57,-0.7,-0.33,-0.43
13.44451797008514,2,3,3,2,-9.720000000000001,1.17,1.7,-0.67,-0.16,-0.5
13.4545179605484,2,3,3,2,-9.76,1.2,1.61,-0.65,-0.04,-0.54
13.46451795101166,2,3,3,2,-9.76,1.2,1.61,-0.57,0.11,-0.59
13.47451794147491,2,3,3,2,-9.68,1.18,1.65,-0.7,0.33,-0.54
13.48451793193817,2,3,3,2,-9.609999999999999,1.13,1.65,-1,0.5,-0.51
13.49451792240143,2,3,3,2,-9.65,1.15,1.66,-1.23,0.53,-0.46
13.50451791286469,2,3,3,2,-9.699999999999999,1.19,1.68,-1.22,0.43,-0.46
13.51451790332794,2,3,3,2,-9.699999999999999,1.19,1.68,-1.31,0.36,-0.44
13.5245178937912,2,3,3,2,-9.720000000000001,1.21,1.7,-1.42,0.35,-0.44
13.53451788425446,2,3,3,2,-9.67,1.08,1.52,-1.44,0.37,-0.38
13.54451787471771,2,3,3,2,-9.65,1.02,1.6,-1.39,0.43,-0.35
13.55451786518097,2,3,3,2,-9.65,0.98,1.61,-1.39,0.45,-0.26
13.56451809406281,2,3,3,3,-9.65,0.98,1.61,-1.33,0.5,-0.15
13.57451808452606,2,3,3,3,-9.710000000000001,0.98,1.68,-1.26,0.43,-0.04
13.58451807498932,2,3,3,3,-9.720000000000001,1,1.49,-1.18,0.41,0.1
13.59451806545258,2,3,3,3,-9.699999999999999,1,1.55,-1.13,0.43,0.17
13.60451805591583,2,3,3,3,-9.66,0.99,1.71,-1.06,0.43,0.21
13.61451804637909,2,3,3,3,-9.66,0.99,1.71,-1.06,0.43,0.21
13.62451803684235,2,3,3,3,-9.640000000000001,1.02,1.72,-0.93,0.27,0.28
13.6345180273056,2,3,3,3,-9.640000000000001,1.01,1.65,-0.83,0.26,0.25
13.64451801776886,2,3,3,3,-9.65,1.01,1.64,-0.85,0.2,0.23
13.65451800823212,2,3,3,3,-9.619999999999999,1,1.65,-0.84,0.15,0.2
13.66451799869537,2,3,3,3,-9.619999999999999,1,1.65,-0.8100000000000001,0.07000000000000001,0.18
13.67451798915863,2,3,3,3,-9.57,1.03,1.68,-0.76,0.02,0.22
13.68451797962189,2,3,3,3,-9.539999999999999,1.05,1.62,-0.67,0.04,0.19
13.69451797008514,2,3,3,3,-9.56,1.07,1.66,-0.5600000000000001,0.07000000000000001,0.12
13.7045179605484,2,3,3,3,-9.6,1.08,1.66,-0.42,0.09,-0.05
13.71451795101166,2,3,3,3,-9.6,1.08,1.66,-0.36,0.12,-0.17
13.72451794147491,2,3,3,3,-9.609999999999999,1.13,1.66,-0.35,0.19,-0.3
13.73451793193817,2,3,3,3,-9.710000000000001,1.19,1.53,-0.34,0.23,-0.38
13.74451792240143,2,3,3,3,-9.76,1.2,1.61,-0.38,0.08,-0.42
13.75451791286469,2,3,3,3,-9.77,1.19,1.54,-0.36,-0.18,-0.45
13.76451790332794,2,3,3,3,-9.77,1.19,1.54,-0.36,-0.18,-0.45
13.7745178937912,2,3,3,3,-9.74,1.22,1.55,-0.29,-0.28,-0.46
13.78451788425446,2,3,3,3,-9.73,1.18,1.52,-0.5,-0.15,-0.34
13.79451787471771,2,3,3,3,-9.699999999999999,1.12,1.63,-0.62,-0.16,-0.29
13.80451786518097,2,3,3,3,-9.69,1.09,1.69,-0.63,-0.27,-0.25
13.81451809406281,2,3,3,3,-9.69,1.09,1.69,-0.63,-0.27,-0.25
13.82451808452606,2,3,3,3,-9.630000000000001,1.13,1.68,-0.42,-0.37,-0.21
13.83451807498932,2,3,3,3,-9.6,1.13,1.67,-0.16,-0.06,-0.01
13.84451806545258,2,3,3,3,-9.630000000000001,1.2,1.57,-0.18,0.07000000000000001,0.09
13.85451805591583,2,3,3,3,-9.630000000000001,1.18,1.61,-0.18,0.09,0.13
13.86451804637909,2,3,3,3,-9.67,1.2,1.61,-0.18,0.09,0.13
13.87451803684235,2,3,3,3,-9.65,1.2,1.66,-0.21,0,0.14
13.8845180273056,2,3,3,3,-9.65,1.17,1.64,-0.19,0.01,0.11
13.89451801776886,2,3,3,3,-9.65,1.17,1.53,-0.19,0.02,0.14
13.90451800823212,2,3,3,3,-9.65,1.17,1.55,-0.23,0.09,0.11
13.91451799869537,2,3,3,3,-9.69,1.13,1.68,-0.23,0.09,0.11
13.92451798915863,2,3,3,3,-9.69,1.16,1.7,-0.37,0.12,0.04
13.93451797962189,2,3,3,3,-9.67,1.14,1.71,-0.24,-0.11,-0.06
13.94451797008514,2,3,3,3,-9.58,1.13,1.55,-0.11,0.02,-0.15
13.9545179605484,2,3,3,3,-9.57,1.17,1.63,-0.11,0.02,-0.15
13.96451795101166,2,3,3,3,-9.56,1.17,1.67,-0.11,0.02,-0.15
13.97451794147491,2,3,3,3,-9.57,1.15,1.68,0.04,0.01,-0.04
13.98451793193817,2,3,3,3,-9.6,1.18,1.64,0.09,0.02,-0.04
13.99451792240143,2,3,3,3,-9.66,1.2,1.53,0.04,0.06,-0.04
14.00451791286469,2,3,3,3,-9.69,1.21,1.6,-0.02,0.1,-0.03
14.01451790332794,2,3,3,3,-9.720000000000001,1.21,1.63,-0.02,0.1,-0.03
14.0245178937912,2,3,3,3,-9.710000000000001,1.16,1.61,-0.18,0.16,0.03
14.03451788425446,2,3,3,3,-9.74,1.16,1.61,-0.26,0.14,0.09
14.04451787471771,2,3,3,3,-9.720000000000001,1.17,1.56,-0.23,0.08,0.15
14.05451786518097,2,3,3,3,-9.699999999999999,1.14,1.6,-0.08,0.02,0.2
14.06451809406281,2,3,3,3,-9.630000000000001,1.17,1.63,-0.08,0.02,0.2
14.07451808452606,2,3,3,3,-9.609999999999999,1.18,1.67,0.03,0.09,0.26
14.08451807498932,2,3,3,3,-9.619999999999999,1.2,1.72,0.21,0.04,0.2
14.09551799297333,2,3,3,3,-9.59,1.19,1.6,0.16,0.06,0.19
14.10551798343658,2,3,3,3,-9.66,1.2,1.61,0.12,0.07000000000000001,0.13
14.11551797389984,2,3,3,3,-9.68,1.19,1.65,0.12,0.07000000000000001,0.13
14.1255179643631,2,3,3,3,-9.66,1.19,1.61,0.08,0.14,0.07000000000000001
14.13551795482635,2,3,3,3,-9.65,1.19,1.59,-0.04,0.22,0.05
14.14551794528961,2,3,3,3,-9.640000000000001,1.16,1.53,-0.11,0.21,0.03
14.15551793575287,2,3,3,3,-9.619999999999999,1.17,1.59,-0.05,0.13,0.07000000000000001
14.16551792621613,2,3,3,3,-9.65,1.15,1.68,-0.05,0.13,0.07000000000000001
14.17551791667938,2,3,3,3,-9.66,1.13,1.69,0.2,0.01,0.03
14.18551790714264,2,3,3,3,-9.67,1.17,1.63,0.28,-0.01,0.02
14.1955178976059,2,3,3,3,-9.710000000000001,1.19,1.55,0.32,-0.01,0.01
14.20551788806915,2,3,3,3,-9.699999999999999,1.21,1.62,0.34,-0.1,0.02
14.21551787853241,2,3,3,3,-9.73,1.19,1.65,0.34,-0.1,0.02
14.22551786899567,2,3,3,3,-9.67,1.19,1.59,0.32,-0.12,0.03
14.23551785945892,2,3,3,3,-9.619999999999999,1.2,1.57,0.14,-0.07000000000000001,0.12
14.24551808834076,2,3,3,3,-9.6,1.23,1.49,0.14,-0.07000000000000001,0.12
14.25551807880402,2,3,3,3,-9.619999999999999,1.24,1.59,0.08,-0.1,0.17
14.26551806926727,2,3,3,3,-9.66,1.22,1.62,0.16,-0.15,0.17
14.27551805973053,2,3,3,3,-9.67,1.27,1.62,0.23,-0.18,0.12
14.28551805019379,2,3,3,3,-9.67,1.26,1.61,0.26,-0.11,0.11
14.29551804065704,2,3,3,3,-9.67,1.26,1.48,0.2,-0.04,0.09
14.31551802158356,2,3,3,3,-9.66,1.25,1.58,0.06,0.07000000000000001,0.11
14.32551801204681,2,3,3,2,-9.619999999999999,1.22,1.61,-0.02,0.05,0.11
14.33551800251007,2,3,3,2,-9.66,1.25,1.58,-0.04,0.07000000000000001,0.12
14.34551799297333,2,3,3,2,-9.65,1.24,1.52,0.04,0.06,0.15
14.35551798343658,2,3,3,2,-9.68,1.25,1.54,0.09,0.05,0.18
14.36551797389984,2,3,3,2,-9.710000000000001,1.23,1.53,0.1,0.05,0.21
14.3755179643631,2,3,3,2,-9.67,1.21,1.6,0,0.1,0.25
14.38551795482635,2,3,3,2,-9.640000000000001,1.2,1.63,-0.12,0.13,0.26
14.39551794528961,2,3,3,2,-9.66,1.2,1.56,-0.17,0.09,0.25
14.40551793575287,2,3,3,2,-9.65,1.2,1.62,-0.03,0.05,0.22
14.41551792621613,2,3,3,2,-9.640000000000001,1.22,1.61,0.17,0.06,0.22
14.42551791667938,2,3,3,2,-9.640000000000001,1.22,1.59,0.24,0.09,0.22
14.43551790714264,2,3,3,2,-9.68,1.25,1.58,0.21,0.16,0.26
14.4455178976059,2,3,3,2,-9.68,1.25,1.47,0.13,0.1,0.32
14.45551788806915,2,3,3,2,-9.68,1.25,1.51,0.07000000000000001,0.08,0.34
14.46551787853241,2,3,3,2,-9.699999999999999,1.26,1.55,-0.01,0.02,0.3
14.47551786899567,2,3,3,2,-9.640000000000001,1.28,1.58,-0.04,-0.07000000000000001,0.3
14.48551785945892,2,3,3,2,-9.619999999999999,1.26,1.58,-0.01,-0.13,0.26
14.49551808834076,2,3,3,2,-9.58,1.25,1.52,0.05,-0.11,0.22
14.50551807880402,2,3,3,2,-9.6,1.25,1.55,0.03,-0.07000000000000001,0.15
14.51551806926727,2,3,3,2,-9.65,1.25,1.6,0.01,-0.09,0.1
14.52551805973053,2,3,3,2,-9.69,1.24,1.64,0.03,-0.1,0.07000000000000001
14.53551805019379,2,3,3,2,-9.710000000000001,1.25,1.58,0.1,-0.11,0.06
14.54551804065704,2,3,3,2,-9.699999999999999,1.24,1.48,0.09,-0.05,0.04
14.5555180311203,2,3,3,2,-9.710000000000001,1.2,1.52,-0.03,0,0.04
14.56551802158356,2,3,3,2,-9.699999999999999,1.22,1.61,-0.11,0.04,0.08
14.57551801204681,2,3,3,2,-9.699999999999999,1.22,1.64,-0.09,-0.08,0.1
14.58551800251007,2,3,3,2,-9.66,1.23,1.66,0.01,-0.18,0.09
14.59551799297333,2,3,3,2,-9.6,1.26,1.54,0.05,-0.23,0.1
14.60551798343658,2,3,3,2,-9.550000000000001,1.29,1.56,0.06,-0.12,0.1
14.61551797389984,2,3,3,2,-9.58,1.28,1.55,0.05,-0.04,0.1
14.6255179643631,2,3,3,2,-9.6,1.3,1.56,0.02,0.04,0.11
14.63551795482635,2,3,3,2,-9.630000000000001,1.28,1.51,-0.03,0.07000000000000001,0.1
14.64551794528961,2,3,3,2,-9.640000000000001,1.25,1.5,-0.09,0.1,0.11
14.65551793575287,2,3,3,2,-9.65,1.25,1.56,-0.16,0.07000000000000001,0.12
14.66551792621613,2,3,3,2,-9.67,1.23,1.6,-0.15,0.05,0.12
14.67551791667938,2,3,3,2,-9.75,1.25,1.67,-0.18,-0.03,0.12
14.68551790714264,2,3,3,2,-9.74,1.26,1.63,-0.15,-0.15,0.07000000000000001
14.6955178976059,2,3,3,2,-9.68,1.25,1.49,-0.07000000000000001,-0.21,0.06
14.70551788806915,2,3,3,2,-9.65,1.22,1.49,-0.09,-0.17,0.03
14.71551787853241,2,3,3,2,-9.58,1.2,1.58,-0.15,-0.04,0.08
14.72551786899567,2,3,3,2,-9.57,1.2,1.6,-0.18,0.04,0.08
14.73551785945892,2,3,3,2,-9.59,1.2,1.64,-0.2,0.11,0.11
14.74551808834076,2,3,3,2,-9.619999999999999,1.19,1.55,-0.15,0.08,0.12
14.75551807880402,2,3,3,2,-9.609999999999999,1.2,1.57,-0.05,0.06,0.09
14.76551806926727,2,3,3,2,-9.65,1.21,1.61,-0.06,0.12,0.06
14.77551805973053,2,3,3,2,-9.66,1.2,1.67,-0.1,0.12,0.05
14.78551805019379,2,3,3,2,-9.67,1.2,1.66,-0.08,0.01,0.05
14.79551804065704,2,3,3,2,-9.67,1.19,1.51,-0.06,-0.05,0.05
14.8055180311203,2,3,3,2,-9.65,1.19,1.51,-0.03,-0.09,0.02
14.81551802158356,2,3,3,2,-9.65,1.18,1.57,0,-0.16,0.04
14.82551801204681,2,3,3,2,-9.630000000000001,1.17,1.55,0.08,-0.18,0.03
14.83551800251007,2,3,3,2,-9.640000000000001,1.18,1.58,0.08,-0.1,0.03
14.84551799297333,2,3,3,2,-9.630000000000001,1.2,1.51,0.13,-0.09,-0.03
14.85651791095734,2,3,3,2,-9.619999999999999,1.23,1.51,0.17,-0.06,-0.03
14.86551797389984,2,3,3,2,-9.65,1.22,1.56,0.17,0.05,-0.06
14.8755179643631,2,3,3,2,-9.67,1.21,1.61,0.16,0.08,-0.05
14.88651788234711,2,3,3,2,-9.710000000000001,1.21,1.64,0.12,0.06,-0.06
14.89551794528961,2,3,3,2,-9.710000000000001,1.2,1.59,0.12,-0.01,-0.04
14.90551793575287,2,3,3,2,-9.65,1.17,1.55,0.2,-0.06,-0.05
14.91651809215546,2,3,3,2,-9.67,1.17,1.6,0.26,0.01,-0.05
14.92551791667938,2,3,3,2,-9.67,1.17,1.63,0.22,0.03,-0.04
14.93551790714264,2,3,3,2,-9.65,1.18,1.68,0.09,-0.04,-0.02
14.94651806354523,2,3,3,2,-9.710000000000001,1.24,1.8,0,-0.27,0.06
14.95551788806915,2,3,3,2,-9.83,1.31,2.11,-0.21,-0.74,0.16
14.96551787853241,2,3,3,2,-9.85,1.31,2.08,-0.39,-1.71,0.31
14.976518034935,2,3,3,2,-9.550000000000001,1.23,1.63,0.39,-2.63,0.41
14.98551785945892,2,3,3,2,-9.76,1.27,1.57,0.93,-2.22,0.37
14.99551808834076,2,3,3,2,-9.52,1.11,1.26,0.23,-2.15,0.31
15.00651800632477,2,3,3,2,-9.34,1.11,1.09,0.42,-1.91,0.28
15.01551806926727,2,3,3,2,-9.380000000000001,1.14,1.27,0.3,-1.24,0.21
15.02551805973053,2,3,3,2,-9.470000000000001,1.06,1.59,-0.3,-1.1,0.18
15.03651797771454,2,3,3,2,-9.59,1.17,1.71,-0.36,-1.18,0.23
15.04551804065704,2,3,3,2,-9.720000000000001,1.06,1.58,-0.58,-1.24,0.2
15.0555180311203,2,3,3,2,-9.66,1.07,1.38,-0.12,-1.34,0.1
15.06651794910431,2,3,3,2,-9.619999999999999,1.05,1.35,0.22,-1.1,0.1
15.07551801204681,2,3,3,2,-9.539999999999999,1.01,1.31,0.43,-0.76,0.18
15.08551800251007,2,3,3,2,-9.6,1.01,1.33,0.49,-0.3,0.33
15.09651792049408,2,3,3,2,-9.76,1.04,1.24,0.5,-0.01,0.48
15.10551798343658,2,3,3,2,-9.82,1.01,1.28,0.59,0.05,0.59
15.11551797389984,2,3,3,2,-9.859999999999999,1,1.29,0.74,0.09,0.65
15.12651789188385,2,3,3,2,-9.93,1.06,1.28,0.83,0.29,0.71
15.13651788234711,2,3,3,2,-9.92,1.15,1.21,0.74,0.6,0.75
15.14651787281036,2,3,3,2,-9.859999999999999,1.14,1.16,0.46,0.6899999999999999,0.76
15.15651786327362,2,3,3,2,-9.83,1.13,1.24,0.22,0.62,0.8
15.16651809215546,2,3,3,2,-9.76,1.15,1.26,0.01,0.4,0.79
15.17651808261871,2,3,3,2,-9.68,1.15,1.42,-0.25,0.22,0.83
15.18651807308197,2,3,3,2,-9.720000000000001,1.08,1.38,-0.65,0.09,0.83
15.19651806354523,2,3,3,2,-9.67,1.08,1.32,-1,-0.13,0.8100000000000001
15.20651805400848,2,3,3,2,-9.6,1,1.31,-1.22,-0.27,0.73
15.21651804447174,2,3,3,2,-9.56,0.86,1.42,-1.18,-0.31,0.61
15.226518034935,2,3,3,2,-9.56,0.85,1.42,-0.96,-0.21,0.46
15.23651802539825,2,3,3,2,-9.609999999999999,0.83,1.44,-0.7,0.04,0.32
15.24651801586151,2,3,3,2,-9.619999999999999,0.83,1.34,-0.53,0.15,0.27
15.25651800632477,2,3,3,2,-9.67,0.86,1.38,-0.31,0.27,0.23
15.26651799678802,2,3,3,2,-9.69,0.89,1.34,-0.01,0.34,0.28
15.27651798725128,2,3,3,2,-9.69,0.95,1.29,0.24,0.4,0.31
15.28651797771454,2,3,3,2,-9.67,1.05,1.19,0.37,0.41,0.34
15.2965179681778,2,3,3,2,-9.74,1.05,1.16,0.41,0.45,0.38
15.30651795864105,2,3,3,2,-9.77,1.11,1.23,0.4,0.51,0.33
15.31651794910431,2,3,3,2,-9.779999999999999,1.17,1.29,0.35,0.5,0.33
15.32651793956757,2,3,3,2,-9.83,1.21,1.32,0.32,0.52,0.34
15.33651793003082,2,3,3,2,-9.859999999999999,1.26,1.3,0.29,0.5600000000000001,0.38
15.34651792049408,2,3,3,2,-9.85,1.29,1.23,0.28,0.62,0.41
15.35651791095734,2,3,3,2,-9.84,1.31,1.27,0.28,0.6,0.48
15.36651790142059,2,3,3,2,-9.779999999999999,1.36,1.34,0.36,0.67,0.62
15.37651789188385,2,3,3,2,-9.82,1.39,1.39,0.3,0.67,0.73
15.38651788234711,2,3,3,2,-9.83,1.42,1.34,0.19,0.67,0.84
15.39651787281036,2,3,3,2,-9.85,1.47,1.22,0.17,0.65,0.96
15.40651786327362,2,3,3,2,-9.84,1.54,1.29,0.08,0.65,1.01
15.41651809215546,2,3,3,2,-9.82,1.52,1.38,-0.05,0.63,1.1
15.42651808261871,2,3,3,2,-9.77,1.56,1.44,-0.32,0.45,1.16
15.43651807308197,2,3,3,2,-9.85,1.66,1.74,-0.43,0.15,1.13
15.44651806354523,2,3,3,2,-9.93,1.75,1.87,-0.7,-0.21,1.04
15.45651805400848,2,3,3,2,-9.94,1.9,1.92,-0.7,-0.79,1.04
15.46651804447174,2,3,3,2,-9.94,2.02,1.82,-0.42,-1.42,1
15.476518034935,2,3,3,2,-9.859999999999999,2.25,1.65,-0.05,-1.92,1.06
15.48651802539825,2,3,3,2,-9.73,2.26,1.59,0.07000000000000001,-2.2,1.1
15.49651801586151,2,3,3,2,-9.59,2.35,1.6,-0.07000000000000001,-2.45,1.27
15.50651800632477,2,3,3,2,-9.380000000000001,2.31,1.73,-0.45,-2.5,1.49
15.51651799678802,2,3,3,2,-9.23,2.35,2.19,-1.2,-2.35,1.74
15.52651798725128,2,3,3,2,-9.35,2.27,2.43,-2.14,-2.2,2
15.53651797771454,2,3,3,2,-9.49,2.13,2.65,-3.1,-2.11,1.93
15.5465179681778,2,3,3,2,-9.49,1.78,2.61,-3.92,-2.56,1.66
15.55651795864105,2,3,3,2,-9.6,1.43,3.06,-3.93,-3.16,1.2
15.56651794910431,2,3,3,2,-9.380000000000001,1.21,3.2,-4.03,-3.47,0.49
15.57651793956757,2,3,3,2,-9.15,0.78,3.17,-3.95,-3.88,-0.06
15.58651793003082,2,3,3,2,-9.09,0.6,3.12,-3.34,-4.09,-0.45
15.59651792049408,2,3,3,2,-9.449999999999999,0.26,3.27,-2.76,-3.47,-0.86
15.60651791095734,2,3,3,2,-9.539999999999999,0.28,3.43,-2.71,-3.05,-1.29
15.61651790142059,2,3,3,2,-9.77,0.24,3.6,-2.3,-3.13,-1.52
15.62651789188385,2,3,3,2,-9.77,0.24,3.6,-2.16,-3.4,-1.81
15.63651788234711,2,3,3,2,-9.98,0.1,3.75,-1.95,-3.83,-2.09
15.64651787281036,2,3,3,2,-9.85,0,3.46,-1.51,-4.17,-2.37
15.65651786327362,2,3,3,2,-9.9,0.05,3.49,-0.96,-4.19,-2.64
15.66651809215546,2,3,3,2,-9.91,0.2,3.23,-0.41,-4.3,-2.79
15.67651808261871,2,3,3,2,-9.9,0.23,3.17,0.21,-4.69,-2.7
15.68651807308197,2,3,3,2,-9.9,0.23,3.17,0.46,-4.73,-2.38
15.69651806354523,2,3,3,2,-9.82,0.35,3,0.46,-4.52,-1.88
15.70651805400848,2,3,3,2,-9.630000000000001,0.44,3.21,0.39,-4.34,-1.29
15.71651804447174,2,3,3,2,-9.470000000000001,0.52,3.22,0.22,-4.48,-0.8
15.726518034935,2,3,3,2,-9.18,0.66,3.21,0.58,-4.34,-0.41
15.73651802539825,2,3,3,2,-9.08,0.65,3.27,1.02,-4.41,-0.11
15.74651801586151,2,3,3,2,-8.59,0.61,3.35,1.15,-4.52,0.04
15.75651800632477,2,3,3,2,-8.460000000000001,0.7,3.57,0.79,-4.56,0.02
15.76651799678802,2,3,3,2,-8.43,0.63,3.63,0.68,-4.39,-0.02
15.77651798725128,2,3,3,2,-8.130000000000001,0.62,3.7,0.78,-4.69,-0.07000000000000001
15.78651797771454,2,3,3,2,-8.24,0.22,3.71,0.62,-4.61,-0.2
15.7965179681778,2,3,3,2,-8.359999999999999,0.05,3.71,0.54,-4.14,-0.44
15.80651795864105,2,3,3,2,-8.470000000000001,-0.09,3.79,0.43,-3.73,-0.66
15.81651794910431,2,3,3,2,-8.48,-0.1,3.84,0.49,-3.29,-0.86
15.82651793956757,2,3,3,2,-8.609999999999999,-0.14,3.76,0.89,-3.39,-1.06
15.83651793003082,2,3,3,2,-8.609999999999999,-0.14,3.76,1.45,-3.33,-1.37
15.84651792049408,2,3,3,2,-8.720000000000001,-0.21,3.6,1.84,-2.91,-1.67
15.85651791095734,2,3,3,2,-8.619999999999999,-0.25,3.63,1.92,-2.55,-1.93
15.86651790142059,2,3,3,2,-8.460000000000001,-0.33,3.63,1.94,-2.04,-2.11
15.87651789188385,2,3,3,2,-8.460000000000001,-0.33,3.63,1.85,-1.65,-2.1
15.88651788234711,2,3,3,2,-8.48,-0.32,3.65,1.87,-1.25,-1.99
15.89651787281036,2,3,3,2,-8.25,-0.34,3.68,1.94,-1.36,-2.14
15.90651786327362,2,3,3,2,-8.33,-0.36,3.89,1.81,-1.33,-2.24
15.91651809215546,2,3,3,2,-8.18,-0.31,3.84,1.76,-1.57,-2.39
15.92651808261871,2,3,3,2,-8.18,-0.31,3.84,1.76,-1.57,-2.39
15.93651807308197,2,3,3,2,-8.039999999999999,-0.38,3.71,2.04,-1.67,-2.37
15.94651806354523,2,3,3,2,-8.289999999999999,-0.32,3.76,2.21,-0.38,-2.02
15.95651805400848,2,3,3,2,-8.49,-0.33,4.12,1.79,-0.15,-1.72
15.96651804447174,2,3,3,2,-8.630000000000001,-0.34,4.22,1.3,-0.52,-1.63
15.976518034935,2,3,3,2,-8.630000000000001,-0.34,4.22,1.3,-0.52,-1.63
15.98651802539825,2,3,3,2,-8.67,-0.36,3.95,1.19,-1.19,-1.51
15.99651801586151,2,3,3,2,-8.65,-0.43,3.66,2.47,-1.38,-1.32
16.00651800632477,2,3,3,2,-8.65,-0.35,3.55,3.05,-0.51,-1.2
16.01651799678802,2,3,3,2,-8.75,-0.34,3.85,3.19,0.06,-1.01
16.02651798725128,2,3,3,2,-8.550000000000001,-0.38,4.04,3.19,0.06,-1.01
16.03651797771454,2,3,3,2,-8.449999999999999,-0.29,4.21,3.22,0.13,-0.87
16.0465179681778,2,3,3,2,-8.300000000000001,-0.27,4.35,3.48,0.11,-0.93
16.05651795864105,2,3,3,2,-8.32,-0.37,4.4,3.81,-0.31,-1.15
16.06651794910431,2,3,3,2,-8.27,-0.5600000000000001,4.49,4.03,-0.51,-1.56
16.07651793956757,2,3,3,2,-8.41,-0.71,4.6,4.03,-0.51,-1.56
16.08651793003082,2,3,3,2,-8.51,-1.08,4.62,4.17,-0.5600000000000001,-1.99
16.09651792049408,2,3,3,2,-8.82,-1.41,5.24,4.18,-0.96,-3.45
16.10651791095734,2,3,3,2,-9.35,-1.53,5.64,4.23,-1.63,-4.22
16.11651790142059,2,3,3,2,-10,-1.28,6.05,5.6,-4.07,-5.35
16.12651789188385,2,3,3,2,-10.72,-0.6899999999999999,6.14,5.6,-4.07,-5.35
16.13651788234711,2,3,3,2,-12.15,0.51,5.68,7.8,-7.96,-6.12
16.14751803874969,2,3,3,2,-12.97,1.35,5.62,10.81,-12.85,-6.03
16.15751802921295,2,3,3,2,-13.88,2.62,5.34,11.44,-14.13,-4.44
16.16751801967621,2,3,3,2,-14.19,3.38,4.57,10.43,-13.44,-1.7
16.17751801013947,2,3,3,2,-14.37,3.61,3.24,10.43,-13.44,-1.7
16.18751800060272,2,3,3,2,-13.02,2.85,4,7.36,-9.51,1.27
16.19751799106598,2,3,3,2,-10.46,1.76,5.34,-1.45,-4.1,4.13
16.20751798152924,2,3,3,2,-8.27,0.9399999999999999,6.29,-4,-3.1,2.81
16.21751797199249,2,3,3,2,-6.54,0.83,7.04,-3.12,-1.79,0.61
16.22751796245575,2,3,3,2,-7.14,0.72,6.86,-3.12,-1.79,0.61
16.23751795291901,2,3,3,2,-8.01,0.63,6.5,1.49,-1.02,-2.67
16.24751794338226,2,3,3,2,-10.03,1,5.27,3.4,-1.56,-3.56
16.25751793384552,2,3,3,2,-10.67,1.13,3.86,2.7,2.67,-1.25
16.26751792430878,2,3,3,2,-11.01,1.17,2.75,0.55,7.74,1
16.27751791477203,2,3,3,2,-11.06,1.61,2.34,0.55,7.74,1
16.28751790523529,2,3,3,2,-10.49,2.43,2.59,-0.29,12.21,3.06
16.29751789569855,2,3,3,2,-9.9,2.6,2.82,0.28,16.53,4.34
16.3075178861618,2,3,3,2,-9.42,2.69,2.72,0.55,16.39,4.01
16.31751787662506,2,3,3,2,-8.859999999999999,2.44,2.19,0.96,15.13,3.74
16.32751786708832,2,3,3,2,-8.300000000000001,2.44,1.9,0.96,15.13,3.74
16.33751785755157,2,3,3,2,-8.539999999999999,2.45,2.22,1.73,13.09,3.85
16.34751808643341,2,3,3,2,-8.31,2.42,2.09,2.77,7.82,4.3
16.35751807689667,2,3,3,2,-7.81,2.37,1.68,2.75,6.29,4.04
16.36751806735992,2,3,3,2,-8.82,2.2,1.41,2.48,5.7,3.65
16.37751805782318,2,3,3,2,-9,2.2,1.47,2.48,5.7,3.65
16.38751804828644,2,3,3,2,-8.720000000000001,2.11,1.51,2.16,4,3.48
16.39751803874969,2,3,3,2,-8.15,2.46,1.41,0.9399999999999999,2.02,2.68
16.40751802921295,2,3,3,2,-7.6,2.38,1.56,1,2.69,2.35
16.41751801967621,2,3,3,2,-7.08,2.48,1.67,1.01,3.75,2.18
16.42751801013947,2,3,3,2,-7.39,2.66,2.06,1.01,3.75,2.18
16.43751800060272,2,3,3,2,-7.82,2.97,1.64,0.64,4.84,2.28
16.44751799106598,2,3,3,2,-7.84,3.03,1.53,-0.07000000000000001,5.34,2.6
16.45751798152924,2,3,3,2,-8,3.04,1.4,-0.96,5.35,3.13
16.46751797199249,2,3,3,2,-8.18,3.14,1.4,-2.14,5.09,3.48
16.47751796245575,2,3,3,2,-8.17,2.97,1.46,-3.83,4.93,3.64
16.48751795291901,2,3,3,2,-8.210000000000001,2.74,1.59,-5.15,4.78,3.7
16.49751794338226,2,3,3,2,-8.33,2.48,1.57,-6.13,4.58,3.43
16.50751793384552,2,3,3,2,-8.48,1.88,1.28,-6.22,4.52,2.94
16.51751792430878,2,3,3,2,-9.06,1.29,1.55,-5.98,4.44,2.44
16.52751791477203,2,3,3,2,-9.27,1.14,1.49,-5.49,3.93,2.02
16.53751790523529,2,3,3,2,-9.42,0.84,1.58,-5.18,3.96,1.52
16.54751789569855,2,3,3,2,-9.5,0.65,1.65,-4.82,3.78,1.18
16.5575178861618,2,3,3,2,-9.44,0.51,1.72,-4.57,3.23,1.01
16.56751787662506,2,3,3,2,-9.19,0.5600000000000001,1.77,-3.96,2.54,0.92
16.57751786708832,2,3,3,2,-9.119999999999999,0.44,1.78,-3.16,2.32,0.5600000000000001
16.58751785755157,2,3,3,2,-9,0.45,1.69,-2.14,2.29,0.03
16.59751808643341,2,3,3,2,-9.039999999999999,0.41,1.74,-1.12,2.53,-0.52
16.60751807689667,2,3,3,2,-8.92,0.54,1.83,-0.6,3.09,-0.9
16.61751806735992,2,3,3,2,-8.31,0.62,1.75,-0.47,2.94,-1.08
16.62751805782318,2,3,3,2,-8.84,0.84,1.96,-0.3,3.07,-1.31
16.63751804828644,2,3,3,2,-10.04,1.13,1.86,0.34,1.86,-1.84
16.64751803874969,2,3,3,2,-11.05,1.3,1.82,1.17,0.03,-2.72
16.65751802921295,2,3,3,2,-11.6,1.22,1.53,1.46,-0.31,-3.8
16.66751801967621,2,3,3,2,-11.15,1.27,1.24,1.07,-0.29,-4.26
16.67751801013947,2,3,3,2,-10.32,1.23,1.71,-0.96,-0.51,-3.54
16.68751800060272,2,3,3,1,-10.11,1.31,2.34,-3.03,-0.45,-2.19
16.69751799106598,2,3,3,1,-10.04,1.36,2.67,-3.09,-0.66,-0.76
16.70751798152924,2,3,3,1,-9.73,1.79,2.4,-1.7,-0.26,0.39
16.71751797199249,2,3,3,1,-9.31,1.86,2.14,-0.4,0.79,0.98
16.72751796245575,2,3,3,1,-9.18,1.87,2.11,0.17,2.38,0.98
16.73751795291901,2,3,3,1,-8.789999999999999,1.78,1.94,0.33,2.93,1.17
16.74751794338226,2,3,3,1,-8.99,1.72,1.57,0.26,3.41,1.68
16.75751793384552,2,3,3,1,-9.4,1.56,1.36,-0.34,4.01,2.27
16.76751792430878,2,3,3,1,-9.43,1.79,1.39,-0.96,3.57,2.77
16.77751791477203,2,3,3,1,-9.42,1.73,1.25,-1.95,3.31,2.98
16.78751790523529,2,3,3,1,-9.84,1.54,1.3,-3.27,3.09,3.17
16.79751789569855,2,3,3,1,-9.720000000000001,1.61,1.34,-4.03,1.93,3.14
16.8075178861618,2,3,3,1,-9.380000000000001,1.42,1.35,-4.84,0.52,2.9
16.81751787662506,2,3,3,1,-8.94,1.35,1.68,-5.81,0.07000000000000001,2.51
16.82751786708832,2,3,3,1,-8.869999999999999,1.24,1.69,-6.7,0.16,1.99
16.83751785755157,2,3,3,1,-9.09,1.09,1.7,-7.27,0.53,1.36
16.85751807689667,2,3,3,1,-9.48,0.64,1.66,-8,0.64,0.41
16.86751806735992,2,3,3,1,-9.6,0.41,1.62,-7.86,1.01,0.25
16.87751805782318,2,3,3,1,-9.74,0.31,1.68,-7.45,1.34,0.53
16.88751804828644,2,3,3,1,-9.779999999999999,0.15,1.73,-7.08,1.63,1.09
16.89751803874969,2,3,3,1,-10.16,-0.06,1.93,-6.57,2.02,1.75
16.90751802921295,2,3,3,1,-10.31,-0.13,1.93,-6.05,2.11,2.35
16.91751801967621,2,3,3,1,-10.39,-0.11,1.83,-5.47,1.86,2.82
16.92751801013947,2,3,3,1,-10.41,-0.09,1.72,-5.53,1.75,3.21
16.93751800060272,2,3,3,1,-10.27,-0.15,2.3,-6.63,1.87,3.53
16.94751799106598,2,3,3,1,-10.27,-0.23,2.64,-8.119999999999999,2.05,3.67
16.95751798152924,2,3,3,1,-10.34,-0.35,2.82,-8.359999999999999,2.1,3.41
16.96751797199249,2,3,3,1,-10.6,-0.36,2.98,-7.47,2.09,2.55
16.97751796245575,2,3,3,1,-11.04,-0.72,2.43,-5.77,2.06,1.37
16.98751795291901,2,3,3,1,-11.18,-0.83,2.27,-3.91,2.49,0.17
16.99751794338226,2,3,3,1,-11.27,-1.03,2.18,-2.44,3.27,-0.65
17.00751793384552,2,3,3,1,-11.49,-1,2.19,-1.04,4.03,-1.07
17.01751792430878,2,3,3,1,-12.53,-0.49,2.31,0.6899999999999999,4.34,-1.17
17.02751791477203,2,3,3,1,-12.87,0.06,1.91,3.01,4.34,-0.97
17.03751790523529,2,3,3,1,-12.93,0.6899999999999999,1.25,5.52,4.82,-0.65
17.04751789569855,2,3,3,1,-13.27,1.96,0.72,6.77,5.38,-0.33
17.0575178861618,2,3,3,1,-13.21,2.69,0.57,7.3,4.96,-0.15
17.06751787662506,2,3,3,1,-12.89,3.38,0.58,7.36,3.89,-0.17
17.07751786708832,2,3,3,1,-12.28,4.06,0.49,6.24,2.65,-0.45
17.08751785755157,2,3,3,1,-10.37,5.12,0.29,5.17,1.42,-0.8100000000000001
17.09751808643341,2,3,3,1,-8.94,5.74,0.29,4.44,0.83,-1.16
17.10751807689667,2,3,3,1,-8.07,6.13,0.05,3.68,0.98,-1.65
17.11751806735992,2,3,3,1,-7.73,6.21,0.04,2.29,1.83,-2.38
17.12751805782318,2,3,3,1,-6.58,6.11,0.4,-0.5600000000000001,2.07,-3.34
17.13751804828644,2,3,3,1,-6.41,5.67,0.8,-4.8,2.28,-4.19
17.14751803874969,2,3,3,1,-7.27,5.38,1.63,-9.48,2.37,-5.23
17.15751802921295,2,3,3,1,-7.93,4.32,2.12,-12.89,2.29,-6.41
17.16851794719696,2,3,3,1,-8.58,2.47,2.41,-13.92,1.11,-7.75
17.17851793766022,2,3,3,1,-8.94,1.44,2.49,-13.81,-0.57,-9.01
17.18851792812347,2,3,3,1,-9.140000000000001,0.53,2.6,-12.44,-2.19,-9.789999999999999
17.19851791858673,2,3,3,1,-9.369999999999999,-0.13,2.66,-10.26,-3.29,-9.98
17.20851790904999,2,3,3,1,-10.12,-0.96,2.48,-7.76,-3.84,-9.76
17.21851789951324,2,3,3,1,-10.63,-1.04,2.42,-5.16,-4.08,-9.06
17.2285178899765,2,3,3,1,-10.93,-0.98,2.29,-2.53,-4.28,-7.68
17.23851788043976,2,3,3,1,-10.94,-0.52,1.88,-0.24,-4.7,-5.9
17.24851787090302,2,3,3,1,-10.63,-0.25,1.7,1.48,-5.13,-4.03
17.25851786136627,2,3,3,1,-10.35,0.17,1.63,2.88,-5.3,-2.45
17.26851809024811,2,3,3,1,-10.03,0.41,1.74,3.76,-5.41,-1.26
17.27851808071136,2,3,3,1,-9.27,0.65,2.03,4.31,-5.72,-0.71
17.28851807117462,2,3,3,1,-8.77,0.82,2.19,4.57,-6.01,-0.72
17.29851806163788,2,3,3,1,-8.300000000000001,0.96,2.35,4.55,-6.5,-1.17
17.30851805210114,2,3,3,1,-8.06,1.03,2.45,4.49,-6.89,-1.79
17.31851804256439,2,3,3,1,-7.7,1.34,2.72,4.67,-7.07,-2.34
17.32851803302765,2,3,3,1,-7.51,1.49,2.83,5.09,-7.52,-2.57
17.33851802349091,2,3,3,1,-7.44,1.52,2.8,5.33,-7.56,-2.49
17.34851801395416,2,3,3,1,-7.71,1.61,2.8,5.71,-7.19,-2.33
17.35851800441742,2,3,3,1,-8.17,1.67,2.5,5.82,-6.86,-2.19
17.36851799488068,2,3,3,1,-8.380000000000001,1.72,2.47,5.8,-6.14,-2.02
17.37851798534393,2,3,3,1,-8.57,1.78,2.46,5.48,-5.06,-1.64
17.38851797580719,2,3,3,1,-8.85,1.77,2.43,4.81,-4.03,-1.06
17.39851796627045,2,3,3,1,-9.23,1.84,2.51,4.08,-3.32,-0.48
17.4085179567337,2,3,3,1,-9.140000000000001,1.76,2.51,3.1,-3.29,0.01
17.41851794719696,2,3,3,1,-8.880000000000001,1.63,2.63,2.3,-3.25,0.53
17.42851793766022,2,3,3,1,-8,1.15,2.3,1.76,-3.28,0.85
17.43851792812347,2,3,3,1,-7.69,0.8100000000000001,2.21,1.69,-2.74,0.93
17.44851791858673,2,3,3,1,-7.69,0.4,2.56,1.41,-1.29,0.89
17.45851790904999,2,3,3,1,-7.93,-0.11,2.79,0.45,-0.13,0.75
17.46851789951324,2,3,3,1,-7.69,-0.32,2.76,-0.02,0.15,0.63
17.4785178899765,2,3,3,1,-7.62,-0.57,2.69,-0.29,0.26,0.2
17.48851788043976,2,3,3,1,-7.68,-0.72,2.7,0.04,0.76,-0.01
17.49851787090302,2,3,3,1,-8,-0.9399999999999999,2.86,0.16,1.73,-0.18
17.50851786136627,2,3,3,1,-8.460000000000001,-1.42,3.08,0.25,2.2,-0.28
17.51851809024811,2,3,3,1,-8.68,-1.72,3.18,0.6899999999999999,2.06,-0.34
17.52851808071136,2,3,3,1,-8.859999999999999,-1.96,3.35,1.55,1.76,-0.22
17.53851807117462,2,3,3,1,-8.960000000000001,-2.08,3.41,2.82,1.48,-0.02
17.54851806163788,2,3,3,1,-9.199999999999999,-1.99,3.39,4.12,1.49,0.12
17.55851805210114,2,3,3,1,-9.33,-1.72,3.43,5.26,1.7,0.11
17.56851804256439,2,3,3,1,-9.42,-1.54,3.51,6.17,1.71,-0.13
17.57851803302765,2,3,3,1,-9.42,-1.15,3.59,7.1,1.35,-0.42
17.58851802349091,2,3,3,2,-9.77,-0.43,3.55,8.279999999999999,0.73,-0.71
17.59851801395416,2,3,3,2,-10.04,-0.05,3.44,9.630000000000001,-0.15,-1.05
17.60851800441742,2,3,3,2,-10.22,0.44,3.24,11.12,-1.13,-1.31
17.61851799488068,2,3,3,2,-10.02,1.28,2.34,12.48,-1.75,-1.41
17.62851798534393,2,3,3,2,-10.07,1.42,2.11,12.95,-1.17,-1.23
17.63851797580719,2,3,3,2,-10.43,1.35,2.49,11.79,0.86,-0.86
17.64851796627045,2,3,3,2,-10.75,0.9399999999999999,3.02,9.09,2.43,-0.55
17.6585179567337,2,3,3,2,-11.32,-0.23,4.61,5.42,2.93,-0.61
17.66851794719696,2,3,3,2,-11.11,-1,4.99,1.26,2.07,-1.2
17.67851793766022,2,3,3,2,-10.54,-1.53,5.01,-0.71,0,-2.6
17.69851791858673,2,3,3,2,-10.25,-1.3,5.56,0.71,-2.57,-5.81
17.70851790904999,2,3,3,2,-10.78,-1.33,4.83,4.61,-4.2,-6.96
17.71851789951324,2,3,3,2,-11.67,-1.34,4.73,7.7,-6.62,-7.71
17.7285178899765,2,3,3,2,-13.07,-0.95,4.79,8.640000000000001,-5.64,-7.5
17.73851788043976,2,3,3,2,-15.08,1.11,3.51,8.220000000000001,-3.98,-6.26
17.74851787090302,2,3,3,2,-15.42,2.98,2.15,9.66,-2.99,-3.47
17.75851786136627,2,3,3,2,-15.77,4.17,0.48,10.89,-1.63,0.21
17.76851809024811,2,3,3,2,-15.49,4.6,0.5600000000000001,7.77,-0.32,3.54
17.77851808071136,2,3,3,2,-11.7,4.56,3.02,1.85,-0.87,5.99
17.78851807117462,2,3,3,2,-9.84,4.62,3.52,-2.4,-3.98,7.41
17.79851806163788,2,3,3,2,-8.789999999999999,4.46,3.93,-4.05,-5.3,7.11
17.80851805210114,2,3,3,2,-7.54,3.79,3.58,-4.8,-5.53,5.35
17.81851804256439,2,3,3,2,-5.97,2.05,2.66,-3.78,-4.21,3.26
17.82851803302765,2,3,3,2,-5.88,1.54,2.31,-2.38,-0.54,1.35
17.83851802349091,2,3,3,2,-6.12,1.25,1.74,-0.5600000000000001,2.67,0.45
17.84851801395416,2,3,3,2,-6.99,1.1,0.36,1.32,4.35,0.45
17.85851800441742,2,3,3,2,-7.76,1.29,0.04,2.63,5.47,1.33
17.86851799488068,2,3,3,2,-8.550000000000001,1.75,0.05,2.89,6.33,2.64
17.87851798534393,2,3,3,2,-9.08,2.4,0.19,2.65,5.41,3.61
17.88851797580719,2,3,3,2,-9.09,3.21,0.44,2.6,3.33,4.1
17.89851796627045,2,3,3,2,-8.76,3.53,0.72,2.75,1.3,4.11
17.9085179567337,2,3,3,2,-8.380000000000001,3.74,0.93,2.54,0.22,3.73
17.91851794719696,2,3,3,2,-8.01,4.01,1.21,2.17,0.26,3.27
17.92851793766022,2,3,3,2,-7.51,3.87,1.28,1.57,0.42,3.09
17.93851792812347,2,3,3,2,-7.51,3.87,1.28,1.13,0.65,2.98
17.94851791858673,2,3,3,2,-7.44,3.59,1.46,0.57,1.27,2.69
17.95851790904999,2,3,3,2,-7.47,3.71,1.4,0.09,1.67,2.5
17.96851789951324,2,3,3,2,-7.71,3.86,1.09,-0.52,1.99,2.33
17.9785178899765,2,3,3,2,-7.98,4.09,1.01,-1.49,2.72,2.15
17.98851788043976,2,3,3,2,-7.98,4.09,1.01,-2.97,3.51,2.14
17.99851787090302,2,3,3,2,-8.359999999999999,4.1,0.99,-4.55,4.06,1.79
18.00851786136627,2,3,3,2,-9.51,3.8,0.66,-6.48,4.29,1.24
18.01851809024811,2,3,3,2,-9.57,3.42,0.73,-8.6,4.46,0.74
18.02851808071136,2,3,3,2,-9.619999999999999,3.07,0.87,-10.63,4.63,0.49
18.03851807117462,2,3,3,2,-9.619999999999999,3.07,0.87,-10.63,4.63,0.49
18.04851806163788,2,3,3,2,-9.81,1.07,1.38,-13.25,5.05,0.31
18.05851805210114,2,3,3,2,-9.779999999999999,0.49,1.6,-13.41,4.62,0.07000000000000001
18.06851804256439,2,3,3,2,-9.69,0.01,1.76,-13,4.48,-0.31
18.07851803302765,2,3,3,2,-9.42,-0.61,1.78,-11.89,4.54,-0.53
18.08851802349091,2,3,3,2,-9.42,-0.61,1.78,-10.54,4.42,-0.51
18.09851801395416,2,3,3,2,-9.359999999999999,-0.71,1.77,-8.92,3.94,-0.25
18.10851800441742,2,3,3,2,-9.369999999999999,-0.67,1.64,-6.99,3.4,0.18
18.11851799488068,2,3,3,2,-9.51,-0.27,1.53,-5.23,3.22,0.75
18.12851798534393,2,3,3,2,-9.49,-0.19,1.35,-3.66,3.06,1.34
18.13851797580719,2,3,3,2,-9.49,-0.19,1.35,-3.66,3.06,1.34
18.14851796627045,2,3,3,2,-9.41,0.09,1.37,-2.53,2.96,1.92
18.1585179567337,2,3,3,2,-9.449999999999999,0.97,1.4,-1.97,2.59,3.04
18.16851794719696,2,3,3,2,-9.59,1.18,1.52,-2.26,2.39,3.45
18.17851793766022,2,3,3,2,-9.59,1.18,1.52,-2.81,1.94,3.58
18.18851792812347,2,3,3,1,-9.65,1.15,1.61,-2.81,1.94,3.58
18.19951808452606,2,3,3,1,-9.619999999999999,1.12,1.77,-3.25,1.27,3.53
18.20951807498932,2,3,3,1,-9.35,1.03,1.68,-3.79,0.28,3.11
18.21951806545258,2,3,3,1,-9.210000000000001,0.98,1.7,-3.99,0.23,2.92
18.22951805591583,2,3,3,1,-9.24,0.82,1.95,-4.11,0.11,2.77
18.23951804637909,2,3,3,1,-9.300000000000001,0.67,1.94,-4.11,0.11,2.77
18.24951803684235,2,3,3,1,-9.41,0.61,2.05,-3.78,0.06,2.6
18.2595180273056,2,3,3,1,-9.42,0.52,1.89,-3.08,0.49,2.48
18.26951801776886,2,3,3,1,-9.4,0.47,1.71,-2.9,0.73,2.57
18.27951800823212,2,3,3,1,-9.57,0.16,1.72,-2.99,0.77,2.66
18.28951799869537,2,3,3,1,-9.59,0.01,1.76,-2.99,0.77,2.66
18.29951798915863,2,3,3,1,-9.58,-0.13,1.82,-3.39,0.58,2.7
18.30951797962189,2,3,3,1,-9.550000000000001,-0.2,1.85,-4.02,-0.64,2.51
18.31951797008514,2,3,3,1,-9.369999999999999,-0.34,1.66,-4.02,-1.17,2.26
18.3295179605484,2,3,3,1,-9.300000000000001,-0.35,1.63,-3.87,-1.52,1.92
18.33951795101166,2,3,3,1,-9.300000000000001,-0.32,1.67,-3.87,-1.52,1.92
18.34951794147491,2,3,3,1,-9.34,-0.27,1.76,-3.8,-1.68,1.68
18.35951793193817,2,3,3,1,-9.460000000000001,-0.05,1.87,-4.27,-1.55,1.72
18.36951792240143,2,3,3,1,-9.449999999999999,-0.03,1.84,-4.75,-1.25,1.98
18.37951791286469,2,3,3,1,-9.42,-0.04,1.57,-4.55,-0.77,2.43
18.38951790332794,2,3,3,1,-9.31,-0.03,1.56,-4.55,-0.77,2.43
18.3995178937912,2,3,3,1,-9.42,-0.18,2.19,-3.46,0.9399999999999999,3.25
18.40951788425446,2,3,3,1,-9.550000000000001,-0.4,2.09,-1.93,1.65,3.3
18.41951787471771,2,3,3,1,-9.800000000000001,-0.63,1.72,-1.12,2.16,3.21
18.42951786518097,2,3,3,1,-10.55,-0.54,1.98,-1.82,2.41,3.15
18.43951809406281,2,3,3,1,-10.98,-0.22,2.81,-1.82,2.41,3.15
18.44951808452606,2,3,3,1,-11.23,0.2,3.12,-3.98,2.15,3.29
18.45951807498932,2,3,3,1,-11.39,0.65,3.45,-5.12,0.24,3.13
18.46951806545258,2,3,3,1,-11.58,0.86,3.17,-4.46,-0.1,2.37
18.47951805591583,2,3,3,1,-11.36,0.42,2.92,-3.46,0.77,1.34
18.48951804637909,2,3,3,1,-11.19,-0.13,2.72,-3.46,0.77,1.34
18.49951803684235,2,3,3,1,-11.23,-0.6899999999999999,2.64,-0.23,4.76,-0.78
18.5095180273056,2,3,3,1,-12.31,-1.32,2.55,1.57,6.5,-1.39
18.51951801776886,2,3,3,1,-12.86,-1.42,1.53,7.06,8.02,-0.93
18.53951799869537,2,3,3,1,-13.68,-0.08,0.38,7.54,7.61,0.13
18.56951797008514,2,3,3,1,-12.59,5,0.28,6.5,1.18,-1.58
18.59951794147491,2,3,3,1,-7.14,7.99,-0.07000000000000001,4.04,1.07,-1.62
18.60951793193817,2,3,3,1,-6.74,8.07,-0.51,1,1.79,-3.04
18.61951792240143,2,3,3,1,-5.76,7.58,0.12,-3.12,1.65,-4.46
18.62951791286469,2,3,3,1,-6.09,7.17,0.83,-8.1,3.19,-5.8
18.63951790332794,2,3,3,1,-6.9,6.26,1.59,-12.69,5.19,-7.09
18.6495178937912,2,3,3,1,-7.76,5.36,2.15,-15.64,5.46,-8.43
18.65951788425446,2,3,3,1,-9.17,2.96,2.31,-16.45,4.54,-9.75
18.66951787471771,2,3,3,1,-9.550000000000001,1.68,2.19,-15.29,3.41,-10.85
18.67951786518097,2,3,3,1,-10.04,0.36,2.6,-13.5,2.02,-11.52
18.68951809406281,2,3,3,1,-10.65,-0.72,3.04,-11.1,0.17,-11.77
18.69951808452606,2,3,3,2,-11.44,-1.97,3.08,-7.73,-1.75,-11.53
18.70951807498932,2,3,3,2,-11.59,-2.03,2.97,-4.12,-3.3,-10.39
18.71951806545258,2,3,3,2,-11.81,-1.89,2.63,-0.96,-4.43,-8.4
18.72951805591583,2,3,3,2,-11.66,-1.54,2.29,1.84,-5.57,-5.92
18.73951804637909,2,3,3,2,-11.21,-0.61,1.71,3.77,-6.21,-3.63
18.74951803684235,2,3,3,2,-10.93,0.01,1.61,5.24,-7.37,-1.69
18.7595180273056,2,3,3,2,-10.48,0.62,1.65,6.25,-8.23,-0.84
18.76951801776886,2,3,3,2,-10.04,0.77,1.58,6.94,-8.539999999999999,-0.29
18.77951800823212,2,3,3,2,-8.880000000000001,1.17,2.01,7.33,-8.76,-0.12
18.78951799869537,2,3,3,2,-8.49,1.03,2.25,7.11,-9.390000000000001,-0.34
18.79951798915863,2,3,3,2,-8,0.97,2.16,7.99,-10.27,-0.78
18.80951797962189,2,3,3,2,-7.54,1.19,2.17,8.76,-10.52,-1.32
18.81951797008514,2,3,3,2,-7.09,1.46,2.12,8.630000000000001,-9.800000000000001,-1.97
18.8295179605484,2,3,3,2,-7.18,1.65,2.22,7.91,-9.06,-2.62
18.83951795101166,2,3,3,2,-7.2,1.81,2.39,6.84,-8.630000000000001,-2.92
18.84951794147491,2,3,3,2,-7.12,1.82,2.42,5.43,-8.109999999999999,-2.89
18.85951793193817,2,3,3,2,-7.36,1.76,2.4,4.18,-7.15,-2.77
18.86951792240143,2,3,3,2,-7.49,1.63,2.31,3.05,-6.2,-2.53
18.87951791286469,2,3,3,2,-7.6,1.42,2.42,2.18,-4.74,-2
18.88951790332794,2,3,3,2,-8.19,0.98,2.79,1.64,-3.79,-1.29
18.8995178937912,2,3,3,2,-8.25,1.21,2.91,1.57,-2.99,-0.63
18.90951788425446,2,3,3,2,-8.42,0.9399999999999999,2.74,1.65,-3.46,-0.36
18.91951787471771,2,3,3,2,-8.289999999999999,0.61,2.67,2.34,-3.05,0.09
18.92951786518097,2,3,3,2,-8.130000000000001,0.17,2.79,2.98,-1.96,0.34
18.93951809406281,2,3,3,2,-8.06,0,2.86,3.48,-1.23,0.42
18.94951808452606,2,3,3,2,-7.97,-0.09,2.9,3.46,-0.61,0.57
18.95951807498932,2,3,3,2,-7.85,-0.23,2.75,3.18,-0.03,0.7
18.96951806545258,2,3,3,2,-7.8,-0.47,2.68,2.54,0.79,0.77
18.97951805591583,2,3,3,2,-7.9,-0.59,3.01,1.35,1.4,0.6899999999999999
18.98951804637909,2,3,3,2,-8.1,-0.76,3.19,0.51,1.35,0.41
18.99951803684235,2,3,3,2,-8.16,-1.1,3.22,0.33,0.9399999999999999,0.02
19.0095180273056,2,3,3,2,-8.210000000000001,-1.35,3.23,0.6899999999999999,0.73,-0.44
19.01951801776886,2,3,3,2,-8.49,-1.74,3.6,1.14,0.84,-0.74
19.02951800823212,2,3,3,2,-8.84,-1.8,4.06,1.65,0.54,-0.5
19.03951799869537,2,3,3,2,-9.01,-1.95,4.04,2.65,-1.28,-1.34
19.04951798915863,2,3,3,2,-8.890000000000001,-1.76,3.89,4.77,-2.4,-1.66
19.05951797962189,2,3,3,2,-8.890000000000001,-1.43,3.29,7.44,-2.07,-1.91
19.06951797008514,2,3,3,2,-9.109999999999999,-0.87,2.95,9.85,-1.02,-1.79
19.0795179605484,2,3,3,2,-10.16,0.3,3.81,11.25,-0.31,-1.15
19.08951795101166,2,3,3,2,-10.21,1.02,3.45,12.94,-0.84,-0.22
19.09951794147491,2,3,3,2,-10.07,1.62,2.5,14.76,-0.85,0.76
19.10951793193817,2,3,3,2,-10.04,1.72,1.82,14.37,0.78,1.35
19.11951792240143,2,3,3,2,-10.99,0.83,2.96,10.59,2.49,1.3
19.12951791286469,2,3,3,2,-11.35,0.11,4.12,5.38,2.42,0.58
19.13951790332794,2,3,3,2,-11.03,-0.5,4.53,1.27,0.64,-1.15
19.1495178937912,2,3,3,2,-10.21,-1.1,4.72,-0.71,-0.57,-3.4
19.15951788425446,2,3,3,2,-9.59,-1.9,5.7,-1.19,-0.98,-5.63
19.16951787471771,2,3,3,2,-10,-2.54,5.56,0.97,-1.73,-7.27
19.17951786518097,2,3,3,2,-10.06,-1.41,5.63,5.73,-1.78,-8.35
19.18951809406281,2,3,3,2,-11.24,-1.35,5.46,8.68,-3.75,-9.32
19.19951808452606,2,3,3,2,-14.11,-0.68,5.05,11.05,-4.17,-8.48
19.22051799297333,2,3,3,2,-16.72,1.68,2.81,13.02,-1.77,-3.66
19.23051798343658,2,3,3,2,-17.86,3.23,1.38,10.59,-0.64,-0.44
19.24051797389984,2,3,3,2,-16.45,3.44,1.98,4.81,-1.48,2.76
19.26051795482635,2,3,3,2,-10.19,3.85,4.13,-3.93,-9.880000000000001,5.63
19.27051794528961,2,3,3,2,-5.71,2.06,4.96,-5.65,-9.18,5.01
19.28051793575287,2,3,3,2,-5.1,1.37,5.1,-5.83,-5.47,3.13
