timestamp,magCalib,accCalib,gyrCalib,sysCalib,accX,accY,accZ,gyrX,gyrY,gyrZ
-0.03648197650909424,3,3,3,3,-9.43,-2.55,0.54,0.02,-0.04,0.04
-0.0264819860458374,3,3,3,3,-9.43,-2.56,0.57,0.01,-0.05,0.01
-0.01648199558258057,3,3,3,3,-9.42,-2.57,0.53,-0.01,-0.05,0.05
-0.00648200511932373,3,3,3,3,-9.43,-2.59,0.47,0,-0.05,0.02
0.003517985343933105,3,3,3,3,-9.42,-2.61,0.48,0.01,-0.05,0.02
0.01351797580718994,3,3,3,3,-9.41,-2.59,0.54,-0.02,-0.04,0.01
0.02351796627044678,3,3,3,3,-9.41,-2.6,0.54,-0.06,-0.05,0.03
0.03351795673370361,3,3,3,3,-9.44,-2.63,0.54,-0.06,-0.05,0.01
0.04351794719696045,3,3,3,3,-9.41,-2.59,0.47,-0.03,-0.04,0.02
0.05351793766021729,3,3,3,3,-9.4,-2.62,0.51,-0.02,-0.06,0.05
0.06351792812347412,3,3,3,3,-9.4,-2.6,0.54,-0.01,-0.07000000000000001,0
0.07351791858673096,3,3,3,3,-9.4,-2.6,0.55,0.01,-0.06,0.03
0.08351790904998779,3,3,3,3,-9.4,-2.58,0.55,-0.01,-0.05,0.01
0.09351789951324463,3,3,3,3,-9.43,-2.59,0.46,-0.02,-0.05,0.02
0.1035178899765015,3,3,3,3,-9.41,-2.59,0.52,-0.02,-0.05,-0.01
0.1135178804397583,3,3,3,3,-9.43,-2.59,0.55,-0.02,-0.06,0
0.1235178709030151,3,3,3,3,-9.4,-2.59,0.57,-0.02,-0.02,0.03
0.133517861366272,3,3,3,3,-9.41,-2.58,0.53,-0.03,0,0.02
0.1435180902481079,3,3,3,3,-9.41,-2.6,0.45,-0.03,-0.03,0.01
0.1535180807113647,3,3,3,3,-9.4,-2.6,0.51,-0.03,-0.03,0.04
0.1635180711746216,3,3,3,3,-9.42,-2.58,0.54,-0.05,0.01,0.03
0.1735180616378784,3,3,3,3,-9.41,-2.6,0.58,-0.04,-0.01,0.02
0.1835180521011353,3,3,3,3,-9.390000000000001,-2.58,0.57,-0.02,-0.03,0.03
0.1935180425643921,3,3,3,3,-9.4,-2.61,0.41,-0.03,0,0.04
0.2035180330276489,3,3,3,3,-9.390000000000001,-2.61,0.47,-0.01,-0.03,0.02
0.2135180234909058,3,3,3,3,-9.390000000000001,-2.61,0.58,-0.02,0.02,0.03
0.2235180139541626,3,3,3,3,-9.390000000000001,-2.61,0.58,0,-0.01,0.07000000000000001
0.2335180044174194,3,3,3,3,-9.4,-2.61,0.57,-0.01,0,0.05
0.2435179948806763,3,3,3,3,-9.380000000000001,-2.59,0.5,-0.01,-0.02,0.08
0.2535179853439331,3,3,3,3,-9.41,-2.58,0.54,0.02,-0.03,0.03
0.2635179758071899,3,3,3,3,-9.41,-2.56,0.5600000000000001,0.02,-0.01,0.05
0.2735179662704468,3,3,3,3,-9.41,-2.57,0.58,-0.02,-0.02,0.03
0.2835179567337036,3,3,3,3,-9.42,-2.59,0.49,-0.08,-0.02,0.04
0.2935179471969604,3,3,3,3,-9.43,-2.62,0.42,-0.07000000000000001,0.02,0.03
0.3035179376602173,3,3,3,3,-9.42,-2.61,0.49,-0.01,0,0.06
0.3135179281234741,3,3,3,3,-9.4,-2.58,0.52,0,-0.02,0.05
0.323517918586731,3,3,3,3,-9.4,-2.55,0.5600000000000001,0.01,0,0.05
0.3335179090499878,3,3,3,3,-9.380000000000001,-2.55,0.53,0.06,-0.01,0.05
0.3435178995132446,3,3,3,3,-9.390000000000001,-2.55,0.43,0.05,-0.01,0.07000000000000001
0.3535178899765015,3,3,3,3,-9.390000000000001,-2.54,0.52,0.05,0,0.09
0.3635178804397583,3,3,3,3,-9.42,-2.55,0.54,0.06,0.02,0.07000000000000001
0.3735178709030151,3,3,3,3,-9.42,-2.55,0.57,0.08,0.03,0.07000000000000001
0.383517861366272,3,3,3,3,-9.44,-2.57,0.5600000000000001,0.07000000000000001,-0.02,0.1
0.3935180902481079,3,3,3,3,-9.44,-2.58,0.45,0.06,0.02,0.1
0.4035180807113647,3,3,3,3,-9.41,-2.61,0.5,0.02,0.01,0.12
0.4135180711746216,3,3,3,3,-9.41,-2.59,0.53,0.02,0,0.11
0.4235180616378784,3,3,3,3,-9.390000000000001,-2.6,0.53,0.06,0.05,0.13
0.4335180521011353,3,3,3,3,-9.42,-2.6,0.57,0.07000000000000001,0.03,0.19
0.4435180425643921,3,3,3,3,-9.44,-2.57,0.42,0.07000000000000001,0.03,0.19
0.4535180330276489,3,3,3,3,-9.41,-2.58,0.5,0.1,0.1,0.19
0.4635180234909058,3,3,3,3,-9.42,-2.62,0.51,0.18,0.11,0.23
0.4735180139541626,3,3,3,3,-9.43,-2.63,0.52,0.27,0.13,0.31
0.4835180044174194,3,3,3,3,-9.44,-2.6,0.47,0.27,0.13,0.31
0.4935179948806763,3,3,3,3,-9.44,-2.56,0.42,0.24,0.14,0.38
0.5035179853439331,3,3,3,3,-9.44,-2.58,0.43,0.25,0.13,0.37
0.5135179758071899,3,3,3,3,-9.449999999999999,-2.57,0.48,0.16,0.15,0.46
0.5235179662704468,3,3,3,3,-9.5,-2.51,0.54,0.04,0.19,0.68
0.5335179567337036,3,3,3,3,-9.43,-2.49,0.51,0.04,0.19,0.68
0.5435179471969604,3,3,3,3,-9.44,-2.52,0.44,0,0.15,0.73
0.5535179376602173,3,3,3,3,-9.44,-2.52,0.47,-0.02,0.15,0.75
0.5635179281234741,3,3,3,3,-9.42,-2.51,0.5,0.01,0.13,0.74
0.573517918586731,3,3,3,3,-9.44,-2.52,0.51,-0.03,0.13,0.75
0.5835179090499878,3,3,3,3,-9.43,-2.47,0.51,-0.01,0.21,0.77
0.5935178995132446,3,3,3,3,-9.48,-2.45,0.39,-0.04,0.26,0.8100000000000001
0.6035178899765015,3,3,3,3,-9.529999999999999,-2.49,0.49,-0.15,0.27,0.88
0.6135178804397583,3,3,3,3,-9.48,-2.37,0.5,-0.22,0.25,1
0.6235178709030151,3,3,3,3,-9.449999999999999,-2.32,0.5,-0.19,0.19,1.04
0.633517861366272,3,3,3,3,-9.49,-2.31,0.5,-0.29,0.27,1.1
0.6435180902481079,3,3,3,3,-9.449999999999999,-2.28,0.41,-0.63,0.2,1.19
0.6535180807113647,3,3,3,3,-9.4,-2.24,0.39,-0.84,0.24,1.09
0.6635180711746216,3,3,3,3,-9.42,-2.4,0.44,-0.84,0.24,1.09
0.6735180616378784,3,3,3,3,-9.470000000000001,-2.44,0.43,-1.12,0.35,1.16
0.6835180521011353,3,3,3,3,-9.390000000000001,-2.43,0.39,-1.36,0.36,1.09
0.6935180425643921,3,3,3,3,-9.42,-2.62,0.37,-1.36,0.35,0.91
0.7035180330276489,3,3,3,3,-9.41,-2.72,0.39,-1.08,0.25,0.8100000000000001
0.7135180234909058,3,3,3,3,-9.43,-2.65,0.41,-1.08,0.25,0.8100000000000001
0.7235180139541626,3,3,3,3,-9.44,-2.67,0.42,-0.9399999999999999,0.2,0.66
0.7335180044174194,3,3,3,3,-9.42,-2.57,0.39,-0.74,0.03,0.51
0.7435179948806763,3,3,3,3,-9.43,-2.57,0.37,-0.76,0.02,0.42
0.7535179853439331,3,3,3,3,-9.44,-2.49,0.38,-0.68,0.07000000000000001,0.39
0.7635179758071899,3,3,3,3,-9.460000000000001,-2.42,0.42,-0.68,0.07000000000000001,0.39
0.7735179662704468,3,3,3,3,-9.460000000000001,-2.38,0.44,-0.66,0.03,0.33
0.7835179567337036,3,3,3,3,-9.460000000000001,-2.3,0.42,-0.63,0.02,0.27
0.7935179471969604,3,3,3,3,-9.48,-2.25,0.38,-0.46,-0.06,0.18
0.8035179376602173,3,3,3,3,-9.48,-2.2,0.42,-0.34,-0.11,0.17
0.8135179281234741,3,3,3,3,-9.470000000000001,-2.19,0.42,-0.34,-0.11,0.17
0.823517918586731,3,3,3,3,-9.48,-2.16,0.47,-0.26,-0.09,0.17
0.8335179090499878,3,3,3,3,-9.5,-2.14,0.44,-0.11,-0.18,0.08
0.8435178995132446,3,3,3,3,-9.52,-2.07,0.37,-0.01,-0.2,0.06
0.8545180559158325,3,3,3,3,-9.550000000000001,-2.09,0.4,-0.02,-0.19,0.08
0.8645180463790894,3,3,3,3,-9.539999999999999,-2.11,0.43,-0.02,-0.19,0.08
0.8745180368423462,3,3,3,3,-9.52,-2.15,0.45,0,-0.21,0.11
0.884518027305603,3,3,3,3,-9.51,-2.23,0.47,0,-0.15,0.12
0.8945180177688599,3,3,3,3,-9.5,-2.25,0.36,0.11,-0.15,0.11
0.9045180082321167,3,3,3,3,-9.51,-2.27,0.35,0.18,-0.14,0.12
0.9145179986953735,3,3,3,3,-9.470000000000001,-2.28,0.44,0.18,-0.14,0.12
0.9245179891586304,3,3,3,3,-9.449999999999999,-2.28,0.44,0.26,-0.18,0.07000000000000001
0.9345179796218872,3,3,3,3,-9.49,-2.26,0.48,0.47,-0.22,-0.04
0.944517970085144,3,3,3,3,-9.460000000000001,-2.25,0.38,0.51,-0.22,-0.08
0.9545179605484009,3,3,3,3,-9.51,-2.24,0.4,0.4,-0.21,-0.11
0.9645179510116577,3,3,3,3,-9.48,-2.26,0.45,0.4,-0.21,-0.11
0.9745179414749146,3,3,3,3,-9.52,-2.29,0.48,0.27,-0.21,-0.1
0.9845179319381714,3,3,3,3,-9.51,-2.25,0.49,0.27,-0.2,-0.17
0.9945179224014282,3,3,3,3,-9.5,-2.32,0.34,0.25,-0.21,-0.16
1.004517912864685,3,3,3,3,-9.49,-2.36,0.41,0.31,-0.23,-0.19
1.014517903327942,3,3,3,3,-9.460000000000001,-2.33,0.48,0.31,-0.23,-0.19
1.024517893791199,3,3,3,3,-9.449999999999999,-2.34,0.49,0.43,-0.23,-0.23
1.034517884254456,3,3,3,3,-9.42,-2.33,0.44,0.45,-0.32,-0.35
1.044517874717712,3,3,3,3,-9.44,-2.38,0.41,0.53,-0.31,-0.42
1.054517865180969,3,3,3,3,-9.449999999999999,-2.36,0.44,0.51,-0.31,-0.46
1.064518094062805,3,3,3,3,-9.48,-2.37,0.45,0.51,-0.31,-0.46
1.074518084526062,3,3,3,3,-9.48,-2.38,0.45,0.49,-0.29,-0.49
1.084518074989319,3,3,3,3,-9.44,-2.38,0.46,0.57,-0.29,-0.57
1.094518065452576,3,3,3,3,-9.460000000000001,-2.45,0.38,0.52,-0.23,-0.53
1.104518055915833,3,3,3,3,-9.460000000000001,-2.45,0.46,0.52,-0.18,-0.49
1.114518046379089,3,3,3,3,-9.49,-2.44,0.48,0.52,-0.18,-0.49
1.124518036842346,3,3,3,3,-9.49,-2.39,0.48,0.46,-0.12,-0.46
1.134518027305603,3,3,3,3,-9.539999999999999,-2.43,0.52,0.31,-0.11,-0.33
1.14451801776886,3,3,3,3,-9.48,-2.46,0.43,0.32,-0.12,-0.3
1.154518008232117,3,3,3,3,-9.44,-2.42,0.49,0.32,-0.11,-0.36
1.164517998695374,3,3,3,3,-9.42,-2.37,0.5,0.32,-0.11,-0.36
1.17451798915863,3,3,3,3,-9.41,-2.34,0.52,0.27,-0.14,-0.4
1.184517979621887,3,3,3,3,-9.41,-2.37,0.47,-0.03,-0.19,-0.54
1.194517970085144,3,3,3,3,-9.43,-2.41,0.4,-0.17,-0.17,-0.54
1.204517960548401,3,3,3,3,-9.449999999999999,-2.45,0.41,-0.3,-0.13,-0.48
1.214517951011658,3,3,3,3,-9.48,-2.53,0.45,-0.3,-0.13,-0.48
1.224517941474915,3,3,3,3,-9.52,-2.59,0.51,-0.22,-0.06,-0.33
1.234517931938171,3,3,3,3,-9.51,-2.56,0.49,0.03,-0.03,0.02
1.244517922401428,3,3,3,3,-9.470000000000001,-2.55,0.39,0.1,-0.05,0.01
1.254517912864685,3,3,3,3,-9.42,-2.52,0.41,0.15,-0.07000000000000001,-0.07000000000000001
1.264517903327942,3,3,3,3,-9.359999999999999,-2.45,0.5,0.15,-0.07000000000000001,-0.07000000000000001
1.274517893791199,3,3,3,3,-9.380000000000001,-2.39,0.52,0.11,-0.1,-0.13
1.284517884254456,3,3,3,3,-9.42,-2.38,0.5,0.01,-0.11,-0.16
1.294517874717712,3,3,3,3,-9.44,-2.44,0.43,-0.04,-0.1,-0.17
1.304517865180969,3,3,3,3,-9.460000000000001,-2.5,0.45,-0.06,-0.03,-0.15
1.314518094062805,3,3,3,3,-9.49,-2.55,0.45,-0.06,-0.03,-0.15
1.324518084526062,3,3,3,3,-9.52,-2.59,0.46,-0.1,-0.06,0.05
1.334518074989319,3,3,3,3,-9.51,-2.61,0.5,-0.05,-0.05,0.08
1.344518065452576,3,3,3,3,-9.470000000000001,-2.58,0.41,-0.08,-0.06,0.06
1.354518055915833,3,3,3,3,-9.41,-2.54,0.43,-0.13,-0.08,0.01
1.364518046379089,3,3,3,3,-9.380000000000001,-2.51,0.44,-0.13,-0.08,0.01
1.374518036842346,3,3,3,3,-9.390000000000001,-2.5,0.46,-0.24,-0.14,-0.02
1.384518027305603,3,3,3,3,-9.44,-2.48,0.39,-0.45,-0.19,0
1.39451801776886,3,3,3,3,-9.48,-2.49,0.33,-0.47,-0.15,0.04
1.404518008232117,3,3,3,3,-9.5,-2.49,0.38,-0.51,-0.18,0.09
1.414517998695374,3,3,3,3,-9.529999999999999,-2.51,0.44,-0.51,-0.18,0.09
1.42451798915863,3,3,3,3,-9.49,-2.48,0.5,-0.43,-0.16,0.23
1.434517979621887,3,3,3,3,-9.5,-2.44,0.52,-0.3,-0.17,0.37
1.444517970085144,3,3,3,3,-9.470000000000001,-2.39,0.44,-0.3,-0.13,0.51
1.454517960548401,3,3,3,3,-9.449999999999999,-2.31,0.41,-0.43,-0.06,0.6899999999999999
1.464517951011658,3,3,3,3,-9.529999999999999,-2.32,0.5,-0.43,-0.06,0.6899999999999999
1.474517941474915,3,3,3,3,-9.529999999999999,-2.28,0.5600000000000001,-0.63,-0.01,0.97
1.484517931938171,3,3,3,3,-9.56,-2.31,0.54,-0.91,0.11,1.48
1.494517922401428,3,3,3,3,-9.56,-2.25,0.39,-1.07,0.18,1.63
1.504517912864685,3,3,3,3,-9.550000000000001,-2.28,0.44,-1.29,0.22,1.85
1.514517903327942,3,3,3,3,-9.529999999999999,-2.34,0.43,-1.29,0.22,1.85
1.524517893791199,3,3,3,3,-9.529999999999999,-2.26,0.41,-1.48,0.31,2.08
1.534517884254456,3,3,3,3,-9.5,-2.21,0.4,-2.26,0.72,2.71
1.544517874717712,3,3,3,3,-9.369999999999999,-2.33,0.37,-2.52,0.92,2.88
1.554517865180969,3,3,3,3,-9.4,-2.58,0.46,-2.56,0.91,2.92
1.564518094062805,3,3,3,3,-9.32,-2.88,0.53,-2.56,0.91,2.92
1.574518084526062,3,3,3,3,-9.32,-3.42,0.38,-2.06,0.78,2.73
1.584518074989319,3,3,3,3,-9.369999999999999,-3.66,0.39,-1.01,0.52,2.52
1.594518065452576,3,3,3,3,-9.33,-3.76,0.35,-0.34,0.31,2.48
1.604518055915833,3,3,3,3,-9.33,-3.78,0.27,0.25,0.23,2.35
1.614518046379089,3,3,3,3,-9.32,-3.64,0.28,0.25,0.23,2.35
1.624518036842346,3,3,3,3,-9.300000000000001,-3.46,0.31,0.75,0.15,2.3
1.634518027305603,3,3,3,3,-9.25,-3.25,0.29,1.31,0.03,2.29
1.64451801776886,3,3,3,3,-9.24,-3.08,0.22,1.42,-0.04,2.27
1.654518008232117,3,3,3,3,-9.31,-2.88,0.29,1.31,-0.08,2.29
1.664517998695374,3,3,3,3,-9.369999999999999,-2.7,0.3,1.31,-0.08,2.29
1.67451798915863,3,3,3,3,-9.4,-2.45,0.32,1.36,-0.25,2.3
1.684517979621887,3,3,3,3,-9.460000000000001,-2.28,0.33,1.09,-0.48,2.32
1.694517970085144,3,3,3,3,-9.470000000000001,-2.02,0.16,0.96,-0.54,2.36
1.704517960548401,3,3,3,3,-9.5,-1.88,0.23,0.78,-0.57,2.42
1.714517951011658,3,3,3,3,-9.539999999999999,-1.65,0.2,0.78,-0.57,2.42
1.724517941474915,3,3,3,3,-9.59,-1.57,0.27,0.41,-0.64,2.5
1.734517931938171,3,3,3,3,-9.74,-1.5,0.25,-0.38,-0.63,2.83
1.744517922401428,3,3,3,3,-9.779999999999999,-1.53,0.27,-0.87,-0.5600000000000001,2.91
1.754517912864685,3,3,3,3,-9.77,-1.62,0.32,-1.21,-0.59,2.95
1.764517903327942,3,3,3,3,-9.77,-1.62,0.32,-1.21,-0.59,2.95
1.774517893791199,3,3,3,3,-9.699999999999999,-1.68,0.33,-1.41,-0.66,2.95
1.784517884254456,3,3,3,3,-9.630000000000001,-1.87,0.18,-2.32,-0.82,2.98
1.794517874717712,3,3,3,3,-9.640000000000001,-1.98,0.22,-2.93,-0.82,3.04
1.804517865180969,3,3,3,3,-9.529999999999999,-2.24,0.42,-3.3,-0.83,2.97
1.814518094062805,3,3,3,3,-9.529999999999999,-2.24,0.42,-3.3,-0.83,2.97
1.824518084526062,3,3,3,3,-9.56,-2.36,0.47,-3.28,-0.97,2.74
1.834518074989319,3,3,3,3,-9.550000000000001,-2.38,0.49,-2.84,-1.16,2.32
1.844518065452576,3,3,3,3,-9.630000000000001,-1.85,0.5,-2.28,-1.2,2.1
1.854518055915833,3,3,3,3,-9.630000000000001,-1.52,0.57,-1.95,-1.13,1.91
1.864518046379089,3,3,3,2,-9.630000000000001,-1.52,0.57,-1.95,-1.13,1.91
1.874518036842346,3,3,3,2,-9.59,-1.13,0.61,-1.65,-1.1,1.81
1.885517954826355,3,3,3,2,-9.68,-0.26,0.61,-1.46,-0.97,1.92
1.895517945289612,3,3,3,2,-9.779999999999999,-0.32,0.72,-1.46,-0.84,2.07
1.905517935752869,3,3,3,2,-9.81,-0.37,0.76,-1.3,-0.76,2.28
1.915517926216125,3,3,3,2,-9.81,-0.37,0.76,-1.3,-0.76,2.28
1.925517916679382,3,3,3,2,-9.73,-0.78,0.88,-1.05,-0.68,2.44
1.935517907142639,3,3,3,2,-9.699999999999999,-1.09,0.79,-0.07000000000000001,-0.48,2.69
1.945517897605896,3,3,3,2,-9.630000000000001,-1.3,0.68,0.63,-0.39,2.6
1.955517888069153,3,3,3,2,-9.609999999999999,-1.33,0.6,1.36,-0.33,2.43
1.96551787853241,3,3,3,2,-9.609999999999999,-1.33,0.6,1.88,-0.33,2.22
1.975517868995667,3,3,3,2,-9.619999999999999,-1.32,0.58,2.09,-0.33,2.06
1.985517859458923,3,3,3,2,-9.58,-0.99,0.53,2.04,-0.38,1.93
1.995518088340759,3,3,3,2,-9.68,-0.45,0.62,1.81,-0.37,1.81
2.005518078804016,3,3,3,2,-9.77,-0.31,0.63,1.46,-0.44,1.68
2.015518069267273,3,3,3,2,-9.77,-0.31,0.63,1.16,-0.46,1.51
2.02551805973053,3,3,3,2,-9.800000000000001,-0.26,0.74,0.95,-0.47,1.39
2.035518050193787,3,3,3,2,-9.710000000000001,0.16,0.74,0.74,-0.41,1.32
2.045518040657043,3,3,3,2,-9.76,0.1,0.78,0.38,-0.35,1.27
2.0555180311203,3,3,3,2,-9.859999999999999,0.04,0.8,-0.09,-0.2,1.3
2.065518021583557,3,3,3,1,-9.859999999999999,0.04,0.8,-0.36,-0.15,1.3
2.075518012046814,3,3,3,1,-9.890000000000001,0,0.77,-0.43,-0.09,1.28
2.085518002510071,3,3,3,1,-9.83,-0.34,0.63,-0.48,-0.07000000000000001,1.21
2.095517992973328,3,3,3,1,-9.800000000000001,-0.44,0.67,-0.44,-0.05,1.14
2.105517983436584,3,3,3,1,-9.75,-0.5600000000000001,0.64,-0.38,-0.11,1.05
2.115517973899841,3,3,3,1,-9.75,-0.5600000000000001,0.64,-0.3,-0.17,0.96
2.125517964363098,3,3,3,1,-9.779999999999999,-0.68,0.64,-0.25,-0.19,0.89
2.135517954826355,3,3,3,1,-9.789999999999999,-0.76,0.52,-0.16,-0.25,0.8
2.145517945289612,3,3,3,1,-9.76,-0.87,0.61,-0.05,-0.23,0.74
2.155517935752869,3,3,3,1,-9.68,-1.12,0.73,0.06,-0.19,0.68
2.165517926216125,3,3,3,1,-9.68,-1.12,0.73,0.36,-0.12,0.62
2.175517916679382,3,3,3,1,-9.68,-1.07,0.7,0.72,-0.07000000000000001,0.54
2.185517907142639,3,3,3,1,-9.699999999999999,-0.98,0.59,1.03,-0.02,0.4
2.195517897605896,3,3,3,1,-9.76,-0.66,0.7,1.22,-0.07000000000000001,0.36
2.205517888069153,3,3,3,1,-9.77,-0.52,0.68,1.26,-0.07000000000000001,0.33
2.21551787853241,3,3,3,1,-9.77,-0.52,0.68,0.93,-0.04,0.34
2.225517868995667,3,3,3,1,-9.73,-0.58,0.79,0.7,0.02,0.39
2.235517859458923,3,3,3,1,-9.77,-0.53,0.7,0.53,0.01,0.32
2.245518088340759,3,3,3,1,-9.720000000000001,-0.5600000000000001,0.73,0.32,0.03,0.26
2.255518078804016,3,3,3,1,-9.73,-0.52,0.6899999999999999,0.27,0.03,0.21
2.265518069267273,3,3,3,1,-9.83,-0.66,0.68,0.15,0.07000000000000001,0.19
2.27551805973053,3,3,3,1,-9.699999999999999,-0.8100000000000001,0.63,0.2,0.09,0.19
2.285518050193787,3,3,3,1,-9.74,-0.91,0.5,0.36,0.14,0.14
2.295518040657043,3,3,3,1,-9.73,-0.95,0.52,0.5,0.17,0.12
2.3055180311203,3,3,3,1,-9.73,-0.9399999999999999,0.55,0.71,0.14,0.12
2.315518021583557,3,3,3,1,-9.73,-0.9399999999999999,0.55,0.86,0.14,0.14
2.325518012046814,3,3,3,1,-9.73,-0.73,0.7,1.01,0.13,0.13
2.335518002510071,3,3,3,1,-9.789999999999999,-0.72,0.64,0.99,0.17,0.07000000000000001
2.345517992973328,3,3,3,1,-9.720000000000001,-0.59,0.6899999999999999,1.1,0.19,0.05
2.355517983436584,3,3,3,1,-9.710000000000001,-0.59,0.7,1.14,0.19,0.02
2.365517973899841,3,3,3,1,-9.710000000000001,-0.59,0.7,1.08,0.26,0.01
2.375517964363098,3,3,3,1,-9.720000000000001,-0.75,0.63,1.05,0.28,-0.02
2.385517954826355,3,3,3,1,-9.75,-0.72,0.51,0.95,0.25,-0.05
2.395517945289612,3,3,3,1,-9.76,-0.7,0.54,0.96,0.22,-0.04
2.405517935752869,3,3,3,1,-9.76,-0.83,0.62,0.82,0.2,-0.05
2.415517926216125,3,3,3,1,-9.76,-0.83,0.62,0.78,0.2,-0.1
2.425517916679382,3,3,3,1,-9.710000000000001,-0.84,0.57,0.83,0.26,-0.23
2.435517907142639,3,3,3,1,-9.73,-0.71,0.5,0.88,0.21,-0.31
2.445517897605896,3,3,3,1,-9.76,-0.6899999999999999,0.57,0.85,0.23,-0.35
2.455517888069153,3,3,3,1,-9.779999999999999,-0.79,0.63,0.67,0.25,-0.33
2.46551787853241,3,3,3,1,-9.779999999999999,-0.79,0.63,0.62,0.25,-0.28
2.475517868995667,3,3,3,1,-9.77,-0.87,0.64,0.53,0.23,-0.31
2.485517859458923,3,3,3,1,-9.710000000000001,-0.86,0.51,0.62,0.19,-0.33
2.495518088340759,3,3,3,1,-9.710000000000001,-0.91,0.5600000000000001,0.63,0.25,-0.4
2.505518078804016,3,3,3,1,-9.73,-0.85,0.58,0.57,0.25,-0.44
2.515518069267273,3,3,3,1,-9.73,-0.85,0.58,0.54,0.22,-0.48
2.52551805973053,3,3,3,1,-9.75,-0.9,0.61,0.43,0.24,-0.46
2.535518050193787,3,3,3,1,-9.77,-1.07,0.55,0.4,0.27,-0.45
2.545518040657043,3,3,3,1,-9.69,-0.98,0.53,0.55,0.24,-0.5
2.5555180311203,3,3,3,1,-9.699999999999999,-1.01,0.6,0.6,0.2,-0.53
2.565518021583557,3,3,3,1,-9.699999999999999,-1.01,0.6,0.68,0.18,-0.59
2.575518012046814,3,3,3,1,-9.710000000000001,-0.93,0.6,0.75,0.24,-0.63
2.585518002510071,3,3,3,1,-9.77,-0.85,0.5,0.62,0.3,-0.63
2.595517992973328,3,3,3,1,-9.84,-0.86,0.5,0.51,0.27,-0.59
2.605517983436584,3,3,3,1,-9.789999999999999,-0.83,0.55,0.44,0.28,-0.53
2.615517973899841,3,3,3,1,-9.73,-0.84,0.59,0.47,0.22,-0.5600000000000001
2.625517964363098,3,3,3,1,-9.699999999999999,-0.8100000000000001,0.5600000000000001,0.52,0.17,-0.63
2.635517954826355,3,3,3,1,-9.77,-0.73,0.47,0.5600000000000001,0.2,-0.74
2.645517945289612,3,3,3,1,-9.81,-0.78,0.53,0.42,0.19,-0.71
2.655517935752869,3,3,3,1,-9.77,-0.68,0.5600000000000001,0.31,0.19,-0.64
2.665517926216125,3,3,3,1,-9.82,-0.85,0.58,0.05,0.22,-0.48
2.675517916679382,3,3,3,1,-9.779999999999999,-0.82,0.49,-0.14,0.18,-0.34
2.685517907142639,3,3,3,1,-9.699999999999999,-0.92,0.45,-0.31,0.13,-0.29
2.695517897605896,3,3,3,1,-9.65,-0.97,0.43,-0.33,0.15,-0.41
2.705517888069153,3,3,3,1,-9.68,-1.04,0.49,-0.31,0.15,-0.46
2.71551787853241,3,3,3,1,-9.73,-1.1,0.51,-0.29,0.15,-0.49
2.725517868995667,3,3,3,1,-9.699999999999999,-1.09,0.54,-0.29,0.13,-0.53
2.735517859458923,3,3,3,1,-9.76,-1.03,0.4,-0.33,0.16,-0.55
2.745518088340759,3,3,3,1,-9.75,-1.01,0.5,-0.48,0.13,-0.52
2.755518078804016,3,3,3,1,-9.69,-0.96,0.5,-0.47,0.08,-0.54
2.765518069267273,3,3,3,1,-9.710000000000001,-0.98,0.52,-0.51,0.12,-0.58
2.77551805973053,3,3,3,1,-9.73,-0.88,0.43,-0.49,0.16,-0.65
2.785518050193787,3,3,3,1,-9.789999999999999,-0.8,0.36,-0.36,0.16,-0.73
2.795518040657043,3,3,3,1,-9.82,-0.74,0.45,-0.34,0.2,-0.7
2.8055180311203,3,3,3,1,-9.789999999999999,-0.76,0.48,-0.37,0.19,-0.66
2.815518021583557,3,3,3,1,-9.779999999999999,-0.66,0.5,-0.33,0.2,-0.67
2.825518012046814,3,3,3,1,-9.789999999999999,-0.73,0.47,-0.39,0.19,-0.65
2.835518002510071,3,3,3,1,-9.81,-0.74,0.42,-0.51,0.19,-0.62
2.845517992973328,3,3,3,1,-9.74,-0.8,0.48,-0.48,0.13,-0.62
2.855517983436584,3,3,3,1,-9.77,-0.6899999999999999,0.46,-0.41,0.17,-0.62
2.865517973899841,3,3,3,1,-9.789999999999999,-0.75,0.49,-0.5,0.16,-0.5600000000000001
2.875517964363098,3,3,3,1,-9.779999999999999,-0.87,0.46,-0.68,0.1,-0.48
2.885517954826355,3,3,3,1,-9.77,-1.08,0.36,-0.88,0.07000000000000001,-0.4
2.895517945289612,3,3,3,1,-9.67,-1.08,0.52,-0.6899999999999999,0.04,-0.42
2.906517863273621,3,3,3,1,-9.68,-1.25,0.5,-0.6,0.05,-0.5
2.916518092155457,3,3,3,1,-9.65,-1.29,0.51,-0.46,0.12,-0.59
2.926518082618713,3,3,3,1,-9.67,-1.26,0.51,-0.2,0.15,-0.73
2.93651807308197,3,3,3,1,-9.720000000000001,-1.33,0.35,-0.04,0.13,-0.77
2.946518063545227,3,3,3,1,-9.66,-1.33,0.38,-0.07000000000000001,0.11,-0.8
2.956518054008484,3,3,3,1,-9.66,-1.27,0.34,-0.1,0.06,-0.86
2.966518044471741,3,3,3,2,-9.65,-1.24,0.35,-0.18,0.1,-0.88
2.976518034934998,3,3,3,2,-9.720000000000001,-1.1,0.39,-0.23,0.08,-0.99
2.986518025398254,3,3,3,2,-9.74,-1.14,0.36,-0.39,0.16,-1.1
2.996518015861511,3,3,3,2,-9.69,-1.14,0.34,-0.41,0.17,-1.17
3.006518006324768,3,3,3,2,-9.720000000000001,-1.13,0.42,-0.33,0.21,-1.18
3.016517996788025,3,3,3,2,-9.73,-1.05,0.45,-0.26,0.2,-1.2
3.026517987251282,3,3,3,2,-9.68,-0.98,0.47,-0.31,0.19,-1.17
3.036517977714539,3,3,3,2,-9.69,-0.93,0.37,-0.27,0.2,-1.11
3.046517968177795,3,3,3,2,-9.69,-1.01,0.43,-0.36,0.21,-1.08
3.056517958641052,3,3,3,2,-9.67,-1.17,0.44,-0.39,0.14,-1.08
3.066517949104309,3,3,3,2,-9.67,-1.2,0.48,-0.43,0.09,-1.15
3.076517939567566,3,3,3,2,-9.699999999999999,-1.32,0.45,-0.55,0.15,-1.18
3.086517930030823,3,3,3,2,-9.699999999999999,-1.43,0.37,-0.7,0.17,-1.11
3.09651792049408,3,3,3,2,-9.630000000000001,-1.54,0.31,-0.53,0.2,-1.09
3.106517910957336,3,3,3,2,-9.67,-1.59,0.35,-0.27,0.2,-1.15
3.116517901420593,3,3,3,2,-9.66,-1.59,0.38,-0.06,0.19,-1.18
3.12651789188385,3,3,3,2,-9.609999999999999,-1.45,0.38,0.13,0.19,-1.18
3.136517882347107,3,3,3,2,-9.67,-1.43,0.28,0.11,0.19,-1.16
3.146517872810364,3,3,3,2,-9.66,-1.56,0.39,0.06,0.24,-1.05
3.156517863273621,3,3,3,2,-9.640000000000001,-1.53,0.37,0.14,0.27,-0.99
3.166518092155457,3,3,3,2,-9.609999999999999,-1.55,0.45,0.16,0.29,-0.93
3.176518082618713,3,3,3,2,-9.66,-1.56,0.46,0.29,0.24,-0.92
3.18651807308197,3,3,3,2,-9.66,-1.61,0.43,0.27,0.19,-0.9399999999999999
3.196518063545227,3,3,3,2,-9.640000000000001,-1.52,0.45,0.33,0.23,-0.9399999999999999
3.206518054008484,3,3,3,2,-9.66,-1.65,0.49,0.04,0.26,-0.91
3.216518044471741,3,3,3,2,-9.630000000000001,-1.74,0.45,-0.18,0.28,-0.92
3.226518034934998,3,3,3,2,-9.65,-1.79,0.47,-0.18,0.28,-0.9399999999999999
3.236518025398254,3,3,3,2,-9.640000000000001,-1.8,0.33,-0.19,0.21,-0.93
3.246518015861511,3,3,3,2,-9.6,-1.86,0.35,-0.15,0.19,-0.88
3.256518006324768,3,3,3,2,-9.57,-1.82,0.38,0.06,0.21,-0.92
3.266517996788025,3,3,3,2,-9.58,-1.88,0.42,0.29,0.22,-0.95
3.276517987251282,3,3,3,2,-9.6,-1.82,0.36,0.53,0.16,-0.9399999999999999
3.286517977714539,3,3,3,2,-9.65,-1.68,0.33,0.6899999999999999,0.2,-0.9399999999999999
3.296517968177795,3,3,3,2,-9.630000000000001,-1.62,0.38,0.74,0.17,-0.89
3.306517958641052,3,3,3,2,-9.630000000000001,-1.64,0.42,0.76,0.19,-0.84
3.316517949104309,3,3,3,2,-9.609999999999999,-1.62,0.48,0.78,0.24,-0.77
3.326517939567566,3,3,3,2,-9.640000000000001,-1.74,0.42,0.76,0.26,-0.76
3.336517930030823,3,3,3,2,-9.619999999999999,-1.81,0.36,0.73,0.27,-0.71
3.34651792049408,3,3,3,2,-9.609999999999999,-1.8,0.39,0.72,0.28,-0.68
3.356517910957336,3,3,3,2,-9.6,-1.81,0.44,0.8100000000000001,0.3,-0.64
3.366517901420593,3,3,3,2,-9.640000000000001,-1.8,0.42,0.82,0.3,-0.62
3.37651789188385,3,3,3,2,-9.6,-1.74,0.39,0.79,0.26,-0.57
3.386517882347107,3,3,3,2,-9.6,-1.73,0.3,0.78,0.3,-0.58
3.396517872810364,3,3,3,2,-9.630000000000001,-1.79,0.3,0.6899999999999999,0.27,-0.55
3.406517863273621,3,3,3,2,-9.609999999999999,-1.87,0.41,0.6899999999999999,0.23,-0.53
3.416518092155457,3,3,3,2,-9.6,-1.86,0.45,0.76,0.24,-0.53
3.426518082618713,3,3,3,2,-9.6,-1.81,0.4,0.79,0.22,-0.55
3.43651807308197,3,3,3,2,-9.59,-1.84,0.32,0.8,0.21,-0.54
3.446518063545227,3,3,3,2,-9.609999999999999,-1.69,0.36,0.8,0.2,-0.55
3.456518054008484,3,3,3,2,-9.630000000000001,-1.67,0.43,0.68,0.17,-0.48
3.466518044471741,3,3,3,2,-9.619999999999999,-1.65,0.42,0.59,0.17,-0.45
3.476518034934998,3,3,3,2,-9.68,-1.74,0.37,0.43,0.15,-0.41
3.486518025398254,3,3,3,2,-9.65,-1.77,0.32,0.43,0.15,-0.39
3.496518015861511,3,3,3,2,-9.619999999999999,-1.8,0.32,0.44,0.18,-0.39
3.506518006324768,3,3,3,2,-9.6,-1.9,0.33,0.34,0.15,-0.38
3.516517996788025,3,3,3,2,-9.56,-1.92,0.34,0.34,0.12,-0.41
3.526517987251282,3,3,3,2,-9.57,-1.9,0.31,0.4,0.09,-0.41
3.536517977714539,3,3,3,2,-9.609999999999999,-1.92,0.21,0.36,0.09,-0.43
3.546517968177795,3,3,3,2,-9.609999999999999,-1.85,0.26,0.35,0.06,-0.47
3.556517958641052,3,3,3,2,-9.609999999999999,-1.72,0.37,0.29,0.01,-0.44
3.566517949104309,3,3,3,2,-9.619999999999999,-1.65,0.41,0.19,0,-0.45
3.576517939567566,3,3,3,2,-9.630000000000001,-1.62,0.38,0.07000000000000001,0,-0.45
3.586517930030823,3,3,3,2,-9.65,-1.55,0.32,-0.07000000000000001,-0.01,-0.44
3.59651792049408,3,3,3,2,-9.609999999999999,-1.51,0.37,-0.29,-0.07000000000000001,-0.44
3.606517910957336,3,3,3,2,-9.640000000000001,-1.54,0.37,-0.4,-0.04,-0.41
3.616517901420593,3,3,3,2,-9.68,-1.6,0.33,-0.68,-0.05,-0.38
3.62651789188385,3,3,3,2,-9.640000000000001,-1.64,0.34,-0.87,-0.09,-0.33
3.636517882347107,3,3,3,2,-9.640000000000001,-1.8,0.17,-0.95,-0.04,-0.33
3.646517872810364,3,3,3,2,-9.619999999999999,-1.88,0.15,-1.01,-0.05,-0.33
3.656517863273621,3,3,3,2,-9.57,-1.93,0.19,-0.89,-0.05,-0.34
3.666518092155457,3,3,3,2,-9.6,-1.94,0.22,-0.74,-0.06,-0.35
3.676518082618713,3,3,3,2,-9.609999999999999,-1.97,0.11,-0.5600000000000001,-0.05,-0.35
3.68651807308197,3,3,3,2,-9.619999999999999,-1.92,0.13,-0.43,-0.07000000000000001,-0.38
3.696518063545227,3,3,3,2,-9.640000000000001,-1.82,0.2,-0.22,-0.05,-0.38
3.706518054008484,3,3,3,2,-9.65,-1.88,0.29,-0.16,-0.08,-0.35
3.716518044471741,3,3,3,2,-9.609999999999999,-1.85,0.38,-0.07000000000000001,-0.11,-0.38
3.726518034934998,3,3,3,2,-9.609999999999999,-1.76,0.38,-0.08,-0.18,-0.41
3.736518025398254,3,3,3,2,-9.619999999999999,-1.77,0.27,-0.3,-0.2,-0.35
3.746518015861511,3,3,3,2,-9.6,-1.72,0.25,-0.48,-0.23,-0.35
3.756518006324768,3,3,3,2,-9.619999999999999,-1.73,0.24,-0.66,-0.15,-0.34
3.766517996788025,3,3,3,2,-9.609999999999999,-1.77,0.31,-0.8,-0.16,-0.3
3.776517987251282,3,3,3,2,-9.58,-1.77,0.27,-0.79,-0.15,-0.29
3.786517977714539,3,3,3,2,-9.6,-1.89,0.23,-0.91,-0.11,-0.3
3.796517968177795,3,3,3,2,-9.609999999999999,-2.04,0.27,-0.93,-0.2,-0.31
3.806517958641052,3,3,3,2,-9.630000000000001,-1.91,0.29,-0.83,-0.23,-0.33
3.816517949104309,3,3,3,2,-9.59,-1.9,0.3,-0.84,-0.26,-0.36
3.826517939567566,3,3,3,2,-9.619999999999999,-1.89,0.28,-0.8100000000000001,-0.29,-0.35
3.836517930030823,3,3,3,2,-9.57,-1.91,0.23,-0.87,-0.27,-0.36
3.84651792049408,3,3,3,2,-9.58,-1.9,0.19,-0.82,-0.23,-0.35
3.856517910957336,3,3,3,2,-9.6,-2,0.27,-0.73,-0.2,-0.36
3.866517901420593,3,3,3,2,-9.6,-1.93,0.34,-0.57,-0.18,-0.35
3.87651789188385,3,3,3,2,-9.609999999999999,-1.91,0.31,-0.39,-0.19,-0.34
3.886517882347107,3,3,3,2,-9.619999999999999,-1.82,0.27,-0.22,-0.26,-0.34
3.896517872810364,3,3,3,2,-9.59,-1.76,0.4,-0.12,-0.27,-0.34
3.906517863273621,3,3,3,2,-9.619999999999999,-1.69,0.38,-0.19,-0.26,-0.32
3.916518092155457,3,3,3,2,-9.6,-1.54,0.43,-0.24,-0.27,-0.3
3.926518082618713,3,3,3,2,-9.59,-1.57,0.38,-0.38,-0.24,-0.28
3.937518000602722,3,3,3,2,-9.6,-1.59,0.27,-0.52,-0.21,-0.27
3.947517991065979,3,3,3,2,-9.619999999999999,-1.63,0.34,-0.5600000000000001,-0.18,-0.25
3.957517981529236,3,3,3,2,-9.619999999999999,-1.7,0.34,-0.54,-0.17,-0.22
3.967517971992493,3,3,3,2,-9.619999999999999,-1.78,0.37,-0.5600000000000001,-0.17,-0.21
3.97751796245575,3,3,3,2,-9.630000000000001,-1.78,0.36,-0.51,-0.16,-0.16
3.987517952919006,3,3,3,2,-9.58,-1.98,0.24,-0.47,-0.16,-0.12
3.997517943382263,3,3,3,2,-9.609999999999999,-1.99,0.29,-0.37,-0.12,-0.14
4.00751793384552,3,3,3,2,-9.56,-1.98,0.33,-0.16,-0.14,-0.15
4.017517924308777,3,3,3,2,-9.58,-2.04,0.36,-0.02,-0.15,-0.18
4.027517914772034,3,3,3,2,-9.58,-1.89,0.38,0.18,-0.16,-0.2
4.037517905235291,3,3,3,2,-9.59,-1.82,0.33,0.22,-0.16,-0.24
4.047517895698547,3,3,3,2,-9.59,-1.78,0.38,0.19,-0.18,-0.14
4.057517886161804,3,3,3,2,-9.58,-1.76,0.44,0.14,-0.16,-0.13
4.067517876625061,3,3,3,2,-9.59,-1.81,0.45,0.06,-0.13,-0.1
4.077517867088318,3,3,3,2,-9.56,-1.84,0.4,-0.01,-0.12,-0.07000000000000001
4.087517857551575,3,3,3,2,-9.58,-1.87,0.28,-0.05,-0.11,-0.08
4.097518086433411,3,3,3,2,-9.59,-1.82,0.34,-0.04,-0.14,-0.05
4.107518076896667,3,3,3,2,-9.609999999999999,-1.9,0.36,-0.16,-0.15,-0.04
4.117518067359924,3,3,3,2,-9.59,-1.85,0.4,-0.09,-0.18,-0.06
4.127518057823181,3,3,3,2,-9.59,-1.95,0.41,-0.15,-0.15,-0.05
4.137518048286438,3,3,3,2,-9.6,-2,0.27,-0.14,-0.13,-0.06
4.147518038749695,3,3,3,2,-9.57,-2.03,0.38,-0.04,-0.1,-0.07000000000000001
4.157518029212952,3,3,3,2,-9.56,-1.99,0.41,0,-0.11,-0.08
4.167518019676208,3,3,3,2,-9.57,-1.92,0.42,0.09,-0.17,-0.1
4.177518010139465,3,3,3,2,-9.609999999999999,-1.86,0.43,0.11,-0.12,-0.1
4.187518000602722,3,3,3,2,-9.59,-1.76,0.28,0.04,-0.14,-0.08
4.197517991065979,3,3,3,2,-9.59,-1.77,0.38,-0.01,-0.15,-0.03
4.207517981529236,3,3,3,2,-9.619999999999999,-1.8,0.43,-0.12,-0.09,-0.04
4.217517971992493,3,3,3,2,-9.6,-1.84,0.43,-0.17,-0.05,0
4.22751796245575,3,3,3,2,-9.57,-1.86,0.39,-0.09,-0.09,-0.02
4.237517952919006,3,3,3,2,-9.59,-1.9,0.31,-0.08,-0.1,-0.05
4.247517943382263,3,3,3,2,-9.58,-1.89,0.35,-0.08,-0.1,0
4.25751793384552,3,3,3,2,-9.58,-1.91,0.37,-0.1,-0.07000000000000001,-0.03
4.267517924308777,3,3,3,2,-9.57,-1.91,0.38,-0.09,-0.09,-0.03
4.277517914772034,3,3,3,2,-9.6,-1.93,0.38,-0.11,-0.08,-0.01
4.287517905235291,3,3,3,2,-9.609999999999999,-1.94,0.29,-0.13,-0.08,0
4.297517895698547,3,3,3,2,-9.56,-1.93,0.31,-0.04,-0.07000000000000001,0
4.307517886161804,3,3,3,2,-9.57,-1.94,0.4,0.03,-0.04,0
4.317517876625061,3,3,3,2,-9.59,-1.91,0.42,0.1,-0.03,-0.01
4.327517867088318,3,3,3,2,-9.609999999999999,-1.86,0.43,0.18,-0.01,0.01
4.337517857551575,3,3,3,2,-9.609999999999999,-1.87,0.32,0.17,-0.01,0.01
4.347518086433411,3,3,3,2,-9.609999999999999,-1.84,0.36,0.14,-0.06,0.05
4.357518076896667,3,3,3,2,-9.6,-1.84,0.37,0.12,-0.06,0.06
4.367518067359924,3,3,3,2,-9.57,-1.87,0.4,0.16,-0.04,0.07000000000000001
4.377518057823181,3,3,3,2,-9.6,-1.88,0.36,0.17,0,0.08
4.387518048286438,3,3,3,2,-9.6,-1.88,0.3,0.21,-0.03,0.05
4.397518038749695,3,3,3,2,-9.6,-1.93,0.37,0.18,-0.01,0.06
4.407518029212952,3,3,3,2,-9.609999999999999,-1.87,0.38,0.22,0.01,0.06
4.417518019676208,3,3,3,2,-9.59,-1.91,0.43,0.25,-0.03,0.05
4.427518010139465,3,3,3,2,-9.619999999999999,-1.94,0.37,0.25,-0.03,0.07000000000000001
4.437518000602722,3,3,3,2,-9.57,-1.91,0.32,0.24,-0.05,0.09
4.447517991065979,3,3,3,2,-9.6,-1.85,0.33,0.27,-0.02,0.08
4.457517981529236,3,3,3,2,-9.59,-1.85,0.38,0.27,-0.01,0.07000000000000001
4.467517971992493,3,3,3,2,-9.58,-1.83,0.42,0.27,0,0.09
4.47751796245575,3,3,3,2,-9.59,-1.85,0.44,0.26,0.01,0.08
4.487517952919006,3,3,3,2,-9.57,-1.87,0.33,0.22,0,0.09
4.497517943382263,3,3,3,2,-9.59,-1.92,0.35,0.23,0.01,0.13
4.50751793384552,3,3,3,2,-9.59,-1.88,0.38,0.3,0.01,0.09
4.517517924308777,3,3,3,2,-9.59,-1.88,0.41,0.24,-0.03,0.11
4.527517914772034,3,3,3,2,-9.58,-1.89,0.41,0.19,-0.04,0.08
4.537517905235291,3,3,3,2,-9.619999999999999,-1.82,0.31,0.16,-0.01,0.09
4.547517895698547,3,3,3,2,-9.56,-1.86,0.36,0.04,-0.02,0.08
4.557517886161804,3,3,3,2,-9.59,-1.89,0.36,0.04,0.02,0.11
4.567517876625061,3,3,3,2,-9.59,-1.87,0.4,0.12,-0.02,0.1
4.577517867088318,3,3,3,2,-9.6,-1.87,0.37,0.14,-0.01,0.1
4.587517857551575,3,3,3,2,-9.630000000000001,-1.84,0.26,0.12,-0.03,0.08
4.597518086433411,3,3,3,2,-9.59,-1.85,0.29,0.12,0,0.08
4.607518076896667,3,3,3,2,-9.58,-1.87,0.36,0.13,-0.03,0.1
4.617518067359924,3,3,3,2,-9.59,-1.79,0.41,0.16,-0.04,0.06
4.627518057823181,3,3,3,2,-9.630000000000001,-1.84,0.39,0.17,0.01,0.1
4.637518048286438,3,3,3,2,-9.609999999999999,-1.84,0.31,0.16,-0.01,0.11
4.647518038749695,3,3,3,2,-9.630000000000001,-1.85,0.31,0.23,0.02,0.12
4.657518029212952,3,3,3,2,-9.6,-1.82,0.45,0.25,0.01,0.09
4.667518019676208,3,3,3,2,-9.6,-1.86,0.4,0.24,0.04,0.1
4.677518010139465,3,3,3,2,-9.58,-1.85,0.39,0.2,-0.01,0.11
4.687518000602722,3,3,3,2,-9.6,-1.84,0.31,0.18,-0.01,0.12
4.697517991065979,3,3,3,2,-9.59,-1.85,0.34,0.16,-0.01,0.13
4.707517981529236,3,3,3,2,-9.59,-1.82,0.36,0.19,0,0.1
4.717517971992493,3,3,3,2,-9.58,-1.82,0.39,0.2,0,0.05
4.72751796245575,3,3,3,2,-9.59,-1.83,0.41,0.21,-0.01,0.07000000000000001
4.737517952919006,3,3,3,2,-9.619999999999999,-1.81,0.29,0.11,0,0.06
4.747517943382263,3,3,3,2,-9.609999999999999,-1.82,0.35,0.03,0.01,0.09
4.75751793384552,3,3,3,2,-9.630000000000001,-1.82,0.35,-0.05,0,0.07000000000000001
4.767517924308777,3,3,3,2,-9.57,-1.82,0.43,-0.02,-0.02,0.06
4.777517914772034,3,3,3,2,-9.59,-1.82,0.35,0.02,-0.03,0.04
4.787517905235291,3,3,3,2,-9.6,-1.84,0.29,-0.01,-0.03,0.03
4.797517895698547,3,3,3,2,-9.6,-1.81,0.31,0.08,-0.03,0.04
4.807517886161804,3,3,3,2,-9.609999999999999,-1.74,0.39,0.1,-0.03,0.02
4.817517876625061,3,3,3,2,-9.609999999999999,-1.81,0.38,0.1,0.03,0.07000000000000001
4.827517867088318,3,3,3,2,-9.630000000000001,-1.77,0.39,0.09,0,0.08
4.837517857551575,3,3,3,2,-9.619999999999999,-1.77,0.33,0.1,-0.03,0.09
4.847518086433411,3,3,3,2,-9.6,-1.8,0.34,0.07000000000000001,0.03,0.08
4.857518076896667,3,3,3,2,-9.6,-1.81,0.4,0.08,-0.01,0.03
4.867518067359924,3,3,3,2,-9.57,-1.85,0.39,0.03,0,0.05
4.877518057823181,3,3,3,2,-9.6,-1.82,0.4,0.03,-0.02,0.06
4.887518048286438,3,3,3,2,-9.619999999999999,-1.82,0.28,0.01,-0.05,0.06
4.897518038749695,3,3,3,2,-9.6,-1.8,0.31,0.02,-0.07000000000000001,0.06
4.907518029212952,3,3,3,2,-9.630000000000001,-1.78,0.34,0.01,-0.03,0.08
4.917518019676208,3,3,3,2,-9.609999999999999,-1.79,0.4,0,-0.01,0.06
4.927518010139465,3,3,3,2,-9.59,-1.79,0.35,0.02,-0.01,0.03
4.937518000602722,3,3,3,2,-9.58,-1.81,0.32,0.03,-0.05,0.05
4.947517991065979,3,3,3,2,-9.609999999999999,-1.78,0.35,0.02,-0.07000000000000001,0.07000000000000001
4.958517909049988,3,3,3,2,-9.630000000000001,-1.8,0.38,-0.03,-0.07000000000000001,0.08
4.968517899513245,3,3,3,2,-9.630000000000001,-1.84,0.43,-0.05,-0.04,0.07000000000000001
4.978517889976501,3,3,3,2,-9.630000000000001,-1.86,0.38,-0.02,-0.02,0.04
4.988517880439758,3,3,3,2,-9.609999999999999,-1.84,0.28,0.05,-0.06,0.02
4.998517870903015,3,3,3,2,-9.609999999999999,-1.78,0.29,0.03,-0.05,0.02
5.008517861366272,3,3,3,2,-9.57,-1.78,0.38,0.03,-0.05,0.01
5.018518090248108,3,3,3,2,-9.6,-1.79,0.37,-0.01,-0.04,0.06
5.028518080711365,3,3,3,2,-9.609999999999999,-1.84,0.41,-0.06,-0.06,0.07000000000000001
5.038518071174622,3,3,3,2,-9.609999999999999,-1.83,0.31,-0.04,-0.03,0.07000000000000001
5.048518061637878,3,3,3,2,-9.59,-1.87,0.35,-0.01,-0.05,0.02
5.058518052101135,3,3,3,2,-9.58,-1.87,0.37,0,-0.02,0.02
5.068518042564392,3,3,3,2,-9.58,-1.9,0.38,0.02,-0.02,0
5.078518033027649,3,3,3,2,-9.59,-1.86,0.4,0.07000000000000001,-0.03,0
5.088518023490906,3,3,3,2,-9.58,-1.83,0.32,0.01,-0.05,0.03
5.098518013954163,3,3,3,2,-9.6,-1.78,0.35,0,-0.07000000000000001,0.02
5.108518004417419,3,3,3,2,-9.609999999999999,-1.77,0.4,-0.03,-0.06,0.02
5.118517994880676,3,3,3,2,-9.59,-1.78,0.41,-0.04,0,0.03
5.128517985343933,3,3,3,2,-9.59,-1.84,0.38,-0.05,-0.01,0.05
5.13851797580719,3,3,3,2,-9.619999999999999,-1.81,0.28,-0.02,-0.03,0.07000000000000001
5.148517966270447,3,3,3,2,-9.58,-1.8,0.31,0.03,-0.04,0.05
5.158517956733704,3,3,3,2,-9.57,-1.85,0.37,0,-0.04,0.03
5.16851794719696,3,3,3,2,-9.6,-1.85,0.38,-0.03,-0.07000000000000001,0.06
5.178517937660217,3,3,3,2,-9.6,-1.84,0.4,0.01,-0.05,0.04
5.188517928123474,3,3,3,2,-9.630000000000001,-1.86,0.27,0.02,-0.02,0.06
5.198517918586731,3,3,3,2,-9.59,-1.86,0.35,-0.04,-0.03,0.07000000000000001
5.208517909049988,3,3,3,2,-9.6,-1.85,0.36,0.02,0.01,0.06
5.218517899513245,3,3,3,2,-9.609999999999999,-1.86,0.41,0,-0.01,0.07000000000000001
5.228517889976501,3,3,3,2,-9.58,-1.8,0.42,0.06,-0.05,0.07000000000000001
5.238517880439758,3,3,3,2,-9.6,-1.75,0.29,0.02,-0.02,0.04
5.248517870903015,3,3,3,2,-9.609999999999999,-1.75,0.32,-0.03,-0.07000000000000001,0.06
5.258517861366272,3,3,3,2,-9.619999999999999,-1.75,0.37,-0.04,-0.06,0.08
5.268518090248108,3,3,3,2,-9.59,-1.77,0.4,-0.01,-0.04,0.09
5.278518080711365,3,3,3,2,-9.619999999999999,-1.8,0.33,-0.06,-0.01,0.09
5.288518071174622,3,3,3,2,-9.619999999999999,-1.85,0.27,-0.03,0,0.1
5.298518061637878,3,3,3,2,-9.6,-1.79,0.33,0,-0.05,0.09
5.308518052101135,3,3,3,2,-9.58,-1.78,0.34,-0.03,-0.05,0.09
5.318518042564392,3,3,3,2,-9.609999999999999,-1.78,0.38,-0.03,-0.08,0.09
5.328518033027649,3,3,3,2,-9.6,-1.78,0.38,-0.03,-0.05,0.11
5.338518023490906,3,3,3,2,-9.59,-1.78,0.27,-0.01,-0.01,0.07000000000000001
5.348518013954163,3,3,3,2,-9.619999999999999,-1.8,0.29,-0.06,-0.03,0.1
5.358518004417419,3,3,3,2,-9.630000000000001,-1.81,0.37,0.07000000000000001,-0.03,0.1
5.368517994880676,3,3,3,2,-9.609999999999999,-1.8,0.4,0.07000000000000001,-0.03,0.07000000000000001
5.378517985343933,3,3,3,2,-9.6,-1.8,0.38,0.08,-0.05,0.08
5.38851797580719,3,3,3,2,-9.6,-1.76,0.28,0.07000000000000001,-0.03,0.06
5.398517966270447,3,3,3,2,-9.59,-1.71,0.34,0.09,-0.07000000000000001,0.08
5.408517956733704,3,3,3,2,-9.6,-1.76,0.36,0.05,0,0.1
5.41851794719696,3,3,3,2,-9.630000000000001,-1.77,0.39,0,-0.03,0.11
5.428517937660217,3,3,3,2,-9.6,-1.79,0.43,-0.02,-0.05,0.12
5.438517928123474,3,3,3,2,-9.6,-1.83,0.28,-0.01,-0.04,0.09
5.448517918586731,3,3,3,2,-9.6,-1.77,0.35,0.06,-0.06,0.08
5.458517909049988,3,3,3,2,-9.6,-1.79,0.37,0.09,-0.04,0.09
5.468517899513245,3,3,3,2,-9.619999999999999,-1.79,0.36,0.03,-0.05,0.07000000000000001
5.478517889976501,3,3,3,2,-9.609999999999999,-1.84,0.34,-0.04,-0.02,0.04
5.488517880439758,3,3,3,2,-9.609999999999999,-1.84,0.27,-0.04,-0.02,0.04
5.498517870903015,3,3,3,2,-9.59,-1.82,0.36,-0.05,0,0.05
5.508517861366272,3,3,3,2,-9.609999999999999,-1.81,0.35,-0.05,0,0.05
5.518518090248108,3,3,3,2,-9.619999999999999,-1.74,0.39,0.02,-0.03,0.02
5.528518080711365,3,3,3,2,-9.609999999999999,-1.78,0.4,0.02,-0.03,0.02
5.538518071174622,3,3,3,2,-9.630000000000001,-1.78,0.29,0.05,-0.01,0.04
5.548518061637878,3,3,3,2,-9.609999999999999,-1.79,0.35,0.08,-0.02,0.03
5.558518052101135,3,3,3,2,-9.58,-1.82,0.38,0.05,-0.03,0.07000000000000001
5.568518042564392,3,3,3,2,-9.609999999999999,-1.81,0.37,0.07000000000000001,-0.02,0.06
5.578518033027649,3,3,3,2,-9.630000000000001,-1.82,0.37,0.07000000000000001,-0.02,0.06
5.588518023490906,3,3,3,2,-9.619999999999999,-1.78,0.28,0.11,0,0.05
5.598518013954163,3,3,3,2,-9.640000000000001,-1.73,0.32,0.13,-0.07000000000000001,0.06
5.608518004417419,3,3,3,2,-9.630000000000001,-1.73,0.37,0.12,-0.05,0.01
5.618517994880676,3,3,3,2,-9.619999999999999,-1.73,0.4,0.11,0,0.04
5.628517985343933,3,3,3,2,-9.640000000000001,-1.72,0.35,0.04,-0.01,0.03
5.63851797580719,3,3,3,2,-9.609999999999999,-1.76,0.28,0.06,0.03,0.02
5.648517966270447,3,3,3,2,-9.609999999999999,-1.75,0.3,0.06,0.02,0.03
5.658517956733704,3,3,3,2,-9.609999999999999,-1.73,0.36,0.09,0.01,0.02
5.66851794719696,3,3,3,2,-9.640000000000001,-1.76,0.42,0.07000000000000001,-0.02,0.02
5.678517937660217,3,3,3,2,-9.619999999999999,-1.73,0.38,0.05,-0.03,0.01
5.688517928123474,3,3,3,2,-9.619999999999999,-1.69,0.29,0,-0.06,0.01
5.698517918586731,3,3,3,2,-9.609999999999999,-1.72,0.32,0.01,-0.02,0
5.708517909049988,3,3,3,2,-9.6,-1.77,0.37,0,-0.01,0
5.718517899513245,3,3,3,2,-9.630000000000001,-1.77,0.4,-0.01,0,0.01
5.728517889976501,3,3,3,2,-9.619999999999999,-1.79,0.42,0,-0.01,0.01
5.738517880439758,3,3,3,2,-9.619999999999999,-1.84,0.29,0.05,0,0.01
5.748517870903015,3,3,3,2,-9.59,-1.74,0.34,0.09,-0.01,-0.02
5.758517861366272,3,3,3,2,-9.630000000000001,-1.73,0.38,0.13,0,0
5.768518090248108,3,3,3,2,-9.630000000000001,-1.74,0.39,0.12,-0.05,-0.02
5.778518080711365,3,3,3,2,-9.630000000000001,-1.71,0.41,0.08,-0.03,0
5.788518071174622,3,3,3,2,-9.630000000000001,-1.69,0.32,0.14,-0.01,-0.01
5.798518061637878,3,3,3,2,-9.619999999999999,-1.71,0.34,0.06,0,0.02
5.808518052101135,3,3,3,2,-9.619999999999999,-1.72,0.38,0.03,-0.01,0
5.818518042564392,3,3,3,2,-9.609999999999999,-1.71,0.39,0.1,0,-0.01
5.828518033027649,3,3,3,2,-9.619999999999999,-1.69,0.37,0.1,-0.04,-0.02
5.838518023490906,3,3,3,2,-9.630000000000001,-1.71,0.28,0.12,-0.05,-0.02
5.848518013954163,3,3,3,2,-9.619999999999999,-1.7,0.33,0.09,-0.03,-0.02
5.858518004417419,3,3,3,2,-9.619999999999999,-1.78,0.39,0.1,-0.04,0
5.868517994880676,3,3,3,2,-9.619999999999999,-1.78,0.41,0.01,-0.02,0.01
5.878517985343933,3,3,3,2,-9.6,-1.81,0.41,0.02,-0.01,0.03
5.88851797580719,3,3,3,2,-9.609999999999999,-1.82,0.28,0.08,0.03,0.02
5.898517966270447,3,3,3,2,-9.609999999999999,-1.8,0.32,0.15,0.02,0
5.908517956733704,3,3,3,2,-9.619999999999999,-1.74,0.39,0.25,-0.03,0.01
5.91851794719696,3,3,3,2,-9.6,-1.7,0.41,0.22,-0.04,-0.01
5.928517937660217,3,3,3,2,-9.609999999999999,-1.7,0.44,0.16,-0.03,-0.03
5.938517928123474,3,3,3,2,-9.609999999999999,-1.67,0.35,0.12,0,0.01
5.948517918586731,3,3,3,2,-9.630000000000001,-1.66,0.38,0.05,0.02,0.03
5.958517909049988,3,3,3,2,-9.609999999999999,-1.63,0.45,0.02,0.02,0.03
5.968517899513245,3,3,3,2,-9.609999999999999,-1.61,0.44,0.06,-0.02,0.07000000000000001
5.979518055915833,3,3,3,2,-9.619999999999999,-1.54,0.4,0.09,0,0.1
5.989518046379089,3,3,3,2,-9.619999999999999,-1.5,0.35,0.11,0.02,0.16
5.999518036842346,3,3,3,2,-9.619999999999999,-1.49,0.38,0.06,0.03,0.17
6.009518027305603,3,3,3,2,-9.619999999999999,-1.48,0.44,0.01,0.03,0.27
6.01951801776886,3,3,3,2,-9.630000000000001,-1.57,0.41,-0.06,0.05,0.31
6.029518008232117,3,3,3,2,-9.630000000000001,-1.56,0.36,-0.11,0.03,0.4
6.039517998695374,3,3,3,2,-9.630000000000001,-1.63,0.27,-0.1,0.07000000000000001,0.42
6.04951798915863,3,3,3,2,-9.630000000000001,-1.64,0.26,-0.16,0.1,0.45
6.059517979621887,3,3,3,2,-9.609999999999999,-1.66,0.37,-0.12,0.11,0.51
6.069517970085144,3,3,3,2,-9.59,-1.64,0.4,-0.03,0.14,0.49
6.079517960548401,3,3,3,2,-9.6,-1.66,0.42,0.05,0.09,0.55
6.089517951011658,3,3,3,2,-9.6,-1.68,0.31,0.01,0.13,0.59
6.099517941474915,3,3,3,2,-9.6,-1.57,0.4,0.05,0.12,0.6899999999999999
6.109517931938171,3,3,3,2,-9.59,-1.56,0.43,0.09,0.11,0.72
6.119517922401428,3,3,3,2,-9.619999999999999,-1.56,0.44,-0.03,0.08,0.78
6.129517912864685,3,3,3,2,-9.609999999999999,-1.48,0.44,-0.14,0.07000000000000001,0.85
6.139517903327942,3,3,3,2,-9.619999999999999,-1.34,0.36,-0.23,0.05,0.93
6.149517893791199,3,3,3,2,-9.59,-1.21,0.42,-0.19,0.06,0.98
6.159517884254456,3,3,3,2,-9.57,-1.12,0.39,-0.12,0.1,1.05
6.169517874717712,3,3,3,2,-9.57,-1.02,0.42,-0.07000000000000001,0.11,1.19
6.189518094062805,3,3,3,2,-9.619999999999999,-0.48,0.32,0.16,0.13,1.47
6.199518084526062,3,3,3,2,-9.609999999999999,-0.57,0.41,0.12,0.42,1.93
6.209518074989319,3,3,3,2,-9.619999999999999,-0.68,0.42,0.12,0.42,1.93
6.219518065452576,3,3,3,2,-9.65,-0.7,0.46,0.2,0.51,2.14
6.229518055915833,3,3,3,2,-9.619999999999999,-0.8100000000000001,0.43,0.55,0.49,2.57
6.239518046379089,3,3,3,2,-9.6,-0.79,0.3,0.55,0.49,2.57
6.249518036842346,3,3,3,2,-9.59,-0.5,0.34,0.92,0.36,2.7
6.259518027305603,3,3,3,2,-9.619999999999999,0.01,0.5,1.41,0.32,2.88
6.26951801776886,3,3,3,2,-9.539999999999999,-0.23,0.67,1.49,0.17,3.12
6.279518008232117,3,3,3,2,-9.539999999999999,-0.11,0.6899999999999999,1.29,0.11,3.45
6.289517998695374,3,3,3,2,-9.59,0.23,0.72,1.98,0.16,3.96
6.29951798915863,3,3,3,2,-9.369999999999999,-0.52,0.91,1.27,0.48,4.57
6.309517979621887,3,3,3,2,-9.41,-1.11,0.6,1.27,0.48,4.57
6.319517970085144,3,3,3,2,-9.460000000000001,-0.96,0.46,1.25,0.6,4.94
6.329517960548401,3,3,3,2,-9.49,-0.48,0.49,3.17,0.06,5.19
6.339517951011658,3,3,3,2,-9.380000000000001,0.37,0.65,3.52,-0.37,5.58
6.349517941474915,3,3,3,2,-9.279999999999999,0.53,0.64,3.37,-0.52,6.05
6.359517931938171,3,3,3,2,-9.300000000000001,0.73,0.63,3.37,-0.52,6.05
6.369517922401428,3,3,3,2,-9.19,0.7,0.93,2.91,-0.75,6.54
6.379517912864685,3,3,3,2,-9.23,0.97,0.82,2.54,-0.67,7.4
6.389517903327942,3,3,3,2,-9.210000000000001,1.36,0.8100000000000001,2.92,-0.72,7.71
6.399517893791199,3,3,3,2,-9.029999999999999,1.64,1,3.06,-0.62,8.16
6.409517884254456,3,3,3,2,-8.869999999999999,1.03,0.5600000000000001,3.06,-0.62,8.16
6.419517874717712,3,3,3,2,-8.720000000000001,0.6,0.27,2.3,-0.78,8.800000000000001
6.429517865180969,3,3,3,2,-8.699999999999999,0.61,0.33,2.34,-0.76,9.1
6.439518094062805,3,3,3,2,-8.880000000000001,0.5600000000000001,0.43,3.02,-0.38,8.68
6.449518084526062,3,3,3,2,-9.210000000000001,1.4,0.15,3.45,-0.3,8.359999999999999
6.459518074989319,3,3,3,2,-9.039999999999999,1.25,0.5,3.45,-0.3,8.359999999999999
6.469518065452576,3,3,3,2,-8.83,0.37,0.82,3.37,-0.16,8.51
6.479518055915833,3,3,3,2,-8.82,0.45,0.35,3.63,0.42,8.970000000000001
6.489518046379089,3,3,3,2,-8.800000000000001,0.67,0.1,3.52,0.37,9.359999999999999
6.499518036842346,3,3,3,2,-8.66,0.91,0.15,3.62,0.48,9.76
6.509518027305603,3,3,3,2,-8.67,0.44,0.11,3.62,0.48,9.76
6.51951801776886,3,3,3,2,-8.91,0.34,-0.07000000000000001,2.88,0.61,10.12
6.529518008232117,3,3,3,2,-9.18,0.88,0.18,4.87,1.56,9.91
6.539517998695374,3,3,3,2,-9.06,1.28,-0.02,4.61,1.7,9.85
6.54951798915863,3,3,3,2,-8.859999999999999,1.14,0.01,3.46,1.98,10.14
6.559517979621887,3,3,3,2,-8.94,1.62,-0.07000000000000001,3.46,1.98,10.14
6.569517970085144,3,3,3,2,-9.390000000000001,2.37,0.43,3.76,2.36,10
6.579517960548401,3,3,3,2,-9.31,2.15,0.3,2.45,2.04,9.83
6.589517951011658,3,3,3,2,-8.93,1.58,0.17,1.38,2.04,9.81
6.599517941474915,3,3,3,2,-8.630000000000001,1.32,0.01,0.8,2.7,9.449999999999999
6.609517931938171,3,3,3,2,-8.960000000000001,0.91,0.01,0.8,2.7,9.449999999999999
6.619517922401428,3,3,3,2,-9.16,0.13,-0.23,0.11,2.99,8.83
6.629517912864685,3,3,3,2,-9.220000000000001,0.11,-0.59,1.79,2.29,7.66
6.639517903327942,3,3,3,2,-9.26,0.25,-0.41,3.48,2.5,7.21
6.649517893791199,3,3,3,2,-9.85,0.72,-0.64,4.39,2.91,6.97
6.659517884254456,3,3,3,2,-10.14,0.85,-0.44,4.39,2.91,6.97
6.669517874717712,3,3,3,2,-10.31,0.53,-0.63,4.14,2.9,6.66
6.679517865180969,3,3,3,2,-10.46,1.22,-0.5600000000000001,3.81,2.7,5.45
6.689518094062805,3,3,3,2,-11.11,1.2,-0.23,3.14,2.35,4.68
6.699518084526062,3,3,3,2,-11.22,1.03,-0.47,1.95,2.32,3.95
6.709518074989319,3,3,3,2,-11.59,0.93,-0.62,1.95,2.32,3.95
6.719518065452576,3,3,3,2,-11.82,0.47,-0.51,0.53,2.07,3.07
6.729518055915833,3,3,3,2,-12.16,-0.44,-0.44,-1.55,1.47,1
6.739518046379089,3,3,3,2,-12.41,-1.28,0,-2.64,1.17,-0.09
6.749518036842346,3,3,3,2,-12.63,-2.01,0.09,-2.94,0.64,-1.34
6.759518027305603,3,3,3,2,-13.49,-2.25,0.19,-2.94,0.64,-1.34
6.76951801776886,3,3,3,2,-14.18,-2.26,0.79,-2.43,0.04,-2.58
6.779518008232117,3,3,3,2,-14.73,-2.2,1.04,-2.09,-1.83,-5.16
6.789517998695374,3,3,3,2,-15.3,-2.5,1.46,-2.57,-2.79,-6.31
6.79951798915863,3,3,3,2,-16.55,-3.38,2.38,-2.72,-3.5,-7.44
6.809517979621887,3,3,3,2,-17.24,-3.96,3.17,-2.72,-3.5,-7.44
6.819517970085144,3,3,3,2,-17.72,-4.64,3.74,-2.81,-4.23,-8.390000000000001
6.829517960548401,3,3,3,2,-18.03,-5.49,3.63,-2.89,-6.09,-9.91
6.839517951011658,3,3,3,2,-18.62,-7.47,4.02,-3.79,-7.24,-10.75
6.849517941474915,3,3,3,2,-19.2,-8.99,4.08,-4.02,-8.31,-12.41
6.859517931938171,3,3,3,2,-19.76,-10.63,3.89,-4.02,-8.31,-12.41
6.869517922401428,3,3,3,2,-20.86,-13.18,4.12,-3.19,-8.220000000000001,-14.62
6.879517912864685,3,3,3,2,-22.11,-17.89,-0.6899999999999999,1.95,-8.720000000000001,-20.72
6.889517903327942,3,3,3,2,-23.23,-18.29,-3.52,6.29,-8.01,-23.77
6.899517893791199,3,3,3,2,-24.95,-18.11,-5.86,9.949999999999999,-7.51,-26.33
6.909517884254456,3,3,3,2,-26.88,-16,-7.76,9.949999999999999,-7.51,-26.33
6.919517874717712,3,3,3,2,-30.09,-2.42,-12.02,12.39,-6.34,-28.73
6.929517865180969,3,3,3,2,-29.07,2.83,-9.74,9.65,-2.49,-28.83
6.939518094062805,3,3,3,2,-26.05,7.88,-7.05,8.93,-0.51,-27.87
6.950518012046814,3,3,3,2,-21.54,9.16,-5.12,7.22,1.07,-28.39
6.959518074989319,3,3,3,2,-14.07,2.06,-2.39,7.22,1.07,-28.39
6.969518065452576,3,3,3,2,-10.49,4.75,-2.13,9.130000000000001,2.43,-28.98
6.980517983436584,3,3,3,2,-9.19,34.47,1.8,25.94,-8.07,-22.59
6.989518046379089,3,3,3,2,-3.59,39.23,17.01,11.8,-7.68,-5.25
6.999518036842346,3,3,3,2,6.73,37,9.619999999999999,-13.07,6.38,6.45
7.010517954826355,3,3,3,2,5.49,13.34,3.86,-13.07,6.38,6.45
7.020517945289612,3,3,3,2,-1.59,-8.800000000000001,-0.9,-14.02,12.2,13.19
7.030517935752869,3,3,3,2,-8.33,-16.85,-2.16,5.64,10.76,3.32
7.040517926216125,3,3,3,2,-3.74,-9.710000000000001,1.83,15.2,4.22,2.49
7.050517916679382,3,3,3,2,-1.66,-6.54,0.1,17.25,1.75,4.54
7.060517907142639,3,3,3,2,-0.55,-4.9,-2.09,17.25,1.75,4.54
7.070517897605896,3,3,3,2,0.22,-3.82,-3.67,12.3,-1.29,7.34
7.080517888069153,3,3,3,2,-0.28,-5.85,-4.12,-1.68,-2.81,6.75
7.09051787853241,3,3,3,2,0.02,-5.6,-3.3,-2.64,-1.37,4.77
7.100517868995667,3,3,3,2,0.07000000000000001,-4,-1.97,-0.77,-1.1,2.91
7.110517859458923,3,3,3,2,0,-2.33,-1.47,-0.77,-1.1,2.91
7.120518088340759,3,3,3,2,2.06,0.44,-1.77,0.58,-2.52,2.19
7.130518078804016,3,3,3,2,2.1,1.55,-1.38,-4.15,-3.78,3.38
7.140518069267273,3,3,3,2,1.34,2.85,-0.97,-11.17,-3.56,3.77
7.15051805973053,3,3,3,2,-0.28,2.6,-0.22,-17.74,-3.52,4.31
7.160518050193787,3,3,3,2,-0.09,-2.74,1.1,-17.74,-3.52,4.31
7.170518040657043,3,3,3,2,1.03,-3.42,0.78,-16.98,-3.1,4.65
7.1805180311203,3,3,3,2,1.09,-3.16,0.9,-6.95,0.99,4.27
7.190518021583557,3,3,3,2,-0.28,-1.53,0.78,-3.94,2.65,3.98
7.200518012046814,3,3,3,2,-0.93,-0.53,0.55,-1.85,3.63,3.77
7.210518002510071,3,3,3,1,-1.49,0.49,0.27,-1.85,3.63,3.77
7.220517992973328,3,3,3,1,-1.65,1.43,0.15,-0.46,3.95,3.6
7.230517983436584,3,3,3,1,-1.28,2.36,-0.03,-0.87,3.64,2.86
7.240517973899841,3,3,3,1,-0.92,2.61,-0.06,-1.86,3.21,2.77
7.250517964363098,3,3,3,1,-0.05,2.6,-0.13,-3.59,1.98,3.15
7.260517954826355,3,3,3,1,0.39,2.28,0.02,-3.59,1.98,3.15
7.270517945289612,3,3,3,1,0.5600000000000001,2.43,0.36,-5.33,0.91,3.86
7.280517935752869,3,3,3,1,0.61,3.01,0.06,-7.3,1.04,5.35
7.290517926216125,3,3,3,1,0.17,3.27,-0.53,-6.31,1.25,5.74
7.300517916679382,3,3,3,1,-0.47,3.01,-1.02,-3.43,-0.35,5.32
7.310517907142639,3,3,3,1,-3.7,10.91,0,-3.43,-0.35,5.32
7.320517897605896,3,3,3,1,-7.86,21.25,5.57,5.41,-3.72,5.02
7.330517888069153,3,3,3,1,-9.32,15.32,9.619999999999999,-11.5,-7.7,1
7.34051787853241,3,3,3,1,-9.199999999999999,-9.449999999999999,8.41,-17.69,-2.43,-3.98
7.350517868995667,3,3,3,1,-22.52,-10.53,-3.78,14.83,-0.8,-6.66
7.360517859458923,3,3,3,1,-28.36,8.49,1.78,14.83,-0.8,-6.66
7.370518088340759,3,3,3,1,-30.97,9.720000000000001,-0.14,38.24,0.36,0.54
7.380518078804016,3,3,3,1,-20.62,1.99,-9.710000000000001,18.14,10.14,14.36
7.390518069267273,3,3,3,1,-24.94,26.17,-12.9,37.64,5.28,10.9
7.40051805973053,3,3,3,1,-39.31,23.96,15.87,11.74,1.54,19.71
7.410518050193787,3,3,3,1,-39.31,23.96,15.87,11.74,1.54,19.71
7.420518040657043,3,3,3,1,-27.01,-3.17,6.78,-50.5,2.31,27.27
7.4305180311203,3,3,3,1,-7.55,-39.12,-10.11,-73.5,7.69,16.03
7.440518021583557,3,3,3,1,-10.84,-38.78,-6.58,-11.56,5.18,5.89
7.450518012046814,3,3,3,1,-13.7,-27.13,-6.24,48.88,5.34,1.32
7.460518002510071,3,3,3,1,-13.7,-27.13,-6.24,48.88,5.34,1.32
7.470517992973328,3,3,3,1,-16.28,4.87,0.5600000000000001,70.06999999999999,3.39,-2.66
7.480517983436584,3,3,3,1,-21.32,18.2,4.2,39.51,-6.41,-10.72
7.490517973899841,3,3,3,1,-20.88,13.57,3.21,5.73,-4.94,-4.82
7.500517964363098,3,3,3,1,-18.94,-3.61,-0.48,-20.71,-1.64,2.55
7.510517954826355,3,3,3,1,-18.94,-3.61,-0.48,-20.71,-1.64,2.55
7.520517945289612,3,3,3,1,-14.53,-6.87,-0.73,-30.42,-0.12,5.62
7.530517935752869,3,3,3,1,-6.81,-6.18,-1.18,-21.07,-0.13,2.22
7.540517926216125,3,3,3,1,-9.82,-4.2,0.11,-15.4,-0.01,-0.83
7.550517916679382,3,3,3,1,-11.44,-2.24,0.7,-10.16,0.35,-3.95
7.560517907142639,3,3,3,2,-11.44,-2.24,0.7,-7.37,0.6,-6.84
7.570517897605896,3,3,3,2,-12.1,-0.44,0.79,-7.98,0.86,-9.31
7.580517888069153,3,3,3,2,-10.66,-3.09,-0.46,-9.16,0.41,-10.54
7.59051787853241,3,3,3,2,-9.48,-4.24,-0.59,-6.68,0.01,-10.4
7.600517868995667,3,3,3,2,-8.369999999999999,-3.95,-0.65,-0.82,-0.76,-9.44
7.610517859458923,3,3,3,2,-8.369999999999999,-3.95,-0.65,4.73,-1.29,-8.49
7.620518088340759,3,3,3,2,-7.93,-1.36,-0.38,8.23,-1.21,-7.89
7.630518078804016,3,3,3,2,-8.199999999999999,1.55,-0.52,8.699999999999999,-0.75,-7.59
7.640518069267273,3,3,3,2,-8.31,2.79,-0.57,7.35,-0.3,-7.42
7.65051805973053,3,3,3,2,-8.24,4.49,-0.11,5.42,-0.07000000000000001,-7.18
7.660518050193787,3,3,3,2,-8.24,4.49,-0.11,5.42,-0.07000000000000001,-7.18
7.670518040657043,3,3,3,2,-8.1,4.76,0.19,-1.35,0.03,-6.44
7.6805180311203,3,3,3,2,-7.78,4.39,1.05,-5.65,0.17,-5.82
7.690518021583557,3,3,3,2,-8.08,2.8,2.19,-9.539999999999999,0.58,-5.32
7.700518012046814,3,3,3,2,-8.220000000000001,2.15,2.53,-11.85,0.9,-5.06
7.710518002510071,3,3,3,2,-8.220000000000001,2.15,2.53,-11.85,0.9,-5.06
7.720517992973328,3,3,3,2,-8.199999999999999,1.56,2.85,-11.94,1.02,-4.86
7.730517983436584,3,3,3,2,-8.609999999999999,0.21,2.93,-9.42,0.97,-4.01
7.740517973899841,3,3,3,2,-8.75,0.11,2.68,-7.36,1.05,-3.34
7.750517964363098,3,3,3,2,-8.98,0.28,2.16,-4.79,1.33,-2.74
7.760517954826355,3,3,3,2,-8.98,0.28,2.16,-4.79,1.33,-2.74
7.770517945289612,3,3,3,2,-9.02,0.21,1.79,-2.83,1.25,-2.09
7.780517935752869,3,3,3,2,-9.550000000000001,0.52,-0.26,0.36,0.91,-1.33
7.790517926216125,3,3,3,2,-9.779999999999999,0.46,-0.63,1.32,0.73,-1.29
7.800517916679382,3,3,3,2,-9.91,0.23,-0.97,1.84,0.74,-1.44
7.810517907142639,3,3,3,2,-9.91,0.23,-0.97,1.84,0.74,-1.44
7.820517897605896,3,3,3,2,-10.2,0.08,-1.24,1.92,0.78,-1.71
7.830517888069153,3,3,3,2,-10.14,-0.41,-0.88,0.98,0.5600000000000001,-2.41
7.84051787853241,3,3,3,2,-10.07,-0.95,-0.55,0.08,0.51,-2.69
7.850517868995667,3,3,3,2,-10.03,-2.3,0.02,-0.84,0.47,-2.97
7.860517859458923,3,3,3,2,-10.05,-2.56,0.24,-1.31,0.4,-3.28
7.870518088340759,3,3,3,2,-10.15,-2.73,0.4,-0.98,0.38,-3.56
7.880518078804016,3,3,3,2,-10.09,-2.95,0.53,-0.54,0.17,-3.72
7.890518069267273,3,3,3,2,-9.869999999999999,-2.7,0.71,0.09,0.14,-3.8
7.90051805973053,3,3,3,2,-9.720000000000001,-2.58,0.71,0.42,0.15,-3.88
7.910518050193787,3,3,3,2,-9.59,-2.39,0.7,0.6899999999999999,0.22,-3.85
7.920518040657043,3,3,3,2,-9.48,-2.02,0.64,1.07,0.32,-3.82
7.9305180311203,3,3,3,2,-9.48,-1.59,0.17,1.28,0.49,-3.77
7.940518021583557,3,3,3,2,-9.44,-1.32,0.16,0.97,0.46,-3.77
7.950518012046814,3,3,3,2,-9.42,-0.88,0.13,1.01,0.36,-3.78
7.960518002510071,3,3,3,2,-9.449999999999999,-0.52,0.09,0.8,0.27,-3.77
7.970517992973328,3,3,3,2,-9.49,-0.66,0.22,0.03,0.13,-3.73
7.980517983436584,3,3,3,2,-9.449999999999999,-0.3,0,-0.16,0.17,-3.64
7.990517973899841,3,3,3,2,-9.41,-0.11,-0.05,-0.55,0.12,-3.54
8.000517964363098,3,3,3,2,-9.619999999999999,-0.58,0.24,-1.4,0.06,-3.4
8.010517954826355,3,3,3,2,-9.6,-0.58,0.3,-1.77,-0.05,-3.33
8.020517945289612,3,3,3,2,-9.59,-0.71,0.26,-1.84,-0.15,-3.21
8.031517863273621,3,3,3,2,-9.65,-1.12,0.12,-2.21,-0.24,-3.1
8.041518092155457,3,3,3,2,-9.470000000000001,-1.35,0.54,-2.24,-0.41,-3.04
8.051518082618713,3,3,3,2,-9.43,-1.08,0.59,-1.31,-0.48,-3
8.06151807308197,3,3,3,2,-9.51,-0.86,0.64,-0.71,-0.51,-2.96
8.071518063545227,3,3,3,2,-9.51,-0.92,0.71,-0.57,-0.67,-2.83
8.081518054008484,3,3,3,2,-9.52,-0.6899999999999999,0.46,-0.46,-0.72,-2.55
8.091518044471741,3,3,3,2,-9.58,-0.67,0.45,-0.72,-0.71,-2.22
8.101518034934998,3,3,3,2,-9.6,-1,0.52,-1.46,-0.48,-1.9
8.111518025398254,3,3,3,2,-9.59,-1.24,0.49,-1.91,-0.2,-1.61
8.121518015861511,3,3,3,2,-9.539999999999999,-1.67,0.5600000000000001,-1.98,0.11,-1.4
8.131518006324768,3,3,3,2,-9.44,-1.2,0.5,-1.14,0.09,-1.29
8.141517996788025,3,3,3,2,-9.34,-0.79,0.59,-0.25,-0.05,-1.24
8.151517987251282,3,3,3,2,-9.32,-0.44,0.55,0.11,-0.19,-1.17
8.161517977714539,3,3,3,2,-9.58,0.23,0.34,0.02,-0.29,-0.93
8.171517968177795,3,3,3,2,-9.6,0.32,0.26,-0.5600000000000001,-0.2,-0.51
8.181517958641052,3,3,3,2,-9.58,0.55,0.11,-0.62,-0.02,-0.01
8.191517949104309,3,3,3,2,-9.609999999999999,0.66,0.21,-0.55,0.15,0.38
8.201517939567566,3,3,3,2,-9.460000000000001,1.47,0.45,-0.27,0.21,0.6899999999999999
8.211517930030823,3,3,3,2,-9.44,1.93,0.68,-0.29,0.34,1.19
8.22151792049408,3,3,3,2,-9.48,2.61,0.74,-0.33,0.39,1.82
8.231517910957336,3,3,3,2,-9.449999999999999,2.35,0.84,-1.31,0.55,2.85
8.241517901420593,3,3,3,2,-9.140000000000001,2.76,1.18,-1.52,0.82,3.89
8.25151789188385,3,3,3,2,-9.1,2.78,1.17,-1.31,1.01,4.85
8.261517882347107,3,3,3,2,-9.02,2.82,1.18,-1.3,1.15,5.91
8.271517872810364,3,3,3,2,-8.869999999999999,3.31,1.06,-0.68,1.01,6.95
8.281517863273621,3,3,3,2,-8.859999999999999,3.23,0.74,-0.63,0.77,7.9
8.291518092155457,3,3,3,2,-8.949999999999999,2.35,0.7,-1.35,0.33,8.77
8.301518082618713,3,3,3,2,-8.880000000000001,-0.25,0.8100000000000001,-4.02,0.06,9.68
8.31151807308197,3,3,3,2,-8.710000000000001,-2.59,0.61,-5.49,0.1,9.81
8.321518063545227,3,3,3,2,-8.949999999999999,-3.47,-0.32,-3.16,0.59,8.65
8.331518054008484,3,3,3,2,-9.56,-3.21,-0.75,-0.02,0.93,7.24
8.341518044471741,3,3,3,2,-9.81,-2.68,-0.93,2.84,0.29,6.16
8.351518034934998,3,3,3,2,-10.01,-2.05,-1.07,4.94,-0.33,5.75
8.361518025398254,3,3,3,2,-10.28,-4.23,-0.64,4.46,-0.82,5.75
8.371518015861511,3,3,3,2,-10.29,-4.08,-0.83,3.81,-0.85,5.2
8.381518006324768,3,3,3,2,-10.79,-4.17,-0.79,4.41,-0.08,4.19
8.391517996788025,3,3,3,2,-11.18,-4.05,-0.71,5.72,0.16,3.2
8.401517987251282,3,3,3,2,-10.98,-3.02,-0.41,8.029999999999999,-0.07000000000000001,2.59
8.411517977714539,3,3,3,2,-10.68,-3.01,0.21,8.19,-0.39,2.57
8.421517968177795,3,3,3,2,-10.38,-3.65,0.36,5.9,-0.57,2.81
8.431517958641052,3,3,3,2,-10.22,-3.9,-0.13,4.1,-0.34,2.67
8.441517949104309,3,3,3,2,-10.36,-3.6,0.03,3.5,0.12,1.97
8.451517939567566,3,3,3,2,-10.48,-2.71,0.26,3.09,0.15,1.35
8.461517930030823,3,3,3,2,-10.62,-1.69,0.52,2.43,0.08,1.05
8.47151792049408,3,3,3,2,-10.64,-1.3,0.88,0.6899999999999999,0.02,1.16
8.481517910957336,3,3,3,2,-10.31,-1.8,0.82,-1.65,-0.07000000000000001,1.4
8.491517901420593,3,3,3,2,-9.949999999999999,-2.24,0.46,-3.15,0.04,1.58
8.50151789188385,3,3,3,2,-9.84,-1.99,0.41,-2.8,0.25,1.49
8.511517882347107,3,3,3,2,-10.22,-1.45,0.54,-1.93,0.13,1.34
8.521517872810364,3,3,3,2,-10.29,-0.83,0.47,-0.97,-0.1,1.26
8.531517863273621,3,3,3,2,-10.26,-0.46,0.41,-0.39,-0.29,1.35
8.541518092155457,3,3,3,2,-10.01,-0.44,0.54,-0.6,-0.26,1.66
8.551518082618713,3,3,3,2,-9.5,-0.58,0.37,-0.93,-0.01,1.94
8.56151807308197,3,3,3,2,-9.119999999999999,-0.99,0.21,-1.75,0.06,2.11
8.571518063545227,3,3,3,2,-8.83,-0.87,-0.1,-1.67,0.29,2.01
8.581518054008484,3,3,3,2,-8.800000000000001,-0.4,-0.24,-0.7,0.44,1.83
8.591518044471741,3,3,3,2,-8.76,1.28,0.33,0.45,0.27,1.87
8.601518034934998,3,3,3,2,-8.65,2.14,0.57,1.39,0.01,2.2
8.611518025398254,3,3,3,2,-8.48,2.87,0.86,2.04,-0.16,2.61
8.621518015861511,3,3,3,2,-8.24,3.51,1.12,2.78,-0.16,3.26
8.631518006324768,3,3,3,2,-7.88,3.59,0.72,3.29,-0.05,4.31
8.641517996788025,3,3,3,2,-7.62,1.78,0.83,1.67,-0.2,5.65
8.651517987251282,3,3,3,2,-7.29,0.61,0.41,0.46,0.03,6.25
8.661517977714539,3,3,3,2,-7.4,0.1,-0.21,1.15,0.49,6.26
8.671517968177795,3,3,3,2,-8.449999999999999,0.79,-0.08,3.78,0.38,5.94
8.681517958641052,3,3,3,2,-8.98,2.15,-0.04,7.64,0.35,5.68
8.691517949104309,3,3,3,2,-9.42,3.47,0.26,9.81,0.44,5.96
8.701517939567566,3,3,3,2,-9.57,3.85,0.66,8.460000000000001,0.88,6.54
8.711517930030823,3,3,3,2,-9.06,2.66,0.01,5.6,1.75,7.49
8.72151792049408,3,3,3,2,-8.619999999999999,1.82,-0.53,2.23,2.32,8.41
8.731517910957336,3,3,3,2,-8.43,1.96,-0.96,1.53,2.99,9.02
8.741517901420593,3,3,3,2,-8.59,2.06,-0.61,1.41,3.25,9.65
8.75151789188385,3,3,3,2,-8.35,0.32,-0.01,0.8100000000000001,2.78,10.25
8.761517882347107,3,3,3,2,-7.82,-0.8100000000000001,0.19,0.29,2.24,10.44
8.771517872810364,3,3,3,2,-7.66,-1,-0.82,0.38,2.39,9.84
8.781517863273621,3,3,3,2,-8.17,0.46,-1.8,2.75,2.58,8.73
8.791518092155457,3,3,3,2,-10.13,3.18,-0.57,4.52,2.36,7.78
8.801518082618713,3,3,3,2,-10.53,3.12,-0.46,3.34,1.86,7.63
8.81151807308197,3,3,3,2,-10.62,1.74,-0.6899999999999999,0.65,1.83,8.02
8.821518063545227,3,3,3,2,-10.55,-0.31,-2.09,-1.85,2.34,8.25
8.831518054008484,3,3,3,2,-10.45,-0.53,-2.06,-2.74,2.81,8.26
8.841518044471741,3,3,3,2,-10.4,-0.55,-1.71,-2.36,3.26,7.93
8.851518034934998,3,3,3,2,-10.23,-0.5600000000000001,-1.52,-1.59,3.17,7.31
8.861518025398254,3,3,3,2,-10.66,0.5,-1.06,-0.34,3.15,6.48
8.871518015861511,3,3,3,2,-10.87,0.38,-0.8100000000000001,0.06,2.77,5.54
8.881518006324768,3,3,3,2,-11.12,0.11,-1.34,-0.21,2.43,4.36
8.891517996788025,3,3,3,2,-11.51,0.55,-1.4,-0.05,2.06,3.07
8.901517987251282,3,3,3,2,-12.66,-0.24,-0.65,-0.52,1.85,2.03
8.911517977714539,3,3,3,2,-12.96,-1.1,-0.62,-1.48,1.38,1.16
8.921517968177795,3,3,3,2,-13.17,-1.37,-0.51,-1.5,1.09,0.29
8.931517958641052,3,3,3,2,-13.3,-1.09,-0.42,-0.9399999999999999,0.9399999999999999,-0.58
8.941517949104309,3,3,3,2,-13.61,-2.02,0.75,-1.14,0.63,-1.35
8.951517939567566,3,3,3,2,-13.73,-2.03,0.77,-1.87,-0.05,-2.26
8.961517930030823,3,3,3,2,-14.1,-1.12,0.83,-1.33,-0.8,-3.56
8.97151792049408,3,3,3,2,-14.9,-1.42,1.76,-1.63,-1.73,-4.86
8.981517910957336,3,3,3,2,-15.67,-2.53,2.25,-2.09,-2.75,-6.03
8.991517901420593,3,3,3,2,-16.38,-2.94,2.5,-2.32,-3.44,-6.9
9.00151789188385,3,3,3,2,-17.1,-3.38,2.48,-2.66,-4.52,-7.52
9.011517882347107,3,3,3,2,-17.75,-3.92,2.65,-3.38,-5.43,-8.17
9.021517872810364,3,3,3,2,-18.51,-6.29,3.93,-4.88,-6.26,-8.880000000000001
9.031517863273621,3,3,3,2,-18.67,-7.73,4.2,-6.15,-7.21,-9.57
9.041518092155457,3,3,3,2,-18.92,-9.23,4.7,-6,-7.94,-10.74
9.051518082618713,3,3,3,2,-19.31,-10.38,4.83,-4.85,-8.27,-12.55
9.062518000602722,3,3,3,2,-20.06,-14.63,4.09,-3.33,-8.93,-14.53
9.072517991065979,3,3,3,2,-20.71,-16.1,2.53,-1.02,-9.359999999999999,-17.08
9.082517981529236,3,3,3,2,-21.59,-17.72,-0.83,1.95,-9.57,-19.89
9.092517971992493,3,3,3,2,-23.38,-18.28,-4.12,8,-8.66,-23.06
9.10251796245575,3,3,3,2,-28.05,-12.38,-8.779999999999999,13.54,-8.07,-25.64
9.112517952919006,3,3,3,2,-30.69,-5.69,-10.92,16.37,-6.93,-27.2
9.122517943382263,3,3,3,2,-31.58,0.62,-11.79,14.54,-5.02,-27.02
9.13251793384552,3,3,3,2,-29.76,4.64,-10.95,11.3,-2.01,-25.64
9.142517924308777,3,3,3,2,-22.59,8.029999999999999,-9.029999999999999,9.32,1.44,-26.21
9.152517914772034,3,3,3,2,-17.5,6.21,-6.48,7.84,3.39,-28.73
9.162517905235291,3,3,3,2,-11.37,2.7,-4.05,14.8,2.8,-29.56
9.172517895698547,3,3,3,2,-9.279999999999999,18.58,1.04,35.67,-4.27,-29.48
9.182517886161804,3,3,3,2,2.89,39.23,23.79,25.14,-12.14,-20.25
9.192517876625061,3,3,3,2,0.4,39.18,11.94,1.23,-1.03,-3.1
9.202517867088318,3,3,3,2,6.24,29.06,4.07,-11.05,7.79,8.24
9.212517857551575,3,3,3,2,-4.8,-12.55,-0.87,-11.8,10.05,15.81
9.222518086433411,3,3,3,2,-8.31,-13.12,-0.22,-3.93,11.28,12.83
9.232518076896667,3,3,3,2,-4.69,-10.59,2.37,7.26,6.96,7.21
9.242518067359924,3,3,3,2,-1.92,-7.54,1.15,15.04,3.04,7.14
9.252518057823181,3,3,3,2,0.29,-0.38,-2.73,16.75,0.85,9.19
9.262518048286438,3,3,3,2,1.05,-0.08,-3.67,10.83,-3.22,11.35
9.272518038749695,3,3,3,2,0.51,-2.7,-3.55,-1.01,-3.86,11.41
9.282518029212952,3,3,3,2,-0.04,-3.57,-3.42,-6.94,-1.81,9.859999999999999
9.292518019676208,3,3,3,2,-0.92,-4.42,-1.18,-7.97,-1.01,7.55
9.302518010139465,3,3,3,2,-0.97,-3.28,-0.8,-5.85,-2.01,5.26
9.312518000602722,3,3,3,2,0.17,-2.2,-1.31,-3.6,-4.13,3.71
9.322517991065979,3,3,3,2,1.15,-1.29,-1.33,-4.42,-5.57,3.86
9.332517981529236,3,3,3,2,2.06,0.2,-0.24,-6.81,-6.26,4.59
9.342517971992493,3,3,3,2,1.92,0.11,0.35,-9.970000000000001,-5.37,5.37
9.35251796245575,3,3,3,2,1.84,-0.58,0.74,-11.95,-3.16,6.02
9.362517952919006,3,3,3,2,1.74,-0.9399999999999999,0.88,-12.24,-0.54,6.1
9.372517943382263,3,3,3,2,0.2,-0.31,0.71,-11.55,2.13,5.39
9.38251793384552,3,3,3,2,-0.85,0.38,0.38,-9.24,3.6,4.21
9.392517924308777,3,3,3,2,-1.44,1.07,0.34,-6.84,3.41,2.99
9.402517914772034,3,3,3,2,-1.59,1.4,0.17,-5.39,2.48,2.27
9.412517905235291,3,3,3,2,-1.4,2.01,-0.11,-4.79,1.86,1.78
9.422517895698547,3,3,3,2,-0.84,2.1,-0.26,-5.23,1.51,1.62
9.432517886161804,3,3,3,2,-0.3,1.95,-0.4,-6.14,1.1,1.85
9.442517876625061,3,3,3,2,0.09,1.45,-0.41,-7.06,0.73,2.34
9.452517867088318,3,3,3,2,-0.15,0.19,-0.22,-7.03,0.43,3.09
9.462517857551575,3,3,3,2,-0.5600000000000001,-0.66,0.02,-6.01,0.19,3.66
9.472518086433411,3,3,3,2,-0.53,-1.67,-0.06,-3.19,-0.49,3.9
9.482518076896667,3,3,3,2,-0.32,-1.84,0.28,0.21,-0.8100000000000001,3.6
9.492518067359924,3,3,3,2,-0.11,-1.52,0.53,3.62,-1.05,3.7
9.502518057823181,3,3,3,2,-0.06,-1.02,0.41,8.130000000000001,-1.45,4.26
9.512518048286438,3,3,3,2,-0.04,-0.68,0.5600000000000001,10.74,-1.54,4.75
9.522518038749695,3,3,3,2,-0.24,-0.12,0.24,11.47,-0.9399999999999999,4.98
9.532518029212952,3,3,3,2,-2.31,5.48,-1.23,11.27,-0.64,4.49
9.542518019676208,3,3,3,2,-4.11,15.71,2.86,18.98,-2.55,4.2
9.552518010139465,3,3,3,2,-4.77,18.98,6.61,19.67,-2.54,3.67
9.562518000602722,3,3,3,2,-6.42,6.79,6.17,4.71,3.76,0.61
9.572517991065979,3,3,3,2,-19.25,-13.58,-5.83,-14.55,3.56,-3.16
9.582517981529236,3,3,3,2,-27.84,6.2,-3.4,8.359999999999999,-1.33,-5.92
9.592517971992493,3,3,3,2,-28.26,15.99,0.58,17.28,0.45,0.08
9.60251796245575,3,3,3,2,-22.86,1.16,-10.43,0.65,8.029999999999999,8.039999999999999
9.612517952919006,3,3,3,2,-23.81,19.06,-15.57,11.21,9.59,13.33
9.622517943382263,3,3,3,2,-37.21,39.23,-6.01,49.55,9.289999999999999,12.43
9.63251793384552,3,3,3,2,-39.31,35.18,23.91,-21.97,5.78,22.33
9.642517924308777,3,3,3,2,-12.8,-17.72,6.92,-70.87,3.21,29.15
9.652517914772034,3,3,3,2,-13.03,-39.21,-4.76,-82.78,8.41,23.67
9.662517905235291,3,3,3,2,-10.62,-39.21,-4.46,-55.64,7.09,18.97
9.672517895698547,3,3,3,2,-7.72,-39.14,-4.27,20.57,7.14,12.92
9.682517886161804,3,3,3,2,-6.48,-14.76,-5.27,71.66,8.970000000000001,6.43
9.692517876625061,3,3,3,2,-10.12,-3.23,-1.94,79.17,5.2,-1.71
9.702517867088318,3,3,3,2,-13.62,6.06,0,66.51000000000001,-1.43,-8.529999999999999
9.712517857551575,3,3,3,2,-14.28,13.88,1.17,40.24,-6.13,-12.25
9.722518086433411,3,3,3,2,-21.65,18.11,-1.99,12,-7.63,-10.46
9.732518076896667,3,3,3,2,-25.07,13.17,-0.63,-10.61,-6.5,-3.45
9.742518067359924,3,3,3,2,-25.23,1.92,0.33,-31.14,-1.9,5.1
9.752518057823181,3,3,3,2,-19.47,-4.73,-1.34,-35.4,0.11,9.380000000000001
9.762518048286438,3,3,3,2,-9.1,-5.72,-1.45,-29.65,-0.02,7.64
9.772518038749695,3,3,3,2,-9.4,-6.09,-1.03,-22.42,0.35,4.95
9.782518029212952,3,3,3,2,-10.18,-4.91,-0.31,-14.57,0.52,1.67
9.792518019676208,3,3,3,2,-11.55,-3.39,0.02,-10.38,0.8,-1.78
9.802518010139465,3,3,3,2,-13.84,-4.25,-0.4,-8.35,0.83,-5.74
9.812518000602722,3,3,3,2,-13.68,-5.04,-0.45,-4.31,0.29,-9.25
9.822517991065979,3,3,3,2,-12.37,-5.64,-0.42,1.79,-0.62,-10.76
9.832517981529236,3,3,3,2,-10.76,-5.58,-0.26,7.93,-1.28,-10.58
9.842517971992493,3,3,3,2,-10.5,-3.21,-0.19,12.37,-1.31,-9.52
9.85251796245575,3,3,3,2,-11.11,-1.7,-0.31,14.22,-1.55,-8.27
9.862517952919006,3,3,3,2,-11.15,-0.06,0,13.26,-1.74,-6.94
9.872517943382263,3,3,3,2,-11.06,1.62,0.26,9.869999999999999,-1.36,-5.71
9.88251793384552,3,3,3,2,-10.26,3.36,0.51,4.57,-0.9399999999999999,-4.71
9.892517924308777,3,3,3,2,-9.51,3.29,0.64,-1.19,-0.54,-4.08
9.902517914772034,3,3,3,2,-8.710000000000001,3.1,0.99,-6.04,-0.43,-3.92
9.912517905235291,3,3,3,2,-8.01,2.71,1.26,-9.619999999999999,-0.59,-4.12
9.922517895698547,3,3,3,2,-7.74,1.57,1.79,-11.66,-0.6899999999999999,-4.47
9.932517886161804,3,3,3,2,-7.84,0.63,1.77,-12.42,-0.78,-4.76
9.942517876625061,3,3,3,2,-8.109999999999999,-0.1,1.75,-11.59,-0.83,-4.84
9.952517867088318,3,3,3,2,-8.18,-0.72,1.62,-9.199999999999999,-0.78,-4.8
9.962517857551575,3,3,3,2,-8.32,-0.41,1.29,-6.05,-0.62,-4.63
9.972518086433411,3,3,3,2,-8.369999999999999,0.06,1.15,-2.75,-0.52,-4.22
9.983518004417419,3,3,3,2,-8.26,0.45,1.03,-0.34,-0.5,-3.69
9.992518067359924,3,3,3,2,-7.87,1.27,0.48,1.15,-0.45,-3.14
10.00251805782318,3,3,3,2,-7.76,1.54,0.26,1.4,-0.4,-2.85
10.01251804828644,3,3,3,2,-7.83,1.71,0.01,1.42,-0.32,-2.81
10.02251803874969,3,3,3,2,-8.07,2.15,-0.36,1.47,-0.38,-2.9
10.03251802921295,3,3,3,2,-8.44,2.69,-0.41,1.18,-0.45,-2.93
10.04251801967621,3,3,3,2,-8.77,3.22,-0.39,0.82,-0.24,-2.84
10.05251801013947,3,3,3,2,-8.94,3.39,-0.26,-0.76,-0.23,-2.52
10.06251800060272,3,3,3,2,-9.109999999999999,3,-0.11,-2.91,0.01,-2.06
10.07251799106598,3,3,3,2,-9.42,2.2,-0.06,-4.41,0.35,-1.6
10.08351790904999,3,3,3,2,-9.449999999999999,1.41,0.17,-5.68,0.5600000000000001,-1.2
10.09351789951324,3,3,3,2,-9.390000000000001,0.51,0.49,-6.51,0.7,-0.86
10.1035178899765,3,3,3,2,-9.42,-0.12,0.53,-6.03,0.8,-0.79
10.11351788043976,3,3,3,2,-9.66,-1.22,0.98,-4.51,0.84,-0.9399999999999999
10.12351787090302,3,3,3,2,-9.800000000000001,-1.53,1.03,-2.77,0.7,-1.19
10.13351786136627,3,3,3,2,-9.9,-1.52,0.95,-0.8,0.53,-1.52
10.14351809024811,3,3,3,2,-9.949999999999999,-1.35,0.95,1.14,0.29,-1.84
10.15351808071136,3,3,3,2,-10.04,-0.93,1.12,2.56,0.21,-2.17
10.16351807117462,3,3,3,2,-10.1,-0.87,0.93,3.2,0.18,-2.26
10.17351806163788,3,3,3,2,-10.02,-1.05,0.79,3.2,0.06,-2.16
10.18351805210114,3,3,3,2,-9.92,-1.13,0.38,3.08,0.05,-2.07
10.19351804256439,3,3,3,2,-9.869999999999999,-1.11,0.07000000000000001,2.96,0.07000000000000001,-1.97
10.20351803302765,3,3,3,2,-9.94,-0.85,-0.09,2.75,0.17,-1.97
10.21351802349091,3,3,3,2,-9.98,-0.49,-0.03,2.55,0.25,-2.15
10.22351801395416,3,3,3,2,-10,-0.16,-0.05,1.86,0.28,-2.29
10.24351799488068,3,3,3,2,-9.869999999999999,0.47,-0.01,-0.74,0.51,-2.52
10.25351798534393,3,3,3,2,-9.779999999999999,0.42,0,-2.45,0.65,-2.55
10.26351797580719,3,3,3,2,-9.68,0.43,0.08,-3.77,0.83,-2.58
10.27351796627045,3,3,3,2,-9.57,0.11,0.33,-4.6,0.95,-2.65
10.2835179567337,3,3,3,2,-9.48,-0.23,0.35,-5,0.9399999999999999,-2.63
10.29351794719696,3,3,3,2,-9.470000000000001,-0.43,0.38,-4.87,0.92,-2.6
10.30351793766022,3,3,3,2,-9.51,-0.54,0.41,-4.44,0.8,-2.46
10.31351792812347,3,3,3,2,-9.51,-0.82,0.27,-3.71,0.61,-2.33
10.32351791858673,3,3,3,2,-9.460000000000001,-0.72,0.21,-2.67,0.41,-2.19
10.33351790904999,3,3,3,2,-9.52,-0.63,0.12,-2.67,0.41,-2.19
10.34351789951324,3,3,3,2,-9.57,-0.57,0.12,-0.5600000000000001,0.14,-1.96
10.3535178899765,3,3,3,2,-9.41,-0.55,0.16,-0.11,0.14,-1.82
10.36351788043976,3,3,3,2,-9.369999999999999,-0.63,0.25,0.25,0.2,-1.7
10.37351787090302,3,3,3,2,-9.35,-0.59,0.2,0.25,0.2,-1.7
10.38351786136627,3,3,3,2,-9.369999999999999,-0.47,0.16,0.62,0.3,-1.64
10.39351809024811,3,3,3,2,-9.44,-0.4,0.53,1.06,0.24,-1.59
10.40351808071136,3,3,3,2,-9.460000000000001,-0.3,0.5600000000000001,1.24,0.06,-1.52
10.41351807117462,3,3,3,2,-9.550000000000001,-0.41,0.7,1.11,-0.12,-1.17
10.42351806163788,3,3,3,2,-9.66,-1.01,0.73,1.11,-0.12,-1.17
10.43351805210114,3,3,3,2,-9.619999999999999,-1.08,0.6,0.68,-0.15,-0.96
10.44351804256439,3,3,3,2,-9.65,-0.99,0.48,0.79,-0.15,-0.83
10.45351803302765,3,3,3,2,-9.710000000000001,-0.86,0.42,1.27,-0.1,-0.75
10.46351802349091,3,3,3,2,-9.539999999999999,-0.5600000000000001,0.29,1.89,-0.2,-0.54
10.47351801395416,3,3,3,2,-9.51,-0.58,0.16,1.89,-0.2,-0.54
10.48351800441742,3,3,3,2,-9.539999999999999,-0.48,-0.01,1.54,-0.14,-0.38
10.49351799488068,3,3,3,2,-9.619999999999999,-0.4,-0.03,1.25,-0.11,-0.28
10.50351798534393,3,3,3,2,-9.77,-0.41,0.1,0.99,-0.16,-0.26
10.51351797580719,3,3,3,2,-9.77,-0.31,0.21,0.62,-0.21,-0.25
10.52351796627045,3,3,3,2,-9.76,-0.19,0.29,0.36,-0.23,-0.23
10.5335179567337,3,3,3,2,-9.75,-0.37,0.25,-0.02,-0.21,-0.19
10.54351794719696,3,3,3,2,-9.720000000000001,-1.04,0.26,-0.88,-0.18,-0.08
10.55351793766022,3,3,3,2,-9.710000000000001,-1.11,0.32,-1.59,-0.02,-0.07000000000000001
10.56351792812347,3,3,3,2,-9.789999999999999,-1.05,0.34,-1.71,0.19,-0.18
10.57351791858673,3,3,3,2,-9.779999999999999,-0.89,0.38,-1.53,0.24,-0.34
10.58351790904999,3,3,3,2,-9.67,-1.56,0.32,-1.5,0.11,-0.35
10.59351789951324,3,3,3,2,-9.75,-1.45,0.34,-1.64,0.1,-0.28
10.6035178899765,3,3,3,2,-9.9,-1.42,0.34,-1.35,0.19,-0.38
10.61351788043976,3,3,3,2,-9.94,-1.38,0.31,-0.89,0.23,-0.55
10.62351787090302,3,3,3,2,-9.93,-1.43,0.22,-0.34,0.07000000000000001,-0.71
10.63351786136627,3,3,3,2,-9.74,-1.7,0.15,-0.31,-0.08,-0.68
10.64351809024811,3,3,3,2,-9.619999999999999,-1.63,0.12,-0.43,-0.15,-0.61
10.65351808071136,3,3,3,2,-9.74,-1.58,0.23,-0.01,0.03,-0.71
10.66351807117462,3,3,3,2,-9.93,-1.48,0.38,0.52,0.15,-0.99
10.67351806163788,3,3,3,2,-9.859999999999999,-1.21,0.4,0.99,-0.02,-1.25
10.68351805210114,3,3,3,2,-9.869999999999999,-0.95,0.37,1.5,-0.26,-1.37
10.69351804256439,3,3,3,2,-9.779999999999999,-0.88,0.42,1.62,-0.31,-1.34
10.70351803302765,3,3,3,2,-9.58,-0.6,0.4,1.34,-0.24,-1.25
10.71351802349091,3,3,3,2,-9.550000000000001,-0.57,0.38,1.04,-0.13,-1.14
10.72351801395416,3,3,3,2,-9.51,-0.54,0.4,0.83,-0.13,-0.99
10.73351800441742,3,3,3,2,-9.52,-0.4,0.34,0.75,-0.12,-0.88
10.74351799488068,3,3,3,2,-9.51,-0.61,0.41,0.54,-0.15,-0.8
10.75351798534393,3,3,3,2,-9.56,-0.59,0.38,0.15,-0.08,-0.7
10.76351797580719,3,3,3,2,-9.57,-0.6899999999999999,0.4,-0.2,-0.06,-0.72
10.77351796627045,3,3,3,2,-9.57,-0.83,0.47,-0.53,-0.02,-0.7
10.7835179567337,3,3,3,2,-9.68,-1.21,0.41,-0.71,0,-0.72
10.79351794719696,3,3,3,2,-9.67,-1.14,0.5,-0.88,-0.03,-0.7
10.80351793766022,3,3,3,2,-9.65,-1.14,0.55,-0.75,-0.01,-0.6899999999999999
10.81351792812347,3,3,3,2,-9.609999999999999,-1.11,0.5600000000000001,-0.6899999999999999,0.02,-0.6899999999999999
10.82351791858673,3,3,3,2,-9.66,-0.98,0.43,-0.45,0.06,-0.6899999999999999
10.83351790904999,3,3,3,2,-9.73,-1.01,0.34,-0.29,0.03,-0.61
10.84351789951324,3,3,3,2,-9.710000000000001,-1.29,0.36,-0.3,-0.05,-0.48
10.8535178899765,3,3,3,2,-9.74,-1.53,0.25,-0.58,-0.06,-0.42
10.86351788043976,3,3,3,2,-9.82,-1.56,0.26,-0.49,0.1,-0.43
10.87351787090302,3,3,3,2,-9.84,-1.55,0.25,-0.23,0.12,-0.55
10.88351786136627,3,3,3,2,-9.779999999999999,-1.42,0.17,0.28,0.04,-0.71
10.89351809024811,3,3,3,2,-9.75,-0.85,0.24,0.8100000000000001,0.01,-0.8100000000000001
10.90351808071136,3,3,3,2,-9.720000000000001,-0.59,0.29,1.06,-0.11,-0.85
10.91351807117462,3,3,3,2,-9.630000000000001,-0.51,0.36,1.03,-0.24,-0.77
10.92351806163788,3,3,3,2,-9.550000000000001,-0.65,0.38,0.65,-0.22,-0.64
10.93351805210114,3,3,3,2,-9.56,-1.01,0.28,0.32,-0.14,-0.43
10.94351804256439,3,3,3,2,-9.57,-1.31,0.36,0.07000000000000001,-0.1,-0.31
10.95351803302765,3,3,3,2,-9.609999999999999,-1.39,0.41,-0.07000000000000001,-0.03,-0.29
10.96351802349091,3,3,3,2,-9.640000000000001,-1.37,0.43,0.03,-0.01,-0.34
10.97351801395416,3,3,3,2,-9.67,-1.3,0.4,0.23,-0.03,-0.41
10.98351800441742,3,3,3,2,-9.65,-1.14,0.31,0.38,-0.15,-0.39
10.99351799488068,3,3,3,2,-9.630000000000001,-1.01,0.38,0.59,-0.2,-0.3
11.00351798534393,3,3,3,2,-9.640000000000001,-0.99,0.43,0.48,-0.21,-0.18
11.01351797580719,3,3,3,2,-9.65,-0.88,0.42,0.29,-0.2,-0.05
11.02351796627045,3,3,3,2,-9.59,-0.8100000000000001,0.33,0.1,-0.14,0.15
11.0335179567337,3,3,3,2,-9.58,-0.65,0.28,0.08,-0.13,0.28
11.04351794719696,3,3,3,2,-9.550000000000001,-0.37,0.38,0.21,-0.1,0.4
11.05351793766022,3,3,3,2,-9.52,-0.59,0.5,0.07000000000000001,-0.13,0.5600000000000001
11.06351792812347,3,3,3,2,-9.449999999999999,-0.74,0.46,-0.58,-0.12,0.8100000000000001
11.07351791858673,3,3,3,2,-9.51,-1,0.45,-1.01,-0.08,1.01
11.08351790904999,3,3,3,2,-9.52,-1.23,0.39,-1.15,0.09,1.05
11.09351789951324,3,3,3,2,-9.65,-1.17,0.42,-0.78,0.16,0.98
11.10451805591583,3,3,3,2,-9.68,-1.08,0.42,-0.36,0.19,0.96
11.11451804637909,3,3,3,2,-9.65,-0.88,0.43,-0.04,0.02,1.02
11.12451803684235,3,3,3,2,-9.539999999999999,-0.59,0.44,0.25,-0.13,1.18
11.1345180273056,3,3,3,2,-9.42,-0.04,0.27,0.31,-0.22,1.42
11.14451801776886,3,3,3,2,-9.380000000000001,0.33,0.32,0.18,-0.25,1.75
11.15451800823212,3,3,3,2,-9.31,0.53,0.4,0.05,-0.32,2.15
11.16451799869537,3,3,3,2,-9.23,0.7,0.57,-0.08,-0.3,2.64
11.17451798915863,3,3,3,2,-8.93,0.93,0.76,-0.11,-0.31,3.17
11.18451797962189,3,3,3,2,-8.720000000000001,0.7,0.84,-0.37,-0.39,3.84
11.19451797008514,3,3,3,2,-8.56,0.89,0.77,-0.08,-0.37,4.51
11.2045179605484,3,3,3,2,-8.59,0.93,0.85,0.34,-0.28,5.14
11.21451795101166,3,3,3,2,-8.529999999999999,1.51,1.07,0.92,-0.09,5.62
11.22451794147491,3,3,3,2,-8.380000000000001,1.29,1.14,1.26,0.05,6.11
11.23451793193817,3,3,3,2,-8.199999999999999,1.25,0.9,1,0.07000000000000001,6.77
11.24451792240143,3,3,3,2,-8.140000000000001,1.73,0.57,1.26,0.1,7.31
11.25451791286469,3,3,3,2,-8.380000000000001,2.29,0.28,1.78,-0.03,7.67
11.26451790332794,3,3,3,2,-8.59,2.19,0.48,2.23,-0.24,7.84
11.2745178937912,3,3,3,2,-8.77,1.52,0.61,1.66,-0.17,8.380000000000001
11.28451788425446,3,3,3,2,-8.48,0.54,0.23,0.93,-0.09,9.029999999999999
11.29451787471771,3,3,3,2,-8.42,0.36,0.43,0.85,0.39,9.369999999999999
11.30451786518097,3,3,3,2,-8.33,0.21,0.38,1.45,1.24,9.52
11.31451809406281,3,3,3,2,-8.369999999999999,0.31,0.43,1.84,1.78,9.640000000000001
11.32451808452606,3,3,3,2,-9,0.31,-0.19,2.75,2.36,9.970000000000001
11.33451807498932,3,3,3,2,-8.869999999999999,0.27,-0.13,3.57,2.43,10.72
11.34451806545258,3,3,3,2,-8.49,0.82,-0.13,3.96,1.67,11.2
11.35451805591583,3,3,3,2,-8.609999999999999,1.03,0.48,4.28,2.07,11.21
11.36451804637909,3,3,3,2,-9.76,1.36,0.31,3.71,2.59,10.9
11.37451803684235,3,3,3,2,-10.18,1.31,0.89,3.63,2.45,10.73
11.3845180273056,3,3,3,2,-10.09,0.4,0.97,2.63,2.34,10.55
11.39451801776886,3,3,3,2,-10.14,0.24,0.24,1.37,2.35,10.47
11.40451800823212,3,3,3,2,-9.890000000000001,0.34,0.3,1.53,2.65,10.42
11.41451799869537,3,3,3,2,-9.699999999999999,0.44,0.21,1.45,3.02,10.31
11.42451798915863,3,3,3,2,-9.52,0.46,-0.01,2.21,3.57,10.32
11.43451797962189,3,3,3,2,-9.619999999999999,0.48,-0.02,2.6,3.8,10.49
11.44451797008514,3,3,3,2,-9.609999999999999,1.18,-0.23,3.55,4.25,10.48
11.4545179605484,3,3,3,2,-9.35,1.07,-0.47,4.11,4.57,10.63
11.46451795101166,3,3,3,2,-9.18,0.72,-0.66,3.57,4.44,10.81
11.47451794147491,3,3,3,2,-9.119999999999999,0.43,-1.21,2.49,4.06,10.45
11.48451793193817,3,3,3,2,-9.77,1.13,-1.78,1.89,3.45,9.48
11.49451792240143,3,3,3,2,-10.45,1.24,-1.95,1.95,3,8.279999999999999
11.50451791286469,3,3,3,2,-11.02,1.72,-2.06,1.09,2.61,6.93
11.51451790332794,3,3,3,2,-11.66,2.08,-2.02,0.34,2.39,5.69
11.5245178937912,3,3,3,2,-12.07,0.28,-1.96,-1.07,2.49,4.65
11.53451788425446,3,3,3,2,-12.25,0.24,-2.44,-2.69,2.34,3.62
11.54451787471771,3,3,3,2,-13.13,0.47,-2.16,-2.77,2.09,2.55
11.55451786518097,3,3,3,2,-13.87,-0.13,-1.37,-2.65,1.61,1.3
11.56451809406281,3,3,3,2,-14.92,-0.8,-0.96,-2.56,1.1,0.01
11.57451808452606,3,3,3,2,-15.57,-0.98,-0.5600000000000001,-2.16,0.6899999999999999,-1.15
11.58451807498932,3,3,3,2,-16.14,-1.08,0.15,-1.65,0.28,-2.09
11.59451806545258,3,3,3,2,-16.43,-1.86,1.04,-1.37,-0.26,-2.83
11.60451805591583,3,3,3,2,-16.2,-2.45,2.33,-1.09,-0.99,-3.7
11.61451804637909,3,3,3,2,-16.58,-2.71,3.13,-1.08,-1.73,-4.65
11.62451803684235,3,3,3,2,-16.86,-3.39,3.44,-1.02,-2.85,-5.88
11.65451800823212,3,3,3,2,-18.55,-3.87,4.39,-0.32,-6.88,-10.6
11.66451799869537,3,3,3,2,-18.99,-4.64,4.89,-0.98,-8.15,-11.91
11.67451798915863,3,3,3,2,-19.31,-6.52,3.6,-1.86,-9.369999999999999,-13.39
11.68451797962189,3,3,3,2,-20.16,-7.33,2.75,-1.56,-9.92,-14.98
11.69451797008514,3,3,3,2,-21.08,-8,1.46,-1.18,-10.38,-16.66
11.7045179605484,3,3,3,2,-22.76,-8.85,0.72,0.13,-10.69,-18.42
11.71451795101166,3,3,3,2,-25.69,-11.53,-2.29,0.03,-11.21,-20.03
11.72451794147491,3,3,3,2,-26.86,-12.66,-4.54,0.52,-10.85,-21.62
11.73451793193817,3,3,3,2,-27.08,-13.11,-6.06,0.53,-9.859999999999999,-22.61
11.74451792240143,3,3,3,2,-26.89,-11.93,-8.23,-0.07000000000000001,-8.470000000000001,-23.14
11.75451791286469,3,3,3,2,-25.5,-3.44,-9.460000000000001,1.98,-6.14,-24.63
11.76451790332794,3,3,3,2,-23.15,-0.44,-7.45,1.54,-4.32,-26.15
11.7745178937912,3,3,3,2,-19.87,2.65,-3.72,6.12,-0.37,-27.61
11.78451788425446,3,3,3,2,-15.63,2.65,-1.88,13.74,0.19,-27.59
11.79451787471771,3,3,3,2,-6.52,7.31,-2.32,25.23,0.07000000000000001,-26.23
11.80451786518097,3,3,3,2,-3.86,21.25,0,25.23,0.07000000000000001,-26.23
11.81451809406281,3,3,3,2,-3.07,39.23,7.25,36.61,-1.34,-22.61
11.82451808452606,3,3,3,2,-2.1,39.23,20.08,-13.35,-2.78,0.85
11.83451807498932,3,3,3,2,4.72,23.79,1.61,-28.84,6.98,5.09
11.84451806545258,3,3,3,2,1.47,5.29,-2.4,-20.92,9.529999999999999,7.47
11.85451805591583,3,3,3,2,-4.52,-1.55,-2.79,-20.92,9.529999999999999,7.47
11.86451804637909,3,3,3,2,-7.87,0.83,0.51,-11.11,7.36,7.96
11.87451803684235,3,3,3,2,-2.63,-1.58,4.1,-5.62,1.28,7.89
11.8845180273056,3,3,3,2,-0.49,-3.59,1.89,-3.76,1.63,7.28
11.89451801776886,3,3,3,2,0.5600000000000001,-5.07,-1.58,-3.44,1.54,7.09
11.90451800823212,3,3,3,2,0.84,-6.92,-3.21,-3.44,1.54,7.09
11.91451799869537,3,3,3,2,0.64,-10.09,-2.81,-3.33,1.38,7.09
11.92451798915863,3,3,3,2,0.55,-9.42,-3.22,2.64,1.07,5.35
11.93451797962189,3,3,3,2,-0.06,-7.69,-3.09,8.02,0.7,4.7
11.94451797008514,3,3,3,2,-0.61,-5.27,-2.58,13.6,-0.36,4.9
11.9545179605484,3,3,3,2,-0.61,-2,-2.99,13.6,-0.36,4.9
11.96451795101166,3,3,3,2,-0.2,-2.22,-2.52,11.96,-2.67,5.11
11.97451794147491,3,3,3,2,0.63,-2.58,-1.81,7.36,-3.58,5.52
11.98451793193817,3,3,3,2,0.67,-2.92,-1.25,9,-2.19,5.02
11.99451792240143,3,3,3,2,0.37,-3.05,-0.34,12.05,-0.55,4.42
12.00451791286469,3,3,3,2,0.79,-1.85,-0.01,12.05,-0.55,4.42
12.01451790332794,3,3,3,2,1.01,-0.15,0.21,13.68,0.99,4.21
12.0245178937912,3,3,3,2,0.85,1.38,0.46,7.62,2.56,4.43
12.03451788425446,3,3,3,2,0.41,3.2,0.5600000000000001,2.21,3.17,4.39
12.04451787471771,3,3,3,2,-0.03,3.27,0.5600000000000001,-2.99,3.89,4.35
12.05451786518097,3,3,3,2,-0.53,3.1,0.55,-2.99,3.89,4.35
12.06451809406281,3,3,3,2,-0.9399999999999999,2.61,0.39,-6.83,4.19,4.28
12.07451808452606,3,3,3,2,-1.19,1.97,0.38,-11.84,4.05,4.26
12.08451807498932,3,3,3,2,-1.24,0.9,0.19,-12.53,3.46,3.89
12.09451806545258,3,3,3,2,-1.09,-0.16,-0.34,-11.31,2.55,3.2
12.10451805591583,3,3,3,2,-0.37,-0.2,-1.34,-11.31,2.55,3.2
12.11451804637909,3,3,3,2,0.11,0.77,-1.25,-8.76,1.63,2.64
12.12451803684235,3,3,3,2,0.66,1.4,-1.14,-7.65,0.08,2.9
12.13551795482635,3,3,3,2,0.82,1.66,-1.08,-7.77,-0.71,3.66
12.14551794528961,3,3,3,2,0.51,1.48,-0.41,-7.38,-1.75,4.53
12.15551793575287,3,3,3,1,0.18,1.05,0.25,-7.38,-1.75,4.53
12.16551792621613,3,3,3,1,-0.27,0.91,1.04,-5.87,-3.29,4.95
12.17551791667938,3,3,3,1,-0.78,1.29,1.75,-2.96,-6.67,3.68
12.18551790714264,3,3,3,1,-4.03,20.01,3.83,7.45,-9.24,2.65
12.1955178976059,3,3,3,1,-7.49,30.48,11.05,-5.28,-8.76,0.76
12.20551788806915,3,3,3,1,-9.35,7.24,7.09,-5.28,-8.76,0.76
12.21551787853241,3,3,3,1,-10.69,-27.66,-3.75,-39.08,-2.96,-1.55
12.22551786899567,3,3,3,1,-31.23,9.66,-1.35,27.62,-6.61,-10.82
12.23551785945892,3,3,3,1,-34.12,16.9,2.17,16.41,4.75,3.1
12.24551808834076,3,3,3,1,-31.4,-2.71,-13.54,11.99,11.62,16.21
12.25551807880402,3,3,3,2,-23.05,8.17,-14.22,11.99,11.62,16.21
12.26551806926727,3,3,3,2,-39.31,39.23,26.75,52.09,8.68,14.63
12.27551805973053,3,3,3,2,-39.19,6.44,18.11,-57.63,5.29,32.97
12.28551805019379,3,3,3,2,-19.09,-9.41,10.13,-65.64,8.640000000000001,24.01
12.29551804065704,3,3,3,2,-3.05,-36.75,-5.64,-41.82,11.43,15.7
12.3055180311203,3,3,3,2,-7.61,-38.66,-3.58,-41.82,11.43,15.7
12.31551802158356,3,3,3,2,-11.36,-22.26,-1.75,27.86,8.300000000000001,6.67
12.32551801204681,3,3,3,2,-12.54,-11.07,-0.97,49.62,2.5,0.08
12.33551800251007,3,3,3,2,-12.21,-3.01,-1.29,33.58,-3.75,-5.11
12.34551799297333,3,3,3,2,-14.84,6.68,0.97,12.99,-5.98,-7.65
12.35551798343658,3,3,3,2,-17.23,5.73,4.41,12.99,-5.98,-7.65
12.36551797389984,3,3,3,2,-19.53,0.17,3.36,-10.25,-5.24,-6.81
12.3755179643631,3,3,3,2,-21.25,-4.42,-0.24,-24.22,-0.27,-0.47
12.38551795482635,3,3,3,2,-17.53,-4.56,-1.35,-16.13,0.38,-0.31
12.39551794528961,3,3,3,2,-12.65,-2.5,-0.32,-9.51,0.1,-1.92
12.40551793575287,3,3,3,2,-11.91,-1.04,0.55,-9.51,0.1,-1.92
12.41551792621613,3,3,3,2,-13.04,-1.24,0.72,-7.15,-0.4,-3.72
12.42551791667938,3,3,3,2,-13.41,-2.43,0.27,-2.01,-1.93,-6.3
12.43551790714264,3,3,3,2,-12.28,-3,0.14,0.5,-2.41,-7.04
12.4455178976059,3,3,3,2,-11.15,-3.66,0.42,2.64,-2.72,-7.21
12.45551788806915,3,3,3,2,-9.460000000000001,-3.51,0.88,2.64,-2.72,-7.21
12.46551787853241,3,3,3,2,-8.800000000000001,-3.18,1.01,3.77,-2.85,-6.61
12.47551786899567,3,3,3,2,-8.43,-2.55,1,3.57,-2.72,-5.8
12.48551785945892,3,3,3,2,-8.23,-2.03,0.7,3.16,-2.58,-6.24
12.49551808834076,3,3,3,2,-8.279999999999999,-0.27,0.52,2.47,-2.6,-6.86
12.50551807880402,3,3,3,2,-8.279999999999999,0.45,0.78,2.47,-2.6,-6.86
12.51551806926727,3,3,3,2,-8.390000000000001,0.68,0.85,0.76,-2.61,-7.45
12.52551805973053,3,3,3,2,-8.300000000000001,1.09,0.95,-3.88,-2.85,-8.130000000000001
12.53551805019379,3,3,3,2,-7.6,0.6,0.8,-4.96,-2.52,-8.220000000000001
12.54551804065704,3,3,3,2,-7.36,0.75,0.85,-5.36,-2.1,-8.18
12.5555180311203,3,3,3,2,-7.32,0.67,1.13,-5.36,-2.1,-8.18
12.56551802158356,3,3,3,2,-7.4,0.62,1.03,-5.57,-1.67,-7.98
12.57551801204681,3,3,3,2,-7.85,0.46,0.74,-5.01,-0.36,-7.41
12.58551800251007,3,3,3,2,-7.96,0.3,0.48,-4.5,0.2,-7.17
12.59551799297333,3,3,3,2,-8.09,0.16,0.04,-3.77,0.66,-6.78
12.60551798343658,3,3,3,2,-8.23,-0.05,-0.29,-3.77,0.66,-6.78
12.61551797389984,3,3,3,2,-7.83,-0.96,-0.6899999999999999,-2.56,1,-6.31
12.6255179643631,3,3,3,2,-7.62,-0.86,-0.97,1.36,1.24,-5.79
12.63551795482635,3,3,3,2,-7.84,-0.36,-1.22,2.51,1.23,-5.91
12.64551794528961,3,3,3,2,-8.26,0.09,-0.9,2.81,1.36,-6.13
12.65551793575287,3,3,3,2,-8.69,0.89,-0.96,2.81,1.36,-6.13
12.66551792621613,3,3,3,2,-8.92,1.31,-1.11,2.09,1.65,-6.22
12.67551791667938,3,3,3,2,-9.08,1.33,-1,-2.2,1.75,-6.37
12.68551790714264,3,3,3,2,-9.130000000000001,0.48,-0.59,-3.54,1.63,-6.64
12.6955178976059,3,3,3,2,-9.18,-1.11,-0.18,-3.43,1.41,-7.1
12.70551788806915,3,3,3,2,-9.869999999999999,-0.83,0.62,-3.43,1.41,-7.1
12.71551787853241,3,3,3,2,-11.34,-0.11,2.14,-1.83,0.83,-7.2
12.72551786899567,3,3,3,2,-12.81,0.44,3.53,-2.97,-2.1,-6.31
12.73551785945892,3,3,3,2,-12.73,-0.98,4.79,-4.05,-2.58,-5.67
12.74551808834076,3,3,3,2,-10.93,-1.07,4.23,-3.78,-2.19,-5.26
12.75551807880402,3,3,3,2,-9.48,-1.54,3.45,-3.78,-2.19,-5.26
12.76551806926727,3,3,3,2,-8.59,-1.78,2.77,-3.7,-1.2,-4.81
12.77551805973053,3,3,3,2,-8.44,-1.23,0.73,-3.13,-0.09,-4.31
12.78551805019379,3,3,3,2,-8.84,-0.79,-0.12,-4.31,-0.21,-4.02
12.79551804065704,3,3,3,2,-9.050000000000001,-1.21,0.01,-3.81,-0.27,-3.97
12.82551801204681,3,3,3,2,-9.35,0.67,0.66,-4.82,-1.24,-3.39
12.83551800251007,3,3,3,2,-9.49,2.17,1.14,-4.8,-1.34,-3.16
12.84551799297333,3,3,3,2,-9.49,2.37,1.27,-5.46,-1.35,-2.63
12.85551798343658,3,3,3,2,-9.49,2.37,1.27,-5.46,-1.35,-2.63
12.86551797389984,3,3,3,2,-9.6,2.05,1.47,-6.19,-1.31,-1.73
12.8755179643631,3,3,3,2,-10.19,0.6899999999999999,1.12,-6.15,-0.66,-0.03
12.88551795482635,3,3,3,2,-10.12,-0.24,1.02,-5.66,-0.32,0.57
12.89551794528961,3,3,3,2,-9.93,-0.93,0.84,-4.11,-0.01,0.85
12.90551793575287,3,3,3,2,-9.93,-0.93,0.84,-4.11,-0.01,0.85
12.91551792621613,3,3,3,2,-9.789999999999999,-1.65,0.79,-2.41,0.17,0.79
12.92551791667938,3,3,3,2,-9.550000000000001,-2.61,0.72,0.49,0.34,0.43
12.93551790714264,3,3,3,2,-9.43,-2.72,0.86,1.52,0.34,0.28
12.9455178976059,3,3,3,2,-9.52,-3,0.73,2.04,0.41,0.2
12.95551788806915,3,3,3,2,-9.52,-3,0.73,2.04,0.41,0.2
12.96551787853241,3,3,3,2,-9.52,-2.92,0.62,2.34,0.35,0.23
12.97551786899567,3,3,3,2,-9.390000000000001,-2.01,0.46,2.71,-0.1,0.27
12.98551785945892,3,3,3,2,-9.34,-1.42,0.45,2.28,-0.11,0.14
12.99551808834076,3,3,3,2,-9.4,-0.73,0.61,1.27,-0.04,0.09
13.00551807880402,3,3,3,2,-9.4,-0.73,0.61,1.27,-0.04,0.09
13.01551806926727,3,3,3,2,-9.460000000000001,-0.67,0.71,0.24,0.13,0
13.02551805973053,3,3,3,2,-9.65,-0.57,0.8,-1.73,0.28,0.06
13.03551805019379,3,3,3,2,-9.67,-0.79,0.9399999999999999,-2.62,0.22,0.06
13.04551804065704,3,3,3,2,-9.720000000000001,-1,0.93,-3.43,0.2,0.1
13.0555180311203,3,3,3,2,-9.720000000000001,-1,0.93,-3.43,0.2,0.1
13.06551802158356,3,3,3,2,-9.710000000000001,-1.09,0.89,-3.88,0.21,0.13
13.07551801204681,3,3,3,2,-9.67,-1.79,0.53,-3.96,0.12,0.15
13.08551800251007,3,3,3,2,-9.69,-2.09,0.5,-3.77,0.05,0.2
13.09551799297333,3,3,3,2,-9.66,-2.17,0.51,-3.04,0.02,0.23
13.10551798343658,3,3,3,2,-9.66,-2.17,0.51,-2.06,0.06,0.22
13.11551797389984,3,3,3,2,-9.65,-2.4,0.49,-1.05,0.16,0.19
13.1255179643631,3,3,3,2,-9.6,-2.57,0.28,-0.01,0.14,0.16
13.13551795482635,3,3,3,2,-9.59,-2.2,0.28,0.92,0.09,0.06
13.14551794528961,3,3,3,2,-9.56,-1.95,0.42,1.45,0.06,0
13.15651786327362,3,3,3,2,-9.56,-1.95,0.42,1.7,0.1,-0.08
13.16651809215546,3,3,3,2,-9.550000000000001,-1.59,0.5,1.44,0.14,-0.05
13.17651808261871,3,3,3,2,-9.6,-1.51,0.53,1.03,0.19,0.02
13.18651807308197,3,3,3,2,-9.6,-1.48,0.65,0.76,0.15,0.05
13.19651806354523,3,3,3,2,-9.640000000000001,-1.55,0.78,0.46,0.13,0.11
13.20651805400848,3,3,3,2,-9.58,-1.72,0.84,0.16,0.12,0.1
13.21651804447174,3,3,3,2,-9.58,-1.95,0.75,-0.09,0.1,0.14
13.226518034935,3,3,3,2,-9.550000000000001,-2.07,0.54,-0.27,0.09,0.14
13.23651802539825,3,3,3,2,-9.52,-1.99,0.6,-0.23,0.07000000000000001,0.11
13.24651801586151,3,3,3,2,-9.5,-2.01,0.51,-0.38,0.04,0.06
13.25651800632477,3,3,3,2,-9.5,-2.01,0.51,-0.6899999999999999,0.13,0.02
13.26651799678802,3,3,3,2,-9.52,-2.09,0.5,-0.7,0.18,-0.03
13.27651798725128,3,3,3,2,-9.51,-1.82,0.45,-0.62,0.14,-0.06
13.28651797771454,3,3,3,2,-9.57,-1.81,0.57,-0.53,0.15,-0.07000000000000001
13.2965179681778,3,3,3,2,-9.619999999999999,-1.76,0.6,-0.41,0.14,-0.05
13.30651795864105,3,3,3,2,-9.66,-1.69,0.65,-0.15,0.13,-0.05
13.31651794910431,3,3,3,2,-9.67,-1.75,0.59,0.05,0.12,-0.05
13.32651793956757,3,3,3,2,-9.66,-1.72,0.5,0.32,0.06,-0.08
13.33651793003082,3,3,3,2,-9.65,-1.67,0.55,0.64,0.07000000000000001,-0.13
13.34651792049408,3,3,3,2,-9.66,-1.69,0.55,0.72,0.1,-0.16
13.35651791095734,3,3,3,2,-9.66,-1.69,0.55,0.82,0.12,-0.22
13.36651790142059,3,3,3,2,-9.609999999999999,-1.64,0.57,0.92,0.19,-0.3
13.37651789188385,3,3,3,2,-9.630000000000001,-1.57,0.41,0.83,0.2,-0.3
13.38651788234711,3,3,3,2,-9.6,-1.65,0.59,0.52,0.24,-0.24
13.39651787281036,3,3,3,2,-9.56,-1.6,0.57,0.7,0.18,-0.25
13.40651786327362,3,3,3,2,-9.56,-1.6,0.57,0.41,0.18,-0.27
13.41651809215546,3,3,3,2,-9.57,-1.73,0.61,0.32,0.24,-0.27
13.42651808261871,3,3,3,2,-9.539999999999999,-1.77,0.45,0.32,0.19,-0.27
13.43651807308197,3,3,3,2,-9.57,-1.75,0.5,0.26,0.15,-0.36
13.44651806354523,3,3,3,2,-9.619999999999999,-1.81,0.5,0.04,0.15,-0.39
13.45651805400848,3,3,3,2,-9.619999999999999,-1.81,0.5,-0.05,0.11,-0.45
13.46651804447174,3,3,3,2,-9.609999999999999,-1.75,0.54,-0.13,0.11,-0.5
13.476518034935,3,3,3,2,-9.66,-1.9,0.38,-0.3,0.1,-0.5
13.48651802539825,3,3,3,2,-9.65,-1.95,0.49,-0.31,0.17,-0.51
13.49651801586151,3,3,3,2,-9.65,-1.89,0.53,-0.19,0.12,-0.5
13.50651800632477,3,3,3,2,-9.65,-1.89,0.53,-0.09,0.09,-0.52
13.51651799678802,3,3,3,2,-9.58,-1.96,0.57,-0.09,0.08,-0.52
13.52651798725128,3,3,3,2,-9.52,-1.98,0.42,0.16,0.08,-0.51
13.53651797771454,3,3,3,2,-9.59,-1.94,0.38,0.13,0.06,-0.5
13.5465179681778,3,3,3,2,-9.57,-2.02,0.5,0.05,0.02,-0.49
13.55651795864105,3,3,3,2,-9.57,-2.02,0.5,0.1,0.09,-0.48
13.57651793956757,3,3,3,2,-9.52,-2.07,0.42,0.28,0.21,-0.44
13.58651793003082,3,3,3,2,-9.529999999999999,-2.06,0.54,0.37,0.16,-0.42
13.59651792049408,3,3,3,2,-9.52,-1.94,0.57,0.54,0.16,-0.45
13.60651791095734,3,3,3,2,-9.58,-1.82,0.48,0.44,0.08,-0.48
13.61651790142059,3,3,3,2,-9.630000000000001,-2.06,0.57,0.02,0.09,-0.42
13.62651789188385,3,3,3,2,-9.65,-2.06,0.43,0.01,0.15,-0.48
13.63651788234711,3,3,3,2,-9.550000000000001,-2.01,0.48,0.05,0.14,-0.53
13.64651787281036,3,3,3,2,-9.5,-1.95,0.48,0.18,0.12,-0.5600000000000001
13.65651786327362,3,3,3,2,-9.48,-1.61,0.52,0.29,0.09,-0.6
13.66651809215546,3,3,3,2,-9.550000000000001,-1.71,0.41,0.06,0.07000000000000001,-0.57
13.67651808261871,3,3,3,2,-9.69,-2.1,0.48,-0.55,0.17,-0.52
13.68651807308197,3,3,3,2,-9.699999999999999,-2.09,0.49,-0.45,0.22,-0.49
13.69651806354523,3,3,3,2,-9.58,-2.14,0.49,-0.28,0.19,-0.48
13.70651805400848,3,3,3,2,-9.49,-2.13,0.47,0,0.08,-0.51
13.71651804447174,3,3,3,2,-9.43,-1.95,0.45,0.29,0.06,-0.58
13.726518034935,3,3,3,2,-9.460000000000001,-1.81,0.35,0.31,0.05,-0.58
13.73651802539825,3,3,3,2,-9.619999999999999,-2.11,0.46,0.06,0.01,-0.5600000000000001
13.74651801586151,3,3,3,2,-9.67,-2.09,0.5,0.1,0.02,-0.49
13.75651800632477,3,3,3,2,-9.640000000000001,-2.07,0.5,0.2,0.08,-0.53
13.76651799678802,3,3,3,2,-9.59,-2.18,0.48,0.25,0.05,-0.5600000000000001
13.77651798725128,3,3,3,2,-9.49,-2.07,0.44,0.45,0.06,-0.58
13.78651797771454,3,3,3,2,-9.449999999999999,-2.01,0.48,0.49,0.03,-0.55
13.7965179681778,3,3,3,2,-9.460000000000001,-1.91,0.5,0.46,-0.03,-0.48
13.80651795864105,3,3,3,2,-9.51,-1.84,0.57,0.3,-0.02,-0.47
13.81651794910431,3,3,3,2,-9.59,-1.96,0.47,0.05,-0.02,-0.37
13.82651793956757,3,3,3,2,-9.6,-2.03,0.44,-0.1,0.05,-0.35
13.83651793003082,3,3,3,2,-9.57,-2.02,0.44,-0.04,0.07000000000000001,-0.31
13.84651792049408,3,3,3,2,-9.550000000000001,-2.08,0.49,-0.04,0.03,-0.31
13.85651791095734,3,3,3,2,-9.529999999999999,-2.16,0.55,0.03,0.02,-0.35
13.86651790142059,3,3,3,2,-9.52,-2.19,0.55,0.1,0.03,-0.37
13.87651789188385,3,3,3,2,-9.51,-2.18,0.42,0.11,0.1,-0.35
13.88651788234711,3,3,3,2,-9.529999999999999,-2.29,0.44,0.15,0.12,-0.36
13.89651787281036,3,3,3,2,-9.550000000000001,-2.18,0.48,0.22,0.05,-0.31
13.90651786327362,3,3,3,2,-9.539999999999999,-2.19,0.53,0.19,0.06,-0.33
13.91651809215546,3,3,3,2,-9.529999999999999,-2.19,0.53,0.3,0.04,-0.31
13.92651808261871,3,3,3,2,-9.51,-2.16,0.42,0.3,0.03,-0.31
13.93651807308197,3,3,3,2,-9.539999999999999,-2.06,0.43,0.32,0.01,-0.32
13.94651806354523,3,3,3,2,-9.56,-2.12,0.51,0.17,0.03,-0.28
13.95651805400848,3,3,3,2,-9.529999999999999,-2.06,0.51,0.17,0.02,-0.28
13.96651804447174,3,3,3,2,-9.51,-2.04,0.5,0.11,0.02,-0.24
13.976518034935,3,3,3,2,-9.539999999999999,-2.21,0.45,-0.07000000000000001,0.03,-0.21
13.98651802539825,3,3,3,2,-9.550000000000001,-2.16,0.42,0.01,0.04,-0.22
13.99651801586151,3,3,3,2,-9.539999999999999,-2.14,0.49,0.01,0.01,-0.21
14.00651800632477,3,3,3,2,-9.539999999999999,-2.23,0.51,-0.13,-0.01,-0.23
14.01651799678802,3,3,3,2,-9.52,-2.2,0.49,-0.11,0.06,-0.23
14.02651798725128,3,3,3,2,-9.539999999999999,-2.17,0.39,-0.03,0.05,-0.22
14.03651797771454,3,3,3,2,-9.529999999999999,-2.14,0.44,0,0.04,-0.2
14.0465179681778,3,3,3,2,-9.52,-2.14,0.5,0.07000000000000001,-0.04,-0.2
14.05651795864105,3,3,3,2,-9.550000000000001,-2.14,0.51,0.09,-0.01,-0.18
14.06651794910431,3,3,3,2,-9.550000000000001,-2.12,0.49,0.1,-0.03,-0.19
14.07651793956757,3,3,3,2,-9.529999999999999,-2.14,0.38,0.07000000000000001,-0.02,-0.17
14.08651793003082,3,3,3,2,-9.529999999999999,-2.14,0.45,0.18,-0.01,-0.14
14.09651792049408,3,3,3,2,-9.51,-2.11,0.48,0.27,-0.01,-0.17
14.10651791095734,3,3,3,2,-9.48,-2.09,0.51,0.31,-0.05,-0.17
14.11651790142059,3,3,3,2,-9.52,-2.11,0.54,0.27,-0.01,-0.18
14.12651789188385,3,3,3,2,-9.550000000000001,-2.03,0.44,0.26,-0.02,-0.17
14.13651788234711,3,3,3,2,-9.550000000000001,-1.99,0.46,0.21,-0.06,-0.16
14.14651787281036,3,3,3,2,-9.57,-1.99,0.48,0.09,-0.07000000000000001,-0.12
14.15651786327362,3,3,3,2,-9.550000000000001,-2.11,0.55,-0.01,-0.04,-0.14
14.16651809215546,3,3,3,2,-9.550000000000001,-2.13,0.45,-0.01,-0.03,-0.15
14.17651808261871,3,3,3,2,-9.550000000000001,-2.15,0.43,0.01,-0.04,-0.14
14.18751800060272,3,3,3,2,-9.550000000000001,-2.15,0.46,0.03,-0.1,-0.16
14.19751799106598,3,3,3,2,-9.550000000000001,-2.14,0.48,0.02,-0.05,-0.15
14.20751798152924,3,3,3,2,-9.56,-2.14,0.51,-0.02,-0.08,-0.15
14.21751797199249,3,3,3,2,-9.5,-2.16,0.5600000000000001,0.01,-0.07000000000000001,-0.12
14.22751796245575,3,3,3,2,-9.5,-2.19,0.43,0.08,-0.08,-0.16
14.23751795291901,3,3,3,2,-9.49,-2.17,0.41,0.14,-0.1,-0.13
14.24751794338226,3,3,3,2,-9.51,-2.23,0.53,0.15,-0.08,-0.15
14.25751793384552,3,3,3,2,-9.550000000000001,-2.19,0.53,0.17,-0.13,-0.17
14.26751792430878,3,3,3,2,-9.550000000000001,-2.14,0.51,0.25,-0.13,-0.16
14.27751791477203,3,3,3,2,-9.56,-2.16,0.48,0.18,-0.12,-0.16
14.32751786708832,3,3,3,2,-9.49,-2.14,0.38,-0.02,-0.15,-0.15
14.35751807689667,3,3,3,2,-9.529999999999999,-2.14,0.5600000000000001,0,-0.09,-0.16
14.36751806735992,3,3,3,2,-9.529999999999999,-2.14,0.53,-0.04,-0.1,-0.15
14.37751805782318,3,3,3,2,-9.52,-2.12,0.49,-0.06,-0.08,-0.14
14.38751804828644,3,3,3,2,-9.52,-2.07,0.55,0.03,-0.09,-0.12
14.39751803874969,3,3,3,2,-9.539999999999999,-2.09,0.52,0,-0.11,-0.1
14.40751802921295,3,3,3,2,-9.58,-2.22,0.6,-0.16,-0.09,-0.08
14.41751801967621,3,3,3,2,-9.56,-2.25,0.55,-0.05,-0.06,-0.06
14.42751801013947,3,3,3,2,-9.59,-2.25,0.48,0.11,-0.09,-0.1
14.43751800060272,3,3,3,2,-9.470000000000001,-2.17,0.51,0.24,-0.13,-0.15
14.44751799106598,3,3,3,2,-9.49,-2.09,0.5,0.15,-0.12,-0.13
14.45751798152924,3,3,3,2,-9.550000000000001,-2.24,0.61,-0.08,-0.09,-0.11
14.46751797199249,3,3,3,2,-9.58,-2.19,0.6,0.05,-0.04,-0.14
14.47751796245575,3,3,3,2,-9.539999999999999,-2.21,0.5,0.1,-0.04,-0.08
14.48751795291901,3,3,3,2,-9.470000000000001,-2.14,0.53,0.21,-0.11,-0.13
14.49751794338226,3,3,3,2,-9.44,-2.03,0.49,0.23,-0.16,-0.16
14.50751793384552,3,3,3,2,-9.460000000000001,-2.05,0.5600000000000001,-0.03,-0.15,-0.11
14.51751792430878,3,3,3,2,-9.56,-2.13,0.55,-0.03,-0.09,-0.1
14.52751791477203,3,3,3,2,-9.57,-2.18,0.5,-0.05,-0.09,-0.1
14.53751790523529,3,3,3,2,-9.56,-2.19,0.55,0.03,-0.14,-0.13
14.54751789569855,3,3,3,2,-9.52,-2.15,0.61,0.13,-0.19,-0.17
14.5575178861618,3,3,3,2,-9.48,-2.03,0.62,-0.02,-0.17,-0.15
14.56751787662506,3,3,3,2,-9.48,-2.1,0.62,-0.19,-0.1,-0.05
14.57751786708832,3,3,3,2,-9.52,-2.09,0.49,-0.13,-0.06,-0.05
14.58751785755157,3,3,3,2,-9.550000000000001,-2.12,0.5600000000000001,-0.07000000000000001,-0.11,-0.05
14.59751808643341,3,3,3,2,-9.56,-2.12,0.54,-0.14,-0.09,-0.06
14.60751807689667,3,3,3,2,-9.56,-2.16,0.6,-0.19,-0.05,-0.04
14.61751806735992,3,3,3,2,-9.539999999999999,-2.17,0.6,-0.2,-0.03,0.02
14.62751805782318,3,3,3,2,-9.51,-2.23,0.5600000000000001,-0.1,-0.01,0.03
14.63751804828644,3,3,3,2,-9.49,-2.25,0.58,-0.07000000000000001,0,0.06
14.64751803874969,3,3,3,2,-9.44,-2.18,0.59,0.02,-0.05,0.03
14.65751802921295,3,3,3,2,-9.449999999999999,-2.14,0.58,0,-0.06,-0.01
14.66751801967621,3,3,3,2,-9.49,-2.12,0.59,-0.08,-0.06,-0.04
14.67751801013947,3,3,3,2,-9.550000000000001,-2.08,0.49,-0.17,0,0.01
14.68751800060272,3,3,3,2,-9.550000000000001,-2.05,0.5,-0.24,-0.01,0.04
14.69751799106598,3,3,3,2,-9.550000000000001,-2.05,0.6,-0.4,0.01,0.04
14.70751798152924,3,3,3,2,-9.550000000000001,-2.17,0.67,-0.43,0.07000000000000001,0.04
14.71751797199249,3,3,3,2,-9.57,-2.28,0.62,-0.45,0.07000000000000001,0.06
14.72751796245575,3,3,3,2,-9.52,-2.23,0.53,-0.32,0.02,0.05
14.73751795291901,3,3,3,2,-9.5,-2.16,0.53,-0.26,-0.06,0.04
14.74751794338226,3,3,3,2,-9.52,-2.12,0.57,-0.3,-0.04,0.06
14.75751793384552,3,3,3,2,-9.5,-2.18,0.59,-0.28,0.02,0.07000000000000001
14.76751792430878,3,3,3,2,-9.529999999999999,-2.19,0.5600000000000001,-0.16,0.05,0.06
14.77751791477203,3,3,3,2,-9.539999999999999,-2.16,0.5,-0.13,0.01,0.05
14.78751790523529,3,3,3,2,-9.51,-2.28,0.57,-0.12,0,0.07000000000000001
14.79751789569855,3,3,3,2,-9.52,-2.28,0.59,0.01,0.03,0.04
14.8075178861618,3,3,3,2,-9.51,-2.28,0.62,0.1,0.06,0.05
14.81751787662506,3,3,3,2,-9.529999999999999,-2.22,0.61,0.21,0,0.04
14.82751786708832,3,3,3,2,-9.5,-2.15,0.52,0.22,0.04,0.04
14.83751785755157,3,3,3,2,-9.51,-2.07,0.53,0.22,0.04,0.04
14.84751808643341,3,3,3,2,-9.539999999999999,-2.01,0.58,0.2,0.08,0.04
14.85751807689667,3,3,3,2,-9.51,-2.07,0.63,0.08,0.06,0.07000000000000001
14.86751806735992,3,3,3,2,-9.550000000000001,-2.06,0.53,0.1,0.06,0.08
14.89751803874969,3,3,3,2,-9.58,-2.08,0.63,-0.16,0.2,0.16
14.90751802921295,3,3,3,2,-9.57,-1.99,0.68,-0.26,0.21,0.26
14.91751801967621,3,3,3,2,-9.56,-1.84,0.63,-0.3,0.27,0.32
14.92751801013947,3,3,3,2,-9.550000000000001,-1.69,0.55,-0.34,0.32,0.42
14.93751800060272,3,3,3,2,-9.539999999999999,-1.46,0.5600000000000001,-0.32,0.41,0.59
14.94751799106598,3,3,3,2,-9.52,-0.84,0.71,-0.28,0.47,0.82
14.95751798152924,3,3,3,2,-9.49,-0.66,0.78,-0.33,0.54,0.98
14.96751797199249,3,3,3,2,-9.51,-0.73,0.84,-0.52,0.66,1.19
14.97751796245575,3,3,3,2,-9.609999999999999,-1.04,0.72,-0.62,0.8100000000000001,1.42
14.98751795291901,3,3,3,2,-9.82,-1.61,0.76,-0.46,0.9,1.61
14.99751794338226,3,3,3,2,-9.77,-1.68,0.79,0.04,0.98,1.72
15.00751793384552,3,3,3,2,-9.640000000000001,-1.77,0.68,0.35,1.04,1.73
15.01751792430878,3,3,3,2,-9.539999999999999,-1.98,0.67,0.5,1.06,1.64
15.02751791477203,3,3,3,2,-9.380000000000001,-2.15,0.57,0.8,1.05,1.49
15.03751790523529,3,3,3,2,-9.4,-2.34,0.68,0.86,1.04,1.32
15.04751789569855,3,3,3,2,-9.41,-2.47,0.74,0.96,0.95,1.16
15.0575178861618,3,3,3,2,-9.44,-2.45,0.79,1.13,0.93,0.95
15.06751787662506,3,3,3,2,-9.51,-2.3,0.74,1.23,0.9,0.73
15.07751786708832,3,3,3,2,-9.44,-2.4,0.55,1.07,0.84,0.45
15.08751785755157,3,3,3,2,-9.48,-2.71,0.5600000000000001,0.84,0.89,0.15
15.09751808643341,3,3,3,2,-9.6,-2.76,0.72,0.92,0.75,-0.16
15.10751807689667,3,3,3,2,-9.58,-2.38,0.86,0.61,0.65,-0.28
15.11751806735992,3,3,3,2,-9.6,-2.27,0.8100000000000001,-0.08,0.7,-0.41
15.12751805782318,3,3,3,2,-9.550000000000001,-2.26,0.62,-0.8100000000000001,0.84,-0.54
15.13751804828644,3,3,3,2,-9.49,-2.16,0.59,-1.39,1.02,-0.63
15.14751803874969,3,3,3,2,-9.460000000000001,-2.21,0.78,-1.64,1.06,-0.8
15.15751802921295,3,3,3,2,-9.43,-1.95,0.79,-1.64,1.07,-0.89
15.16751801967621,3,3,3,2,-9.44,-1.71,0.76,-1.88,1.01,-0.89
15.17751801013947,3,3,3,2,-9.470000000000001,-1.6,0.65,-2.08,1.05,-0.83
15.18751800060272,3,3,3,2,-9.56,-1.57,0.6,-2.37,1.12,-0.75
15.19751799106598,3,3,3,2,-9.52,-1.56,0.63,-2.33,1.2,-0.63
15.20851790904999,3,3,3,2,-9.5,-1.48,0.58,-2.24,1.27,-0.5600000000000001
15.21851789951324,3,3,3,2,-9.51,-1.64,0.52,-2.19,1.36,-0.51
15.2285178899765,3,3,3,2,-9.550000000000001,-1.95,0.47,-2.12,1.39,-0.55
15.23851788043976,3,3,3,2,-9.57,-2.03,0.57,-1.84,1.36,-0.63
15.24851787090302,3,3,3,2,-9.57,-1.99,0.63,-1.66,1.27,-0.66
15.25851786136627,3,3,3,2,-9.539999999999999,-2.12,0.59,-1.8,1.17,-0.7
15.26851809024811,3,3,3,2,-9.5,-2.02,0.55,-1.82,1.16,-0.8
15.27851808071136,3,3,3,2,-9.449999999999999,-1.96,0.45,-2.04,1.09,-0.86
15.28851807117462,3,3,3,2,-9.44,-1.93,0.43,-2.44,1.1,-0.87
15.29851806163788,3,3,3,2,-9.529999999999999,-2.15,0.58,-2.84,1.07,-0.91
15.30851805210114,3,3,3,2,-9.49,-2.11,0.6,-3.28,0.86,-1.01
15.31851804256439,3,3,3,2,-9.44,-1.9,0.52,-3.81,0.75,-1.09
15.32851803302765,3,3,3,2,-9.44,-1.69,0.33,-4.61,0.77,-1.13
15.33851802349091,3,3,3,2,-9.48,-1.99,0.3,-5.49,0.8100000000000001,-1.14
15.34851801395416,3,3,3,2,-9.539999999999999,-2.39,0.27,-6.28,0.82,-1.17
15.35851800441742,3,3,3,2,-9.5,-2.56,0.16,-6.56,0.9,-1.24
15.36851799488068,3,3,3,2,-9.48,-2.57,0.31,-6.56,0.9,-1.24
15.37851798534393,3,3,3,2,-9.32,-2.89,0.07000000000000001,-6.45,0.9399999999999999,-1.35
15.38851797580719,3,3,3,2,-9.289999999999999,-3.04,0.12,-5.99,0.97,-1.64
15.39851796627045,3,3,3,2,-9.26,-3.13,0.15,-5.56,0.88,-1.76
15.4085179567337,3,3,3,2,-9.26,-3.12,0.05,-5.13,0.7,-1.91
15.41851794719696,3,3,3,2,-9.369999999999999,-2.78,-0.27,-5.13,0.7,-1.91
15.42851793766022,3,3,3,2,-9.44,-2.91,-0.36,-4.89,0.64,-1.94
15.43851792812347,3,3,3,2,-9.42,-2.78,-0.52,-4.62,0.54,-2.02
15.44851791858673,3,3,3,2,-9.449999999999999,-2.38,-0.71,-4.17,0.51,-2.14
15.45851790904999,3,3,3,2,-9.59,-2.05,-0.8100000000000001,-3.61,0.72,-2.1
15.46851789951324,3,3,3,2,-9.609999999999999,-1.82,-0.95,-3.61,0.72,-2.1
15.4785178899765,3,3,3,2,-9.68,-1.51,-1.05,-3.27,0.79,-1.98
15.48851788043976,3,3,3,2,-9.65,-1.39,-1.04,-2.84,0.85,-1.88
15.49851787090302,3,3,3,2,-9.699999999999999,-1.23,-1.26,-2.5,0.93,-1.8
15.50851786136627,3,3,3,2,-9.73,-1.16,-1.12,-2,0.97,-1.75
15.51851809024811,3,3,3,2,-9.68,-1.46,-0.87,-1.43,0.98,-1.7
15.52851808071136,3,3,3,2,-9.619999999999999,-1.71,-0.87,-0.9,0.9399999999999999,-1.72
15.53851807117462,3,3,3,2,-9.41,-1.68,-0.73,-0.5600000000000001,0.85,-1.83
15.54851806163788,3,3,3,2,-9.69,-2,-0.52,-0.28,0.8,-1.93
15.55851805210114,3,3,3,2,-9.68,-2.13,-0.65,-0.13,0.98,-1.96
15.56851804256439,3,3,3,2,-9.67,-2.18,-0.67,0.23,0.89,-2.08
15.57851803302765,3,3,3,2,-9.539999999999999,-2.35,-0.92,0.73,0.92,-2.15
15.58851802349091,3,3,3,2,-9.550000000000001,-2.45,-1.13,1.22,0.95,-2.23
15.59851801395416,3,3,3,2,-9.58,-2.39,-1.19,1.85,1,-2.33
15.60851800441742,3,3,3,2,-9.5,-2.1,-0.98,2.77,0.96,-2.53
15.61851799488068,3,3,3,2,-9.48,-2.03,-0.83,3.55,0.91,-2.62
15.62851798534393,3,3,3,2,-9.49,-2.2,-0.8,3.93,0.9,-2.8
15.63851797580719,3,3,3,2,-9.5,-2.14,-0.8,3.99,0.86,-2.98
15.64851796627045,3,3,3,2,-9.460000000000001,-1.89,-0.71,4.08,0.73,-3.2
15.6585179567337,3,3,3,2,-9.470000000000001,-2,-0.8,3.84,0.63,-3.39
15.66851794719696,3,3,3,2,-9.5,-2.26,-0.73,3.12,0.65,-3.51
15.67851793766022,3,3,3,2,-9.630000000000001,-2.38,-0.79,2.32,0.84,-3.18
15.68851792812347,3,3,3,2,-9.390000000000001,-2.4,-0.74,1.85,0.98,-2.78
15.69851791858673,3,3,3,2,-9.27,-2.48,-0.7,1.54,0.86,-2.7
15.70851790904999,3,3,3,2,-9.210000000000001,-2.59,-0.7,1.2,0.78,-2.86
15.71851789951324,3,3,3,2,-9.199999999999999,-2.75,-0.68,0.8100000000000001,0.68,-3.13
15.7285178899765,3,3,3,2,-9.32,-2.91,-0.95,0.45,0.6,-3.29
15.73851788043976,3,3,3,2,-9.359999999999999,-2.9,-0.85,0.28,0.5600000000000001,-3.51
15.74851787090302,3,3,3,2,-9.35,-2.84,-0.72,0.52,0.57,-3.68
15.75851786136627,3,3,3,2,-9.32,-2.74,-0.63,0.9399999999999999,0.59,-3.91
15.76851809024811,3,3,3,2,-9.27,-2.65,-0.63,1.24,0.53,-4.09
15.77851808071136,3,3,3,2,-9.32,-2.67,-0.66,1.57,0.53,-4.26
15.78851807117462,3,3,3,2,-9.380000000000001,-2.63,-0.58,1.87,0.5600000000000001,-4.39
15.79851806163788,3,3,3,2,-9.4,-2.6,-0.49,2.31,0.64,-4.43
15.80851805210114,3,3,3,2,-9.390000000000001,-2.55,-0.29,2.76,0.74,-4.51
15.81851804256439,3,3,3,2,-9.380000000000001,-2.48,-0.35,3.1,0.77,-4.56
15.82851803302765,3,3,3,2,-9.33,-2.38,-0.4,3.41,0.76,-4.58
15.85851800441742,3,3,3,2,-9.25,-2.77,-0.32,3.88,0.96,-4.71
15.86851799488068,3,3,3,2,-9.32,-2.86,-0.29,3.98,1.02,-4.84
15.87851798534393,3,3,3,2,-9.33,-2.93,-0.41,4.2,1.02,-5
15.88851797580719,3,3,3,2,-9.300000000000001,-2.87,-0.38,4.32,0.9399999999999999,-5.17
15.89851796627045,3,3,3,2,-9.220000000000001,-2.71,-0.36,4.5,0.93,-5.33
15.9085179567337,3,3,3,2,-9.17,-2.57,-0.39,4.61,0.85,-5.4
15.91851794719696,3,3,3,2,-9.18,-2.45,-0.39,4.57,0.82,-5.41
15.92851793766022,3,3,3,2,-9.16,-2.44,-0.63,4.4,0.82,-5.4
15.93851792812347,3,3,3,2,-9.15,-2.54,-0.58,4.11,0.75,-5.36
15.94851791858673,3,3,3,2,-9.15,-2.79,-0.66,3.91,0.72,-5.35
15.95851790904999,3,3,3,1,-9.26,-2.96,-0.61,3.8,0.68,-5.44
15.96851789951324,3,3,3,1,-9.48,-2.95,-0.4,3.98,0.5600000000000001,-5.64
15.9785178899765,3,3,3,1,-9.49,-3.01,-0.6,4.14,0.4,-5.85
15.98851788043976,3,3,3,1,-9.470000000000001,-3.01,-0.77,4.15,0.28,-5.99
15.99851787090302,3,3,3,1,-9.710000000000001,-2.9,-0.71,4.37,0.3,-6.02
16.00851786136627,3,3,3,0,-9.699999999999999,-2.95,-0.82,4.86,0.25,-6.1
16.01851809024811,3,3,3,0,-9.880000000000001,-2.98,-0.74,5.13,0.3,-6.17
16.02851808071136,3,3,3,0,-9.99,-2.72,-0.74,5.83,0.38,-6.22
16.03851807117462,3,3,3,0,-10.43,-2.62,-0.87,6.61,0.41,-6.21
16.04851806163788,3,3,3,0,-10.65,-2.47,-0.83,6.97,0.33,-6.22
16.05851805210114,3,3,3,0,-10.92,-2.29,-0.59,7.24,0.18,-6.27
16.06851804256439,3,3,3,0,-11.25,-2.12,-0.31,7.43,0.19,-6.36
16.07851803302765,3,3,3,0,-11.69,-1.92,-0.04,7.4,0.13,-6.47
16.08851802349091,3,3,3,0,-11.76,-1.9,0.37,7.17,-0.14,-6.41
16.09851801395416,3,3,3,0,-11.79,-1.82,0.76,6.72,-0.4,-6.11
16.10851800441742,3,3,3,0,-11.8,-1.59,0.89,6.3,-0.67,-5.61
16.11851799488068,3,3,3,0,-11.62,-1.5,1.2,5.93,-0.78,-4.81
16.12851798534393,3,3,3,0,-11.5,-1.58,1.2,5.63,-0.77,-3.8
16.13851797580719,3,3,3,0,-11.42,-1.48,1.24,5.72,-0.68,-2.69
16.14851796627045,3,3,3,0,-11.42,-1.31,1.27,6.11,-0.51,-1.57
16.15951788425446,3,3,3,0,-11.33,-1.38,0.8100000000000001,6.6,-0.28,-0.47
16.16851794719696,3,3,3,0,-11.45,-0.76,0.9399999999999999,7.02,0,0.61
16.20851790904999,3,3,3,0,-11.17,0.31,3.57,9.789999999999999,0.71,5.42
16.21951806545258,3,3,3,0,-10.6,0.51,3.54,9.35,0.23,6.94
16.22951805591583,3,3,3,0,-10.01,0.29,2.62,8.68,-0.66,8.33
16.23951804637909,3,3,3,0,-8.880000000000001,0.48,1.57,9.17,-1.3,9.300000000000001
16.24951803684235,3,3,3,0,-8.98,0.92,1.29,11.01,-1.46,10.47
16.2595180273056,3,3,3,0,-9.5,0.6,1.16,12.29,-1.82,11.91
16.26951801776886,3,3,3,0,-10.1,0.13,0.86,12,-2.19,13.11
16.27951800823212,3,3,3,0,-10.57,-1.13,0.32,11.56,-2.52,13.77
16.28951799869537,3,3,3,0,-10.4,-1.76,0.12,11.63,-2.27,13.79
16.29951798915863,3,3,3,0,-10.36,-2.36,0.07000000000000001,11.63,-1.25,13.66
16.30951797962189,3,3,3,0,-10.29,-2.99,0.3,10.55,0.35,13.39
16.31951797008514,3,3,3,0,-10.42,-3.78,0.75,8.449999999999999,1.84,13.18
16.3295179605484,3,3,3,0,-10.37,-4.53,0.5600000000000001,6.58,2.84,13.09
16.33951795101166,3,3,3,0,-10.28,-4.76,0.27,5.5,3.37,12.87
16.34951794147491,3,3,3,0,-10.17,-5.1,0.13,5.49,3.84,12.71
16.35951793193817,3,3,3,0,-9.66,-5.62,-0.13,5.05,4.07,12.72
16.36951792240143,3,3,3,0,-9.26,-5.22,-0.64,4.67,4.1,12.75
16.37951791286469,3,3,3,0,-9.119999999999999,-4.74,-0.95,4.9,4.4,13.1
16.38951790332794,3,3,3,0,-9.130000000000001,-4.3,-0.92,4.26,4.7,13.84
16.3995178937912,3,3,3,0,-9.07,-2.95,-0.9,2.87,4.68,14.59
16.40951788425446,3,3,3,0,-9.09,-2.82,-0.78,0.46,4.84,15.22
16.41951787471771,3,3,3,0,-9.039999999999999,-3,-0.97,-2.83,4.94,15.82
16.42951786518097,3,3,3,0,-9.15,-3.15,-1.65,-5.33,4.94,16.21
16.43951809406281,3,3,3,0,-9.34,-3.15,-1.52,-6.74,5.15,16.27
16.44951808452606,3,3,3,0,-9.640000000000001,-2.96,-1.3,-8.32,5.32,16.06
16.45951807498932,3,3,3,0,-9.75,-2.79,-1.17,-9.99,5.31,15.98
16.46951806545258,3,3,3,0,-9.859999999999999,-2.66,-0.91,-11.66,5.16,16.18
16.47951805591583,3,3,3,0,-9.84,-2.62,-0.85,-13.61,4.98,16.66
16.48951804637909,3,3,3,0,-9.85,-2.65,-0.6,-15.18,4.52,17.39
16.49951803684235,3,3,3,0,-9.880000000000001,-2.88,-0.25,-16.65,4.18,18.09
16.5095180273056,3,3,3,0,-9.779999999999999,-3.36,0.01,-18.15,3.76,18.54
16.51951801776886,3,3,3,0,-9.630000000000001,-3.92,-0.04,-19.3,3.23,18.56
16.52951800823212,3,3,3,0,-9.289999999999999,-3.81,-0.26,-19.93,2.27,18.39
16.53951799869537,3,3,3,0,-9.369999999999999,-4.08,0.08,-19.28,2.81,18.1
16.54951798915863,3,3,3,0,-8.970000000000001,-4.35,0.2,-18.27,2.37,17.8
16.55951797962189,3,3,3,0,-8.92,-4.47,0.2,-17.11,1.66,17.35
16.56951797008514,3,3,3,0,-8.880000000000001,-4.43,0.32,-15.64,0.91,16.61
16.5795179605484,3,3,3,0,-8.890000000000001,-4.33,0.47,-14.65,0.51,15.73
16.58951795101166,3,3,3,0,-8.800000000000001,-3.6,1.09,-13.84,0.51,14.77
16.59951794147491,3,3,3,0,-8.75,-3.21,1.28,-12.62,0.67,13.98
16.60951793193817,3,3,3,0,-8.640000000000001,-2.83,1.46,-11.55,0.8100000000000001,13.36
16.61951792240143,3,3,3,0,-8.58,-2.57,1.57,-10.75,0.77,12.88
16.62951791286469,3,3,3,0,-8.31,-2.25,1.56,-10.1,0.48,12.33
16.63951790332794,3,3,3,0,-8.23,-2.29,1.62,-9.44,0.21,11.74
16.6495178937912,3,3,3,0,-8.09,-2.38,1.52,-9,-0.1,10.98
16.65951788425446,3,3,3,1,-7.97,-2.51,1.36,-7.91,-0.13,9.94
16.66951787471771,3,3,3,1,-7.81,-2.42,0.92,-6.36,0.06,8.470000000000001
16.67951786518097,3,3,3,1,-7.84,-2.49,0.63,-5.03,0.49,6.85
16.68951809406281,3,3,3,1,-7.98,-2.38,0.39,-3.48,1.02,5.07
16.69951808452606,3,3,3,1,-8.130000000000001,-2.12,0.22,-2.08,1.45,3.15
16.70951807498932,3,3,3,2,-8.470000000000001,-0.9399999999999999,0.26,-0.87,1.27,1.55
16.71951806545258,3,3,3,2,-8.42,0.51,0.12,-0.02,0.28,0.78
16.72951805591583,3,3,3,2,-8.289999999999999,2.19,0.03,0.11,-0.75,0.72
16.73951804637909,3,3,3,2,-8.369999999999999,3.62,0.13,-1.38,-0.79,1.19
16.74951803684235,3,3,3,2,-9.710000000000001,5.48,1.35,-3.52,0.08,1.7
16.7595180273056,3,3,3,2,-9.99,5.88,1.65,-6,0.09,2.5
16.76951801776886,3,3,3,2,-10.12,6.11,1.84,-8.06,-0.47,2.99
16.77951800823212,3,3,3,2,-10.22,6.57,1.73,-9.789999999999999,-0.86,3.32
16.78951799869537,3,3,3,2,-10.45,8.140000000000001,1.67,-10.44,-0.79,3.78
16.79951798915863,3,3,3,2,-10.56,8.640000000000001,1.44,-10.65,-0.39,4.26
16.80951797962189,3,3,3,2,-10.38,8.92,0.97,-10.77,-0.18,4.59
16.81951797008514,3,3,3,2,-10.09,8.49,0.44,-10.87,0.01,4.7
16.8295179605484,3,3,3,2,-10.23,6.36,0.19,-10.7,0.39,4.54
16.83951795101166,3,3,3,2,-10,5,0.49,-10.56,0.48,4.34
16.84951794147491,3,3,3,2,-9.65,3.63,0.83,-10.51,0.67,4.35
16.85951793193817,3,3,3,2,-9.26,1.18,0.31,-10.38,1.48,4.24
16.86951792240143,3,3,3,2,-9.42,0.8100000000000001,0.16,-8.890000000000001,2.59,3.84
16.87951791286469,3,3,3,2,-9.630000000000001,0.01,-0.41,-7.32,3.57,3.2
16.88951790332794,3,3,3,2,-10.05,-0.87,-1.32,-7.17,3.95,2.55
16.8995178937912,3,3,3,2,-14.21,-1.55,5.13,-9.130000000000001,4.51,0.93
16.90951788425446,3,3,3,2,-12.38,-0.54,7.48,-12.14,-0.59,-1.37
16.91951787471771,3,3,3,2,-10.83,4.56,6.43,-8.99,-7.01,-3.97
16.92951786518097,3,3,3,2,-11.35,6.01,4.66,-5.8,-4.9,-4.58
16.93951809406281,3,3,3,2,-11.02,3.5,1.04,-4.67,-0.6899999999999999,-3.6
16.94951808452606,3,3,3,2,-10.84,0.15,1.34,-6.96,0.8100000000000001,-3.71
16.95951807498932,3,3,3,2,-10.33,-4.05,0.8,-8.24,1.87,-4.3
16.96951806545258,3,3,3,2,-9.890000000000001,-6.99,-0.97,-8.06,3.92,-5.26
16.97951805591583,3,3,3,2,-9.17,-8.07,-5.29,-6.32,5.64,-6.4
16.98951804637909,3,3,3,2,-9.960000000000001,-5.02,-4.36,-3.97,5.98,-7.96
16.99951803684235,3,3,3,2,-11.04,-3.06,-1.34,0.64,5.14,-10.6
17.0095180273056,3,3,3,2,-11.44,-4.34,0.1,3,4.5,-12.84
17.01951801776886,3,3,3,2,-10.44,-5.12,-1.52,1.93,4.99,-13.93
17.02951800823212,3,3,3,2,-9.69,-4.59,-0.79,2.1,4.85,-14.33
17.03951799869537,3,3,3,2,-9.34,-4.12,-0.47,4.24,4.19,-14.21
17.04951798915863,3,3,3,2,-9.44,-3.36,-0.7,5.93,3.97,-13.88
17.05951797962189,3,3,3,1,-9.859999999999999,-0.7,0.24,6.22,3.88,-13.52
17.06951797008514,3,3,3,1,-9.9,0.02,0.64,5.13,3.83,-13.15
17.0795179605484,3,3,3,1,-9.91,0.71,0.52,3.31,4.09,-13.04
17.08951795101166,3,3,3,1,-9.699999999999999,0.84,0.16,1.19,4.23,-13.04
17.09951794147491,3,3,3,1,-9.6,-0.76,-0.9,-0.84,4.3,-12.94
17.10951793193817,3,3,3,1,-9.67,-1.51,-1.24,-1.66,4.31,-12.88
17.11951792240143,3,3,3,1,-9.59,-1.56,-1.54,-0.9399999999999999,4.26,-12.99
17.12951791286469,3,3,3,1,-9.640000000000001,-1.78,-1.83,0.26,4.14,-13.1
17.13951790332794,3,3,3,1,-9.890000000000001,-1.85,-1.53,1.41,4.13,-13.19
17.1495178937912,3,3,3,1,-9.92,-1.93,-1.25,2.59,4.03,-13.32
17.15951788425446,3,3,3,1,-9.84,-1.95,-1.14,3.8,3.75,-13.48
17.16951787471771,3,3,3,1,-9.84,-1.81,-0.87,5.33,3.31,-13.65
17.17951786518097,3,3,3,1,-9.779999999999999,-1.5,-0.88,6.33,2.75,-13.91
17.18951809406281,3,3,3,1,-9.66,-1.14,-1.03,6.56,2.15,-14.13
17.19951808452606,3,3,3,1,-9.73,-1.27,-1.04,6.26,1.87,-14.17
17.20951807498932,3,3,3,0,-9.65,0.19,-1.33,5.99,1.52,-14.27
17.21951806545258,3,3,3,0,-9.619999999999999,1.07,-1.46,5.64,1.18,-14.35
17.22951805591583,3,3,3,0,-9.640000000000001,1.73,-1.59,4.8,1.06,-14.38
17.23951804637909,3,3,3,0,-9.57,2.11,-1.33,3.08,1.28,-13.94
17.24951803684235,3,3,3,0,-9.289999999999999,1.9,-0.52,3.08,1.28,-13.94
17.26051795482635,3,3,3,0,-9.630000000000001,1.56,-0.42,3.94,1.9,-12.98
17.27051794528961,3,3,3,0,-9.85,1.13,-0.44,5.74,2.5,-9.93
17.28051793575287,3,3,3,0,-9.99,0.66,-0.7,5.74,2.5,-9.93
17.29051792621613,3,3,3,0,-10.15,-0.84,-1.05,5.13,2.45,-8.460000000000001
17.30051791667938,3,3,3,0,-9.960000000000001,-1.61,-0.97,3.59,2.17,-7.49
17.31051790714264,3,3,3,0,-9.77,-2.29,-0.98,2.07,1.94,-7.1
17.3205178976059,3,3,3,0,-9.69,-2.71,-0.9,0.98,1.86,-7.09
17.33051788806915,3,3,3,0,-9.380000000000001,-3.22,-0.58,1.08,1.8,-7.62
17.34051787853241,3,3,3,0,-9.27,-2.97,-0.51,1.93,1.72,-7.84
17.35051786899567,3,3,3,0,-9.199999999999999,-2.54,-0.45,1.93,1.72,-7.84
17.36051785945892,3,3,3,0,-9.130000000000001,-2.35,-0.39,2.7,1.68,-7.89
17.37051808834076,3,3,3,0,-9.19,-2.41,-0.45,3.53,1.82,-7.6
17.38051807880402,3,3,3,0,-9.18,-2.29,-1.41,3.49,2.01,-7.4
17.39051806926727,3,3,3,0,-9.25,-2.23,-0.85,3.86,1.94,-7.14
17.40051805973053,3,3,3,0,-9.33,-2.32,-0.57,3.86,1.94,-7.14
17.41051805019379,3,3,3,0,-9.16,-2.55,-0.7,3.62,1.87,-7.09
17.42051804065704,3,3,3,0,-9,-2.4,-0.76,3.24,1.87,-6.81
17.4305180311203,3,3,3,0,-8.949999999999999,-2.41,-0.72,3.07,1.97,-6.73
17.44051802158356,3,3,3,0,-9.1,-2.68,-0.64,3.08,2.13,-6.87
17.45051801204681,3,3,3,0,-9.460000000000001,-3.49,-0.27,3.08,2.13,-6.87
17.46051800251007,3,3,3,0,-9.59,-3.59,-0.37,3.54,2.19,-7.03
17.47051799297333,3,3,3,0,-9.75,-3.49,-0.34,5.33,2.2,-7.36
17.48051798343658,3,3,3,0,-9.82,-3.18,-0.33,6.26,2.09,-7.42
17.49051797389984,3,3,3,0,-9.779999999999999,-2.39,-0.3,6.99,2.02,-7.42
17.5005179643631,3,3,3,0,-9.720000000000001,-2.03,-0.49,6.99,2.02,-7.42
17.51051795482635,3,3,3,0,-9.630000000000001,-1.76,-0.6,7.41,2.02,-7.4
17.52051794528961,3,3,3,0,-9.59,-1.58,-0.74,7.47,1.96,-7.4
17.53051793575287,3,3,3,0,-9.710000000000001,-1.41,-0.77,7.33,1.91,-7.37
17.54051792621613,3,3,3,0,-9.83,-1.48,-0.84,7.05,1.8,-7.27
17.55051791667938,3,3,3,0,-10,-1.56,-0.8100000000000001,7.05,1.8,-7.27
17.56051790714264,3,3,3,0,-9.970000000000001,-1.6,-0.65,6.86,1.6,-7.17
17.5705178976059,3,3,3,0,-9.789999999999999,-1.75,-0.75,6.58,1.25,-6.91
17.58051788806915,3,3,3,0,-9.789999999999999,-1.71,-0.9,6.45,1.12,-6.78
17.59051787853241,3,3,3,0,-9.970000000000001,-1.77,-0.9,6.36,1.07,-6.61
17.60051786899567,3,3,3,0,-10.19,-1.91,-0.84,6.36,1.07,-6.61
17.61051785945892,3,3,3,0,-10.65,-2.2,-0.85,6.49,1.06,-6.56
17.62051808834076,3,3,3,0,-10.84,-2.23,-0.9399999999999999,7.7,0.85,-6.63
17.63051807880402,3,3,3,0,-11.1,-2.08,-1.13,8.35,0.67,-6.81
17.64051806926727,3,3,3,0,-11.34,-1.77,-1.1,9.130000000000001,0.54,-6.89
17.65051805973053,3,3,3,0,-12.01,-0.92,0.12,9.130000000000001,0.54,-6.89
17.66051805019379,3,3,3,0,-12.12,-0.37,0.33,9.85,0.23,-6.59
17.67051804065704,3,3,3,0,-12.12,0.35,0.28,10.25,-0.34,-5.17
17.6805180311203,3,3,3,0,-12.15,1.71,1.05,10.71,-0.43,-4.24
17.69051802158356,3,3,3,0,-12.36,2.32,1.61,11.23,-0.49,-2.91
17.70051801204681,3,3,3,0,-12.66,2.74,1.85,11.23,-0.49,-2.91
17.71051800251007,3,3,3,0,-12.79,3.24,1.68,12.19,-0.45,-0.82
17.72051799297333,3,3,3,0,-12.59,3.62,1.88,11.75,-0.24,4.63
17.73051798343658,3,3,3,0,-11.89,2.54,1.71,9.210000000000001,-1.14,7.15
17.74051797389984,3,3,3,0,-11.48,2.34,1.88,8.35,-2.14,9.41
17.7505179643631,3,3,3,0,-11.1,2.5,1.91,8.35,-2.14,9.41
17.76051795482635,3,3,3,0,-10.85,2.71,0.97,7.99,-3.92,10.85
17.77051794528961,3,3,3,0,-10.86,2.56,0.46,6.08,-6.43,12.89
17.78051793575287,3,3,3,0,-10.85,1.29,-0.33,4.9,-6.44,13.73
17.79051792621613,3,3,3,0,-10.88,-0.14,-0.39,4.28,-5.39,14.46
17.80051791667938,3,3,3,0,-11.07,-2.05,-1.24,4.28,-5.39,14.46
17.81051790714264,3,3,3,0,-11.3,-3.01,-1.44,4.85,-3.96,15.18
17.8205178976059,3,3,3,0,-11.54,-3.26,-0.67,5.98,-0.5,15.43
17.83051788806915,3,3,3,0,-11.61,-3.74,-0.27,4.55,1.27,15.63
17.84051787853241,3,3,3,0,-11.18,-4.81,0.35,2.93,2.49,15.65
17.85051786899567,3,3,3,0,-11.01,-4.99,0.2,2.93,2.49,15.65
17.86051785945892,3,3,3,0,-10.78,-4.74,0.1,2.39,3.45,15.96
17.87051808834076,3,3,3,0,-11.05,-5.45,0.8,0.13,3.7,16.82
17.88051807880402,3,3,3,0,-10.52,-7.47,0.58,0.66,3.52,16.97
17.89051806926727,3,3,3,0,-10.58,-7.04,0.1,3.11,3.97,16.94
17.90051805973053,3,3,3,0,-10.73,-6.43,0.04,3.11,3.97,16.94
17.91051805019379,3,3,3,0,-10.79,-6.1,0.14,4.43,4.17,17.15
17.92051804065704,3,3,3,0,-10.37,-5.48,-0.24,3.82,3.87,18.02
17.9305180311203,3,3,3,0,-10.24,-4.84,-0.61,2.68,4.04,18.51
17.94051802158356,3,3,3,0,-10.24,-3.84,-0.61,-0.1,4.13,19.08
17.95051801204681,3,3,3,0,-10.37,-3.17,-0.45,-0.1,4.13,19.08
17.96051800251007,3,3,3,0,-10.04,-4.07,-0.74,-3.97,4.02,19.45
17.97051799297333,3,3,3,0,-9.82,-4.19,-1,-8.66,3.95,19.71
17.98051798343658,3,3,3,0,-9.529999999999999,-4.12,-1.11,-10.56,3.93,19.57
17.99051797389984,3,3,3,0,-9.41,-4.05,-1.08,-12.39,3.77,19.56
18.0005179643631,3,3,3,0,-9.210000000000001,-3.7,-1,-12.39,3.77,19.56
18.01051795482635,3,3,3,0,-9.220000000000001,-3.71,-1.09,-14.23,3.55,19.65
18.02051794528961,3,3,3,0,-9.18,-3.73,-1.13,-16.45,2.83,19.59
18.03051793575287,3,3,3,0,-9.119999999999999,-3.68,-1.18,-16.93,1.98,19.46
18.04051792621613,3,3,3,0,-8.890000000000001,-3.67,-1.06,-16.61,1.62,19.22
18.05151808261871,3,3,3,0,-9.119999999999999,-3.5,-0.58,-16.61,1.62,19.22
18.06051790714264,3,3,3,0,-8.92,-3.82,-0.45,-16.41,0.99,18.84
18.0705178976059,3,3,3,0,-8.49,-4.04,-0.19,-14.64,-0.07000000000000001,17.67
18.08151805400848,3,3,3,0,-8.369999999999999,-4.21,-0.14,-13.53,-0.62,16.67
18.09051787853241,3,3,3,0,-8.01,-3.98,-0.13,-12.75,-0.6899999999999999,15.97
18.10051786899567,3,3,3,0,-7.87,-4.18,-0.05,-12.75,-0.6899999999999999,15.97
18.11151802539825,3,3,3,0,-7.4,-3.9,0.09,-12.07,-0.77,14.94
18.12051808834076,3,3,3,0,-7.29,-3.73,0.17,-11.45,-0.75,12.95
18.13051807880402,3,3,3,0,-7.2,-3.72,0.19,-11.42,-0.83,11.99
18.14151799678802,3,3,3,0,-7.12,-3.56,0.33,-11.62,-0.9399999999999999,11.03
18.15051805973053,3,3,3,0,-7.09,-3.4,0.66,-11.62,-0.9399999999999999,11.03
18.16051805019379,3,3,3,0,-6.88,-3.4,0.83,-11.97,-1.24,10.12
18.1715179681778,3,3,3,0,-6.72,-3.46,0.89,-12.43,-1.87,8.19
18.1805180311203,3,3,3,0,-6.66,-3.75,0.89,-11.47,-1.94,6.9
18.19051802158356,3,3,3,0,-6.35,-4.44,0.77,-9.029999999999999,-1.91,5.33
18.20151793956757,3,3,3,0,-6.15,-4.6,0.55,-9.029999999999999,-1.91,5.33
18.21051800251007,3,3,3,0,-6.12,-4.31,0.39,-5.78,-1.51,3.51
18.22051799297333,3,3,3,0,-6.12,-3.69,0.31,-0.99,-0.76,-0.27
18.23151791095734,3,3,3,0,-6.37,-2.43,0.38,-1.77,-0.46,-1.87
18.24051797389984,3,3,3,0,-6.96,-1.86,0.61,-2.77,-0.01,-3.24
18.2505179643631,3,3,3,1,-7.85,-0.88,0.52,-2.77,-0.01,-3.24
18.26151788234711,3,3,3,1,-8.85,1.45,0.1,-1.54,0.46,-3.57
18.27051794528961,3,3,3,1,-11.32,6.63,0.76,0.47,0.32,-1.96
18.28151786327362,3,3,3,1,-11.98,9.779999999999999,2.29,-1.93,-0.61,-0.4
18.29151809215546,3,3,3,1,-11.92,11.39,3.85,-3.12,-0.61,0.67
18.30151808261871,3,3,3,1,-11.61,14.79,4.89,-3.12,-0.61,0.67
18.31151807308197,3,3,3,1,-12.68,18.76,1.75,-5.71,2.03,3
18.32151806354523,3,3,3,1,-13.65,18.71,-0.4,-7.98,1.96,6.07
18.33151805400848,3,3,3,1,-13.28,15.39,-0.78,-8.01,-1,6.11
18.34151804447174,3,3,3,1,-11.58,9.609999999999999,0.89,-6.32,-0.42,5.95
18.351518034935,3,3,3,2,-9.109999999999999,0.6,2.18,-6.32,-0.42,5.95
18.36151802539825,3,3,3,2,-9.06,-0.42,1.48,-4.08,2.12,5.58
18.37151801586151,3,3,3,2,-9.550000000000001,-0.53,1.24,-1.37,3.73,2.24
18.38151800632477,3,3,3,2,-10.29,-1.38,0.03,-0.7,2.89,0.25
18.39151799678802,3,3,3,2,-13.34,3.21,3.06,-2.5,-0.6,0.38
18.40151798725128,3,3,3,2,-14.59,7.41,7.23,-2.5,-0.6,0.38
18.41151797771454,3,3,3,2,-14.66,12.1,8.25,-9.08,-5.64,1.45
18.4215179681778,3,3,3,2,-13.98,12.24,7.45,-23.42,-2.03,-1.28
18.43151795864105,3,3,3,2,-10.93,4.62,2.28,-20.76,1.66,-2.46
18.44151794910431,3,3,3,2,-10.36,-1.27,0.82,-19.17,2.15,-2.9
18.45151793956757,3,3,3,2,-8.94,-6.75,-0.63,-19.17,2.15,-2.9
18.46151793003082,3,3,3,2,-8.470000000000001,-10.34,-4.58,-12.72,4.96,-3.11
