timestamp,magCalib,accCalib,gyrCalib,sysCalib,accX,accY,accZ,gyrX,gyrY,gyrZ
-0.2288960218429565,3,3,3,2,-7.79,3.71,0.63,21.53,-11.02,0.51
-0.2188960313796997,3,3,3,2,-7.35,3.7,0.14,17.75,-9.609999999999999,-2.06
-0.2088960409164429,3,3,3,2,-7.35,3.7,0.14,14.18,-8.609999999999999,-4.87
-0.198896050453186,3,3,3,2,-7.26,3.57,-0.17,11.15,-7.62,-7.16
-0.1888960599899292,3,3,3,2,-8.4,1.81,-0.05,8.51,-6.85,-8.85
-0.1788960695266724,3,3,3,2,-8.76,1.22,0.05,7.26,-6.09,-9.82
-0.1688960790634155,3,3,3,2,-9.199999999999999,0.62,-0.21,6.79,-4.89,-9.789999999999999
-0.1588958501815796,3,3,3,2,-10.06,0,-0.5600000000000001,7.24,-3.09,-8.09
-0.1488958597183228,3,3,3,2,-10.1,0.54,-0.5,7.8,-2.96,-5.71
-0.1388958692550659,3,3,3,2,-9.210000000000001,1.08,-0.16,9.31,-4.1,-5.09
-0.1288958787918091,3,3,3,2,-8.56,1.3,-0.05,9.949999999999999,-4.59,-6.77
-0.1188958883285522,3,3,3,2,-8.69,0.73,0.27,10.16,-3.81,-8.49
-0.1088958978652954,3,3,3,1,-9.19,0.41,0.23,11.37,-3.36,-9.619999999999999
-0.09889590740203857,3,3,3,1,-9.48,0.59,0.05,12,-3.03,-10.64
-0.08889591693878174,3,3,3,1,-9.789999999999999,0.62,-0.2,12.36,-1.88,-10.84
-0.0788959264755249,3,3,3,1,-9.85,0.5,-0.45,12.67,-0.71,-10.29
-0.06889593601226807,3,3,3,1,-9.699999999999999,0.83,-0.83,13.66,-0.08,-9.48
-0.05889594554901123,3,3,3,1,-9.66,1.39,-0.6899999999999999,14.85,-0.38,-8.93
-0.04889595508575439,3,3,3,1,-9.779999999999999,1.55,-0.36,15.37,-1.3,-8.720000000000001
-0.03889596462249756,3,3,3,1,-9.960000000000001,1.37,-0.09,15.67,-2.02,-8.68
-0.02889597415924072,3,3,3,1,-9.789999999999999,0.79,0,15.64,-2.29,-8.6
-0.01889598369598389,3,3,3,1,-9.57,0.73,-0.08,15.05,-2.08,-8.34
-0.008895993232727051,3,3,3,1,-9.57,0.73,-0.08,14.8,-1.37,-7.63
0.001103997230529785,3,3,3,1,-9.32,0.72,-0.28,15.15,-0.44,-6.7
0.01110398769378662,3,3,3,1,-8.67,1.3,-1.36,15.92,0.21,-5.88
0.02110397815704346,3,3,3,1,-8.92,1.34,-1.17,16.5,0.7,-5.26
0.03110396862030029,3,3,3,1,-9.23,1.52,-1.01,16.69,0.65,-4.83
0.04110395908355713,3,3,3,1,-9.49,1.57,-0.85,16.63,0.64,-4.37
0.05110394954681396,3,3,3,1,-9.43,1.91,-0.74,16.36,0.6899999999999999,-3.9
0.0611039400100708,3,3,3,1,-9.279999999999999,2.37,-0.77,16.01,0.99,-3.47
0.07110393047332764,3,3,3,1,-9.19,2.73,-0.54,15.29,1.52,-3.01
0.08110392093658447,3,3,3,1,-9.140000000000001,2.79,-0.26,14.13,1.91,-2.54
0.09110414981842041,3,3,3,0,-9.220000000000001,2.22,-0.14,12.59,2.26,-1.96
0.1011041402816772,3,3,3,0,-9.279999999999999,1.88,-0.1,11.07,2.67,-1.28
0.1111041307449341,3,3,3,0,-9.33,1.88,-0.13,10.43,3.17,-0.64
0.1211041212081909,3,3,3,0,-9.300000000000001,1.85,-0.11,10.46,3.51,-0.23
0.1311041116714478,3,3,3,0,-9.220000000000001,1.58,-0.31,10.77,3.84,0.03
0.1411041021347046,3,3,3,0,-9.16,1.49,-0.3,11.28,3.88,0.29
0.1511040925979614,3,3,3,0,-9.16,1.49,-0.3,12.01,3.88,0.19
0.1611040830612183,3,3,3,0,-9,2.01,-0.76,12.91,3.57,-0.02
0.1711040735244751,3,3,3,0,-9.1,2.74,-0.36,13.19,3.2,-0.06
0.1811040639877319,3,3,3,0,-9.140000000000001,2.91,-0.06,12.96,2.79,0.27
0.1911040544509888,3,3,3,0,-9.140000000000001,2.91,-0.06,12.07,2.58,0.78
0.2011040449142456,3,3,3,0,-9.25,3.32,0.31,11.47,3.02,1.33
0.2111040353775024,3,3,3,0,-9.43,3.35,-0.01,10.7,3.76,1.9
0.2211040258407593,3,3,3,0,-9.4,3.32,0.07000000000000001,9.56,4.1,2.19
0.2311040163040161,3,3,3,0,-9.32,3.33,0.38,8.449999999999999,4.09,2.09
0.2411040067672729,3,3,3,0,-9.380000000000001,3.3,0.71,7.43,4.68,1.73
0.2511039972305298,3,3,3,0,-9.4,3.59,0.72,7.36,5.18,1.79
0.2611039876937866,3,3,3,0,-9.460000000000001,3.49,0.76,6.73,5.7,1.97
0.2711039781570435,3,3,3,0,-9.31,3.46,0.74,6.08,5.73,2.25
0.2811039686203003,3,3,3,0,-9.130000000000001,3.32,0.65,5.48,5.95,2.6
0.2911039590835571,3,3,3,0,-10.03,4,0.84,4.86,6.24,2.85
0.301103949546814,3,3,3,0,-11.33,5.26,2.74,3.82,4.89,2.73
0.3111039400100708,3,3,3,0,-12.67,6.14,5.29,0.84,2.15,1.89
0.3211039304733276,3,3,3,0,-13.46,5.91,7.17,-2.93,-0.63,-0.03
0.3311039209365845,3,3,3,0,-14.21,2.88,5.91,-5.95,0.04,-1.7
0.3411041498184204,3,3,3,0,-13.14,0.42,4.47,-8.82,3.68,-2.12
0.3511041402816772,3,3,3,0,-13.14,0.42,4.47,-10.33,6.73,-1.56
0.3611041307449341,3,3,3,0,-9.23,-3.96,0.41,-10.79,6.56,-0.82
0.3711041212081909,3,3,3,0,-8.94,0.09,-2.02,-9.119999999999999,5.34,-0.83
0.3811041116714478,3,3,3,0,-8.85,2.09,-2.77,-7.37,4.56,-1.84
0.3911041021347046,3,3,3,0,-8.85,2.09,-2.77,-8.289999999999999,4.1,-2.53
0.4011040925979614,3,3,3,0,-8.43,3.03,-3.46,-8.880000000000001,4.97,-2.32
0.4111040830612183,3,3,3,0,-9.67,-0.32,-2.33,-9.4,5.64,-2.51
0.4211040735244751,3,3,3,0,-10.35,-1.64,-1.27,-8.73,5.86,-2.99
0.4311040639877319,3,3,3,0,-10.86,-2.48,-0.05,-6.93,5.41,-2.98
0.4411040544509888,3,3,3,0,-10.78,-2.7,1.51,-5.33,4.21,-3.37
0.4511040449142456,3,3,3,0,-10.55,-2.18,1.49,-3.72,3.59,-4.12
0.4611040353775024,3,3,3,0,-10.14,-1.83,0.79,-2.36,3.6,-4.37
0.4711040258407593,3,3,3,0,-9.720000000000001,-1.59,0,-1.66,3.96,-4.12
0.4811040163040161,3,3,3,0,-9.23,-0.67,-1.97,-1.17,4.62,-3.83
0.4911040067672729,3,3,3,0,-8.94,-0.17,-2.63,-0.62,5,-3.9
0.5011039972305298,3,3,3,0,-9.050000000000001,0,-2.92,0.14,5.07,-4.14
0.5111039876937866,3,3,3,0,-9.34,-0.11,-2.86,0.9399999999999999,4.91,-4.1
0.5211039781570435,3,3,3,0,-9.77,0.46,-2.47,1.45,4.55,-3.89
0.5311039686203003,3,3,3,0,-9.960000000000001,0.87,-2.09,1.52,4.27,-3.87
0.5411039590835571,3,3,3,0,-10.03,1.37,-1.67,1.16,3.81,-3.54
0.551103949546814,3,3,3,0,-10.03,1.37,-1.67,0.89,3.44,-3.09
0.5611039400100708,3,3,3,0,-9.73,1.55,-1.99,0.01,3.47,-2.59
0.5711039304733276,3,3,3,0,-9.720000000000001,1.35,-2.47,-0.93,3.4,-1.96
0.5911041498184204,3,3,3,0,-9.529999999999999,1.17,-3.06,-1.97,3.09,-1.27
0.6011041402816772,3,3,3,0,-9.5,-0.29,-3.01,-2.75,3.14,-0.88
0.6111041307449341,3,3,3,0,-9.6,-0.96,-3.04,-2.69,2.95,-0.53
0.6211041212081909,3,3,3,0,-9.75,-1.2,-2.85,-2,2.58,-0.54
0.6311041116714478,3,3,3,0,-9.800000000000001,-1.26,-2.73,-1,2.2,-0.66
0.6411041021347046,3,3,3,0,-9.82,-1.04,-2.43,-0.15,1.9,-0.51
0.6511040925979614,3,3,3,0,-9.699999999999999,-1.13,-2.17,0.08,1.72,-0.22
0.6611040830612183,3,3,3,0,-9.57,-1.15,-2.17,0.53,1.6,-0.07000000000000001
0.6711040735244751,3,3,3,0,-9.68,-1.15,-2.16,0.72,1.62,-0.01
0.6821039915084839,3,3,3,0,-9.699999999999999,-0.84,-2.22,1.06,1.49,0.08
0.6921039819717407,3,3,3,0,-9.609999999999999,-0.58,-2.22,1.62,1.3,0.13
0.7021039724349976,3,3,3,0,-9.630000000000001,-0.21,-2.29,1.86,1.09,-0.02
0.7121039628982544,3,3,3,0,-9.699999999999999,0.06,-2.37,1.83,1.04,-0.12
0.7221039533615112,3,3,3,0,-9.779999999999999,0.49,-1.96,1.3,1.09,0.04
0.7321039438247681,3,3,3,0,-9.869999999999999,0.37,-1.69,1,1.31,0.38
0.7421039342880249,3,3,3,0,-9.699999999999999,0.5,-1.59,0.92,1.46,0.72
0.7521039247512817,3,3,3,0,-9.699999999999999,0.5,-1.59,1.15,1.55,0.8
0.7621041536331177,3,3,3,0,-9.67,0.5600000000000001,-1.13,1.13,1.5,0.82
0.7721041440963745,3,3,3,0,-9.74,0.59,-1.13,1.27,1.53,0.92
0.7821041345596313,3,3,3,0,-9.789999999999999,0.47,-1.13,0.98,1.47,1.02
0.7921041250228882,3,3,3,0,-9.75,0.55,-0.97,1.04,1.31,1.16
0.802104115486145,3,3,3,0,-9.73,0.62,-0.9399999999999999,1.26,1.12,0.97
0.8121041059494019,3,3,3,0,-9.720000000000001,0.39,-1.18,1.12,1.04,0.61
0.8221040964126587,3,3,3,0,-9.9,0.29,-1.41,1.24,1.02,0.52
0.8321040868759155,3,3,3,0,-9.85,0.38,-1.38,1.18,0.74,0.44
0.8421040773391724,3,3,3,0,-9.51,0.41,-1.97,1.12,0.68,0.45
0.8521040678024292,3,3,3,0,-9.51,0.42,-2.44,0.76,0.78,0.36
0.862104058265686,3,3,3,0,-9.56,0.48,-2.99,0.5,0.86,0.27
0.8721040487289429,3,3,3,0,-9.550000000000001,0.49,-2.65,0.18,0.9399999999999999,0.29
0.8821040391921997,3,3,3,0,-9.210000000000001,-0.95,-2.01,-0.16,0.93,0.29
0.8921040296554565,3,3,3,0,-9.57,-1.05,-2.39,-0.03,1.36,0.18
0.9021040201187134,3,3,3,0,-10.01,-0.9399999999999999,-2.54,1,1.62,0.13
0.9121040105819702,3,3,3,0,-10.08,-1.13,-2.54,1.67,1.62,0.39
0.9221040010452271,3,3,3,0,-9.369999999999999,-0.92,-2.59,2.18,1.57,0.48
0.9321039915084839,3,3,3,0,-9.300000000000001,-0.44,-2.76,2.64,1.15,0.17
0.9421039819717407,3,3,3,0,-9.4,-0.1,-2.85,2.66,0.77,-0.3
0.9521039724349976,3,3,3,0,-9.4,-0.1,-2.85,2.12,0.58,-0.62
0.9621039628982544,3,3,3,0,-9.44,-0.57,-2.54,1.32,0.54,-0.88
0.9721039533615112,3,3,3,0,-9.52,-0.84,-2.54,0.72,0.59,-0.99
0.9821039438247681,3,3,3,0,-9.68,-0.84,-2.38,0.82,0.41,-0.97
0.9921039342880249,3,3,3,0,-9.68,-0.8100000000000001,-2.22,1.38,0.22,-1.01
1.002103924751282,3,3,3,0,-9.67,-0.36,-1.97,1.82,0.1,-0.9
1.012104153633118,3,3,3,0,-9.66,-0.31,-1.82,2.1,-0.06,-0.72
1.022104144096375,3,3,3,0,-9.699999999999999,-0.33,-1.57,2,0.07000000000000001,-0.53
1.032104134559631,3,3,3,0,-9.73,-0.25,-1.4,2.05,0.26,-0.38
1.042104125022888,3,3,3,0,-9.74,-0.44,-1.29,1.77,0.26,-0.4
1.052104115486145,3,3,3,0,-9.83,-0.39,-1.39,1.41,0.17,-0.39
1.062104105949402,3,3,3,0,-9.84,-0.43,-1.54,1.16,0.09,-0.39
1.072104096412659,3,3,3,0,-9.75,-0.55,-1.55,0.83,0.02,-0.38
1.082104086875916,3,3,3,0,-9.58,-1,-1.76,0.8,0.17,-0.38
1.092104077339172,3,3,3,0,-9.529999999999999,-0.98,-1.86,1.09,0.1,-0.38
1.102104067802429,3,3,3,0,-9.529999999999999,-0.86,-1.96,1.75,0.07000000000000001,-0.34
1.112104058265686,3,3,3,0,-9.529999999999999,-0.67,-2.09,2.41,-0.09,-0.14
1.122104048728943,3,3,3,0,-9.52,-0.35,-2.03,2.83,-0.12,0.03
1.1321040391922,3,3,3,0,-9.529999999999999,-0.07000000000000001,-2.03,3.06,-0.22,0.12
1.142104029655457,3,3,3,0,-9.56,0.17,-2.04,3.16,-0.29,0.1
1.152104020118713,3,3,3,0,-9.67,0.26,-2.05,3.07,-0.33,0.13
1.16210401058197,3,3,3,0,-9.710000000000001,0.3,-2.01,2.84,-0.33,0.12
1.172104001045227,3,3,3,0,-9.720000000000001,0.27,-1.89,2.61,-0.35,0.07000000000000001
1.182103991508484,3,3,3,0,-9.73,0.08,-1.78,2.4,-0.25,0.02
1.192103981971741,3,3,3,0,-9.75,-0.46,-1.6,2.36,-0.24,0.02
1.202103972434998,3,3,3,0,-9.74,-0.73,-1.67,2.59,-0.24,0.12
1.212103962898254,3,3,3,0,-9.720000000000001,-0.85,-1.72,2.93,-0.25,0.24
1.222103953361511,3,3,3,0,-9.67,-0.83,-1.65,3.45,-0.31,0.37
1.232103943824768,3,3,3,0,-9.619999999999999,-0.82,-1.69,3.91,-0.35,0.54
1.242103934288025,3,3,3,0,-9.58,-0.68,-1.7,4.15,-0.5,0.55
1.252103924751282,3,3,3,0,-9.56,-0.5600000000000001,-1.73,4.18,-0.63,0.41
1.262104153633118,3,3,3,0,-9.539999999999999,-0.52,-1.84,3.94,-0.62,0.26
1.272104144096375,3,3,3,0,-9.57,-0.35,-1.92,3.58,-0.55,0.15
1.282104134559631,3,3,3,0,-9.609999999999999,-0.16,-1.9,3.19,-0.54,-0.02
1.292104125022888,3,3,3,0,-9.640000000000001,-0.05,-1.86,2.84,-0.5600000000000001,-0.23
1.302104115486145,3,3,3,0,-9.66,-0.03,-1.79,2.34,-0.5,-0.38
1.342104077339172,3,3,3,0,-9.65,-0.18,-1.53,0.6,-0.28,-0.49
1.352104067802429,3,3,3,0,-9.66,-0.55,-1.53,0.32,-0.26,-0.5
1.362104058265686,3,3,3,0,-9.68,-0.73,-1.61,0.04,-0.2,-0.46
1.373103976249695,3,3,3,0,-9.640000000000001,-0.74,-1.64,0.13,-0.22,-0.42
1.3821040391922,3,3,3,0,-9.6,-0.83,-1.62,0.28,-0.31,-0.35
1.392104029655457,3,3,3,0,-9.66,-1,-1.71,0.61,-0.35,-0.39
1.402104020118713,3,3,3,0,-9.720000000000001,-0.93,-1.74,0.95,-0.41,-0.39
1.41210401058197,3,3,3,0,-9.710000000000001,-0.84,-1.76,1.31,-0.5600000000000001,-0.35
1.422104001045227,3,3,3,0,-9.69,-0.66,-1.78,1.72,-0.63,-0.37
1.432103991508484,3,3,3,0,-9.74,-0.59,-1.62,1.77,-0.64,-0.33
1.442103981971741,3,3,3,0,-9.67,-0.46,-1.59,1.32,-0.6,-0.18
1.452103972434998,3,3,3,0,-9.640000000000001,-0.32,-1.6,1.18,-0.54,-0.14
1.462103962898254,3,3,3,0,-9.6,-0.33,-1.6,0.87,-0.59,-0.23
1.472103953361511,3,3,3,0,-9.609999999999999,-0.47,-1.55,0.49,-0.44,-0.28
1.482103943824768,3,3,3,0,-9.65,-0.5,-1.54,0.23,-0.34,-0.33
1.492103934288025,3,3,3,0,-9.68,-0.66,-1.54,-0.12,-0.28,-0.37
1.502103924751282,3,3,3,0,-9.720000000000001,-0.75,-1.56,-0.34,-0.26,-0.42
1.512104153633118,3,3,3,0,-9.73,-0.86,-1.68,-0.44,-0.19,-0.46
1.522104144096375,3,3,3,0,-9.73,-0.95,-1.64,-0.61,-0.14,-0.49
1.532104134559631,3,3,3,0,-9.73,-0.82,-1.66,-0.48,-0.18,-0.5
1.542104125022888,3,3,3,0,-9.640000000000001,-0.68,-1.65,-0.26,-0.28,-0.5600000000000001
1.552104115486145,3,3,3,0,-9.66,-0.96,-1.64,-0.27,-0.23,-0.6
1.562104105949402,3,3,3,0,-9.630000000000001,-0.73,-1.77,-0.31,-0.16,-0.5600000000000001
1.572104096412659,3,3,3,0,-9.58,-0.59,-1.69,-0.08,-0.26,-0.47
1.582104086875916,3,3,3,0,-9.56,-0.68,-1.6,-0.37,-0.23,-0.43
1.592104077339172,3,3,3,0,-9.619999999999999,-0.6,-1.63,-0.44,-0.17,-0.28
1.602104067802429,3,3,3,0,-9.640000000000001,-0.54,-1.62,-0.47,-0.17,-0.22
1.612104058265686,3,3,3,0,-9.66,-0.46,-1.75,-0.5,-0.23,-0.19
1.622104048728943,3,3,3,0,-9.67,-0.45,-1.64,-0.61,-0.21,-0.18
1.6321040391922,3,3,3,0,-9.67,-0.5,-1.62,-0.7,-0.17,-0.26
1.642104029655457,3,3,3,0,-9.74,-0.54,-1.55,-0.78,-0.09,-0.33
1.652104020118713,3,3,3,0,-9.699999999999999,-0.55,-1.56,-0.91,-0.11,-0.36
1.66210401058197,3,3,3,0,-9.68,-0.5600000000000001,-1.67,-0.92,-0.05,-0.46
1.672104001045227,3,3,3,0,-9.65,-0.61,-1.6,-1.06,-0.08,-0.47
1.682103991508484,3,3,3,0,-9.65,-0.6,-1.59,-0.9399999999999999,-0.07000000000000001,-0.48
1.692103981971741,3,3,3,0,-9.630000000000001,-0.52,-1.57,-0.78,-0.15,-0.47
1.702103972434998,3,3,3,0,-9.630000000000001,-0.55,-1.49,-0.71,-0.18,-0.41
1.712103962898254,3,3,3,0,-9.66,-0.44,-1.69,-0.5600000000000001,-0.15,-0.33
1.723104119300842,3,3,3,0,-9.710000000000001,-0.49,-1.5,-0.4,-0.13,-0.27
1.733104109764099,3,3,3,0,-9.710000000000001,-0.5,-1.5,-0.35,-0.08,-0.19
1.743104100227356,3,3,3,0,-9.67,-0.4,-1.51,-0.2,-0.06,-0.12
1.753104090690613,3,3,3,0,-9.710000000000001,-0.58,-1.45,-0.34,-0.09,-0.07000000000000001
1.76310408115387,3,3,3,0,-9.69,-0.6,-1.53,-0.46,-0.1,-0.02
1.773104071617126,3,3,3,0,-9.66,-0.68,-1.57,-0.38,-0.11,-0.01
1.783104062080383,3,3,3,0,-9.67,-0.73,-1.47,-0.35,-0.04,0.02
1.79310405254364,3,3,3,0,-9.67,-0.82,-1.5,-0.24,-0.01,0.08
1.803104043006897,3,3,3,0,-9.73,-0.77,-1.53,-0.11,-0.04,0.05
1.813104033470154,3,3,3,0,-9.710000000000001,-0.82,-1.57,-0.09,-0.08,0.01
1.823104023933411,3,3,3,0,-9.65,-0.76,-1.57,-0.03,-0.1,-0.02
1.833104014396667,3,3,3,0,-9.710000000000001,-0.66,-1.62,0.09,-0.1,-0.02
1.843104004859924,3,3,3,0,-9.68,-0.55,-1.65,0.04,-0.15,-0.07000000000000001
1.853103995323181,3,3,3,0,-9.67,-0.48,-1.65,0.04,-0.1,-0.09
1.863103985786438,3,3,3,0,-9.619999999999999,-0.5600000000000001,-1.76,-0.07000000000000001,-0.07000000000000001,-0.08
1.873103976249695,3,3,3,0,-9.619999999999999,-0.53,-1.7,-0.14,-0.06,-0.05
1.883103966712952,3,3,3,0,-9.609999999999999,-0.47,-1.6,-0.06,-0.05,-0.1
1.893103957176208,3,3,3,1,-9.609999999999999,-0.47,-1.63,-0.14,-0.09,-0.09
1.903103947639465,3,3,3,1,-9.789999999999999,-0.63,-1.64,-0.28,-0.07000000000000001,-0.15
1.913103938102722,3,3,3,1,-9.74,-0.66,-1.68,-0.52,-0.02,-0.15
1.923103928565979,3,3,3,1,-9.720000000000001,-0.74,-1.7,-0.55,-0.03,-0.11
1.933104157447815,3,3,3,1,-9.67,-0.73,-1.64,-0.49,-0.02,-0.07000000000000001
1.943104147911072,3,3,3,1,-9.609999999999999,-0.92,-1.61,-0.36,-0.11,-0.14
1.953104138374329,3,3,3,1,-9.630000000000001,-0.84,-1.61,-0.36,-0.11,-0.14
1.963104128837585,3,3,3,1,-9.66,-0.8,-1.7,-0.17,-0.15,-0.08
1.973104119300842,3,3,3,1,-9.67,-0.84,-1.65,-0.1,-0.21,-0.12
1.983104109764099,3,3,3,1,-9.69,-0.6899999999999999,-1.66,-0.08,-0.2,-0.09
1.993104100227356,3,3,3,1,-9.69,-0.67,-1.56,-0.08,-0.25,-0.06
2.003104090690613,3,3,3,1,-9.67,-0.73,-1.57,-0.08,-0.25,-0.06
2.01310408115387,3,3,3,1,-9.640000000000001,-0.66,-1.71,-0.24,-0.2,-0.02
2.023104071617126,3,3,3,1,-9.69,-0.79,-1.65,-0.31,-0.19,0.04
2.033104062080383,3,3,3,1,-9.619999999999999,-0.79,-1.59,-0.45,-0.15,0.05
2.04310405254364,3,3,3,1,-9.619999999999999,-0.82,-1.58,-0.43,-0.14,0.07000000000000001
2.053104043006897,3,3,3,1,-9.66,-0.85,-1.55,-0.43,-0.14,0.07000000000000001
2.063104033470154,3,3,3,1,-9.69,-0.72,-1.61,-0.35,-0.22,0.06
2.073104023933411,3,3,3,1,-9.75,-0.71,-1.52,-0.18,-0.24,-0.01
2.123103976249695,3,3,3,1,-9.66,-0.58,-1.54,-0.34,-0.17,0.08
2.133103966712952,3,3,3,1,-9.69,-0.5,-1.51,-0.45,-0.21,0.2
2.143103957176208,3,3,3,1,-9.74,-0.5600000000000001,-1.47,-0.54,-0.18,0.31
2.153103947639465,3,3,3,1,-9.73,-0.55,-1.53,-0.5,-0.18,0.4
2.163103938102722,3,3,3,1,-9.76,-0.6,-1.57,-0.45,-0.11,0.41
2.173103928565979,3,3,3,1,-9.710000000000001,-0.59,-1.58,-0.5,-0.09,0.42
2.183104157447815,3,3,3,1,-9.630000000000001,-0.72,-1.52,-0.66,-0.14,0.49
2.193104147911072,3,3,3,1,-9.630000000000001,-0.86,-1.51,-0.65,-0.08,0.51
2.203104138374329,3,3,3,1,-9.630000000000001,-0.82,-1.53,-0.55,-0.1,0.52
2.213104128837585,3,3,3,1,-9.630000000000001,-0.83,-1.63,-0.52,-0.19,0.61
2.223104119300842,3,3,3,1,-9.69,-0.89,-1.55,-0.37,-0.23,0.66
2.233104109764099,3,3,3,1,-9.74,-0.9,-1.52,-0.3,-0.25,0.57
2.243104100227356,3,3,3,1,-9.720000000000001,-0.86,-1.52,-0.2,-0.3,0.5
2.253104090690613,3,3,3,1,-9.630000000000001,-0.79,-1.58,-0.15,-0.3,0.55
2.26310408115387,3,3,3,1,-9.69,-0.89,-1.63,-0.19,-0.24,0.6899999999999999
2.273104071617126,3,3,3,1,-9.619999999999999,-0.84,-1.61,-0.21,-0.22,0.78
2.283104062080383,3,3,3,1,-9.619999999999999,-0.79,-1.56,-0.18,-0.09,0.88
2.29310405254364,3,3,3,1,-9.609999999999999,-0.8100000000000001,-1.58,-0.16,-0.11,0.89
2.303104043006897,3,3,3,1,-9.73,-0.74,-1.56,-0.13,-0.21,0.85
2.313104033470154,3,3,3,1,-9.710000000000001,-0.58,-1.57,0.18,-0.29,0.79
2.323104023933411,3,3,3,1,-9.68,-0.5,-1.56,0.18,-0.28,0.7
2.333104014396667,3,3,3,1,-9.67,-0.4,-1.57,0.19,-0.34,0.63
2.343104004859924,3,3,3,1,-9.710000000000001,-0.29,-1.41,0.25,-0.36,0.58
2.353103995323181,3,3,3,1,-9.710000000000001,-0.16,-1.4,0.26,-0.27,0.59
2.363103985786438,3,3,3,1,-9.699999999999999,-0.08,-1.46,0.18,-0.2,0.6
2.373103976249695,3,3,3,1,-9.710000000000001,-0.1,-1.51,0.01,-0.15,0.55
2.383103966712952,3,3,3,1,-9.74,-0.15,-1.42,0.03,-0.02,0.55
2.393103957176208,3,3,3,1,-9.77,-0.29,-1.47,-0.08,0.06,0.5600000000000001
2.403103947639465,3,3,3,1,-9.77,-0.3,-1.51,0.04,-0.07000000000000001,0.52
2.413103938102722,3,3,3,1,-9.699999999999999,-0.24,-1.58,0.09,-0.1,0.45
2.423103928565979,3,3,3,1,-9.65,-0.39,-1.52,0.01,-0.01,0.43
2.433104157447815,3,3,3,1,-9.619999999999999,-0.38,-1.52,0,0.04,0.37
2.443104147911072,3,3,3,1,-9.609999999999999,-0.28,-1.49,0,0.08,0.27
2.453104138374329,3,3,3,1,-9.619999999999999,-0.29,-1.46,-0.11,0.1,0.22
2.463104128837585,3,3,3,1,-9.74,-0.44,-1.51,-0.22,0.15,0.15
2.473104119300842,3,3,3,1,-9.75,-0.39,-1.49,-0.23,0.11,0.07000000000000001
2.483104109764099,3,3,3,1,-9.74,-0.3,-1.45,-0.27,0.17,-0.04
2.493104100227356,3,3,3,1,-9.779999999999999,-0.38,-1.48,-0.44,0.27,-0.09
2.503104090690613,3,3,3,1,-9.73,-0.38,-1.51,-0.3,0.27,-0.18
2.51310408115387,3,3,3,1,-9.68,-0.27,-1.57,-0.16,0.28,-0.28
2.523104071617126,3,3,3,1,-9.640000000000001,-0.19,-1.56,-0.21,0.28,-0.32
2.533104062080383,3,3,3,1,-9.68,-0.24,-1.51,-0.3,0.31,-0.28
2.54310405254364,3,3,3,1,-9.630000000000001,-0.2,-1.48,-0.23,0.37,-0.24
2.553104043006897,3,3,3,1,-9.6,-0.1,-1.43,-0.24,0.32,-0.22
2.563104033470154,3,3,3,1,-9.619999999999999,-0.07000000000000001,-1.48,-0.12,0.25,-0.22
2.573104023933411,3,3,3,1,-9.619999999999999,0.02,-1.51,-0.17,0.14,-0.18
2.583104014396667,3,3,3,1,-9.75,-0.01,-1.4,-0.15,0.13,-0.08
2.593104004859924,3,3,3,1,-9.789999999999999,-0.1,-1.38,-0.03,0.12,0.08
2.603103995323181,3,3,3,1,-9.75,-0.15,-1.33,0.16,0.15,0.1
2.613103985786438,3,3,3,1,-9.67,-0.13,-1.47,0.38,0.17,0.18
2.623103976249695,3,3,3,1,-9.6,-0.16,-1.45,0.5,0.09,0.23
2.633103966712952,3,3,3,1,-9.630000000000001,-0.18,-1.44,0.66,0.05,0.27
2.643103957176208,3,3,3,1,-9.59,-0.16,-1.48,0.76,-0.08,0.24
2.653103947639465,3,3,3,1,-9.619999999999999,-0.14,-1.35,0.8100000000000001,-0.07000000000000001,0.24
2.663103938102722,3,3,3,1,-9.66,0.07000000000000001,-1.48,0.84,-0.03,0.19
2.673103928565979,3,3,3,1,-9.67,0.07000000000000001,-1.5,0.76,-0.02,0.16
2.683104157447815,3,3,3,1,-9.77,-0.09,-1.44,0.48,0,0.21
2.693104147911072,3,3,3,1,-9.800000000000001,-0.28,-1.46,0.35,0,0.24
2.703104138374329,3,3,3,1,-9.75,-0.38,-1.6,0.15,0.1,0.16
2.713104128837585,3,3,3,1,-9.69,-0.47,-1.67,0.19,0.15,0.06
2.723104119300842,3,3,3,1,-9.68,-0.59,-1.69,0.36,0.13,-0.05
2.733104109764099,3,3,3,1,-9.68,-0.6,-1.61,0.61,0.07000000000000001,-0.22
2.744104027748108,3,3,3,1,-9.75,-0.64,-1.54,0.83,0.04,-0.39
2.754104018211365,3,3,3,1,-9.779999999999999,-0.63,-1.55,1.02,-0.03,-0.51
2.764104008674622,3,3,3,1,-9.779999999999999,-0.54,-1.73,1.23,-0.04,-0.6899999999999999
2.774103999137878,3,3,3,1,-9.73,-0.5,-1.75,1.42,-0.02,-0.84
2.784103989601135,3,3,3,1,-9.67,-0.42,-1.75,1.45,-0.03,-0.97
2.794103980064392,3,3,3,1,-9.66,-0.42,-1.66,1.48,0.01,-1.05
2.804103970527649,3,3,3,1,-9.66,-0.37,-1.64,1.44,0.08,-1.19
2.814103960990906,3,3,3,1,-9.619999999999999,-0.25,-1.61,1.48,0.16,-1.28
2.824103951454163,3,3,3,1,-9.57,-0.22,-1.53,1.44,0.22,-1.34
2.834103941917419,3,3,3,1,-9.59,-0.2,-1.41,1.17,0.13,-1.47
2.844103932380676,3,3,3,2,-9.699999999999999,-0.18,-1.41,1.02,0.21,-1.46
2.854103922843933,3,3,3,2,-9.779999999999999,-0.2,-1.43,0.76,0.23,-1.4
2.864104151725769,3,3,3,2,-9.74,-0.28,-1.45,0.62,0.32,-1.38
2.874104142189026,3,3,3,2,-9.67,-0.21,-1.52,0.64,0.31,-1.41
2.884104132652283,3,3,3,2,-9.640000000000001,-0.21,-1.58,0.23,0.36,-1.38
2.89410412311554,3,3,3,2,-9.66,-0.58,-1.43,-0.16,0.37,-1.31
2.904104113578796,3,3,3,2,-9.68,-0.58,-1.56,-0.15,0.35,-1.26
2.914104104042053,3,3,3,2,-9.66,-0.62,-1.65,-0.12,0.32,-1.27
2.92410409450531,3,3,3,2,-9.66,-0.72,-1.61,0.03,0.2,-1.31
2.934104084968567,3,3,3,2,-9.619999999999999,-0.77,-1.54,0.03,0.09,-1.33
2.944104075431824,3,3,3,2,-9.65,-0.83,-1.48,-0.05,0.16,-1.34
2.954104065895081,3,3,3,2,-9.67,-0.84,-1.49,0.18,0.17,-1.27
2.964104056358337,3,3,3,2,-9.67,-0.77,-1.6,0.31,0.15,-1.23
2.974104046821594,3,3,3,2,-9.619999999999999,-0.68,-1.55,0.48,0.06,-1.26
2.984104037284851,3,3,3,2,-9.630000000000001,-0.77,-1.61,0.46,-0.02,-1.26
2.994104027748108,3,3,3,2,-9.68,-0.76,-1.51,0.33,0.1,-1.17
3.004104018211365,3,3,3,2,-9.710000000000001,-0.84,-1.47,0.39,0.14,-1.08
3.014104008674622,3,3,3,2,-9.69,-0.8,-1.74,0.72,0.15,-1.02
3.044103980064392,3,3,3,2,-9.67,-0.95,-1.72,0.5600000000000001,0.27,-0.99
3.074103951454163,3,3,3,2,-9.640000000000001,-0.96,-1.69,0.83,-0.03,-0.82
3.084103941917419,3,3,3,2,-9.65,-1.01,-1.66,0.68,-0.03,-0.74
3.094103932380676,3,3,3,2,-9.68,-1.07,-1.54,0.82,-0.08,-0.64
3.104103922843933,3,3,3,2,-9.619999999999999,-1,-1.59,1.09,-0.08,-0.63
3.114104151725769,3,3,3,2,-9.59,-0.96,-1.71,1.08,-0.04,-0.61
3.124104142189026,3,3,3,2,-9.619999999999999,-0.98,-1.62,0.89,0.03,-0.52
3.134104132652283,3,3,3,2,-9.619999999999999,-1.04,-1.54,0.8,0.17,-0.34
3.14410412311554,3,3,3,2,-9.66,-1.03,-1.64,0.76,0.34,-0.28
3.154104113578796,3,3,3,2,-9.619999999999999,-0.99,-1.6,0.76,0.22,-0.31
3.164104104042053,3,3,3,2,-9.619999999999999,-0.98,-1.74,0.72,0.13,-0.28
3.17410409450531,3,3,3,2,-9.630000000000001,-0.9399999999999999,-1.64,0.49,0.09,-0.19
3.184104084968567,3,3,3,2,-9.619999999999999,-0.9,-1.63,0.44,0.11,-0.15
3.194104075431824,3,3,3,2,-9.640000000000001,-0.87,-1.59,0.35,0.09,-0.2
3.204104065895081,3,3,3,2,-9.640000000000001,-0.86,-1.6,0.12,0.12,-0.16
3.214104056358337,3,3,3,2,-9.619999999999999,-0.87,-1.71,-0.1,0.23,-0.02
3.224104046821594,3,3,3,2,-9.619999999999999,-0.86,-1.66,-0.3,0.35,0.15
3.234104037284851,3,3,3,2,-9.630000000000001,-0.89,-1.6,-0.55,0.33,0.24
3.244104027748108,3,3,3,2,-9.609999999999999,-0.86,-1.59,-0.52,0.32,0.19
3.254104018211365,3,3,3,2,-9.720000000000001,-0.93,-1.62,-0.43,0.29,0.18
3.264104008674622,3,3,3,2,-9.699999999999999,-0.92,-1.73,-0.33,0.12,0.12
3.274103999137878,3,3,3,2,-9.699999999999999,-0.89,-1.69,-0.23,0.02,0.05
3.284103989601135,3,3,3,2,-9.66,-0.9,-1.63,-0.16,0,0
3.294103980064392,3,3,3,2,-9.6,-0.78,-1.64,-0.09,-0.02,-0.02
3.304103970527649,3,3,3,2,-9.68,-0.85,-1.67,-0.29,0.06,0.03
3.314103960990906,3,3,3,2,-9.640000000000001,-0.86,-1.7,-0.32,0.05,0.11
3.324103951454163,3,3,3,2,-9.640000000000001,-0.82,-1.71,-0.09,0.07000000000000001,0.18
3.334103941917419,3,3,3,2,-9.6,-0.8,-1.72,0.01,0.07000000000000001,0.12
3.344103932380676,3,3,3,2,-9.640000000000001,-0.76,-1.65,0.01,0.03,0.07000000000000001
3.354103922843933,3,3,3,2,-9.66,-0.74,-1.59,0,-0.05,0.14
3.364104151725769,3,3,3,2,-9.609999999999999,-0.58,-1.75,-0.22,0.02,0.2
3.374104142189026,3,3,3,2,-9.66,-0.62,-1.59,-0.73,0.12,0.33
3.384104132652283,3,3,3,2,-9.58,-0.58,-1.55,-0.7,0.18,0.42
3.39410412311554,3,3,3,2,-9.57,-0.52,-1.6,-0.62,0.19,0.39
3.404104113578796,3,3,3,2,-9.6,-0.6,-1.59,-0.76,0.01,0.32
3.414104104042053,3,3,3,2,-9.66,-0.6899999999999999,-1.63,-0.66,0.05,0.31
3.42410409450531,3,3,3,2,-9.699999999999999,-0.71,-1.65,-0.5600000000000001,0.01,0.27
3.434104084968567,3,3,3,2,-9.74,-0.73,-1.69,-0.44,-0.06,0.2
3.444104075431824,3,3,3,2,-9.699999999999999,-0.67,-1.73,-0.25,-0.14,0.17
3.454104065895081,3,3,3,2,-9.66,-0.74,-1.74,-0.14,-0.16,0.14
3.464104056358337,3,3,3,2,-9.66,-0.88,-1.86,-0.12,-0.08,0.15
3.474104046821594,3,3,3,2,-9.630000000000001,-0.93,-1.85,-0.1,-0.06,0.18
3.484104037284851,3,3,3,2,-9.68,-0.9,-1.63,-0.06,-0.03,0.24
3.494104027748108,3,3,3,2,-9.640000000000001,-0.9399999999999999,-1.7,0.27,-0.08,0.32
3.504104018211365,3,3,3,2,-9.59,-0.82,-1.77,0.62,-0.09,0.23
3.514104008674622,3,3,3,2,-9.65,-0.88,-1.75,0.51,-0.09,0.14
3.524103999137878,3,3,3,2,-9.65,-0.75,-1.7,0.45,-0.07000000000000001,0.11
3.554103970527649,3,3,3,2,-9.619999999999999,-0.6899999999999999,-1.53,-0.01,0.03,0.15
3.564103960990906,3,3,3,2,-9.609999999999999,-0.5600000000000001,-1.61,-0.05,0,0.07000000000000001
3.574103951454163,3,3,3,2,-9.619999999999999,-0.46,-1.52,-0.12,0.02,-0.03
3.584103941917419,3,3,3,2,-9.59,-0.42,-1.47,-0.41,-0.04,0.03
3.594103932380676,3,3,3,2,-9.539999999999999,-0.26,-1.48,-0.71,0,0.12
3.604103922843933,3,3,3,2,-9.59,-0.13,-1.48,-1.48,0.1,0.39
3.614104151725769,3,3,3,2,-9.550000000000001,-0.01,-1.61,-2.1,0.17,0.98
3.624104142189026,3,3,3,2,-9.51,0.29,-1.4,-2.48,0.31,1.49
3.634104132652283,3,3,3,2,-9.369999999999999,0.53,-1.18,-2.8,0.38,1.76
3.64410412311554,3,3,3,2,-9.25,0.61,-1.05,-3.11,0.43,1.8
3.654104113578796,3,3,3,2,-9.51,0.43,-1.26,-3.34,0.39,1.72
3.664104104042053,3,3,3,2,-9.84,0.16,-1.36,-3.67,0.18,1.67
3.67410409450531,3,3,3,2,-10.04,-0.08,-1.39,-3.72,0.1,1.73
3.684104084968567,3,3,3,2,-10.1,-0.86,-1.62,-3.63,-0.02,1.91
3.694104075431824,3,3,3,2,-10.02,-1.09,-1.72,-3.04,-0.03,1.99
3.704104065895081,3,3,3,2,-9.77,-1.3,-1.87,-2.13,-0.22,1.91
3.714104056358337,3,3,3,2,-9.550000000000001,-1.27,-2.05,-1.05,-0.45,1.65
3.724104046821594,3,3,3,2,-9.48,-1.01,-1.88,-0.33,-0.66,1.26
3.734104037284851,3,3,3,2,-9.539999999999999,-0.89,-1.77,0.02,-0.83,1.02
3.744104027748108,3,3,3,2,-9.529999999999999,-0.55,-1.64,0.1,-1,0.92
3.754104018211365,3,3,3,2,-9.529999999999999,-0.17,-1.42,0.07000000000000001,-1.26,0.9
3.765103936195374,3,3,3,2,-9.41,0.73,-1.11,-0.03,-1.45,0.96
3.77510392665863,3,3,3,2,-9.23,0.9399999999999999,-0.92,-0.4,-1.38,1.15
3.785104155540466,3,3,3,2,-9.34,0.74,-0.92,-1.12,-0.79,1.54
3.795104146003723,3,3,3,2,-9.67,0.33,-0.95,-1.64,-0.46,1.91
3.80510413646698,3,3,3,2,-10.19,-0.15,-1.11,-1.75,-0.62,2.13
3.815104126930237,3,3,3,2,-10,-0.18,-1.38,-1.02,-0.91,2.06
3.825104117393494,3,3,3,2,-9.66,-0.06,-1.46,-0.02,-1.22,1.8
3.83510410785675,3,3,3,2,-9.43,0.13,-1.51,0.5600000000000001,-1.57,1.52
3.845104098320007,3,3,3,2,-9.289999999999999,0.17,-1.37,0.18,-2.05,1.4
3.855104088783264,3,3,3,2,-9.539999999999999,-0.39,-1.17,-1.06,-1.98,1.51
3.865104079246521,3,3,3,2,-9.880000000000001,-1.37,-1.16,-1.6,-1.31,1.92
3.875104069709778,3,3,3,2,-10.17,-1.86,-1.51,-0.4,-0.62,2.1
3.885104060173035,3,3,3,2,-10.25,-2.01,-2.09,1.47,-0.58,1.68
3.895104050636292,3,3,3,2,-10.26,-1.84,-2.13,3.01,-1.07,0.97
3.905104041099548,3,3,3,2,-10.25,-1.49,-2.25,3.92,-1.36,0.34
3.915104031562805,3,3,3,2,-10.14,-1.17,-2.47,3.91,-1.32,0.02
3.925104022026062,3,3,3,2,-9.73,-1.24,-2.47,3.42,-0.9399999999999999,-0.17
3.935104012489319,3,3,3,2,-9.640000000000001,-1.05,-2.38,3.1,-0.6,-0.37
3.945104002952576,3,3,3,2,-9.720000000000001,-0.89,-2.19,2.68,-0.24,-0.64
3.955103993415833,3,3,3,2,-9.82,-0.61,-2.07,2.2,-0.03,-1.03
3.965103983879089,3,3,3,2,-10,-0.39,-1.91,1.75,0.12,-1.45
3.975103974342346,3,3,3,2,-10.05,-0.32,-1.62,1.42,0.2,-1.69
3.985103964805603,3,3,3,2,-10.01,-0.33,-1.52,1.16,0.31,-1.73
3.99510395526886,3,3,3,2,-9.960000000000001,-0.5,-1.38,0.77,0.5600000000000001,-1.69
4.005103945732117,3,3,3,2,-9.74,-0.87,-1.36,0.89,0.73,-1.55
4.015103936195374,3,3,3,2,-9.699999999999999,-0.7,-1.53,1.28,0.73,-1.51
4.02510392665863,3,3,3,2,-9.73,-0.52,-1.53,1.48,0.59,-1.51
4.035104155540466,3,3,3,2,-9.76,-0.49,-1.41,1.6,0.44,-1.58
4.045104146003723,3,3,3,2,-9.66,-0.48,-1.33,1.66,0.4,-1.68
4.05510413646698,3,3,3,2,-9.619999999999999,-0.51,-1.41,1.67,0.32,-1.75
4.065104126930237,3,3,3,2,-9.57,-0.5600000000000001,-1.54,1.74,0.36,-1.72
4.075104117393494,3,3,3,2,-9.59,-0.65,-1.6,1.7,0.4,-1.57
4.08510410785675,3,3,3,2,-9.640000000000001,-0.85,-1.64,1.66,0.4,-1.38
4.095104098320007,3,3,3,2,-9.630000000000001,-0.82,-1.61,1.53,0.34,-1.22
4.105104088783264,3,3,3,2,-9.609999999999999,-0.89,-1.6,1.5,0.33,-1.15
4.115104079246521,3,3,3,2,-9.49,-1.05,-1.64,1.64,0.26,-1.11
4.125104069709778,3,3,3,2,-9.220000000000001,-1.02,-1.54,2.15,0.1,-1.04
4.135104060173035,3,3,3,2,-9.19,-0.91,-1.47,2.56,-0.04,-0.91
4.145104050636292,3,3,3,2,-9.25,-0.76,-1.39,2.81,-0.15,-0.87
4.155104041099548,3,3,3,2,-9.359999999999999,-0.52,-1.35,2.64,-0.2,-0.91
4.165104031562805,3,3,3,2,-9.77,-0.32,-1.55,1.76,-0.04,-0.91
4.175104022026062,3,3,3,2,-9.9,-0.42,-1.41,0.63,0.1,-0.8100000000000001
4.185104012489319,3,3,3,2,-9.92,-0.57,-1.36,-0.08,0.16,-0.76
4.195104002952576,3,3,3,2,-9.9,-0.76,-1.52,-0.51,0.28,-0.88
4.205103993415833,3,3,3,2,-9.880000000000001,-0.98,-1.5,-0.85,0.32,-1.02
4.215103983879089,3,3,3,2,-9.82,-1.1,-1.62,-0.85,0.28,-1.09
4.225103974342346,3,3,3,2,-9.69,-1.11,-1.71,-0.39,0.22,-1.14
4.235103964805603,3,3,3,2,-9.52,-0.98,-1.65,-0.02,0.14,-1.18
4.24510395526886,3,3,3,2,-9.52,-0.88,-1.53,0.08,-0.01,-0.99
4.255103945732117,3,3,3,2,-9.57,-0.9399999999999999,-1.36,-0.21,0.05,-0.82
4.265103936195374,3,3,3,2,-9.539999999999999,-1.02,-1.41,-0.25,0.11,-0.6
4.27510392665863,3,3,3,2,-9.69,-1.21,-1.28,-0.26,0.11,-0.46
4.285104155540466,3,3,3,2,-9.75,-1.14,-1.26,0.04,0.02,-0.39
4.295104146003723,3,3,3,2,-9.77,-1.05,-1.34,0.55,0.1,-0.4
4.30510413646698,3,3,3,2,-9.82,-1.03,-1.34,0.73,0.19,-0.32
4.315104126930237,3,3,3,2,-9.640000000000001,-0.99,-1.51,1.24,-0.01,-0.32
4.325104117393494,3,3,3,2,-9.609999999999999,-0.77,-1.45,1.81,-0.09,-0.43
4.33510410785675,3,3,3,2,-9.65,-0.44,-1.4,2.14,-0.24,-0.45
4.345104098320007,3,3,3,2,-9.710000000000001,-0.25,-1.39,1.79,-0.32,-0.34
4.355104088783264,3,3,3,2,-9.800000000000001,-0.35,-1.43,1.29,-0.13,-0.14
4.365104079246521,3,3,3,2,-9.800000000000001,-0.34,-1.5,1.16,-0.1,0.08
4.375104069709778,3,3,3,2,-9.85,-0.37,-1.49,1.03,0.02,0.2
4.385104060173035,3,3,3,2,-9.91,-0.52,-1.41,1.03,-0.02,0.33
4.395104050636292,3,3,3,2,-9.66,-0.48,-1.48,1.23,-0.23,0.44
4.405104041099548,3,3,3,2,-9.619999999999999,-0.46,-1.48,1.26,-0.16,0.41
4.415104031562805,3,3,3,2,-9.609999999999999,-0.47,-1.53,0.98,-0.13,0.46
4.425104022026062,3,3,3,2,-9.710000000000001,-0.51,-1.5,0.45,0.03,0.5
4.435104012489319,3,3,3,2,-9.640000000000001,-0.84,-1.37,0.3,-0.12,0.54
4.445104002952576,3,3,3,2,-9.640000000000001,-0.9399999999999999,-1.46,0.67,-0.14,0.47
4.455103993415833,3,3,3,2,-9.67,-0.96,-1.5,0.97,-0.2,0.35
4.465103983879089,3,3,3,2,-9.720000000000001,-0.88,-1.59,1.09,-0.33,0.29
4.475103974342346,3,3,3,2,-9.67,-0.67,-1.57,0.9399999999999999,-0.29,0.31
4.485103964805603,3,3,3,2,-9.67,-0.76,-1.61,0.54,-0.06,0.45
4.49510395526886,3,3,3,2,-9.68,-0.89,-1.49,0.14,0.11,0.67
4.505103945732117,3,3,3,2,-9.56,-0.78,-1.42,0.25,0.02,0.62
4.515103936195374,3,3,3,2,-9.4,-0.43,-1.63,0.51,-0.02,0.38
4.52510392665863,3,3,3,2,-9.42,-0.39,-1.58,0.41,-0.12,0.22
4.535104155540466,3,3,3,2,-9.48,-0.37,-1.5,0.09,-0.22,0.1
4.545104146003723,3,3,3,2,-9.529999999999999,-0.31,-1.52,-0.32,-0.16,0.09
4.55510413646698,3,3,3,2,-9.9,-0.58,-1.41,-1.12,0.01,0.21
4.565104126930237,3,3,3,2,-9.91,-0.55,-1.49,-1.35,-0.01,0.26
4.575104117393494,3,3,3,2,-9.869999999999999,-0.62,-1.34,-1.26,0.01,0.17
4.58510410785675,3,3,3,2,-9.800000000000001,-0.74,-1.29,-1.13,-0.07000000000000001,0.11
4.595104098320007,3,3,3,2,-9.65,-0.64,-1.38,-0.84,-0.16,0.15
4.605104088783264,3,3,3,2,-9.619999999999999,-0.51,-1.38,-0.75,-0.31,0.17
4.615104079246521,3,3,3,2,-9.630000000000001,-0.51,-1.55,-1.16,-0.37,0.25
4.625104069709778,3,3,3,2,-9.65,-0.51,-1.48,-1.63,-0.23,0.39
4.635104060173035,3,3,3,2,-9.720000000000001,-0.92,-1.43,-2.01,-0.1,0.52
4.645104050636292,3,3,3,2,-9.69,-1,-1.53,-2.05,-0.03,0.57
4.655104041099548,3,3,3,2,-9.73,-1.02,-1.52,-1.45,-0.15,0.58
4.665104031562805,3,3,3,2,-9.699999999999999,-1.03,-1.61,-0.87,-0.35,0.6
4.675104022026062,3,3,3,2,-9.57,-1,-1.66,-0.45,-0.48,0.57
4.685104012489319,3,3,3,2,-9.59,-0.98,-1.73,-0.35,-0.51,0.62
4.695104002952576,3,3,3,3,-9.619999999999999,-0.92,-1.64,-0.43,-0.47,0.73
4.705103993415833,3,3,3,3,-9.550000000000001,-0.87,-1.51,-0.49,-0.43,0.8
4.715103983879089,3,3,3,3,-9.6,-0.72,-1.67,-0.4,-0.34,0.82
4.725103974342346,3,3,3,3,-9.68,-0.77,-1.47,-0.47,-0.35,0.84
4.735103964805603,3,3,3,3,-9.67,-0.68,-1.38,-0.57,-0.39,0.8100000000000001
4.74510395526886,3,3,3,3,-9.73,-0.68,-1.23,-0.6,-0.39,0.72
4.755103945732117,3,3,3,3,-9.84,-0.59,-1.38,-0.67,-0.33,0.63
4.765103936195374,3,3,3,3,-9.85,-0.65,-1.27,-0.88,-0.37,0.73
4.77510392665863,3,3,3,3,-9.77,-0.78,-1.14,-0.87,-0.29,0.77
4.785104155540466,3,3,3,3,-9.67,-0.77,-1.17,-0.45,-0.26,0.75
4.796104073524475,3,3,3,3,-9.539999999999999,-0.5,-1.34,-0.13,-0.3,0.63
4.806104063987732,3,3,3,3,-9.58,-0.39,-1.31,0.12,-0.41,0.67
4.816104054450989,3,3,3,3,-9.68,-0.25,-1.37,-0.17,-0.51,0.7
4.826104044914246,3,3,3,3,-9.77,-0.16,-1.28,-0.4,-0.46,0.72
4.836104035377502,3,3,3,3,-9.83,-0.08,-1.11,-0.51,-0.31,0.77
4.846104025840759,3,3,3,3,-9.82,-0.05,-1.14,-0.48,-0.25,0.68
4.856104016304016,3,3,3,3,-9.949999999999999,-0.15,-1.09,-0.4,-0.14,0.62
4.866104006767273,3,3,3,3,-9.94,-0.29,-1.14,-0.41,-0.17,0.64
4.87610399723053,3,3,3,3,-9.84,-0.21,-1.16,-0.21,-0.26,0.55
4.886103987693787,3,3,3,3,-9.77,-0.12,-1.17,-0.02,-0.27,0.4
4.896103978157043,3,3,3,3,-9.74,-0.11,-1.18,0.02,-0.24,0.25
4.9061039686203,3,3,3,3,-9.789999999999999,-0.26,-1.15,-0.27,-0.16,0.22
4.916103959083557,3,3,3,3,-9.73,-0.24,-1.33,-0.36,-0.14,0.29
4.926103949546814,3,3,3,3,-9.789999999999999,-0.45,-1.26,-0.49,0.08,0.31
4.936103940010071,3,3,3,3,-9.73,-0.64,-1.23,-0.38,0.12,0.31
4.96610414981842,3,3,3,3,-9.640000000000001,-0.44,-1.5,0.37,-0.17,0.19
4.976104140281677,3,3,3,3,-9.56,-0.35,-1.41,0.18,-0.14,0.14
4.986104130744934,3,3,3,3,-9.6,-0.32,-1.28,-0.18,0.03,0.2
4.996104121208191,3,3,3,3,-9.59,-0.39,-1.2,-0.4,0.18,0.22
5.006104111671448,3,3,3,3,-9.619999999999999,-0.27,-1.31,-0.53,0.16,0.16
5.016104102134705,3,3,3,3,-9.710000000000001,-0.2,-1.37,-0.51,0.15,0.07000000000000001
5.026104092597961,3,3,3,3,-9.699999999999999,-0.34,-1.33,-0.68,0.14,-0.01
5.036104083061218,3,3,3,3,-9.710000000000001,-0.19,-1.32,-0.77,0.15,0.09
5.046104073524475,3,3,3,3,-9.73,-0.23,-1.33,-0.9,0.22,0.07000000000000001
5.056104063987732,3,3,3,3,-9.76,-0.4,-1.29,-1.32,0.19,0.13
5.066104054450989,3,3,3,3,-9.73,-0.32,-1.43,-1.21,0.17,0.16
5.076104044914246,3,3,3,3,-9.710000000000001,-0.31,-1.39,-0.95,0.12,0.06
5.086104035377502,3,3,3,3,-9.699999999999999,-0.35,-1.34,-0.85,0.03,0
5.096104025840759,3,3,3,3,-9.65,-0.4,-1.29,-0.79,0.05,-0.02
5.106104016304016,3,3,3,3,-9.75,-0.5,-1.41,-0.67,0.16,0.08
5.116104006767273,3,3,3,3,-9.800000000000001,-0.55,-1.43,-0.75,0.14,0.18
5.12610399723053,3,3,3,3,-9.77,-0.64,-1.35,-0.79,0.11,0.2
5.136103987693787,3,3,3,3,-9.68,-0.61,-1.36,-0.39,0.02,0.07000000000000001
5.146103978157043,3,3,3,3,-9.77,-0.6899999999999999,-1.3,-0.26,0.01,-0.14
5.1561039686203,3,3,3,3,-9.869999999999999,-0.62,-1.34,-0.18,-0.17,-0.29
5.166103959083557,3,3,3,3,-9.949999999999999,-0.41,-1.47,0.03,-0.19,-0.48
5.176103949546814,3,3,3,3,-9.9,-0.28,-1.46,0.18,-0.23,-0.66
5.186103940010071,3,3,3,3,-9.75,-0.11,-1.44,0.07000000000000001,-0.14,-0.88
5.196103930473328,3,3,3,3,-9.68,0.05,-1.31,-0.14,-0.07000000000000001,-1.11
5.206103920936584,3,3,3,3,-9.69,0.02,-1.31,-0.5,0.1,-1.24
5.21610414981842,3,3,3,3,-9.710000000000001,0.01,-1.41,-0.88,0.27,-1.38
5.226104140281677,3,3,3,3,-9.779999999999999,0.01,-1.49,-0.99,0.41,-1.5
5.236104130744934,3,3,3,3,-9.74,-0.01,-1.5,-0.96,0.41,-1.67
5.246104121208191,3,3,3,3,-9.699999999999999,-0.1,-1.51,-1.05,0.37,-1.8
5.256104111671448,3,3,3,3,-9.710000000000001,-0.1,-1.55,-1.24,0.39,-1.87
5.266104102134705,3,3,3,3,-9.77,-0.34,-1.66,-1.47,0.46,-1.8
5.276104092597961,3,3,3,3,-9.69,-0.49,-1.56,-1.63,0.49,-1.69
5.286104083061218,3,3,3,3,-9.640000000000001,-0.47,-1.61,-1.42,0.48,-1.72
5.296104073524475,3,3,3,3,-9.65,-0.52,-1.65,-1.21,0.4,-1.83
5.306104063987732,3,3,3,3,-9.65,-0.75,-1.64,-1.02,0.35,-1.87
5.316104054450989,3,3,3,3,-9.609999999999999,-0.73,-1.72,-0.6899999999999999,0.15,-1.89
5.326104044914246,3,3,3,3,-9.57,-0.71,-1.71,-0.3,0.11,-1.91
5.336104035377502,3,3,3,3,-9.58,-0.57,-1.67,-0.12,0.06,-1.86
5.346104025840759,3,3,3,3,-9.619999999999999,-0.43,-1.61,-0.07000000000000001,0.01,-1.73
5.356104016304016,3,3,3,3,-9.619999999999999,-0.48,-1.53,-0.12,-0.16,-1.59
5.366104006767273,3,3,3,3,-9.6,-0.53,-1.57,-0.08,-0.11,-1.41
5.37610399723053,3,3,3,3,-9.539999999999999,-0.54,-1.57,0.04,-0.08,-1.18
5.386103987693787,3,3,3,3,-9.49,-0.62,-1.39,0,-0.11,-0.98
5.396103978157043,3,3,3,3,-9.529999999999999,-0.63,-1.32,-0.15,-0.06,-0.71
5.4061039686203,3,3,3,3,-9.44,-0.58,-1.31,-0.02,-0.22,-0.5600000000000001
5.416103959083557,3,3,3,3,-9.5,-0.58,-1.42,-0.08,-0.31,-0.42
5.426103949546814,3,3,3,3,-9.630000000000001,-0.71,-1.25,-0.09,-0.35,-0.26
5.436103940010071,3,3,3,3,-9.74,-0.71,-1.24,-0.11,-0.23,-0.11
5.446103930473328,3,3,3,3,-9.85,-0.87,-1.11,-0.16,-0.12,0.04
5.456103920936584,3,3,3,3,-9.82,-0.98,-1.19,-0.08,-0.11,0.15
5.46610414981842,3,3,3,3,-9.859999999999999,-1.05,-1.42,0.22,-0.05,0.19
5.476104140281677,3,3,3,3,-9.800000000000001,-1.03,-1.37,0.53,-0.22,0.24
5.486104130744934,3,3,3,3,-9.789999999999999,-1.05,-1.35,0.74,-0.32,0.3
5.496104121208191,3,3,3,3,-9.74,-1.04,-1.32,1.01,-0.46,0.33
5.506104111671448,3,3,3,3,-9.640000000000001,-0.95,-1.33,1.08,-0.44,0.29
5.516104102134705,3,3,3,3,-9.65,-0.95,-1.4,1.2,-0.49,0.29
5.526104092597961,3,3,3,3,-9.619999999999999,-0.96,-1.37,1.07,-0.37,0.35
5.536104083061218,3,3,3,3,-9.720000000000001,-1.03,-1.33,0.89,-0.14,0.43
5.546104073524475,3,3,3,3,-9.710000000000001,-0.96,-1.29,0.97,-0.17,0.51
5.556104063987732,3,3,3,3,-9.74,-0.83,-1.14,1.04,-0.22,0.43
5.566104054450989,3,3,3,3,-9.720000000000001,-0.76,-1.21,1.2,-0.27,0.4
5.576104044914246,3,3,3,3,-9.68,-0.7,-1.23,1.07,-0.28,0.42
5.586104035377502,3,3,3,3,-9.6,-0.51,-1.05,0.76,-0.28,0.47
5.596104025840759,3,3,3,3,-9.56,-0.38,-0.96,0.4,-0.26,0.66
5.606104016304016,3,3,3,3,-9.57,-0.35,-1,0.08,-0.05,0.78
5.616104006767273,3,3,3,3,-9.67,-0.34,-1.03,-0.05,0.07000000000000001,0.86
5.62610399723053,3,3,3,3,-9.69,-0.33,-1.06,-0.16,0,0.89
5.636103987693787,3,3,3,3,-9.779999999999999,-0.43,-1.14,-0.26,-0.15,0.93
5.646103978157043,3,3,3,3,-9.880000000000001,-0.59,-1.2,-0.4,-0.25,0.95
5.6561039686203,3,3,3,3,-9.94,-0.74,-1.17,-0.41,-0.38,0.9399999999999999
5.666103959083557,3,3,3,3,-9.76,-0.8,-1.39,-0.12,-0.34,1.01
5.676103949546814,3,3,3,3,-9.720000000000001,-0.84,-1.37,0.1,-0.26,0.96
5.686103940010071,3,3,3,3,-9.699999999999999,-0.78,-1.34,0.31,-0.31,0.87
5.696103930473328,3,3,3,3,-9.77,-0.74,-1.04,0.42,-0.25,0.85
5.706103920936584,3,3,3,3,-9.69,-0.68,-1.11,0.5600000000000001,-0.19,0.86
5.71610414981842,3,3,3,3,-9.68,-0.5,-1.2,0.79,-0.25,0.79
5.726104140281677,3,3,3,3,-9.67,-0.2,-1.07,1.03,-0.41,0.72
5.736104130744934,3,3,3,3,-9.58,0.22,-0.8100000000000001,0.97,-0.58,0.75
5.746104121208191,3,3,3,3,-9.539999999999999,0.5,-0.7,0.8,-0.57,0.87
5.756104111671448,3,3,3,3,-9.449999999999999,0.93,-0.55,0.66,-0.64,1.08
5.766104102134705,3,3,3,3,-9.35,1.45,-0.47,0.53,-0.85,1.22
5.776104092597961,3,3,3,3,-9.289999999999999,2.08,-0.24,0.23,-1.07,1.37
5.786104083061218,3,3,3,3,-9.49,2.27,-0.43,-0.18,-1.13,1.64
5.796104073524475,3,3,3,3,-9.77,2.06,-0.33,-1.05,-1.2,2.14
5.806104063987732,3,3,3,3,-10.05,1.35,-0.05,-2.38,-1.05,2.97
5.817103981971741,3,3,3,3,-9.56,0.35,-0.61,-2.74,-1.15,3.8
5.827103972434998,3,3,3,3,-9.43,0,-0.58,-2.51,-0.98,4.07
5.837103962898254,3,3,3,3,-9.300000000000001,0,-0.57,-1.67,-1.39,4
5.847103953361511,3,3,3,3,-9.220000000000001,0.34,-0.51,-0.32,-1.93,3.83
5.857103943824768,3,3,3,3,-9.1,1.57,-0.29,1.32,-2.46,3.71
5.867103934288025,3,3,3,3,-8.949999999999999,2.23,0.3,2.36,-3.28,3.65
5.877103924751282,3,3,3,3,-8.609999999999999,3.29,0.87,3.14,-4.06,3.77
5.887104153633118,3,3,3,3,-8.289999999999999,4.57,1.49,4.06,-4.68,4.17
5.897104144096375,3,3,3,3,-7.8,6.74,1.85,4.37,-5,4.8
5.907104134559631,3,3,3,3,-7.69,7.33,1.67,3.34,-5.2,5.71
5.917104125022888,3,3,3,3,-7.67,6.25,1.48,-0.1,-4.96,6.94
5.927104115486145,3,3,3,3,-7.67,3.89,1.19,-4.4,-4.35,8.18
5.937104105949402,3,3,3,3,-7.85,0.61,0.12,-6.44,-3.7,9.210000000000001
5.947104096412659,3,3,3,3,-8.09,-0.34,-0.02,-5.03,-3.7,9.67
5.957104086875916,3,3,3,3,-8.44,-0.53,-0.15,-1.21,-4.15,9.35
5.967104077339172,3,3,3,3,-8.5,-0.16,-0.55,3.83,-4.97,8.800000000000001
5.987104058265686,3,3,3,3,-7.7,0.33,-1.4,6.45,-4.89,8.23
5.997104048728943,3,3,3,3,-7.81,-0.33,-2.33,5.43,-2.73,8.48
6.0071040391922,3,3,3,3,-7.54,-1.35,-3.33,3.97,-1.81,8.76
6.017104029655457,3,3,3,3,-7.96,0.03,-2.26,3.75,-3.03,8.869999999999999
6.027104020118713,3,3,3,3,-8.85,1.37,-1.12,4.88,-4.67,8.720000000000001
6.03710401058197,3,3,3,3,-10.09,2.84,-0.84,5.51,-3.58,8.69
6.047104001045227,3,3,3,3,-11.27,3.45,-0.86,4,-2.27,9
6.057103991508484,3,3,3,3,-10.88,1.38,-1.94,1.48,-1.37,8.93
6.067103981971741,3,3,3,3,-9.44,0.5600000000000001,-1.4,-1.8,-1.4,8.359999999999999
6.077103972434998,3,3,3,3,-8.470000000000001,0.02,-1.4,-2.29,-1.18,8.279999999999999
6.087103962898254,3,3,3,3,-8.369999999999999,0.11,-1.7,-1.18,-0.39,8.199999999999999
6.097103953361511,3,3,3,3,-9.210000000000001,0.53,-2.12,-0.35,-0.51,8.06
6.107103943824768,3,3,3,3,-9.699999999999999,0.66,-2.27,-0.9,-0.6,8.4
6.117103934288025,3,3,3,3,-10.21,-0.1,-2.39,-1.8,0.47,8.380000000000001
6.127103924751282,3,3,3,3,-10.53,-0.67,-2.33,-3.4,1.46,7.48
6.137104153633118,3,3,3,3,-11.34,0.79,-1.6,-3.25,1.89,6.13
6.147104144096375,3,3,3,2,-11.95,2.31,-1.66,-1.55,1.91,4.53
6.157104134559631,3,3,3,2,-12.6,2.37,-2.06,-1.24,2.17,3.63
6.167104125022888,3,3,3,2,-13.34,1.17,-2.19,-3.07,3.09,3.8
6.177104115486145,3,3,3,2,-13.92,-1.54,-2.62,-5.29,3.61,4.03
6.187104105949402,3,3,3,2,-14.61,-1.76,-2.3,-5.04,3.83,3.5
6.197104096412659,3,3,3,2,-14.98,-1.67,-1.58,-3.26,3.55,1.78
6.207104086875916,3,3,3,2,-15.42,-1.21,-1.24,-1.58,3.41,0.07000000000000001
6.217104077339172,3,3,3,2,-16.4,-1.6,-0.27,-1.13,3.65,-0.98
6.227104067802429,3,3,3,2,-17.03,-2.81,-0.01,-2.04,3.97,-1.53
6.237104058265686,3,3,3,2,-17.45,-3.87,0.38,-3.07,4.07,-2.33
6.247104048728943,3,3,3,2,-17.95,-4.7,0.33,-2.91,3.82,-3.15
6.2571040391922,3,3,3,2,-19.23,-6.27,-0.93,-2.78,2.82,-4.13
6.267104029655457,3,3,3,2,-19.88,-6.32,-1.03,-2.37,1.38,-5.81
6.277104020118713,3,3,3,2,-20.95,-6.36,-0.95,-2.05,-0.38,-7.28
6.28710401058197,3,3,3,2,-22.14,-6.68,-0.91,-2.41,-1.52,-8.24
6.297104001045227,3,3,3,1,-23.36,-7.57,-1.39,-3.31,-1.99,-9.050000000000001
6.307103991508484,3,3,3,1,-22.93,-8.369999999999999,-2.48,-4.2,-1.49,-9.92
6.317103981971741,3,3,3,1,-22.76,-9.380000000000001,-3.18,-3.39,-0.25,-11.31
6.327103972434998,3,3,3,1,-22.81,-10.01,-3.64,-3.45,1.12,-13.35
6.337103962898254,3,3,3,1,-22.68,-9.85,-7.37,-4.61,1.82,-15.18
6.347103953361511,3,3,3,1,-22.51,-7.93,-7.72,-0.18,2.25,-16.58
6.357103943824768,3,3,3,1,-22.82,-3.22,-7.74,6.43,2.39,-17.48
6.367103934288025,3,3,3,1,-22.61,2.38,-6.74,12.59,1.58,-17.72
6.377103924751282,3,3,3,1,-18.01,14.14,-4.39,17.72,1.41,-17.26
6.387104153633118,3,3,3,1,-13.91,17.07,-3.67,19.59,3.15,-16.42
6.397104144096375,3,3,3,1,-10.29,15.57,-3.95,15.8,6.54,-16.15
6.407104134559631,3,3,3,1,-6.11,5.83,-0.38,8.43,9.460000000000001,-16.01
6.417104125022888,3,3,3,1,-4.97,6.95,3.25,7.58,11.05,-13.77
6.427104115486145,3,3,3,1,-2.44,13.28,8.75,15.57,8.619999999999999,-10.93
6.437104105949402,3,3,3,1,-0.6899999999999999,24.01,14.09,19.8,3.94,-9.27
6.447104096412659,3,3,3,1,-1.27,38.71,10.71,16.54,0.37,-4.74
6.457104086875916,3,3,3,1,1.69,25.17,6.1,-4.85,-0.2,-1.66
6.467104077339172,3,3,3,1,1.83,3.15,-1.25,-28.36,2.45,-2.23
6.477104067802429,3,3,3,1,0.98,-10.23,-3.9,-33.5,4.12,4.96
6.487104058265686,3,3,3,1,-4.31,-12.13,-2.36,-18.05,3.87,8.300000000000001
6.497104048728943,3,3,3,1,-2.66,-7.14,-2.37,1.83,-1.65,5.04
6.5071040391922,3,3,3,1,0.27,-5.37,-3.62,14.92,-6.81,3.32
6.517104029655457,3,3,3,1,1.82,-4.5,-4.55,13.83,-7.85,5.36
6.527104020118713,3,3,3,1,2.79,-4.46,-3.64,7.58,-7.1,6.73
6.53710401058197,3,3,3,1,2.21,-3.77,-3.29,4.61,-5.33,5.8
6.547104001045227,3,3,3,1,1.2,-3.63,-2.56,3.67,-3.9,2.76
6.557103991508484,3,3,3,1,-0.03,-3.08,-1.57,3.55,-3.23,0.02
6.567103981971741,3,3,3,1,-0.86,-0.59,-0.23,4.42,-3.39,-0.72
6.577103972434998,3,3,3,1,-0.34,0.47,-0.08,4.8,-2.76,-0.18
6.587103962898254,3,3,3,1,0.85,1.34,0.06,4.7,-1.33,-0.28
6.597103953361511,3,3,3,1,1.41,2.12,0.13,3.46,-0.49,-0.65
6.607103943824768,3,3,3,1,0.6,3.85,0.36,2.96,0.25,-0.05
6.617103934288025,3,3,3,1,-0.2,3.47,1,0.19,0.74,0.41
6.627103924751282,3,3,3,1,-0.95,2.91,1.49,-3.02,0.72,1.27
6.637104153633118,3,3,3,1,-1.58,2.4,1.52,-5.5,1.09,2.3
6.647104144096375,3,3,3,1,-1.74,1.02,1.06,-6.64,1.73,2.4
6.657104134559631,3,3,3,1,-1.41,0.35,0.59,-5.93,1.62,1.92
6.667104125022888,3,3,3,1,-1.27,-0.07000000000000001,0.68,-4.27,1.24,1.32
6.677104115486145,3,3,3,1,-1.07,-0.36,1.02,-2.47,0.93,0.84
6.687104105949402,3,3,3,1,-0.49,-0.34,0.51,-0.98,0.54,0.82
6.697104096412659,3,3,3,1,-0.09,-0.42,0.19,1.56,0.43,1.17
6.707104086875916,3,3,3,1,0.21,-0.36,-0.01,4.1,0.03,1.77
6.717104077339172,3,3,3,1,0.45,-0.02,-0.28,6.18,-0.64,2.41
6.727104067802429,3,3,3,1,0.68,2.28,-1.76,6.56,-1.1,2.92
6.737104058265686,3,3,3,1,-0.06,1.96,-1.11,2.12,-0.01,3.72
6.747104048728943,3,3,3,1,-2.04,2.04,5.2,-3.17,0.74,4.8
6.7571040391922,3,3,3,1,0.07000000000000001,6.57,6.78,1.34,-4.31,5.31
6.767104029655457,3,3,3,1,-3.77,12.15,-14.63,11.44,-3.98,3.85
6.777104020118713,3,3,3,1,-10.4,-8.48,-17.69,-5.91,7.9,1.35
6.78710401058197,3,3,3,1,-24.98,-19.29,-1.89,-35.6,0.34,-1.22
6.797104001045227,3,3,3,2,-39.24,-2.35,-2.48,-4.7,-18.88,3.78
6.807103991508484,3,3,3,2,-39.2,38.71,14.12,46.95,-0.5600000000000001,15.98
6.817103981971741,3,3,3,2,-17.9,38.71,26.51,129.09,-3.3,21.46
6.827103972434998,3,3,3,2,-4.7,-5.34,-23.17,-26.5,8.56,5.77
6.837103962898254,3,3,3,2,-3.27,-39.73,-22.55,-143.62,9.699999999999999,-2.8
6.848104119300842,3,3,3,2,-38.64,-39.7,-21.05,-111.58,15.52,33.43
6.858104109764099,3,3,3,2,3.22,-39.65,-28.78,-51.38,38.92,41.04
6.868104100227356,3,3,3,2,1.6,-25.02,-6.24,22.45,-12.54,27.86
6.878104090690613,3,3,3,2,-5.99,-17.24,-19.85,76.63,-24.67,16.1
6.88810408115387,3,3,3,2,-10.77,21.98,-9.43,87.40000000000001,-33.16,-0.8100000000000001
6.898104071617126,3,3,3,2,-11.48,17.01,-3.2,81.06,-26.58,-19.64
6.908104062080383,3,3,3,2,-20.82,28.23,2.5,47.95,-19.87,-33.93
6.91810405254364,3,3,3,2,-39.24,28.71,-7.72,2.5,-5.89,-11.86
6.928104043006897,3,3,3,2,-9.74,3.51,-1.36,-42.34,14.99,17.5
6.938104033470154,3,3,3,2,4.79,-8.26,-3.76,-40.69,8.08,-14.16
6.948104023933411,3,3,3,2,2.85,-11.89,-2.26,-41.65,10.78,-18.48
6.958104014396667,3,3,3,2,-0.84,-8.970000000000001,-0.18,-30.94,9.449999999999999,-10.1
6.968104004859924,3,3,3,2,-12.33,-1.51,0.23,-20.61,6.63,-5.64
6.978103995323181,3,3,3,2,-14.46,-1.4,-0.55,-14.2,4.57,-6.31
6.988103985786438,3,3,3,2,-15.22,-2.64,-1.03,-11.18,3.15,-8.970000000000001
6.998103976249695,3,3,3,2,-13.85,-4.19,-1.34,-6.81,4.08,-10.64
7.008103966712952,3,3,3,2,-7.62,-3.15,-2.32,-1.47,4.69,-10.44
7.018103957176208,3,3,3,2,-4.59,-2.35,-2.85,3.9,4.28,-9.02
7.028103947639465,3,3,3,2,-4.03,-1.06,-3.33,7.82,3.6,-6.89
7.038103938102722,3,3,3,2,-4.53,0.45,-3.13,9.41,3.48,-5.92
7.048103928565979,3,3,3,2,-5.2,2.52,-2.13,8.65,2.72,-5.77
7.058104157447815,3,3,3,2,-6.33,3.27,-1.08,7.25,1.99,-4.93
7.068104147911072,3,3,3,2,-7.58,3.76,0.01,5.98,2.01,-4.2
7.078104138374329,3,3,3,2,-10.57,6.45,1.71,5.46,1.64,-3.76
7.088104128837585,3,3,3,2,-11.38,7.15,1.89,5.12,2.03,-3.3
7.098104119300842,3,3,3,2,-10.8,6.99,1.8,-0.76,2.7,-3.94
7.108104109764099,3,3,3,2,-9.25,6.22,1.75,-0.76,2.7,-3.94
7.118104100227356,3,3,3,2,-6.87,4.25,1.14,-2.41,2.81,-4.3
7.128104090690613,3,3,3,2,-7.18,3.28,0.37,-2.65,2.69,-3.97
7.13810408115387,3,3,3,2,-8,2.88,-0.28,-1.85,2.34,-2.4
7.148104071617126,3,3,3,2,-8.76,2.87,-0.66,0.95,0.66,1.74
7.158104062080383,3,3,3,2,-8.970000000000001,2.92,-1.48,0.95,0.66,1.74
7.16810405254364,3,3,3,2,-9.33,2.31,-1.62,0.5,0.27,2.33
7.178104043006897,3,3,3,2,-9.800000000000001,1.72,-1.68,-2.99,0.28,0.9
7.188104033470154,3,3,3,2,-10.48,1.19,-1.85,-4.74,0.7,-0.39
7.198104023933411,3,3,3,2,-10.78,-0.58,-2.16,-6.6,1.44,-1.5
7.208104014396667,3,3,3,2,-10.59,-2.22,-2.33,-6.6,1.44,-1.5
7.218104004859924,3,3,3,2,-10.43,-3.2,-2.76,-7.84,2.52,-2.25
7.228103995323181,3,3,3,2,-10.4,-3.51,-2.5,-6.09,2.05,-2.73
7.238103985786438,3,3,3,2,-10.2,-3.11,-2.15,-3.88,1.59,-2.97
7.248103976249695,3,3,3,2,-10.15,-2.63,-2.03,-2.05,1.27,-2.93
7.258103966712952,3,3,3,2,-10.22,-2.22,-1.97,-0.58,1.28,-2.73
7.268103957176208,3,3,3,2,-10.15,-1.76,-2,0.62,1.17,-2.67
7.278103947639465,3,3,3,2,-9.77,-0.74,-1.84,1.5,0.89,-2.82
7.288103938102722,3,3,3,2,-9.68,-0.14,-1.76,2,0.77,-3.01
7.298103928565979,3,3,3,2,-9.529999999999999,0.44,-1.81,2.02,0.75,-3.2
7.308104157447815,3,3,3,2,-9.31,0.99,-1.79,1.65,0.64,-3.6
7.318104147911072,3,3,3,2,-9.029999999999999,1.52,-1.59,1.01,0.46,-3.94
7.328104138374329,3,3,3,2,-9.09,1.53,-1.33,0.36,0.58,-3.94
7.338104128837585,3,3,3,2,-9.23,1.42,-1.19,-0.18,0.54,-3.77
7.348104119300842,3,3,3,2,-9.300000000000001,1.29,-1.01,-0.66,0.62,-3.32
7.358104109764099,3,3,3,2,-9.59,0.85,-0.82,-0.53,0.75,-2.79
7.368104100227356,3,3,3,2,-9.6,0.8100000000000001,-1.01,-0.19,0.65,-2.42
7.378104090690613,3,3,3,2,-9.52,0.58,-1.01,-0.03,0.37,-2.07
7.38810408115387,3,3,3,2,-9.470000000000001,0.42,-0.95,0.57,0.15,-1.75
7.398104071617126,3,3,3,2,-9.35,0.96,-1.17,1.35,-0.16,-1.56
7.408104062080383,3,3,3,2,-9.31,1.48,-1.18,1.65,-0.37,-1.41
7.41810405254364,3,3,3,2,-9.199999999999999,1.75,-1.24,0.88,-0.38,-1.14
7.428104043006897,3,3,3,2,-9.27,1.68,-1.17,-0.28,-0.26,-0.73
7.438104033470154,3,3,3,2,-9.42,1.18,-1.05,-1.78,-0.02,-0.27
7.448104023933411,3,3,3,2,-9.52,0.63,-0.84,-2.7,0.09,0.06
7.458104014396667,3,3,3,2,-9.57,0.25,-0.97,-2.13,0,0.09
7.468104004859924,3,3,3,2,-9.609999999999999,0.21,-1.28,-1.31,-0.37,-0.05
7.478103995323181,3,3,3,2,-9.77,0.01,-1.45,-0.96,-0.77,-0.04
7.488103985786438,3,3,3,2,-9.75,-0.04,-1.56,-1,-0.9399999999999999,0.23
7.498103976249695,3,3,3,2,-9.640000000000001,-0.27,-1.52,-1.54,-0.55,0.6
7.508103966712952,3,3,3,2,-9.56,-0.79,-1.37,-1.36,-0.31,0.89
7.518103957176208,3,3,3,2,-9.35,-0.61,-1.65,-0.73,-0.34,0.87
7.528103947639465,3,3,3,2,-9.4,-0.21,-1.45,-0.19,-0.66,0.65
7.538103938102722,3,3,3,2,-9.4,0.07000000000000001,-1.09,-0.03,-1.03,0.51
7.548103928565979,3,3,3,2,-9.33,0.46,-0.76,0.16,-1.42,0.45
7.558104157447815,3,3,3,2,-9.289999999999999,1.39,-0.52,0.09,-1.49,0.46
7.568104147911072,3,3,3,2,-9.48,1.71,-0.45,-0.27,-1.5,0.53
7.578104138374329,3,3,3,2,-9.52,2.03,-0.27,-0.34,-1.75,0.7
7.588104128837585,3,3,3,2,-9.390000000000001,2.41,-0.06,-0.08,-2.02,0.86
7.598104119300842,3,3,3,2,-8.83,3.27,0.4,0.44,-2.45,1.08
7.608104109764099,3,3,3,2,-8.56,3.87,0.5,0.83,-3,1.45
7.618104100227356,3,3,3,2,-8.220000000000001,4.74,0.22,0.34,-3.49,2.18
7.628104090690613,3,3,3,2,-7.99,5.35,0.63,-0.83,-3.56,3.34
7.63810408115387,3,3,3,2,-7.37,5.25,0.55,-2.44,-3.09,4.62
7.648104071617126,3,3,3,2,-7.6,4.43,0.73,-4.06,-2.18,5.86
7.658104062080383,3,3,3,2,-8.06,2.88,1.1,-5,-2,6.68
7.66810405254364,3,3,3,2,-8.4,1.96,0.38,-3.93,-2.29,6.82
7.678104043006897,3,3,3,2,-9.25,1.93,-1.37,-2.07,-3.14,6.79
7.688104033470154,3,3,3,2,-9.65,1.27,-1,-1.84,-3.81,7.17
7.698104023933411,3,3,3,2,-9.949999999999999,0.58,-0.75,-1.19,-3.99,7.66
7.708104014396667,3,3,3,2,-9.57,0.03,-1.29,-0.37,-3.51,7.69
7.718104004859924,3,3,3,2,-9.02,0.3,-1.36,1.42,-4.2,7.57
7.728103995323181,3,3,3,2,-8.58,-0.05,-0.9,2.93,-4.87,7.34
7.738103985786438,3,3,3,2,-8.35,-1,-0.62,3.81,-4.89,7.34
7.748103976249695,3,3,3,2,-8.01,-2.37,-0.83,4.3,-3.95,7.54
7.758103966712952,3,3,3,2,-7.91,-3.03,-2.36,4.74,-3.04,7.94
7.768103957176208,3,3,3,2,-7.45,-2.74,-2.8,4.55,-3.51,8.029999999999999
7.778103947639465,3,3,3,2,-7.42,-1.91,-2.78,5.08,-3.14,8.119999999999999
7.788103938102722,3,3,3,2,-8.26,-1.19,-2.45,5.84,-3.1,8.119999999999999
7.798103928565979,3,3,3,2,-8.68,-1.15,-2.55,5.92,-2.65,7.79
7.808104157447815,3,3,3,2,-9.09,-0.24,-2.48,6.21,-1.88,7.36
7.818104147911072,3,3,3,2,-9.84,1.08,-2.68,5.51,-0.72,7.05
7.828104138374329,3,3,3,2,-10.97,2.54,-2.05,3.81,-0.32,7.23
7.838104128837585,3,3,3,2,-11.28,2.98,-1.51,2.07,-0.08,7.4
7.848104119300842,3,3,3,2,-11.32,2.96,-1.18,-1.01,-0.09,7.07
7.858104109764099,3,3,3,2,-11.52,2.27,-1.8,-4.54,0.57,6.41
7.869104027748108,3,3,3,2,-12.08,-1.31,-2.28,-7.3,1.36,5.85
7.879104018211365,3,3,3,2,-11.8,-2.71,-2.53,-7.65,1.93,5.25
7.889104008674622,3,3,3,2,-11.66,-3.62,-2.86,-6.58,2.58,4.37
7.899103999137878,3,3,3,2,-12.15,-4.46,-3.1,-5.7,2.54,3.91
7.909103989601135,3,3,3,2,-13.4,-4.46,-3.42,-3.44,2.32,3.83
7.919103980064392,3,3,3,2,-14.11,-4.2,-3.43,-1.1,2.02,2.93
7.929103970527649,3,3,3,2,-15.05,-3.4,-2.97,0.87,0.89,1.14
7.939103960990906,3,3,3,2,-16.29,-2.3,-2.46,1.53,0.49,-0.47
7.949103951454163,3,3,3,2,-19.08,-2.44,-2.08,1.38,0.62,-1.38
7.959103941917419,3,3,3,2,-20.23,-2.99,-1.57,0.62,-0.05,-1.76
7.969103932380676,3,3,3,2,-21.54,-4.21,-1.08,-1.06,0.09,-2.57
7.979103922843933,3,3,3,2,-22.02,-5.76,-0.57,-2.83,-0.07000000000000001,-4.02
7.989104151725769,3,3,3,2,-21.18,-7.68,-0.1,-3.69,-0.23,-5.86
7.999104142189026,3,3,3,2,-21.5,-8.699999999999999,-0.09,-4.39,-0.78,-7.85
8.009104132652283,3,3,3,2,-22.28,-9.99,-0.8100000000000001,-4.39,-1.37,-8.91
8.01910412311554,3,3,3,2,-22.69,-11.08,-2.31,-3.13,-1.46,-9.94
8.029104113578796,3,3,3,2,-23,-12.81,-6.85,0.58,-0.93,-10.99
8.039104104042053,3,3,3,2,-24.08,-12.16,-7.49,5.82,0.3,-12.44
8.04910409450531,3,3,3,1,-24.7,-10.01,-8.460000000000001,7.26,1.07,-14.91
8.059104084968567,3,3,3,1,-24.69,-6.07,-10.38,10.62,1.41,-16.72
8.069104075431824,3,3,3,1,-23.84,2.47,-8.76,13.1,2.74,-17.78
8.079104065895081,3,3,3,1,-21.89,6.5,-7.38,16.38,4.04,-17.82
8.089104056358337,3,3,3,1,-18.3,11.61,-5.81,18.82,4.77,-18.46
8.099104046821594,3,3,3,1,-15.3,14.43,-4.25,14.69,6.88,-19.11
8.109104037284851,3,3,3,1,-8.99,8.550000000000001,-1.85,9.15,8.380000000000001,-18.5
8.119104027748108,3,3,3,1,-6.91,4.48,-0.2,14.31,9.390000000000001,-17.59
8.129104018211365,3,3,3,1,-4.39,7.3,3.83,33.73,3.83,-17.11
8.139104008674622,3,3,3,1,-1.85,19.77,10.29,34.41,-1.61,-16.01
8.149103999137878,3,3,3,0,-3.09,38.71,18.87,17.34,-0.84,-8.380000000000001
8.159103989601135,3,3,3,0,2.8,37.1,12.69,-14.25,2.19,-3.89
8.169103980064392,3,3,3,0,3.97,14.54,3.55,-39.68,4.99,3.11
8.179103970527649,3,3,3,0,0.44,-6.12,-4.21,-34.63,4.46,14.15
8.189103960990906,3,3,3,0,-3.74,-16.09,-3.37,-15.03,-0.02,13.71
8.199103951454163,3,3,3,0,-3.78,-12.52,-3.34,5.23,-7.06,8.26
8.209103941917419,3,3,3,0,-1.16,-7.26,-2.96,16.09,-11.33,5.26
8.219103932380676,3,3,3,0,0.59,-3.78,-5.34,13.82,-11,4.71
8.229103922843933,3,3,3,0,2.39,-0.76,-4.55,5.89,-9.43,5.05
8.239104151725769,3,3,3,0,2.05,-0.92,-4.18,-0.48,-6.6,4.45
8.249104142189026,3,3,3,0,1.58,-1.41,-3.66,-4.94,-3.82,2.07
8.259104132652283,3,3,3,0,0.45,-2.2,-3.17,-7.19,-1.4,0.04
8.26910412311554,3,3,3,0,-1.47,-2.65,-2.07,-7.03,-1.19,-0.08
8.279104113578796,3,3,3,0,-1.02,-1.74,-0.97,-5.32,-1.64,0.41
8.289104104042053,3,3,3,0,-0.11,-0.47,0.07000000000000001,-4.46,-1.33,0.98
8.29910409450531,3,3,3,0,0.77,0.73,0.42,-5.11,-0.58,1.09
8.309104084968567,3,3,3,0,0.73,1.23,0.7,-5.76,0.25,0.74
8.319104075431824,3,3,3,0,0.19,1.06,0.95,-6.39,0.54,0.36
8.329104065895081,3,3,3,0,-0.18,0.63,1.2,-7.81,0.11,0.88
8.339104056358337,3,3,3,0,-0.74,0.28,1.33,-7.47,0.27,1.66
8.349104046821594,3,3,3,1,-1.59,1.71,1.03,-5.84,0.6,2.22
8.359104037284851,3,3,3,1,-1.68,2.77,0.79,-4.43,0.83,2.26
8.369104027748108,3,3,3,1,-1.41,3.49,0.75,-4.54,0.43,2
8.379104018211365,3,3,3,1,-1.08,3.42,0.89,-5.74,0.18,2.09
8.389104008674622,3,3,3,1,-0.78,2.1,1.11,-6.59,0.49,2.56
8.399103999137878,3,3,3,1,-0.58,1.22,1.05,-7.25,0.66,3.06
8.409103989601135,3,3,3,1,-0.22,0.27,0.68,-7.17,0.77,3.47
8.419103980064392,3,3,3,1,0.09,-0.51,0.07000000000000001,-5.91,1.07,3.86
8.429103970527649,3,3,3,1,-0.06,-1.92,-0.51,-4.05,1.21,4.12
8.439103960990906,3,3,3,1,-0.16,-2.48,-0.49,-2.39,0.16,4.09
8.449103951454163,3,3,3,1,-0.1,-2.66,-0.41,-0.52,-1.55,3.96
8.459103941917419,3,3,3,1,0.21,-2.27,-0.83,1.99,-1.78,4.01
8.479103922843933,3,3,3,1,-0.87,5.74,4.82,14.82,-4.51,5.61
8.489104151725769,3,3,3,1,-1.22,14.73,-1.52,21.57,-0.54,6.05
8.499104142189026,3,3,3,1,-4.31,7.95,-16.75,-10.99,4.39,3.82
8.509104132652283,3,3,3,1,-36.73,-21.25,8.56,-4.83,-18.76,5.04
8.51910412311554,3,3,3,1,-39.24,27.54,-1.33,134.61,-13.23,27.07
8.529104113578796,3,3,3,1,-23.07,38.71,3.92,62.99,8.140000000000001,21.06
8.539104104042053,3,3,3,1,5.42,-39.73,-33.19,-140.1,18.56,-7.69
8.54910409450531,3,3,3,2,17.59,-39.73,-26.88,-137.64,12.32,35.94
8.559104084968567,3,3,3,2,-24.42,-39.6,-7.19,-77.29000000000001,51.95,40.72
8.569104075431824,3,3,3,2,-18.51,-39.73,-37.34,-25.49,-0.53,37.32
8.579104065895081,3,3,3,2,-10.58,-7.24,-22.31,100.6,-43.13,24.27
8.589104056358337,3,3,3,2,-10.29,9.34,-19.06,100.31,-43.91,-1.41
8.599104046821594,3,3,3,2,-21.05,32.08,-4.48,115.07,-26.79,-25.01
8.609104037284851,3,3,3,2,-31.91,36.7,5.62,59.45,-16.7,-35.64
8.619104027748108,3,3,3,2,-36.88,26.31,-7.37,-20.24,0.25,13.09
8.629104018211365,3,3,3,2,-17.57,-0.88,-8.69,-69.13,9.609999999999999,9.35
8.639104008674622,3,3,3,2,-5.99,-21.52,-6.66,-73.43000000000001,12.8,-15.38
8.649103999137878,3,3,3,2,-2.39,-28.19,-4.05,-52.63,14.53,-11.89
8.659103989601135,3,3,3,2,-6.86,-19.42,-3.36,-28.51,7.47,-6.87
8.669103980064392,3,3,3,2,-10.92,-9.119999999999999,-1.31,-7.76,0.42,-4.79
8.679103970527649,3,3,3,2,-14.9,-2.28,-1.04,5.27,-3.16,-6.65
8.689103960990906,3,3,3,2,-20.1,1.11,-2.24,9.41,-1.56,-9.609999999999999
8.699103951454163,3,3,3,2,-15.99,1.53,-2.8,9.210000000000001,0.54,-11.76
8.709103941917419,3,3,3,2,-10.64,0.27,-2.52,7.42,2.15,-12.71
8.719103932380676,3,3,3,2,-7.68,-1.38,-1.97,4.64,3.86,-11.23
8.729103922843933,3,3,3,2,-6.41,-1.21,-1.94,4.13,3.66,-8.44
8.739104151725769,3,3,3,2,-6.65,1.34,-1.95,4.08,2.63,-7.14
8.749104142189026,3,3,3,1,-7.21,1.64,-1.75,3.74,2.38,-7.12
8.759104132652283,3,3,3,1,-7.69,1.44,-1.61,3.44,2.74,-6.64
8.76910412311554,3,3,3,1,-7.68,1.66,-1.67,4.05,2.54,-5.85
8.779104113578796,3,3,3,1,-6.75,2.72,-1.37,4.67,2.49,-5.36
8.789104104042053,3,3,3,1,-6.32,3,-1,3.89,2.92,-5.45
8.79910409450531,3,3,3,1,-6.06,3.11,-0.54,1.52,3.25,-5.82
8.809104084968567,3,3,3,1,-5.82,3.2,-0.24,-1.29,3.47,-6.28
8.819104075431824,3,3,3,1,-6.11,1.93,-0.09,-3.56,3.7,-6.41
8.829104065895081,3,3,3,1,-6.68,1.28,0,-4.21,3.95,-6.37
8.839104056358337,3,3,3,1,-7.2,1.35,-0.02,-3.09,3.6,-6.17
8.849104046821594,3,3,3,1,-7.79,2.01,0.11,-0.62,2.84,-5.64
8.859104037284851,3,3,3,1,-9.130000000000001,4.73,1.03,1.61,1.23,-4.82
8.869104027748108,3,3,3,1,-9.949999999999999,6.38,1.17,1.78,0.43,-3.52
8.879104018211365,3,3,3,1,-10.52,7.85,1.07,0.33,1.01,-2.23
8.890103936195374,3,3,3,1,-10.68,7.93,0.9399999999999999,-3.88,2.22,-1.35
8.90010392665863,3,3,3,1,-9.449999999999999,3.89,0.29,-8.31,3.43,-1.15
8.910104155540466,3,3,3,1,-9.119999999999999,2.02,-0.38,-10.41,4.19,-1.18
8.920104146003723,3,3,3,1,-8.890000000000001,0.84,-1.13,-10.66,3.83,-1.35
8.93010413646698,3,3,3,1,-9.050000000000001,-0.93,-1.35,-10.93,3.61,-1.77
8.940104126930237,3,3,3,1,-10.71,-4.01,-2.47,-9.199999999999999,3.45,-1.86
8.950104117393494,3,3,3,1,-11.16,-4.37,-2.77,-5.68,2.97,-2.07
8.96010410785675,3,3,3,1,-10.92,-4.24,-2.97,-1.25,2.16,-2.65
8.970104098320007,3,3,3,1,-10.22,-3.54,-3.16,2.55,0.98,-2.97
8.980104088783264,3,3,3,1,-9.9,-1.8,-3.11,4.69,0.11,-3.02
8.990104079246521,3,3,3,1,-10.01,-1.5,-2.82,5.13,-0.32,-2.92
9.000104069709778,3,3,3,1,-9.970000000000001,-1.42,-2.4,4.96,-0.27,-2.68
9.010104060173035,3,3,3,1,-9.91,-1.39,-2.46,5.46,-0.48,-2.54
9.020104050636292,3,3,3,1,-9.539999999999999,-0.54,-1.79,6.44,-0.74,-2.74
9.030104041099548,3,3,3,1,-9.539999999999999,-0.11,-1.59,5.73,0.04,-2.93
9.040104031562805,3,3,3,1,-9.4,0.18,-1.34,5.21,0.53,-3.43
9.050104022026062,3,3,3,1,-9.24,0.57,-1.31,5.57,0.48,-3.81
9.060104012489319,3,3,3,1,-9.039999999999999,1.64,-1.06,5.22,0.39,-4.16
9.070104002952576,3,3,3,1,-9.17,1.93,-1.07,3.91,0.36,-4.2
9.080103993415833,3,3,3,1,-9.27,1.67,-1.04,1.89,0.55,-4.1
9.090103983879089,3,3,3,1,-9.4,1.38,-1.01,0.41,0.79,-3.92
9.100103974342346,3,3,3,1,-9.390000000000001,0.99,-1.06,-0.51,0.9,-3.88
9.110103964805603,3,3,3,1,-9.369999999999999,0.77,-1,-0.61,0.65,-3.76
9.12010395526886,3,3,3,1,-9.359999999999999,0.62,-1.1,-0.1,0.27,-3.65
9.130103945732117,3,3,3,1,-9.32,0.8100000000000001,-1.01,1,-0.39,-3.49
9.140103936195374,3,3,3,1,-9.359999999999999,1.77,-0.98,1.26,-0.66,-3.18
9.15010392665863,3,3,3,1,-9.460000000000001,1.72,-0.59,0.36,-0.72,-2.55
9.160104155540466,3,3,3,1,-9.52,1.68,-0.5,0.12,-0.68,-1.75
9.170104146003723,3,3,3,1,-9.57,1.86,-0.65,-0.07000000000000001,-0.6899999999999999,-1.01
9.18010413646698,3,3,3,1,-9.67,1.52,-0.45,-0.65,-0.61,-0.29
9.190104126930237,3,3,3,1,-9.710000000000001,1.02,-0.46,-1.02,-0.48,0.48
9.200104117393494,3,3,3,2,-9.609999999999999,0.6899999999999999,-0.4,-0.74,-0.59,1.21
9.21010410785675,3,3,3,2,-9.49,0.64,-0.46,-0.07000000000000001,-0.95,1.83
9.220104098320007,3,3,3,2,-9.43,0.6,-0.66,-0.1,-1,2.41
9.230104088783264,3,3,3,2,-9.52,0.24,-0.62,-0.5,-1,3.04
9.240104079246521,3,3,3,2,-9.56,0.06,-0.76,-0.32,-1.13,3.68
9.250104069709778,3,3,3,2,-9.380000000000001,0.44,-1.05,0.14,-1.42,3.93
9.260104060173035,3,3,3,2,-9.289999999999999,0.52,-1.16,0.08,-1.68,3.98
9.270104050636292,3,3,3,2,-9.300000000000001,0.4,-1.17,-0.31,-1.68,3.98
9.280104041099548,3,3,3,2,-9.289999999999999,0.36,-1.47,-0.48,-1.86,3.95
9.290104031562805,3,3,3,2,-9.51,0.04,-1.36,-1.41,-1.82,4
9.300104022026062,3,3,3,2,-9.65,-0.87,-1,-2.88,-1.58,4.26
9.310104012489319,3,3,3,2,-9.720000000000001,-1.11,-1.3,-2.59,-1.55,4.38
9.320104002952576,3,3,3,2,-9.67,-0.8,-1.59,-0.9399999999999999,-1.63,4.02
9.330103993415833,3,3,3,2,-9.33,-0.13,-1.61,0.17,-2.1,3.52
9.340103983879089,3,3,3,2,-9.300000000000001,-0.12,-1.18,-0.06,-2.35,3.16
9.350103974342346,3,3,3,2,-9.07,0.2,-0.6899999999999999,0.08,-2.61,3.32
9.360103964805603,3,3,3,2,-8.66,1.02,-0.45,0.7,-2.78,3.42
9.37010395526886,3,3,3,2,-7.62,2.87,-0.13,0.93,-2.81,3.44
9.380103945732117,3,3,3,2,-7.62,3.24,0.03,0.26,-2.73,3.7
9.390103936195374,3,3,3,2,-7.98,3.51,-0.23,-1.05,-2.68,4.21
9.40010392665863,3,3,3,3,-8.67,3.27,-0.15,-3.27,-2.77,4.92
9.410104155540466,3,3,3,3,-10.53,1.5,0.19,-4.61,-2.6,5.7
9.420104146003723,3,3,3,3,-10.58,0.51,-0.38,-5.06,-2.53,6.13
9.43010413646698,3,3,3,3,-10.09,-0.2,-0.62,-3.6,-2.42,5.8
9.440104126930237,3,3,3,3,-9.23,-0.22,-0.71,-1.31,-2.92,4.9
9.450104117393494,3,3,3,3,-8.24,0.88,-0.13,0.42,-3.18,4.54
9.46010410785675,3,3,3,3,-7.69,2.02,-0.48,2.28,-3.89,4.82
9.470104098320007,3,3,3,3,-7.14,2.01,-0.05,1.25,-4.57,5.43
9.480104088783264,3,3,3,3,-6.96,1.01,0.01,-1.06,-3.51,6.53
9.490104079246521,3,3,3,3,-6.86,-0.38,-1.84,-2.02,-2.15,7.56
9.500104069709778,3,3,3,3,-7.04,-0.72,-2.16,-1.33,-1.7,8.15
9.510104060173035,3,3,3,3,-7.27,-0.5,-1.99,-0.11,-3.24,7.77
9.520104050636292,3,3,3,3,-8.09,0.77,-1.12,3.78,-4.77,7.26
9.530104041099548,3,3,3,3,-11.31,3.67,-0.13,6.58,-4.87,6.96
9.540104031562805,3,3,3,3,-12.48,4.94,-0.32,7.05,-4.27,6.83
9.550104022026062,3,3,3,3,-12.4,5.06,-0.17,5.05,-3.72,6.72
9.560104012489319,3,3,3,3,-11.04,4.31,0.11,2.3,-2.84,6.56
9.570104002952576,3,3,3,3,-8.24,2.52,-0.7,-0.18,-2.21,7.17
9.580103993415833,3,3,3,3,-7.65,1.5,-1.43,-2.16,-1.82,8.44
9.590103983879089,3,3,3,3,-7.66,0.21,-1.41,-2.91,-1.31,9.49
9.600103974342346,3,3,3,3,-7.98,-1.13,-1.12,-3.43,-0.47,9.710000000000001
9.610103964805603,3,3,3,3,-9.130000000000001,-3.63,-2.67,-4.31,0.2,9.279999999999999
9.62010395526886,3,3,3,3,-9.220000000000001,-3.36,-2.29,-2.11,-0.63,8.23
9.630103945732117,3,3,3,3,-9.279999999999999,-2.14,-1.86,1.22,-0.76,6.96
9.640103936195374,3,3,3,3,-9.27,-0.63,-1.31,3.82,-0.18,6.2
9.65010392665863,3,3,3,3,-9.300000000000001,2.44,-1.51,5.35,0.25,5.9
9.660104155540466,3,3,3,3,-9.539999999999999,3.92,-1.59,6.01,-0.22,6.06
9.670104146003723,3,3,3,3,-10.21,4.25,-2.45,4.14,-0.42,6
9.68010413646698,3,3,3,3,-11.07,3.23,-2.63,0.77,-0.18,5.46
9.690104126930237,3,3,3,3,-12.74,0.38,-3.28,-2.2,1.29,4.85
9.700104117393494,3,3,3,3,-13.19,-1.29,-3.22,-4.63,2.25,3.93
9.71010410785675,3,3,3,3,-13.04,-2.32,-2.38,-4.9,2.73,2.67
9.720104098320007,3,3,3,3,-13.7,-0.99,-2.32,-2.97,3.24,2.04
9.730104088783264,3,3,3,3,-13.65,-0.01,-0.16,-1.78,2.74,1.67
9.740104079246521,3,3,3,3,-14.87,0.15,-0.26,-0.68,2.29,1.52
9.750104069709778,3,3,3,3,-16.26,-0.51,-0.05,-0.74,2.04,1.38
9.760104060173035,3,3,3,3,-17.35,-2.1,0.11,-1.69,1.77,0.64
9.770104050636292,3,3,3,3,-17.75,-4.26,-0.36,-1.94,1.8,-0.78
9.780104041099548,3,3,3,3,-17.58,-4.57,-0.21,-0.95,1.22,-2.85
9.790104031562805,3,3,3,3,-17.82,-4.62,-0.06,0.47,0.21,-4.81
9.800104022026062,3,3,3,2,-18.42,-4.71,0.03,1.34,-0.83,-5.4
9.810104012489319,3,3,3,2,-19.47,-5.12,0,1.18,-1.85,-5.3
9.820104002952576,3,3,3,2,-19.87,-5.13,0.04,0.59,-2.84,-5.55
9.830103993415833,3,3,3,2,-20.14,-5.29,-0.19,-0.27,-3.64,-6.57
9.840103983879089,3,3,3,2,-20.51,-5.78,-0.92,-1.9,-4.06,-7.82
9.850103974342346,3,3,3,2,-21.11,-8.19,-3.32,-3.46,-4.18,-8.94
9.860103964805603,3,3,3,2,-21.33,-9.58,-5.1,-3.25,-3.55,-9.94
9.87010395526886,3,3,3,2,-21.5,-10.65,-7.16,-0.36,-2.31,-10.86
9.880103945732117,3,3,3,2,-22.39,-10.21,-7.83,4.81,-0.07000000000000001,-12.55
9.890103936195374,3,3,3,2,-23.38,-4.27,-8.82,6.31,1.51,-15.86
9.90010392665863,3,3,3,2,-23.19,-0.31,-8.92,8.470000000000001,1.45,-17.92
9.910104155540466,3,3,3,2,-23.22,4.49,-6.47,11.88,1.81,-18.59
9.921104073524475,3,3,3,2,-22.16,8.699999999999999,-5.19,11.97,2.24,-18.76
9.931104063987732,3,3,3,2,-15.19,14.55,-2.49,11.13,3.79,-18.4
9.941104054450989,3,3,3,2,-11.91,14.43,-2.1,7.1,7.08,-18.15
9.951104044914246,3,3,3,2,-9.039999999999999,10.99,-0.84,-0.43,8.92,-17.26
9.961104035377502,3,3,3,2,-6.51,6,0.45,-3.59,9.76,-14.98
9.971104025840759,3,3,3,2,-2.6,3.73,2.74,4.44,10.03,-12.38
9.981104016304016,3,3,3,2,-0.55,9,7.43,15.32,6.32,-10.88
9.991104006767273,3,3,3,2,-0.13,20.04,12.46,18.53,1.92,-10.1
10.00110399723053,3,3,3,1,0.23,37.4,11.86,12.64,1.21,-5.66
10.01110398769379,3,3,3,1,2.52,22.67,7.03,-7.33,2.9,-1.58
10.02110397815704,3,3,3,1,2.12,8.08,0.27,-19.41,5.76,2.67
10.0311039686203,3,3,3,1,0.82,-2.36,-4.12,-22.44,5.03,9.09
10.04110395908356,3,3,3,1,-2.73,-8.779999999999999,-3.85,-13.99,0.7,10.39
10.05110394954681,3,3,3,1,-2.85,-6.81,-2.65,-3.46,-5.99,8.01
10.06110394001007,3,3,3,1,-2.27,-4.5,-2.56,4.52,-10.24,5.52
10.07110393047333,3,3,3,1,-1.71,-3.63,-3.06,4.44,-9.74,4.78
10.08110392093658,3,3,3,1,-0.87,-3.68,-2.71,1.28,-7.75,5.34
10.09110414981842,3,3,3,1,-0.26,-2.91,-2.64,0.29,-6.04,5.02
10.10110414028168,3,3,3,1,0.1,-2.24,-2.02,1.28,-4.2,3.12
10.11110413074493,3,3,3,1,0.18,-2.02,-1.35,2.52,-2.9,1.01
10.12110412120819,3,3,3,1,-0.09,-1.03,-0.62,3.81,-2.36,0.16
10.13110411167145,3,3,3,1,0.22,-0.47,-0.29,5.29,-1.8,-0.02
10.1411041021347,3,3,3,1,0.59,0.59,0.48,6.42,-1.59,0.36
10.15110409259796,3,3,3,1,1.23,1.4,0.9,6.32,-1.2,0.72
10.16110408306122,3,3,3,1,1.75,3.28,1.12,5.66,-0.73,1.44
10.17110407352448,3,3,3,1,1.59,3.62,1.29,3.97,0.32,2.05
10.18110406398773,3,3,3,1,1.14,3.67,1.35,0.64,0.64,2.58
10.19110405445099,3,3,3,1,0.44,3.33,1.12,-3,0.73,2.82
10.20110404491425,3,3,3,1,-0.92,1.85,0.36,-4.89,0.85,2.65
10.2111040353775,3,3,3,1,-1.53,1.33,0.58,-4.96,0.5600000000000001,2.24
10.22110402584076,3,3,3,1,-1.75,0.74,0.63,-5.23,-0.08,1.55
10.23110401630402,3,3,3,1,-1.71,0.39,0.31,-5.02,-0.12,1.03
10.24110400676727,3,3,3,1,-1.02,0.36,-0.61,-3.62,0.4,0.9
10.25110399723053,3,3,3,2,-0.3,0.77,-1.45,-3.19,0.58,1.15
10.26110398769379,3,3,3,2,0.36,1.77,-2.31,-4.23,1.22,1.83
10.27110397815704,3,3,3,2,0.14,2.35,-2.55,-9.119999999999999,3.28,3.25
10.2811039686203,3,3,3,2,-1.75,-2.08,6.14,-11.21,4.07,5.03
10.29110395908356,3,3,3,2,-0.15,1.81,8.31,-3.96,0.76,4.81
10.30110394954681,3,3,3,2,1.57,11.03,0.77,6.7,-2.88,2.82
10.31110394001007,3,3,3,2,-3.06,13.56,-8.449999999999999,-1.14,7.99,1.25
10.32110393047333,3,3,3,2,-18.59,-25.27,-2.74,-33.34,6.68,-0.32
10.34110414981842,3,3,3,2,-39.24,14.79,-8.32,26.37,-7.82,13.84
10.35110414028168,3,3,3,2,-39.24,20.59,-2.38,25.98,1.57,11.83
10.36110413074493,3,3,3,2,-39.24,38.71,16.41,76.06,-3.33,14.35
10.37110412120819,3,3,3,2,-13.02,38.62,20.58,50.54,2.29,21.6
10.38110411167145,3,3,3,2,-12.61,-6.1,-22.51,-89.81,8.26,-4.81
10.3911041021347,3,3,3,2,-0.73,-39.73,-30.11,-144.5,5.28,10.74
10.40110409259796,3,3,3,2,-30.75,-39.71,-30.81,-75.97,19.75,32.75
10.41110408306122,3,3,3,2,14.97,-39.58,-18.21,-25.45,16.54,41.04
10.42110407352448,3,3,3,2,-5.09,-28.19,-19.67,58.46,-24.21,13.17
10.43110406398773,3,3,3,2,-6.49,-13.32,-20,77.77,-31.43,-0.83
10.44110405445099,3,3,3,2,-18.77,13.34,-8.32,96.95999999999999,-30.12,-11.62
10.45110404491425,3,3,3,3,-29.63,25.45,3.63,97.42,-19.97,-25.85
10.4611040353775,3,3,3,3,-39.24,38.71,-4.58,68.23,-15.52,-13.62
10.47110402584076,3,3,3,3,-38.27,38.71,-6.14,-2.12,10.01,34.16
10.48110401630402,3,3,3,3,-0.41,-16.05,-15.38,-65.15000000000001,16.23,-7.76
10.49110400676727,3,3,3,3,10.97,-27.25,-8.279999999999999,-83.16,10.86,-27.18
10.50110399723053,3,3,3,3,6.94,-27.28,-5.23,-52.99,8.91,-16.35
10.51110398769379,3,3,3,3,-2.27,-19.29,-2.56,-24.8,7.76,-7.65
10.52110397815704,3,3,3,3,-13.27,-0.8,-1.24,-7.86,3.74,-0.87
10.5311039686203,3,3,3,3,-15.77,2.54,-1.52,-0.73,1.38,-0.42
10.54110395908356,3,3,3,3,-15.52,2.88,-1.81,2.29,1.59,-6.13
10.55110394954681,3,3,3,3,-12.77,1.94,-1.82,3.42,1.66,-12.04
10.56110394001007,3,3,3,3,-6.09,1.13,-1.45,3.96,2.35,-13.33
10.57110393047333,3,3,3,3,-4.14,1.09,-1.51,3.06,3.74,-11.3
10.58110392093658,3,3,3,3,-3.6,1.64,-1.59,1.49,5.21,-8.31
10.59110414981842,3,3,3,3,-4.12,1.86,-1.25,-0.16,5.14,-5.48
10.60110414028168,3,3,3,3,-6.62,1.78,-0.67,-1.48,4.31,-3.89
10.61110413074493,3,3,3,3,-8.050000000000001,2.42,0.38,-1.44,3.27,-2.86
10.62110412120819,3,3,3,3,-9.31,3.76,1.45,-0.2,3.06,-2.34
10.63110411167145,3,3,3,3,-9.890000000000001,5.29,2.35,1.47,3.12,-2.43
10.6411041021347,3,3,3,3,-9.109999999999999,7.22,4.27,0.93,3.06,-2.84
10.65110409259796,3,3,3,3,-8.390000000000001,6.3,4,-2.62,3.39,-4.09
10.66110408306122,3,3,3,3,-8.07,4.54,3.68,-7.74,4.41,-4.79
10.67110407352448,3,3,3,3,-8.07,2.87,2.74,-9.949999999999999,4.76,-3.79
10.68110406398773,3,3,3,3,-8.800000000000001,0.35,0.9399999999999999,-8.52,4.63,-1.8
10.69110405445099,3,3,3,3,-9.33,0.05,0.19,-5.16,3.73,-0.32
10.70110404491425,3,3,3,3,-9.84,0.46,-0.89,-0.49,2.75,0.6
10.7111040353775,3,3,3,3,-9.779999999999999,1.26,-2.27,2.14,2.26,1.02
10.72110402584076,3,3,3,3,-9.31,1.79,-2.83,3.58,1.45,1.04
10.73110401630402,3,3,3,3,-9.289999999999999,2.43,-2.87,3.56,0.91,0.29
10.74110400676727,3,3,3,3,-9.529999999999999,3.31,-3.1,2.6,1,-0.7
10.75110399723053,3,3,3,2,-9.960000000000001,2.62,-2.32,-0.36,1.8,-1.45
10.76110398769379,3,3,3,2,-9.609999999999999,1.72,-1.66,-3.22,2.35,-2.15
10.77110397815704,3,3,3,2,-9.41,0.84,-1.21,-5.93,2.84,-2.97
10.7811039686203,3,3,3,2,-9.619999999999999,0.21,-0.91,-7.27,3.31,-3.6
10.79110395908356,3,3,3,2,-9.779999999999999,-1.01,-0.75,-7.32,3.16,-4.09
10.80110394954681,3,3,3,2,-9.85,-1.27,-0.72,-6.1,2.89,-4.15
10.81110394001007,3,3,3,2,-9.699999999999999,-1.04,-1.03,-4.01,2.62,-3.62
10.82110393047333,3,3,3,2,-9.35,-0.26,-1.02,-1.93,1.82,-3.05
10.83110392093658,3,3,3,2,-9.18,1.11,-1.25,-0.05,1.41,-2.38
10.84110414981842,3,3,3,2,-9.210000000000001,1.17,-1.41,0.39,1.35,-1.62
10.85110414028168,3,3,3,2,-9.140000000000001,1.59,-1.47,0.48,1.17,-1.24
10.86110413074493,3,3,3,2,-9.17,2.11,-1.52,0.22,0.9,-1.25
10.87110412120819,3,3,3,2,-9.390000000000001,2.32,-1.56,-1.23,1.05,-1.28
10.88110411167145,3,3,3,2,-9.470000000000001,2.34,-1.41,-2.16,0.86,-1.4
10.8911041021347,3,3,3,2,-9.58,1.89,-1.31,-3.3,1.07,-1.65
10.90110409259796,3,3,3,2,-9.710000000000001,1.69,-1.26,-4.15,1.19,-1.76
10.91110408306122,3,3,3,2,-9.68,1.63,-1.38,-3.92,1.06,-1.74
10.92110407352448,3,3,3,2,-9.69,1.56,-1.58,-3.63,0.96,-1.6
10.94210398197174,3,3,3,2,-9.460000000000001,1.43,-1.72,-2.53,0.63,-1.25
10.952103972435,3,3,3,2,-9.44,0.92,-1.78,-2.15,0.7,-0.93
10.96210396289825,3,3,3,2,-9.460000000000001,1.05,-1.55,-1.84,0.47,-0.6
10.97210395336151,3,3,3,2,-9.56,1,-1.63,-1.39,0.42,-0.5
10.98210394382477,3,3,3,2,-9.720000000000001,0.58,-1.78,-1.45,0.44,-0.48
10.99210393428802,3,3,3,2,-9.800000000000001,-0.5600000000000001,-1.89,-1.48,0.31,-0.43
11.00210392475128,3,3,3,2,-9.76,-0.91,-2.06,-1.01,0.26,-0.45
11.01210415363312,3,3,3,2,-9.710000000000001,-0.98,-2.27,-0.13,0.28,-0.63
11.02210414409637,3,3,3,2,-9.65,-1.02,-2.33,0.8100000000000001,0.27,-0.77
11.03210413455963,3,3,3,2,-9.529999999999999,-0.41,-2.37,1.71,0.36,-0.86
11.04210412502289,3,3,3,2,-9.57,0.1,-2.27,2.58,0.31,-1.02
11.05210411548615,3,3,3,2,-9.52,0.33,-2.27,2.96,0.18,-1.26
11.0621041059494,3,3,3,2,-9.52,0.52,-2.13,2.53,0.19,-1.35
11.07210409641266,3,3,3,2,-9.6,1.08,-1.88,2.15,0.33,-1.28
11.08210408687592,3,3,3,2,-9.630000000000001,1.27,-1.73,1.92,0.31,-1.29
11.09210407733917,3,3,3,2,-9.67,1.17,-1.6,1.48,0.38,-1.39
11.10210406780243,3,3,3,2,-9.630000000000001,1.04,-1.51,1.04,0.4,-1.26
11.11210405826569,3,3,3,2,-9.68,0.91,-1.36,0.93,0.46,-1.19
11.12210404872894,3,3,3,2,-9.67,0.74,-1.42,1.04,0.26,-0.93
11.1321040391922,3,3,3,2,-9.65,0.66,-1.47,1.27,-0.04,-0.74
11.14210402965546,3,3,3,2,-9.65,0.44,-1.56,1.53,-0.3,-0.54
11.15210402011871,3,3,3,2,-9.77,-0.12,-1.71,1.58,-0.52,-0.28
11.16210401058197,3,3,3,2,-9.76,-0.26,-1.87,1.91,-0.64,-0.04
11.17210400104523,3,3,3,2,-9.68,-0.2,-2,2.36,-0.9,0
11.18210399150848,3,3,3,2,-9.550000000000001,-0.1,-2.01,2.69,-1.06,-0.12
11.19210398197174,3,3,3,2,-9.56,-0.3,-1.98,2.54,-0.8100000000000001,-0.21
11.202103972435,3,3,3,2,-9.56,-0.16,-1.96,2.19,-0.54,-0.26
11.21210396289825,3,3,3,2,-9.619999999999999,0.02,-1.89,2.13,-0.36,-0.42
11.22210395336151,3,3,3,2,-9.699999999999999,-0.25,-1.88,1.8,-0.29,-0.45
11.23210394382477,3,3,3,2,-9.710000000000001,-0.13,-1.83,1.46,-0.14,-0.36
11.24210393428802,3,3,3,2,-9.68,0.13,-1.79,1.62,-0.11,-0.39
11.25210392475128,3,3,3,2,-9.68,0.17,-1.72,1.7,-0.1,-0.48
11.26210415363312,3,3,3,2,-9.66,0.26,-1.57,1.69,-0.18,-0.48
11.27210414409637,3,3,3,2,-9.51,0.49,-1.68,1.73,-0.23,-0.53
11.28210413455963,3,3,3,2,-9.619999999999999,0.13,-1.57,1.35,-0.21,-0.55
11.29210412502289,3,3,3,2,-9.710000000000001,-0.1,-1.51,0.9399999999999999,-0.17,-0.42
11.30210411548615,3,3,3,2,-9.69,-0.1,-1.53,1.09,-0.2,-0.25
11.3121041059494,3,3,3,2,-9.51,-0.31,-1.71,1.41,-0.3,-0.05
11.32210409641266,3,3,3,2,-9.66,-0.95,-2.03,0.78,-0.17,0.03
11.33210408687592,3,3,3,2,-9.69,-0.8,-2.05,0.72,0.04,0.2
11.34210407733917,3,3,3,2,-9.609999999999999,-0.22,-1.96,1.49,-0.2,0.27
11.35210406780243,3,3,3,2,-9.619999999999999,-0.15,-1.92,1.93,-0.33,0.22
11.36210405826569,3,3,3,2,-9.619999999999999,0.01,-1.99,2.07,-0.34,0.1
11.37210404872894,3,3,3,2,-9.6,-0.17,-2.02,1.97,-0.42,0.01
11.3821040391922,3,3,3,2,-9.789999999999999,-1.02,-1.9,0.89,-0.2,0.17
11.39210402965546,3,3,3,2,-9.789999999999999,-0.8100000000000001,-1.91,0.84,0.09,0.36
11.40210402011871,3,3,3,2,-9.720000000000001,-0.71,-1.88,1.35,0.07000000000000001,0.19
11.41210401058197,3,3,3,2,-9.640000000000001,-0.5600000000000001,-1.86,1.64,-0.22,-0.05
11.42210400104523,3,3,3,2,-9.6,-0.13,-1.98,1.89,-0.4,-0.28
11.43210399150848,3,3,3,2,-9.51,0.12,-1.9,1.84,-0.44,-0.4
11.44210398197174,3,3,3,2,-9.619999999999999,-0.2,-1.69,1.48,-0.36,-0.29
11.452103972435,3,3,3,2,-9.67,-0.24,-1.68,0.66,0.11,0.02
11.46210396289825,3,3,3,2,-9.640000000000001,-0.09,-1.64,0.5,0.11,0.14
11.47210395336151,3,3,3,2,-9.699999999999999,-0.21,-1.67,0.64,0.07000000000000001,0.05
11.48210394382477,3,3,3,2,-9.710000000000001,-0.23,-1.69,0.87,-0.21,0
11.49210393428802,3,3,3,2,-9.69,-0.18,-1.69,0.83,-0.41,-0.02
11.50210392475128,3,3,3,2,-9.630000000000001,-0.16,-1.77,0.79,-0.45,0.07000000000000001
11.51210415363312,3,3,3,2,-9.67,-0.37,-1.79,0.78,-0.34,0.18
11.52210414409637,3,3,3,2,-9.66,-0.6,-2,0.55,-0.17,0.26
11.53210413455963,3,3,3,2,-9.609999999999999,-0.73,-2.06,0.48,-0.08,0.27
11.54210412502289,3,3,3,2,-9.640000000000001,-0.84,-2,0.52,-0.14,0.15
11.55210411548615,3,3,3,3,-9.68,-0.88,-1.94,0.23,-0.1,0
11.5621041059494,3,3,3,3,-9.710000000000001,-0.78,-1.95,0.26,-0.14,-0.12
11.57210409641266,3,3,3,3,-9.69,-0.54,-1.99,0.57,-0.09,-0.24
11.58210408687592,3,3,3,3,-9.59,-0.43,-1.72,0.58,-0.19,-0.41
11.59210407733917,3,3,3,3,-9.539999999999999,-0.26,-1.61,0.65,-0.17,-0.39
11.60210406780243,3,3,3,3,-9.550000000000001,-0.14,-1.47,0.6,-0.05,-0.4
11.61210405826569,3,3,3,3,-9.619999999999999,-0.04,-1.42,0.37,0.05,-0.38
11.62210404872894,3,3,3,3,-9.74,0.17,-1.52,0.1,0.01,-0.35
11.6321040391922,3,3,3,3,-9.75,0.21,-1.54,-0.09,0.1,-0.3
11.64210402965546,3,3,3,3,-9.74,0.21,-1.51,-0.05,0.14,-0.23
11.65210402011871,3,3,3,3,-9.720000000000001,0.03,-1.38,0.01,0.04,-0.14
11.66210401058197,3,3,3,3,-9.67,0.01,-1.48,0.05,0.12,-0.02
11.67210400104523,3,3,3,3,-9.640000000000001,0.05,-1.55,0.28,0.18,0.02
11.68210399150848,3,3,3,3,-9.67,0.18,-1.61,0.72,0.11,0.01
11.69210398197174,3,3,3,3,-9.76,0.27,-1.51,0.93,0.01,-0.02
11.702103972435,3,3,3,3,-9.779999999999999,0.39,-1.62,0.88,0.01,-0.04
11.71210396289825,3,3,3,3,-9.800000000000001,0.26,-1.64,0.84,-0.12,-0.04
11.72210395336151,3,3,3,3,-9.73,0.17,-1.74,0.73,-0.14,0.06
11.73210394382477,3,3,3,3,-9.65,0.07000000000000001,-1.75,0.67,-0.1,0.03
11.74210393428802,3,3,3,3,-9.57,-0.31,-1.76,0.67,-0.07000000000000001,-0.01
11.75210392475128,3,3,3,3,-9.56,-0.35,-1.83,0.7,-0.05,-0.07000000000000001
11.76210415363312,3,3,3,3,-9.57,-0.19,-1.78,0.91,-0.24,-0.19
11.77210414409637,3,3,3,3,-9.609999999999999,-0.1,-1.96,1.12,-0.27,-0.32
11.78210413455963,3,3,3,3,-9.58,-0.11,-1.81,1,-0.33,-0.38
11.79210412502289,3,3,3,3,-9.57,-0.05,-1.72,0.34,-0.17,-0.4
11.80210411548615,3,3,3,3,-9.51,0.05,-1.68,0.05,-0.04,-0.43
11.8121041059494,3,3,3,3,-9.56,0.1,-1.59,-0.11,-0.03,-0.57
11.82210409641266,3,3,3,3,-9.67,0,-1.72,-0.23,0.03,-0.55
11.83210408687592,3,3,3,3,-9.720000000000001,0.01,-1.72,-0.21,0.04,-0.59
11.84210407733917,3,3,3,3,-9.74,0.08,-1.68,-0.07000000000000001,0,-0.54
11.85210406780243,3,3,3,3,-9.77,0.07000000000000001,-1.7,0.07000000000000001,-0.01,-0.49
11.86210405826569,3,3,3,3,-9.69,0.01,-1.71,0.03,-0.15,-0.45
11.87210404872894,3,3,3,3,-9.65,-0.06,-1.76,0.25,-0.2,-0.49
11.8821040391922,3,3,3,3,-9.66,-0.13,-1.8,0.3,-0.19,-0.5
11.89210402965546,3,3,3,3,-9.58,-0.22,-1.74,0.41,-0.23,-0.49
11.90210402011871,3,3,3,3,-9.66,-0.34,-1.67,0.47,-0.09,-0.42
11.91210401058197,3,3,3,3,-9.66,-0.41,-1.68,0.48,-0.02,-0.37
11.92210400104523,3,3,3,3,-9.67,-0.49,-1.77,0.74,-0.1,-0.19
11.93210399150848,3,3,3,3,-9.720000000000001,-0.73,-1.8,0.5,-0.07000000000000001,-0.21
11.94210398197174,3,3,3,3,-9.619999999999999,-0.73,-1.75,0.4,-0.08,-0.18
11.952103972435,3,3,3,3,-9.66,-0.82,-1.75,0.28,-0.19,-0.09
11.96310412883759,3,3,3,3,-9.630000000000001,-0.62,-1.7,0.28,-0.19,-0.09
11.97310411930084,3,3,3,3,-9.619999999999999,-0.51,-1.81,0.41,-0.31,-0.19
11.9831041097641,3,3,3,3,-9.619999999999999,-0.38,-1.68,0.29,-0.2,-0.28
11.99310410022736,3,3,3,3,-9.619999999999999,-0.22,-1.6,0.15,-0.2,-0.32
12.00310409069061,3,3,3,3,-9.65,-0.09,-1.54,0.1,-0.19,-0.32
12.01310408115387,3,3,3,3,-9.68,-0.11,-1.54,-0.04,-0.22,-0.33
12.02310407161713,3,3,3,3,-9.710000000000001,-0.09,-1.59,-0.24,-0.2,-0.33
12.03310406208038,3,3,3,3,-9.710000000000001,-0.11,-1.57,-0.31,-0.16,-0.39
12.04310405254364,3,3,3,3,-9.699999999999999,-0.19,-1.51,-0.31,-0.18,-0.32
12.0531040430069,3,3,3,3,-9.710000000000001,-0.3,-1.54,-0.17,-0.08,0
12.06310403347015,3,3,3,3,-9.67,-0.31,-1.55,-0.17,-0.08,0
12.07310402393341,3,3,3,3,-9.640000000000001,-0.45,-1.69,-0.05,-0.05,0.01
12.08310401439667,3,3,3,3,-9.720000000000001,-0.52,-1.65,-0.05,-0.05,0.01
12.09310400485992,3,3,3,3,-9.74,-0.57,-1.66,0.24,-0.01,-0.01
12.10310399532318,3,3,3,3,-9.68,-0.5,-1.63,0.31,-0.2,-0.04
12.11310398578644,3,3,3,3,-9.630000000000001,-0.45,-1.6,0.31,-0.2,-0.04
12.12310397624969,3,3,3,3,-9.609999999999999,-0.45,-1.68,0.25,-0.2,-0.08
12.13310396671295,3,3,3,3,-9.66,-0.46,-1.57,0.25,-0.08,-0.12
12.14310395717621,3,3,3,3,-9.69,-0.48,-1.56,0.32,-0.03,-0.04
12.15310394763947,3,3,3,3,-9.69,-0.5,-1.57,0.32,0.03,-0.07000000000000001
12.16310393810272,3,3,3,3,-9.699999999999999,-0.59,-1.58,0.35,0.01,-0.11
12.17310392856598,3,3,3,3,-9.710000000000001,-0.68,-1.64,0.45,-0.09,-0.11
12.18310415744781,3,3,3,3,-9.640000000000001,-0.52,-1.69,0.64,-0.1,-0.13
12.19310414791107,3,3,3,3,-9.59,-0.42,-1.63,0.49,-0.13,-0.11
12.20310413837433,3,3,3,3,-9.640000000000001,-0.42,-1.57,0.4,-0.05,-0.12
12.21310412883759,3,3,3,3,-9.66,-0.26,-1.58,0.28,0,-0.1
12.22310411930084,3,3,3,3,-9.65,-0.2,-1.65,0.15,-0.01,-0.04
12.2331041097641,3,3,3,3,-9.69,-0.26,-1.58,0.12,0.12,0.01
12.24310410022736,3,3,3,3,-9.710000000000001,-0.26,-1.55,0.08,0.13,0
12.25310409069061,3,3,3,3,-9.710000000000001,-0.1,-1.51,0.15,0.11,0.05
12.26310408115387,3,3,3,3,-9.66,-0.11,-1.54,-0.05,0.16,0.05
12.27310407161713,3,3,3,3,-9.640000000000001,-0.09,-1.6,-0.26,0.18,0.16
12.28310406208038,3,3,3,3,-9.619999999999999,-0.11,-1.6,-0.37,0.17,0.29
12.31310403347015,3,3,3,3,-9.59,0.23,-1.33,-0.75,0.14,0.54
12.32310402393341,3,3,3,3,-9.630000000000001,0.26,-1.33,-0.9399999999999999,0.17,0.48
12.33310401439667,3,3,3,3,-9.75,-0.06,-1.57,-1.14,0.24,0.42
12.34310400485992,3,3,3,3,-9.949999999999999,-0.66,-1.61,-1.23,0.33,0.4
12.35310399532318,3,3,3,3,-9.98,-0.99,-1.69,-0.9,0.24,0.28
12.36310398578644,3,3,3,3,-9.85,-0.99,-1.81,-0.48,0.24,0.18
12.37310397624969,3,3,3,3,-9.57,-1.25,-2.12,0.02,0.36,0.01
12.38310396671295,3,3,3,3,-9.550000000000001,-1.33,-2.06,0.51,0.29,-0.23
12.39310395717621,3,3,3,3,-9.539999999999999,-1.24,-2,1.03,0.13,-0.45
12.40310394763947,3,3,3,3,-9.58,-1.04,-1.96,1.44,0.03,-0.6
12.41310393810272,3,3,3,3,-9.66,-0.5,-1.79,1.54,-0.05,-0.66
12.42310392856598,3,3,3,3,-9.74,-0.41,-1.77,1.41,-0.01,-0.67
12.43310415744781,3,3,3,3,-9.73,-0.38,-1.63,1.21,0.08,-0.73
12.44310414791107,3,3,3,3,-9.69,-0.29,-1.49,1.2,0.11,-0.74
12.45310413837433,3,3,3,3,-9.619999999999999,-0.41,-1.56,0.92,0.11,-0.85
12.46310412883759,3,3,3,3,-9.619999999999999,-0.28,-1.64,0.86,0.07000000000000001,-0.92
12.47310411930084,3,3,3,3,-9.640000000000001,-0.1,-1.77,0.7,0.28,-0.9399999999999999
12.4831041097641,3,3,3,3,-9.65,-0.07000000000000001,-1.78,0.47,0.33,-0.92
12.49310410022736,3,3,3,3,-9.59,-0.07000000000000001,-1.78,0.35,0.46,-0.9399999999999999
12.50310409069061,3,3,3,3,-9.6,-0.06,-1.86,0.09,0.49,-1
12.51310408115387,3,3,3,3,-9.68,-0.1,-1.83,-0.19,0.46,-0.9
12.52310407161713,3,3,3,3,-9.66,-0.11,-1.86,-0.16,0.42,-0.78
12.53310406208038,3,3,3,3,-9.59,0.15,-1.71,-0.25,0.34,-0.68
12.54310405254364,3,3,3,3,-9.619999999999999,0.17,-1.62,-0.33,0.33,-0.53
12.5531040430069,3,3,3,3,-9.609999999999999,0.13,-1.53,-0.33,0.32,-0.22
12.56310403347015,3,3,3,3,-9.630000000000001,0.17,-1.55,-0.37,0.42,0.04
12.57310402393341,3,3,3,3,-9.68,-0.02,-1.62,-0.64,0.34,0.19
12.58310401439667,3,3,3,3,-9.68,-0.13,-1.66,-0.77,0.38,0.3
12.59310400485992,3,3,3,3,-9.720000000000001,-0.35,-1.72,-0.91,0.48,0.4
12.60310399532318,3,3,3,3,-9.699999999999999,-0.47,-1.73,-0.79,0.42,0.53
12.61310398578644,3,3,3,3,-9.609999999999999,-0.49,-1.82,-0.82,0.37,0.45
12.62310397624969,3,3,3,3,-9.630000000000001,-0.44,-1.84,-0.79,0.3,0.33
12.63310396671295,3,3,3,3,-9.65,-0.33,-1.81,-0.89,0.25,0.2
12.64310395717621,3,3,3,3,-9.710000000000001,-0.33,-1.68,-1.16,0.31,0.2
12.65310394763947,3,3,3,3,-9.65,-0.27,-1.58,-0.99,0.31,0.25
12.66310393810272,3,3,3,3,-9.640000000000001,-0.15,-1.59,-0.9399999999999999,0.27,0.29
12.67310392856598,3,3,3,3,-9.619999999999999,-0.07000000000000001,-1.68,-0.89,0.22,0.39
12.68310415744781,3,3,3,3,-9.59,-0.11,-1.75,-0.88,0.31,0.54
12.69310414791107,3,3,3,3,-9.789999999999999,-0.6,-1.79,-0.82,0.41,0.67
12.70310413837433,3,3,3,3,-9.699999999999999,-0.52,-1.84,-0.42,0.34,0.6899999999999999
12.71310412883759,3,3,3,3,-9.67,-0.61,-1.87,-0.26,0.41,0.67
12.72310411930084,3,3,3,3,-9.73,-0.93,-1.95,-0.06,0.31,0.62
12.7331041097641,3,3,3,3,-9.65,-0.85,-1.88,0.4,0.23,0.48
12.74310410022736,3,3,3,3,-9.699999999999999,-0.87,-1.8,0.6,0.17,0.32
12.75310409069061,3,3,3,3,-9.720000000000001,-0.93,-1.72,0.68,0.18,0.18
12.76310408115387,3,3,3,3,-9.710000000000001,-0.74,-1.66,0.91,0.05,0.13
12.77310407161713,3,3,3,3,-9.539999999999999,-0.36,-1.73,0.72,0.06,0.07000000000000001
12.78310406208038,3,3,3,3,-9.58,-0.27,-1.67,0.62,0.19,0.1
12.79310405254364,3,3,3,3,-9.6,-0.05,-1.58,0.4,0.3,0.16
12.8031040430069,3,3,3,3,-9.619999999999999,0.07000000000000001,-1.52,-0.06,0.43,0.26
12.81310403347015,3,3,3,3,-9.609999999999999,0.21,-1.49,-0.15,0.47,0.38
12.82310402393341,3,3,3,3,-9.59,0.32,-1.56,-0.35,0.5,0.44
12.83310401439667,3,3,3,3,-9.619999999999999,0.29,-1.55,-0.57,0.44,0.55
12.84310400485992,3,3,3,3,-9.619999999999999,0.17,-1.42,-0.6899999999999999,0.44,0.76
12.85310399532318,3,3,3,3,-9.57,0.15,-1.46,-0.6899999999999999,0.47,0.96
12.86310398578644,3,3,3,3,-9.58,0.14,-1.49,-0.55,0.5,1.16
12.87310397624969,3,3,3,3,-9.609999999999999,0.16,-1.7,-0.5,0.51,1.25
12.88310396671295,3,3,3,3,-9.619999999999999,0.37,-1.59,-0.38,0.39,1.33
12.89310395717621,3,3,3,3,-9.539999999999999,0.46,-1.43,-0.35,0.36,1.31
12.90310394763947,3,3,3,3,-9.49,0.46,-1.35,-0.59,0.38,1.29
12.91310393810272,3,3,3,3,-9.44,0.35,-1.29,-1.06,0.42,1.29
12.92310392856598,3,3,3,3,-9.51,0.28,-1.39,-1.31,0.54,1.37
12.93310415744781,3,3,3,3,-9.6,0.12,-1.36,-1.78,0.62,1.39
12.94310414791107,3,3,3,3,-9.59,-0.04,-1.4,-2.09,0.66,1.32
12.95410406589508,3,3,3,3,-9.57,-0.19,-1.64,-2.41,0.64,1.09
12.96310412883759,3,3,3,3,-9.75,-0.73,-1.68,-2.45,0.82,0.82
12.97310411930084,3,3,3,3,-9.779999999999999,-0.95,-1.83,-2.12,0.96,0.68
12.98410403728485,3,3,3,3,-9.9,-1.14,-1.79,-1.76,1.09,0.36
12.99410402774811,3,3,3,3,-10.06,-1.45,-1.74,-1.23,1.03,-0.07000000000000001
13.00410401821136,3,3,3,3,-10.11,-1.97,-1.89,-0.41,1.04,-0.43
13.01410400867462,3,3,3,3,-10.07,-2.4,-1.92,0.76,1.19,-0.64
13.02410399913788,3,3,3,3,-9.98,-2.55,-2.06,2.44,1.1,-0.78
13.03410398960114,3,3,3,3,-9.779999999999999,-2.28,-2.32,4.1,0.8,-0.85
13.04410398006439,3,3,3,3,-9.279999999999999,-1.23,-2.55,4.89,0.6,-1.06
13.05410397052765,3,3,3,2,-9.210000000000001,-0.9399999999999999,-2.46,4.45,0.58,-1.22
13.06410396099091,3,3,3,2,-9.27,-0.47,-2.5,4.06,0.66,-1.41
13.07410395145416,3,3,3,2,-9.279999999999999,0.39,-2.59,3.4,0.75,-1.64
13.08410394191742,3,3,3,2,-9.300000000000001,1.03,-2.19,1.84,1.12,-1.73
13.09410393238068,3,3,3,2,-9.279999999999999,1.17,-2.04,0.45,1.4,-1.68
13.10410392284393,3,3,3,2,-9.27,1.1,-1.63,-0.82,1.78,-1.58
13.11410415172577,3,3,3,2,-9.32,0.99,-1.38,-1.66,1.94,-1.39
13.12410414218903,3,3,3,2,-9.640000000000001,1.11,-1.28,-2.47,1.94,-1.22
13.13410413265228,3,3,3,2,-9.800000000000001,0.49,-1.22,-3.76,2.06,-0.98
13.14410412311554,3,3,3,2,-9.75,0.19,-1.45,-3.97,1.98,-0.66
13.1541041135788,3,3,3,2,-9.66,0.31,-1.62,-3.81,1.89,-0.57
13.16410410404205,3,3,3,2,-9.4,0.14,-2.05,-3.66,1.68,-0.58
13.17410409450531,3,3,3,2,-9.210000000000001,0.36,-2.2,-3.05,1.51,-0.76
13.18410408496857,3,3,3,2,-9.279999999999999,0.39,-2.22,-2.77,1.43,-0.96
13.19410407543182,3,3,3,2,-9.49,0.01,-2.16,-2.64,1.41,-1.04
13.20410406589508,3,3,3,2,-9.630000000000001,0,-2.33,-1.88,1.22,-0.96
13.21410405635834,3,3,3,2,-9.74,-0.03,-2.44,-1.15,1.33,-0.79
13.22410404682159,3,3,3,2,-9.789999999999999,-0.37,-2.5,-0.83,1.28,-0.74
13.23410403728485,3,3,3,2,-9.67,-0.62,-2.84,-0.21,1.33,-0.68
13.24410402774811,3,3,3,2,-9.640000000000001,-0.3,-2.83,0.39,1.49,-0.6
13.25410401821136,3,3,3,2,-9.59,-0.72,-2.55,0.57,1.63,-0.49
13.26410400867462,3,3,3,2,-9.58,-1.04,-2.6,1.09,1.74,-0.53
13.27410399913788,3,3,3,2,-9.539999999999999,-1.36,-2.66,1.72,1.73,-0.83
13.28410398960114,3,3,3,2,-9.609999999999999,-0.8,-2.88,2.71,1.54,-0.95
13.29410398006439,3,3,3,2,-9.6,-0.3,-2.77,3.23,1.41,-0.95
13.30410397052765,3,3,3,2,-9.4,0,-2.65,3.12,1.24,-1
13.31410396099091,3,3,3,2,-9.31,0.34,-2.63,2.82,1.24,-1.15
13.32410395145416,3,3,3,2,-9.390000000000001,0.33,-2.81,1.74,1.29,-1.3
13.33410394191742,3,3,3,2,-9.52,-0.09,-2.41,0.32,1.7,-1.2
13.34410393238068,3,3,3,2,-9.49,-0.21,-2.51,0.34,2.06,-0.95
13.35410392284393,3,3,3,2,-9.369999999999999,-0.05,-2.66,0.39,2.07,-0.93
13.36410415172577,3,3,3,2,-9.109999999999999,-0.27,-2.36,0.48,1.86,-0.93
13.37410414218903,3,3,3,2,-9.050000000000001,0.01,-2.33,0.88,1.56,-0.95
13.38410413265228,3,3,3,2,-9.17,0.2,-2.16,0.76,1.34,-0.9399999999999999
13.39410412311554,3,3,3,2,-9.390000000000001,0.23,-1.96,0.42,1.3,-0.82
13.4041041135788,3,3,3,2,-9.640000000000001,0.41,-2.18,0.3,1.2,-0.77
13.41410410404205,3,3,3,2,-9.640000000000001,-0.14,-2.26,0,1.17,-0.84
13.42410409450531,3,3,3,2,-9.449999999999999,-0.46,-2.73,0.63,1.03,-0.84
13.43410408496857,3,3,3,2,-9.24,-0.28,-2.96,1.59,0.76,-0.91
13.44410407543182,3,3,3,2,-9.130000000000001,-0.19,-2.93,1.81,0.64,-1.06
13.45410406589508,3,3,3,2,-9.199999999999999,0.01,-2.98,1.91,0.63,-1.04
13.46410405635834,3,3,3,2,-9.34,0,-2.93,1.45,0.71,-1.11
13.47410404682159,3,3,3,2,-9.52,-0.34,-2.93,0.68,0.91,-1.25
13.48410403728485,3,3,3,2,-9.59,-0.8100000000000001,-3.06,0.22,1.09,-1.38
13.49410402774811,3,3,3,2,-9.51,-0.96,-3.17,0.27,1.27,-1.58
13.50410401821136,3,3,3,2,-9.380000000000001,-1.08,-3.11,0.33,1.27,-1.94
13.54410398006439,3,3,3,2,-9.59,-1.03,-2.69,1.74,0.99,-2.89
13.55410397052765,3,3,3,2,-9.58,-0.84,-2.72,2.62,0.91,-2.9
13.57410395145416,3,3,3,2,-9.19,-0.33,-3.08,3.7,0.75,-2.79
13.58410394191742,3,3,3,2,-9.08,-0.19,-3.05,3.81,0.8100000000000001,-2.62
13.59410393238068,3,3,3,2,-9.1,-0.04,-2.94,3.56,0.77,-2.57
13.60410392284393,3,3,3,2,-9.279999999999999,-0.36,-2.83,3.04,0.96,-2.58
13.61410415172577,3,3,3,2,-9.380000000000001,-0.4,-2.78,3.23,0.9,-2.56
13.62410414218903,3,3,3,2,-9.4,-0.58,-2.78,3.57,0.8,-2.62
13.63410413265228,3,3,3,2,-9.48,-0.66,-2.64,4.02,0.64,-2.68
13.64410412311554,3,3,3,2,-9.529999999999999,-0.6899999999999999,-2.62,4.38,0.58,-2.73
13.6541041135788,3,3,3,2,-9.42,-0.68,-2.7,4.41,0.73,-2.73
13.66410410404205,3,3,3,2,-9.279999999999999,-0.88,-2.71,4.07,0.98,-2.8
13.67410409450531,3,3,3,2,-9.119999999999999,-0.99,-2.9,3.84,1.15,-2.88
13.68410408496857,3,3,3,2,-9.17,-0.95,-2.79,3.54,1.22,-3
13.69410407543182,3,3,3,2,-9.199999999999999,-0.96,-2.76,3.43,1.14,-3.2
13.70410406589508,3,3,3,2,-9.279999999999999,-1.01,-2.72,3.39,1.17,-3.47
13.71410405635834,3,3,3,2,-9.380000000000001,-1.39,-2.81,3.45,1,-3.76
13.72410404682159,3,3,3,2,-9.539999999999999,-1.57,-2.54,5.04,0.46,-3.8
13.73410403728485,3,3,3,2,-9.109999999999999,-0.96,-2.75,5.38,0.39,-3.88
13.74410402774811,3,3,3,2,-9.31,-0.49,-2.41,5.12,0.65,-4.21
13.75410401821136,3,3,3,2,-9.039999999999999,-0.24,-2.22,5.07,0.67,-4.2
13.76410400867462,3,3,3,2,-9.33,-0.91,-2.84,4.75,0.73,-4.28
13.77410399913788,3,3,3,2,-8.949999999999999,0.65,-1.83,5.2,0.64,-4.13
13.78410398960114,3,3,3,2,-9.4,-0.07000000000000001,-2.43,4.38,1,-4.17
13.79410398006439,3,3,3,2,-9.23,-0.62,-2.3,3.33,1.3,-4.25
13.80410397052765,3,3,3,2,-8.9,0.29,-1.71,5.1,0.84,-3.74
13.81410396099091,3,3,3,2,-9.66,-2.15,-4,3.28,1.63,-4.05
13.82410395145416,3,3,3,2,-9.119999999999999,-0.12,-1.5,7.23,0.1,-3.43
13.83410394191742,3,3,3,2,-9.81,-1.9,-3.16,3.16,1.68,-4.28
13.84410393238068,3,3,3,2,-9.44,-1.11,-1.98,6.85,0.42,-3.8
13.85410392284393,3,3,3,1,-9.210000000000001,-0.52,-1.96,6.82,0.61,-3.85
13.86410415172577,3,3,3,1,-9.859999999999999,-1.65,-2.87,8.300000000000001,0.23,-3.78
13.87410414218903,3,3,3,1,-9.98,-1.06,-3.01,8.210000000000001,0.14,-3.89
13.88410413265228,3,3,3,1,-9.83,-0.93,-2.35,8.99,-0.26,-4.12
13.89410412311554,3,3,3,1,-10.08,-1.1,-2.63,9.640000000000001,-0.83,-4.37
13.9041041135788,3,3,3,1,-9.74,-0.36,-2.13,9.41,-1.1,-5.14
13.91410410404205,3,3,3,1,-9.710000000000001,-0.57,-2.03,11.62,-2.07,-5.33
13.92410409450531,3,3,3,1,-9.84,-0.48,-2.36,11.41,-2.08,-5.41
13.93410408496857,3,3,3,1,-9.390000000000001,-0.18,-2.34,10.56,-1.69,-5.65
13.94410407543182,3,3,3,1,-9.73,-1.87,-2.65,10.48,-1.24,-5.14
13.95410406589508,3,3,3,1,-9.720000000000001,-1.01,-2.46,9.25,-0.65,-4.75
13.96410405635834,3,3,3,1,-10.21,-1.47,-2.83,6.32,0.25,-5.11
13.97410404682159,3,3,3,1,-10.41,-1.84,-2.02,8.369999999999999,-0.87,-4.82
13.98410403728485,3,3,3,1,-10.33,-1.59,-2.32,7.95,-0.93,-5.15
13.99410402774811,3,3,3,1,-11.09,-2.69,-4.44,4.8,-0.29,-6.6
14.00410401821136,3,3,3,0,-10.24,0.19,-0.9399999999999999,5.54,-0.48,-7.14
14.02510392665863,3,3,3,0,-10.66,1.06,-1.04,5.81,-0.45,-7.01
14.03510415554047,3,3,3,0,-10.85,0.73,-1.58,8.039999999999999,-1.48,-6.73
14.04510414600372,3,3,3,0,-11.13,1.44,-1.86,5.15,-1.09,-6.61
14.05510413646698,3,3,3,0,-11.05,1.34,-2.1,3.39,-1.21,-6.19
14.06510412693024,3,3,3,0,-11.44,0.74,-2.2,3.63,-1.38,-5.49
14.07510411739349,3,3,3,0,-11.43,1.7,-2.07,1.75,-1.42,-4.83
14.08510410785675,3,3,3,0,-11.59,2.49,-1.43,-0.21,-1.96,-3.96
14.09510409832001,3,3,3,0,-11.3,1.73,-1.83,-3.68,-2.49,-2.68
14.10510408878326,3,3,3,0,-11.49,1.82,-0.9399999999999999,-4.03,-2.61,-1.39
14.11510407924652,3,3,3,0,-11.32,1.18,-0.43,-6.29,-3.17,-0.3
14.12510406970978,3,3,3,0,-11.75,1.41,0.18,-6.96,-3.67,1.25
14.13510406017303,3,3,3,0,-11.65,0.87,0.32,-7.5,-4.63,2.49
14.17510402202606,3,3,3,0,-11.78,0.8100000000000001,1.18,3.99,-8.91,5.02
14.18510401248932,3,3,3,0,-10.07,1.65,0.95,7.55,-9.73,6.23
14.19510400295258,3,3,3,0,-10.29,2.02,0.85,9.970000000000001,-9.09,8.33
14.20510399341583,3,3,3,0,-10.18,1.6,0.6899999999999999,9.84,-9.220000000000001,9.779999999999999
14.21510398387909,3,3,3,0,-9.99,0.93,0.41,7.92,-9.5,10.52
14.22510397434235,3,3,3,0,-10.96,0.06,-0.24,5.29,-9.390000000000001,11.19
14.2351039648056,3,3,3,0,-11.3,-1.24,-0.57,2.79,-9.15,11.33
14.24510395526886,3,3,3,0,-11.62,-2.51,-1.04,1.5,-8.720000000000001,11.39
14.25510394573212,3,3,3,0,-12.24,-3.11,-1.45,1.38,-8.1,12.09
14.26510393619537,3,3,3,0,-12.24,-3.62,-1.81,1.92,-8.039999999999999,12.13
14.27510392665863,3,3,3,0,-12.43,-3.42,-2.17,3.36,-7.53,12.25
14.28510415554047,3,3,3,0,-12.19,-4.06,-2.34,3.65,-6.93,12.19
14.29510414600372,3,3,3,0,-11.91,-5.17,-2.22,2.57,-6.19,12.57
14.30510413646698,3,3,3,0,-11.78,-3.63,-2.41,4.2,-5.52,13.5
14.31510412693024,3,3,3,0,-11.67,-2.64,-2.6,6.01,-4.73,14.84
14.32510411739349,3,3,3,0,-11.52,-2.45,-2.76,5.06,-3.82,15.85
14.33510410785675,3,3,3,0,-11.11,-2.41,-3.04,3.1,-3.17,16.55
14.34510409832001,3,3,3,0,-10.53,-2.28,-2.67,1.66,-3.1,17.3
14.35510408878326,3,3,3,0,-10.06,-2.05,-2.52,0.23,-2.88,17.93
14.36510407924652,3,3,3,0,-9.890000000000001,-1.72,-2.48,-1.4,-2.16,18.4
14.37510406970978,3,3,3,0,-9.94,-1.52,-2.28,-3.61,-2.08,19.09
14.38510406017303,3,3,3,0,-10.17,-2.09,-1.96,-6.33,-2.1,19.54
14.39510405063629,3,3,3,0,-10.17,-2.58,-1.85,-8.82,-2.12,19.68
14.40510404109955,3,3,3,0,-10.11,-3.24,-1.79,-10.76,-2.01,19.52
14.41510403156281,3,3,3,0,-9.880000000000001,-3.4,-1.93,-11.44,-1.93,18.97
14.42510402202606,3,3,3,0,-9.18,-3.31,-2.43,-11.23,-1.36,18.82
14.43510401248932,3,3,3,0,-9.1,-2.38,-1.72,-11.28,-0.92,18.24
14.44510400295258,3,3,3,0,-8.17,-3.91,-2.44,-12.45,0.48,18.76
14.45510399341583,3,3,3,0,-9.529999999999999,-2.01,-1.46,-11.56,2.22,18.76
14.46510398387909,3,3,3,0,-9.17,-2.63,-2,-15.24,0.25,18.75
14.47510397434235,3,3,3,0,-9.09,-2.68,-2.1,-15.95,-0.05,18.43
14.4851039648056,3,3,3,0,-8.550000000000001,-2.95,-1.89,-16.62,-0.04,17.69
14.53510415554047,3,3,3,0,-7.06,-4.18,-1.37,-12.44,0.77,14.29
14.54510414600372,3,3,3,0,-7.04,-3.55,-1.2,-10.15,1.27,13.56
14.55510413646698,3,3,3,0,-7.1,-3.02,-1.18,-7.64,1.68,12.75
14.56510412693024,3,3,3,0,-7.05,-2.6,-1.17,-5.39,2.06,11.71
14.57510411739349,3,3,3,0,-7.08,-2.31,-1.14,-3.58,2.35,10.52
14.58510410785675,3,3,3,0,-7.2,-1.65,-0.83,-2.03,2.48,9.220000000000001
14.59510409832001,3,3,3,0,-7.18,-1.42,-0.72,-1.1,2.63,7.92
14.60510408878326,3,3,3,0,-7.2,-1.11,-0.53,-0.45,3.24,6.68
14.61510407924652,3,3,3,0,-7.19,-0.96,-0.39,-0.21,4.33,5.28
14.62510406970978,3,3,3,0,-7.02,-0.41,-0.16,-0.29,5.9,3.93
14.63510406017303,3,3,3,0,-6.89,0.51,0.09,-0.15,7.8,2.67
14.64510405063629,3,3,3,0,-6.8,1.54,0.51,0.93,10,1.57
14.65510404109955,3,3,3,0,-6.87,2.64,0.89,1.57,12.34,0.61
14.66510403156281,3,3,3,0,-8.050000000000001,4.18,0.67,0.37,13.86,-0.11
14.67510402202606,3,3,3,0,-9.08,4.74,0.98,-2.46,13.19,-0.41
14.68510401248932,3,3,3,0,-9.859999999999999,5.83,2.12,-6.15,8.199999999999999,-0.89
14.71510398387909,3,3,3,0,-14.45,20.35,2.24,-15.74,-8.640000000000001,1.07
14.72510397434235,3,3,3,0,-14.35,22.48,-0.32,-15.56,-11.02,3.14
14.7351039648056,3,3,3,0,-13.92,18.95,-0.45,-13.97,-11.46,5.08
14.74510395526886,3,3,3,0,-10.99,1.98,1.75,-12.44,-9.220000000000001,8.74
14.75510394573212,3,3,3,0,-9.9,-4.87,0.61,-14.89,-5.17,11.59
14.76510393619537,3,3,3,0,-8.609999999999999,-8.49,-0.58,-12.51,-0.44,13.2
14.77510392665863,3,3,3,0,-7.2,-6.3,-0.91,-3.27,4.49,14.26
14.78510415554047,3,3,3,0,-7.51,-0.33,-1.22,0.48,8.710000000000001,11.84
14.79510414600372,3,3,3,0,-7.69,0.6899999999999999,-1.98,0.76,6.58,7.97
14.80510413646698,3,3,3,0,-8.890000000000001,1.76,-2.44,-0.16,2.38,4.31
14.81510412693024,3,3,3,0,-11.04,2.77,-2.03,-2.3,-0.05,-0.02
14.82510411739349,3,3,3,0,-15.51,8.539999999999999,5.86,-3.06,-0.05,-3.47
14.83510410785675,3,3,3,0,-15.23,13.04,6.8,-7.79,-2.25,-3.46
14.84510409832001,3,3,3,0,-15.62,17.26,5.25,-15.34,-3.54,0.74
14.85510408878326,3,3,3,0,-16.11,15.66,4.2,-21.2,-0.67,1.43
14.86510407924652,3,3,3,0,-9.460000000000001,-1.42,3.85,-21.68,-0.33,-2.97
14.87510406970978,3,3,3,0,-7.64,-5.44,0.17,-21.77,2.92,-5
14.88510406017303,3,3,3,0,-8.18,-6.79,-4.06,-20.54,10.68,-5.04
14.89510405063629,3,3,3,0,-8.140000000000001,-8.050000000000001,-9.26,-15.2,13.77,-5.96
14.90510404109955,3,3,3,0,-6.55,-7.33,-10.41,-6.39,10.89,-7.87
14.91510403156281,3,3,3,0,-5.8,-5.5,-8.5,-1.43,8.449999999999999,-9.960000000000001
14.92510402202606,3,3,3,0,-7.13,-0.84,-5.29,2.94,5.95,-10.94
14.93510401248932,3,3,3,0,-7.27,2.86,-1.57,4.18,3.69,-13.02
14.94510400295258,3,3,3,0,-9.85,1.65,-2.26,-1.1,1.63,-12.69
14.95510399341583,3,3,3,0,-12,-1.37,-2.3,-6.75,3.11,-10.33
14.96610414981842,3,3,3,0,-11.7,-3.32,-1.38,-6.45,5.01,-9.23
14.97510397434235,3,3,3,0,-10.63,-2.03,-0.05,-3,6.39,-10.67
14.9851039648056,3,3,3,0,-12.09,-1.13,0.64,-1.18,8.09,-12.62
14.99510395526886,3,3,3,0,-12.48,-0.54,0.18,0.39,10.51,-12.76
15.00510394573212,3,3,3,0,-10.22,-0.87,-0.19,1.28,11.41,-11.01
15.01510393619537,3,3,3,0,-8.199999999999999,-2.28,-2.15,1.09,11.02,-9.029999999999999
15.02510392665863,3,3,3,0,-8.56,-1.54,-3.41,2.42,10.47,-8.890000000000001
15.03510415554047,3,3,3,0,-8.92,-0.86,-4.05,3.91,9.94,-10.17
15.04610407352448,3,3,3,0,-9.369999999999999,-0.34,-4.24,4.81,9.42,-11.23
15.05610406398773,3,3,3,0,-10.03,0.38,-3.74,5.56,9.81,-11.34
15.06610405445099,3,3,3,0,-9.449999999999999,0.01,-3.32,6.39,10.24,-11.17
15.07610404491425,3,3,3,0,-9.210000000000001,-0.28,-3.1,7.31,10.17,-11.01
15.0861040353775,3,3,3,0,-9.52,-0.43,-2.86,8.5,9.91,-11.06
15.09610402584076,3,3,3,0,-10.07,-0.38,-2.21,9.640000000000001,9.460000000000001,-11.21
15.10610401630402,3,3,3,0,-9.949999999999999,0.01,-1.99,11.02,9.06,-11.41
15.11610400676727,3,3,3,0,-9.880000000000001,0.33,-2.04,12.2,8.83,-11.37
15.12610399723053,3,3,3,0,-9.77,0.62,-2.12,12.87,8.57,-11.36
15.13610398769379,3,3,3,0,-9.210000000000001,0.38,-2.35,13.4,8.220000000000001,-11.62
15.14610397815704,3,3,3,0,-9.140000000000001,0.05,-2.69,14.5,8.029999999999999,-12
15.1561039686203,3,3,3,0,-9.51,0.22,-2.84,16.68,8.24,-12.36
15.16610395908356,3,3,3,0,-9.630000000000001,0.63,-2.77,20.49,7.16,-12.8
15.17610394954681,3,3,3,0,-9.59,1.93,-2.46,23.08,5.43,-12.98
15.18610394001007,3,3,3,0,-9.27,3.13,-2.19,24.57,3.03,-13.23
15.19610393047333,3,3,3,0,-9.09,4.46,-1.96,24.45,1.51,-13.5
15.20610392093658,3,3,3,0,-8.81,5.16,-1.63,22.01,1.79,-13.33
15.21610414981842,3,3,3,0,-8.84,3.33,-1.24,18.78,3.5,-12.75
15.22610414028168,3,3,3,0,-9.27,1.76,-1.79,17.09,4.87,-11.75
15.23610413074493,3,3,3,0,-9.800000000000001,0.53,-2.67,15.91,5.34,-10.05
15.24610412120819,3,3,3,0,-9.9,-0.1,-2.97,14.75,4.02,-8.49
15.25610411167145,3,3,3,0,-9.48,-0.67,-2.85,13.41,1.85,-7.65
15.2661041021347,3,3,3,0,-9.5,-0.48,-2.56,12.21,0.66,-7.4
15.27610409259796,3,3,3,0,-9.59,-0.57,-2.38,11.01,0.46,-7.37
15.28610408306122,3,3,3,0,-9.550000000000001,-0.7,-2.03,10.12,0.79,-7.41
15.29610407352448,3,3,3,0,-9.220000000000001,-1.54,-1.91,9.470000000000001,1.54,-7.5
15.30610406398773,3,3,3,0,-9.289999999999999,-1.87,-2.15,9.390000000000001,2.38,-7.54
15.31610405445099,3,3,3,0,-9.33,-1.87,-2.09,10.22,2.73,-7.47
15.32610404491425,3,3,3,0,-9.34,-1.75,-2.15,10.53,2.39,-7.47
15.37610399723053,3,3,3,0,-9.460000000000001,-1.35,-2.2,6.85,2.08,-9.52
15.38610398769379,3,3,3,0,-9.6,-1.58,-2.88,7.93,1.62,-9.550000000000001
15.4061039686203,3,3,3,0,-9.83,-1.07,-2.55,7.68,1.75,-9.800000000000001
15.41610395908356,3,3,3,0,-9.710000000000001,0.64,-1.73,9.17,0.99,-9.41
15.42610394954681,3,3,3,0,-9.94,0.42,-1.95,8.109999999999999,1.57,-9.5
15.43610394001007,3,3,3,0,-9.43,1.21,-0.74,8.01,1.5,-9.359999999999999
15.44610393047333,3,3,3,0,-10.25,0.36,-2.45,6.46,2.11,-9.210000000000001
15.45610392093658,3,3,3,0,-9.949999999999999,1.63,-1.33,9.6,-0.09,-8.75
15.46610414981842,3,3,3,0,-10.97,1.02,-1.88,6.8,0.87,-8.470000000000001
15.47610414028168,3,3,3,0,-10.58,1.27,-1.26,7.76,-0.38,-7.82
15.48610413074493,3,3,3,0,-11.51,0.8100000000000001,-1.82,6.79,0.19,-7.14
15.49610412120819,3,3,3,0,-11.41,0.71,-1.92,6.96,-0.52,-6.43
15.50610411167145,3,3,3,0,-11.41,1.3,-2.39,6.98,-0.74,-5.39
15.5161041021347,3,3,3,0,-11.53,2.54,-2.13,6.14,0.08,-4.94
15.52610409259796,3,3,3,0,-12.13,3.83,-1.6,6.16,0.76,-4.31
15.53610408306122,3,3,3,0,-12.57,6.28,-0.21,3.32,0.33,-3.83
15.54610407352448,3,3,3,0,-12.5,6.73,0.55,0.03,-0.91,-2.62
15.55610406398773,3,3,3,0,-12.36,6.39,1.49,-3.38,-1.75,-1.02
15.56610405445099,3,3,3,0,-13.19,5.42,2.46,-7.4,-1.6,1.35
15.57610404491425,3,3,3,0,-14.88,2.4,2.86,-9.25,-3.67,4.43
15.5861040353775,3,3,3,0,-14.94,2.05,2.08,-4.09,-7.44,6.47
15.59610402584076,3,3,3,0,-14.7,1.21,0.73,1.14,-9.949999999999999,6.88
15.60610401630402,3,3,3,0,-12.23,0.05,-1.07,5.69,-11.83,7.88
15.61610400676727,3,3,3,0,-11.79,-0.19,-2.14,8.31,-12.34,9.19
15.62610399723053,3,3,3,0,-11.52,-0.6,-2.8,9.73,-10.83,10.86
15.63610398769379,3,3,3,0,-11.7,-1.8,-3.77,10.08,-9.68,11.81
15.64610397815704,3,3,3,0,-12.44,-2.2,-2.88,8.49,-8.859999999999999,12.29
15.6561039686203,3,3,3,0,-13.52,-0.6,-2.13,5.51,-8.369999999999999,13.98
15.66610395908356,3,3,3,0,-14.18,-0.43,-1.86,3,-8.449999999999999,14.49
15.67610394954681,3,3,3,0,-14.3,-1.36,-1.54,-1.72,-8.460000000000001,14.12
15.70610392093658,3,3,3,0,-11.86,-8.390000000000001,-0.74,-8.960000000000001,-6.93,12.53
15.71610414981842,3,3,3,0,-11.91,-8.029999999999999,-0.77,-6.16,-6.45,13.11
15.72610414028168,3,3,3,0,-11.61,-6.39,-1.36,-0.77,-5.88,14.98
15.73610413074493,3,3,3,0,-11.61,-6.26,-1.36,1.58,-5.47,16.37
15.74610412120819,3,3,3,0,-10.47,-6.18,-1.28,3.01,-6.22,17.32
15.75610411167145,3,3,3,0,-9.83,-4.92,-1.34,4.49,-5.99,18.19
15.7661041021347,3,3,3,0,-9.640000000000001,-4.46,-1.38,4.44,-5.35,18.36
15.77610409259796,3,3,3,0,-9.15,-2.94,-1.26,3.96,-5.76,18.72
15.78610408306122,3,3,3,0,-9.550000000000001,-2.17,-1.63,3.77,-4.74,19.5
15.79610407352448,3,3,3,0,-7.28,-3.72,-1.67,-0.75,-5.21,19.78
15.80610406398773,3,3,3,0,-8.15,-2.87,-2.57,-0.03,-2.08,20.6
15.81610405445099,3,3,3,0,-8.699999999999999,-1.97,-2.59,-2.5,-0.41,20.74
15.82610404491425,3,3,3,0,-9.93,-1.01,-2.9,-4.88,-0.45,20.77
15.8361040353775,3,3,3,0,-8.35,-4.71,-3.47,-8.58,-1.53,19.77
15.84610402584076,3,3,3,0,-8.800000000000001,-2.99,-3.65,-6.27,0.14,18.29
15.85610401630402,3,3,3,0,-8.289999999999999,-2.4,-2.99,-12.02,-0.74,18.12
15.86610400676727,3,3,3,0,-8.41,-2.67,-3.09,-11.96,-0.14,18.3
15.87610399723053,3,3,3,0,-8.08,-3.06,-3.14,-14.76,-0.72,18.62
15.88610398769379,3,3,3,0,-7.96,-3.67,-2.84,-15.22,-1.31,18.86
15.89610397815704,3,3,3,0,-7.93,-3.86,-2.87,-15.4,-1.35,18.72
15.9061039686203,3,3,3,0,-8.07,-3.84,-2.64,-15.09,-1.04,18.08
15.91610395908356,3,3,3,0,-8.19,-3.83,-2.7,-14.76,-0.14,17.48
15.92610394954681,3,3,3,0,-8.06,-3.92,-3.22,-13.8,0.48,17.19
15.93610394001007,3,3,3,0,-8.130000000000001,-4.01,-2.95,-11.41,0.91,16.87
15.94610393047333,3,3,3,0,-7.96,-3.99,-2.67,-8.68,1.22,16.58
15.95610392093658,3,3,3,0,-7.59,-3.67,-2.44,-6.47,1.25,15.97
15.96610414981842,3,3,3,0,-6.92,-2.96,-1.89,-4.93,1.77,15.08
15.97610414028168,3,3,3,0,-6.58,-2.46,-1.6,-4.19,2.54,13.93
15.98710405826569,3,3,3,0,-6.44,-1.99,-1.17,-4.24,3.28,12.5
15.99610412120819,3,3,3,0,-6.46,-1.72,-0.79,-4.99,3.85,11.02
16.00610411167145,3,3,3,0,-6.98,-1.8,-0.59,-6.27,4.02,9.32
16.0161041021347,3,3,3,0,-7.26,-1.82,-0.76,-7.21,4.07,7.36
16.02610409259796,3,3,3,0,-7.5,-1.78,-0.91,-6.9,4.14,5.24
16.03610408306122,3,3,3,0,-7.64,-1.86,-0.88,-5.76,4.33,3.3
16.04610407352448,3,3,3,0,-7.75,-0.84,-0.6899999999999999,-3.83,4.75,1.63
16.05610406398773,3,3,3,0,-7.84,0.03,-0.4,-1.94,5.43,0.67
16.06710398197174,3,3,3,0,-7.76,1.62,-0.04,0.48,6.45,0.75
16.077103972435,3,3,3,0,-7.95,3.08,-0.26,2.49,8.609999999999999,1.63
16.08710396289825,3,3,3,0,-9.35,5.24,0.71,3.85,11.17,3.33
16.09710395336151,3,3,3,0,-9.35,7.23,2.04,5.91,11.95,4.9
16.10710394382477,3,3,3,0,-9.09,11.11,3.46,6.57,10.63,5.47
16.11710393428802,3,3,3,0,-10.42,16.46,3.21,4.67,10.03,5.64
16.12710392475128,3,3,3,0,-13.81,25.33,-1.41,-0.4,4.63,5.49
16.13710415363312,3,3,3,0,-16.46,22.43,-2.06,-8.08,-4.33,6.23
16.14710414409637,3,3,3,0,-13.92,14.48,0.43,-11.8,-12.45,7.57
16.15710413455963,3,3,3,0,-11.27,5.73,1.75,-13.35,-14.92,9.220000000000001
16.16710412502289,3,3,3,0,-6.18,-5.81,-0.32,-19.01,-8.890000000000001,10.59
16.17710411548615,3,3,3,0,-5.26,-4.9,-1.57,-21.57,0.85,10.98
16.1871041059494,3,3,3,0,-6.26,-1.29,-2.21,-18.84,8.33,9.43
16.19710409641266,3,3,3,0,-7.07,0.87,-2.23,-16.51,7.82,6.66
16.20710408687592,3,3,3,0,-8.640000000000001,-0.01,-3.68,-15.74,3.54,4.2
16.21710407733917,3,3,3,0,-10.62,-0.64,-4.26,-16.04,0.8,1.04
16.22710406780243,3,3,3,0,-13.18,1.73,-1.69,-17.52,0.97,-4.34
16.23710405826569,3,3,3,0,-15.97,7.8,4.57,-17.26,2.26,-8.34
16.24710404872894,3,3,3,0,-19.86,22.66,11.98,-18.04,-4.06,-6.63
16.2571040391922,3,3,3,1,-19.3,21.1,8.210000000000001,-24.42,-11.61,-4.72
16.26710402965546,3,3,3,1,-15.88,10.51,3.31,-32.59,-3.43,-5.22
16.27710402011871,3,3,3,1,-9.58,-2.54,1.35,-34.39,7.01,-4.7
16.28710401058197,3,3,3,1,-4.54,-14.96,-5.71,-33.2,13.21,-1.9
16.29710400104523,3,3,3,1,-6.16,-15.68,-8.24,-25.46,17.79,-0.72
16.30710399150848,3,3,3,1,-6.61,-15.15,-10.81,-13.73,16.05,-4.65
16.31710398197174,3,3,3,1,-9.01,-5.29,-7.21,-5.15,10.88,-8.800000000000001
16.327103972435,3,3,3,1,-9.65,-0.85,-6.03,4.66,6.51,-11.91
16.33710396289825,3,3,3,1,-7.53,1.79,-4.19,9.4,3.26,-15.07
16.34710395336151,3,3,3,1,-8.279999999999999,2.68,-4.24,6.44,-3.36,-13.52
16.35710394382477,3,3,3,2,-12.99,-1.84,-3.61,-2.08,1.14,-11.02
16.36710393428802,3,3,3,2,-12.07,-2.3,-2.63,-4.78,5.38,-9.720000000000001
16.37710392475128,3,3,3,2,-12.05,-1.77,-1.34,-2.8,6.51,-11.94
16.38710415363312,3,3,3,2,-13.21,-1.05,0.07000000000000001,-1.49,9.19,-14.04
16.39710414409637,3,3,3,2,-10.06,0.64,-0.37,0.43,12.28,-13.68
16.40710413455963,3,3,3,2,-8,-1.55,-0.88,0.38,13.19,-11.38
16.41710412502289,3,3,3,2,-7.37,-2.89,-1.66,-1.14,12.78,-9.529999999999999
16.42710411548615,3,3,3,2,-7.82,-1.87,-2.45,0.35,11.49,-9.51
16.4371041059494,3,3,3,2,-9.23,0.57,-3.19,2.6,10.26,-11.12
16.44710409641266,3,3,3,2,-10,0.96,-2.93,3.28,9.16,-12.53
16.45710408687592,3,3,3,2,-10.12,1.09,-2.69,3.58,9.220000000000001,-12.62
16.46710407733917,3,3,3,2,-9.4,1.12,-2.81,3.88,9.85,-12.13
16.47710406780243,3,3,3,2,-8.94,0.08,-2.78,4.29,10.35,-11.61
16.48710405826569,3,3,3,2,-9.34,-0.21,-2.42,4.62,10.46,-11.34
16.49710404872894,3,3,3,2,-9.51,0.09,-2.1,6.27,9.92,-11.53
16.5071040391922,3,3,3,2,-9.65,0.86,-2.04,8.369999999999999,9.25,-11.76
16.51710402965546,3,3,3,2,-9.74,1.12,-1.27,9.06,8.76,-11.35
16.52710402011871,3,3,3,2,-9.69,0.85,-1.22,8.789999999999999,8.130000000000001,-10.78
16.53710401058197,3,3,3,2,-9.59,0.3,-1.24,8.460000000000001,7.9,-10.69
16.54710400104523,3,3,3,2,-9.44,-0.16,-1.75,9.01,8,-11.22
16.55710399150848,3,3,3,2,-9.06,0.05,-2.86,10.64,7.98,-11.73
16.56710398197174,3,3,3,2,-9,0.42,-3.24,13.46,7.4,-12.12
16.577103972435,3,3,3,2,-9.16,0.66,-3.24,15.62,6.82,-12.58
16.58710396289825,3,3,3,2,-9.31,0.84,-3,16.74,5.74,-12.9
16.59710395336151,3,3,3,2,-9.26,1.57,-2.69,17.7,4.26,-13.17
16.60710394382477,3,3,3,2,-9.06,1.82,-2.69,17.93,3.3,-13.33
16.61710393428802,3,3,3,2,-8.81,1.74,-2.66,17.21,3.21,-13.39
16.62710392475128,3,3,3,2,-8.84,1.25,-2.59,16.14,4.01,-13.52
16.63710415363312,3,3,3,2,-9.369999999999999,0.12,-2.49,15.73,4.87,-13.31
16.64710414409637,3,3,3,2,-9.609999999999999,0.25,-2.79,16.26,5.45,-12.51
16.65710413455963,3,3,3,2,-9.66,0.8,-2.7,16.77,4.62,-11.36
16.66710412502289,3,3,3,2,-9.58,1,-2.63,15.73,3.31,-10.28
16.67710411548615,3,3,3,2,-9.59,0.54,-2.23,13.56,2.38,-9.369999999999999
16.6871041059494,3,3,3,2,-9.630000000000001,0.1,-1.91,11.33,2.02,-8.6
16.69710409641266,3,3,3,2,-9.76,-0.31,-1.78,10.17,1.98,-8.02
16.70710408687592,3,3,3,2,-9.84,-0.46,-1.69,10.16,2.25,-7.66
16.71710407733917,3,3,3,2,-9.890000000000001,-0.67,-1.91,10.9,2.31,-7.54
16.72710406780243,3,3,3,2,-9.74,-0.64,-2.11,11.59,2.13,-7.41
16.73710405826569,3,3,3,2,-9.56,-0.73,-2.16,12.02,1.82,-7.35
16.74710404872894,3,3,3,2,-9.65,-0.72,-2.08,11.92,1.5,-7.5
16.7571040391922,3,3,3,2,-9.85,-0.75,-2.73,11.65,1.39,-7.76
16.76710402965546,3,3,3,2,-9.5,-0.4,-1.72,11.59,1.29,-8.08
16.77710402011871,3,3,3,2,-9.619999999999999,-0.13,-2.3,12.27,0.41,-8.31
16.78710401058197,3,3,3,2,-9.84,0.16,-2.01,10.93,1.24,-8.43
16.79710400104523,3,3,3,2,-9.960000000000001,0.23,-1.74,10.38,0.98,-8.5
16.80710399150848,3,3,3,2,-9.970000000000001,0.34,-1.7,9.630000000000001,1.18,-8.34
16.81710398197174,3,3,3,2,-9.85,0.67,-1.67,9.69,1.02,-8.380000000000001
16.827103972435,3,3,3,2,-10.23,0.74,-1.99,8.91,1.25,-8.26
16.83710396289825,3,3,3,2,-10.33,1.27,-1.07,8.84,0.97,-7.85
16.84710395336151,3,3,3,2,-11.32,0.82,-1.66,9.08,0.08,-7.28
16.85710394382477,3,3,3,2,-11.19,0.95,-1,8.92,0.21,-6.21
16.86710393428802,3,3,3,2,-11.6,0.67,-1.75,8.92,0.21,-6.21
16.87710392475128,3,3,3,2,-12.13,1.76,-2.37,10.72,-0.09,-6.02
16.88710415363312,3,3,3,2,-12.62,2.77,-1.8,11.95,0.8100000000000001,-5.48
16.89710414409637,3,3,3,2,-13.16,4.3,-0.84,8.84,0.2,-5.02
16.90710413455963,3,3,3,2,-12.74,6,-0.19,3.53,0.02,-4.54
16.91710412502289,3,3,3,2,-13.02,5.73,0.45,3.53,0.02,-4.54
16.92710411548615,3,3,3,2,-13.2,5.59,0.99,1.08,-0.53,-2.94
16.9371041059494,3,3,3,2,-14.15,5.97,1.86,-1.73,-4.38,0.58
16.94710409641266,3,3,3,2,-13.78,4.84,2.58,-3.75,-6.81,4.13
16.95710408687592,3,3,3,2,-15.36,3.6,3.98,-5.21,-9.5,6.97
16.96710407733917,3,3,3,2,-14.9,3.67,4.11,-2.07,-11.43,8.69
16.97710406780243,3,3,3,2,-13.76,3.5,3.24,4.08,-11.81,10.5
16.98710405826569,3,3,3,2,-12.01,4.32,-2.52,10.2,-11.22,12.58
16.99710404872894,3,3,3,2,-10.97,2.63,-3.44,9.470000000000001,-10.78,13.39
17.0071040391922,3,3,3,2,-10.84,-0.33,-3.44,5.49,-10.75,14.44
17.01710402965546,3,3,3,2,-11.4,-2.14,-3.64,3.8,-9.75,16.06
17.02710402011871,3,3,3,2,-13.92,-2.3,-3.01,3.97,-7.65,17.35
17.03710401058197,3,3,3,2,-14.97,-1.32,-2.46,3.8,-6.34,17.8
17.04710400104523,3,3,3,2,-15.69,-0.57,-1.96,0.84,-5.82,16.66
17.05710399150848,3,3,3,2,-15.63,-0.88,-1.85,-2.86,-5.9,14.75
17.06710398197174,3,3,3,2,-13.73,-3.96,-1.13,-6.45,-5.55,14.21
17.077103972435,3,3,3,2,-12.25,-6.67,-1.14,-8.890000000000001,-5.8,14.5
17.08710396289825,3,3,3,2,-11.17,-7.71,-1.09,-6.9,-5.32,16.28
17.09810411930084,3,3,3,2,-11.68,-6.73,-1.48,-3.89,-5.29,18.06
17.1081041097641,3,3,3,1,-11.75,-6.32,-1.75,-1.68,-6.74,17.97
17.11810410022736,3,3,3,1,-11.7,-5.77,-1.96,-1.28,-6.96,18.43
17.12810409069061,3,3,3,1,-10.73,-6.51,-2.03,0.57,-6.61,20.05
17.13810408115387,3,3,3,1,-10.01,-5.12,-1.95,0.5600000000000001,-6.47,20.25
17.14810407161713,3,3,3,1,-8.51,-4.77,-1.85,-0.05,-6.68,21.06
17.15810406208038,3,3,3,1,-8.550000000000001,-3.79,-1.95,1.35,-4.28,21.87
17.16810405254364,3,3,3,1,-8.039999999999999,-3.52,-2.05,-0.49,-3.4,21.52
17.1781040430069,3,3,3,1,-7.42,-4.36,-2.09,-1.51,-1.95,21.88
17.18810403347015,3,3,3,1,-8.94,-3.88,-3.58,-5.21,-1.89,21.89
17.19810402393341,3,3,3,0,-8.99,-1.77,-2.85,-6.62,-2.06,20.72
17.20810401439667,3,3,3,0,-6.45,-5.39,-3.54,-7.03,-0.63,19.67
17.21810400485992,3,3,3,0,-7.65,-3.84,-3.39,-4.69,2.57,18.12
17.22810399532318,3,3,3,0,-9.26,-1.5,-3.83,-10.68,1.18,16.96
17.23810398578644,3,3,3,0,-8.15,-2.49,-3.24,-14.68,-0.5,16.77
17.24810397624969,3,3,3,0,-8.26,-2.88,-3.06,-17.35,-0.93,17.17
17.25810396671295,3,3,3,0,-7.57,-4.08,-2.97,-19.79,-2.26,17.14
17.26810395717621,3,3,3,0,-7.37,-5.27,-2.97,-19.59,-1.99,17.44
17.27810394763947,3,3,3,0,-7.55,-5.22,-3.05,-18.34,-1.4,17.06
17.28810393810272,3,3,3,0,-7.69,-4.78,-2.56,-17.71,-0.72,15.8
17.29810392856598,3,3,3,0,-7.6,-4.48,-2.39,-18.16,0.03,14.34
17.30810415744781,3,3,3,0,-6.91,-4.79,-2.84,-16.94,0.95,13.29
17.31810414791107,3,3,3,0,-6.8,-5.03,-2.66,-14.26,1.65,12.52
17.32810413837433,3,3,3,0,-6.73,-5.49,-2.44,-11.62,1.72,11.53
17.3581041097641,3,3,3,0,-5.16,-5.36,-0.9399999999999999,-5.16,0.95,8.58
17.36810410022736,3,3,3,0,-5.25,-4.78,-0.86,-2.61,2.05,6.99
17.37810409069061,3,3,3,0,-5.56,-4.46,-1.24,0.1,3.03,4.67
17.38810408115387,3,3,3,0,-6.6,-3.5,-1.3,3.51,4.07,2.25
17.39810407161713,3,3,3,0,-7.33,-2.48,-0.26,4.2,5.41,-0.19
17.40810406208038,3,3,3,0,-7.84,-1.39,0.6,2.87,6.67,-2.32
17.41810405254364,3,3,3,0,-8.15,0.15,0.99,4.34,9.119999999999999,-3.48
17.4281040430069,3,3,3,0,-8.49,5.09,1.29,9.380000000000001,13.9,-3.12
17.43810403347015,3,3,3,0,-8.789999999999999,8.32,2.34,14.08,21.67,-0.68
17.44810402393341,3,3,3,0,-10.62,11.53,2.76,14.73,26.51,2.26
17.45810401439667,3,3,3,0,-11.45,15.48,3.44,14.59,22.32,3.06
17.46810400485992,3,3,3,0,-16.47,29.63,-0.45,6.32,11.4,4.77
17.47810399532318,3,3,3,0,-18.34,34.23,-3.78,-5.46,-6.85,5.99
17.48810398578644,3,3,3,0,-15.85,28.56,-1.71,-10.92,-12.05,7.86
17.49810397624969,3,3,3,1,-14.69,15.2,0.64,-18.24,-8.890000000000001,11.73
17.50810396671295,3,3,3,1,-5.87,-7.33,-0.36,-24.42,-8.49,14.02
17.51810395717621,3,3,3,1,-4.94,-9.789999999999999,-0.83,-20.64,-1.34,13.87
17.52810394763947,3,3,3,1,-6.22,-7.55,-2.3,-16.41,1.18,10.87
17.53810393810272,3,3,3,1,-7.93,-4.76,-3.04,-15.33,-3.07,5.79
17.54810392856598,3,3,3,1,-12.58,-1.92,0.97,-13.2,-6.06,0.32
17.55810415744781,3,3,3,1,-14.39,4.34,7.89,-13.35,-7.94,-4.28
17.56810414791107,3,3,3,1,-14.99,12.91,10.69,-19.3,-10.35,-3.33
17.57810413837433,3,3,3,1,-18.2,24.27,8.539999999999999,-26.98,-5.18,-1
17.58810412883759,3,3,3,1,-16.5,10.91,3.59,-29.54,-0.83,-4.98
17.59810411930084,3,3,3,2,-7.55,-8.279999999999999,-0.05,-29.99,5.94,-6.9
17.6081041097641,3,3,3,2,-5.28,-15.16,-3.96,-26.65,13.87,-1.22
17.61810410022736,3,3,3,2,-7.2,-13.59,-8.07,-15.34,13.41,0.91
17.62810409069061,3,3,3,2,-8.48,-11.61,-11.99,-8.91,10.02,-3.87
17.65810406208038,3,3,3,2,-9.76,0.65,-4.99,6.18,3.11,-17.15
17.66810405254364,3,3,3,2,-10.24,1.11,-5.19,0.52,2.26,-14.89
17.6781040430069,3,3,3,2,-10.96,-0.09,-3.74,-2.85,5.06,-11.16
17.68810403347015,3,3,3,2,-10.91,-1.48,-2.65,-3.08,7.73,-11.01
17.69810402393341,3,3,3,2,-11.49,-2.68,-0.77,-2.64,9.4,-12.39
17.70810401439667,3,3,3,2,-11.97,-1.67,0.41,-0.18,10.27,-13.36
17.71810400485992,3,3,3,2,-11.93,-0.93,0.39,0.47,11.88,-13.75
17.72810399532318,3,3,3,2,-10.47,-1.1,0.05,-0.08,12.36,-12.14
17.73810398578644,3,3,3,2,-8.56,-1.64,-1.27,0.34,11.77,-10.36
17.74810397624969,3,3,3,2,-8.65,-1.03,-2.21,1.49,11.45,-10.44
17.75810396671295,3,3,3,2,-8.73,-0.92,-2.9,2.12,10.95,-11.88
17.76810395717621,3,3,3,2,-8.890000000000001,-0.85,-3.29,5.07,10.14,-13.07
17.77810394763947,3,3,3,2,-9.59,0.67,-3.29,5.98,10.47,-12.38
17.78810393810272,3,3,3,2,-9.619999999999999,0.29,-3.13,7.59,10.38,-11.64
17.79810392856598,3,3,3,2,-9.609999999999999,-0.16,-2.9,7.59,10.38,-11.64
17.80810415744781,3,3,3,2,-9.76,-0.24,-2.76,9.75,9.9,-11.41
17.81810414791107,3,3,3,2,-9.48,-0.01,-2.01,13.74,7.6,-11.69
17.82810413837433,3,3,3,2,-9.460000000000001,0.45,-1.83,14.72,6.95,-11.23
17.83810412883759,3,3,3,2,-9.359999999999999,1.2,-1.66,15.42,6.75,-11.21
17.84810411930084,3,3,3,2,-9.51,1.27,-1.97,15.42,6.75,-11.21
17.8581041097641,3,3,3,2,-9.25,1.51,-2.45,16.6,6.39,-11.57
17.86810410022736,3,3,3,2,-9.18,1.53,-2.92,19.01,4.86,-13.35
17.87810409069061,3,3,3,2,-9.17,1.68,-3.15,19.32,3.43,-14.22
17.88810408115387,3,3,3,2,-9.130000000000001,1.66,-2.99,18.79,3.45,-14.26
17.89810407161713,3,3,3,2,-9.359999999999999,1.73,-2.61,18.79,3.45,-14.26
17.90810406208038,3,3,3,2,-9.4,1.67,-2.18,18.23,4.46,-13.9
17.91810405254364,3,3,3,2,-9.26,0.95,-2.03,19.61,5.84,-11.17
17.9281040430069,3,3,3,2,-9.26,0.45,-2.29,18.56,5.28,-8.93
17.93810403347015,3,3,3,2,-9.65,0.46,-3.5,16,3.63,-7.57
17.94810402393341,3,3,3,2,-9.57,0.59,-3.36,16,3.63,-7.57
17.95810401439667,3,3,3,2,-9.630000000000001,0.38,-3.25,12.65,2.63,-7.23
17.96810400485992,3,3,3,2,-9.75,0.06,-2.88,9.24,1.28,-7.6
17.97810399532318,3,3,3,2,-9.57,-0.33,-2.19,9,1.1,-7.82
17.98810398578644,3,3,3,2,-9.470000000000001,-0.24,-1.95,9.119999999999999,1.4,-7.75
17.99810397624969,3,3,3,2,-9.42,0.04,-1.78,9.119999999999999,1.4,-7.75
18.00810396671295,3,3,3,2,-9.359999999999999,0.1,-1.83,9.16,1.99,-7.58
18.01810395717621,3,3,3,2,-9.42,-0.59,-1.88,8.77,2.57,-7.21
18.02810394763947,3,3,3,2,-9.52,-1.24,-2.38,9.470000000000001,2.24,-7.03
18.04810392856598,3,3,3,2,-9.57,-1.29,-2.43,10.22,1.55,-7.06
18.07810413837433,3,3,3,2,-8.94,-0.52,-2.6,9.619999999999999,1.24,-7.74
18.08810412883759,3,3,3,2,-9,-0.6,-2.51,9.49,1.4,-7.78
18.09810411930084,3,3,3,2,-9.199999999999999,-0.71,-2.33,9.49,1.4,-7.78
18.1081041097641,3,3,3,2,-9.279999999999999,-0.74,-2.2,9.49,1.31,-7.89
18.11910402774811,3,3,3,2,-9.449999999999999,-0.5,-2.03,9.890000000000001,1.15,-7.89
18.12910401821136,3,3,3,2,-9.59,-0.21,-2,9.83,1.17,-7.91
18.13910400867462,3,3,3,2,-9.880000000000001,0.68,-1.58,9.44,1.22,-7.97
18.14910399913788,3,3,3,2,-9.94,1.18,-1.48,9.44,1.22,-7.97
18.15910398960114,3,3,3,2,-9.91,1.41,-1.55,8.69,1.03,-7.94
18.16910398006439,3,3,3,2,-10.02,1.43,-1.57,7.09,0.51,-6.95
18.17910397052765,3,3,3,2,-10.48,1.31,-1.61,6.47,0.46,-6.31
18.18910396099091,3,3,3,2,-10.76,1.07,-1.57,7.67,-0.09,-5.88
18.19910395145416,3,3,3,2,-10.94,0.72,-1.75,7.67,-0.09,-5.88
18.20910394191742,3,3,3,2,-10.87,0.93,-1.58,8.140000000000001,0.67,-5.44
18.21910393238068,3,3,3,2,-11.64,1.92,-2.3,10.27,0.73,-5.19
18.22910392284393,3,3,3,2,-12.32,2.72,-2.35,8.94,0.63,-4.59
18.23910415172577,3,3,3,2,-12.98,3.84,-1.51,5.71,-0.17,-4.02
18.24910414218903,3,3,3,2,-12.99,5.43,-0.58,5.71,-0.17,-4.02
18.25910413265228,3,3,3,2,-12.68,6.3,0.51,2.2,-0.9,-3.02
18.26910412311554,3,3,3,2,-12.9,6.39,1.2,-1.77,-2.6,1.93
18.2791041135788,3,3,3,2,-13.44,6.3,2.03,-4.85,-5.44,4.73
18.28910410404205,3,3,3,2,-15.81,5.39,2.62,-5.34,-9.539999999999999,5.95
18.29910409450531,3,3,3,2,-14.98,3.72,3.34,-5.34,-9.539999999999999,5.95
18.30910408496857,3,3,3,2,-14.45,3.65,3.5,-1.85,-11.11,8.869999999999999
18.31910407543182,3,3,3,2,-12.81,3.98,3.02,7.89,-11.83,12.53
18.32910406589508,3,3,3,2,-12.39,3.98,0.79,8.92,-11.46,14.17
18.33910405635834,3,3,3,2,-10.96,2.43,-3.34,5.16,-10.56,15.38
18.34910404682159,3,3,3,2,-11.16,-0.01,-3.47,5.16,-10.56,15.38
18.35910403728485,3,3,3,2,-11.71,-2.39,-3.32,2.93,-9.15,15.6
18.37910401821136,3,3,3,2,-14.45,-3.53,-2.37,3.97,-3.75,16.83
18.38910400867462,3,3,3,2,-15.53,-2.72,-2.39,2.68,-4.67,15.5
18.39910399913788,3,3,3,2,-15.78,-2.42,-2.05,2.68,-4.67,15.5
18.40910398960114,3,3,3,2,-13.99,-4.63,-0.84,1.02,-4.87,14.55
18.41910398006439,3,3,3,2,-11.9,-7.4,-0.98,-2.81,-5.77,16.12
18.42910397052765,3,3,3,2,-10.27,-8.06,-1.36,0.29,-4.48,17.5
18.43910396099091,3,3,3,2,-10.89,-6.51,-1.56,2.88,-5.5,18.01
18.44910395145416,3,3,3,2,-11.51,-5.42,-1.87,2.88,-5.5,18.01
18.45910394191742,3,3,3,2,-11.4,-5.23,-1.89,2.6,-5.37,18.33
18.46910393238068,3,3,3,2,-10.77,-5.73,-1.7,1.77,-4.56,20.53
18.47910392284393,3,3,3,2,-10.05,-5.07,-2.07,-0.12,-5.14,20.78
18.48910415172577,3,3,3,2,-9.58,-4,-1.57,-0.35,-3.92,21.12
18.49910414218903,3,3,3,2,-9.48,-3.38,-1.64,-0.35,-3.92,21.12
18.50910413265228,3,3,3,2,-9.1,-3.4,-1.77,-2.8,-2.94,20.74
18.51910412311554,3,3,3,2,-8.82,-4.13,-1.79,-10.03,-3.01,19.72
18.5291041135788,3,3,3,2,-9.1,-4.65,-3.35,-11.29,-2.99,19.38
18.53910410404205,3,3,3,2,-5.79,-6.21,-2.39,-9.130000000000001,0.77,18.46
18.54910409450531,3,3,3,2,-10.87,-1.97,-3.67,-9.130000000000001,0.77,18.46
18.55910408496857,3,3,3,2,-6.39,-5.2,-2.91,-11.66,-0.96,16.67
18.56910407543182,3,3,3,2,-8.16,-2.82,-3.35,-15.33,-0.67,15.01
18.57910406589508,3,3,3,2,-8.18,-3.01,-3.61,-18.31,-2.24,15.3
