timestamp,magCalib,accCalib,gyrCalib,sysCalib,accX,accY,accZ,gyrX,gyrY,gyrZ
0.03610408306121826,2,3,3,0,-8.58,2.59,-0.37,21.08,-0.9,-1.91
0.0461040735244751,2,3,3,0,-9.02,2.79,-0.11,18.79,-0.68,-2.29
0.05610406398773193,2,3,3,0,-9.59,2.92,-0.02,16.03,-0.66,-2.61
0.06610405445098877,2,3,3,0,-10.05,2.82,0,13.31,-1.19,-2.87
0.07610404491424561,2,3,3,0,-10.04,2.39,-0.31,11.01,-1.88,-3.01
0.08610403537750244,2,3,3,0,-9.91,1.98,-0.42,9.130000000000001,-2.22,-3.02
0.09610402584075928,2,3,3,0,-9.720000000000001,1.43,-0.52,7.57,-2.14,-2.9
0.1061040163040161,2,3,3,0,-9.539999999999999,0.91,-0.45,6.53,-1.84,-2.71
0.1161040067672729,2,3,3,0,-9.31,0.1,-0.3,6.17,-1.51,-2.53
0.1261039972305298,2,3,3,1,-9.449999999999999,-0.04,-0.47,6.46,-1.12,-2.32
0.1361039876937866,2,3,3,1,-9.710000000000001,-0.2,-0.77,7.22,-0.93,-2.16
0.1461039781570435,2,3,3,1,-9.789999999999999,-0.34,-0.82,8.109999999999999,-0.88,-2.01
0.1561039686203003,2,3,3,1,-9.699999999999999,-0.44,-1.06,8.85,-0.76,-1.76
0.1661039590835571,2,3,3,1,-9.51,-0.39,-1.09,9.619999999999999,-0.36,-1.53
0.176103949546814,2,3,3,1,-9.41,-0.37,-1.05,10.57,0.28,-1.26
0.1861039400100708,2,3,3,1,-9.91,0.03,-1.13,11.72,0.73,-0.95
0.1971040964126587,2,3,3,1,-10.14,0.13,-1.14,12.8,0.74,-0.53
0.2061039209365845,2,3,3,1,-10.41,0.22,-1.19,13.65,0.76,-0.26
0.2161041498184204,2,3,3,1,-10.64,0.43,-1.14,14.18,0.54,-0.04
0.2261041402816772,2,3,3,1,-10.53,0.82,-0.95,14.35,0.08,0.11
0.2361041307449341,2,3,3,1,-10.44,0.85,-0.95,14.21,-0.46,0.22
0.2461041212081909,2,3,3,1,-10.26,0.89,-0.98,14.2,-1.15,0.35
0.2571040391921997,2,3,3,1,-9.98,0.78,-0.96,14.1,-1.76,0.42
0.2671040296554565,2,3,3,1,-9.359999999999999,0.87,-0.9,13.76,-2.15,0.44
0.2771040201187134,2,3,3,1,-9.470000000000001,0.91,-0.79,13.52,-2.14,0.33
0.2871040105819702,2,3,3,1,-9.48,0.96,-0.66,13.53,-2.2,0.15
0.2971040010452271,2,3,3,1,-9.44,1.06,-0.74,13.63,-2.36,0.12
0.3071039915084839,2,3,3,1,-9.630000000000001,1.27,-0.8100000000000001,13.54,-2.44,0.2
0.3171039819717407,2,3,3,1,-9.74,1.37,-0.72,13.27,-2.62,0.36
0.3271039724349976,2,3,3,1,-9.949999999999999,1.39,-0.84,13.01,-2.82,0.52
0.3371039628982544,2,3,3,1,-10.22,1.52,-0.74,12.85,-2.89,0.66
0.3471039533615112,2,3,3,1,-10.31,1.54,-0.6899999999999999,13.05,-3.28,0.7
0.3571039438247681,2,3,3,1,-10.05,1.64,-0.79,12.82,-4.24,0.74
0.3671039342880249,2,3,3,1,-9.609999999999999,1.62,-0.72,12.74,-4.97,0.77
0.3771039247512817,2,3,3,1,-9.48,1.55,-0.6899999999999999,12.74,-4.98,0.85
0.3871041536331177,2,3,3,1,-9.49,1.58,-0.7,12.45,-4.88,0.88
0.3971041440963745,2,3,3,1,-9.529999999999999,1.7,-0.7,12.24,-4.78,0.9399999999999999
0.4071041345596313,2,3,3,1,-9.529999999999999,1.84,-0.62,12,-4.61,1.2
0.4171041250228882,2,3,3,1,-9.73,1.9,-0.47,11.4,-4.65,1.52
0.427104115486145,2,3,3,1,-9.619999999999999,1.84,-0.51,10.52,-4.95,1.81
0.4371041059494019,2,3,3,1,-9.52,1.81,-0.42,9.52,-4.92,1.96
0.4471040964126587,2,3,3,1,-9.59,1.85,-0.45,8.609999999999999,-4.64,1.99
0.4571040868759155,2,3,3,1,-10.27,1.75,-0.23,7.66,-4.38,1.97
0.4671040773391724,2,3,3,1,-9.83,1.88,-0.14,6.45,-4.45,2.02
0.4771040678024292,2,3,3,1,-9.279999999999999,1.77,0,5.39,-4.4,2.02
0.487104058265686,2,3,3,1,-9.6,1.81,-0.13,4.52,-4.19,2.08
0.4971040487289429,2,3,3,1,-9.41,1.55,-0.14,3.52,-4,2.21
0.5071040391921997,2,3,3,1,-9.390000000000001,1.67,0,2.65,-3.96,2.27
0.5171040296554565,2,3,3,1,-9.449999999999999,1.33,-0.02,2.03,-3.74,2.29
0.5271040201187134,2,3,3,1,-9.17,1.3,0.08,1.74,-3.52,2.34
0.5371040105819702,2,3,3,1,-8.67,1.19,0.21,1.27,-3.22,2.37
0.5471040010452271,2,3,3,1,-10.15,1.72,0.04,0.97,-2.06,2.47
0.5571039915084839,2,3,3,1,-9.59,2.01,0.5,1.03,-2.38,2.27
0.5671039819717407,2,3,3,1,-9.83,2.16,0,0.88,-2.3,2.02
0.5771039724349976,2,3,3,1,-9.35,2.23,0.19,0.47,-2.1,1.6
0.5871039628982544,2,3,3,1,-9.06,2.45,0.32,-0.12,-1.67,0.97
0.5971039533615112,2,3,3,1,-9,2.43,0.02,-0.87,-0.85,0.38
0.6071039438247681,2,3,3,1,-9.289999999999999,1.47,-0.59,-1.9,0.09,-0.29
0.6171039342880249,2,3,3,1,-9.68,1.05,-0.65,-3.09,1.19,-1.05
0.6271039247512817,2,3,3,1,-9.98,0.88,-0.53,-4.02,1.93,-1.74
0.6371041536331177,2,3,3,1,-10.12,0.88,-0.38,-4.83,2.42,-2.18
0.6471041440963745,2,3,3,1,-9.619999999999999,1.1,-0.14,-5.57,2.86,-2.3
0.6571041345596313,2,3,3,1,-9.33,1.24,-0.01,-6.28,3.15,-2.04
0.6671041250228882,2,3,3,1,-9.23,1.53,0.31,-6.91,3.18,-1.4
0.677104115486145,2,3,3,2,-8.869999999999999,2.39,0.75,-7.35,3.13,-0.75
0.6871041059494019,2,3,3,2,-8.93,2.73,0.75,-8,3.4,-0.33
0.6971040964126587,2,3,3,2,-9.08,2.83,0.51,-8.960000000000001,3.34,0.07000000000000001
0.7071040868759155,2,3,3,2,-9.19,2.75,0.43,-9.93,3.29,0.19
0.7171040773391724,2,3,3,2,-9.619999999999999,2.33,0.2,-10.88,3.4,0.07000000000000001
0.7271040678024292,2,3,3,2,-9.85,2.14,0.38,-11.56,3.43,-0.19
0.737104058265686,2,3,3,2,-10.03,1.92,0.44,-11.61,3.2,-0.52
0.7471040487289429,2,3,3,2,-10.26,1.67,0.47,-11.15,2.83,-0.79
0.7571040391921997,2,3,3,2,-10.44,1.76,0.86,-10.14,2.37,-0.93
0.7671040296554565,2,3,3,2,-10.5,1.8,1.1,-8.76,1.92,-0.84
0.7771040201187134,2,3,3,2,-10.35,1.94,1.3,-7.29,1.42,-0.61
0.7871040105819702,2,3,3,2,-10.27,2.08,1.42,-5.8,0.93,-0.3
0.7971040010452271,2,3,3,2,-9.949999999999999,2.26,1.41,-4.45,0.39,0.02
0.8071039915084839,2,3,3,2,-9.81,2.34,1.57,-3.19,-0.15,0.23
0.8171039819717407,2,3,3,2,-9.710000000000001,2.43,1.7,-2.06,-0.7,0.31
0.8271039724349976,2,3,3,2,-10.09,2.7,1.59,-1.17,-1.21,0.16
0.8371039628982544,2,3,3,2,-10.29,2.87,1.59,-0.41,-1.77,-0.21
0.8471039533615112,2,3,3,2,-10.52,3.09,1.51,0.08,-2.39,-0.75
0.8571039438247681,2,3,3,2,-10.61,3.25,1.55,0.35,-3.11,-1.33
0.8671039342880249,2,3,3,2,-10.86,3.08,1.79,0.14,-4.09,-2.01
0.8771039247512817,2,3,3,2,-10.63,2.76,1.88,-0.37,-4.68,-2.32
0.8871041536331177,2,3,3,2,-10.76,2.43,1.89,-0.27,-4.77,-2.08
0.8971041440963745,2,3,3,2,-10.36,2.05,1.84,0.17,-4.67,-1.55
0.9071041345596313,2,3,3,2,-9.49,1.24,2.02,0.57,-4.51,-1.14
0.9171041250228882,2,3,3,2,-9.26,1.08,1.66,0.44,-4.41,-0.77
0.927104115486145,2,3,3,2,-8.970000000000001,0.88,1.41,0.76,-4.37,-0.43
0.9371041059494019,2,3,3,2,-8.83,0.82,1.56,1.3,-4.44,-0.17
0.9471040964126587,2,3,3,2,-8.98,0.79,1.77,1.5,-4.65,0.02
0.9571040868759155,2,3,3,2,-8.970000000000001,0.82,1.8,1.97,-4.62,0.14
0.9671040773391724,2,3,3,2,-8.91,1.1,1.42,2.04,-4.84,-0.08
0.9771040678024292,2,3,3,2,-8.42,0.89,1.56,1.61,-5.29,-0.41
0.987104058265686,2,3,3,2,-8.66,0.91,1.69,1.87,-4.68,-0.61
0.9971040487289429,2,3,3,2,-8.960000000000001,0.82,1.6,2.73,-3.68,-0.83
1.0071040391922,2,3,3,2,-8.69,0.88,1.19,2.79,-3.69,-1.28
1.017104029655457,2,3,3,2,-7.81,1.3,1.23,2.68,-3.49,-1.87
1.027104020118713,2,3,3,1,-7.59,1.48,1.23,2.89,-2.49,-2.2
1.03710401058197,2,3,3,1,-7.53,1.73,1.36,2.69,-1.71,-2.44
1.047104001045227,2,3,3,1,-7.59,1.94,1.46,2.14,-0.67,-2.52
1.057103991508484,2,3,3,1,-7.96,2.15,1.41,1.53,0.44,-2.46
1.067103981971741,2,3,3,1,-8.210000000000001,1.91,1.73,0.8,1.07,-2.4
1.077103972434998,2,3,3,1,-9.06,2.14,1.94,0.06,1.5,-2.26
1.087103962898254,2,3,3,1,-9.550000000000001,2.02,2.15,-0.83,1.31,-1.93
1.097103953361511,2,3,3,1,-11.28,1.9,1.69,-1.8,0.85,-1.96
1.107103943824768,2,3,3,1,-11.08,1.17,-0.21,-3.1,-0.72,-2.14
1.117103934288025,2,3,3,1,-10.92,0.48,-0.89,-3.82,-1.39,-2.22
1.127103924751282,2,3,3,1,-11.89,0.1,-0.06,-3.51,0.72,-1.99
1.137104153633118,2,3,3,1,-11.83,0.53,1.3,-2.88,1.89,-1.7
1.147104144096375,2,3,3,1,-11.53,0.9399999999999999,1.36,-2.34,1.25,-1.31
1.157104134559631,2,3,3,1,-10.98,1.47,1.77,-1.05,0.46,-0.7
1.167104125022888,2,3,3,1,-10.45,2.08,2.1,0.19,0.16,-0.04
1.177104115486145,2,3,3,1,-9.949999999999999,2.21,2.07,1.2,-0.12,0.75
1.187104105949402,2,3,3,1,-9.35,2.18,1.86,1.74,-0.75,1.66
1.197104096412659,2,3,3,1,-8.859999999999999,2.21,1.59,1.84,-1,2.38
1.207104086875916,2,3,3,1,-7.78,2.37,1.79,1.75,-0.75,2.81
1.217104077339172,2,3,3,1,-7.68,2.38,1.69,1.56,-0.23,3
1.227104067802429,2,3,3,1,-7.68,2.29,1.66,1.12,0.34,3.1
1.237104058265686,2,3,3,1,-7.97,2.09,1.61,0.65,1.15,3.08
1.247104048728943,2,3,3,1,-9.23,1.9,0.97,0.24,1.9,2.79
1.2571040391922,2,3,3,1,-9.789999999999999,1.88,0.86,-0.27,2.06,2.32
1.267104029655457,2,3,3,1,-10.1,1.79,0.73,-0.46,1.86,1.87
1.278103947639465,2,3,3,1,-10.18,1.58,0.66,-0.22,1.64,1.65
1.288103938102722,2,3,3,1,-9.51,1.22,0.55,0.15,1.59,1.51
1.298103928565979,2,3,3,1,-9.470000000000001,1.02,0.53,0.4,1.59,1.38
1.308104157447815,2,3,3,1,-9.44,0.92,0.62,0.79,1.83,1.17
1.318104147911072,2,3,3,1,-9.619999999999999,1.11,0.92,1.31,1.71,0.84
1.328104138374329,2,3,3,1,-9.59,1.2,0.97,2.19,0.27,0.11
1.338104128837585,2,3,3,1,-9.5,1.33,0.97,2.19,0.27,0.11
1.348104119300842,2,3,3,1,-9.41,1.39,1,2.48,-0.5600000000000001,-0.36
1.358104109764099,2,3,3,1,-9.31,1.63,1.16,2.4,-1.37,-1.22
1.368104100227356,2,3,3,1,-9.449999999999999,1.69,1.1,2.33,-1.2,-1.46
1.378104090690613,2,3,3,1,-9.77,1.76,1.03,2.33,-0.85,-1.48
1.38810408115387,2,3,3,1,-10.06,1.69,0.99,2.44,-0.4,-1.22
1.398104071617126,2,3,3,1,-10.28,1.57,0.91,2.44,0.15,-0.8
1.408104062080383,2,3,3,1,-10.11,1.43,0.93,2.45,0.63,-0.33
1.41810405254364,2,3,3,1,-9.85,1.39,0.82,2.66,1.13,0.08
1.428104043006897,2,3,3,1,-9.789999999999999,1.39,0.72,2.85,1.51,0.28
1.438104033470154,2,3,3,1,-9.25,1.18,0.89,2.92,1.46,0.31
1.448104023933411,2,3,3,1,-9.19,1.17,0.96,3.09,1.31,0.15
1.458104014396667,2,3,3,1,-9.58,1.36,1.06,3.55,0.71,0.35
1.468104004859924,2,3,3,1,-9.300000000000001,1.59,0.84,3.56,0.37,0.44
1.478103995323181,2,3,3,1,-9.300000000000001,1.59,0.84,3.06,0.23,0.21
1.488103985786438,2,3,3,1,-9.359999999999999,1.85,0.8100000000000001,2.93,0.08,0.02
1.498103976249695,2,3,3,1,-9.58,2.16,0.5600000000000001,2.53,0.01,-0.15
1.508103966712952,2,3,3,1,-9.619999999999999,2.15,0.66,2.04,-0.04,-0.25
1.518103957176208,2,3,3,1,-9.58,2.03,0.64,1.62,0.01,-0.33
1.528103947639465,2,3,3,2,-9.58,2.03,0.64,1.33,0.28,-0.36
1.538103938102722,2,3,3,2,-9.56,1.96,0.66,1.19,0.5,-0.34
1.548103928565979,2,3,3,2,-9.85,1.6,0.59,0.97,0.52,-0.22
1.558104157447815,2,3,3,2,-9.949999999999999,1.51,0.58,0.87,0.55,-0.03
1.568104147911072,2,3,3,2,-9.99,1.55,0.61,0.95,0.52,0.18
1.578104138374329,2,3,3,2,-9.99,1.55,0.61,0.99,0.43,0.34
1.588104128837585,2,3,3,2,-9.800000000000001,1.53,0.61,1.04,0.36,0.47
1.598104119300842,2,3,3,2,-9.529999999999999,1.74,0.43,1.21,0.39,0.57
1.608104109764099,2,3,3,2,-9.550000000000001,1.92,0.47,1.23,0.37,0.61
1.618104100227356,2,3,3,2,-9.529999999999999,2.05,0.48,1.2,0.27,0.59
1.628104090690613,2,3,3,2,-9.529999999999999,2.05,0.48,1.2,0.27,0.59
1.63810408115387,2,3,3,2,-9.44,2.23,0.37,0.99,0.18,0.46
1.648104071617126,2,3,3,2,-9.449999999999999,2.22,0.27,0.47,0.23,0.01
1.658104062080383,2,3,3,2,-9.5,2.07,0.32,0.13,0.24,-0.27
1.66810405254364,2,3,3,2,-9.5,2.07,0.32,-0.12,0.27,-0.47
1.678104043006897,2,3,3,2,-9.6,1.96,0.41,-0.12,0.27,-0.47
1.688104033470154,2,3,3,2,-9.640000000000001,1.88,0.44,-0.41,0.26,-0.65
1.698104023933411,2,3,3,2,-9.67,1.85,0.45,-0.7,0.11,-0.78
1.708104014396667,2,3,3,2,-9.720000000000001,1.71,0.44,-0.78,0.05,-0.72
1.718104004859924,2,3,3,2,-9.699999999999999,1.69,0.5,-0.74,0.03,-0.66
1.728103995323181,2,3,3,2,-9.65,1.6,0.53,-0.74,0.03,-0.66
1.738103985786438,2,3,3,2,-9.58,1.56,0.49,-0.66,0.05,-0.5600000000000001
1.748103976249695,2,3,3,2,-9.619999999999999,1.52,0.53,-0.4,0.33,-0.21
1.758103966712952,2,3,3,2,-9.619999999999999,1.49,0.47,-0.27,0.39,-0.13
1.768103957176208,2,3,3,2,-9.59,1.47,0.51,-0.01,0.41,-0.03
1.778103947639465,2,3,3,2,-9.66,1.37,0.57,-0.01,0.41,-0.03
1.788103938102722,2,3,3,2,-9.74,1.81,0.64,0.35,0.35,0.13
1.798103928565979,2,3,3,2,-9.81,2.17,0.55,-0.31,0.37,0.26
1.808104157447815,2,3,3,2,-9.73,1.74,0.45,-0.64,0.43,0.28
1.818104147911072,2,3,3,2,-9.449999999999999,1.71,0.58,-0.97,0.47,0.27
1.828104138374329,2,3,3,2,-9.35,1.67,0.65,-0.97,0.47,0.27
1.838104128837585,2,3,3,2,-9.359999999999999,1.63,0.6899999999999999,-1.06,0.53,0.22
1.848104119300842,2,3,3,2,-9.49,1.57,0.66,-1.28,0.57,0.33
1.858104109764099,2,3,3,2,-9.550000000000001,1.42,0.63,-1.13,0.63,0.39
1.868104100227356,2,3,3,2,-9.68,1.38,0.65,-0.97,0.59,0.43
1.878104090690613,2,3,3,2,-9.65,1.38,0.61,-0.97,0.59,0.43
1.88810408115387,2,3,3,2,-9.68,1.37,0.62,-0.84,0.51,0.38
1.898104071617126,2,3,3,2,-9.890000000000001,1.46,0.61,-0.96,0.51,0.33
1.908104062080383,2,3,3,2,-9.91,1.46,0.57,-1.06,0.35,0.29
1.91810405254364,2,3,3,2,-9.85,1.38,0.6,-1.04,0.25,0.2
1.928104043006897,2,3,3,2,-9.75,1.35,0.63,-1.04,0.25,0.2
1.938104033470154,2,3,3,3,-9.74,1.29,0.71,-0.99,0.17,0.15
1.948104023933411,2,3,3,3,-9.69,1.25,0.72,-0.64,0.04,0.18
1.958104014396667,2,3,3,3,-9.699999999999999,1.19,0.6899999999999999,-0.42,0,0.13
1.968104004859924,2,3,3,3,-9.710000000000001,1.21,0.74,-0.22,-0.13,0.13
1.978103995323181,2,3,3,3,-9.619999999999999,1.14,0.47,-0.22,-0.13,0.13
1.988103985786438,2,3,3,3,-9.67,1.21,0.5,0.14,-0.3,0.12
1.998103976249695,2,3,3,3,-9.82,1.31,0.55,0.5,-0.38,0.12
2.008103966712952,2,3,3,3,-9.699999999999999,1.23,0.51,1.05,-0.64,-0.08
2.018103957176208,2,3,3,3,-9.550000000000001,1.22,0.49,1.46,-0.5,-0.15
2.028103947639465,2,3,3,3,-9.5,1.18,0.72,1.46,-0.5,-0.15
2.038103938102722,2,3,3,3,-9.640000000000001,1.35,0.79,1.76,-0.35,-0.11
2.048103928565979,2,3,3,3,-9.77,1.38,0.5,2.01,-0.41,-0.02
2.058104157447815,2,3,3,3,-9.48,1.48,0.47,2.4,-0.38,0.1
2.068104147911072,2,3,3,3,-9.42,1.87,0.51,2.04,-0.45,0.09
2.078104138374329,2,3,3,3,-9.84,2.09,0.55,2.04,-0.45,0.09
2.088104128837585,2,3,3,3,-9.43,1.52,0.66,1.48,-0.34,-0.05
2.098104119300842,2,3,3,3,-9.57,1.7,0.64,0.85,-0.09,-0.09
2.108104109764099,2,3,3,3,-9.98,2.01,0.55,0.57,-0.36,0.08
2.118104100227356,2,3,3,3,-10.04,1.85,0.44,0.32,-0.09,0.12
2.128104090690613,2,3,3,3,-9.44,1.8,0.47,0.32,-0.09,0.12
2.13810408115387,2,3,3,3,-9.81,2.13,0.51,-0.2,-0.09,0
2.148104071617126,2,3,3,3,-9.08,1.54,0.63,0.03,0.54,-0.06
2.158104062080383,2,3,3,3,-10.22,1.97,0.6,0.03,0.54,-0.06
2.16810405254364,2,3,3,3,-9.84,1.87,0.5,0.04,0.19,0.03
2.178104043006897,2,3,3,3,-10.05,2.21,0.46,0.07000000000000001,-0.04,0.07000000000000001
2.188104033470154,2,3,3,3,-9.609999999999999,1.79,0.49,-0.21,-0.21,0.12
2.198104023933411,2,3,3,3,-9.27,1.32,0.47,-0.5,0.05,0.04
2.208104014396667,2,3,3,3,-9.27,1.66,0.53,-0.29,0.28,-0.04
2.218104004859924,2,3,3,3,-10.32,2.05,0.22,-0.18,0.25,0.09
2.228103995323181,2,3,3,3,-9.5,1.65,0.41,-0.23,0,0
2.238103985786438,2,3,3,3,-9.369999999999999,1.35,0.58,-0.23,0.13,-0.01
2.248103976249695,2,3,3,3,-9.890000000000001,1.85,0.46,-0.13,0.22,-0.02
2.258103966712952,2,3,3,3,-10.04,1.91,0.35,-0.15,-0.01,-0.02
2.268103957176208,2,3,3,3,-9.69,1.75,0.46,-0.43,-0.09,-0.04
2.278103947639465,2,3,3,3,-9.65,1.55,0.46,-0.63,0.02,-0.02
2.288103938102722,2,3,3,3,-9.619999999999999,1.62,0.5,-0.62,0.08,0.02
2.298103928565979,2,3,3,3,-9.630000000000001,1.67,0.58,-0.68,0.11,0.06
2.309104084968567,2,3,3,3,-9.59,1.56,0.52,-0.52,0.19,0.12
2.319104075431824,2,3,3,3,-9.539999999999999,1.21,0.52,-0.35,0.16,0.15
2.329104065895081,2,3,3,3,-9.82,1.84,0.35,-0.09,0.11,0.18
2.339104056358337,2,3,3,3,-9.73,1.67,0.45,-0.01,0.13,0.3
2.349104046821594,2,3,3,3,-9.68,1.85,0.43,-0.17,0.09,0.23
2.359104037284851,2,3,3,3,-9.619999999999999,1.8,0.35,-0.13,0.09,0.2
2.369104027748108,2,3,3,3,-9.720000000000001,1.94,0.38,-0.37,0.08,0.09
2.379104018211365,2,3,3,3,-9.66,1.89,0.48,-0.58,-0.03,0
2.389104008674622,2,3,3,3,-9.51,1.73,0.47,-0.79,-0.11,-0.12
2.399103999137878,2,3,3,3,-9.630000000000001,1.55,0.52,-0.8100000000000001,-0.11,-0.29
2.409103989601135,2,3,3,3,-9.75,1.62,0.5,-0.54,-0.2,-0.42
2.419103980064392,2,3,3,3,-9.75,1.67,0.43,-0.25,-0.27,-0.45
2.429103970527649,2,3,3,3,-9.789999999999999,1.71,0.43,-0.02,-0.29,-0.46
2.439103960990906,2,3,3,3,-9.619999999999999,1.78,0.47,-0.09,-0.29,-0.48
2.449103951454163,2,3,3,3,-9.68,1.83,0.51,-0.36,-0.16,-0.48
2.459103941917419,2,3,3,3,-9.619999999999999,1.46,0.68,-0.55,-0.05,-0.42
2.469103932380676,2,3,3,3,-9.609999999999999,1.72,0.44,-0.51,-0.08,-0.42
2.479103922843933,2,3,3,3,-9.609999999999999,1.36,0.59,-0.73,-0.22,-0.6
2.489104151725769,2,3,3,3,-9.58,1.09,0.54,-0.46,-0.2,-0.68
2.499104142189026,2,3,3,3,-9.99,1.23,0.47,-0.3,-0.07000000000000001,-0.58
2.509104132652283,2,3,3,3,-9.9,1.29,0.32,-0.39,0.08,-0.29
2.51910412311554,2,3,3,3,-9.81,1.31,0.41,-0.39,0.22,0.01
2.529104113578796,2,3,3,3,-9.970000000000001,1.25,0.55,-0.31,0.29,0.19
2.539104104042053,2,3,3,3,-9.460000000000001,1.22,0.83,-0.27,0.11,0.15
2.54910409450531,2,3,3,3,-9.539999999999999,1.28,0.7,0.06,-0.05,0.04
2.559104084968567,2,3,3,3,-9.609999999999999,1.2,0.64,0.3,-0.08,0.02
2.569104075431824,2,3,3,3,-9.619999999999999,1.22,0.59,0.48,-0.11,-0.01
2.579104065895081,2,3,3,3,-9.609999999999999,1.31,0.6899999999999999,0.53,-0.18,-0.05
2.589104056358337,2,3,3,3,-9.56,1.36,0.72,0.53,-0.16,-0.14
2.599104046821594,2,3,3,3,-9.609999999999999,1.43,0.83,0.64,-0.11,-0.21
2.609104037284851,2,3,3,3,-9.73,1.46,0.83,0.77,-0.08,-0.23
2.619104027748108,2,3,3,3,-9.81,1.42,0.8,0.88,-0.11,-0.23
2.629104018211365,2,3,3,3,-9.789999999999999,1.39,0.71,0.78,-0.22,-0.26
2.639104008674622,2,3,3,3,-9.800000000000001,1.4,0.68,0.67,-0.24,-0.24
2.649103999137878,2,3,3,3,-9.75,1.38,0.78,0.54,-0.23,-0.2
2.659103989601135,2,3,3,3,-9.59,1.38,0.6899999999999999,0.29,-0.17,-0.16
2.669103980064392,2,3,3,3,-9.59,1.36,0.82,0.11,-0.08,-0.14
2.679103970527649,2,3,3,3,-9.6,1.39,0.8,-0.05,0.03,-0.07000000000000001
2.689103960990906,2,3,3,3,-9.6,1.37,0.83,-0.27,0.08,0.04
2.699103951454163,2,3,3,3,-9.6,1.29,0.78,-0.55,0.09,0.16
2.709103941917419,2,3,3,3,-9.57,1.25,0.75,-0.8100000000000001,0.04,0.28
2.719103932380676,2,3,3,3,-9.58,1.2,0.77,-0.95,0.05,0.44
2.729103922843933,2,3,3,3,-9.58,1.2,1,-1.06,0.08,0.58
2.739104151725769,2,3,3,3,-9.640000000000001,1.2,0.98,-0.89,0.23,0.71
2.749104142189026,2,3,3,3,-9.68,1.21,0.87,-0.73,0.25,0.72
2.759104132652283,2,3,3,3,-9.699999999999999,1.17,0.7,-0.57,0.2,0.73
2.76910412311554,2,3,3,3,-9.68,1.19,0.78,-0.47,0.24,0.6899999999999999
2.779104113578796,2,3,3,3,-9.65,1.23,0.74,-0.35,0.29,0.67
2.789104104042053,2,3,3,3,-9.59,1.28,0.75,-0.11,0.26,0.5600000000000001
2.79910409450531,2,3,3,3,-9.529999999999999,1.24,0.79,0.09,0.19,0.46
2.809104084968567,2,3,3,3,-9.6,1.21,0.76,0.17,0.11,0.38
2.819104075431824,2,3,3,3,-9.65,1.17,0.87,0.24,0.13,0.21
2.829104065895081,2,3,3,3,-9.73,1.18,0.9399999999999999,0.27,0.03,0.11
2.839104056358337,2,3,3,3,-9.710000000000001,1.18,0.92,0.36,-0.15,0
2.849104046821594,2,3,3,3,-9.73,1.17,0.86,0.66,-0.29,-0.05
2.859104037284851,2,3,3,3,-9.68,1.2,0.75,1.05,-0.44,-0.16
2.869104027748108,2,3,3,3,-9.630000000000001,1.18,0.65,1.41,-0.48,-0.19
2.879104018211365,2,3,3,3,-9.56,1.21,0.6899999999999999,1.77,-0.4,-0.19
2.889104008674622,2,3,3,3,-9.52,1.23,0.75,2.03,-0.32,-0.19
2.899103999137878,2,3,3,3,-9.52,1.29,0.7,2.17,-0.27,-0.18
2.909103989601135,2,3,3,3,-9.57,1.31,0.72,2.16,-0.25,-0.17
2.919103980064392,2,3,3,3,-9.77,1.42,0.55,2.02,-0.23,-0.15
2.929103970527649,2,3,3,3,-9.77,1.44,0.59,1.84,-0.24,-0.1
2.939103960990906,2,3,3,3,-9.73,1.5,0.64,1.63,-0.19,-0.05
2.949103951454163,2,3,3,3,-9.710000000000001,1.58,0.75,1.38,-0.07000000000000001,-0.05
2.959103941917419,2,3,3,3,-9.619999999999999,1.68,0.63,1.05,0,-0.07000000000000001
2.969103932380676,2,3,3,3,-9.619999999999999,1.62,0.64,0.73,0.02,-0.09
2.979103922843933,2,3,3,3,-9.67,1.55,0.68,0.36,0.09,-0.04
2.989104151725769,2,3,3,3,-9.73,1.56,0.67,0.04,0.19,0.06
2.999104142189026,2,3,3,3,-9.789999999999999,1.56,0.6899999999999999,-0.31,0.21,0.24
3.009104132652283,2,3,3,3,-9.81,1.54,0.71,-0.78,0.22,0.4
3.01910412311554,2,3,3,3,-9.789999999999999,1.49,0.89,-1.2,0.25,0.57
3.029104113578796,2,3,3,3,-9.67,1.46,0.8,-1.41,0.25,0.73
3.039104104042053,2,3,3,3,-9.59,1.53,0.72,-1.32,0.35,0.91
3.04910409450531,2,3,3,3,-9.550000000000001,1.58,0.65,-1.3,0.45,1.02
3.059104084968567,2,3,3,3,-9.51,1.64,0.52,-1.28,0.55,1.05
3.069104075431824,2,3,3,3,-9.539999999999999,1.72,0.53,-1.32,0.64,1.06
3.079104065895081,2,3,3,3,-9.6,1.72,0.57,-1.45,0.72,1.02
3.089104056358337,2,3,3,3,-9.619999999999999,1.77,0.55,-1.74,0.71,0.95
3.099104046821594,2,3,3,3,-9.65,1.77,0.6,-1.83,0.68,0.9
3.109104037284851,2,3,3,3,-9.73,1.72,0.58,-1.98,0.6899999999999999,0.79
3.119104027748108,2,3,3,3,-9.710000000000001,1.67,0.6,-2.11,0.54,0.62
3.129104018211365,2,3,3,3,-9.65,1.64,0.61,-2.41,0.36,0.4
3.139104008674622,2,3,3,3,-9.56,1.5,0.84,-2.52,0.21,0.16
3.149103999137878,2,3,3,3,-9.48,1.43,0.75,-2.5,0.13,-0.02
3.159103989601135,2,3,3,3,-9.44,1.39,0.63,-2.37,0.11,-0.13
3.169103980064392,2,3,3,3,-9.41,1.35,0.6,-2.08,0.11,-0.12
3.179103970527649,2,3,3,3,-9.5,1.42,0.8,-1.74,0.14,-0.11
3.189103960990906,2,3,3,3,-9.550000000000001,1.39,0.79,-1.39,0.17,-0.09
3.199103951454163,2,3,3,3,-9.67,1.35,0.71,-1.13,0.13,-0.03
3.209103941917419,2,3,3,3,-9.77,1.34,0.57,-0.9,0.16,0.06
3.219103932380676,2,3,3,3,-9.74,1.45,0.5600000000000001,-0.66,0.13,0.17
3.229103922843933,2,3,3,3,-9.710000000000001,1.51,0.53,-0.43,0.17,0.27
3.239104151725769,2,3,3,3,-9.67,1.6,0.51,-0.26,0.17,0.38
3.249104142189026,2,3,3,3,-9.65,1.68,0.52,-0.21,0.16,0.43
3.259104132652283,2,3,3,3,-9.66,1.78,0.48,-0.18,0.16,0.43
3.26910412311554,2,3,3,3,-9.67,1.81,0.53,-0.24,0.17,0.43
3.279104113578796,2,3,3,3,-9.69,1.83,0.59,-0.23,0.14,0.42
3.289104104042053,2,3,3,3,-9.699999999999999,1.82,0.66,-0.3,0.14,0.39
3.29910409450531,2,3,3,3,-9.6,1.82,0.55,-0.33,0.09,0.32
3.309104084968567,2,3,3,3,-9.59,1.79,0.48,-0.38,0.07000000000000001,0.26
3.319104075431824,2,3,3,3,-9.630000000000001,1.74,0.51,-0.37,0.12,0.18
3.330103993415833,2,3,3,3,-9.59,1.78,0.57,-0.36,0.13,0.14
3.340103983879089,2,3,3,3,-9.56,1.83,0.59,-0.3,0.07000000000000001,0.12
3.350103974342346,2,3,3,3,-9.5,1.83,0.5600000000000001,-0.23,0,0.12
3.360103964805603,2,3,3,3,-9.51,1.86,0.5,-0.16,0.04,0.14
3.37010395526886,2,3,3,3,-9.539999999999999,1.81,0.5,0.04,0.16,0.19
3.380103945732117,2,3,3,3,-9.56,1.83,0.48,0.13,0.22,0.22
3.390103936195374,2,3,3,3,-9.6,1.88,0.47,0.31,0.27,0.23
3.40010392665863,2,3,3,3,-9.68,1.89,0.46,0.4,0.23,0.25
3.410104155540466,2,3,3,3,-9.67,1.98,0.42,0.47,0.19,0.28
3.420104146003723,2,3,3,3,-9.640000000000001,1.99,0.49,0.42,0.12,0.27
3.43010413646698,2,3,3,3,-9.619999999999999,1.99,0.49,0.33,0.05,0.25
3.440104126930237,2,3,3,3,-9.6,2.03,0.52,0.12,0.02,0.17
3.450104117393494,2,3,3,3,-9.550000000000001,1.99,0.5600000000000001,-0.09,-0.01,0.08
3.46010410785675,2,3,3,3,-9.539999999999999,1.91,0.51,-0.22,-0.03,-0.01
3.470104098320007,2,3,3,3,-9.51,1.88,0.53,-0.29,0.02,-0.04
3.480104088783264,2,3,3,3,-9.470000000000001,1.8,0.6,-0.35,0.06,-0.1
3.490104079246521,2,3,3,3,-9.529999999999999,1.78,0.63,-0.37,0.06,-0.11
3.500104069709778,2,3,3,3,-9.59,1.81,0.61,-0.35,0.12,-0.13
3.510104060173035,2,3,3,3,-9.640000000000001,1.8,0.54,-0.3,0.13,-0.14
3.520104050636292,2,3,3,3,-9.74,1.78,0.6,-0.25,0.08,-0.11
3.530104041099548,2,3,3,3,-9.73,1.71,0.61,-0.21,0.04,-0.13
3.540104031562805,2,3,3,3,-9.720000000000001,1.68,0.62,-0.25,0.02,-0.13
3.550104022026062,2,3,3,3,-9.619999999999999,1.66,0.66,-0.22,0,-0.17
3.560104012489319,2,3,3,3,-9.609999999999999,1.6,0.65,-0.23,0.01,-0.21
3.570104002952576,2,3,3,3,-9.609999999999999,1.61,0.71,-0.21,0.03,-0.22
3.580103993415833,2,3,3,3,-9.619999999999999,1.58,0.7,-0.13,0.03,-0.22
3.590103983879089,2,3,3,3,-9.609999999999999,1.57,0.76,-0.07000000000000001,0.03,-0.16
3.600103974342346,2,3,3,3,-9.529999999999999,1.62,0.8,-0.09,0.04,-0.09
3.610103964805603,2,3,3,3,-9.51,1.61,0.72,0.04,0.02,-0.07000000000000001
3.62010395526886,2,3,3,3,-9.5,1.65,0.74,0.1,0.04,-0.08
3.630103945732117,2,3,3,3,-9.52,1.64,0.72,0.21,0.06,-0.14
3.640103936195374,2,3,3,3,-9.57,1.62,0.7,0.29,0.04,-0.16
3.65010392665863,2,3,3,3,-9.57,1.64,0.73,0.31,0.13,-0.18
3.660104155540466,2,3,3,3,-9.56,1.64,0.64,0.25,0.07000000000000001,-0.23
3.670104146003723,2,3,3,3,-9.619999999999999,1.65,0.6899999999999999,0.18,0.08,-0.26
3.68010413646698,2,3,3,3,-9.69,1.63,0.82,0.19,0.04,-0.3
3.690104126930237,2,3,3,3,-9.76,1.58,0.89,0.19,0.08,-0.36
3.700104117393494,2,3,3,3,-9.81,1.49,0.87,0.16,0.09,-0.43
3.71010410785675,2,3,3,3,-9.81,1.37,0.8,0.19,0.01,-0.52
3.720104098320007,2,3,3,3,-9.77,1.32,0.85,0.34,-0.01,-0.48
3.730104088783264,2,3,3,3,-9.69,1.32,0.88,0.35,-0.02,-0.39
3.740104079246521,2,3,3,3,-9.609999999999999,1.35,0.86,0.44,-0.01,-0.3
3.750104069709778,2,3,3,3,-9.609999999999999,1.45,0.87,0.52,0.01,-0.14
3.760104060173035,2,3,3,3,-9.609999999999999,1.54,0.84,0.64,0.07000000000000001,-0.02
3.770104050636292,2,3,3,3,-9.58,1.52,0.9399999999999999,0.71,0.07000000000000001,0.08
3.780104041099548,2,3,3,3,-9.6,1.51,1.15,0.75,0.18,0.2
3.790104031562805,2,3,3,3,-9.470000000000001,1.63,0.88,0.8100000000000001,0.23,0.3
3.800104022026062,2,3,3,3,-9.470000000000001,1.71,0.6,0.84,0.21,0.41
3.810104012489319,2,3,3,3,-9.44,1.76,0.33,1.01,0.18,0.43
3.820104002952576,2,3,3,3,-9.529999999999999,1.8,0.44,1.09,0.13,0.47
3.830103993415833,2,3,3,3,-9.539999999999999,1.83,0.45,0.84,0.19,0.49
3.840103983879089,2,3,3,3,-9.529999999999999,1.82,0.47,0.5600000000000001,0.19,0.47
3.850103974342346,2,3,3,3,-9.539999999999999,1.86,0.57,0.4,0.21,0.42
3.860103964805603,2,3,3,3,-9.67,2.01,0.79,0.33,0.05,0.49
3.87010395526886,2,3,3,3,-9.449999999999999,2.04,0.51,0.83,-0.52,0.66
3.880103945732117,2,3,3,3,-9.17,1.77,0.15,2.09,-1.26,1.04
3.890103936195374,2,3,3,3,-9.140000000000001,1.62,0.12,3.13,-1.09,1.17
3.90010392665863,2,3,3,3,-9.220000000000001,1.57,0.38,2.9,-0.57,0.97
3.910104155540466,2,3,3,3,-9.220000000000001,1.53,0.39,2.63,-0.21,0.76
3.920104146003723,2,3,3,3,-9.380000000000001,1.48,0.46,2.29,-0.09,0.54
3.93010413646698,2,3,3,3,-9.800000000000001,1.64,0.58,1.62,0.2,0.31
3.940104126930237,2,3,3,3,-10.25,1.85,0.67,1.04,0.32,0.21
3.950104117393494,2,3,3,3,-10.3,1.92,0.68,0.8100000000000001,0.04,0.19
3.96010410785675,2,3,3,3,-10.16,1.89,0.53,0.37,-0.28,0.07000000000000001
3.970104098320007,2,3,3,3,-9.699999999999999,1.78,0.62,-0.04,-0.49,-0.12
3.980104088783264,2,3,3,3,-9.41,1.68,0.58,-0.16,-0.61,-0.3
3.990104079246521,2,3,3,3,-9.41,1.68,0.58,-0.05,-0.59,-0.29
4.000104069709778,2,3,3,3,-9.279999999999999,1.64,0.5600000000000001,-0.03,-0.4,-0.25
4.010104060173035,2,3,3,3,-9,1.68,0.42,0.01,-0.15,-0.15
4.020104050636292,2,3,3,3,-9,1.65,0.37,0.13,0.07000000000000001,-0.04
4.030104041099548,2,3,3,3,-9.029999999999999,1.55,0.39,0.29,0.24,0.11
4.040104031562805,2,3,3,3,-9.029999999999999,1.55,0.39,0.6899999999999999,0.36,0.01
4.050104022026062,2,3,3,3,-9.17,1.44,0.47,0.61,0.25,-0.08
4.060104012489319,2,3,3,3,-9.52,1.9,0.44,0.47,0.2,-0.22
4.070104002952576,2,3,3,3,-9.619999999999999,1.96,0.47,-0.07000000000000001,-0.05,-0.52
4.080103993415833,2,3,3,3,-9.539999999999999,1.99,0.54,-0.52,-0.28,-0.97
4.090103983879089,2,3,3,3,-9.539999999999999,1.99,0.54,-0.52,-0.28,-0.97
4.100103974342346,2,3,3,3,-9.9,1.53,0.8100000000000001,-0.71,-0.64,-1.42
4.110103964805603,2,3,3,3,-9.82,1.15,0.99,-1.64,-1.24,-1.92
4.12010395526886,2,3,3,3,-9.91,1.09,1.11,-2.41,-0.72,-1.76
4.130103945732117,2,3,3,3,-10.34,0.77,1.51,-2.76,-0.46,-1.57
4.140103936195374,2,3,3,3,-10.34,0.77,1.51,-2.76,-0.46,-1.57
4.15010392665863,2,3,3,3,-10.44,0.61,1.52,-2.58,-0.5600000000000001,-1.5
4.160104155540466,2,3,3,3,-10.46,0.55,1.36,-1.4,-0.34,-1.56
4.170104146003723,2,3,3,3,-10.46,0.49,1.11,-0.86,-0.06,-1.56
4.18010413646698,2,3,3,3,-10.42,0.49,1.1,-0.38,0.02,-1.46
4.190104126930237,2,3,3,3,-10.32,0.5,1.17,-0.38,0.02,-1.46
4.200104117393494,2,3,3,3,-10.17,0.5600000000000001,1.16,-0.17,0.01,-1.29
4.21010410785675,2,3,3,3,-10.11,0.78,0.93,-0.29,0.29,-0.68
4.220104098320007,2,3,3,3,-10.25,0.92,0.89,-0.16,0.44,-0.29
4.230104088783264,2,3,3,3,-10.32,1.05,1.01,-0.14,0.46,0.03
4.240104079246521,2,3,3,3,-10.3,1.19,1.03,-0.14,0.46,0.03
4.250104069709778,2,3,3,3,-10.1,1.53,0.84,-0.21,0.39,0.26
4.260104060173035,2,3,3,3,-9.91,1.74,0.83,-0.26,0.37,0.6
4.270104050636292,2,3,3,3,-9.77,1.73,0.59,-0.2,0.4,0.67
4.280104041099548,2,3,3,3,-9.65,1.84,0.51,-0.17,0.28,0.67
4.290104031562805,2,3,3,3,-9.289999999999999,2.08,0.5,-0.17,0.28,0.67
4.300104022026062,2,3,3,3,-9.390000000000001,2.14,0.5,-0.29,0.15,0.65
4.310104012489319,2,3,3,3,-8.92,2.1,0.5600000000000001,-0.19,0.13,0.46
4.320104002952576,2,3,3,3,-9.23,2.1,0.39,-0.07000000000000001,0.06,0.42
4.330103993415833,2,3,3,3,-9.16,2.19,0.41,-0.16,0.03,0.38
4.340103983879089,2,3,3,3,-9.07,2.42,0.51,-0.16,0.03,0.38
4.351104140281677,2,3,3,3,-9.109999999999999,2.39,0.42,-0.37,0.16,0.36
4.361104130744934,2,3,3,3,-9.43,1.91,-0.06,-0.01,0.66,0.18
4.371104121208191,2,3,3,3,-9.69,2.05,-0.22,0.22,1.17,0.07000000000000001
4.381104111671448,2,3,3,3,-8.83,2.19,0.51,0.06,1.26,0.21
4.391104102134705,2,3,3,3,-8.94,2.09,0.53,0.06,1.26,0.21
4.401104092597961,2,3,3,3,-9.029999999999999,2.17,0.22,-0.25,0.9,0.39
4.411104083061218,2,3,3,3,-8.949999999999999,2.27,-0.05,-0.21,2.98,0.86
4.421104073524475,2,3,3,3,-8.640000000000001,1.88,0.43,-0.67,1.75,0.8100000000000001
4.431104063987732,2,3,3,3,-10.11,2.16,0.75,-0.63,1.57,0.91
4.441104054450989,2,3,3,3,-8.43,2.28,0.18,-0.63,1.57,0.91
4.451104044914246,2,3,3,3,-10.89,2.05,-0.03,-0.2,2.32,0.68
4.461104035377502,2,3,3,3,-9.859999999999999,1.98,0.89,-1.24,0.67,0.42
4.471104025840759,2,3,3,3,-10.77,1.74,-0.41,-1.73,-1.15,0.32
4.481104016304016,2,3,3,3,-10.92,1.61,0.37,-1.99,-1.86,0.41
4.491104006767273,2,3,3,3,-10.17,1.43,0.25,-1.99,-1.86,0.41
4.50110399723053,2,3,3,3,-8.890000000000001,1.42,0.46,-1.59,-0.22,0.63
4.511103987693787,2,3,3,3,-8.82,1.16,0.65,-0.93,-0.95,0.43
4.521103978157043,2,3,3,3,-9.18,1.11,0.5,-0.51,-0.67,0.17
4.5311039686203,2,3,3,3,-8.800000000000001,1.33,0.37,-0.02,0.51,0.18
4.541103959083557,2,3,3,3,-8.869999999999999,1.42,0.43,-0.02,0.51,0.18
4.551103949546814,2,3,3,3,-10,1.21,0.62,0.16,0.33,0.23
4.561103940010071,2,3,3,3,-10.07,1.34,0.7,0.42,-0.4,0.25
4.571103930473328,2,3,3,3,-9.93,1.44,0.6899999999999999,0.64,-0.84,0.3
4.581103920936584,2,3,3,3,-10.1,1.48,0.58,0.72,-1.61,0.23
4.59110414981842,2,3,3,3,-9.84,1.41,0.51,0.72,-1.61,0.23
4.601104140281677,2,3,3,3,-9.94,1.55,0.43,0.52,-1.47,0.19
4.611104130744934,2,3,3,3,-9.9,1.63,0.5,0.47,-1,-0.07000000000000001
4.621104121208191,2,3,3,3,-9.869999999999999,1.63,0.48,0.6,-0.86,-0.29
4.631104111671448,2,3,3,3,-9.73,1.54,0.75,0.6,-0.86,-0.29
4.641104102134705,2,3,3,3,-9.460000000000001,1.51,1.13,0.72,-0.7,-0.32
4.651104092597961,2,3,3,3,-9.380000000000001,1.52,1.1,1.17,-0.21,0.01
4.661104083061218,2,3,3,3,-9.210000000000001,1.69,0.87,1.65,-0.35,0.22
4.671104073524475,2,3,3,3,-9.1,1.63,0.6,2.18,-0.38,0.21
4.681104063987732,2,3,3,3,-9.16,1.72,0.54,2.39,0.07000000000000001,0.06
4.691104054450989,2,3,3,3,-9.15,1.89,0.57,2.48,0.36,-0.11
4.701104044914246,2,3,3,3,-9.76,1.93,0.61,2.25,0.28,-0.26
4.711104035377502,2,3,3,3,-9.69,1.85,0.63,1.89,0.1,-0.31
4.721104025840759,2,3,3,3,-9.67,1.84,0.61,1.76,-0.01,-0.34
4.731104016304016,2,3,3,3,-9.65,1.99,0.51,1.64,-0.29,-0.36
4.741104006767273,2,3,3,3,-9.66,2.12,0.53,1.31,-0.4,-0.35
4.75110399723053,2,3,3,3,-9.789999999999999,2.27,0.48,0.99,-0.21,-0.2
4.761103987693787,2,3,3,3,-9.880000000000001,2.29,0.43,0.76,-0.27,-0.08
4.771103978157043,2,3,3,3,-9.720000000000001,2.24,0.36,0.52,-0.4,-0.03
4.7811039686203,2,3,3,3,-9.800000000000001,2.31,0.44,0.16,-0.41,-0.02
4.791103959083557,2,3,3,3,-9.5,2.27,0.51,-0.19,-0.5600000000000001,-0.03
4.801103949546814,2,3,3,3,-9.41,2.16,0.49,-0.5,-0.5600000000000001,0.02
4.811103940010071,2,3,3,3,-9.279999999999999,2.23,0.48,-0.89,-0.6899999999999999,0.04
4.821103930473328,2,3,3,3,-9.35,2.26,0.52,-1.25,-0.77,-0.01
4.831103920936584,2,3,3,3,-9.289999999999999,2.22,0.71,-1.16,-0.73,-0.07000000000000001
4.84110414981842,2,3,3,3,-8.99,2.2,0.83,-0.98,-0.28,-0.16
4.851104140281677,2,3,3,3,-9.49,2,0.6,-1.13,0.34,-0.21
4.861104130744934,2,3,3,3,-9.85,1.89,0.55,-1.56,0.44,-0.25
4.871104121208191,2,3,3,3,-9.85,1.84,0.54,-1.57,0.62,-0.26
4.881104111671448,2,3,3,3,-9.77,1.86,0.63,-1.24,0.79,-0.23
4.891104102134705,2,3,3,3,-9.449999999999999,1.6,0.53,-1.01,0.9399999999999999,-0.15
4.901104092597961,2,3,3,3,-9.369999999999999,1.51,0.51,-0.75,1.06,-0.08
4.911104083061218,2,3,3,3,-9.5,1.48,0.5,-0.59,1.03,-0.05
4.921104073524475,2,3,3,3,-9.48,1.45,0.49,-0.5,0.85,-0.12
4.931104063987732,2,3,3,3,-9.32,1.31,0.58,-0.46,0.7,-0.1
4.941104054450989,2,3,3,3,-9.57,1.32,0.6899999999999999,-0.28,0.67,-0.03
4.951104044914246,2,3,3,3,-9.869999999999999,1.27,0.72,0.05,0.49,0.12
4.961104035377502,2,3,3,3,-9.91,1.29,0.8100000000000001,0.5,0.27,0.31
4.971104025840759,2,3,3,3,-9.619999999999999,1.33,0.68,1.02,0.16,0.47
4.981104016304016,2,3,3,3,-9.029999999999999,1.14,0.49,1.42,0.28,0.6
4.991104006767273,2,3,3,3,-8.68,1.08,0.13,1.82,3.2,0.41
5.00110399723053,2,3,3,3,-8.9,1.61,0.98,1.5,5.69,0.42
5.011103987693787,2,3,3,3,-9.710000000000001,1.61,1.46,2.1,4.98,0.07000000000000001
5.021103978157043,2,3,3,3,-10.57,1.65,0.51,3.14,2.88,0.44
5.0311039686203,2,3,3,3,-10.62,1.88,0.54,1.9,1.39,0.53
5.041103959083557,2,3,3,3,-11.32,1.69,0.01,1.04,0.16,0.43
5.051103949546814,2,3,3,3,-9.359999999999999,1.3,0.38,0.44,-1.69,0.33
5.061103940010071,2,3,3,3,-9.720000000000001,1.58,0.43,-0.03,-2.11,0.26
5.071103930473328,2,3,3,3,-9.31,1.35,-0.06,-0.19,-2.09,0.22
5.081103920936584,2,3,3,3,-9.460000000000001,0.97,0.45,0.37,-2.45,-0.12
5.09110414981842,2,3,3,3,-9.619999999999999,1.13,0.25,0.7,-0.85,-0.43
5.101104140281677,2,3,3,3,-9.85,0.9,0.45,1.2,0.1,-0.27
5.111104130744934,2,3,3,3,-10.51,0.93,0.4,1.1,0.3,-0.15
5.121104121208191,2,3,3,3,-9.960000000000001,1.51,0.6,0.85,-0.34,0.03
5.131104111671448,2,3,3,3,-9.73,1.69,0.5600000000000001,0.88,-0.08,0.03
5.141104102134705,2,3,3,3,-9.83,1.65,0.5,0.93,0.19,-0.3
5.151104092597961,2,3,3,3,-9.48,1.27,0.48,0.64,0.35,-0.59
5.161104083061218,2,3,3,3,-9.58,1.25,0.65,0.49,0.43,-0.41
5.171104073524475,2,3,3,3,-10.46,1.54,0.32,0.52,-0.02,-0.3
5.181104063987732,2,3,3,3,-10.31,1.56,0.36,0.66,-0.9399999999999999,-0.49
5.191104054450989,2,3,3,3,-10.14,1.32,0.87,0.65,-1.25,-0.66
5.201104044914246,2,3,3,3,-9.91,1.62,0.52,0.33,-1.56,-0.68
5.211104035377502,2,3,3,3,-9.369999999999999,1.33,0.83,0.1,-1.92,-0.62
5.221104025840759,2,3,3,3,-9.09,1.37,0.43,-0.03,-1.49,-0.5
5.231104016304016,2,3,3,3,-8.220000000000001,1.26,0.59,0.24,-0.88,-0.53
5.241104006767273,2,3,3,3,-8.69,1.36,0.66,0.6,0.13,-0.43
5.25110399723053,2,3,3,3,-9.34,1.49,0.6,0.8100000000000001,0.7,-0.29
5.261103987693787,2,3,3,3,-9.73,1.62,0.44,0.73,0.59,-0.14
5.271103978157043,2,3,3,3,-10.34,1.64,0.48,0.52,0.03,-0.17
5.2811039686203,2,3,3,3,-9.970000000000001,1.7,0.63,0.25,-0.93,-0.08
5.291103959083557,2,3,3,3,-9.720000000000001,1.65,0.64,0.08,-1.06,-0.02
5.301103949546814,2,3,3,3,-9.119999999999999,1.73,0.61,-0.15,-0.68,0.2
5.311103940010071,2,3,3,3,-9.119999999999999,1.8,0.6,-0.57,-0.5,0.36
5.321103930473328,2,3,3,3,-9.199999999999999,1.81,0.51,-0.63,-0.31,0.29
5.331103920936584,2,3,3,3,-9.279999999999999,1.7,0.45,-0.46,-0.26,0.12
5.34110414981842,2,3,3,3,-9.41,1.62,0.49,-0.41,-0.01,-0.05
5.351104140281677,2,3,3,3,-9.460000000000001,1.62,0.51,-0.33,-0.08,-0.16
5.361104130744934,2,3,3,3,-9.76,1.61,0.52,-0.07000000000000001,0.02,-0.26
5.371104121208191,2,3,3,3,-9.98,1.58,0.36,0.04,-0.23,-0.26
5.3821040391922,2,3,3,3,-9.9,1.45,0.44,0.07000000000000001,-0.25,-0.18
5.392104029655457,2,3,3,3,-9.84,1.43,0.44,-0.06,-0.2,0.09
5.402104020118713,2,3,3,3,-10.05,1.51,0.45,-0.19,-0.06,0.38
5.41210401058197,2,3,3,3,-9.75,1.52,0.55,-0.39,-0.16,0.61
5.422104001045227,2,3,3,3,-9.619999999999999,1.8,0.6899999999999999,-0.67,0.34,0.89
5.432103991508484,2,3,3,3,-9.08,1.97,0.72,-1.1,0.8100000000000001,1.09
5.442103981971741,2,3,3,3,-9.02,1.97,0.75,-1.48,1.5,1.22
5.452103972434998,2,3,3,3,-9.949999999999999,2.43,0.87,-1.83,2.06,1.3
5.462103962898254,2,3,3,3,-9.529999999999999,2.08,0.9,-2.39,1.8,1.15
5.472103953361511,2,3,3,3,-9.31,1.97,0.77,-2.94,1.58,1.05
5.482103943824768,2,3,3,3,-9.69,2.12,0.78,-3.39,1.32,1.07
5.492103934288025,2,3,3,3,-9.699999999999999,1.92,0.9,-3.53,1.43,0.92
5.502103924751282,2,3,3,3,-9.82,1.9,0.91,-3.53,1.39,0.59
5.512104153633118,2,3,3,3,-9.859999999999999,1.82,0.88,-3.62,1.09,0.36
5.522104144096375,2,3,3,3,-9.76,1.71,0.82,-3.72,0.75,0.15
5.532104134559631,2,3,3,3,-9.699999999999999,1.58,0.87,-3.68,0.61,0.05
5.542104125022888,2,3,3,3,-9.69,1.57,0.9399999999999999,-3.46,0.5600000000000001,-0.03
5.552104115486145,2,3,3,3,-9.67,1.57,0.97,-3.37,0.58,-0.06
5.562104105949402,2,3,3,3,-9.720000000000001,1.48,1.05,-3.11,0.61,-0.12
5.572104096412659,2,3,3,3,-9.699999999999999,1.33,1.2,-2.94,0.44,-0.14
5.582104086875916,2,3,3,3,-9.68,1.24,1.13,-2.58,0.2,-0.09
5.592104077339172,2,3,3,3,-9.609999999999999,1.15,1.15,-2.19,-0.16,0.05
5.602104067802429,2,3,3,3,-9.59,1.13,1.12,-1.55,-0.25,0.17
5.612104058265686,2,3,3,3,-9.75,1.1,0.9,-0.73,-0.35,0.27
5.622104048728943,2,3,3,3,-9.76,1.16,0.61,-0.17,-0.71,0.23
5.6321040391922,2,3,3,3,-9.82,1.16,0.55,0.29,-1.1,0.21
5.642104029655457,2,3,3,3,-9.75,1.16,0.5600000000000001,0.57,-1.34,0.19
5.652104020118713,2,3,3,3,-9.710000000000001,1.12,0.57,0.72,-1.33,0.12
5.66210401058197,2,3,3,3,-9.57,1.23,0.68,0.82,-1.25,0.1
5.682103991508484,2,3,3,3,-9.59,1.37,0.66,1.55,-0.93,0.24
5.692103981971741,2,3,3,3,-9.48,1.41,0.66,1.52,-0.87,0.32
5.702103972434998,2,3,3,3,-9.4,1.25,0.59,1.51,-0.93,0.32
5.712103962898254,2,3,3,3,-9.44,1.26,0.52,1.62,-0.97,0.34
5.722103953361511,2,3,3,3,-9.460000000000001,1.27,0.21,2,-0.77,0.4
5.732103943824768,2,3,3,3,-9.470000000000001,1.59,0.45,2.45,-0.53,0.4
5.742103934288025,2,3,3,3,-10.03,1.5,0.21,2.72,-0.45,0.41
5.752103924751282,2,3,3,3,-10.03,1.31,0.22,2.69,-0.77,0.3
5.762104153633118,2,3,3,3,-9.859999999999999,1.35,0.38,2.75,-0.82,0.29
5.772104144096375,2,3,3,3,-9.51,1.54,0.43,2.87,-0.7,0.35
5.782104134559631,2,3,3,3,-9.369999999999999,1.74,0.44,2.89,-0.5,0.47
5.792104125022888,2,3,3,3,-9.34,1.88,0.29,3.14,-0.21,0.53
5.802104115486145,2,3,3,3,-9.18,1.86,0.38,3.02,0.03,0.47
5.812104105949402,2,3,3,3,-9.41,1.79,0.3,2.58,0.42,0.31
5.822104096412659,2,3,3,3,-9.779999999999999,1.78,0.17,2.69,0.55,0.26
5.832104086875916,2,3,3,3,-9.76,1.79,0.37,2.64,0.07000000000000001,0.36
5.842104077339172,2,3,3,3,-9.84,1.73,0.33,2.8,0.41,0.59
5.852104067802429,2,3,3,3,-9.69,1.7,0.15,2.71,-0.11,0.53
5.862104058265686,2,3,3,3,-9.199999999999999,1.65,0.44,2.82,0.07000000000000001,0.51
5.872104048728943,2,3,3,3,-9.470000000000001,1.67,-0.13,3.09,0.42,0.44
5.8821040391922,2,3,3,3,-9.68,1.63,0.02,3.4,0.84,0.42
5.892104029655457,2,3,3,3,-9.69,1.6,0.31,3.18,0.4,0.39
5.902104020118713,2,3,3,3,-9.970000000000001,1.58,0.17,2.87,0.27,0.37
5.91210401058197,2,3,3,3,-9.92,1.8,0.32,2.82,0.17,0.43
5.922104001045227,2,3,3,3,-9.91,1.86,0.28,2.62,0.17,0.54
5.932103991508484,2,3,3,3,-9.949999999999999,2.05,0.28,2.26,0.03,0.51
5.942103981971741,2,3,3,3,-10.1,1.84,-0.1,2.01,-0.23,0.38
5.952103972434998,2,3,3,3,-8.98,2.09,0.37,1.88,0.02,0.14
5.962103962898254,2,3,3,3,-9.81,2.13,0.39,1.97,0.31,-0.07000000000000001
5.972103953361511,2,3,3,3,-10.01,1.93,0.2,2.01,-0.33,0.23
5.982103943824768,2,3,3,3,-9.76,1.88,0.04,1.76,-0.88,0.16
5.992103934288025,2,3,3,3,-9.390000000000001,2.03,0.07000000000000001,1.79,-0.78,-0.14
6.002103924751282,2,3,3,3,-9.5,2.24,-0.01,1.74,-0.6899999999999999,-0.19
6.012104153633118,2,3,3,3,-9.24,2.08,-0.03,1.64,-0.63,-0.18
6.022104144096375,2,3,3,3,-9.34,2.47,-0.23,1.52,-0.49,-0.22
6.032104134559631,2,3,3,3,-9.35,2.36,-0.06,1.41,-0.03,-0.5600000000000001
6.042104125022888,2,3,3,3,-8.800000000000001,2.08,-0.03,1.56,-0.05,-0.97
6.052104115486145,2,3,3,3,-8.699999999999999,1.89,0,1.57,-0.12,-0.98
6.062104105949402,2,3,3,3,-8.6,2.18,0.09,1.58,-0.06,-0.98
6.072104096412659,2,3,3,3,-8.460000000000001,2.39,0.08,1.64,0.02,-1.06
6.082104086875916,2,3,3,3,-8.640000000000001,2.58,-0.24,1.6,0.38,-1.19
6.092104077339172,2,3,3,3,-8.720000000000001,2.74,-0.43,1.2,0.49,-1.28
6.102104067802429,2,3,3,3,-7.53,2.63,-0.09,0.41,0.26,-1.45
6.112104058265686,2,3,3,3,-6.42,2.31,0.27,-0.71,0.24,-1.41
6.122104048728943,2,3,3,3,-7.58,2.41,-0.04,-1.49,1.37,-0.62
6.1321040391922,2,3,3,3,-7.3,2.2,-0.44,-1.99,1.78,-0.46
6.142104029655457,2,3,3,3,-7.35,1.98,-0.33,-2.34,1.66,-0.72
6.152104020118713,2,3,3,3,-7.38,2.25,-0.5,-2.61,1.4,-0.5600000000000001
6.16210401058197,2,3,3,3,-7.15,1.82,-0.53,-2.65,0.91,0.03
6.172104001045227,2,3,3,3,-6.71,1.89,-0.49,-2.65,0.64,0.61
6.182103991508484,2,3,3,3,-6.59,1.39,-0.41,-2.29,1.08,1.2
6.192103981971741,2,3,3,3,-6.03,1.45,-0.64,-2.03,0.87,1.27
6.202103972434998,2,3,3,3,-5.21,1.71,-0.65,-2.08,0.28,1.6
6.222103953361511,2,3,3,3,-6.46,1.07,-0.54,-1.12,1.47,2.52
6.232103943824768,2,3,3,3,-6.67,0.97,-0.14,-1.45,1.62,2.44
6.242103934288025,2,3,3,3,-6.94,0.93,0.3,-2.65,1.41,2.15
6.252103924751282,2,3,3,3,-7.03,0.75,0.43,-3.08,0.8,1.77
6.262104153633118,2,3,3,3,-7.09,0.72,0.51,-2.82,0.19,1.24
6.272104144096375,2,3,3,3,-7.13,0.84,0.53,-2.66,0.02,0.59
6.282104134559631,2,3,3,3,-7.59,0.95,1.18,-3.3,-0.14,-0.34
6.292104125022888,2,3,3,3,-7.97,1.01,1.37,-4.56,0.01,-1.14
6.302104115486145,2,3,3,3,-8.109999999999999,0.98,1.5,-5.41,0.33,-1.63
6.312104105949402,2,3,3,3,-8.49,0.84,1.51,-6.22,0.49,-1.81
6.322104096412659,2,3,3,3,-10.21,0.54,1.65,-6.59,1.31,-1.87
6.332104086875916,2,3,3,3,-11.06,0.48,1.58,-6.42,2.29,-1.68
6.342104077339172,2,3,3,3,-11.93,0.25,1.72,-5.86,3,-1.31
6.352104067802429,2,3,3,3,-12.68,-0.15,1.62,-4.96,3.14,-0.64
6.362104058265686,2,3,3,3,-13.76,-0.28,1.53,-3.82,2.6,0.05
6.372104048728943,2,3,3,3,-13.98,0,1.6,-2.69,1.5,0.37
6.3821040391922,2,3,3,3,-13.96,0.47,1.62,-2.08,0.14,0.16
6.392104029655457,2,3,3,3,-14.1,0.87,1.9,-2.19,-1.08,-0.4
6.403103947639465,2,3,3,3,-14.88,1.41,1.87,-2.38,-1.9,-1.04
6.413103938102722,2,3,3,3,-15.53,1.56,1.93,-2.66,-2.21,-1.65
6.423103928565979,2,3,3,3,-16.28,1.52,2.06,-2.82,-1.99,-2.19
6.433104157447815,2,3,3,3,-17.55,1.4,2.81,-2.2,-1.66,-2.77
6.443104147911072,2,3,3,3,-18.28,1.55,3.08,-1.19,-1.42,-2.97
6.453104138374329,2,3,3,3,-18.28,1.55,3.08,-0.58,-1.3,-2.85
6.463104128837585,2,3,3,3,-19.06,1.71,2.99,-0.68,-1.56,-2.65
6.473104119300842,2,3,3,3,-20,2.17,3.04,-0.8,-2.11,-2.49
6.483104109764099,2,3,3,3,-20.01,2.31,2.88,-0.58,-2.42,-2.09
6.493104100227356,2,3,3,3,-20.07,2.27,2.86,-0.26,-1.76,-1.36
6.503104090690613,2,3,3,3,-20.07,2.27,2.86,-0.26,-1.2,-0.61
6.51310408115387,2,3,3,3,-20.72,2.38,3.07,-0.38,-0.83,-0.14
6.523104071617126,2,3,3,3,-22.48,0.83,4.39,-1.05,-0.97,0.1
6.533104062080383,2,3,3,3,-22.74,0.52,4.17,-2.1,-2.17,0.37
6.54310405254364,2,3,3,3,-22.89,0.08,4.12,-3.39,-3.14,0.84
6.553104043006897,2,3,3,3,-22.89,0.08,4.12,-3.39,-3.14,0.84
6.563104033470154,2,3,3,3,-21.78,-0.4,3.64,-4.38,-2.59,1.4
6.573104023933411,2,3,3,3,-19.96,0.88,2.86,-1.29,2.05,1.64
6.583104014396667,2,3,3,3,-19.16,1.71,2.51,0.57,4.25,1.67
6.593104004859924,2,3,3,3,-17.09,3.81,1.07,2.08,5.53,1.92
6.603103995323181,2,3,3,3,-17.09,3.81,1.07,2.08,5.53,1.92
6.613103985786438,2,3,3,3,-15.62,4.85,0.02,3.78,6.13,2.67
6.623103976249695,2,3,3,3,-11,5.81,-3.79,8.5,6.02,4.61
6.633103966712952,2,3,3,3,-11,5.81,-3.79,11.01,4.6,5.02
6.643103957176208,2,3,3,3,-9.630000000000001,4.84,-4.47,12.11,2.92,4.4
6.653103947639465,2,3,3,3,-7.26,3.95,-4.22,12.11,2.92,4.4
6.663103938102722,2,3,3,3,-4.58,3.91,-3.55,9.42,1.16,3.49
6.673103928565979,2,3,3,3,-0.88,4.98,-3.01,6.15,1.25,3.42
6.683104157447815,2,3,3,3,0.44,5.84,-3.47,2.32,1.62,3.08
6.693104147911072,2,3,3,3,1.13,6.23,-4.46,-0.75,2.1,2.12
6.703104138374329,2,3,3,3,2.25,6.25,-4.95,-0.75,2.1,2.12
6.713104128837585,2,3,3,3,3.55,4.49,-3.53,-1.56,5.8,1.76
6.723104119300842,2,3,3,3,3.43,2.44,-1.9,-0.5,5.84,2.34
6.733104109764099,2,3,3,3,3.24,0.78,-0.65,-1.4,2.09,1.17
6.743104100227356,2,3,3,3,2.72,-0.53,0.28,-2.92,-0.91,-0.25
6.753104090690613,2,3,3,3,0.87,-2.53,1.19,-2.92,-0.91,-0.25
6.76310408115387,2,3,3,3,0.55,-2.86,1.33,-3.87,-2.91,-1.58
6.773104071617126,2,3,3,3,0.89,-2.64,1.37,-2.33,-4.48,-4.79
6.783104062080383,2,3,3,3,1.05,-2.11,0.96,-1.89,-4.55,-6.39
6.79310405254364,2,3,3,3,1.47,-0.9399999999999999,0.16,-1.43,-4.66,-8.390000000000001
6.803104043006897,2,3,3,3,0.8,-0.8100000000000001,0.4,-1.43,-4.66,-8.390000000000001
6.813104033470154,2,3,3,3,-0.17,-0.85,0.13,-0.49,-4.96,-9.33
6.823104023933411,2,3,3,3,-1.72,-0.55,0.24,1.41,-5.4,-6.97
6.833104014396667,2,3,3,3,-1.99,-0.36,-0.03,1.56,-5.22,-4.53
6.843104004859924,2,3,3,3,-1.58,-0.34,-0.15,2.07,-3.66,-1.44
6.853103995323181,2,3,3,3,-1.25,-0.3,-0.31,2.07,-3.66,-1.44
6.863103985786438,2,3,3,3,-1.1,-0.18,-0.27,3.24,-0.85,1.54
6.873103976249695,2,3,3,3,-1,0.21,-0.47,4.02,3.33,5.4
6.883103966712952,2,3,3,3,-0.97,0.64,-0.99,3.28,4.18,6.36
6.893103957176208,2,3,3,3,-0.92,0.85,-1.24,2.2,4.62,6.65
6.903103947639465,2,3,3,3,-0.55,0.67,-0.89,2.2,4.62,6.65
6.913103938102722,2,3,3,3,-0.11,0.44,-0.6899999999999999,1.38,5.1,6.33
6.923103928565979,2,3,3,3,0.26,0.29,-0.34,2.25,5.09,5.14
6.933104157447815,2,3,3,3,0.7,0.13,0.26,4.14,4.02,4.75
6.943104147911072,2,3,3,3,0.4,0.32,0.84,5.27,0.52,4.1
6.953104138374329,2,3,3,3,0.27,0.48,0.63,5.27,0.52,4.1
6.963104128837585,2,3,3,3,0.31,0.17,-0.05,5.65,-3.46,3.1
6.973104119300842,2,3,3,3,-0.68,-0.5600000000000001,0.9,3.57,-8.1,-0.46
6.983104109764099,2,3,3,3,-1.44,-0.47,1.57,3.49,-10.51,-1.76
6.993104100227356,2,3,3,3,-1.59,0.34,0.89,3.28,-13.11,-3.01
7.003104090690613,2,3,3,3,-1.74,1.33,-1.21,3.28,-13.11,-3.01
7.01310408115387,2,3,3,3,-5.83,3.07,-1.54,4.92,-14.96,-3.46
7.023104071617126,2,3,3,3,-8.31,5.62,-4.35,9.630000000000001,-21.64,-8.779999999999999
7.033104062080383,2,3,3,3,-9.529999999999999,7.58,-4.45,6.54,-15.92,-11.61
7.04310405254364,2,3,3,3,-14.09,10.67,-2.51,-4.06,-4.8,-10.13
7.053104043006897,2,3,3,3,-37.69,26.02,-9.369999999999999,-4.06,-4.8,-10.13
7.063104033470154,2,3,3,3,-39.23,-1.88,25.08,-11.97,4.35,1.84
7.073104023933411,2,3,3,3,-35.68,-0.37,20.32,1.05,-2.6,9.57
7.083104014396667,2,3,3,3,-32.97,-2.35,3.41,-1.18,-10.31,-0.72
7.093104004859924,2,3,3,3,-33.36,3.9,8.300000000000001,-8.130000000000001,-13.18,-9.130000000000001
7.103103995323181,2,3,3,3,-21.08,0.88,3.1,-8.130000000000001,-13.18,-9.130000000000001
7.113103985786438,2,3,3,3,-14.01,-2.52,3.13,-14.55,-9.119999999999999,-16.48
7.123103976249695,2,3,3,3,-12.07,-3.3,6.09,-11.84,-1.13,-17.27
7.133103966712952,2,3,3,3,-11.24,-5.11,5.7,-11.84,-1.13,-17.27
7.143103957176208,2,3,3,3,-12.99,-3.01,5.48,-5.71,1.27,-12.6
7.153103947639465,2,3,3,3,-14.07,-0.89,4.5,1.09,2.71,-7.69
7.163103938102722,2,3,3,3,-13.31,-0.98,2.17,3.69,2.7,-1.33
7.173103928565979,2,3,3,3,-16.37,-0.9,1.72,1.99,5.03,4.89
7.183104157447815,2,3,3,3,-17.99,0.67,1.99,1.2,3.51,7.67
7.193104147911072,2,3,3,3,-14.55,0.41,1.82,2.04,0.29,7.73
7.203104138374329,2,3,3,3,-10.17,0.62,1.6,1.85,2.05,6.02
7.213104128837585,2,3,3,3,-9.390000000000001,1.96,0.96,2.6,3.93,4.28
7.223104119300842,2,3,3,3,-8.460000000000001,2.71,0.64,3.49,4.78,3.32
7.233104109764099,2,3,3,3,-7.88,2.9,0.62,3.79,6.41,3.04
7.243104100227356,2,3,3,3,-7.65,3.55,0.48,3.63,7.54,3.22
7.253104090690613,2,3,3,3,-7.07,3.61,0.38,2.58,7.45,3.08
7.26310408115387,2,3,3,3,-6.17,3.62,-0.02,0.55,6.86,2.37
7.273104071617126,2,3,3,3,-5.67,3.56,-0.28,-1.36,5.47,1.35
7.283104062080383,2,3,3,3,-4.84,2.7,-0.44,-3.03,3.59,0.43
7.303104043006897,2,3,3,3,-3.36,1.42,-0.34,-4.31,1.47,0.18
7.313104033470154,2,3,3,3,-3.23,1.32,-0.28,-3.16,1.48,0.77
7.323104023933411,2,3,3,3,-3.7,1.56,-0.12,-1.43,1.83,1.46
7.333104014396667,2,3,3,3,-4.68,1.85,0.1,0.21,2.36,1.91
7.343104004859924,2,3,3,3,-6.01,1.96,0.44,1.31,2.89,1.73
7.353103995323181,2,3,3,3,-9.08,2,0.5600000000000001,1.71,2.76,1.2
7.363103985786438,2,3,3,3,-10.3,2.12,0.39,1.77,1.86,0.98
7.373103976249695,2,3,3,3,-10.97,2.18,0.02,1.79,0.4,0.8100000000000001
7.383103966712952,2,3,3,3,-11.15,2.17,0.01,1.59,-0.8,0.53
7.393103957176208,2,3,3,3,-10.67,1.57,1.01,1.42,-1.06,0.29
7.403103947639465,2,3,3,3,-10.23,1.81,1.19,1.68,-0.32,0.42
7.413103938102722,2,3,3,3,-10.1,1.98,1.02,2.03,0.85,0.93
7.423103928565979,2,3,3,3,-10.32,2.05,0.9,1.85,1.52,1.51
7.434104084968567,2,3,3,3,-10.74,2.42,0.5,0.79,1.44,1.7
7.444104075431824,2,3,3,3,-10.77,2.34,0.48,-0.71,1.05,1.47
7.454104065895081,2,3,3,3,-10.79,2.18,0.66,-2.25,0.68,1.02
7.464104056358337,2,3,3,3,-10.96,1.71,1.43,-3.22,0.37,0.55
7.474104046821594,2,3,3,3,-10.95,1.43,1.55,-4.11,0.03,0.06
7.484104037284851,2,3,3,3,-10.7,1.13,1.47,-4.58,-0.33,-0.21
7.494104027748108,2,3,3,3,-10.18,0.89,1.46,-4.66,-0.51,-0.12
7.504104018211365,2,3,3,3,-9.039999999999999,0.68,1.36,-4.26,-0.27,0.34
7.514104008674622,2,3,3,3,-8.58,0.8100000000000001,1.41,-3.66,0.23,1.03
7.524103999137878,2,3,3,3,-8.49,0.99,1.39,-3.2,0.86,1.75
7.534103989601135,2,3,3,3,-8.640000000000001,1.1,1.2,-2.87,1.24,2.36
7.544103980064392,2,3,3,3,-9.08,1.54,0.86,-2.54,1.62,2.75
7.554103970527649,2,3,3,3,-9.31,1.78,0.8100000000000001,-2.16,1.9,2.93
7.564103960990906,2,3,3,3,-9.23,1.76,0.68,-2.08,2.03,2.99
7.574103951454163,2,3,3,3,-9.27,1.95,0.59,-2.2,1.88,3.03
7.584103941917419,2,3,3,3,-8.93,1.91,0.55,-2.29,1.42,2.8
7.594103932380676,2,3,3,3,-8.81,1.76,0.7,-2.19,1.13,2.35
7.604103922843933,2,3,3,3,-8.77,1.71,0.68,-2.07,0.8,1.69
7.614104151725769,2,3,3,3,-9.06,1.75,0.6,-2.18,0.5600000000000001,1.15
7.624104142189026,2,3,3,3,-9.01,1.73,0.74,-1.92,0.64,0.68
7.634104132652283,2,3,3,3,-9.19,1.81,0.88,-1.39,0.8,0.45
7.64410412311554,2,3,3,3,-9.4,1.95,0.54,-0.9399999999999999,0.95,0.28
7.654104113578796,2,3,3,3,-9.51,2.08,0.46,-0.79,0.6899999999999999,0.18
7.664104104042053,2,3,3,3,-9.609999999999999,2.1,0.5,-0.57,0.72,0.14
7.67410409450531,2,3,3,3,-9.73,2.1,0.46,-0.24,0.89,0.19
7.684104084968567,2,3,3,3,-9.66,2.05,0.34,0.06,0.7,0.32
7.694104075431824,2,3,3,3,-9.56,1.88,0.49,0.12,0.42,0.45
7.704104065895081,2,3,3,3,-9.470000000000001,1.82,0.53,-0.01,0.32,0.42
7.714104056358337,2,3,3,3,-9.4,1.74,0.7,-0.4,0.3,0.33
7.724104046821594,2,3,3,3,-9.369999999999999,1.85,0.78,-0.84,0.32,0.23
7.734104037284851,2,3,3,3,-9.550000000000001,1.7,0.52,-1.05,0.18,0.01
7.744104027748108,2,3,3,3,-9.460000000000001,1.6,0.55,-1.28,-0.06,-0.15
7.754104018211365,2,3,3,3,-9.449999999999999,1.5,0.54,-1.4,-0.11,-0.26
7.764104008674622,2,3,3,3,-9.359999999999999,1.52,0.53,-1.37,-0.08,-0.39
7.774103999137878,2,3,3,3,-9.18,1.39,0.42,-1.22,0.13,-0.54
7.784103989601135,2,3,3,3,-9.199999999999999,1.38,0.43,-0.98,0.34,-0.5600000000000001
7.794103980064392,2,3,3,3,-9.300000000000001,1.39,0.43,-0.88,0.47,-0.54
7.804103970527649,2,3,3,3,-9.199999999999999,1.53,0.37,-0.77,0.34,-0.47
7.814103960990906,2,3,3,3,-9.08,1.7,0.31,-0.48,0.1,-0.44
7.824103951454163,2,3,3,3,-8.93,1.91,0.19,-0.14,0.02,-0.44
7.834103941917419,2,3,3,3,-8.710000000000001,2.03,-0.04,0.15,0.07000000000000001,-0.48
7.844103932380676,2,3,3,3,-8.359999999999999,2.12,-0.11,0.33,0.25,-0.65
7.854103922843933,2,3,3,3,-8.119999999999999,2.13,-0.1,0.18,0.43,-0.97
7.864104151725769,2,3,3,3,-7.89,2.27,-0.09,-0.25,0.64,-1.37
7.874104142189026,2,3,3,3,-7.73,2.38,-0.07000000000000001,-0.51,0.6899999999999999,-1.87
7.884104132652283,2,3,3,3,-7.5,2.44,-0.25,-0.77,0.39,-2.34
7.89410412311554,2,3,3,3,-7.38,2.24,-0.23,-0.45,-0.35,-2.58
7.904104113578796,2,3,3,3,-7.44,1.87,0.1,-0.02,-1.16,-2.64
7.914104104042053,2,3,3,3,-7.57,1.65,0.42,-0.28,-1.81,-2.63
7.92410409450531,2,3,3,3,-7.08,1.74,-0.11,-0.98,-2.8,-2.62
7.934104084968567,2,3,3,3,-6.87,2.04,-0.62,-1.21,-3.37,-2.56
7.944104075431824,2,3,3,3,-6.59,2.15,-0.6899999999999999,-0.58,-3.11,-2.4
7.954104065895081,2,3,3,3,-6.95,2.53,-0.15,0.23,-2.32,-2.01
7.964104056358337,2,3,3,3,-6.98,2.28,-0.01,0.51,-1.54,-1.97
7.974104046821594,2,3,3,3,-7.3,1.96,-0.08,0.27,-1.29,-1.99
7.984104037284851,2,3,3,3,-7.16,1.61,-0.09,-0.38,-1.89,-1.96
7.994104027748108,2,3,3,3,-7.5,1.15,0.49,-0.49,-2.41,-1.58
8.004104018211365,2,3,3,3,-7.81,0.66,0.83,0.06,-2.67,-0.79
8.014104008674622,2,3,3,3,-8,0.15,0.74,0.66,-3.33,-0.02
8.024103999137878,2,3,3,3,-7.74,-0.16,0.66,0.06,-3.87,0.29
8.034103989601135,2,3,3,3,-8.119999999999999,-0.05,0.9,-0.25,-3.87,0.3
8.044103980064392,2,3,3,3,-8.52,0.15,1.17,-0.52,-3.42,-0.07000000000000001
8.054103970527649,2,3,3,3,-8.73,0.34,1.33,-1.66,-3.43,-1.03
8.064103960990906,2,3,3,3,-8.77,0.57,1.52,-2.9,-3.42,-2.21
8.074103951454163,2,3,3,3,-9.199999999999999,1.18,1.49,-3.4,-2.94,-3.19
8.084103941917419,2,3,3,3,-9.92,1.35,1.68,-2.99,-2.18,-3.7
8.094103932380676,2,3,3,3,-10.64,1.29,1.71,-1.92,-1.43,-3.64
8.104103922843933,2,3,3,3,-12.11,0.33,2.36,-1.09,-1.01,-3.37
8.114104151725769,2,3,3,3,-12.79,0.01,2.96,-1.04,-1.12,-3.1
8.124104142189026,2,3,3,3,-13.83,-0.36,3.55,-1.33,-1.26,-2.65
8.134104132652283,2,3,3,3,-14.87,-0.57,3.76,-2.2,-2.4,-1.85
8.14410412311554,2,3,3,3,-16.23,0.02,3.82,-3.11,-3.87,-1.1
8.154104113578796,2,3,3,3,-17.05,0.61,3.5,-2.73,-3.3,-0.23
8.164104104042053,2,3,3,3,-17.34,1.36,3.15,-1.75,-1.64,0.44
8.17410409450531,2,3,3,3,-17.84,1.52,3.07,-0.6,0.03,0.55
8.184104084968567,2,3,3,3,-19.27,1.67,3.56,0.54,1.19,0.14
8.194104075431824,2,3,3,3,-20.22,2.26,3.89,1.22,1.38,-0.18
8.204104065895081,2,3,3,3,-21.43,2.22,4.48,1.32,0.9,0.04
8.214104056358337,2,3,3,3,-22.58,1.81,5.18,0.78,0.91,0.48
8.224104046821594,2,3,3,3,-23.69,0.92,6.69,-0.27,0.95,0.82
8.234104037284851,2,3,3,3,-24.04,0.34,7,-1.62,0.1,1.1
8.244104027748108,2,3,3,3,-23.76,-0.27,6.94,-3.39,-0.64,1.1
8.254104018211365,2,3,3,3,-23.34,-0.91,6.57,-4.2,-0.11,1.13
8.264104008674622,2,3,3,3,-22.78,-1.62,5.81,-3.68,1.44,1.16
8.274103999137878,2,3,3,3,-22.43,-1.66,5.01,-1.94,2.31,1.54
8.284103989601135,2,3,3,3,-21.45,-1.67,4.33,0.66,2.3,2.34
8.294103980064392,2,3,3,3,-20.28,-0.13,3.15,2.86,3.02,2.95
8.304103970527649,2,3,3,3,-19.16,0.89,2.17,4.37,3.54,2.98
8.314103960990906,2,3,3,3,-16.81,1.95,1.35,6.37,3.23,2.93
8.324103951454163,2,3,3,3,-14.37,3.37,0.49,8.359999999999999,3.06,3.46
8.334103941917419,2,3,3,3,-9.99,4.68,-1.88,11.05,2.75,4.38
8.344103932380676,2,3,3,3,-8.140000000000001,4.71,-2.71,13.54,3.36,5.53
8.354103922843933,2,3,3,3,-7,4.95,-3.2,14.59,4.96,7.03
8.364104151725769,2,3,3,3,-4.99,5.63,-2.89,13.46,6.45,7.09
8.374104142189026,2,3,3,3,-0.34,7.89,-2.5,10.1,7.95,6.57
8.384104132652283,2,3,3,3,1.31,8.460000000000001,-3.9,6.2,8.81,6.22
8.39410412311554,2,3,3,3,2.25,8.550000000000001,-6,2.17,7.44,6.16
8.404104113578796,2,3,3,3,2.74,7.39,-7.04,-0.78,5.43,6.42
8.414104104042053,2,3,3,3,1.01,3.73,-5.46,-1.21,5.18,6.58
8.42410409450531,2,3,3,3,0.36,1.74,-3.32,-0.6,5.58,6.45
8.434104084968567,2,3,3,3,-0.09,0.03,-1.61,-0.42,6.62,5.2
8.444104075431824,2,3,3,3,-0.42,-1.33,0.03,-1.84,4.19,3.89
8.455103993415833,2,3,3,3,-0.7,-1.21,0.24,-3.44,-0.04,2.69
8.465103983879089,2,3,3,3,-0.23,-1.35,0.24,-4.51,-2.55,1.58
8.475103974342346,2,3,3,3,0.31,-1.58,0.54,-4.09,-2.9,-0.83
8.485103964805603,2,3,3,3,1.4,-1.7,0.53,-3.95,-2.52,-3.06
8.49510395526886,2,3,3,3,2.18,-1.97,0.44,-4.73,-2.92,-5.72
8.505103945732117,2,3,3,3,2.72,-1.82,0.13,-5.47,-3.93,-8.050000000000001
8.515103936195374,2,3,3,3,2.61,-1.82,0.28,-5.23,-4.75,-9.17
8.52510392665863,2,3,3,3,0.97,-0.9399999999999999,0.16,-2.98,-4.32,-8.65
8.535104155540466,2,3,3,3,0.22,-0.84,-0.02,-0.05,-3.72,-7.14
8.545104146003723,2,3,3,3,-0.58,-0.65,0.22,1.76,-3.42,-5.52
8.55510413646698,2,3,3,3,-1.32,-0.26,0.25,1.67,-3.15,-4.17
8.565104126930237,2,3,3,3,-1.54,0.39,0.15,0.93,-2.35,-2.8
8.575104117393494,2,3,3,3,-1.46,0.36,0,1.26,-1.08,-1.35
8.58510410785675,2,3,3,3,-1.48,0.3,-0.17,1.87,0.15,-0.04
8.595104098320007,2,3,3,3,-1.99,1.09,-0.38,1.79,1.47,1.13
8.605104088783264,2,3,3,3,-1.92,1.47,-0.55,1.26,3.02,2.56
8.615104079246521,2,3,3,3,-1.75,1.68,-1.02,0.66,5.06,4.16
8.625104069709778,2,3,3,3,-1.18,1.43,-0.97,0.52,6.03,5.31
8.635104060173035,2,3,3,3,0.28,1.04,-0.95,0.7,5.83,6.02
8.645104050636292,2,3,3,3,0.7,1.01,-0.59,0.91,5.77,6.37
8.655104041099548,2,3,3,3,0.61,0.9,-0.26,1.53,5.93,6.44
8.665104031562805,2,3,3,3,0.34,0.9,0.48,2,5.38,6.02
8.675104022026062,2,3,3,3,-0.47,0.6899999999999999,0.41,2.2,3.61,5.14
8.685104012489319,2,3,3,3,-0.11,0.45,0.48,2.03,-0.13,3.97
8.695104002952576,2,3,3,3,0.21,-0.1,0.38,1.12,-3.4,2.39
8.705103993415833,2,3,3,3,-0.5,-0.92,1.62,-0.51,-4.01,0.7
8.715103983879089,2,3,3,3,-2.5,0.36,0.1,-1.46,-5.24,-1.2
8.725103974342346,2,3,3,3,-2.89,1.42,0.18,-1.89,-12.72,-3.78
8.735103964805603,2,3,3,3,-4.3,3.4,-4,-2.37,-17.02,-5.95
8.74510395526886,2,3,3,3,-6,7.88,-5.97,0.48,-16.3,-7.92
8.755103945732117,2,3,3,3,-16.27,24.27,-5.82,1.77,-15.76,-10.86
8.765103936195374,2,3,3,3,-29.58,25.27,-11.15,-10.33,-16.09,-17.11
8.77510392665863,2,3,3,3,-39.23,-9.81,20.24,-13.83,-7.44,-19.89
8.785104155540466,2,3,3,3,-37.67,3.67,5.72,4.68,2,4.82
8.795104146003723,2,3,3,3,-38.09,-1.78,5.67,8.02,-6.08,22.29
8.80510413646698,2,3,3,3,-23.47,-3.39,7.39,2.51,-14.94,5.24
8.815104126930237,2,3,3,3,-10.83,-1.76,2.02,-9.59,-14.64,-3.53
8.825104117393494,2,3,3,3,-21.27,2.14,6.97,-8.42,-6.36,-8.720000000000001
8.83510410785675,2,3,3,3,-18.15,1.08,6.18,-11.02,1.72,-18.17
8.845104098320007,2,3,3,3,-15.69,-1.37,7.88,-14.61,-0.9,-22.69
8.855104088783264,2,3,3,3,-15.87,-3.83,7.67,-10.37,-1.52,-19.73
8.865104079246521,2,3,3,3,-16.54,-4.92,4.01,-0.83,0.08,-11.07
8.875104069709778,2,3,3,3,-18.07,-1.68,3.37,5.94,4.01,-1.27
8.885104060173035,2,3,3,3,-19.47,1.96,3.75,6.16,6.63,6.49
8.895104050636292,2,3,3,3,-17.19,2.92,3.62,5.27,3.24,8.32
8.905104041099548,2,3,3,3,-13.31,1.39,1.08,5.81,0.6,5.7
8.915104031562805,2,3,3,3,-12.82,1.91,0.89,5.09,2.42,2.93
8.925104022026062,2,3,3,3,-12.45,3.14,0.96,3.36,4.94,1.29
8.935104012489319,2,3,3,3,-11.54,4.13,1.11,1.63,5.27,0.68
8.945104002952576,2,3,3,3,-9.43,3.84,0.88,-0.08,4.49,0.91
8.955103993415833,2,3,3,3,-8.609999999999999,3.83,0.51,-0.99,4.22,1.41
8.965103983879089,2,3,3,3,-7.82,3.49,0.03,-1.95,4.65,1.39
8.975103974342346,2,3,3,3,-6.58,2.67,-0.41,-2.85,5.1,0.8100000000000001
8.985103964805603,2,3,3,3,-6.58,2.11,-0.66,-3.5,5.33,0.34
8.99510395526886,2,3,3,3,-6.33,1.45,-0.55,-4.02,5.03,-0.44
9.005103945732117,2,3,3,3,-5.91,0.73,-0.25,-4.39,4.15,-1.12
9.015103936195374,2,3,3,3,-5.91,0.73,-0.25,-4.17,3.22,-1.44
9.02510392665863,2,3,3,3,-4.39,0,0.17,-3.29,2.21,-0.88
9.035104155540466,2,3,3,3,-3.25,0.48,-0.1,-1.74,1.1,0.46
9.045104146003723,2,3,3,3,-3.23,0.98,-0.23,-0.04,0.44,1.79
9.05510413646698,2,3,3,3,-3.74,1.34,-0.17,1.51,0.15,2.45
9.065104126930237,2,3,3,3,-3.74,1.34,-0.17,2.89,-0.12,2.51
9.075104117393494,2,3,3,3,-3.98,1.24,0.03,4.32,-0.57,2.27
9.08510410785675,2,3,3,3,-4.68,1.77,0.37,5.52,-0.85,2.03
9.095104098320007,2,3,3,3,-5.67,2.46,0.44,6.07,-0.92,1.62
9.105104088783264,2,3,3,3,-6.4,2.78,0.67,5.99,-0.83,1.19
9.115104079246521,2,3,3,3,-6.4,2.78,0.67,5.99,-0.83,1.19
9.125104069709778,2,3,3,3,-7.8,3.15,0.76,5.16,-0.23,1.14
9.135104060173035,2,3,3,3,-11.09,3.32,0.9,1.69,1.19,1.07
9.145104050636292,2,3,3,3,-11.73,3.19,0.91,-0.08,1.58,1.08
9.155104041099548,2,3,3,3,-12.47,2.81,1.08,-1.32,1.72,1.14
9.165104031562805,2,3,3,3,-12.47,2.81,1.08,-1.32,1.72,1.14
9.175104022026062,2,3,3,3,-12.95,1.86,1.21,-2.43,1.55,0.67
9.185104012489319,2,3,3,3,-12.67,1.34,1.32,-3.56,0.19,-1.6
9.195104002952576,2,3,3,3,-11.85,0.22,1.57,-3.63,-0.1,-2.64
9.205103993415833,2,3,3,3,-11.85,0.22,1.57,-3.57,-0.35,-3.04
9.215103983879089,2,3,3,3,-10.89,-0.57,1.88,-3.57,-0.35,-3.04
9.225103974342346,2,3,3,3,-10.3,-0.61,1.95,-3.24,-0.28,-2.7
9.235103964805603,2,3,3,3,-9.6,-0.53,1.86,-1.25,1.09,-0.84
9.24510395526886,2,3,3,3,-9.08,-0.31,1.84,0.01,1.75,0.32
9.255103945732117,2,3,3,3,-8.57,0.23,1.81,1,2.09,1.31
9.265103936195374,2,3,3,3,-8.48,0.48,1.68,1,2.09,1.31
9.27510392665863,2,3,3,3,-8.6,0.8,1.61,1.66,2.03,2.11
9.285104155540466,2,3,3,3,-9.09,1.38,1.22,2.47,1.89,3.46
9.295104146003723,2,3,3,3,-9.300000000000001,1.53,0.9399999999999999,2.52,1.84,3.62
9.30510413646698,2,3,3,3,-9.26,1.58,0.74,2.3,1.85,3.55
9.315104126930237,2,3,3,3,-9.279999999999999,1.69,0.74,2.3,1.85,3.55
9.325104117393494,2,3,3,3,-8.93,1.79,0.71,1.94,1.97,3.53
9.33510410785675,2,3,3,3,-8.74,1.82,0.62,1.54,1.53,3.04
9.345104098320007,2,3,3,3,-8.699999999999999,1.9,0.5,1.48,1.28,2.5
9.355104088783264,2,3,3,3,-8.720000000000001,2.02,0.48,1.56,1.14,1.85
9.365104079246521,2,3,3,3,-8.92,2.18,0.42,1.56,1.14,1.85
9.375104069709778,2,3,3,3,-9.01,2.32,0.33,1.6,1,1.27
9.385104060173035,2,3,3,3,-9.16,2.37,0.3,1.14,0.67,0.32
9.395104050636292,2,3,3,3,-9.32,2.47,0.25,0.96,0.65,-0.19
9.405104041099548,2,3,3,3,-9.69,2.53,0.31,0.68,0.72,-0.82
9.415104031562805,2,3,3,3,-9.91,2.51,0.39,0.68,0.72,-0.82
9.425104022026062,2,3,3,3,-10.07,2.43,0.46,0,0.3,-1.7
9.435104012489319,2,3,3,3,-10.21,2.29,0.47,-0.19,-0.17,-1.93
9.445104002952576,2,3,3,3,-10.19,1.93,0.27,-0.34,-0.42,-2.05
9.455103993415833,2,3,3,3,-10.1,1.77,0.34,-0.37,-0.39,-2.06
9.465103983879089,2,3,3,3,-9.82,1.64,0.43,-0.37,-0.39,-2.06
9.476104140281677,2,3,3,3,-9.15,1.44,0.46,-0.31,-0.44,-1.61
9.486104130744934,2,3,3,3,-8.960000000000001,1.34,0.43,0,-0.08,-1.03
9.496104121208191,2,3,3,3,-8.92,1.34,0.43,0.02,0.1,-0.89
9.506104111671448,2,3,3,3,-8.99,1.38,0.51,0.1,0.08,-0.88
9.516104102134705,2,3,3,3,-9.31,1.37,0.5600000000000001,0.1,0.08,-0.88
9.526104092597961,2,3,3,3,-9.42,1.38,0.49,0.16,-0.2,-0.86
9.536104083061218,2,3,3,3,-9.390000000000001,1.39,0.45,0.29,-0.61,-0.86
9.546104073524475,2,3,3,3,-9.380000000000001,1.4,0.38,0.21,-0.75,-0.9399999999999999
9.556104063987732,2,3,3,3,-9.27,1.52,0.51,0.05,-0.8100000000000001,-0.98
9.566104054450989,2,3,3,3,-9.27,1.6,0.47,0.05,-0.8100000000000001,-0.98
9.576104044914246,2,3,3,3,-9.35,1.64,0.41,-0.02,-0.87,-0.84
9.586104035377502,2,3,3,3,-9.43,1.59,0.5,0.05,-0.91,-0.63
9.596104025840759,2,3,3,3,-9.16,1.77,0.63,-0.46,-0.78,-0.27
9.606104016304016,2,3,3,3,-8.99,1.93,0.7,-0.71,-0.68,-0.1
9.616104006767273,2,3,3,3,-8.880000000000001,1.95,0.74,-0.71,-0.68,-0.1
9.62610399723053,2,3,3,3,-8.720000000000001,1.57,0.21,-0.8100000000000001,-0.78,0.04
9.636103987693787,2,3,3,3,-8.470000000000001,1.38,-0.1,-0.39,-1.5,0.33
9.646103978157043,2,3,3,3,-8.17,1.28,-0.35,-0.1,-1.54,0.53
9.6561039686203,2,3,3,3,-7.64,1.22,-0.38,0.15,-1.2,0.62
9.666103959083557,2,3,3,3,-6.57,1.73,-0.27,0.15,-1.2,0.62
9.676103949546814,2,3,3,3,-6.17,2.02,-0.11,0.21,-0.51,0.57
9.686103940010071,2,3,3,3,-5.89,2.29,0.07000000000000001,0.36,0.06,0.43
9.696103930473328,2,3,3,3,-5.83,2.43,0.3,0.31,0.42,0.14
9.706103920936584,2,3,3,3,-6.21,2.1,0.91,0.04,0.39,-0.22
9.71610414981842,2,3,3,3,-6.45,1.8,0.77,-0.31,0.17,-0.49
9.726104140281677,2,3,3,3,-6.56,1.54,0.45,-0.32,-0.35,-0.46
9.736104130744934,2,3,3,3,-6.63,1.45,0.13,0.26,-0.8100000000000001,-0.08
9.746104121208191,2,3,3,3,-7.09,1.09,-0.72,1.46,-1.12,0.42
9.756104111671448,2,3,3,3,-7.59,0.66,-0.29,2.37,-1.22,0.79
9.766104102134705,2,3,3,3,-7.77,0.48,0.47,2.03,-1.42,0.75
9.776104092597961,2,3,3,3,-7.51,0.4,1.26,0.46,-1.36,0.16
9.786104083061218,2,3,3,3,-7.23,0.67,1.57,-1.93,-1.3,-0.65
9.796104073524475,2,3,3,3,-7.25,1.23,1.36,-3.65,-1.1,-1.42
9.806104063987732,2,3,3,3,-7.51,1.68,0.88,-4.11,-1.23,-2.01
9.816104054450989,2,3,3,3,-7.69,1.65,0.54,-3.75,-1.35,-2.28
9.826104044914246,2,3,3,3,-8.25,1.11,1.04,-2.91,-0.6,-2.07
9.836104035377502,2,3,3,3,-9.27,0.36,1.53,-2,-0.03,-1.65
9.846104025840759,2,3,3,3,-9.67,-0.22,1.51,-1.5,-0.59,-1.34
9.856104016304016,2,3,3,3,-10.09,-0.86,1.98,-1.63,-1.15,-1.07
9.866104006767273,2,3,3,3,-10.39,-1.08,2.68,-1.59,-2.04,-0.89
9.87610399723053,2,3,3,3,-10.8,-1.04,3.15,-1.83,-2.79,-0.92
9.886103987693787,2,3,3,3,-11.25,-0.71,2.9,-2.57,-3.31,-1.2
9.896103978157043,2,3,3,3,-11.69,0.12,2.31,-2.97,-3.17,-1.45
9.9061039686203,2,3,3,3,-11.88,0.44,2.22,-2.58,-2.7,-1.7
9.916103959083557,2,3,3,3,-11.98,0.57,2.02,-1.8,-2.07,-2.22
9.926103949546814,2,3,3,3,-12.2,0.38,2.07,-0.57,-1.15,-2.72
9.936103940010071,2,3,3,3,-13.35,-0.14,2.13,0.15,-0.79,-3.18
9.946103930473328,2,3,3,3,-14.05,-0.15,2.55,0.18,-1.07,-3.58
9.956103920936584,2,3,3,3,-14.85,0.05,3.2,-0.23,-1.85,-3.72
9.96610414981842,2,3,3,3,-15.86,0.4,4.17,-0.99,-2.62,-3.38
9.976104140281677,2,3,3,3,-16.66,0.58,4.37,-1.63,-2.4,-2.51
9.986104130744934,2,3,3,3,-17.25,0.84,4.13,-2.14,-1.74,-1.58
9.996104121208191,2,3,3,3,-18.05,0.83,3.71,-2.19,-0.73,-0.95
10.00610411167145,2,3,3,3,-19.02,1.34,3.01,-1.8,0.25,-0.76
10.0161041021347,2,3,3,3,-19.26,1.68,3.03,-0.48,0.83,-0.74
10.02610409259796,2,3,3,3,-19.4,1.84,3.13,0.32,1.03,-0.65
10.03610408306122,2,3,3,3,-19.44,1.81,3.42,0.23,1.21,-0.47
10.04610407352448,2,3,3,3,-20.39,1.2,4.34,-0.41,1.42,-0.18
10.05610406398773,2,3,3,3,-21.06,1.1,4.95,-1.06,1.36,0.51
10.06610405445099,2,3,3,3,-21.52,0.71,5.39,-1.55,1.2,1.29
10.07610404491425,2,3,3,3,-22.03,0.21,5.68,-1.9,0.35,1.88
10.0861040353775,2,3,3,3,-22.78,-2.34,6.47,-2.73,-0.64,2.02
10.09610402584076,2,3,3,3,-22.64,-3.3,5.8,-3.68,-0.95,2.12
10.10610401630402,2,3,3,3,-22.25,-3.65,5.3,-3,0.47,2.03
10.11610400676727,2,3,3,3,-20.86,-2.67,4.03,-1.18,2.61,1.54
10.12610399723053,2,3,3,3,-19.81,-1.62,3.67,1,3.89,0.6899999999999999
10.17610394954681,2,3,3,3,-11.21,6.82,-2.19,11.9,3.48,5.1
10.18610394001007,2,3,3,3,-10.01,6.8,-2.82,12.53,2.89,5.74
10.19610393047333,2,3,3,3,-6.65,5.21,-2.84,11.49,3.37,5.93
10.20610392093658,2,3,3,3,-4.71,4.59,-2.46,8.73,4.28,5.65
10.21610414981842,2,3,3,3,-2.72,4.81,-2.35,4.8,4.99,5.38
10.22610414028168,2,3,3,3,-1.19,5.34,-2.82,1.21,4.9,5.26
10.23610413074493,2,3,3,3,0.12,6.21,-4.43,-1.37,4.36,5.26
10.24610412120819,2,3,3,3,0.63,5.91,-5.34,-3.14,3.67,4.74
10.25610411167145,2,3,3,3,1.46,5.28,-5.02,-4.28,4.01,3.88
10.2661041021347,2,3,3,3,1.89,4.16,-3.77,-4.95,5.61,3.78
10.27610409259796,2,3,3,3,2.67,1.09,-1.28,-4.68,5.64,4.39
10.28610408306122,2,3,3,3,3.15,-0.13,-0.3,-4.33,3.95,4.28
10.29610407352448,2,3,3,3,2.92,-1.12,0.41,-4.09,1.47,3.38
10.30610406398773,2,3,3,3,2.7,-1.8,1.28,-3.87,-1.24,1.95
10.31610405445099,2,3,3,3,2.23,-1.77,1.23,-3.7,-3.44,0.08
10.32610404491425,2,3,3,3,2,-1.56,0.8100000000000001,-3.9,-4.95,-2.5
10.3361040353775,2,3,3,3,1.99,-1.5,0.46,-4.11,-5.16,-4.92
10.34610402584076,2,3,3,3,1,-1.28,0.04,-3.46,-3.95,-6.85
10.35610401630402,2,3,3,3,0.32,-1.12,0.58,-1.86,-3,-8.48
10.36710393428802,2,3,3,3,-0.7,-1.25,0.91,-0.15,-2.51,-9.460000000000001
10.37610399723053,2,3,3,3,-1.15,-1.26,0.53,0.41,-3.72,-9.890000000000001
10.38610398769379,2,3,3,3,-1.21,-0.6,-0.05,0.06,-5.07,-9.25
10.39710414409637,2,3,3,3,-1.52,-0.28,-0.29,-0.1,-4.88,-7.39
10.4061039686203,2,3,3,3,-1.9,-0.15,-0.32,-0.3,-3.47,-4.89
10.41610395908356,2,3,3,3,-2.4,-0.03,-0.39,-0.71,-1.96,-2.34
10.42710411548615,2,3,3,3,-3.21,-0.06,-0.84,-0.76,-0.8,0.22
10.43610394001007,2,3,3,3,-2.87,0.13,-0.83,-0.48,-0.07000000000000001,2.48
10.44610393047333,2,3,3,3,-2.44,0.21,-1.07,0.36,0.9399999999999999,4.35
10.45710408687592,2,3,3,3,-0.75,0.01,-1.18,0.45,1.16,5.16
10.46610414981842,2,3,3,3,-0.19,-0.14,-0.97,-0.46,1.11,5.27
10.47610414028168,2,3,3,3,0.35,-0.21,-0.93,-0.67,1.45,5.23
10.48710405826569,2,3,3,3,0.79,-0.05,-0.65,-0.57,1.53,4.92
10.49610412120819,2,3,3,3,1.03,0.36,-0.25,-0.49,1.49,4.36
10.5071040391922,2,3,3,3,1.2,0.51,-0.25,-0.22,0.87,3.82
10.51710402965546,2,3,3,3,1.26,0.29,-0.13,0.46,-0.02,3.32
10.52710402011871,2,3,3,3,0.84,-0.11,0.52,0.37,-0.88,2.2
10.53710401058197,2,3,3,3,-1.67,1.04,0.55,-0.32,-3.52,0.31
10.54710400104523,2,3,3,3,-1.14,1.09,-1.1,-0.61,-8.880000000000001,-1.48
10.55710399150848,2,3,3,3,-3.1,2.23,-0.27,0.83,-9.779999999999999,-2.26
10.56710398197174,2,3,3,3,-6.23,3.95,-0.85,4.57,-11.94,-3.87
10.577103972435,2,3,3,3,-9.279999999999999,9.01,-2.03,5.69,-17.07,-6.77
10.58710396289825,2,3,3,3,-15.21,11.98,-1.03,2.67,-14.65,-11.04
10.59710395336151,2,3,3,3,-23.54,15.78,-9.18,-1.51,-5.77,-13.19
10.60710394382477,2,3,3,3,-39.23,-5.58,33.28,-16.77,5.34,-10.73
10.61710393428802,2,3,3,3,-39.17,-2.35,12.41,-10.93,8.390000000000001,-0.35
10.62710392475128,2,3,3,3,-38.86,-7.33,2.42,3.46,-0.09,2.9
10.63710415363312,2,3,3,3,-37.66,-1.53,6.55,4.09,-0.84,3.07
10.64710414409637,2,3,3,3,-25.64,1.86,0.44,-2.54,-6.7,3.22
10.65710413455963,2,3,3,3,-21.39,-0.32,1.72,-10.51,-7.54,-3.2
10.66710412502289,2,3,3,3,-19.76,-2.59,5.14,-11.37,-4.78,-10.06
10.67710411548615,2,3,3,3,-17.45,-4.83,5.7,-8.19,-4.63,-11.84
10.6871041059494,2,3,3,3,-16.28,-1.92,5.84,-3.99,-3.59,-9.380000000000001
10.69710409641266,2,3,3,3,-16.37,-1.56,5.15,-1.72,-1.37,-4.75
10.70710408687592,2,3,3,3,-15.88,-2.98,4.55,0.98,0.1,0.65
10.71710407733917,2,3,3,3,-14.91,-3.45,4.55,3.23,1.08,4.82
10.72710406780243,2,3,3,3,-13.03,-1.36,4.38,5.22,1.71,6.48
10.73710405826569,2,3,3,3,-11.78,-0.47,3.31,7.27,1.84,6.14
10.74710404872894,2,3,3,3,-10.01,0.04,2.29,8.92,2.2,5.15
10.7571040391922,2,3,3,3,-8.880000000000001,0.18,1.45,9.710000000000001,3.07,4.62
10.76710402965546,2,3,3,3,-7.93,1.28,0.91,8.6,3.25,4.59
10.77710402011871,2,3,3,3,-6.6,0.84,0.9,7.11,2.92,5.21
10.78710401058197,2,3,3,3,-6.81,1.04,0.13,6.95,2.91,5.97
10.79710400104523,2,3,3,3,-5.87,2.66,-0.35,6.13,3.24,6.28
10.80710399150848,2,3,3,3,-5.7,3.21,-0.6899999999999999,4.15,3.29,5.66
10.81710398197174,2,3,3,3,-4.94,3.18,-0.6,1.55,2.78,4.08
10.827103972435,2,3,3,3,-4.33,2.9,-0.52,-0.8100000000000001,1.96,2.43
10.83710396289825,2,3,3,3,-3.44,2.03,-0.76,-2.37,1.7,1.23
10.84710395336151,2,3,3,3,-3.23,1.47,-0.87,-2.87,1.18,0.27
10.85710394382477,2,3,3,3,-3.11,1,-0.91,-2.34,0.68,-0.18
10.86710393428802,2,3,3,3,-3.02,0.57,-0.67,-1.18,0.5600000000000001,0.13
10.87710392475128,2,3,3,3,-4.5,1,-0.47,0.53,0.9,1.18
10.88710415363312,2,3,3,3,-5.5,1.27,-0.32,2.27,1.36,2.42
10.89710414409637,2,3,3,3,-6.6,1.38,-0.16,3.06,1.94,2.83
10.90710413455963,2,3,3,3,-7.87,1.59,0.22,3.11,2.32,2.35
10.91710412502289,2,3,3,3,-9.630000000000001,1.84,0.8,2.56,1.82,1.24
10.92710411548615,2,3,3,3,-9.970000000000001,1.91,1.31,2.25,1.22,0.13
10.9371041059494,2,3,3,3,-10.14,1.81,1.7,2.25,0.9,-0.5
10.94710409641266,2,3,3,3,-10.1,1.82,1.87,1.93,1.05,-0.96
10.95710408687592,2,3,3,3,-9.84,1.89,1.88,1.42,1.4,-1.15
10.96710407733917,2,3,3,3,-9.91,2.07,1.67,0.91,2.06,-1.05
10.97710406780243,2,3,3,3,-10.39,2.01,1.47,0.25,2.96,-1.1
10.98710405826569,2,3,3,3,-11.63,1.58,1.58,-0.8100000000000001,3.51,-1.49
10.99710404872894,2,3,3,3,-12.2,1.6,1.61,-2.02,3.71,-1.84
11.0071040391922,2,3,3,3,-12.21,1.76,1.79,-2.87,3.24,-1.91
11.01710402965546,2,3,3,3,-12.1,1.68,1.88,-3.14,2.38,-1.64
11.02710402011871,2,3,3,3,-11.02,0.86,2.05,-3.1,1.57,-1.2
11.03710401058197,2,3,3,3,-10.1,0.44,1.93,-3.17,1.06,-0.91
11.04710400104523,2,3,3,3,-9.19,0.07000000000000001,1.87,-3.08,0.7,-0.5600000000000001
11.05710399150848,2,3,3,3,-8.49,-0.25,1.79,-2.69,0.5600000000000001,0
11.06710398197174,2,3,3,3,-7.8,-0.31,1.7,-1.96,0.5600000000000001,0.79
11.077103972435,2,3,3,3,-7.82,-0.1,1.54,-1.01,0.76,1.57
11.08710396289825,2,3,3,3,-8.19,0.14,1.29,0.09,0.95,2.15
11.09710395336151,2,3,3,3,-8.449999999999999,0.57,1.1,1.12,0.79,2.4
11.10710394382477,2,3,3,3,-8.84,1.28,1.1,1.95,0.47,2.46
11.11710393428802,2,3,3,3,-9.039999999999999,1.63,1.09,2.5,0.54,2.26
11.12710392475128,2,3,3,3,-9.19,1.85,1.16,2.66,0.49,2.01
11.13710415363312,2,3,3,3,-9.6,2.11,1.39,2.38,0.08,1.72
11.14710414409637,2,3,3,3,-9.550000000000001,2.03,1.42,1.72,0.05,1.09
11.15710413455963,2,3,3,3,-9.58,1.88,1.49,0.87,0.05,0.52
11.16710412502289,2,3,3,3,-9.52,1.78,1.45,0.08,0.02,0.08
11.17710411548615,2,3,3,3,-9.94,1.51,1.36,-0.31,-0.01,-0.18
11.1871041059494,2,3,3,3,-10.18,1.47,1.41,-0.44,0.2,-0.37
11.19710409641266,2,3,3,3,-10.38,1.54,1.35,-0.51,0.49,-0.61
11.20710408687592,2,3,3,3,-10.36,1.46,1.31,-0.55,0.58,-1
11.21710407733917,2,3,3,3,-10.28,1.06,1.46,-0.58,0.46,-1.27
11.22710406780243,2,3,3,3,-10.06,0.86,1.52,-0.63,0.02,-1.47
11.23710405826569,2,3,3,3,-9.779999999999999,0.79,1.56,-0.52,-0.38,-1.45
11.24710404872894,2,3,3,3,-9.539999999999999,0.74,1.51,-0.16,-0.59,-1.23
11.2571040391922,2,3,3,3,-9.25,0.79,1.79,0.18,-0.83,-0.9
11.26710402965546,2,3,3,3,-9.199999999999999,0.89,1.89,0.54,-0.99,-0.51
11.27710402011871,2,3,3,3,-9.23,0.99,1.87,0.78,-0.97,-0.19
11.28710401058197,2,3,3,3,-9.57,1.31,1.65,0.68,-0.79,0.07000000000000001
11.29710400104523,2,3,3,3,-9.619999999999999,1.47,1.49,0.41,-0.57,0.29
11.30710399150848,2,3,3,3,-9.720000000000001,1.65,1.35,0.11,-0.43,0.47
11.31710398197174,2,3,3,3,-9.800000000000001,1.78,1.18,-0.3,-0.05,0.6
11.327103972435,2,3,3,3,-9.51,1.81,1.05,-0.71,0.35,0.71
11.33710396289825,2,3,3,3,-9.33,1.73,0.99,-1.15,0.6899999999999999,0.8100000000000001
11.34710395336151,2,3,3,3,-9.199999999999999,1.66,0.88,-1.34,0.99,0.92
11.35710394382477,2,3,3,3,-9.279999999999999,1.68,0.87,-1.27,1.11,1.07
11.36710393428802,2,3,3,3,-9.57,1.77,0.95,-1.03,1.04,1.1
11.37710392475128,2,3,3,3,-9.710000000000001,1.83,0.89,-0.6899999999999999,0.85,1.02
11.38710415363312,2,3,3,3,-9.869999999999999,1.89,0.83,-0.61,0.54,0.79
11.39710414409637,2,3,3,3,-10.01,1.84,0.71,-1.05,0.15,0.47
11.40710413455963,2,3,3,3,-10.02,1.71,0.96,-1.58,-0.28,0.14
11.41710412502289,2,3,3,3,-9.890000000000001,1.65,1.06,-1.78,-0.53,-0.08
11.42710411548615,2,3,3,3,-9.6,1.64,1.18,-1.86,-0.5600000000000001,-0.16
11.4371041059494,2,3,3,3,-9.27,1.71,1.28,-2.13,-0.43,-0.23
11.44710409641266,2,3,3,3,-9.029999999999999,1.56,1.21,-2.37,-0.38,-0.38
11.45710408687592,2,3,3,3,-9.119999999999999,1.41,1.39,-2.39,-0.54,-0.49
11.46710407733917,2,3,3,3,-9.18,1.17,1.49,-2.27,-0.52,-0.6899999999999999
11.47710406780243,2,3,3,3,-9.51,1.01,1.25,-2.05,-0.42,-0.79
11.48710405826569,2,3,3,3,-9.56,0.99,1.1,-1.68,-0.15,-0.75
11.49710404872894,2,3,3,3,-9.630000000000001,1.05,0.9399999999999999,-1.21,-0.01,-0.67
11.5071040391922,2,3,3,3,-9.630000000000001,1.08,0.93,-0.6899999999999999,0.06,-0.5600000000000001
11.51710402965546,2,3,3,3,-9.619999999999999,1.1,1.03,-0.12,0.13,-0.49
11.52810394763947,2,3,3,3,-9.65,1.15,1.05,0.32,0.21,-0.35
11.53810393810272,2,3,3,3,-9.69,1.19,1,0.65,0.27,-0.22
11.54810392856598,2,3,3,3,-9.81,1.21,0.95,0.93,0.27,-0.03
11.55810415744781,2,3,3,3,-9.94,1.38,1.03,1.14,0.19,0.04
11.56810414791107,2,3,3,3,-10,1.35,1.06,1.15,-0.01,-0.05
11.57810413837433,2,3,3,3,-10,1.35,1.06,1.13,-0.32,-0.13
11.58810412883759,2,3,3,3,-9.960000000000001,1.31,1.21,1.07,-0.32,-0.14
11.61810410022736,2,3,3,3,-9.279999999999999,1.53,1.09,0.5,-0.71,-0.46
11.62810409069061,2,3,3,3,-9.279999999999999,1.53,1.09,0.78,-0.67,-0.47
11.63810408115387,2,3,3,3,-9.23,1.43,1.14,1.03,-0.39,-0.36
11.64810407161713,2,3,3,3,-9.41,1.4,1.03,1.28,-0.04,-0.25
11.65810406208038,2,3,3,3,-9.5,1.43,1,1.34,0.1,-0.18
11.66810405254364,2,3,3,3,-9.69,1.47,0.92,1.4,0.04,-0.24
11.6781040430069,2,3,3,3,-9.69,1.47,0.92,1.4,0.04,-0.24
11.68810403347015,2,3,3,3,-9.710000000000001,1.54,0.92,1.53,0.03,-0.25
11.69810402393341,2,3,3,3,-10.18,1.76,0.79,1.52,0.24,-0.04
11.70810401439667,2,3,3,3,-9.779999999999999,1.74,0.93,1.22,-0.06,0
11.71810400485992,2,3,3,3,-9.710000000000001,1.73,0.97,0.93,-0.22,-0.01
11.73810398578644,2,3,3,3,-9.640000000000001,1.61,0.95,0.75,-0.23,0.08
11.74810397624969,2,3,3,3,-9.73,1.65,0.98,0.7,0.06,0.13
11.75810396671295,2,3,3,3,-9.66,1.46,0.85,0.6899999999999999,0.2,0.22
11.76810395717621,2,3,3,3,-9.539999999999999,1.53,0.95,0.84,0.23,0.34
11.77810394763947,2,3,3,3,-9.460000000000001,1.54,1.05,0.84,0.23,0.34
11.78810393810272,2,3,3,3,-9.779999999999999,1.58,0.93,0.89,0.36,0.46
11.79810392856598,2,3,3,3,-9.67,1.78,1.06,0.86,0.44,0.7
11.80810415744781,2,3,3,3,-9.630000000000001,1.69,0.96,0.75,0.46,0.78
11.81810414791107,2,3,3,3,-9.619999999999999,1.68,0.9399999999999999,0.72,0.44,0.83
11.82810413837433,2,3,3,3,-9.6,1.69,0.89,0.72,0.44,0.83
11.83810412883759,2,3,3,3,-9.6,1.66,0.84,0.6,0.41,0.89
11.84810411930084,2,3,3,3,-9.58,1.7,0.8,0.09,0.42,0.91
11.8581041097641,2,3,3,3,-9.56,1.68,0.74,-0.23,0.35,0.8100000000000001
11.86810410022736,2,3,3,3,-9.640000000000001,1.46,0.76,-0.45,0.25,0.62
11.87810409069061,2,3,3,3,-9.67,1.3,0.86,-0.45,0.25,0.62
11.88810408115387,2,3,3,3,-9.67,1.2,0.92,-0.67,0.13,0.42
11.89810407161713,2,3,3,3,-9.57,1.06,0.99,-0.51,-0.07000000000000001,-0.02
11.90810406208038,2,3,3,3,-9.44,0.83,1,-0.07000000000000001,-0.05,-0.23
11.91810405254364,2,3,3,3,-9.44,0.74,1.08,0.24,-0.08,-0.4
11.9281040430069,2,3,3,3,-9.5,0.7,1.17,0.24,-0.08,-0.4
11.93810403347015,2,3,3,3,-9.619999999999999,0.76,1.24,0.47,-0.09,-0.46
11.94810402393341,2,3,3,3,-9.81,1.08,1.29,0.91,-0.07000000000000001,-0.42
11.95810401439667,2,3,3,3,-9.880000000000001,1.21,1.25,1.06,-0.08,-0.32
11.96810400485992,2,3,3,3,-9.84,1.32,1.26,1.17,-0.02,-0.19
11.97810399532318,2,3,3,3,-9.69,1.46,1.26,1.17,-0.02,-0.19
11.98810398578644,2,3,3,3,-9.6,1.56,1.27,1.37,0.11,-0.07000000000000001
11.99810397624969,2,3,3,3,-9.57,1.61,1.21,1.17,0.38,0.25
12.00810396671295,2,3,3,3,-9.58,1.69,1.02,0.91,0.5,0.5
12.01810395717621,2,3,3,3,-9.449999999999999,1.9,1.02,0.63,0.52,0.65
12.02810394763947,2,3,3,3,-9.369999999999999,1.93,1,0.63,0.52,0.65
12.03810393810272,2,3,3,3,-9.27,1.96,1.04,0.29,0.52,0.8100000000000001
12.04810392856598,2,3,3,3,-9.220000000000001,1.95,1.06,-0.34,0.57,0.8
12.05810415744781,2,3,3,3,-9.4,1.91,1.03,-0.64,0.53,0.65
12.06810414791107,2,3,3,3,-9.58,1.82,1.11,-0.86,0.37,0.48
12.07810413837433,2,3,3,3,-9.82,1.77,1.11,-0.86,0.37,0.48
12.08810412883759,2,3,3,3,-9.869999999999999,1.76,1.07,-0.97,0.25,0.4
12.09810411930084,2,3,3,3,-9.67,1.81,0.91,-1,-0.06,0.19
12.1081041097641,2,3,3,3,-9.6,1.77,0.85,-1,-0.01,0.04
12.11810410022736,2,3,3,3,-9.58,1.79,0.83,-0.99,0.04,-0.12
12.12810409069061,2,3,3,3,-9.66,1.74,1,-0.99,0.04,-0.12
12.13810408115387,2,3,3,3,-9.73,1.66,1.05,-1.01,0.15,-0.26
12.14810407161713,2,3,3,3,-9.83,1.6,1.08,-1.01,0.15,-0.26
12.15810406208038,2,3,3,3,-9.83,1.55,0.89,-1.19,0.15,-0.14
12.16810405254364,2,3,3,3,-9.66,1.51,0.84,-1.08,0.1,-0.05
12.1781040430069,2,3,3,3,-9.6,1.46,0.99,-1.08,0.1,-0.05
12.18810403347015,2,3,3,3,-9.539999999999999,1.43,1.01,-0.68,0.2,0.04
12.19810402393341,2,3,3,3,-9.529999999999999,1.45,1,-0.68,0.2,0.04
12.20810401439667,2,3,3,3,-9.609999999999999,1.49,0.74,-0.51,0.15,0.03
12.21810400485992,2,3,3,3,-9.619999999999999,1.47,0.85,-0.54,0.12,0.12
12.22810399532318,2,3,3,3,-9.609999999999999,1.47,0.9399999999999999,-0.54,0.12,0.12
12.23810398578644,2,3,3,3,-9.529999999999999,1.47,0.9399999999999999,-0.54,0.07000000000000001,0.14
12.24810397624969,2,3,3,3,-9.44,1.55,0.8100000000000001,-0.61,0.06,0.15
12.25810396671295,2,3,3,3,-9.51,1.58,0.77,-0.71,0.09,0.14
12.26810395717621,2,3,3,3,-9.609999999999999,1.55,0.86,-0.85,0.05,0.05
12.27810394763947,2,3,3,3,-9.710000000000001,1.54,0.93,-0.9399999999999999,-0.01,0.01
12.28810393810272,2,3,3,3,-9.710000000000001,1.48,0.97,-0.98,0.04,-0.02
12.29810392856598,2,3,3,3,-9.699999999999999,1.43,1.02,-0.97,0.16,-0.07000000000000001
12.30810415744781,2,3,3,3,-9.67,1.41,0.87,-0.87,0.19,-0.15
12.31810414791107,2,3,3,3,-9.619999999999999,1.37,0.76,-0.86,0.21,-0.2
12.32810413837433,2,3,3,3,-9.69,1.33,0.8,-0.88,0.25,-0.22
12.33810412883759,2,3,3,3,-9.75,1.32,0.88,-0.8100000000000001,0.29,-0.18
12.34810411930084,2,3,3,3,-9.779999999999999,1.31,0.9399999999999999,-0.72,0.31,-0.06
12.3581041097641,2,3,3,3,-9.66,1.27,0.86,-0.6,0.24,0
12.36810410022736,2,3,3,3,-9.630000000000001,1.24,0.86,-0.34,0.3,0.06
12.37810409069061,2,3,3,3,-9.59,1.24,0.82,-0.13,0.23,0.11
12.38810408115387,2,3,3,3,-9.539999999999999,1.24,0.77,0.08,0.18,0.12
12.39810407161713,2,3,3,3,-9.59,1.25,0.7,0.21,0.21,0.12
12.40810406208038,2,3,3,3,-9.640000000000001,1.25,0.67,0.35,0.17,0.07000000000000001
12.41810405254364,2,3,3,3,-9.67,1.26,0.75,0.38,0.11,0.05
12.4281040430069,2,3,3,3,-9.68,1.3,0.82,0.43,-0.03,0.02
12.43810403347015,2,3,3,3,-9.68,1.38,0.87,0.49,-0.04,0.02
12.44810402393341,2,3,3,3,-9.630000000000001,1.4,0.89,0.43,-0.1,0.06
12.45810401439667,2,3,3,3,-9.57,1.43,0.8,0.33,-0.1,0.04
12.46810400485992,2,3,3,3,-9.470000000000001,1.47,1.14,0.32,-0.04,0.03
12.47810399532318,2,3,3,3,-9.529999999999999,1.49,1.35,0.38,0.09,0
12.48810398578644,2,3,3,3,-9.550000000000001,1.52,1.21,0.61,0.01,-0.1
12.49810397624969,2,3,3,3,-9.51,1.54,0.9,0.68,-0.06,-0.1
12.50810396671295,2,3,3,3,-9.65,1.56,0.71,0.77,0,-0.13
12.51810395717621,2,3,3,3,-9.710000000000001,1.54,1.06,0.75,0.01,-0.16
12.52810394763947,2,3,3,3,-9.82,1.48,1.32,0.68,0.03,-0.21
12.53810393810272,2,3,3,3,-9.77,1.5,0.87,0.75,-0.26,-0.2
12.54810392856598,2,3,3,3,-9.56,1.5,0.44,0.97,-0.38,-0.2
12.55910408496857,2,3,3,3,-9.550000000000001,1.54,0.47,0.8,-0.36,-0.18
12.56910407543182,2,3,3,3,-9.59,1.57,0.53,0.52,-0.19,-0.11
12.57910406589508,2,3,3,3,-9.640000000000001,1.58,0.57,0.33,-0.06,-0.03
12.58910405635834,2,3,3,3,-9.68,1.55,0.76,0.14,-0.03,-0.01
12.59910404682159,2,3,3,3,-9.69,1.53,0.82,0.07000000000000001,-0.02,-0.04
12.60910403728485,2,3,3,3,-9.76,1.45,0.77,-0.04,0.02,-0.11
12.61910402774811,2,3,3,3,-9.85,1.34,0.76,-0.19,-0.07000000000000001,-0.2
12.62910401821136,2,3,3,3,-9.85,1.26,0.84,-0.16,-0.18,-0.22
12.63910400867462,2,3,3,3,-9.76,1.27,0.96,-0.1,-0.13,-0.13
12.64910399913788,2,3,3,3,-9.619999999999999,1.34,1.02,-0.16,-0.13,0.02
12.65910398960114,2,3,3,3,-9.5,1.44,0.84,-0.25,-0.1,0.24
12.66910398006439,2,3,3,3,-9.539999999999999,1.48,0.84,-0.28,0,0.42
12.67910397052765,2,3,3,3,-9.630000000000001,1.46,0.91,-0.37,0.04,0.54
12.68910396099091,2,3,3,3,-9.67,1.45,1.01,-0.24,0.12,0.62
12.69910395145416,2,3,3,3,-9.630000000000001,1.54,1.13,-0.25,0.21,0.63
12.70910394191742,2,3,3,3,-9.68,1.51,1,-0.28,0.18,0.61
12.71910393238068,2,3,3,3,-9.69,1.45,1,-0.4,0.15,0.5600000000000001
12.72910392284393,2,3,3,3,-9.69,1.47,1.06,-0.43,0.09,0.49
12.73910415172577,2,3,3,3,-9.550000000000001,1.56,1.11,-0.36,0.01,0.42
12.74910414218903,2,3,3,3,-9.460000000000001,1.54,1.08,-0.4,-0.08,0.36
12.75910413265228,2,3,3,3,-9.43,1.55,1,-0.45,-0.08,0.21
12.76910412311554,2,3,3,3,-9.4,1.6,1.03,-0.51,-0.1,0.08
12.7791041135788,2,3,3,3,-9.49,1.58,1.07,-0.5600000000000001,-0.05,0
12.78910410404205,2,3,3,3,-9.5,1.59,1.14,-0.66,-0.08,-0.04
12.79910409450531,2,3,3,3,-9.5,1.6,1.2,-0.75,-0.12,-0.04
12.80910408496857,2,3,3,3,-9.51,1.63,1.14,-0.83,-0.04,-0.02
12.81910407543182,2,3,3,3,-9.51,1.58,1.11,-0.77,0.02,-0.09
12.82910406589508,2,3,3,3,-9.49,1.56,1.07,-0.63,0,-0.12
12.83910405635834,2,3,3,3,-9.5,1.53,1.02,-0.54,0.06,-0.18
12.84910404682159,2,3,3,3,-9.51,1.49,0.95,-0.41,0.16,-0.21
12.85910403728485,2,3,3,3,-9.539999999999999,1.53,0.99,-0.3,0.25,-0.26
12.86910402774811,2,3,3,3,-9.6,1.51,1.03,-0.35,0.36,-0.28
12.87910401821136,2,3,3,3,-9.710000000000001,1.48,1.03,-0.48,0.23,-0.32
12.88910400867462,2,3,3,3,-9.880000000000001,1.51,1.03,-0.49,0.17,-0.24
12.89910399913788,2,3,3,3,-9.93,1.45,1.28,-0.61,0.2,-0.22
12.90910398960114,2,3,3,3,-9.93,1.31,1.43,-0.55,0.19,-0.23
12.91910398006439,2,3,3,3,-9.880000000000001,1.2,1.44,-0.4,-0.04,-0.23
12.92910397052765,2,3,3,3,-9.52,1.19,0.75,-0.08,-0.08,-0.12
12.93910396099091,2,3,3,3,-9.390000000000001,1.24,0.74,0.34,0.02,0.05
12.94910395145416,2,3,3,3,-9.33,1.22,0.98,0.52,0.29,0.14
12.95910394191742,2,3,3,3,-9.48,1.33,0.61,0.67,0.61,0.22
12.96910393238068,2,3,3,3,-9.52,1.37,0.71,0.74,0.66,0.31
12.97910392284393,2,3,3,3,-9.66,1.44,0.79,0.8,0.8,0.36
12.98910415172577,2,3,3,3,-9.82,1.51,1.01,0.87,0.87,0.39
12.99910414218903,2,3,3,3,-9.82,1.37,0.77,1.02,0.71,0.47
13.00910413265228,2,3,3,3,-9.67,1.26,0.83,1.06,0.59,0.54
13.01910412311554,2,3,3,3,-9.67,1.2,0.86,1.32,0.75,0.61
13.0291041135788,2,3,3,3,-9.720000000000001,1.17,0.6,1.85,0.68,0.67
13.03910410404205,2,3,3,3,-9.6,1.16,0.68,1.98,0.51,0.64
13.04910409450531,2,3,3,3,-9.56,1.24,0.67,1.95,0.39,0.6
13.05910408496857,2,3,3,3,-9.52,1.31,0.62,1.91,0.29,0.58
13.06910407543182,2,3,3,3,-9.539999999999999,1.31,0.57,1.93,0.21,0.55
13.07910406589508,2,3,3,3,-9.609999999999999,1.23,0.62,1.89,0.23,0.51
13.08910405635834,2,3,3,3,-9.640000000000001,1.25,0.73,1.99,0.36,0.49
13.09910404682159,2,3,3,3,-9.57,1.29,0.87,2.19,0.43,0.45
13.10910403728485,2,3,3,3,-9.6,1.31,0.6899999999999999,2.71,0.35,0.52
13.11910402774811,2,3,3,3,-9.470000000000001,1.19,0.41,3.09,0.19,0.55
13.12910401821136,2,3,3,3,-9.48,1.2,0.32,3.17,0.31,0.59
13.13910400867462,2,3,3,3,-9.619999999999999,1.15,0.36,3.06,0.42,0.53
13.14910399913788,2,3,3,3,-9.789999999999999,1.29,0.48,2.87,0.41,0.52
13.15910398960114,2,3,3,3,-9.81,1.37,0.38,2.59,0.28,0.53
13.16910398006439,2,3,3,3,-9.880000000000001,1.34,0.43,2.35,0.21,0.49
13.17910397052765,2,3,3,3,-9.91,1.31,0.49,1.95,0.07000000000000001,0.49
13.18910396099091,2,3,3,3,-9.76,1.19,0.51,1.62,0.01,0.54
13.19910395145416,2,3,3,3,-9.74,1.15,0.43,1.46,-0.01,0.59
13.20910394191742,2,3,3,3,-9.720000000000001,1.13,0.34,1.18,-0.07000000000000001,0.57
13.21910393238068,2,3,3,3,-9.73,1.11,0.34,1.16,-0.11,0.58
13.22910392284393,2,3,3,3,-9.84,1.17,0.48,0.96,-0.03,0.54
13.23910415172577,2,3,3,3,-9.869999999999999,1.22,0.59,0.9,0.07000000000000001,0.48
13.24910414218903,2,3,3,3,-9.91,1.22,0.89,1.13,0.13,0.44
13.25910413265228,2,3,3,3,-9.93,1.2,0.98,1.53,0.03,0.35
13.26910412311554,2,3,3,3,-9.83,1.16,0.77,1.96,-0.15,0.25
13.2791041135788,2,3,3,3,-9.84,1.21,0.75,2.21,-0.32,0.17
13.28910410404205,2,3,3,3,-9.77,1.29,0.72,2.31,-0.45,0.13
13.29910409450531,2,3,3,3,-9.69,1.49,0.61,2.31,-0.51,0.14
13.30910408496857,2,3,3,3,-9.640000000000001,1.56,0.53,2.12,-0.44,0.32
13.31910407543182,2,3,3,3,-9.59,1.72,0.58,1.73,-0.23,0.67
13.32910406589508,2,3,3,3,-9.57,1.78,0.6,1.38,-0.06,0.97
13.33910405635834,2,3,3,3,-9.300000000000001,2.09,0.61,0.88,0.05,1.2
13.34910404682159,2,3,3,3,-9.33,2.17,0.57,0.46,0.13,1.28
13.35910403728485,2,3,3,3,-9.51,2.13,0.5,0.15,0.18,1.25
13.36910402774811,2,3,3,3,-9.640000000000001,2.15,0.62,-0.09,0.14,1.14
13.37910401821136,2,3,3,3,-9.81,2.14,0.96,-0.4,0.06,0.97
13.38910400867462,2,3,3,3,-9.800000000000001,2.22,1.03,-0.58,-0.26,0.8100000000000001
13.39910399913788,2,3,3,3,-9.66,2.19,0.8100000000000001,-0.24,-0.9,0.75
13.40910398960114,2,3,3,3,-9.48,2,0.58,0.65,-1.48,0.77
13.41910398006439,2,3,3,3,-9.17,1.71,0.57,1.26,-1.63,0.65
13.42910397052765,2,3,3,3,-9.16,1.65,0.83,1.42,-1.5,0.33
13.43910396099091,2,3,3,3,-9.26,1.65,0.99,1.27,-1.37,0
13.44910395145416,2,3,3,3,-9.48,1.67,1.11,1.04,-1.36,-0.31
13.45910394191742,2,3,3,3,-9.59,1.65,1.27,1,-1.42,-0.55
13.46910393238068,2,3,3,3,-9.550000000000001,1.58,1.36,1.13,-1.41,-0.8100000000000001
13.47910392284393,2,3,3,3,-9.56,1.51,1.42,1.09,-1.55,-1.07
13.48910415172577,2,3,3,3,-9.470000000000001,1.46,1.74,0.95,-1.74,-1.34
13.49910414218903,2,3,3,3,-9.5,1.39,1.77,0.99,-1.86,-1.63
13.50910413265228,2,3,3,3,-9.5,1.44,1.74,0.89,-1.94,-1.96
13.51910412311554,2,3,3,3,-9.58,1.48,1.83,0.79,-1.98,-2.29
13.5291041135788,2,3,3,3,-9.949999999999999,1.18,1.65,0.97,-2.09,-2.4
13.53910410404205,2,3,3,3,-9.84,1.15,1.6,1.08,-2.39,-2.46
13.54910409450531,2,3,3,3,-9.68,0.96,1.58,1.03,-2.48,-2.44
13.55910408496857,2,3,3,3,-9.890000000000001,0.92,1.9,1.21,-2.38,-2.36
13.56910407543182,2,3,3,3,-10.29,0.99,1.95,1.58,-2.98,-2.15
13.58010399341583,2,3,3,3,-10.51,1.07,1.82,2.44,-4.08,-1.82
13.59010398387909,2,3,3,3,-10.71,1.13,1.7,3.34,-5.18,-1.41
13.60010397434235,2,3,3,3,-10.71,1.12,1.57,4.31,-6.05,-1.06
13.6101039648056,2,3,3,3,-10.32,1.39,1.57,4.77,-6.45,-0.77
13.62010395526886,2,3,3,3,-9.83,1.53,1.53,5.19,-6.58,-0.5
13.63010394573212,2,3,3,3,-9.279999999999999,1.6,1.6,5.57,-6.35,-0.24
13.64010393619537,2,3,3,3,-8.56,1.53,1.85,5.41,-5.62,-0.03
13.65010392665863,2,3,3,3,-8.630000000000001,1.54,2.19,4.86,-4.72,0.14
13.66010415554047,2,3,3,3,-8.83,1.75,2.25,4.12,-4.17,0.27
13.67010414600372,2,3,3,3,-8.9,1.83,2.03,3.97,-4.33,0.4
13.68010413646698,2,3,3,3,-9.43,1.86,2.03,4,-4.51,0.37
13.69010412693024,2,3,3,3,-9.5,1.77,2,3.78,-4.95,0.15
13.70010411739349,2,3,3,3,-9.49,1.68,2.22,3.61,-5.11,-0.02
13.71010410785675,2,3,3,3,-9.59,1.65,2.36,3.12,-4.99,0
13.72010409832001,2,3,3,3,-9.6,1.84,2.6,2.66,-4.95,0.09
13.73010408878326,2,3,3,3,-9.539999999999999,1.9,2.54,2.39,-5.01,0.32
13.74010407924652,2,3,3,3,-9.56,1.97,2.45,2.3,-4.92,0.44
13.75010406970978,2,3,3,3,-9.56,1.93,2.3,2.24,-4.75,0.47
13.76010406017303,2,3,3,3,-9.640000000000001,1.77,2.36,2.13,-4.5,0.38
13.77010405063629,2,3,3,3,-9.619999999999999,1.67,2.53,1.96,-4.21,0.3
13.78010404109955,2,3,3,3,-9.550000000000001,1.54,2.7,1.86,-4.03,0.27
13.79010403156281,2,3,3,3,-9.369999999999999,1.35,2.76,1.7,-3.99,0.29
13.80010402202606,2,3,3,3,-9.25,1.3,2.71,1.51,-3.86,0.31
13.81010401248932,2,3,3,3,-9.109999999999999,1.19,2.55,1.56,-3.72,0.32
13.82010400295258,2,3,3,3,-9.17,1.07,2.65,2.03,-3.55,0.33
13.83010399341583,2,3,3,3,-9.08,0.87,2.59,2.65,-3.53,0.23
13.84010398387909,2,3,3,3,-8.94,0.76,2.73,3.37,-3.54,0.13
13.85010397434235,2,3,3,3,-8.970000000000001,0.73,2.85,3.92,-3.45,0.09
13.8601039648056,2,3,3,3,-8.99,0.79,2.89,4.23,-3.46,0.07000000000000001
13.87010395526886,2,3,3,3,-8.859999999999999,0.9,2.93,4.49,-3.46,0.07000000000000001
13.88010394573212,2,3,3,3,-8.83,1,2.96,4.75,-3.44,0.07000000000000001
13.89010393619537,2,3,3,3,-8.869999999999999,1.09,2.99,4.99,-3.38,-0.03
13.90010392665863,2,3,3,3,-8.800000000000001,1.16,2.96,5.25,-3.37,-0.2
13.91010415554047,2,3,3,3,-8.720000000000001,1.12,2.88,5.51,-3.3,-0.41
13.92010414600372,2,3,3,3,-8.699999999999999,1.04,2.94,5.68,-3.26,-0.67
13.93010413646698,2,3,3,3,-8.57,0.98,3.09,5.51,-3.12,-0.91
13.94010412693024,2,3,3,3,-8.52,0.95,3.35,5.3,-2.91,-1.01
13.95010411739349,2,3,3,3,-8.460000000000001,0.91,3.38,4.98,-2.6,-1
13.96010410785675,2,3,3,3,-8.48,0.84,3.28,4.65,-2.27,-0.87
13.97010409832001,2,3,3,3,-8.5,0.77,3.44,4.39,-1.89,-0.74
13.98010408878326,2,3,3,3,-8.779999999999999,0.57,3.82,4.33,-1.61,-0.64
13.99010407924652,2,3,3,3,-8.720000000000001,0.49,3.68,4.5,-1.56,-0.6
14.00010406970978,2,3,3,3,-8.69,0.4,3.58,5.06,-1.4,-0.63
14.01010406017303,2,3,3,3,-8.619999999999999,0.41,3.34,5.58,-1.36,-0.62
14.02010405063629,2,3,3,3,-8.369999999999999,0.5600000000000001,3.26,5.95,-1.4,-0.63
14.03010404109955,2,3,3,3,-8.33,0.45,3.46,6.51,-1.18,-0.58
14.05010402202606,2,3,3,3,-8.4,0.42,3.67,6.65,-0.38,-0.63
14.06010401248932,2,3,3,3,-8.51,0.45,3.39,6.6,0.03,-0.75
14.07010400295258,2,3,3,3,-8.58,0.53,3.43,6.47,0.36,-0.87
14.08010399341583,2,3,3,3,-8.67,0.61,3.54,6.4,0.7,-0.92
14.09010398387909,2,3,3,3,-8.67,0.61,3.54,6.35,0.92,-1
14.10010397434235,2,3,3,3,-8.73,0.62,3.66,6.29,1.16,-1.08
14.1101039648056,2,3,3,3,-9,0.97,3.6,6.28,1.28,-1.27
14.12010395526886,2,3,3,3,-9.06,1.12,3.63,6.16,1.5,-1.42
14.13010394573212,2,3,3,3,-9.06,1.26,3.88,5.95,1.88,-1.54
14.14010393619537,2,3,3,3,-9.06,1.26,3.88,5.64,2.31,-1.56
14.15010392665863,2,3,3,3,-9.050000000000001,1.3,3.95,5.45,2.82,-1.43
14.16010415554047,2,3,3,3,-9.01,1.17,3.87,5.34,3.19,-1.36
14.17010414600372,2,3,3,3,-8.859999999999999,0.89,4.01,5.3,3.36,-1.18
14.18010413646698,2,3,3,3,-8.880000000000001,0.74,4.04,5.61,3.46,-0.86
14.19010412693024,2,3,3,3,-8.880000000000001,0.74,4.04,5.61,3.46,-0.86
14.20010411739349,2,3,3,3,-9.050000000000001,0.55,4.15,5.93,3.55,-0.5600000000000001
14.21010410785675,2,3,3,3,-9.68,0.73,4.86,6.46,3.33,0.15
14.22010409832001,2,3,3,3,-10.16,1.18,4.92,6.43,3.02,0.35
14.23010408878326,2,3,3,3,-10.44,1.69,4.92,5.98,2.04,0.45
14.26010406017303,2,3,3,3,-11.33,3.02,3.16,5.32,0.52,0.28
14.29010403156281,2,3,3,3,-12.14,4.23,3.39,3.71,-1.42,0.91
14.30010402202606,2,3,3,3,-11.76,4.72,2.51,2.35,-3.27,1.01
14.31010401248932,2,3,3,3,-12.24,5.09,2.13,-1.03,-3.55,1.25
14.32010400295258,2,3,3,3,-13.02,5.35,2.21,-2.75,-2.45,1.54
14.33010399341583,2,3,3,3,-14.1,4.75,2.25,-4.76,-1.35,2.04
14.34010398387909,2,3,3,2,-13.78,4.05,2.44,-4.76,-1.35,2.04
14.35010397434235,2,3,3,2,-12.39,3.25,3.55,-6.46,-1.81,2.44
14.3601039648056,2,3,3,2,-10.64,2.57,4.08,-7.98,-3.12,2.06
14.37010395526886,2,3,3,2,-7.24,2.03,3.6,-8.52,-3.03,1.62
14.38010394573212,2,3,3,2,-6.22,1.97,3.44,-9,-2.31,1.11
14.39010393619537,2,3,3,2,-5.74,2.19,3.13,-9,-2.31,1.11
14.40010392665863,2,3,3,2,-5.64,2.11,2.99,-9.51,-1.34,0.5600000000000001
14.41010415554047,2,3,3,2,-5.83,2.41,1.43,-10.23,1.5,-0.84
14.42010414600372,2,3,3,2,-6.7,2.34,1.02,-9.91,3.16,-1.53
14.43010413646698,2,3,3,2,-7.78,2.41,0.43,-9.720000000000001,4.12,-1.97
14.44010412693024,2,3,3,2,-10.54,2.78,-0.18,-9.720000000000001,4.12,-1.97
14.45010411739349,2,3,3,2,-11.53,2.88,-0.21,-9.42,4.45,-1.75
14.46010410785675,2,3,3,2,-12.07,2.66,0.19,-7.1,3.19,-0.31
14.47010409832001,2,3,3,2,-11.63,2.35,0.29,-6.01,2.15,0.13
14.48010408878326,2,3,3,2,-9.300000000000001,1.99,0.68,-4.84,1.84,0.35
14.49010407924652,2,3,3,2,-8.51,2.05,0.98,-4.84,1.84,0.35
14.50010406970978,2,3,3,2,-8.01,2.1,1,-3.65,1.8,0.32
14.51010406017303,2,3,3,2,-7.62,2.27,1,-3.67,1,-0.36
14.52010405063629,2,3,3,2,-6.81,2.36,0.86,-4.17,1.17,-0.8
14.53010404109955,2,3,3,2,-6.88,2.34,0.96,-4.36,1.66,-1.18
14.54010403156281,2,3,3,2,-7.14,2.34,0.96,-4.36,1.66,-1.18
14.55010402202606,2,3,3,2,-7.48,2.36,0.91,-4.55,2.16,-1.59
14.56010401248932,2,3,3,2,-8.35,2.61,1.1,-5.45,3.51,-2.19
14.57010400295258,2,3,3,2,-8.92,2.62,0.84,-6.36,4.3,-2.21
14.58010399341583,2,3,3,2,-9.24,2.64,0.52,-7.3,5.11,-2.19
14.59010398387909,2,3,3,2,-9.51,2.56,0.53,-7.3,5.11,-2.19
14.60110414028168,2,3,3,1,-9.470000000000001,2.44,0.52,-8.1,5.78,-2.03
14.61110413074493,2,3,3,1,-9.300000000000001,2.41,0.55,-10.06,6.31,-1.49
14.62110412120819,2,3,3,1,-9.16,2.33,0.46,-11.12,6.08,-1.23
14.63110411167145,2,3,3,1,-8.359999999999999,1.86,0.55,-11.9,5.87,-0.95
14.6411041021347,2,3,3,1,-8.18,1.8,0.57,-11.9,5.87,-0.95
14.65110409259796,2,3,3,1,-8.300000000000001,1.84,0.53,-12.43,5.93,-0.58
14.66110408306122,2,3,3,1,-8.42,1.94,0.5,-12.93,6.46,0.18
14.67110407352448,2,3,3,1,-8.85,2.05,0.47,-13.38,6.87,0.49
14.68110406398773,2,3,3,1,-9.07,1.89,0.46,-13.81,7.07,0.79
14.69110405445099,2,3,3,1,-9.34,1.71,0.49,-13.81,7.07,0.79
14.70110404491425,2,3,3,0,-9.529999999999999,1.38,0.55,-14.26,7.18,0.97
14.7111040353775,2,3,3,0,-9.720000000000001,0.92,0.64,-14.92,7.09,1.13
14.72110402584076,2,3,3,0,-9.779999999999999,0.55,0.59,-15,6.98,1.03
14.73110401630402,2,3,3,0,-9.890000000000001,0.26,0.76,-14.56,6.83,0.97
14.74110400676727,2,3,3,0,-9.82,0.03,0.96,-14.56,6.83,0.97
14.75110399723053,2,3,3,0,-9.56,-0.52,0.91,-13.71,6.29,0.85
14.76110398769379,2,3,3,0,-9.289999999999999,-0.65,0.89,-12.21,5.39,0.72
14.77110397815704,2,3,3,0,-9.130000000000001,-0.76,0.9399999999999999,-10.52,4.77,0.78
14.7811039686203,2,3,3,0,-8.99,-0.66,1.14,-8.85,4.38,0.96
14.79110395908356,2,3,3,0,-9.01,-0.61,1.21,-7.11,4.04,1.28
14.80110394954681,2,3,3,0,-9.050000000000001,-0.54,1.25,-5.51,3.69,1.72
14.81110394001007,2,3,3,0,-9.109999999999999,-0.37,1.23,-4.03,3.38,2.15
14.82110393047333,2,3,3,0,-9.199999999999999,-0.09,1.18,-2.83,3.09,2.58
14.83110392093658,2,3,3,0,-9.27,-0.01,1.29,-1.99,2.85,2.82
14.84110414981842,2,3,3,0,-9.42,-0.03,1.18,-1.35,2.62,3.05
14.85110414028168,2,3,3,0,-9.619999999999999,-0.06,1.23,-0.85,2.3,3.27
14.86110413074493,2,3,3,0,-9.33,0.25,1.1,-0.38,1.89,3.52
14.87110412120819,2,3,3,0,-9.220000000000001,0.26,1.1,-0.17,1.59,3.84
14.88110411167145,2,3,3,0,-9.029999999999999,0.35,1.19,-0.12,1.4,4.24
14.8911041021347,2,3,3,0,-8.890000000000001,0.39,1.2,-0.22,1.28,4.62
14.90110409259796,2,3,3,0,-8.98,0.63,1.18,-1.15,1.29,5.38
14.91110408306122,2,3,3,0,-9.16,0.78,1,-1.15,1.29,5.38
14.92110407352448,2,3,3,0,-9.369999999999999,0.99,0.82,-1.8,1.2,5.63
14.93110406398773,2,3,3,0,-9.83,1.41,0.73,-2.51,1.04,5.78
14.94110405445099,2,3,3,0,-9.99,1.59,0.47,-4.88,0.67,5.8
14.95110404491425,2,3,3,0,-10.01,1.85,0.36,-6.96,0.7,5.82
14.9611040353775,2,3,3,0,-9.970000000000001,1.89,0.01,-9.109999999999999,1.04,5.91
14.97110402584076,2,3,3,0,-10.13,1.31,0.14,-10.69,1.42,5.8
14.98110401630402,2,3,3,0,-10.3,0.6899999999999999,0.42,-11,1.71,5.4
14.99110400676727,2,3,3,0,-10.51,0.1,0.9399999999999999,-10.22,1.72,4.56
15.00110399723053,2,3,3,0,-10.65,-0.19,1.39,-8.970000000000001,1.7,3.44
15.01110398769379,2,3,3,0,-11.19,-0.31,1.98,-8.140000000000001,1.81,2.33
15.02110397815704,2,3,3,0,-11.67,-0.47,1.86,-7.96,2.09,1.42
15.0311039686203,2,3,3,0,-12.25,-0.76,1.4,-8.34,2.47,0.82
15.04110395908356,2,3,3,0,-12.59,-0.87,1.13,-9.19,3.03,0.5600000000000001
15.05110394954681,2,3,3,0,-12.52,-0.59,1.61,-10.19,3.41,0.78
15.06110394001007,2,3,3,0,-12.31,-0.7,1.7,-11.06,3.6,1.26
15.07110393047333,2,3,3,0,-12.22,-0.91,0.96,-10.71,3.9,1.77
15.08110392093658,2,3,3,0,-12.04,-0.9399999999999999,0.54,-9.109999999999999,4.49,1.99
15.09110414981842,2,3,3,0,-11.96,-0.25,1.15,-7,4.97,1.89
15.10110414028168,2,3,3,0,-11.97,0.08,1.36,-4.1,5.19,1.25
15.11110413074493,2,3,3,0,-12.15,0.23,1.26,0.09,5.3,-0.1
15.12110412120819,2,3,3,0,-12.38,0.18,0,5.15,5.23,-1.92
15.13110411167145,2,3,3,0,-12.25,0.26,-0.59,10.01,5.49,-3.79
15.1411041021347,2,3,3,0,-12.06,0.6,-1.01,13.55,5.67,-5.3
15.15110409259796,2,3,3,0,-11.84,1.23,-1.07,15.68,5.29,-6.45
15.16110408306122,2,3,3,0,-11.49,3.34,-0.18,15.88,4.21,-7.22
15.17110407352448,2,3,3,0,-11.09,4.19,0.06,15.39,2.95,-7.7
15.18110406398773,2,3,3,0,-10.74,4.82,0.31,14.39,1.47,-7.93
15.19110405445099,2,3,3,0,-10.28,4.92,0.32,12.88,-0.45,-7.84
15.20110404491425,2,3,3,0,-9.550000000000001,5.09,0.6,10.26,-2.63,-7.62
15.2111040353775,2,3,3,0,-9.34,4.82,0.83,7.3,-4.17,-7.5
15.22110402584076,2,3,3,0,-9.24,4.39,0.88,4.26,-5.16,-7.34
15.23110401630402,2,3,3,0,-9.08,4.01,0.82,1.35,-5.79,-7.06
15.24110400676727,2,3,3,0,-9.359999999999999,2.5,0.67,-0.27,-5.78,-6.43
15.25110399723053,2,3,3,0,-9.619999999999999,1.69,0.97,-0.75,-5.29,-5.6
15.26110398769379,2,3,3,0,-10.02,1.17,1.33,-0.44,-5.1,-4.53
15.27110397815704,2,3,3,0,-10.37,1.08,1.32,0.42,-5.32,-3.56
15.2811039686203,2,3,3,0,-10.45,1.16,0.95,2.1,-5.3,-3.1
15.29110395908356,2,3,3,0,-10.3,1.4,0.62,4.24,-5.16,-3.04
15.30110394954681,2,3,3,0,-10.11,1.79,0.44,6.4,-5.26,-2.95
15.31110394001007,2,3,3,0,-9.74,2.2,0.43,7.94,-5.71,-2.73
15.32110393047333,2,3,3,0,-9.42,2.09,0.42,8.74,-6.25,-2.5
15.33110392093658,2,3,3,0,-9.369999999999999,1.94,0.52,8.98,-6.73,-2.34
15.34110414981842,2,3,3,0,-9.27,1.77,0.74,9.07,-7.48,-2.24
15.35110414028168,2,3,3,0,-8.84,1.36,1.11,9.17,-8.42,-2.18
15.36110413074493,2,3,3,0,-8.51,1.11,1.18,9.42,-9.210000000000001,-2.18
15.37110412120819,2,3,3,0,-8.1,0.95,1.32,9.81,-9.66,-2.08
15.38110411167145,2,3,3,0,-7.95,0.87,1.26,10.63,-9.92,-1.92
15.3911041021347,2,3,3,0,-7.28,0.77,1.12,11.82,-9.880000000000001,-1.84
15.40110409259796,2,3,3,0,-6.96,0.85,1.23,12.76,-9.42,-1.9
15.41110408306122,2,3,3,0,-6.79,1.08,1.35,13.16,-8.82,-1.88
15.42110407352448,2,3,3,0,-6.72,1.31,1.29,13.37,-8.42,-1.79
15.43110406398773,2,3,3,0,-6.56,1.54,1.46,13.36,-8.07,-1.61
15.44110405445099,2,3,3,0,-6.62,1.47,1.51,13.39,-7.5,-1.36
15.45110404491425,2,3,3,0,-6.69,1.41,1.64,13.61,-6.79,-0.9399999999999999
15.4611040353775,2,3,3,0,-7,1.36,1.78,14.05,-5.62,-0.32
15.47110402584076,2,3,3,0,-7.18,1.39,1.81,15.02,-4.18,0.44
15.48110401630402,2,3,3,0,-7.3,1.38,1.35,15.92,-2.55,1.16
15.49110400676727,2,3,3,0,-7.57,1.36,1.31,15.53,-1.35,1.51
15.50110399723053,2,3,3,0,-8.199999999999999,1.88,1.56,13.79,-0.45,1.47
15.51110398769379,2,3,3,0,-8.359999999999999,1.87,1.95,12.58,0.16,1.23
15.52110397815704,2,3,3,0,-8.35,1.72,2.27,10.86,0.9,0.77
15.5311039686203,2,3,3,0,-8.43,1.59,2.46,9.119999999999999,1.07,0.28
15.54110395908356,2,3,3,0,-8.109999999999999,0.68,2.7,7.68,1.13,-0.17
15.55110394954681,2,3,3,0,-8.039999999999999,0.25,2.76,6.25,1.53,-0.44
15.56110394001007,2,3,3,0,-7.94,-0.13,2.81,5.35,2.13,-0.5
15.57110393047333,2,3,3,0,-8.050000000000001,-0.34,2.76,5.03,2.79,-0.38
15.58110392093658,2,3,3,0,-8.32,-0.26,2.86,5.32,3.1,-0.07000000000000001
15.59110414981842,2,3,3,0,-8.609999999999999,-0.1,3.18,6.54,3.42,0.39
15.60110414028168,2,3,3,0,-9.07,-0.12,3.26,8.32,3.42,0.82
15.61110413074493,2,3,3,0,-9.35,0.03,2.75,9.550000000000001,2.65,1.04
15.62110412120819,2,3,3,0,-9.31,0.23,2.33,9.83,1.87,1.06
15.6321040391922,2,3,3,0,-9.390000000000001,0.5,1.94,9.75,1.46,1.07
15.67210400104523,2,3,3,0,-10.2,1.92,1.46,11.56,1.84,0.92
15.68210399150848,2,3,3,0,-10.84,1.78,2.13,10.99,1.77,0.54
15.69210398197174,2,3,3,0,-12.56,1.58,4.1,9.15,1.58,-0.06
15.702103972435,2,3,3,0,-13.01,1.32,5.29,7.57,1.09,-0.42
15.71210396289825,2,3,3,0,-12.96,0.73,5.66,6.36,0.31,-0.65
15.72210395336151,2,3,3,0,-12.56,0.16,5.39,6.11,-0.8100000000000001,-0.91
15.73210394382477,2,3,3,0,-11.87,0.19,5.59,6.47,-3.39,-1.23
15.74210393428802,2,3,3,0,-10.82,1.07,3.8,7.34,-8.17,-1.28
15.75210392475128,2,3,3,0,-10.1,1.84,1.64,8.77,-12.02,-1.2
15.76210415363312,2,3,3,0,-11.39,2.22,2.32,9.74,-15.55,-1.15
15.77210414409637,2,3,3,0,-11.99,5.39,1.58,9.35,-18.43,-1.27
15.78210413455963,2,3,3,0,-12.24,7.07,0.47,7.69,-15.75,-1.29
15.79210412502289,2,3,3,0,-13.87,7.91,0.8,4.7,-9.859999999999999,-0.21
15.80210411548615,2,3,3,0,-20.38,7.67,0.4,1.35,-3.77,2.75
15.8121041059494,2,3,3,0,-18.16,6.68,2.47,-2.16,-2.67,5.81
15.82210409641266,2,3,3,0,-13.67,5.52,3.16,-5.29,-5.82,6.15
15.83210408687592,2,3,3,0,-9.869999999999999,4.57,3.02,-8.44,-8.210000000000001,4.26
15.84210407733917,2,3,3,0,-5.18,2.91,1.97,-10.48,-8.539999999999999,2.14
15.85210406780243,2,3,3,0,-4.35,2.19,1.1,-11.45,-7.39,0.29
15.86210405826569,2,3,3,0,-4.64,1.63,0.58,-11.25,-5.06,-0.84
15.87210404872894,2,3,3,0,-5.17,1.15,-0.06,-10.16,-2.77,-1.9
15.8821040391922,2,3,3,0,-6.09,0.29,-1.18,-8.6,-0.62,-3.12
15.89210402965546,2,3,3,0,-6.64,0.3,-1.61,-6.28,1.81,-4.12
15.90210402011871,2,3,3,0,-7.7,0.54,-1.72,-3.65,4.11,-4.4
15.91210401058197,2,3,3,0,-9.390000000000001,1.07,-1.61,-1.33,5.94,-3.62
15.92210400104523,2,3,3,0,-14.19,3.7,-0.92,0.8,7.52,-1.51
15.93210399150848,2,3,3,0,-15.34,4.64,-0.01,2.32,7.15,0.86
15.94210398197174,2,3,3,0,-14.2,5.28,0.31,1.2,5.09,2.25
15.952103972435,2,3,3,0,-8.789999999999999,5.81,0.45,-1.44,4.07,2.4
15.96210396289825,2,3,3,0,-7.13,5.38,0.53,-4.1,4.67,1.57
15.97210395336151,2,3,3,0,-6.93,4.7,0.64,-6.76,5.76,0.44
15.98210394382477,2,3,3,0,-7.1,4.26,0.88,-9.23,5.62,-0.33
15.99210393428802,2,3,3,0,-6.07,3.19,0.5600000000000001,-12.08,4.51,-1.05
16.00210392475128,2,3,3,0,-5.55,2.58,0.34,-14.42,3.76,-1.57
16.01210415363312,2,3,3,0,-5.16,1.88,0.13,-15.94,3.67,-1.82
16.02210414409637,2,3,3,0,-4.96,1.42,0.03,-16.51,4.1,-1.75
16.03210413455963,2,3,3,0,-5.47,1.68,-0.01,-16.48,4.97,-1.2
16.04210412502289,2,3,3,0,-6.16,1.88,0.16,-15.95,6.06,-0.31
16.05210411548615,2,3,3,0,-7.45,2.22,0.15,-15.22,7.3,0.79
16.0621041059494,2,3,3,0,-8.91,2.51,0.08,-14.59,8.050000000000001,1.72
16.07210409641266,2,3,3,0,-10.3,2.49,-0.3,-14.4,8.130000000000001,2.19
16.08210408687592,2,3,3,0,-10.16,2.24,-0.28,-14.32,7.69,2.31
16.09210407733917,2,3,3,0,-9.73,1.79,0,-13.98,6.97,2.03
16.10210406780243,2,3,3,0,-8.49,1.03,0.46,-13.58,6.36,1.49
16.11210405826569,2,3,3,0,-8.380000000000001,1.29,0.5,-12.85,5.81,1.29
16.12210404872894,2,3,3,0,-8.57,1.46,0.45,-12.41,5.22,1.17
16.1321040391922,2,3,3,0,-8.960000000000001,1.65,0.48,-12.23,4.92,0.99
16.14210402965546,2,3,3,0,-9.93,1.39,0.5600000000000001,-12.66,4.78,1.15
16.15210402011871,2,3,3,0,-10.21,0.76,0.64,-13.72,4.86,1.55
16.16210401058197,2,3,3,0,-10.5,0.04,0.83,-14.62,5.2,2.12
16.17210400104523,2,3,3,0,-10.32,-0.65,0.99,-14.77,5.41,2.55
16.18210399150848,2,3,3,0,-9.609999999999999,-1.39,1.45,-13.92,5.1,2.78
16.19210398197174,2,3,3,0,-8.960000000000001,-1.51,1.57,-12.35,4.03,2.81
16.202103972435,2,3,3,0,-8.539999999999999,-1.47,1.57,-10.17,3.52,2.8
16.21210396289825,2,3,3,0,-8.44,-1.21,1.57,-7.85,3.24,2.83
16.22210395336151,2,3,3,0,-8.800000000000001,-0.23,1.34,-5.43,3.07,2.89
16.23210394382477,2,3,3,0,-9.17,0.15,1.41,-3.54,3.01,3.1
16.24210393428802,2,3,3,0,-9.49,0.45,1.41,-2.36,3.09,3.45
16.25210392475128,2,3,3,0,-9.619999999999999,0.73,1.46,-1.84,3.15,3.95
16.26210415363312,2,3,3,0,-9.52,0.72,1.49,-1.82,3.25,4.65
16.27210414409637,2,3,3,0,-9.369999999999999,0.53,1.49,-2.24,3.29,5.35
16.28210413455963,2,3,3,0,-9.210000000000001,0.4,1.46,-2.83,3.16,5.97
16.29210412502289,2,3,3,0,-9.51,0.3,1.6,-3.38,2.84,6.46
16.30210411548615,2,3,3,0,-9.82,0.49,1.59,-3.8,2.34,6.81
16.3121041059494,2,3,3,0,-9.890000000000001,0.7,1.28,-4.09,1.89,7.04
16.32210409641266,2,3,3,0,-9.73,0.86,1.19,-4.54,1.6,7.19
16.33210408687592,2,3,3,0,-9.029999999999999,1.24,1.18,-5.3,1.52,7.28
16.34210407733917,2,3,3,0,-8.970000000000001,1.46,1.04,-6.46,1.69,7.37
16.35210406780243,2,3,3,1,-9.199999999999999,1.74,0.8,-8.039999999999999,2.04,7.36
16.36210405826569,2,3,3,1,-9.529999999999999,1.85,0.57,-9.77,2.41,7.16
16.37210404872894,2,3,3,1,-9.93,1.21,0.27,-11.14,2.66,6.77
16.3821040391922,2,3,3,1,-10,0.54,0.5,-11.55,2.73,6.11
16.39210402965546,2,3,3,1,-9.91,0,0.95,-11.03,2.72,5.22
16.40210402011871,2,3,3,1,-9.91,-0.23,1.4,-9.94,2.59,4.14
16.41210401058197,2,3,3,1,-10.53,-0.24,2.05,-8.970000000000001,2.5,3.08
16.42210400104523,2,3,3,1,-11.1,-0.24,1.95,-8.619999999999999,2.55,2.14
16.43210399150848,2,3,3,1,-11.47,-0.37,1.55,-8.710000000000001,2.7,1.44
16.44210398197174,2,3,3,1,-11.51,-0.48,1.75,-9.460000000000001,3.1,0.98
16.452103972435,2,3,3,1,-11.33,-0.38,1.79,-11.24,4.1,0.8100000000000001
16.46210396289825,2,3,3,1,-11.45,-0.76,1.57,-12.58,4.85,1.02
16.47210395336151,2,3,3,1,-11.49,-0.99,0.64,-12.76,5.31,1.34
16.48210394382477,2,3,3,1,-11.46,0,0.09,-11.63,6.13,1.41
16.49210393428802,2,3,3,1,-11.49,0.18,0.43,-9.539999999999999,7.01,1.2
16.50210392475128,2,3,3,1,-11.49,0.18,0.43,-6.31,7.57,0.41
16.51210415363312,2,3,3,1,-11.79,0.11,1.57,-0.85,7.81,-1.09
16.52210414409637,2,3,3,1,-12.11,1.27,-0.32,5.73,8.119999999999999,-3.25
16.53210413455963,2,3,3,1,-12.47,1.78,-1.15,11.59,8.720000000000001,-5.77
16.54210412502289,2,3,3,1,-12.8,2.02,-1.8,15.43,9.01,-7.99
16.55210411548615,2,3,3,2,-12.8,2.02,-1.8,17.16,8.5,-9.57
16.5621041059494,2,3,3,2,-12.96,2.53,-1.67,17.04,7.22,-10.47
16.57210409641266,2,3,3,2,-11.95,4.5,-0.99,16.12,5.08,-10.8
16.58210408687592,2,3,3,2,-10.97,5,-0.45,14.56,2.46,-10.58
16.59210407733917,2,3,3,2,-10.33,5.79,-0.19,12.32,0.19,-9.77
16.60210406780243,2,3,3,2,-10.33,5.79,-0.19,9.619999999999999,-2.03,-9.08
16.61210405826569,2,3,3,2,-10.17,5.75,0.7,6.05,-4.24,-8.68
16.62210404872894,2,3,3,2,-10.52,5.35,0.83,1.96,-5.8,-8.27
16.6321040391922,2,3,3,2,-10.52,3.49,0.48,-1.57,-6.78,-8.15
16.64210402965546,2,3,3,2,-10.81,2.56,0.8,-3.72,-6.68,-7.59
16.65310394763947,2,3,3,2,-10.81,2.56,0.8,-3.72,-6.68,-7.59
16.66310393810272,2,3,3,2,-11.16,1.64,1.04,-4.29,-5.65,-6.57
16.67310392856598,2,3,3,2,-11.01,0.5,0.99,-1.54,-4.86,-4.61
16.68310415744781,2,3,3,2,-10.61,0.64,1.1,0.85,-4.86,-3.95
16.69310414791107,2,3,3,2,-10.02,1.2,0.53,3.12,-5.32,-3.27
16.70310413837433,2,3,3,2,-10.02,1.2,0.53,3.12,-5.32,-3.27
16.71310412883759,2,3,3,2,-9.43,1.54,0.43,5.32,-6.04,-2.35
16.72310411930084,2,3,3,2,-8.99,2.1,0.46,7.58,-6.35,-0.18
16.7331041097641,2,3,3,2,-8.85,2.13,0.29,7.4,-7.27,0.36
16.74310410022736,2,3,3,2,-8.6,1.37,0.34,7.67,-8.380000000000001,0.75
16.75310409069061,2,3,3,2,-8.6,1.37,0.34,8.18,-9.67,0.97
16.76310408115387,2,3,3,2,-8.279999999999999,1.05,0.66,8.18,-9.67,0.97
16.77310407161713,2,3,3,2,-7.6,0.77,1.1,8.359999999999999,-11.26,0.8
16.78310406208038,2,3,3,2,-6.92,0.88,1.56,8.75,-11.33,0.61
16.79310405254364,2,3,3,2,-6.92,0.88,1.56,9.449999999999999,-10.57,0.33
16.8031040430069,2,3,3,2,-6.82,0.98,1.57,9.449999999999999,-10.57,0.33
16.81310403347015,2,3,3,2,-6.57,1.15,1.37,10.15,-9.77,-0.16
16.84310400485992,2,3,3,2,-7,1.18,1.75,10.41,-7.29,-0.8100000000000001
16.85310399532318,2,3,3,2,-7.05,1.11,1.94,10.41,-7.29,-0.8100000000000001
16.86310398578644,2,3,3,2,-7.36,1.07,1.99,10.27,-6.75,-0.39
16.87310397624969,2,3,3,2,-7.69,1,1.74,9.65,-5.16,0.95
16.90310394763947,2,3,3,2,-7.25,1.15,2.3,8.6,-1.91,2.33
16.93310415744781,2,3,3,2,-7.44,0.9399999999999999,2.39,7.37,2.74,2.66
16.94310414791107,2,3,3,2,-7.36,0.34,2.79,7.07,2.3,2.03
16.96310412883759,2,3,3,2,-7.53,-0.22,2.97,6.38,2.1,1.3
16.97310411930084,2,3,3,2,-7.65,-0.34,3.02,5.45,2.48,-0.13
16.9831041097641,2,3,3,2,-8.460000000000001,0.04,2.9,6.03,2.61,-0.5600000000000001
16.99310410022736,2,3,3,2,-9.039999999999999,-0.01,3.04,6.87,2.27,-1.03
17.00310409069061,2,3,3,2,-9.67,0.19,3.01,6.87,2.27,-1.03
17.01310408115387,2,3,3,2,-10.19,0.33,2.93,7.12,1.28,-1.55
17.02310407161713,2,3,3,2,-9.98,0.9399999999999999,1.78,7.86,-1.22,-1.68
17.03310406208038,2,3,3,2,-9.57,1.46,0.91,9.619999999999999,-0.53,-1.23
17.04310405254364,2,3,3,2,-9.880000000000001,1.68,0.55,10.89,0.7,-0.66
17.0531040430069,2,3,3,2,-10.95,1.37,0.95,10.89,0.7,-0.66
17.06310403347015,2,3,3,2,-13.92,0.07000000000000001,4.07,9.34,1.06,-0.46
17.07310402393341,2,3,3,2,-14.71,-0.52,5.3,4.55,-0.46,-0.88
17.08310401439667,2,3,3,2,-14.33,-1.34,5.87,4.28,-1.75,-1.05
17.09310400485992,2,3,3,2,-13.32,-1.88,5.73,5.01,-1.93,-0.85
17.10310399532318,2,3,3,2,-12.62,-1.04,4.94,5.01,-1.93,-0.85
17.11310398578644,2,3,3,2,-12.11,-0.28,4.76,7.52,-4.07,-0.46
17.12310397624969,2,3,3,2,-10.2,0.53,3.46,11.91,-11.87,-0.34
17.13310396671295,2,3,3,2,-11.09,1.3,4.39,12.83,-14.81,-0.52
17.14310395717621,2,3,3,2,-10.87,2.83,3.53,11.67,-16.29,-0.58
17.15310394763947,2,3,3,2,-10.83,4.93,2.47,11.67,-16.29,-0.58
17.16310393810272,2,3,3,1,-11.78,7.04,2.33,9.73,-13.23,0.28
17.17310392856598,2,3,3,1,-17,8.92,1.32,2.46,-4.25,4.14
17.18310415744781,2,3,3,1,-18.28,8.27,1.91,-2.25,-2.62,6.11
17.19310414791107,2,3,3,1,-16.85,7.42,2.68,-6.97,-4.06,6.13
17.20310413837433,2,3,3,1,-14.11,6.52,3.15,-6.97,-4.06,6.13
17.21310412883759,2,3,3,1,-7.87,3.86,1.48,-10.98,-6.29,4.34
17.22310411930084,2,3,3,1,-6.4,2.37,0.31,-16.69,-5.63,-0.14
17.2331041097641,2,3,3,1,-5.94,1.65,-0.02,-15.42,-3.33,-1.07
17.24310410022736,2,3,3,1,-5.85,1.39,-0.05,-13.29,-1.68,-1.36
17.25310409069061,2,3,3,1,-5.59,0.67,-0.8100000000000001,-13.29,-1.68,-1.36
17.26310408115387,2,3,3,1,-5.47,0.07000000000000001,-0.85,-10.9,-0.47,-1.52
17.27310407161713,2,3,3,1,-5.57,-0.1,-0.97,-4.32,2.58,-1.46
17.28310406208038,2,3,3,1,-7.23,0.7,-1.26,-0.9399999999999999,4.1,-1.22
17.29310405254364,2,3,3,1,-8.539999999999999,1.71,-1.16,2.05,5.43,-0.76
17.3031040430069,2,3,3,1,-10.28,2.9,-0.59,2.05,5.43,-0.76
17.31310403347015,2,3,3,1,-11.71,3.95,0.11,4.36,5.76,-0.23
17.32310402393341,2,3,3,1,-11.27,5.53,0.49,2.87,4.58,-0.07000000000000001
17.33310401439667,2,3,3,1,-9.76,5.75,0.78,2.87,4.58,-0.07000000000000001
17.34310400485992,2,3,3,1,-8.33,5.55,0.8,0.61,5.01,-0.42
17.35310399532318,2,3,3,1,-7.51,5,0.63,-2.22,5.93,-0.85
17.36310398578644,2,3,3,1,-6.52,3.87,0.4,-5.8,6.31,-1.47
17.37310397624969,2,3,3,1,-5.88,3.32,0.3,-9.4,6.01,-2.05
17.38310396671295,2,3,3,1,-5.41,2.87,0.22,-12.43,5.4,-2.49
17.41310393810272,2,3,3,1,-6.75,2.56,0.24,-17.37,5.42,-1.8
17.42310392856598,2,3,3,1,-7.81,2.67,-0.03,-18.43,6.11,-0.71
17.43310415744781,2,3,3,1,-9.609999999999999,2.38,-0.24,-18.83,6.87,0.36
17.44310414791107,2,3,3,1,-10.01,2,-0.19,-18.86,7.48,1.09
17.45310413837433,2,3,3,1,-10.1,1.57,-0.12,-18.76,7.71,1.52
17.46310412883759,2,3,3,1,-9.9,1.01,0,-18.38,7.62,1.85
17.47310411930084,2,3,3,1,-9.460000000000001,0.37,0.46,-17.66,7.4,2.05
17.4831041097641,2,3,3,1,-9.779999999999999,0.24,0.46,-16.98,7.27,2.37
17.49310410022736,2,3,3,1,-10.16,0.17,0.51,-16.19,7.07,2.58
17.50310409069061,2,3,3,1,-10.45,0.09,0.55,-15.16,6.73,2.58
17.51310408115387,2,3,3,1,-10,-0.36,0.68,-14.19,5.74,2.6
17.52310407161713,2,3,3,1,-9.619999999999999,-0.65,0.7,-13.57,4.88,2.82
17.53310406208038,2,3,3,1,-9.289999999999999,-0.99,0.97,-13.19,4.55,3.23
17.54310405254364,2,3,3,1,-8.9,-1.28,1.05,-12.47,4.35,3.77
17.5531040430069,2,3,3,1,-8.81,-1.55,1.16,-11.05,4.24,4.19
17.56310403347015,2,3,3,1,-8.83,-1.25,1.33,-8.99,4.05,4.51
17.57310402393341,2,3,3,1,-8.92,-0.82,1.39,-6.62,3.75,4.74
17.58310401439667,2,3,3,1,-9.16,-0.49,1.36,-4.39,3.39,4.95
17.59310400485992,2,3,3,1,-9.619999999999999,0.14,1.61,-2.72,3.04,5.16
17.60310399532318,2,3,3,1,-9.85,0.24,1.48,-1.66,2.75,5.43
17.61310398578644,2,3,3,1,-10.09,0.19,1.53,-0.95,2.06,6.19
17.62310397624969,2,3,3,1,-10.19,-0.12,1.51,-0.95,2.06,6.19
17.63310396671295,2,3,3,1,-10.17,-0.27,1.36,-0.55,1.71,6.57
17.64310395717621,2,3,3,1,-10.05,-0.3,1.31,0.67,0.8,7.11
17.65310394763947,2,3,3,1,-9.82,-0.27,1.48,1.2,0.32,7.19
17.66310393810272,2,3,3,1,-9.369999999999999,0.1,1.58,1.03,0.01,7.2
17.67310392856598,2,3,3,1,-9.26,0.38,1.33,1.03,0.01,7.2
17.68410408496857,2,3,3,1,-9.220000000000001,0.63,1.11,0.38,-0.07000000000000001,7.18
17.69410407543182,2,3,3,1,-9.140000000000001,0.89,1.14,-1.92,0.07000000000000001,6.93
17.70410406589508,2,3,3,1,-9.02,1.63,0.85,-4.3,0.36,6.72
17.71410405635834,2,3,3,1,-9.1,1.66,0.39,-6.97,0.85,6.44
17.72410404682159,2,3,3,1,-9.390000000000001,1.35,0.37,-8.77,1.45,6.04
17.73410403728485,2,3,3,1,-9.85,0.62,0.49,-8.869999999999999,1.81,5.25
17.74410402774811,2,3,3,1,-10.45,-0.62,1.71,-7.59,1.54,4.12
17.75410401821136,2,3,3,1,-10.21,-0.54,2.25,-6.25,1.25,2.86
17.76410400867462,2,3,3,1,-10.32,-0.31,2.24,-5.71,1.45,1.75
17.77410399913788,2,3,3,1,-11.41,0.8,2.35,-6.15,2.15,0.83
17.78410398960114,2,3,3,1,-11.7,1.53,2.72,-7.75,2.97,0.28
17.79410398006439,2,3,3,1,-11.73,1.54,2.45,-10.23,3.84,-0.05
17.80410397052765,2,3,3,1,-11.6,0.85,1.66,-11.38,5.13,-0.59
17.81410396099091,2,3,3,2,-10.79,-0.1,0.66,-10.88,6.69,-1.07
17.82410395145416,2,3,3,2,-10.61,-0.68,0.64,-9.119999999999999,7.89,-1.15
17.83410394191742,2,3,3,2,-10.92,-1.17,0.7,-4.81,8.359999999999999,-0.95
17.84410393238068,2,3,3,2,-11.34,-1.34,0.51,2.43,8.24,-1.46
17.85410392284393,2,3,3,2,-12.15,0.01,-0.95,10.14,8.48,-2.98
17.86410415172577,2,3,3,2,-12.96,1.19,-1.59,16.61,9.050000000000001,-4.96
17.87410414218903,2,3,3,2,-13.76,2.52,-2.14,20.07,8.76,-6.9
17.88410413265228,2,3,3,2,-14.21,3.77,-2.19,20.1,7.22,-8.65
17.89410412311554,2,3,3,2,-14.14,5.59,-1.12,17.82,5.14,-9.699999999999999
17.9041041135788,2,3,3,2,-13.22,5.89,-0.75,14.46,1.94,-10.31
17.91410410404205,2,3,3,2,-12.06,6.02,-0.36,10.64,-0.91,-10.28
17.92410409450531,2,3,3,2,-11.44,6.18,0.37,6.01,-4.07,-9.73
17.93410408496857,2,3,3,2,-9.710000000000001,5.87,1.09,1.66,-5.87,-9
17.94410407543182,2,3,3,2,-9.58,5.57,1.23,-1.88,-6.35,-8.23
17.95410406589508,2,3,3,2,-9.56,5.01,1.21,-4.73,-6.59,-7.58
17.96410405635834,2,3,3,2,-9.84,3.1,0.92,-6.57,-6.44,-6.97
17.97410404682159,2,3,3,2,-9.81,1.84,0.92,-7.35,-6.22,-6.25
17.98410403728485,2,3,3,2,-9.67,0.5600000000000001,0.97,-6.8,-6.05,-5.39
17.99410402774811,2,3,3,2,-9.31,-0.42,1.13,-5.1,-5.92,-4.6
18.00410401821136,2,3,3,2,-8.81,-0.5600000000000001,1.01,-2.33,-5.47,-3.96
18.01410400867462,2,3,3,3,-8.84,-0.18,0.77,0.84,-4.89,-3.54
18.02410399913788,2,3,3,3,-8.859999999999999,0.38,0.61,3.71,-4.69,-3.1
18.03410398960114,2,3,3,3,-8.91,0.79,0.43,6.06,-4.76,-2.69
18.04410398006439,2,3,3,3,-9.24,1.25,0.66,7.68,-5.24,-2.3
18.06410396099091,2,3,3,3,-9.41,1.46,1.03,9.16,-7.05,-1.82
18.10410392284393,2,3,3,3,-7.53,0.62,1.34,12.13,-10.47,-0.83
18.11410415172577,2,3,3,3,-7.52,0.66,1.77,12.98,-9.859999999999999,-0.5
18.12410414218903,2,3,3,3,-7.6,0.91,1.76,13.38,-9.16,-0.42
18.13410413265228,2,3,3,3,-7.71,1.21,1.63,13.59,-8.5,-0.49
18.14410412311554,2,3,3,3,-7.66,1.39,1.59,13.5,-7.87,-0.58
18.1541041135788,2,3,3,3,-7.71,1.7,1.57,13.3,-7.26,-0.5600000000000001
18.16410410404205,2,3,3,3,-7.72,1.69,1.56,13.06,-6.67,-0.27
18.17410409450531,2,3,3,3,-7.69,1.64,1.55,12.7,-5.96,0.19
18.18410408496857,2,3,3,3,-7.68,1.67,1.6,12.45,-5.06,0.77
18.19410407543182,2,3,3,3,-7.66,1.65,2.04,12.03,-4.16,1.44
18.20410406589508,2,3,3,3,-7.77,1.64,2.54,11.58,-2.96,2.03
18.21410405635834,2,3,3,3,-7.67,1.74,2.46,11.21,-1.76,2.56
18.22410404682159,2,3,3,3,-7.42,1.81,2.27,11.24,-0.46,2.86
18.23410403728485,2,3,3,3,-7.18,1.75,2.05,10.63,0.89,2.89
18.24410402774811,2,3,3,3,-7.27,1.58,2.11,9.83,2,2.66
18.25410401821136,2,3,3,3,-7.18,1.5,2.77,9.17,2.79,2.24
18.27410399913788,2,3,3,3,-7.69,0.67,2.52,9.52,4.12,1.3
18.28410398960114,2,3,3,3,-8.02,0.22,2.47,8.9,3.42,0.73
18.43410408496857,2,3,3,3,-12.36,-1.39,5.51,4.25,-2.77,-2.36
18.44410407543182,2,3,3,3,-12.36,-1.06,5.63,6.39,-4.81,-2.19
18.45410406589508,2,3,3,3,-10.53,0.54,3.02,8.390000000000001,-9.01,-1.92
18.46410405635834,2,3,3,3,-10.92,0.93,3.41,10.5,-12.28,-1.76
18.47410404682159,2,3,3,3,-11.82,1.78,3.89,11.62,-15.04,-1.55
18.48410403728485,2,3,3,3,-11.94,3.46,2.54,11.03,-14.87,-1.2
18.49410402774811,2,3,3,3,-14.48,7.08,1.46,9.869999999999999,-11.16,0.11
18.50410401821136,2,3,3,3,-16.67,7.89,0.93,7.53,-6.9,2.63
18.51410400867462,2,3,3,3,-18.62,8.039999999999999,1.13,3.72,-3.34,5.96
18.52410399913788,2,3,3,3,-17.51,7.86,2.82,-0.87,-4.4,7.78
18.53410398960114,2,3,3,3,-10.36,6.65,2.83,-5.5,-6.92,6.95
18.54410398006439,2,3,3,3,-7.49,5.16,2.19,-9.94,-8.140000000000001,4.6
18.55410397052765,2,3,3,3,-5.66,3.82,1.05,-13.99,-7.29,1.85
18.56410396099091,2,3,3,3,-5.18,2.68,0.5600000000000001,-15.79,-4.66,-0.16
18.57410395145416,2,3,3,3,-6.09,1.15,-0.13,-14.87,-2.2,-1.26
18.58410394191742,2,3,3,3,-6.15,0.67,-0.83,-12.6,-0.85,-1.83
18.59410393238068,2,3,3,3,-6.28,0.18,-0.97,-9.539999999999999,0.11,-2.11
18.60410392284393,2,3,3,3,-6.57,-0.29,-1.1,-6.12,0.93,-2.27
18.61410415172577,2,3,3,3,-7.17,0,-1.05,-2.26,2,-2.25
18.64410412311554,2,3,3,3,-11.56,4.37,0.35,6.72,4.6,-0.34
18.6541041135788,2,3,3,3,-11.27,5.27,0.51,6.4,4.09,0.16
18.66410410404205,2,3,3,3,-10.26,5.69,0.75,4.28,3.9,0.16
18.67410409450531,2,3,3,3,-8.92,5.73,0.79,0.9399999999999999,4.28,-0.31
18.68410408496857,2,3,3,3,-7.42,4.83,0.58,-2.83,4.95,-0.89
18.69410407543182,2,3,3,3,-7.2,4.34,0.51,-6.5,5.17,-1.46
18.70510399341583,2,3,3,3,-7,3.85,0.39,-9.82,4.83,-1.95
18.71510398387909,2,3,3,3,-6.74,3.2,0.32,-12.27,4.34,-2.31
18.72510397434235,2,3,3,3,-6.56,2.21,0.43,-13.97,4.31,-2.45
18.7351039648056,2,3,3,3,-6.75,2.02,0.4,-15.16,4.64,-2.32
18.74510395526886,2,3,3,3,-7.25,2.13,0.5,-15.99,5.23,-1.69
18.75510394573212,2,3,3,3,-8.59,2.33,0.47,-16.39,6.01,-0.8
18.76510393619537,2,3,3,3,-9.140000000000001,2.28,0.49,-16.67,6.77,0.07000000000000001
18.77510392665863,2,3,3,3,-9.49,2.11,0.48,-16.68,7.23,0.84
18.78510415554047,2,3,3,3,-9.59,1.84,0.43,-16.75,7.38,1.26
18.79510414600372,2,3,3,3,-9.15,1.04,0.47,-16.57,7.29,1.43
18.80510413646698,2,3,3,3,-8.890000000000001,0.6899999999999999,0.47,-16.09,7.18,1.54
18.81510412693024,2,3,3,3,-8.73,0.39,0.47,-15.21,7.02,1.77
18.82510411739349,2,3,3,3,-8.66,0.35,0.51,-14,6.9,1.96
18.83510410785675,2,3,3,3,-9.369999999999999,0.63,0.37,-12.66,7.03,1.92
18.84510409832001,2,3,3,3,-9.949999999999999,0.75,0.44,-11.46,7.09,2.04
18.85510408878326,2,3,3,3,-10.3,0.9,0.52,-10.65,7.18,2.31
18.86510407924652,2,3,3,3,-10.31,0.96,0.61,-10.36,6.78,2.88
18.87510406970978,2,3,3,3,-9.94,0.68,0.76,-10.36,6.15,3.48
18.88510406017303,2,3,3,3,-9.67,0.36,0.77,-10.24,5.5,3.85
18.89510405063629,2,3,3,3,-9.5,0.04,0.86,-9.77,4.87,4.15
18.90510404109955,2,3,3,3,-9.359999999999999,-0.11,1.14,-9.02,4.27,4.42
18.91510403156281,2,3,3,3,-9.17,-0.11,1.18,-7.88,3.72,4.61
18.92510402202606,2,3,3,3,-9.16,0,1.34,-6.48,3.23,4.75
18.93510401248932,2,3,3,3,-9.26,0.16,1.24,-4.98,2.88,4.8
18.94510400295258,2,3,3,3,-9.66,0.41,1.37,-3.67,2.53,4.84
18.95510399341583,2,3,3,3,-9.779999999999999,0.52,1.35,-2.56,2.27,4.98
18.96510398387909,2,3,3,3,-9.85,0.5,1.26,-1.67,2.02,5.15
18.97510397434235,2,3,3,3,-9.92,0.47,1.36,-1.33,1.75,5.27
18.9851039648056,2,3,3,3,-9.69,0.44,1.41,-1.44,1.52,5.48
18.99510395526886,2,3,3,3,-9.5,0.4,1.11,-1.84,1.29,5.77
19.00510394573212,2,3,3,3,-9.390000000000001,0.34,1,-2.31,1.07,6.13
19.01510393619537,2,3,3,3,-9.23,0.44,0.82,-2.71,0.9399999999999999,6.43
19.02510392665863,2,3,3,3,-9.23,0.79,0.74,-2.87,0.85,6.52
19.03510415554047,2,3,3,3,-9.279999999999999,1.14,0.8100000000000001,-3,0.72,6.39
19.04510414600372,2,3,3,3,-9.24,1.6,0.87,-3.87,0.71,6.06
19.05510413646698,2,3,3,3,-9.27,1.83,0.66,-5.58,0.91,5.67
19.06510412693024,2,3,3,3,-9.75,1.34,0.41,-7.15,1.3,5.17
19.07510411739349,2,3,3,3,-10.14,0.6,0.49,-7.77,1.52,4.54
19.08510410785675,2,3,3,3,-10.41,-0.01,0.73,-7.31,1.32,3.71
19.09510409832001,2,3,3,3,-10.08,0,1.93,-6.34,0.85,2.88
19.10510408878326,2,3,3,3,-9.99,0.25,2.09,-5.74,0.55,2.14
19.11510407924652,2,3,3,3,-9.99,0.25,2.09,-6.02,0.8100000000000001,1.59
19.12510406970978,2,3,3,3,-10.15,0.29,2.02,-6.86,1.33,1.31
19.13510406017303,2,3,3,3,-10.29,-0.39,1.33,-8.199999999999999,1.88,1.4
19.14510405063629,2,3,3,3,-10.08,-0.73,1.01,-9.619999999999999,2.45,1.69
19.15510404109955,2,3,3,3,-9.880000000000001,-0.64,1.16,-10.61,3.37,2.02
19.16510403156281,2,3,3,3,-9.880000000000001,-0.64,1.16,-10.8,4.08,2.6
19.17510402202606,2,3,3,3,-9.93,-0.62,1.46,-10.29,4.43,3.26
19.18510401248932,2,3,3,3,-10.56,0.32,-0.36,-8.75,4.93,3.79
19.19510400295258,2,3,3,3,-10.72,0.88,-0.08,-7.03,5.81,3.88
19.20510399341583,2,3,3,3,-10.95,1.21,0.35,-5.11,6.35,3.27
19.21510398387909,2,3,3,3,-10.95,1.21,0.35,-2.35,6.62,1.97
19.22510397434235,2,3,3,3,-11.42,1.8,0.09,-2.35,6.62,1.97
19.2351039648056,2,3,3,3,-12.61,2.4,-0.72,5.37,7.2,-2.98
19.24510395526886,2,3,3,3,-13.16,2.85,-0.71,8.640000000000001,6.74,-5.63
19.25510394573212,2,3,3,3,-13.26,3.85,-0.46,10.28,6.08,-7.59
19.26510393619537,2,3,3,3,-13.26,3.85,-0.46,10.28,6.08,-7.59
19.27510392665863,2,3,3,3,-12.52,5.25,0.42,9.890000000000001,4.66,-8.98
19.28510415554047,2,3,3,3,-11.64,5.53,1.57,5.39,1.74,-9.41
19.29510414600372,2,3,3,3,-10.5,5.43,1.71,1.59,-0.95,-8.800000000000001
19.30510413646698,2,3,3,3,-9.92,5.57,1.86,-2.27,-2.47,-7.5
19.31510412693024,2,3,3,3,-9.92,5.57,1.86,-2.27,-2.47,-7.5
19.32510411739349,2,3,3,3,-9.76,5.7,2.04,-5.38,-2.33,-6.2
19.33510410785675,2,3,3,3,-8.720000000000001,3.59,0.4,-7.79,-2.35,-5.38
19.35510408878326,2,3,3,3,-8.74,2.31,0.23,-4.4,-1.99,-4.79
19.36510407924652,2,3,3,3,-9.039999999999999,1.21,0.31,-4.4,-1.99,-4.79
19.37510406970978,2,3,3,3,-9.83,0.65,0.85,-1.34,-2.03,-4.15
19.39510405063629,2,3,3,3,-10.9,2.06,1.35,11.12,-2.52,-2.75
19.40510404109955,2,3,3,3,-10.81,2.78,0.65,13.9,-3.23,-2.33
19.41510403156281,2,3,3,3,-9.9,4.05,-0.07000000000000001,13.9,-3.23,-2.33
19.42510402202606,2,3,3,3,-9.619999999999999,4.36,-0.1,14.73,-3.49,-1.75
19.43510401248932,2,3,3,3,-9.300000000000001,4.53,0.07000000000000001,11.91,-3.67,-0.47
19.44510400295258,2,3,3,3,-8.91,4.83,0.33,9.539999999999999,-3.69,-0.14
19.45510399341583,2,3,3,3,-8.76,4.41,0.08,7.06,-4.3,-0.18
19.46510398387909,2,3,3,3,-8.51,3.71,0.09,7.06,-4.3,-0.18
19.47510397434235,2,3,3,3,-8.529999999999999,3.12,0.31,4.82,-4.66,-0.37
19.4851039648056,2,3,3,3,-8.15,2.53,0.43,3.37,-5.03,-0.87
