timestamp,magCalib,accCalib,gyrCalib,sysCalib,accX,accY,accZ,gyrX,gyrY,gyrZ
-0.00589597225189209,2,3,3,0,-11.23,2.07,1.48,26.19,1.18,0.45
0.004104018211364746,2,3,3,0,-11.34,2.16,1.41,24.53,-0.05,0.21
0.01410400867462158,2,3,3,0,-10.99,2.4,1.38,22.61,-1.41,-0.16
0.02410399913787842,2,3,3,0,-9.74,2.58,1.63,20.28,-2.58,-0.78
0.03410398960113525,2,3,3,0,-9.109999999999999,2.58,1.8,17.5,-3.5,-1.39
0.04410398006439209,2,3,3,0,-8.58,2.39,2.11,14.88,-3.85,-1.85
0.05410397052764893,2,3,3,0,-8.26,2,2.14,12.36,-3.85,-2.2
0.06410396099090576,2,3,3,0,-8.140000000000001,1.06,2.29,10.01,-3.65,-2.47
0.0741039514541626,2,3,3,0,-8.52,0.58,2.39,8.4,-3.44,-2.52
0.08410394191741943,2,3,3,0,-8.69,0.13,2.37,7.54,-3.25,-2.42
0.09410393238067627,2,3,3,0,-8.880000000000001,-0.31,2.45,7.26,-2.7,-2.32
0.1041039228439331,2,3,3,0,-9.619999999999999,-0.89,2.65,7.3,-1.93,-2.29
0.114104151725769,2,3,3,0,-9.92,-1.13,2.56,7.81,-1.66,-2.14
0.1241041421890259,2,3,3,0,-10.08,-1.42,2.55,8.880000000000001,-1.79,-2.07
0.1341041326522827,2,3,3,0,-9.640000000000001,-2.08,2.33,9.619999999999999,-1.82,-2.24
0.1441041231155396,2,3,3,0,-9.41,-2.18,2.01,10.17,-1.46,-2.59
0.1541041135787964,2,3,3,0,-9.25,-2.16,1.84,10.97,-0.88,-2.87
0.1641041040420532,2,3,3,0,-9.06,-2.12,2.02,11.86,-0.16,-3.3
0.1741040945053101,2,3,3,0,-9.109999999999999,-2.06,2.77,12.37,0.7,-3.75
0.1841040849685669,2,3,3,0,-9.140000000000001,-1.97,2.62,12.67,1.51,-4.02
0.1941040754318237,2,3,3,0,-9,-1.89,2.01,12.93,1.9,-4.07
0.2041040658950806,2,3,3,0,-8.91,-1.89,1.43,13.05,2.11,-4.03
0.2141040563583374,2,3,3,0,-8.800000000000001,-1.7,1.32,13.18,2.4,-3.92
0.2241040468215942,2,3,3,0,-8.73,-1.64,1.39,13.31,2.68,-3.64
0.2341040372848511,2,3,3,0,-8.529999999999999,-1.37,1.45,13.47,2.99,-3.23
0.2441040277481079,2,3,3,0,-8.720000000000001,-1.44,1.51,13.17,3.21,-2.84
0.2541040182113647,2,3,3,0,-8.34,-1.42,1.33,12.84,3.23,-2.6
0.2641040086746216,2,3,3,0,-8.699999999999999,-1.39,1.26,12.69,3.45,-2.4
0.2741039991378784,2,3,3,0,-8.73,-1.34,1.55,12.51,3.45,-2.1
0.2841039896011353,2,3,3,0,-8.970000000000001,-1.25,1.43,12.42,3.3,-1.67
0.2941039800643921,2,3,3,0,-8.93,-1.17,1.52,12.34,3.29,-1.28
0.3041039705276489,2,3,3,0,-9.09,-1.08,1.54,12.07,3.43,-0.92
0.3141039609909058,2,3,3,0,-9.140000000000001,-0.95,1.65,11.9,3.48,-0.6
0.3241039514541626,2,3,3,0,-9.41,-0.75,1.5,11.79,3.57,-0.38
0.3341039419174194,2,3,3,0,-9.52,-0.62,1.48,11.75,3.59,-0.27
0.3441039323806763,2,3,3,0,-9.48,-0.52,1.57,11.68,3.62,-0.3
0.3541039228439331,2,3,3,0,-9.44,-0.45,1.75,11.22,3.78,-0.43
0.364104151725769,2,3,3,0,-9.23,-0.25,2.03,10.71,3.98,-0.44
0.3741041421890259,2,3,3,0,-9.02,-0.23,1.71,10.28,4.15,-0.42
0.3841041326522827,2,3,3,0,-8.85,-0.17,1.47,9.779999999999999,4.48,-0.39
0.3941041231155396,2,3,3,0,-8.76,0,1.58,9.49,4.92,-0.23
0.4041041135787964,2,3,3,0,-8.84,0.22,1.71,9.06,5.18,0.04
0.4141041040420532,2,3,3,0,-9.029999999999999,0.35,1.9,8.44,5.33,0.3
0.4241040945053101,2,3,3,0,-9.31,0.34,2.35,7.62,5.33,0.57
0.4341040849685669,2,3,3,0,-9.529999999999999,0.26,2.58,6.44,4.78,0.82
0.4441040754318237,2,3,3,0,-9.19,0.2,1.57,4.67,4.31,0.85
0.4551039934158325,2,3,3,0,-9.300000000000001,0.18,1.42,3.57,4.48,0.9399999999999999
0.4651039838790894,2,3,3,0,-9.25,0.23,1.48,2.99,4.75,1.05
0.4751039743423462,2,3,3,0,-9.4,0.16,1.84,2.43,5.14,1.17
0.485103964805603,2,3,3,0,-9.35,0.05,2.45,1.71,5.15,1.37
0.4951039552688599,2,3,3,0,-9.31,-0.11,2.56,0.65,5.18,1.39
0.5051039457321167,2,3,3,0,-9.640000000000001,0.07000000000000001,1.92,-0.42,5.24,1.54
0.5151039361953735,2,3,3,0,-10.17,0.12,1.3,-0.54,4.92,1.96
0.5251039266586304,2,3,3,0,-10.38,0.14,0.8100000000000001,0.42,4.35,2.54
0.5351041555404663,2,3,3,0,-11.1,0.17,0.95,0.91,4.15,2.84
0.5451041460037231,2,3,3,0,-12.14,0.08,1.35,0.84,3.82,3.04
0.5651041269302368,2,3,3,0,-14.13,0.12,0.89,-0.99,1.48,2.77
0.5951040983200073,2,3,3,0,-10.03,-0.55,3.02,-3.78,-2.25,2.4
0.6051040887832642,2,3,3,0,-8.99,-0.43,2.41,-5.43,-2.15,2.04
0.6351040601730347,2,3,3,0,-8.289999999999999,0.15,1.74,-7,-0.5,0.59
0.6451040506362915,2,3,3,0,-8.94,0.06,1.36,-7.77,-0.31,0.32
0.6551040410995483,2,3,3,0,-9.300000000000001,0.21,-0.11,-8.51,-0.52,-0.12
0.6651040315628052,2,3,3,0,-9.74,0.02,-0.5600000000000001,-9.07,-0.42,-0.74
0.675104022026062,2,3,3,0,-10.28,-0.4,-0.74,-9.800000000000001,-0.28,-1.26
0.6851040124893188,2,3,3,0,-10.21,-0.77,-0.62,-10.21,-0.42,-1.57
0.6951040029525757,2,3,3,0,-10.05,-1.25,-0.33,-10.31,-0.58,-1.77
0.7051039934158325,2,3,3,0,-9.68,-1.91,-0.98,-10.14,-0.75,-1.87
0.7151039838790894,2,3,3,0,-9.4,-2.24,-0.65,-9.41,-0.77,-1.84
0.7251039743423462,2,3,3,0,-9.039999999999999,-2.32,-0.85,-8.4,-0.49,-1.77
0.735103964805603,2,3,3,0,-8.84,-2.27,-0.9399999999999999,-7.01,-0.12,-1.47
0.7451039552688599,2,3,3,0,-8.51,-2.09,-1.26,-5.43,0.46,-1.06
0.7551039457321167,2,3,3,0,-8.48,-1.98,-1.41,-3.85,0.98,-0.39
0.7651039361953735,2,3,3,0,-8.640000000000001,-1.94,-1.46,-2.4,1.36,0.3
0.7751039266586304,2,3,3,0,-9.02,-1.99,-1.46,-1.27,1.58,0.99
0.7851041555404663,2,3,3,0,-9.81,-2.31,-1.59,-0.39,1.72,1.51
0.7951041460037231,2,3,3,0,-10.08,-2.33,-1.73,0.2,1.68,1.95
0.80510413646698,2,3,3,0,-10.1,-2.32,-1.78,0.58,1.84,2.2
0.8151041269302368,2,3,3,0,-10.09,-2.21,-1.78,0.7,2.18,2.3
0.8251041173934937,2,3,3,0,-9.91,-1.68,-1.82,0.55,2.57,2.29
0.8351041078567505,2,3,3,0,-9.91,-1.45,-1.87,0.26,2.79,2.27
0.8451040983200073,2,3,3,0,-9.9,-1.35,-1.8,-0.01,3.05,2.1
0.8551040887832642,2,3,3,0,-9.949999999999999,-1.22,-1.74,-0.14,3.31,2.05
0.865104079246521,2,3,3,0,-9.93,-1.2,-1.36,-0.08,3.42,1.96
0.8751040697097778,2,3,3,0,-9.869999999999999,-1.08,-1.29,0.09,3.4,1.84
0.8851040601730347,2,3,3,0,-9.880000000000001,-0.99,-1.14,0.28,3.4,1.55
0.8951040506362915,2,3,3,0,-9.619999999999999,-1.15,-0.88,0.55,3.32,1.24
0.9051040410995483,2,3,3,0,-9.44,-1.24,-1.1,0.87,3.17,1.01
0.9151040315628052,2,3,3,0,-9.369999999999999,-1.3,-1.05,1.45,3.19,0.91
0.925104022026062,2,3,3,0,-9.58,-1.49,-0.91,2.06,3.07,0.9
0.9351040124893188,2,3,3,0,-9.75,-1.25,-1.07,2.62,2.88,0.99
0.9451040029525757,2,3,3,0,-9.98,-1.36,-1.21,2.99,2.64,1.18
0.9551039934158325,2,3,3,0,-10,-1.32,-1.04,3.62,2.25,1.35
0.9651039838790894,2,3,3,0,-9.99,-1.09,-0.87,4.41,1.98,1.64
0.9751039743423462,2,3,3,0,-10,-0.8100000000000001,-0.25,4.98,1.56,1.88
0.985103964805603,2,3,3,0,-9.800000000000001,-0.51,-0.25,5.36,1.25,2.01
0.9951039552688599,2,3,3,0,-9.91,-0.18,-0.28,5.54,0.92,2.06
1.005103945732117,2,3,3,0,-10,0.05,-0.31,5.53,0.53,1.97
1.015103936195374,2,3,3,0,-10.01,0.47,-0.45,5.06,0,1.68
1.02510392665863,2,3,3,0,-10.01,0.61,-0.28,4.25,-0.5,1.23
1.035104155540466,2,3,3,0,-10,0.72,-0.21,3.3,-0.88,0.64
1.045104146003723,2,3,3,0,-9.92,0.78,-0.23,2.17,-1.16,-0.01
1.05510413646698,2,3,3,0,-9.949999999999999,0.74,-0.47,1,-1.47,-0.49
1.065104126930237,2,3,3,0,-9.800000000000001,0.32,-0.41,-0.14,-1.7,-0.82
1.075104117393494,2,3,3,0,-9.710000000000001,-0.08,-0.15,-1.51,-1.78,-1.01
1.08510410785675,2,3,3,0,-9.539999999999999,-1.74,0.83,-2.87,-1.74,-1
1.095104098320007,2,3,3,0,-9.130000000000001,-1.94,0.29,-3.12,-1.45,-0.61
1.105104088783264,2,3,3,0,-9.09,-1.75,-0.34,-2.2,-0.72,0.06
1.115104079246521,2,3,3,0,-9.19,-1.66,-0.14,-0.79,0.14,0.5
1.125104069709778,2,3,3,0,-9.640000000000001,-1.42,-0.42,0.62,0.85,0.75
1.135104060173035,2,3,3,0,-9.94,-1.07,-0.97,1.48,1.48,0.95
1.145104050636292,2,3,3,0,-9.98,-0.95,-1.26,2.13,1.87,0.88
1.155104041099548,2,3,3,0,-10.11,-0.79,-1.61,2.55,2.12,0.5600000000000001
1.165104031562805,2,3,3,0,-9.18,-0.5600000000000001,-1.24,2.74,2.32,0.06
1.175104022026062,2,3,3,0,-9.029999999999999,-0.12,-1.31,3.11,2.71,-0.36
1.185104012489319,2,3,3,0,-9.199999999999999,-0.04,-1.33,3.25,2.83,-0.65
1.195104002952576,2,3,3,0,-9.58,-0.13,-1.16,2.61,2.6,-0.9
1.205103993415833,2,3,3,0,-9.84,-0.63,-1.18,1.63,1.96,-0.93
1.215103983879089,2,3,3,0,-9.83,-1.06,-0.89,0.98,1.2,-0.82
1.225103974342346,2,3,3,0,-9.890000000000001,-1.38,-0.8100000000000001,0.7,0.55,-0.6
1.236104130744934,2,3,3,0,-9.94,-1.62,-0.79,0.79,0.12,-0.47
1.24510395526886,2,3,3,0,-10.3,-1.88,-0.45,0.84,0.08,-0.51
1.255103945732117,2,3,3,0,-10.08,-1.87,-0.66,0.91,0.12,-0.54
1.295104146003723,2,3,3,0,-9.32,-1.48,-0.28,3.05,0.53,-0.85
1.30510413646698,2,3,3,0,-9.289999999999999,-1.45,-0.45,3.54,0.73,-0.89
1.315104126930237,2,3,3,0,-9.289999999999999,-1.19,-0.39,3.79,0.7,-0.79
1.325104117393494,2,3,3,0,-9.460000000000001,-1.17,-0.1,3.79,0.48,-0.57
1.33510410785675,2,3,3,0,-9.41,-1.14,-0.42,3.53,0.13,-0.28
1.345104098320007,2,3,3,0,-9.43,-1.2,-0.67,3.26,-0.14,0.01
1.356104016304016,2,3,3,0,-9.6,-1.25,-0.79,3.2,-0.22,0.3
1.365104079246521,2,3,3,0,-9.66,-1.23,-0.73,3.3,-0.22,0.59
1.375104069709778,2,3,3,0,-10.07,-1.3,-0.75,3.43,-0.13,0.8100000000000001
1.385104060173035,2,3,3,0,-10.15,-1.32,-0.72,3.85,-0.19,0.93
1.395104050636292,2,3,3,0,-10.24,-1.3,-0.71,4.37,0.03,0.98
1.405104041099548,2,3,3,0,-10.12,-1.26,-0.64,4.85,0.12,0.83
1.416103959083557,2,3,3,0,-9.220000000000001,-1.11,-0.38,5.33,0.68,0.62
1.425104022026062,2,3,3,0,-9.43,-1.1,-0.34,5.64,1.62,0.37
1.435104012489319,2,3,3,0,-9.9,-0.95,-0.41,5.9,1.54,0.22
1.445104002952576,2,3,3,0,-9.869999999999999,-0.9399999999999999,-0.4,5.88,1.07,0.1
1.455103993415833,2,3,3,0,-9.640000000000001,-0.75,-0.37,5.82,0.71,0.1
1.465103983879089,2,3,3,0,-9.619999999999999,-0.6899999999999999,-0.21,5.42,0.5600000000000001,0.02
1.476104140281677,2,3,3,0,-9.41,-0.46,-0.15,4.86,0.51,-0.04
1.486104130744934,2,3,3,0,-9.369999999999999,-0.38,-0.02,4.09,0.52,-0.05
1.496104121208191,2,3,3,0,-9.42,-0.4,0,3.29,0.49,0.1
1.506104111671448,2,3,3,0,-9.640000000000001,-0.57,-0.19,2.69,0.42,0.18
1.516104102134705,2,3,3,0,-9.779999999999999,-0.68,-0.21,2.12,0.39,0.2
1.526104092597961,2,3,3,0,-9.81,-0.8100000000000001,-0.2,1.81,0.37,0.25
1.536104083061218,2,3,3,0,-9.800000000000001,-0.98,-0.12,1.58,0.33,0.23
1.546104073524475,2,3,3,0,-9.640000000000001,-1.13,-0.3,1.46,0.45,0.1
1.556104063987732,2,3,3,0,-9.59,-1.26,-0.35,1.39,0.6,-0.04
1.566104054450989,2,3,3,0,-9.57,-1.37,-0.3,1.51,0.65,-0.08
1.576104044914246,2,3,3,0,-9.630000000000001,-1.37,-0.26,1.65,0.74,-0.13
1.586104035377502,2,3,3,0,-9.779999999999999,-1.31,-0.43,1.78,0.64,-0.13
1.596104025840759,2,3,3,0,-9.83,-1.26,-0.45,1.79,0.41,-0.1
1.606104016304016,2,3,3,0,-9.85,-1.23,-0.46,1.65,0.2,-0.06
1.616104006767273,2,3,3,0,-9.779999999999999,-1.18,-0.39,1.43,-0.01,-0.03
1.62610399723053,2,3,3,0,-9.619999999999999,-1.12,-0.29,1.1,-0.14,0.04
1.636103987693787,2,3,3,0,-9.59,-1.12,-0.24,0.76,-0.2,0.14
1.646103978157043,2,3,3,0,-9.59,-1.15,-0.19,0.46,-0.24,0.21
1.6561039686203,2,3,3,0,-9.59,-1.24,-0.33,0.21,-0.31,0.36
1.666103959083557,2,3,3,0,-9.630000000000001,-1.16,-0.22,-0.01,-0.32,0.44
1.676103949546814,2,3,3,0,-9.66,-1.14,-0.16,-0.13,-0.3,0.47
1.686103940010071,2,3,3,0,-9.720000000000001,-1.06,-0.1,-0.13,-0.22,0.47
1.696103930473328,2,3,3,0,-9.699999999999999,-0.95,-0.11,-0.18,-0.12,0.39
1.706103920936584,2,3,3,0,-9.68,-1.02,-0.18,-0.19,-0.13,0.35
1.71610414981842,2,3,3,0,-9.75,-0.99,-0.16,-0.32,-0.16,0.27
1.726104140281677,2,3,3,0,-9.800000000000001,-1.01,-0.25,-0.31,-0.13,0.12
1.736104130744934,2,3,3,0,-9.890000000000001,-1.34,-0.51,-0.14,-0.19,0.03
1.746104121208191,2,3,3,0,-9.970000000000001,-1.77,-0.87,0.34,-0.21,-0.11
1.756104111671448,2,3,3,0,-9.66,-1.44,-0.48,1.06,-0.01,-0.29
1.766104102134705,2,3,3,0,-9.48,-0.31,0.15,0.39,0.14,-0.14
1.776104092597961,2,3,3,0,-9.48,-0.8,-0.27,-0.29,0.18,-0.22
1.786104083061218,2,3,3,0,-9.48,-0.8,-0.27,-0.55,-0.03,-0.32
1.796104073524475,2,3,3,0,-9.539999999999999,-0.88,-0.25,-0.9399999999999999,0.06,-0.54
1.836104035377502,2,3,3,1,-9.75,-1.18,-0.41,-1.08,-0.03,-0.68
1.846104025840759,2,3,3,1,-9.75,-1.22,-0.33,-0.92,-0.08,-0.62
1.856104016304016,2,3,3,1,-9.73,-1.15,-0.42,-0.75,-0.17,-0.5
1.866104006767273,2,3,3,1,-9.710000000000001,-1.04,-0.29,-0.74,-0.2,-0.44
1.87610399723053,2,3,3,1,-9.68,-0.97,-0.2,-0.72,-0.26,-0.35
1.886103987693787,2,3,3,1,-9.630000000000001,-1.09,-0.21,-0.8100000000000001,-0.34,-0.29
1.896103978157043,2,3,3,1,-9.6,-1.15,-0.28,-0.85,-0.45,-0.25
1.9061039686203,2,3,3,1,-9.640000000000001,-1.22,-0.43,-0.8100000000000001,-0.59,-0.24
1.916103959083557,2,3,3,1,-9.59,-1.25,-0.38,-0.72,-0.65,-0.24
1.926103949546814,2,3,3,1,-9.68,-1.3,-0.32,-0.61,-0.5600000000000001,-0.18
1.936103940010071,2,3,3,1,-9.68,-1.3,-0.32,-0.46,-0.49,-0.21
1.946103930473328,2,3,3,1,-9.74,-1.37,-0.29,-0.41,-0.36,-0.32
1.956103920936584,2,3,3,1,-9.640000000000001,-1.46,-0.28,-0.26,-0.14,-0.41
1.96610414981842,2,3,3,1,-9.76,-1.34,-0.29,-0.16,0.01,-0.5
1.976104140281677,2,3,3,1,-9.800000000000001,-1.46,-0.21,-0.08,0.1,-0.54
1.986104130744934,2,3,3,1,-9.800000000000001,-1.48,-0.16,0.13,0.2,-0.55
1.996104121208191,2,3,3,1,-9.789999999999999,-1.41,-0.2,0.37,0.23,-0.48
2.006104111671448,2,3,3,1,-9.859999999999999,-1.18,-0.37,0.58,0.17,-0.44
2.016104102134705,2,3,3,1,-9.789999999999999,-1.14,-0.22,0.65,0.15,-0.44
2.026104092597961,2,3,3,1,-9.710000000000001,-1.19,-0.2,0.78,0.14,-0.39
2.036104083061218,2,3,3,1,-9.51,-0.89,-0.15,0.77,0.26,-0.38
2.046104073524475,2,3,3,1,-9.65,-0.83,-0.15,0.49,0.41,-0.37
2.056104063987732,2,3,3,1,-9.52,-1.16,-0.2,0.21,0.38,-0.48
2.066104054450989,2,3,3,1,-9.51,-1.17,-0.27,0,0.37,-0.55
2.076104044914246,2,3,3,1,-9.84,-0.98,-0.3,-0.23,0.47,-0.6
2.086104035377502,2,3,3,1,-9.84,-0.98,-0.3,-0.49,0.43,-0.6899999999999999
2.096104025840759,2,3,3,1,-9.51,-1.18,-0.15,-0.5600000000000001,0.67,-0.67
2.106104016304016,2,3,3,1,-9.52,-0.95,-0.38,-0.66,0.8,-0.64
2.116104006767273,2,3,3,1,-9.74,-1.54,-0.4,-0.6899999999999999,0.73,-0.61
2.12610399723053,2,3,3,1,-9.57,-1.43,-0.45,-0.57,0.65,-0.54
2.136103987693787,2,3,3,1,-9.77,-1.21,-0.48,-0.7,0.68,-0.5600000000000001
2.146103978157043,2,3,3,1,-9.91,-1.32,-0.48,-0.8100000000000001,0.55,-0.64
2.1561039686203,2,3,3,1,-9.67,-1.37,-0.43,-0.76,0.53,-0.43
2.166103959083557,2,3,3,1,-10.03,-1.71,-0.55,-0.75,0.4,-0.35
2.176103949546814,2,3,3,1,-9.32,-1.68,-0.38,-0.58,0,-0.24
2.186103940010071,2,3,3,1,-9.539999999999999,-1.25,-0.29,-0.84,0.01,-0.18
2.196103930473328,2,3,3,1,-9.65,-1.52,-0.48,-1.08,0.01,-0.32
2.206103920936584,2,3,3,1,-9.67,-1.65,-0.66,-0.82,-0.01,-0.3
2.21610414981842,2,3,3,1,-9.66,-1.65,-0.58,-0.51,0.03,-0.22
2.226104140281677,2,3,3,1,-9.68,-1.39,-0.55,-0.37,0.07000000000000001,-0.13
2.236104130744934,2,3,3,2,-9.65,-1.4,-0.4,-0.21,0.15,-0.09
2.246104121208191,2,3,3,2,-9.65,-1.4,-0.4,-0.21,0.15,-0.09
2.256104111671448,2,3,3,2,-9.619999999999999,-1.58,-0.52,-0.2,-0.09,-0.07000000000000001
2.266104102134705,2,3,3,2,-9.630000000000001,-1.39,-0.42,-0.18,-0.02,-0.08
2.276104092597961,2,3,3,2,-9.76,-1.42,-0.29,-0.27,-0.05,-0.13
2.286104083061218,2,3,3,2,-9.76,-1.42,-0.29,-0.33,-0.15,-0.18
2.296104073524475,2,3,3,2,-9.640000000000001,-1.43,-0.27,-0.33,-0.06,-0.21
2.306104063987732,2,3,3,2,-9.640000000000001,-1.37,-0.45,-0.44,-0.11,-0.25
2.316104054450989,2,3,3,2,-9.640000000000001,-1.36,-0.36,-0.34,-0.09,-0.17
2.326104044914246,2,3,3,2,-9.630000000000001,-1.4,-0.27,-0.41,-0.08,-0.1
2.336104035377502,2,3,3,2,-9.630000000000001,-1.4,-0.27,-0.53,-0.06,-0.06
2.346104025840759,2,3,3,2,-9.539999999999999,-1.29,-0.28,-0.6899999999999999,-0.24,0.05
2.356104016304016,2,3,3,2,-9.550000000000001,-1.49,-0.43,-0.84,-0.24,0.14
2.366104006767273,2,3,3,2,-9.550000000000001,-1.61,-0.28,-0.88,-0.2,0.27
2.37610399723053,2,3,3,2,-9.640000000000001,-1.81,-0.47,-0.79,-0.21,0.42
2.386103987693787,2,3,3,2,-9.640000000000001,-1.81,-0.47,-0.7,-0.21,0.54
2.396103978157043,2,3,3,2,-9.619999999999999,-1.84,-0.34,-0.63,-0.13,0.58
2.4061039686203,2,3,3,2,-9.51,-1.59,-0.45,-0.48,-0.03,0.67
2.416103959083557,2,3,3,2,-9.59,-1.33,-0.35,-0.62,0.06,0.75
2.426103949546814,2,3,3,2,-10.27,-1.13,-0.55,-0.62,0.31,0.57
2.436103940010071,2,3,3,2,-10.41,-1.21,-0.59,-0.1,0.11,0.27
2.446103930473328,2,3,3,2,-10.41,-1.21,-0.59,0.04,-0.16,-0.04
2.456103920936584,2,3,3,2,-9.109999999999999,-2.14,-0.42,-0.5,-0.26,0.01
2.467104077339172,2,3,3,2,-9.289999999999999,-1.53,-0.32,-0.46,-0.05,-0.08
2.476104140281677,2,3,3,2,-9.23,-1.54,-0.14,-0.33,-0.15,0.16
2.486104130744934,2,3,3,2,-9.23,-1.54,-0.14,-0.14,-0.21,0.36
2.496104121208191,2,3,3,2,-9.23,-1.55,-0.27,0.14,-0.09,0.42
2.5071040391922,2,3,3,2,-9.73,-1.39,-0.41,0.34,-0.1,0.47
2.517104029655457,2,3,3,2,-9.76,-1.38,-0.36,0.47,-0.12,0.47
2.527104020118713,2,3,3,2,-9.77,-1.34,-0.35,0.53,-0.13,0.39
2.53710401058197,2,3,3,2,-9.77,-1.34,-0.35,0.6,-0.13,0.33
2.547104001045227,2,3,3,2,-9.76,-1.23,-0.34,0.6,-0.13,0.33
2.557103991508484,2,3,3,2,-9.710000000000001,-1.08,-0.41,0.87,-0.25,0.38
2.567103981971741,2,3,3,2,-9.640000000000001,-1,-0.37,1.02,-0.24,0.42
2.577103972434998,2,3,3,2,-9.699999999999999,-0.87,-0.33,1.16,-0.29,0.54
2.587103962898254,2,3,3,2,-9.699999999999999,-0.87,-0.33,1.16,-0.29,0.54
2.597103953361511,2,3,3,2,-9.74,-0.82,-0.24,1.28,-0.41,0.71
2.607103943824768,2,3,3,2,-9.76,-0.73,-0.23,1.25,-0.65,0.92
2.617103934288025,2,3,3,2,-9.699999999999999,-0.6899999999999999,-0.09,1.05,-0.62,0.91
2.627103924751282,2,3,3,2,-9.68,-0.66,-0.1,0.83,-0.49,0.86
2.637104153633118,2,3,3,2,-9.68,-0.66,-0.1,0.83,-0.49,0.86
2.647104144096375,2,3,3,2,-9.66,-0.63,-0.11,0.64,-0.37,0.77
2.657104134559631,2,3,3,2,-9.640000000000001,-0.58,-0.23,0.35,-0.31,0.51
2.667104125022888,2,3,3,2,-9.66,-0.53,-0.18,0.33,-0.4,0.45
2.677104115486145,2,3,3,2,-9.699999999999999,-0.54,-0.12,0.33,-0.54,0.35
2.687104105949402,2,3,3,2,-9.699999999999999,-0.54,-0.12,0.33,-0.54,0.35
2.697104096412659,2,3,3,2,-9.75,-0.66,-0.1,0.29,-0.49,0.22
2.707104086875916,2,3,3,2,-9.83,-0.83,-0.28,0.15,-0.27,-0.17
2.717104077339172,2,3,3,2,-9.84,-0.92,-0.24,0.12,-0.11,-0.31
2.727104067802429,2,3,3,2,-9.699999999999999,-1.07,-0.16,0.02,-0.07000000000000001,-0.4
2.737104058265686,2,3,3,2,-9.699999999999999,-1.07,-0.16,0.02,-0.07000000000000001,-0.4
2.747104048728943,2,3,3,2,-9.640000000000001,-1.09,-0.17,-0.15,-0.05,-0.44
2.7571040391922,2,3,3,2,-9.539999999999999,-1.19,-0.3,-0.25,0.06,-0.41
2.767104029655457,2,3,3,2,-9.5,-1.21,-0.34,-0.26,0.09,-0.31
2.777104020118713,2,3,3,2,-9.5,-1.21,-0.34,-0.15,0,-0.16
2.78710401058197,2,3,3,2,-9.56,-1.23,-0.36,0.05,-0.05,-0.04
2.797104001045227,2,3,3,2,-9.609999999999999,-1.26,-0.32,0.24,-0.14,0.06
2.807103991508484,2,3,3,2,-9.67,-1.29,-0.3,0.42,-0.23,0.15
2.817103981971741,2,3,3,2,-9.699999999999999,-1.3,-0.39,0.63,-0.24,0.31
2.827103972434998,2,3,3,2,-9.699999999999999,-1.34,-0.37,0.79,-0.27,0.39
2.837103962898254,2,3,3,2,-9.69,-1.3,-0.32,0.79,-0.27,0.39
2.847103953361511,2,3,3,2,-9.619999999999999,-1.29,-0.21,1.23,-0.06,0.42
2.857103943824768,2,3,3,2,-9.58,-1.19,-0.21,1.38,0.09,0.38
2.867103934288025,2,3,3,2,-9.609999999999999,-1.07,-0.31,1.49,0.16,0.35
2.877103924751282,2,3,3,2,-9.640000000000001,-0.97,-0.25,1.42,0.18,0.27
2.887104153633118,2,3,3,2,-9.67,-0.86,-0.16,1.42,0.18,0.27
2.897104144096375,2,3,3,2,-9.69,-0.84,-0.06,1.34,0.17,0.22
2.907104134559631,2,3,3,2,-9.65,-0.86,-0.04,1,-0.01,0.35
2.917104125022888,2,3,3,2,-9.67,-0.8,-0.16,0.96,-0.14,0.49
2.927104115486145,2,3,3,2,-9.789999999999999,-0.66,-0.23,0.91,-0.13,0.53
2.937104105949402,2,3,3,2,-9.880000000000001,-0.55,-0.17,0.91,-0.13,0.53
2.947104096412659,2,3,3,2,-9.85,-0.49,-0.15,0.8100000000000001,-0.18,0.48
2.957104086875916,2,3,3,2,-9.81,-0.47,-0.04,0.59,-0.35,0.37
2.967104077339172,2,3,3,2,-9.779999999999999,-0.36,-0.16,0.7,-0.28,0.22
2.977104067802429,2,3,3,2,-9.859999999999999,-0.42,-0.16,0.72,-0.04,-0.14
2.987104058265686,2,3,3,2,-9.92,-0.45,-0.18,0.72,-0.04,-0.14
2.997104048728943,2,3,3,2,-9.9,-0.49,-0.19,0.59,0.15,-0.54
3.0071040391922,2,3,3,2,-9.720000000000001,-0.67,-0.02,0.23,0.38,-0.95
3.017104029655457,2,3,3,2,-9.619999999999999,-0.76,-0.1,0.03,0.52,-1.01
3.027104020118713,2,3,3,2,-9.57,-0.84,-0.07000000000000001,-0.15,0.72,-1.04
3.03710401058197,2,3,3,2,-9.57,-0.89,-0.07000000000000001,-0.15,0.72,-1.04
3.047104001045227,2,3,3,2,-9.51,-0.9,-0.14,-0.27,0.8,-1
3.057103991508484,2,3,3,2,-9.56,-0.93,-0.15,-0.63,0.8100000000000001,-0.87
3.067103981971741,2,3,3,2,-9.529999999999999,-0.97,-0.28,-0.84,0.67,-0.75
3.077103972434998,2,3,3,2,-9.640000000000001,-1.08,-0.3,-0.98,0.53,-0.63
3.087103962898254,2,3,3,2,-9.65,-1.18,-0.3,-0.98,0.53,-0.63
3.097103953361511,2,3,3,2,-9.69,-1.23,-0.28,-1.22,0.37,-0.49
3.107103943824768,2,3,3,2,-9.720000000000001,-1.24,-0.25,-1.26,0.2,-0.19
3.117103934288025,2,3,3,2,-9.68,-1.24,-0.43,-1.26,0.18,-0.18
3.127103924751282,2,3,3,2,-9.66,-1.26,-0.41,-1.37,0.21,-0.23
3.137104153633118,2,3,3,2,-9.640000000000001,-1.27,-0.28,-1.37,0.21,-0.23
3.147104144096375,2,3,3,2,-9.69,-1.24,-0.1,-1.41,0.23,-0.25
3.157104134559631,2,3,3,2,-9.67,-1.28,-0.4,-1.22,0.08,-0.39
3.167104125022888,2,3,3,2,-9.67,-1.34,-0.57,-1.21,0.09,-0.54
3.177104115486145,2,3,3,2,-9.65,-1.4,-0.46,-1.16,0.12,-0.5600000000000001
3.187104105949402,2,3,3,2,-9.68,-1.44,-0.24,-1.16,0.12,-0.5600000000000001
3.197104096412659,2,3,3,2,-9.58,-1.5,-0.35,-1.01,0.13,-0.54
3.207104086875916,2,3,3,2,-9.59,-1.57,-0.43,-0.6899999999999999,0.11,-0.48
3.217104077339172,2,3,3,2,-9.59,-1.54,-0.61,-0.43,0.24,-0.45
3.227104067802429,2,3,3,2,-9.640000000000001,-1.55,-0.62,-0.22,0.23,-0.38
3.237104058265686,2,3,3,2,-9.640000000000001,-1.58,-0.63,-0.22,0.23,-0.38
3.247104048728943,2,3,3,2,-9.68,-1.56,-0.6,-0.11,0.14,-0.35
3.2571040391922,2,3,3,2,-9.67,-1.56,-0.6,0.08,0.17,-0.3
3.267104029655457,2,3,3,2,-9.630000000000001,-1.56,-0.66,0.09,0.14,-0.23
3.277104020118713,2,3,3,2,-9.640000000000001,-1.57,-0.57,0.08,0.18,-0.18
3.28710401058197,2,3,3,2,-9.630000000000001,-1.57,-0.46,0.08,0.18,-0.18
3.297104001045227,2,3,3,2,-9.640000000000001,-1.58,-0.34,-0.02,0.31,-0.21
3.307103991508484,2,3,3,2,-9.68,-1.54,-0.51,-0.02,0.4,-0.2
3.317103981971741,2,3,3,2,-9.699999999999999,-1.56,-0.67,0.01,0.31,-0.24
3.327103972434998,2,3,3,2,-9.73,-1.53,-0.68,0.23,0.29,-0.25
3.337103962898254,2,3,3,2,-9.74,-1.54,-0.61,0.23,0.29,-0.25
3.347103953361511,2,3,3,2,-9.640000000000001,-1.54,-0.4,0.43,0.25,-0.26
3.357103943824768,2,3,3,2,-9.57,-1.55,-0.42,0.6,0.17,-0.25
3.367103934288025,2,3,3,2,-9.56,-1.58,-0.51,0.62,0.2,-0.24
3.377103924751282,2,3,3,2,-9.52,-1.58,-0.47,0.55,0.2,-0.16
3.387104153633118,2,3,3,2,-9.5,-1.54,-0.43,0.55,0.2,-0.16
3.397104144096375,2,3,3,2,-9.550000000000001,-1.52,-0.49,0.43,0.26,-0.11
3.407104134559631,2,3,3,2,-9.619999999999999,-1.49,-0.51,0.15,0.13,-0.03
3.417104125022888,2,3,3,2,-9.65,-1.48,-0.59,0.1,0.06,0.01
3.427104115486145,2,3,3,2,-9.720000000000001,-1.43,-0.55,-0.05,-0.01,0
3.437104105949402,2,3,3,2,-9.73,-1.41,-0.43,-0.05,-0.01,0
3.447104096412659,2,3,3,2,-9.68,-1.37,-0.37,-0.2,-0.04,-0.01
3.457104086875916,2,3,3,2,-9.640000000000001,-1.36,-0.42,-0.32,-0.04,-0.03
3.467104077339172,2,3,3,2,-9.66,-1.37,-0.51,-0.37,-0.06,-0.03
3.477104067802429,2,3,3,2,-9.640000000000001,-1.35,-0.55,-0.31,-0.11,-0.01
3.488103985786438,2,3,3,2,-9.640000000000001,-1.39,-0.61,-0.31,-0.11,-0.01
3.497104048728943,2,3,3,2,-9.710000000000001,-1.41,-0.53,-0.26,-0.16,-0.03
3.5071040391922,2,3,3,2,-9.69,-1.42,-0.52,-0.12,-0.18,0.11
3.517104029655457,2,3,3,2,-9.66,-1.34,-0.54,-0.01,-0.14,0.16
3.528103947639465,2,3,3,2,-9.630000000000001,-1.33,-0.48,-0.02,-0.1,0.19
3.538103938102722,2,3,3,2,-9.640000000000001,-1.27,-0.44,-0.02,-0.1,0.19
3.548103928565979,2,3,3,2,-9.609999999999999,-1.24,-0.41,-0.06,0,0.16
3.558104157447815,2,3,3,2,-9.6,-1.26,-0.4,-0.09,0.1,0.12
3.568104147911072,2,3,3,2,-9.640000000000001,-1.25,-0.47,-0.17,0.08,0.1
3.578104138374329,2,3,3,2,-9.640000000000001,-1.26,-0.53,-0.23,-0.05,0.09
3.588104128837585,2,3,3,2,-9.640000000000001,-1.25,-0.53,-0.23,-0.05,0.09
3.598104119300842,2,3,3,2,-9.640000000000001,-1.28,-0.55,-0.15,-0.12,0.11
3.608104109764099,2,3,3,2,-9.619999999999999,-1.26,-0.52,-0.19,-0.14,0.15
3.618104100227356,2,3,3,2,-9.619999999999999,-1.27,-0.48,-0.19,-0.12,0.19
3.628104090690613,2,3,3,2,-9.58,-1.22,-0.49,-0.25,-0.21,0.23
3.63810408115387,2,3,3,2,-9.58,-1.19,-0.52,-0.25,-0.21,0.23
3.648104071617126,2,3,3,2,-9.6,-1.17,-0.57,-0.28,-0.33,0.25
3.658104062080383,2,3,3,2,-9.66,-1.2,-0.59,-0.22,-0.32,0.31
3.66810405254364,2,3,3,2,-9.69,-1.19,-0.62,-0.02,-0.25,0.53
3.678104043006897,2,3,3,2,-9.76,-1.17,-0.49,0.07000000000000001,-0.23,0.5600000000000001
3.688104033470154,2,3,3,2,-9.77,-1.09,-0.44,0.07000000000000001,-0.23,0.5600000000000001
3.698104023933411,2,3,3,2,-9.75,-1.05,-0.41,0.18,-0.22,0.57
3.708104014396667,2,3,3,2,-9.69,-1.01,-0.43,0.42,-0.01,0.34
3.718104004859924,2,3,3,2,-9.66,-0.98,-0.48,0.5,0.05,0.26
3.728103995323181,2,3,3,2,-9.640000000000001,-1,-0.42,0.5600000000000001,0.13,0.17
3.738103985786438,2,3,3,2,-9.65,-0.97,-0.46,0.5600000000000001,0.13,0.17
3.748103976249695,2,3,3,2,-9.66,-1.01,-0.47,0.5600000000000001,0.14,0.05
3.758103966712952,2,3,3,2,-9.67,-0.98,-0.45,0.57,0.16,-0.03
3.768103957176208,2,3,3,2,-9.73,-0.96,-0.45,0.31,-0.04,-0.15
3.778103947639465,2,3,3,2,-9.699999999999999,-1.01,-0.31,0.18,-0.1,-0.2
3.788103938102722,2,3,3,2,-9.69,-1.07,-0.26,0.18,-0.1,-0.2
3.798103928565979,2,3,3,2,-9.619999999999999,-1.15,-0.31,0.06,-0.13,-0.24
3.808104157447815,2,3,3,2,-9.529999999999999,-1.19,-0.43,-0.07000000000000001,-0.2,-0.21
3.818104147911072,2,3,3,2,-9.49,-1.22,-0.48,-0.2,-0.2,-0.18
3.828104138374329,2,3,3,2,-9.42,-1.26,-0.43,-0.38,-0.17,-0.18
3.838104128837585,2,3,3,2,-9.380000000000001,-1.28,-0.38,-0.38,-0.17,-0.18
3.848104119300842,2,3,3,2,-9.44,-1.35,-0.29,-0.53,-0.16,-0.22
3.858104109764099,2,3,3,2,-9.4,-1.51,-0.25,-0.64,-0.14,-0.29
3.868104100227356,2,3,3,2,-9.279999999999999,-1.55,-0.44,-0.42,0.29,-0.38
3.878104090690613,2,3,3,2,-9.34,-1.63,-0.25,-0.3,0.46,-0.35
3.88810408115387,2,3,3,2,-9.5,-1.55,-0.3,-0.3,0.46,-0.35
3.898104071617126,2,3,3,3,-9.77,-1.46,-0.27,-0.3,0.51,-0.29
3.908104062080383,2,3,3,3,-10.03,-1.37,-0.36,0.22,0.13,-0.02
3.91810405254364,2,3,3,3,-10.19,-1.3,-0.75,0.27,-0.1,0.02
3.928104043006897,2,3,3,3,-10.06,-1.28,-0.65,0.18,-0.13,0.06
3.938104033470154,2,3,3,3,-9.9,-1.22,-0.51,0.18,-0.13,0.06
3.948104023933411,2,3,3,3,-9.710000000000001,-1.24,-0.36,-0.13,0.16,0.08
3.958104014396667,2,3,3,3,-9.49,-1.3,-0.47,-0.13,0.16,0.08
3.968104004859924,2,3,3,3,-9.43,-1.35,-0.6,-0.24,0.48,-0.04
3.978103995323181,2,3,3,3,-9.4,-1.43,-0.65,-0.24,0.48,-0.04
3.988103985786438,2,3,3,3,-9.31,-1.47,-0.66,-0.17,0.61,-0.12
3.998103976249695,2,3,3,3,-9.19,-1.43,-0.48,0.08,0.67,-0.16
4.008103966712952,2,3,3,3,-9.27,-1.36,-0.01,0.42,0.58,-0.09
4.018103957176208,2,3,3,3,-9.44,-1.3,0.2,0.62,0.35,0.11
4.028103947639465,2,3,3,3,-9.56,-1.37,-0.14,0.8,0.01,0.31
4.038103938102722,2,3,3,3,-9.92,-1.56,-0.5600000000000001,0.66,-0.28,0.37
4.048103928565979,2,3,3,3,-9.98,-1.5,-0.66,0.32,-0.59,0.37
4.058104157447815,2,3,3,3,-9.800000000000001,-1.39,-0.61,0.33,-0.75,0.5600000000000001
4.068104147911072,2,3,3,3,-9.609999999999999,-1.31,-0.61,0.38,-0.88,0.93
4.078104138374329,2,3,3,3,-9.449999999999999,-0.58,-0.87,1.03,-1.71,1.88
4.088104128837585,2,3,3,3,-9.57,-0.53,-0.92,2.28,-2.17,2.45
4.098104119300842,2,3,3,3,-9.9,-0.44,-0.6,2.67,-1.68,2.07
4.108104109764099,2,3,3,3,-10.38,-0.06,0.19,2.14,-1.22,1.39
4.118104100227356,2,3,3,3,-10.35,-0.16,0.29,1.26,-1.17,0.99
4.128104090690613,2,3,3,3,-10.38,-0.43,0.35,0.33,-1.31,0.83
4.13810408115387,2,3,3,3,-10.32,-0.7,0.28,-0.05,-1.19,0.76
4.148104071617126,2,3,3,3,-9.949999999999999,-0.9,0.2,0.08,-0.74,0.73
4.158104062080383,2,3,3,3,-9.84,-0.75,0.25,0.2,-0.29,0.71
4.16810405254364,2,3,3,3,-9.76,-0.59,0.21,0.11,0.12,0.53
4.178104043006897,2,3,3,3,-9.76,-0.58,0.19,0.02,0.52,0.27
4.188104033470154,2,3,3,3,-9.869999999999999,-0.77,0.19,-0.09,0.7,0.06
4.198104023933411,2,3,3,3,-9.880000000000001,-0.83,-0.03,0.01,0.63,0.09
4.208104014396667,2,3,3,3,-9.85,-0.9,-0.27,0.2,0.6,0.14
4.218104004859924,2,3,3,3,-9.869999999999999,-0.9,-0.44,0.3,0.63,0.19
4.228103995323181,2,3,3,3,-9.83,-1.05,-0.44,0.35,0.82,0.12
4.238103985786438,2,3,3,3,-9.9,-1.08,-0.48,0.17,0.88,0.08
4.248103976249695,2,3,3,3,-9.869999999999999,-1.16,-0.48,0.07000000000000001,0.88,0.02
4.258103966712952,2,3,3,3,-9.710000000000001,-1.18,-0.4,0.04,0.8100000000000001,-0.11
4.268103957176208,2,3,3,3,-9.48,-1.31,-0.71,0.01,0.8,-0.28
4.278103947639465,2,3,3,3,-9.44,-1.42,-0.7,-0.1,0.83,-0.47
4.288103938102722,2,3,3,3,-9.41,-1.51,-0.62,-0.24,0.88,-0.63
4.298103928565979,2,3,3,3,-8.949999999999999,-1.47,-0.39,-0.19,0.9,-0.68
4.308104157447815,2,3,3,3,-10.15,-1.65,-0.99,-0.03,0.89,-0.64
4.318104147911072,2,3,3,3,-9.69,-1.53,-1.06,-0.15,0.5,-0.51
4.328104138374329,2,3,3,3,-9.92,-1.72,-0.83,-0.15,-0.02,-0.33
4.338104128837585,2,3,3,3,-9.199999999999999,-2.06,-0.42,0.22,-0.33,-0.24
4.348104119300842,2,3,3,3,-9.25,-1.58,-0.61,0.57,-0.13,-0.14
4.358104109764099,2,3,3,3,-9.300000000000001,-1.33,-0.64,0.6899999999999999,0.02,-0.11
4.368104100227356,2,3,3,3,-9.25,-1.23,-0.55,0.54,0.13,-0.17
4.378104090690613,2,3,3,3,-9.300000000000001,-1.17,-0.26,0.22,0.14,-0.31
4.38810408115387,2,3,3,3,-9.460000000000001,-1.38,-0.28,-0.08,0.02,-0.43
4.398104071617126,2,3,3,3,-9.58,-1.35,-0.42,-0.39,-0.02,-0.5
4.408104062080383,2,3,3,3,-9.85,-1.33,-0.42,-0.86,-0.2,-0.65
4.41810405254364,2,3,3,3,-10.14,-1.71,-0.35,-1.15,-0.35,-0.7
4.428104043006897,2,3,3,3,-9.300000000000001,-2.77,-2.6,-2.38,-0.2,-1.36
4.438104033470154,2,3,3,3,-9.83,-1.16,1.09,-1.92,1.64,-0.63
4.448104023933411,2,3,3,3,-10.24,-2.11,0.39,-2.65,0.02,-0.51
4.458104014396667,2,3,3,3,-8.859999999999999,-1.73,0.41,0.79,-1.89,0.04
4.468104004859924,2,3,3,3,-9.51,-1.75,-0.27,-0.3,-0.5,-0.26
4.478103995323181,2,3,3,3,-8.970000000000001,-1.55,-0.51,-1.18,0.24,-0.59
4.498103976249695,2,3,3,3,-9.380000000000001,-1.76,-0.01,-0.12,0.43,-0.76
4.508103966712952,2,3,3,3,-9.300000000000001,-1.35,0.15,-0.44,-0.11,-0.66
4.518103957176208,2,3,3,3,-10.44,-1.82,-1.87,0.44,-0.43,-0.68
4.528103947639465,2,3,3,3,-9.77,-1.71,-0.28,0.39,-0.37,-0.73
4.538103938102722,2,3,3,3,-9.5,-1.52,-0.67,0.13,-0.5,-0.62
4.548103928565979,2,3,3,3,-9.470000000000001,-1.72,-0.55,0.65,-0.12,-0.57
4.559104084968567,2,3,3,3,-9.210000000000001,-1.74,-0.33,0.58,0.4,-0.48
4.569104075431824,2,3,3,3,-9.359999999999999,-1.6,-0.72,0.65,0.96,-0.31
4.579104065895081,2,3,3,3,-9.56,-1.59,-0.68,0.82,1.32,-0.12
4.589104056358337,2,3,3,3,-9.82,-1.57,-0.62,0.9399999999999999,1.45,0.07000000000000001
4.599104046821594,2,3,3,3,-10.16,-1.51,-0.36,1.14,1.26,0.16
4.609104037284851,2,3,3,3,-10.17,-1.59,-0.78,1.6,0.87,0.28
4.619104027748108,2,3,3,3,-10.16,-1.55,-0.46,1.83,0.28,0.44
4.629104018211365,2,3,3,3,-10.11,-1.25,-0.8100000000000001,1.6,-0.39,0.5
4.639104008674622,2,3,3,3,-9.66,-1.32,-0.7,1.65,-0.42,0.47
4.649103999137878,2,3,3,3,-9.16,-1.31,-0.36,1.19,-0.58,0.42
4.659103989601135,2,3,3,3,-9.82,-1.07,-0.75,1.03,-0.54,0.37
4.669103980064392,2,3,3,3,-9.76,-1.07,-0.68,1.64,-1.19,0.43
4.679103970527649,2,3,3,3,-9.44,-1.19,-0.77,1.61,-0.58,0.33
4.689103960990906,2,3,3,3,-9.52,-1.34,-1.06,1.44,0.72,0.1
4.699103951454163,2,3,3,3,-9.49,-0.8100000000000001,0.42,1.66,0.52,0.14
4.709103941917419,2,3,3,3,-9.960000000000001,-0.71,-0.26,1.76,-0.9,0.35
4.719103932380676,2,3,3,3,-9.59,-1.15,-0.46,1.63,-0.34,0.36
4.729103922843933,2,3,3,3,-9.640000000000001,-1.14,-0.44,0.9,-0.33,0.28
4.739104151725769,2,3,3,3,-9.779999999999999,-1.06,-0.4,0.58,-0.58,0.37
4.749104142189026,2,3,3,3,-9.75,-1.07,-0.37,0.8,-0.57,0.5
4.759104132652283,2,3,3,3,-9.640000000000001,-0.95,-0.44,0.8100000000000001,-0.6899999999999999,0.5
4.76910412311554,2,3,3,3,-9.56,-0.99,-0.51,0.71,-0.64,0.46
4.779104113578796,2,3,3,3,-9.6,-1.05,-0.41,0.44,-0.66,0.43
4.789104104042053,2,3,3,3,-9.529999999999999,-1,-0.36,0.08,-0.62,0.43
4.79910409450531,2,3,3,3,-9.59,-1.17,-0.32,-0.49,-0.45,0.37
4.809104084968567,2,3,3,3,-9.68,-1.25,-0.41,-1.19,-0.39,0.27
4.819104075431824,2,3,3,3,-9.699999999999999,-1.26,-0.58,-1.74,-0.41,0.15
4.829104065895081,2,3,3,3,-9.67,-1.44,-0.59,-2.06,-0.48,0.07000000000000001
4.839104056358337,2,3,3,3,-9.59,-1.65,-0.54,-1.98,-0.47,0.08
4.849104046821594,2,3,3,3,-9.74,-1.72,-0.59,-1.79,-0.37,0.14
4.859104037284851,2,3,3,3,-9.869999999999999,-1.59,-0.57,-1.48,-0.57,0.24
4.869104027748108,2,3,3,3,-9.82,-1.67,-0.43,-0.98,-0.83,0.34
4.879104018211365,2,3,3,3,-9.640000000000001,-1.62,-0.43,-0.71,-0.95,0.43
4.889104008674622,2,3,3,3,-9.369999999999999,-1.53,-0.39,-0.29,-0.75,0.4
4.899103999137878,2,3,3,3,-9.16,-1.38,-0.37,0.01,-0.15,0.36
4.909103989601135,2,3,3,3,-9.23,-1.53,-0.36,0.2,0.15,0.3
4.919103980064392,2,3,3,3,-9.380000000000001,-1.46,-0.43,-0.03,-0.05,0.29
4.929103970527649,2,3,3,3,-9.81,-1.46,-0.4,-0.11,-0.6,0.24
4.939103960990906,2,3,3,3,-9.57,-1.18,-0.53,0.23,-0.66,0.27
4.949103951454163,2,3,3,3,-9.710000000000001,-1.4,-0.14,0.55,-0.8100000000000001,0.32
4.959103941917419,2,3,3,3,-9.51,-1.49,-0.03,0.4,-0.77,0.3
4.969103932380676,2,3,3,3,-9.48,-1.32,-0.28,0.67,-0.24,0.4
4.979103922843933,2,3,3,3,-9.34,-1.28,-0.15,0.6899999999999999,0.54,0.33
4.989104151725769,2,3,3,3,-9.42,-0.72,-0.24,0.2,1.25,0.03
4.999104142189026,2,3,3,3,-8.960000000000001,-0.88,-0.14,-0.51,2.42,-0.41
5.009104132652283,2,3,3,3,-9.24,-0.93,-0.15,-1.74,3.58,-0.9399999999999999
5.01910412311554,2,3,3,3,-10.4,-1.13,-0.01,-0.95,2.3,-0.6
5.029104113578796,2,3,3,3,-9.800000000000001,-1.19,-0.1,-0.25,0.8100000000000001,-0.37
5.039104104042053,2,3,3,3,-9.619999999999999,-1.11,-0.23,-0.68,0.6,-0.37
5.04910409450531,2,3,3,3,-9.42,-1.16,-0.11,-1.21,0.83,-0.41
5.059104084968567,2,3,3,3,-9.57,-1,0.01,-1.08,0.67,-0.3
5.069104075431824,2,3,3,3,-9.43,-1.03,0.24,-0.34,0.58,-0.09
5.079104065895081,2,3,3,3,-10.4,-1.33,0.15,0.78,0.24,0.12
5.089104056358337,2,3,3,3,-10.68,-1.34,-0.15,1.93,-1.33,0.33
5.099104046821594,2,3,3,3,-10.7,-1.22,-0.72,1.73,-1.77,0.4
5.109104037284851,2,3,3,3,-10.03,-1.07,-0.58,1.02,-1.73,0.51
5.119104027748108,2,3,3,3,-9.58,-0.9399999999999999,-0.46,0.49,-0.85,0.48
5.129104018211365,2,3,3,3,-10.24,-1.32,-0.64,0.26,0.18,0.58
5.139104008674622,2,3,3,3,-10,-1.24,-0.06,0.02,0.14,0.73
5.149103999137878,2,3,3,3,-9.98,-0.99,0.01,-0.16,-0.29,0.95
5.159103989601135,2,3,3,3,-10.18,-0.66,0.01,0.78,-0.79,1.06
5.169103980064392,2,3,3,3,-9.59,-0.49,0.07000000000000001,1.4,-1.07,0.84
5.179103970527649,2,3,3,3,-9.029999999999999,-0.59,-0.03,0.89,-1.06,0.59
5.189103960990906,2,3,3,3,-9.1,-0.74,0.09,0.21,-1.07,0.4
5.199103951454163,2,3,3,3,-9.359999999999999,-0.88,-0.13,-0.28,-0.99,0.22
5.209103941917419,2,3,3,3,-9.220000000000001,-0.96,-0.17,-0.21,-0.79,0.25
5.219103932380676,2,3,3,3,-9.949999999999999,-0.84,-0.82,0.45,-0.61,0.08
5.229103922843933,2,3,3,3,-8.52,-0.91,0.85,0.64,-0.65,0.13
5.239104151725769,2,3,3,3,-10.55,-1,-0.6,-0.47,-0.87,0.1
5.249104142189026,2,3,3,3,-9.460000000000001,-0.9399999999999999,-0.06,0.68,-0.91,-0.35
5.259104132652283,2,3,3,3,-9.57,-0.92,-0.28,0.72,-0.47,-0.04
5.279104113578796,2,3,3,3,-9.710000000000001,-1.19,-0.26,0.9399999999999999,0.08,0.25
5.289104104042053,2,3,3,3,-9.710000000000001,-1.22,-0.3,0.49,-0.32,0.37
5.29910409450531,2,3,3,3,-10.77,-1.17,-1.01,0.17,-0.59,0.23
5.309104084968567,2,3,3,3,-9.880000000000001,-1.26,0.07000000000000001,0.57,-1.25,0.05
5.319104075431824,2,3,3,3,-9.65,-1.3,-0.33,0.16,-1.26,-0.02
5.329104065895081,2,3,3,3,-9.369999999999999,-1.13,-0.05,-0.28,-0.9399999999999999,0.07000000000000001
5.339104056358337,2,3,3,3,-9.59,-0.97,0,-0.28,-0.65,0
5.349104046821594,2,3,3,3,-9.56,-0.85,0.1,0.14,-0.51,-0.02
5.359104037284851,2,3,3,3,-9.6,-0.7,0.3,0.44,-0.2,0
5.369104027748108,2,3,3,3,-9.619999999999999,-0.74,0.31,0.42,-0.01,-0.05
5.379104018211365,2,3,3,3,-9.859999999999999,-0.76,0.51,-0.06,0.12,-0.21
5.389104008674622,2,3,3,3,-9.9,-0.64,0.32,-0.89,0.15,-0.4
5.399103999137878,2,3,3,3,-10.01,-0.41,0.02,-1.7,0.1,-0.62
5.409103989601135,2,3,3,3,-9.98,-0.18,-0.12,-1.96,0.31,-0.85
5.419103980064392,2,3,3,3,-9.85,-0.21,-0.2,-2.45,0.57,-1.04
5.429103970527649,2,3,3,3,-9.69,-0.24,-0.38,-3.01,0.51,-1.16
5.439103960990906,2,3,3,3,-9.390000000000001,-0.1,-0.39,-3.36,0.35,-1.13
5.449103951454163,2,3,3,3,-9.789999999999999,-0.43,-0.35,-3.72,0.1,-1.2
5.459103941917419,2,3,3,3,-9.92,-0.45,-0.47,-4.07,-0.14,-1.21
5.469103932380676,2,3,3,3,-9.869999999999999,-0.51,-0.63,-3.99,-0.14,-1.12
5.479103922843933,2,3,3,3,-9.77,-0.6899999999999999,-0.6,-3.9,-0.31,-1.04
5.489104151725769,2,3,3,3,-9.779999999999999,-0.8,-0.46,-3.9,-0.44,-1
5.499104142189026,2,3,3,3,-9.640000000000001,-0.9,-0.43,-4.02,-0.36,-0.9399999999999999
5.509104132652283,2,3,3,3,-9.630000000000001,-1.06,-0.58,-4.01,-0.37,-0.91
5.51910412311554,2,3,3,3,-9.43,-1.22,-0.87,-3.83,-0.35,-0.86
5.529104113578796,2,3,3,3,-9.44,-1.33,-0.87,-3.56,-0.04,-0.76
5.539104104042053,2,3,3,3,-9.369999999999999,-1.44,-0.92,-3.29,0.2,-0.61
5.54910409450531,2,3,3,3,-9.359999999999999,-1.52,-0.88,-2.9,0.44,-0.46
5.559104084968567,2,3,3,3,-9.16,-1.72,-0.85,-2.63,0.74,-0.29
5.569104075431824,2,3,3,3,-9.02,-1.87,-0.77,-2.46,1.05,-0.15
5.580103993415833,2,3,3,3,-9.09,-1.86,-0.71,-2.56,1.34,-0.01
5.590103983879089,2,3,3,3,-9.19,-1.88,-0.71,-2.47,1.38,0.09
5.600103974342346,2,3,3,3,-9.4,-1.86,-0.8,-1.74,1.22,0.08
5.610103964805603,2,3,3,3,-9.34,-2.01,-1,-0.59,1.02,0.18
5.62010395526886,2,3,3,3,-9.529999999999999,-2.04,-0.8,0.43,0.86,0.35
5.630103945732117,2,3,3,3,-9.789999999999999,-2.09,-0.26,0.6899999999999999,1.16,0.52
5.640103936195374,2,3,3,3,-9.789999999999999,-1.89,-0.75,0.7,1.01,0.53
5.65010392665863,2,3,3,3,-9.460000000000001,-1.82,-0.53,0.95,0.88,0.6
5.660104155540466,2,3,3,3,-9.33,-1.54,-0.9,1.66,1.27,0.77
5.670104146003723,2,3,3,3,-9.66,-1.74,-0.16,2.51,1.88,1.05
5.68010413646698,2,3,3,3,-10.09,-1.87,-0.03,1.85,2.03,0.86
5.690104126930237,2,3,3,3,-10.21,-1.77,0,1.2,1.36,0.58
5.700104117393494,2,3,3,3,-10.36,-1.92,0.17,0.85,-0.04,0.36
5.71010410785675,2,3,3,3,-9.93,-1.53,-0.64,1.22,0.04,0.45
5.720104098320007,2,3,3,3,-9.710000000000001,-1.77,-0.11,1.74,-0.02,0.33
5.730104088783264,2,3,3,3,-10.05,-1.86,-0.22,1.75,-0.58,0.05
5.740104079246521,2,3,3,3,-9.99,-1.79,-0.02,1.49,-1.51,-0.29
5.750104069709778,2,3,3,3,-9.109999999999999,-1.3,-0.45,1.91,-1.91,-0.33
5.760104060173035,2,3,3,3,-9.43,-1.32,-0.26,2.46,-0.8100000000000001,-0.03
5.770104050636292,2,3,3,3,-9.42,-1.24,-0.63,2.32,-0.03,0.04
5.780104041099548,2,3,3,3,-9.289999999999999,-1.32,-0.23,2.07,0.64,-0.09
5.790104031562805,2,3,3,3,-9.73,-1.46,0.09,1.89,1.27,-0.28
5.800104022026062,2,3,3,3,-9.869999999999999,-1.43,-0.04,1.81,1.18,-0.41
5.810104012489319,2,3,3,3,-9.84,-1.48,-0.24,1.85,0.91,-0.41
5.820104002952576,2,3,3,3,-9.720000000000001,-1.48,-0.4,1.82,0.5,-0.38
5.830103993415833,2,3,3,3,-9.460000000000001,-1.51,-0.12,1.69,0.52,-0.27
5.840103983879089,2,3,3,3,-9.449999999999999,-1.39,-0.3,1.84,0.54,-0.18
5.850103974342346,2,3,3,3,-9.48,-1.39,-0.21,2.13,0.37,-0.12
5.860103964805603,2,3,3,3,-9.199999999999999,-1.46,-0.12,2.36,0.31,-0.08
5.87010395526886,2,3,3,3,-9.42,-1.71,-0.16,2.38,0.43,-0.01
5.880103945732117,2,3,3,3,-9.83,-1.66,-0.23,1.87,0.48,0.13
5.890103936195374,2,3,3,3,-9.84,-1.52,-0.34,1.89,0.27,0.11
5.90010392665863,2,3,3,3,-9.83,-1.36,-0.27,1.88,0.07000000000000001,0.12
5.910104155540466,2,3,3,3,-9.99,-1.41,-0.41,1.71,-0.11,0.1
5.920104146003723,2,3,3,3,-10.03,-1.47,-0.44,1.56,-0.53,0.04
5.93010413646698,2,3,3,3,-9.880000000000001,-1.63,-0.29,1.48,-0.84,-0.31
5.940104126930237,2,3,3,3,-9.69,-1.37,-0.32,1.52,-1.2,-0.52
5.950104117393494,2,3,3,3,-10.03,-1.6,-0.14,1.8,-0.72,-0.35
5.96010410785675,2,3,3,3,-10.32,-1.69,-0.2,2.53,-0.42,0.15
5.970104098320007,2,3,3,3,-9.94,-1.72,-0.5,2.96,-0.83,0.52
5.980104088783264,2,3,3,3,-9.56,-2.33,-0.41,2.61,-0.11,0.96
5.990104079246521,2,3,3,3,-8.279999999999999,-1.65,-0.43,1.65,1.12,1.52
6.000104069709778,2,3,3,3,-8.33,-1.27,-0.55,2.1,1.73,0.96
6.010104060173035,2,3,3,3,-8.619999999999999,-1.52,-0.04,2.54,1.87,0.82
6.020104050636292,2,3,3,3,-8.59,-1.72,-0.28,2.25,2.13,0.73
6.030104041099548,2,3,3,3,-9.220000000000001,-1.87,-0.22,1.81,1.85,0.68
6.040104031562805,2,3,3,3,-9.23,-1.73,-0.11,1.13,0.88,0.45
6.050104022026062,2,3,3,3,-9.640000000000001,-1.28,-0.5600000000000001,0.43,0.54,0.44
6.060104012489319,2,3,3,3,-9.039999999999999,-1.21,-0.43,0.71,-0.21,0.78
6.070104002952576,2,3,3,3,-8.26,-1.2,-0.54,0.71,-0.24,0.76
6.080103993415833,2,3,3,3,-9,-1.18,-0.63,0.34,0.1,0.85
6.090103983879089,2,3,3,3,-8.43,-1.54,-0.5,0.03,0.35,1
6.100103974342346,2,3,3,3,-7.83,-1.66,-0.62,-0.74,0.25,0.82
6.110103964805603,2,3,3,3,-7.09,-1.8,-0.49,-1.52,-0.31,0.46
6.12010395526886,2,3,3,3,-6.56,-1.87,-0.51,-1.91,0.13,-0.26
6.130103945732117,2,3,3,3,-6.17,-1.17,-0.5600000000000001,-1.96,0.41,-1.13
6.140103936195374,2,3,3,3,-6.26,-1.17,-0.26,-1.82,-0.25,-1.66
6.15010392665863,2,3,3,3,-6.04,-0.9,-0.08,-3.12,1.19,-1.71
6.160104155540466,2,3,3,3,-6.97,-0.61,0.07000000000000001,-2.06,0.83,-0.8
6.170104146003723,2,3,3,3,-6.31,-1.23,0.06,-1.34,-0.74,0.02
6.18010413646698,2,3,3,3,-6.01,-1.1,-0.67,-3.31,-0.43,-0.08
6.190104126930237,2,3,3,3,-6.67,-1.47,0,-2.16,-1.6,0.78
6.200104117393494,2,3,3,3,-6.55,-1.04,0.15,-1.77,-1.36,0.8100000000000001
6.21010410785675,2,3,3,3,-6.85,-0.11,0.46,-1.09,-1.41,0.91
6.220104098320007,2,3,3,3,-7.02,0.22,0.37,-1.4,-1.76,0.9
6.230104088783264,2,3,3,3,-7.05,0.22,0.16,-1.91,-2.69,1.02
6.240104079246521,2,3,3,3,-6.8,0.07000000000000001,-0.07000000000000001,-2.11,-4.02,1.26
6.250104069709778,2,3,3,3,-6.82,0.31,0.12,-1.93,-5.05,1.85
6.260104060173035,2,3,3,3,-7.34,0.71,0.35,-1.84,-4.88,2.39
6.270104050636292,2,3,3,3,-7.86,0.97,0.37,-2.17,-3.75,2.49
6.280104041099548,2,3,3,3,-8.81,0.77,0.18,-3.39,-2.67,2.19
6.290104031562805,2,3,3,3,-9.42,0.5,0.17,-4.56,-1.71,1.3
6.300104022026062,2,3,3,3,-10.05,0.42,0.38,-5.03,-0.86,0.04
6.310104012489319,2,3,3,3,-10.6,0.39,0.4,-5.33,-0.31,-1.09
6.320104002952576,2,3,3,3,-11.78,0.3,0.4,-5.09,-0.27,-1.63
6.330103993415833,2,3,3,3,-12.45,0.12,0.61,-4.15,-0.53,-1.55
6.340103983879089,2,3,3,3,-12.92,-0.13,0.78,-3.27,-1,-1.13
6.350103974342346,2,3,3,3,-13.32,-0.1,0.79,-2.86,-1.83,-0.53
6.360103964805603,2,3,3,3,-14.17,-0.06,0.53,-3.23,-2.89,0.21
6.37010395526886,2,3,3,3,-14.36,0.38,0.39,-4.01,-3.86,1.09
6.380103945732117,2,3,3,3,-14.5,0.36,0.35,-3.91,-4.05,2.03
6.390103936195374,2,3,3,3,-14.8,0.03,0.44,-3.83,-3.44,2.55
6.40010392665863,2,3,3,2,-16.62,-0.5,0.08,-3.68,-2.79,2.66
6.410104155540466,2,3,3,2,-17.88,-0.49,-0.16,-3.16,-2.29,2.31
6.420104146003723,2,3,3,2,-18.96,-0.41,-0.35,-2.4,-1.91,1.63
6.43010413646698,2,3,3,2,-19.32,-0.23,-0.05,-2.1,-2.17,0.79
6.440104126930237,2,3,3,2,-19.61,0.32,-0.02,-1.09,-2.32,0.18
6.450104117393494,2,3,3,2,-19.71,-0.17,-0.04,-0.77,-2.13,-0.14
6.46010410785675,2,3,3,2,-19.71,-0.62,0.07000000000000001,-1.24,-1.84,-0.54
6.470104098320007,2,3,3,2,-21.12,-1.14,0.2,-2.29,-1.92,-1.1
6.480104088783264,2,3,3,2,-21.72,-1.02,-0.07000000000000001,-2.4,-2.11,-1.45
6.490104079246521,2,3,3,2,-22.65,-1.06,-0.34,-1.73,-2.06,-1.87
6.500104069709778,2,3,3,2,-23.51,-1.06,-0.35,-1.3,-2.12,-2.55
6.510104060173035,2,3,3,2,-23.73,-1.19,-0.11,-0.92,-2.16,-3.27
6.540104031562805,2,3,3,2,-21.02,-1.66,0.77,1.85,-0.68,-4.85
6.550104022026062,2,3,3,2,-18.91,-2.69,0.13,3.34,0.76,-4.99
6.560104012489319,2,3,3,2,-17.53,-3.17,-0.17,5.03,2.85,-5.13
6.570104002952576,2,3,3,2,-16.29,-3.86,-0.67,6.43,5.23,-5.69
6.580103993415833,2,3,3,2,-14.89,-4.53,-1.12,7.64,7.02,-6.78
6.590103983879089,2,3,3,2,-12.33,-6.03,-0.95,8.34,8.300000000000001,-7.79
6.601104140281677,2,3,3,2,-11.09,-6.28,-0.68,8.5,9.23,-8.210000000000001
6.631104111671448,2,3,3,2,-5.31,-4.6,-1.35,8.029999999999999,8.02,-8.609999999999999
6.641104102134705,2,3,3,2,-3.76,-4.76,-1.89,6.09,6.84,-9.029999999999999
6.651104092597961,2,3,3,2,-2.27,-5.35,-2.28,4.48,6.96,-9.48
6.661104083061218,2,3,3,2,0.76,-6.53,-3.03,2.5,6.6,-9.66
6.671104073524475,2,3,3,2,2.32,-5.6,-3.63,2.93,5.4,-9.220000000000001
6.681104063987732,2,3,3,2,3.61,-3.62,-2.82,8.1,4.04,-7.02
6.691104054450989,2,3,3,2,3.53,-1.58,-0.32,11.74,3.42,-4.26
6.701104044914246,2,3,3,2,2.68,1.19,1.57,9.81,3.77,-1.95
6.711104035377502,2,3,3,2,2.25,2.52,1.59,6.46,3.49,2.37
6.721104025840759,2,3,3,2,2.91,3.06,1.54,4.56,1.83,6.66
6.731104016304016,2,3,3,2,3.12,3.77,1.91,3.52,-0.92,9.630000000000001
6.741104006767273,2,3,3,2,2.9,3.03,1.91,2.86,-3.09,11.83
6.75110399723053,2,3,3,2,3.13,2.68,1.65,1.52,-4.9,14.13
6.761103987693787,2,3,3,2,3.17,1.94,1.56,1.52,-4.9,14.13
6.771103978157043,2,3,3,2,3.2,1.65,1.54,0.21,-6.64,16.03
6.7811039686203,2,3,3,2,1.53,0.85,1.55,-3.84,-8,16.36
6.791103959083557,2,3,3,2,0.14,0.39,1.08,-4.03,-6.06,14.01
6.801103949546814,2,3,3,2,-1.3,-0.32,0.2,-3.39,-3.55,9.82
6.811103940010071,2,3,3,2,-2.97,-1.03,-0.55,-3.39,-3.55,9.82
6.821103930473328,2,3,3,2,-4.32,-1.11,-1.19,-2.91,-0.45,5.22
6.831103920936584,2,3,3,2,-4.26,-0.85,-1.2,-2.26,4.63,-2.8
6.84110414981842,2,3,3,2,-3.91,-0.6899999999999999,-1.28,-1.16,5.77,-5.56
6.851104140281677,2,3,3,2,-2.69,-0.7,-1.23,0.4,6.21,-6.91
6.861104130744934,2,3,3,2,-2.27,-0.6,-1.19,0.4,6.21,-6.91
6.871104121208191,2,3,3,2,-1.59,-0.26,-1.05,1.75,6.13,-7.16
6.881104111671448,2,3,3,2,-0.9399999999999999,-0.03,-0.74,3.49,3.82,-6.48
6.891104102134705,2,3,3,2,-0.06,0.12,0.1,3.53,2.52,-6.05
6.901104092597961,2,3,3,2,0.15,0.03,0.48,2.8,1.94,-5.25
6.911104083061218,2,3,3,2,0.19,0.29,0.58,2.8,1.94,-5.25
6.921104073524475,2,3,3,2,0.51,0.15,0.25,1.27,0.82,-4.17
6.931104063987732,2,3,3,2,0.87,-0.35,0.36,1.4,0.25,-1.25
6.941104054450989,2,3,3,2,1.29,-0.09,0.29,1.08,0.02,-0.34
6.961104035377502,2,3,3,2,0.53,1.05,-0.18,2.34,-0.61,1.28
6.971104025840759,2,3,3,2,-0.9,-0.82,2.41,5.6,-1.78,3.97
6.981104016304016,2,3,3,2,-2.99,-1.39,0.35,-0.31,-8.640000000000001,7.63
6.991104006767273,2,3,3,2,-3.15,-1.8,2.34,2.5,-11.96,11.28
7.00110399723053,2,3,3,2,-4.78,-5.12,4.93,1.28,-13.17,15.42
7.011103987693787,2,3,3,2,-8.32,-13.77,3.56,1.28,-13.17,15.42
7.021103978157043,2,3,3,2,-21.95,-25.72,-3.53,5.58,-15.09,17.82
7.111104130744934,2,3,3,2,-15.98,-1.2,3.13,-6.35,-7.13,11.29
7.121104121208191,2,3,3,2,-11.98,-0.04,0.64,-2.63,-5.27,9.640000000000001
7.131104111671448,2,3,3,2,-13.49,-0.22,0.8100000000000001,-1.2,0.79,-1.19
7.141104102134705,2,3,3,2,-14.99,-0.63,0.79,-0.14,2.56,-6.56
7.151104092597961,2,3,3,2,-18.02,-1.74,-0.12,3.83,1.25,-7.17
7.161104083061218,2,3,3,2,-14.06,-0.47,-0.5600000000000001,3.83,1.25,-7.17
7.171104073524475,2,3,3,2,-11.42,-0.62,-0.26,6.57,-0.93,-6.57
7.181104063987732,2,3,3,2,-10,-0.86,0.01,4.5,1.46,-7.53
7.191104054450989,2,3,3,2,-8.869999999999999,-0.99,0.11,2.7,2.17,-7.3
7.201104044914246,2,3,3,2,-6.77,-0.61,-0.5600000000000001,1.02,2.83,-7.34
7.211104035377502,2,3,3,2,-6.59,-0.59,-0.67,1.02,2.83,-7.34
7.221104025840759,2,3,3,2,-6.27,-0.41,-0.58,-0.65,4.28,-7.36
7.231104016304016,2,3,3,2,-5.68,-0.19,-0.25,-2.76,5.43,-6.51
7.261103987693787,2,3,3,2,-4.11,-2.11,-0.98,-4.52,4.91,-3
7.271103978157043,2,3,3,2,-3.4,-2.8,-1.24,-3.64,3.51,-2.55
7.2811039686203,2,3,3,2,-3.63,-2.6,-1.03,-2.8,2.34,-2.94
7.291103959083557,2,3,3,2,-4.15,-1.97,-0.88,-0.77,0.9399999999999999,-3.19
7.301103949546814,2,3,3,2,-4.81,-1.47,-0.79,-0.12,0.3,-2.4
7.311103940010071,2,3,3,2,-7.03,-1.16,-0.48,-0.12,0.3,-2.4
7.321103930473328,2,3,3,2,-7.87,-1.3,-0.7,0.5,-0.86,-1.13
7.331103920936584,2,3,3,2,-9,-1.8,-0.82,0.59,-2.44,0.15
7.34110414981842,2,3,3,2,-9.949999999999999,-2.24,-0.74,0.19,-3.55,0.89
7.351104140281677,2,3,3,2,-10.24,-2.24,-0.77,0.32,-4.4,2.38
7.361104130744934,2,3,3,2,-10.03,-1.53,-0.46,0.32,-4.4,2.38
7.371104121208191,2,3,3,2,-9.44,-0.84,0,0.99,-4.1,3.27
7.381104111671448,2,3,3,2,-9.43,-0.4,0.19,1.28,-2.53,3.05
7.391104102134705,2,3,3,2,-10.39,0.01,0.19,0.08,-0.11,1.72
7.401104092597961,2,3,3,2,-10.99,0.23,-0.21,-2.28,3.02,-0.76
7.411104083061218,2,3,3,2,-11.23,0.23,-0.46,-2.28,3.02,-0.76
7.421104073524475,2,3,3,2,-11.38,0.04,-0.67,-2.72,2.95,-0.89
7.431104063987732,2,3,3,2,-11.53,-0.12,-0.13,-2.89,2.43,-0.55
7.441104054450989,2,3,3,2,-11.22,-0.15,-0.22,-3.33,1.64,-0.3
7.451104044914246,2,3,3,2,-10.79,-0.21,-0.29,-4.53,0.19,-0.84
7.461104035377502,2,3,3,2,-10.1,-0.51,-0.17,-4.53,0.19,-0.84
7.471104025840759,2,3,3,2,-9.85,-0.72,-0.33,-4.51,-0.12,-0.97
7.481104016304016,2,3,3,2,-9.57,-0.83,-0.57,-4.73,-0.01,-1.37
7.491104006767273,2,3,3,2,-9.44,-1,-0.68,-4.71,0.35,-1.9
7.50110399723053,2,3,3,2,-9.390000000000001,-1.12,-0.99,-4.51,1.74,-3.08
7.511103987693787,2,3,3,2,-9.279999999999999,-1.18,-1.03,-4.51,1.74,-3.08
7.521103978157043,2,3,3,2,-9.300000000000001,-1.21,-0.99,-4,2.03,-3.57
7.5311039686203,2,3,3,2,-9.32,-1.16,-0.99,-3.32,2.46,-3.98
7.541103959083557,2,3,3,2,-9.31,-1.41,-0.82,-2.65,2.74,-4.29
7.551103949546814,2,3,3,2,-9.18,-1.55,-0.75,-2.09,2.43,-4.18
7.561103940010071,2,3,3,2,-9.029999999999999,-1.58,-0.82,-2.09,2.43,-4.18
7.571103930473328,2,3,3,2,-8.85,-1.58,-0.96,-1.86,1.92,-3.66
7.581103920936584,2,3,3,2,-8.6,-1.7,-0.61,-1.76,1.33,-2.96
7.59110414981842,2,3,3,2,-8.539999999999999,-1.68,-0.6,-1.88,0.91,-2.33
7.601104140281677,2,3,3,2,-8.550000000000001,-1.64,-0.68,-1.73,0.13,-0.83
7.611104130744934,2,3,3,2,-8.609999999999999,-1.62,-0.8100000000000001,-1.73,0.13,-0.83
7.621104121208191,2,3,3,2,-8.949999999999999,-1.79,-0.96,-1.7,0.02,-0.26
7.6321040391922,2,3,3,2,-9.16,-1.76,-0.97,-1.52,0.04,0.24
7.642104029655457,2,3,3,2,-9.470000000000001,-1.69,-0.84,-1.17,0.13,0.62
7.652104020118713,2,3,3,2,-10,-1.63,-0.76,-0.49,0.45,0.88
7.66210401058197,2,3,3,2,-10.14,-1.53,-0.84,-0.49,0.45,0.88
7.672104001045227,2,3,3,2,-10.24,-1.46,-0.9,-0.08,0.42,0.86
7.682103991508484,2,3,3,2,-10.21,-1.38,-0.82,0.21,0.3,0.71
7.692103981971741,2,3,3,2,-9.85,-1.21,-0.68,0.39,0.3,0.45
7.702103972434998,2,3,3,2,-9.68,-1.16,-0.57,0.53,0.05,0.23
7.712103962898254,2,3,3,2,-9.539999999999999,-1.18,-0.48,0.53,0.05,0.23
7.722103953361511,2,3,3,2,-9.390000000000001,-1.29,-0.48,0.66,-0.26,0.22
7.732103943824768,2,3,3,2,-9.17,-1.4,-0.49,0.85,-0.24,0.39
7.742103934288025,2,3,3,2,-9.09,-1.51,-0.39,0.6,-0.19,0.5600000000000001
7.752103924751282,2,3,3,2,-9.029999999999999,-1.55,-0.33,0.17,0.28,0.76
7.762104153633118,2,3,3,2,-9.07,-1.64,-0.25,0.17,0.28,0.76
7.772104144096375,2,3,3,2,-9.109999999999999,-1.51,-0.42,-0.05,0.54,0.8100000000000001
7.782104134559631,2,3,3,2,-9.15,-1.61,-0.53,-0.02,0.75,0.91
7.792104125022888,2,3,3,2,-9.210000000000001,-1.78,-0.67,0.45,0.75,0.97
7.802104115486145,2,3,3,2,-9.17,-1.96,-0.75,0.99,0.85,0.79
7.812104105949402,2,3,3,2,-8.789999999999999,-2.32,-0.77,0.99,0.85,0.79
7.822104096412659,2,3,3,2,-8.44,-2.41,-0.86,1.08,0.98,0.74
7.832104086875916,2,3,3,2,-8.029999999999999,-2.37,-1.02,0.74,1.25,0.74
7.842104077339172,2,3,3,2,-7.6,-2.26,-1.05,0.4,1.41,0.85
7.862104058265686,2,3,3,2,-6.56,-1.87,-0.8,-0.43,1.42,1.32
7.872104048728943,2,3,3,2,-6.54,-1.78,-0.61,-0.53,1.32,1.78
7.8821040391922,2,3,3,2,-6.48,-1.8,-0.83,-0.45,1.04,2.19
7.892104029655457,2,3,3,2,-6.71,-1.62,-0.8100000000000001,-0.62,0.54,2.48
7.902104020118713,2,3,3,2,-7.01,-1.45,-0.59,-1.15,-0.9,3.33
7.91210401058197,2,3,3,2,-7.34,-1.45,-0.42,-1.15,-0.9,3.33
7.922104001045227,2,3,3,2,-7,-1.37,-1.2,-0.74,-1.46,3.85
7.932103991508484,2,3,3,2,-6.75,-1.32,-1.73,-0.72,-2.05,4.12
7.942103981971741,2,3,3,2,-6.93,-1.11,-1.84,-0.47,-2.38,4.4
7.952103972434998,2,3,3,2,-7.05,-0.85,-1.18,2.31,-3.01,4.68
7.982103943824768,2,3,3,2,-7.76,0.58,0.59,2.15,-1.66,4.64
7.992103934288025,2,3,3,2,-8.17,0.46,0.75,1.51,-1.54,4.13
8.002103924751282,2,3,3,2,-8.92,0.08,0.84,0.92,-2.58,3.36
8.012104153633118,2,3,3,2,-9.279999999999999,0.09,0.3,0.92,-2.58,3.36
8.022104144096375,2,3,3,2,-9.59,0.08,-0.26,0.3,-3.33,3.22
8.032104134559631,2,3,3,2,-9.69,0.08,-0.32,-0.13,-3.91,3.28
8.042104125022888,2,3,3,2,-10.06,-0.32,-0.68,-1.12,-4.03,2.98
8.052104115486145,2,3,3,2,-10.26,-0.51,-0.74,-2.24,-3.62,2.54
8.062104105949402,2,3,3,2,-10.55,-0.4,-0.49,-2.71,-3.39,2.32
8.072104096412659,2,3,3,2,-11.33,0.23,0.05,-1.96,-3.12,2.46
8.082104086875916,2,3,3,2,-12.25,0.64,0.12,-1.13,-2.97,2.49
8.092104077339172,2,3,3,2,-13.36,1.04,0.2,-0.6899999999999999,-2.55,2.48
8.102104067802429,2,3,3,2,-14.84,1.49,0.29,-1.12,-1.42,2.53
8.112104058265686,2,3,3,2,-16.36,1.96,0.36,-1.12,-1.42,2.53
8.122104048728943,2,3,3,2,-16.65,1.92,0.3,-2.02,-1.59,2.12
8.1321040391922,2,3,3,2,-17.19,1.4,0.46,-2.34,-2.1,1.39
8.142104029655457,2,3,3,2,-17.74,0.7,0.7,-1.38,-2.41,1.13
8.152104020118713,2,3,3,2,-19.97,-0.25,0.79,-0.35,-2.53,1.02
8.16210401058197,2,3,3,2,-20.78,-0.02,0.25,-0.18,-2.73,0.6899999999999999
8.172104001045227,2,3,3,2,-21.62,0.78,-0.04,-0.72,-3.3,-0.06
8.182103991508484,2,3,3,2,-22.52,1.51,0.11,-0.67,-4.09,-1.05
8.192103981971741,2,3,3,2,-23.91,2.05,-0.28,-0.59,-4.62,-2.11
8.202103972434998,2,3,3,2,-24.36,2.24,-0.59,-0.88,-4.74,-3.24
8.212103962898254,2,3,3,2,-24.16,2.31,-0.35,-1.33,-4.91,-3.78
8.222103953361511,2,3,3,2,-23.47,1.81,-0.17,-1.56,-4.86,-3.77
8.232103943824768,2,3,3,2,-21.65,0.6,0.63,-1.56,-4.24,-3.74
8.242103934288025,2,3,3,2,-21.1,-0.11,0.77,-0.99,-3.08,-3.86
8.252103924751282,2,3,3,2,-20.53,-0.58,0.82,0.21,-1.47,-4.22
8.262104153633118,2,3,3,2,-19.93,-0.93,0.66,1.56,0.5,-5.08
8.272104144096375,2,3,3,2,-18.24,-2.23,0.37,2.95,2.89,-6.36
8.282104134559631,2,3,3,2,-17.33,-3.26,0.24,4.51,4.96,-7.79
8.292104125022888,2,3,3,2,-16.01,-4.31,-0.06,5.96,6.49,-8.75
8.302104115486145,2,3,3,2,-13.09,-5.06,-0.77,7.23,7.4,-9.109999999999999
8.312104105949402,2,3,3,2,-11.19,-5.26,-1.23,8.25,7.74,-9.08
8.322104096412659,2,3,3,2,-9.43,-5.23,-1.49,8.4,7.7,-8.98
8.332104086875916,2,3,3,2,-7.88,-4.54,-1.72,7.37,8.76,-9.19
8.342104077339172,2,3,3,2,-4.18,-4.22,-2.26,5.64,10.52,-9.300000000000001
8.352104067802429,2,3,3,2,-1.91,-5.02,-3.08,4.65,11.65,-9.630000000000001
8.362104058265686,2,3,3,2,0.05,-5.77,-3.11,3.82,12.36,-10.45
8.372104048728943,2,3,3,2,1.32,-6.19,-3.56,2.97,12.28,-11.5
8.3821040391922,2,3,3,2,3.35,-4.88,-2.08,3.34,11.32,-11.64
8.392104029655457,2,3,3,2,2.79,-4.04,1.26,5.98,9.869999999999999,-9.449999999999999
8.402104020118713,2,3,3,2,1.28,-2.42,3.09,7.81,6.14,-5.06
8.41210401058197,2,3,3,2,1.71,-0.73,3.15,5.57,2.32,-2.14
8.422104001045227,2,3,3,2,2.32,1.88,1.33,4.67,1.28,-0.61
8.432103991508484,2,3,3,2,2.52,2.58,1.94,5.57,1.2,2.84
8.442103981971741,2,3,3,2,2.75,3.05,2.67,6.6,-0.36,6.82
8.452103972434998,2,3,3,2,2.75,3.05,2.67,7.2,-2.21,10.31
8.462103962898254,2,3,3,2,3,3.26,2.05,5.9,-4.41,12.79
8.472103953361511,2,3,3,2,2.86,2.85,1.47,2.62,-6.6,14.37
8.482103943824768,2,3,3,2,2.65,2.28,1.62,-1.22,-8.23,15.08
8.492103934288025,2,3,3,2,0.71,0.49,1.04,-3.69,-9.07,14.93
8.502103924751282,2,3,3,2,-0.84,-0.3,0.5,-5.17,-8.130000000000001,13.63
8.512104153633118,2,3,3,2,-1.97,-0.79,0.13,-5.96,-6.3,10.99
8.522104144096375,2,3,3,2,-2.53,-0.74,-0.55,-6.52,-4.31,7.34
8.532104134559631,2,3,3,2,-3.41,0.21,-1.27,-7.07,-2.07,3.8
8.542104125022888,2,3,3,2,-4.07,0.4,-1.86,-7.14,0.1,1.05
8.552104115486145,2,3,3,2,-4.12,0.25,-1.83,-4.66,2.17,-1.08
8.562104105949402,2,3,3,2,-3.71,-0.16,-1.39,-0.95,3.91,-3.38
8.572104096412659,2,3,3,2,-2.91,-0.65,-2.07,1.01,5.28,-5.43
8.612104058265686,2,3,3,2,-1.52,-0.93,0.07000000000000001,0.83,1.83,-5.96
8.622104048728943,2,3,3,2,1.21,-0.85,-0.28,-1.34,0.89,-6.51
8.6321040391922,2,3,3,2,1.79,-0.89,-0.73,-1.95,0.21,-5.69
8.642104029655457,2,3,3,2,1.88,-0.83,-0.62,-1.36,0.85,-4.93
8.653103947639465,2,3,3,2,1.88,-0.83,-0.62,-1.25,2.06,-4.15
8.663103938102722,2,3,3,2,1.9,0.72,-0.37,-1.1,3.1,-2.73
8.673103928565979,2,3,3,2,1.54,1.61,-0.32,0.3,3.65,-0.67
8.683104157447815,2,3,3,2,0.49,1.15,0.91,1.6,3.14,1.74
8.693104147911072,2,3,3,2,-1.25,-0.09,2.67,3.07,1.19,4.65
8.703104138374329,2,3,3,2,-3.94,-1.74,2.54,3.51,-0.51,7.65
8.713104128837585,2,3,3,2,-5.35,-3.71,3.71,-0.49,-4.76,9.56
8.723104119300842,2,3,3,2,-7.46,-16.03,5.66,-0.02,-12.05,12.35
8.733104109764099,2,3,3,2,-5.53,-30.71,-14.41,3.07,-16.92,15.04
8.743104100227356,2,3,3,2,-38.89,-16.77,-12.98,5.24,-17.99,16.91
8.753104090690613,2,3,3,2,-39.07,29.3,-11.52,-4.75,-2.4,7.73
8.76310408115387,2,3,3,2,-39.07,29.3,-11.52,-7.35,-10.62,4.56
8.773104071617126,2,3,3,2,-26,2.85,2.99,-2.76,3.88,8.51
8.783104062080383,2,3,3,2,-22.69,8.640000000000001,3.43,-1.44,2.05,16.01
8.79310405254364,2,3,3,2,-20.64,6.44,0.9399999999999999,-10.92,-5.69,10.27
8.803104043006897,2,3,3,2,-20.64,6.44,0.9399999999999999,-16.57,-0.83,6.3
8.813104033470154,2,3,3,2,-26.6,-0.58,-2.12,-8.69,-0.51,10.58
8.823104023933411,2,3,3,2,-15.98,0.37,0.96,-3.89,-2.11,11.86
8.833104014396667,2,3,3,2,-9.94,3.02,2.2,-3.91,-0.7,8.33
8.843104004859924,2,3,3,2,-25.99,-4.29,-1.67,-3.2,4.96,0.96
8.853103995323181,2,3,3,2,-23.67,-0.82,-4.07,-0.91,3.96,-3.28
8.863103985786438,2,3,3,2,-18.55,0.96,-3.4,5.53,-2.78,-1.03
8.873103976249695,2,3,3,2,-15.28,1.1,-1.39,12.36,-3.17,-0.87
8.883103966712952,2,3,3,2,-13.17,-0.17,1.87,12.04,-0.68,-2.47
8.893103957176208,2,3,3,2,-12.11,0.39,1.48,8.449999999999999,0.95,-3.12
8.903103947639465,2,3,3,2,-11,1.02,1.25,5.15,1.71,-3.45
8.913103938102722,2,3,3,2,-9.4,-0.02,-0.63,2.04,2.48,-4.83
8.923103928565979,2,3,3,2,-8.51,-0.49,-1.01,-1.06,3.28,-5.86
8.933104157447815,2,3,3,2,-7.37,-0.76,-1.03,-3.14,3.4,-5.83
8.943104147911072,2,3,3,2,-6.2,-1.19,-0.77,-4.37,3.84,-5.36
8.953104138374329,2,3,3,2,-6.2,-1.19,-0.77,-4.97,5.82,-4.97
8.963104128837585,2,3,3,2,-5.65,-2.05,-1.59,-4.82,7.56,-4.28
8.973104119300842,2,3,3,2,-5.84,-3.11,-1.61,-3.11,8.32,-3.67
8.983104109764099,2,3,3,2,-6.1,-3.32,-1.47,-1.55,7.8,-4.02
8.993104100227356,2,3,3,2,-5.75,-2.66,-0.63,-0.08,6.12,-4.18
9.003104090690613,2,3,3,2,-5.75,-2.66,-0.63,0.95,3.19,-3.56
9.01310408115387,2,3,3,2,-5.16,-1.92,-0.43,1.93,0.46,-2.44
9.023104071617126,2,3,3,2,-5.09,-1.16,-0.36,3.47,-1.45,-1.61
9.033104062080383,2,3,3,2,-4.95,-0.7,0.46,4.67,-2.87,-1.27
9.04310405254364,2,3,3,2,-4.77,-0.58,0.61,4.82,-3.75,-1.56
9.053104043006897,2,3,3,2,-4.77,-0.58,0.61,4.29,-3.75,-2
9.063104033470154,2,3,3,2,-4.5,-0.29,0.58,3.27,-3.15,-2.3
9.073104023933411,2,3,3,2,-6.09,0.3,0.17,1.81,-2.37,-1.94
9.083104014396667,2,3,3,2,-7.24,0.03,-0.57,0.34,-1.65,-1.5
9.093104004859924,2,3,3,2,-8.869999999999999,-0.28,-0.88,-1.21,-1.17,-1.42
9.103103995323181,2,3,3,2,-8.869999999999999,-0.28,-0.88,-3.15,-1.22,-1.5
9.113103985786438,2,3,3,2,-11.68,-1,-1.9,-4.18,-1.57,-1.31
9.123103976249695,2,3,3,2,-12.25,-1.23,-2,-3.83,-2.42,-0.9
9.133103966712952,2,3,3,2,-11.9,-1.05,-1.27,-3.26,-2.72,-0.28
9.143103957176208,2,3,3,2,-10.72,-0.62,-0.22,-3.1,-2.67,0.53
9.153103947639465,2,3,3,2,-10.72,-0.62,-0.22,-3.1,-2.67,0.53
9.163103938102722,2,3,3,2,-10.46,-0.53,-0.25,-3.18,-2.58,1.1
9.173103928565979,2,3,3,2,-10.86,-0.54,0.11,-3.7,-2.03,1.44
9.183104157447815,2,3,3,2,-10.7,-0.62,-0.06,-3.84,-1.6,1.26
9.193104147911072,2,3,3,2,-10.36,-0.68,-0.25,-3.96,-0.93,0.8
9.203104138374329,2,3,3,2,-10.36,-0.68,-0.25,-3.96,-0.93,0.8
9.213104128837585,2,3,3,2,-10.1,-0.76,-0.13,-3.49,-0.3,0.07000000000000001
9.223104119300842,2,3,3,2,-9.140000000000001,-0.78,-1.14,-2.09,0.7,-1.71
9.233104109764099,2,3,3,2,-9.06,-0.79,-1.25,-0.93,1.06,-2.53
9.243104100227356,2,3,3,2,-9.1,-0.73,-1.17,0.39,1.39,-3.24
9.253104090690613,2,3,3,2,-9.1,-0.73,-1.17,0.39,1.39,-3.24
9.26310408115387,2,3,3,2,-9.16,-0.71,-1.09,1.38,1.8,-3.85
9.273104071617126,2,3,3,2,-9.24,-0.78,-0.4,2.2,2.78,-4.59
9.283104062080383,2,3,3,2,-9.17,-0.73,-0.25,2.23,2.81,-4.69
9.29310405254364,2,3,3,2,-8.85,-0.92,-0.2,2.04,2.76,-4.42
9.303104043006897,2,3,3,2,-8.85,-0.92,-0.2,2.04,2.76,-4.42
9.313104033470154,2,3,3,2,-8.699999999999999,-1.14,-0.29,1.76,2.52,-3.88
9.323104023933411,2,3,3,2,-8.630000000000001,-1.46,-0.68,0.72,1.84,-2.56
9.333104014396667,2,3,3,2,-8.720000000000001,-1.7,-0.89,0.35,1.56,-1.85
9.343104004859924,2,3,3,2,-8.789999999999999,-1.81,-0.9399999999999999,0.11,1.32,-1.13
9.353103995323181,2,3,3,2,-8.789999999999999,-1.81,-0.9399999999999999,0.11,1.32,-1.13
9.363103985786438,2,3,3,2,-8.92,-1.85,-0.99,0.25,0.97,0.18
9.373103976249695,2,3,3,2,-9.52,-1.87,-1.27,0.23,0.73,0.68
9.383103966712952,2,3,3,2,-9.67,-1.84,-1.19,0.13,0.52,1.03
9.393103957176208,2,3,3,2,-9.869999999999999,-1.81,-0.96,-0.02,0.31,1.28
9.403103947639465,2,3,3,2,-9.869999999999999,-1.81,-0.96,-0.02,0.31,1.28
9.413103938102722,2,3,3,2,-9.960000000000001,-1.84,-0.78,-0.03,0.23,1.45
9.423103928565979,2,3,3,2,-9.85,-1.67,-0.48,-0.26,-0.18,1.76
9.433104157447815,2,3,3,2,-9.69,-1.49,-0.43,-0.3,-0.22,1.85
9.453104138374329,2,3,3,2,-9.48,-1.42,-0.55,-0.15,-0.22,2.01
9.463104128837585,2,3,3,2,-9.140000000000001,-1.34,-0.5600000000000001,0.16,-0.31,2.22
9.473104119300842,2,3,3,2,-8.970000000000001,-1.21,-0.75,0.83,-0.5600000000000001,2.4
9.483104109764099,2,3,3,2,-8.81,-1.13,-0.47,1.14,-0.6,2.47
9.493104100227356,2,3,3,2,-8.84,-1.06,-0.31,1.43,-0.55,2.52
9.503104090690613,2,3,3,2,-8.84,-1.06,-0.31,1.43,-0.55,2.52
9.51310408115387,2,3,3,2,-8.92,-0.92,-0.14,1.59,-0.45,2.6
9.523104071617126,2,3,3,2,-9.33,-0.8100000000000001,-0.36,1.81,-0.38,2.88
9.533104062080383,2,3,3,2,-9.460000000000001,-0.85,-0.33,1.47,-0.12,2.83
9.54310405254364,2,3,3,2,-9.42,-0.9,-0.24,1.15,-0.02,2.66
9.553104043006897,2,3,3,2,-9.42,-0.9,-0.24,1.15,-0.02,2.66
9.563104033470154,2,3,3,2,-9.33,-0.86,-0.35,0.75,0.09,2.4
9.573104023933411,2,3,3,2,-8.550000000000001,-1.19,-0.8,0.31,0.51,1.88
9.583104014396667,2,3,3,2,-8.17,-1.18,-0.78,0.01,1.05,1.62
9.593104004859924,2,3,3,2,-7.79,-1.17,-0.62,-0.36,1.55,1.43
9.603103995323181,2,3,3,2,-7.79,-1.17,-0.62,-0.36,1.55,1.43
9.613103985786438,2,3,3,2,-7.4,-1.1,-0.15,-0.22,1.89,1.43
9.623103976249695,2,3,3,2,-7.48,-1.09,0.08,0.75,1.99,1.58
9.633103966712952,2,3,3,2,-7.85,-1.09,0.11,0.92,1.73,1.45
9.643103957176208,2,3,3,2,-8.23,-1,-0.16,0.85,1.29,1.16
9.653103947639465,2,3,3,2,-8.970000000000001,-1.11,-0.93,0.85,1.29,1.16
9.663103938102722,2,3,3,2,-8.92,-1.19,-1.35,0.71,0.65,0.76
9.673103928565979,2,3,3,2,-8.5,-1.29,-1.69,0.17,-0.4,-0.03
9.684104084968567,2,3,3,2,-7.85,-1.25,-1.87,-0.3,-0.6899999999999999,-0.49
9.694104075431824,2,3,3,2,-7.04,-0.62,-0.85,-0.6,-0.8,-0.96
9.704104065895081,2,3,3,2,-6.64,-0.38,-0.45,-0.6,-0.8,-0.96
9.714104056358337,2,3,3,2,-6.1,-0.25,-0.29,-1.14,-0.8100000000000001,-1.3
9.724104046821594,2,3,3,2,-5.97,-0.14,0.42,-0.9,-1.58,-0.53
9.734104037284851,2,3,3,2,-6.4,-0.04,0.5600000000000001,-0.8,-1.76,0.03
9.744104027748108,2,3,3,2,-6.84,0.17,0.2,-0.5600000000000001,-2.35,0.91
9.754104018211365,2,3,3,2,-7.56,0.2,0,-0.5600000000000001,-2.35,0.91
9.764104008674622,2,3,3,2,-8.85,-0.01,-0.62,-0.3,-3.1,1.76
9.774103999137878,2,3,3,2,-9.24,-0.22,-0.93,-1.33,-3.08,2.18
9.784103989601135,2,3,3,2,-9.48,-0.42,-0.97,-2.02,-2.82,1.89
9.794103980064392,2,3,3,2,-9.27,-0.58,-0.67,-2.72,-2.85,1.62
9.804103970527649,2,3,3,2,-8.289999999999999,-0.1,-0.12,-2.72,-2.85,1.62
9.814103960990906,2,3,3,2,-7.88,0.77,0.04,-2.89,-3.09,1.79
9.824103951454163,2,3,3,2,-8.109999999999999,1.22,0.71,-1.8,-5.54,2.97
9.844103932380676,2,3,3,2,-9.93,1.98,0.66,-1.38,-4.64,3.21
9.854103922843933,2,3,3,2,-10.75,2.04,0.43,-1.38,-4.64,3.21
9.864104151725769,2,3,3,2,-11.33,1.78,0.14,-1.19,-3.98,2.78
9.874104142189026,2,3,3,2,-11.53,1.28,0.26,-1.35,-2.82,2.44
9.884104132652283,2,3,3,2,-11,0.45,0.41,-1.67,-2.53,2.55
9.89410412311554,2,3,3,2,-10.99,0.31,0.55,-1.95,-2.24,2.74
9.904104113578796,2,3,3,2,-11.34,0.27,0.71,-1.95,-2.24,2.74
9.914104104042053,2,3,3,2,-13.15,0.72,0.97,-1.94,-1.84,3.06
9.92410409450531,2,3,3,2,-14.22,1.15,0.9399999999999999,-1.16,-1.7,3.17
9.934104084968567,2,3,3,2,-15.63,1.59,0.49,-0.53,-1.68,2.85
9.944104075431824,2,3,3,2,-17.09,1.85,0.23,-0.37,-1.86,2.3
9.954104065895081,2,3,3,2,-18.86,1.79,-0.17,-0.37,-1.86,2.3
9.964104056358337,2,3,3,2,-18.87,1.44,0.07000000000000001,-0.53,-1.7,2.25
9.984104037284851,2,3,3,2,-18.53,1.04,0.62,-2.48,-1.91,1.4
10.05410397052765,2,3,3,2,-21.3,1.86,0.18,-1.85,-4.43,-1.15
10.06410396099091,2,3,3,2,-21.29,2,0.24,-1.09,-4.01,-1.22
10.07410395145416,2,3,3,2,-20.86,1.38,1.45,0.13,-3.03,-2.67
10.08410394191742,2,3,3,2,-20.11,0.87,1.85,1.32,-2.31,-3.48
10.09410393238068,2,3,3,2,-19.27,0.4,1.92,3.21,-0.48,-4.31
10.10410392284393,2,3,3,2,-17.84,-0.93,1.16,3.21,-0.48,-4.31
10.11410415172577,2,3,3,2,-17.23,-2.07,0.73,5.44,2.18,-5.1
10.12410414218903,2,3,3,2,-16.59,-3.05,0.04,8.699999999999999,6.78,-7.35
10.13410413265228,2,3,3,2,-15.9,-3.59,-0.62,9.07,7.82,-8.01
10.14410412311554,2,3,3,2,-13.8,-4.2,-1.04,8.81,8.1,-8.19
10.1541041135788,2,3,3,2,-12.43,-4.06,-0.6899999999999999,8.81,8.1,-8.19
10.16410410404205,2,3,3,2,-10.97,-3.56,-0.28,8.380000000000001,7.7,-8.25
10.17410409450531,2,3,3,2,-9.4,-3,-0.78,4.58,7.52,-8.720000000000001
10.18410408496857,2,3,3,2,-5.31,-2.22,-1.5,1.61,8.32,-9.56
10.19410407543182,2,3,3,2,-3.18,-2.64,-1.32,0.22,8.66,-10.24
10.20410406589508,2,3,3,2,-1.51,-3.4,-1.19,0.22,8.66,-10.24
10.21410405635834,2,3,3,2,0.39,-4.45,-0.92,0.11,9.01,-10.77
10.22410404682159,2,3,3,2,2.59,-5.54,-1.35,-1.78,10.6,-11.4
10.23410403728485,2,3,3,2,3.36,-5.05,-2.18,-0.24,9.74,-9.32
10.24410402774811,2,3,3,2,3.92,-3.57,-1.78,2.78,8.369999999999999,-5.39
10.25410401821136,2,3,3,2,4.24,-1.72,-0.87,2.78,8.369999999999999,-5.39
10.26410400867462,2,3,3,2,3.18,1.43,1.38,5.62,7.37,-1.33
10.27410399913788,2,3,3,2,2.46,2.31,1.58,5.85,5.55,4.36
10.28410398960114,2,3,3,2,1.73,2.94,1.07,5.72,1.33,7.49
10.29410398006439,2,3,3,2,1.1,3.04,1.3,5.2,-4.69,9.960000000000001
10.30410397052765,2,3,3,2,1.4,2.32,0.72,5.2,-4.69,9.960000000000001
10.31410396099091,2,3,3,2,1.53,1.38,0.68,3.06,-9.619999999999999,12.03
10.32410395145416,2,3,3,2,1.59,0.43,1.01,-0.38,-13.72,15.45
10.33410394191742,2,3,3,2,0.75,0,1.06,-1.78,-12.03,15.9
10.34410393238068,2,3,3,2,-0.61,0.28,1.3,-2.98,-9.140000000000001,14.58
10.35410392284393,2,3,3,2,-1.66,0.46,1.29,-2.98,-9.140000000000001,14.58
10.36410415172577,2,3,3,2,-2.51,0.55,0.5600000000000001,-4.21,-5.58,10.79
10.37410414218903,2,3,3,2,-3.24,0.28,-0.25,-3.84,0.9399999999999999,1.97
10.38410413265228,2,3,3,2,-3.06,0.37,-0.16,-4.69,2.85,-1.89
10.39410412311554,2,3,3,2,-2.98,0.38,-0.33,-4.98,3.87,-5
10.4041041135788,2,3,3,2,-2.66,0,-0.05,-4.98,3.87,-5
10.41410410404205,2,3,3,2,-1.4,-0.25,0.18,-4.38,4.03,-6.78
10.42410409450531,2,3,3,2,-0.37,-0.34,-0.37,-1.47,3.27,-6.11
10.43410408496857,2,3,3,2,0.18,-0.35,-0.35,0.59,3.31,-4.77
10.44410407543182,2,3,3,2,0.2,-0.5,0.12,0.44,3.38,-3.47
10.45410406589508,2,3,3,2,-0.52,-0.1,0.77,0.44,3.38,-3.47
10.46410405635834,2,3,3,2,-0.13,0.21,0.3,-1.07,2.63,-2.48
10.47410404682159,2,3,3,2,0.15,0.41,0.41,-0.02,0.86,-0.63
10.48410403728485,2,3,3,2,0.13,0.59,0.54,0.52,0.28,-0.1
10.49410402774811,2,3,3,2,0.66,0.93,0.99,0.62,-0.12,0.54
10.50410401821136,2,3,3,2,0.55,0.85,1.15,0.62,-0.12,0.54
10.51410400867462,2,3,3,2,0.83,0.06,0.4,0.5600000000000001,-0.45,1.64
10.52410399913788,2,3,3,2,-2.31,-1.1,1.51,-2.15,0.64,4.5
10.53410398960114,2,3,3,2,-3.59,-0.59,3.05,-2.2,-5.57,7.05
10.54410398006439,2,3,3,2,-4.21,-2.51,2.19,-3.84,-9.720000000000001,9.09
10.55410397052765,2,3,3,2,-6.53,-4.71,-0.45,-3.84,-9.720000000000001,9.09
10.56410396099091,2,3,3,2,-22.34,-11.62,-0.32,-3.67,-12.28,11.79
10.57410395145416,2,3,3,2,-39.07,-22.2,-10.96,-7.63,-7.14,3.86
10.58410394191742,2,3,3,2,-39.07,-0.41,-24.32,2.43,-24.16,-1.9
10.59410393238068,2,3,3,2,-36.37,14.17,5.74,-4.74,-7.32,5.96
10.60410392284393,2,3,3,2,-18.96,2.1,4.53,-4.74,-7.32,5.96
10.61410415172577,2,3,3,2,-18.49,4.98,0.47,-16.79,-2.53,5.78
10.62410414218903,2,3,3,2,-11.91,7.29,5.45,-8.77,-5.4,4.37
10.63410413265228,2,3,3,2,-17.44,5.36,6.56,-9.380000000000001,0.41,6.9
10.64410412311554,2,3,3,2,-27.87,-1.73,1.33,-6.52,2.06,9.32
10.6541041135788,2,3,3,2,-24.92,-0.29,3.48,-6.52,2.06,9.32
10.66410410404205,2,3,3,2,-18.8,1.18,1.78,-4.02,0.74,6.8
10.67410409450531,2,3,3,2,-15.94,1.41,0.64,-0.61,5.09,0.03
10.68410408496857,2,3,3,2,-18.19,0.14,-0.38,2.93,8.470000000000001,-5.06
10.69410407543182,2,3,3,2,-21.07,-2.43,-1.83,7.57,6.33,-5.92
10.70510399341583,2,3,3,2,-20.21,-2.22,-1.99,7.57,6.33,-5.92
10.71510398387909,2,3,3,2,-12.75,0.29,-0.21,12.84,1.65,-2.75
10.72510397434235,2,3,3,2,-9.800000000000001,0.73,0.79,14.9,2.83,-1.63
10.7351039648056,2,3,3,2,-8.24,1.11,1.35,12.6,4.59,-2.55
10.74510395526886,2,3,3,2,-7.26,1.93,1.68,9.26,5.39,-4.14
10.75510394573212,2,3,3,2,-5.73,2.05,2.06,9.26,5.39,-4.14
10.76510393619537,2,3,3,2,-5.77,1.62,1.94,5.48,5.94,-6.25
10.77510392665863,2,3,3,2,-5.55,1.17,1.12,1.1,6.06,-7.36
10.78510415554047,2,3,3,2,-5.16,0.92,1.29,-0.72,5.68,-6.65
10.80510413646698,2,3,3,2,-4.53,-0.31,0.85,-1.71,5.85,-5.74
10.81510412693024,2,3,3,2,-3.9,-1.12,0.39,-2.88,5.21,-5.64
10.82510411739349,2,3,3,2,-3.68,-1.87,0.27,-3.08,2.82,-4.66
10.83510410785675,2,3,3,2,-3.5,-3.19,-0.76,-2.18,2.18,-4.39
10.84510409832001,2,3,3,2,-3.4,-3.21,-1.16,-1.41,1.61,-3.97
10.85510408878326,2,3,3,2,-4.06,-2.73,-0.71,-1.41,1.61,-3.97
10.86510407924652,2,3,3,2,-5.12,-2.22,-0.32,-0.12,1.13,-3.06
10.87510406970978,2,3,3,2,-7.69,-1.53,-0.58,1.42,-1.63,0.2
10.88510406017303,2,3,3,2,-8.630000000000001,-1.3,-0.53,1.51,-2.99,1.4
10.89510405063629,2,3,3,2,-9.82,-0.98,-0.72,1.45,-3.99,1.88
10.90510404109955,2,3,3,2,-11.26,-0.61,-0.77,1.45,-3.99,1.88
10.91510403156281,2,3,3,2,-11.5,-0.01,-0.39,1.8,-4.34,1.93
10.92510402202606,2,3,3,2,-11.33,0.6899999999999999,0.02,1.28,-3.53,1.62
10.93510401248932,2,3,3,2,-11.44,0.96,0.44,-0.25,-2.95,1.29
10.94510400295258,2,3,3,2,-10.82,1.29,0.12,-1.75,-2.68,0.72
10.95510399341583,2,3,3,2,-10.43,1.15,-0.08,-1.75,-2.68,0.72
10.96510398387909,2,3,3,2,-10.19,0.83,0.15,-2.81,-2.22,0.17
10.97510397434235,2,3,3,2,-10.16,0.61,0.4,-4.23,-0.51,-0.24
10.9851039648056,2,3,3,2,-10.14,0.27,-0.73,-4.25,0.22,-0.31
10.99510395526886,2,3,3,2,-10.14,0.07000000000000001,-0.59,-3.6,0.9,-0.65
11.00510394573212,2,3,3,2,-10.04,-0.02,-0.59,-3.6,0.9,-0.65
11.01510393619537,2,3,3,2,-9.92,-0.1,-0.23,-3.06,1.44,-1.07
11.02510392665863,2,3,3,2,-9.24,-0.2,-0.4,-2.77,1.76,-1.52
11.03510415554047,2,3,3,2,-8.960000000000001,-0.32,-0.34,-2.55,1.8,-1.72
11.04510414600372,2,3,3,2,-8.74,-0.53,-0.22,-2.11,1.64,-1.86
11.05510413646698,2,3,3,2,-8.57,-0.68,-0.01,-1.78,1.3,-2.14
11.06510412693024,2,3,3,2,-8.67,-1.06,0.06,-1.59,0.96,-2.37
11.07510411739349,2,3,3,2,-8.66,-1.08,-0.36,-0.82,0.66,-2.56
11.08510410785675,2,3,3,2,-8.82,-1.09,-0.51,-0.82,0.66,-2.56
11.09510409832001,2,3,3,2,-9.18,-0.6899999999999999,-0.8,-0.08,0.5600000000000001,-2.55
11.10510408878326,2,3,3,2,-9.449999999999999,-0.5600000000000001,-0.88,0.57,0.44,-2.42
11.11510407924652,2,3,3,2,-9.789999999999999,-0.46,-0.9399999999999999,1.09,0.39,-2.07
11.12510406970978,2,3,3,2,-9.98,-0.45,-0.91,1.4,0.48,-1.55
11.13510406017303,2,3,3,2,-10.22,-0.48,-0.78,1.25,0.43,-1.03
11.14510405063629,2,3,3,2,-10.13,-0.51,-0.76,0.73,0.31,-0.5600000000000001
11.15510404109955,2,3,3,2,-9.960000000000001,-0.48,-0.5,0.08,0.02,-0.06
11.16510403156281,2,3,3,2,-9.73,-0.46,-0.27,-0.54,-0.53,0.41
11.17510402202606,2,3,3,2,-9.76,-0.4,-0.55,-1.03,-0.89,0.75
11.18510401248932,2,3,3,2,-9.84,-0.36,-0.55,-1.32,-1.03,0.93
11.19510400295258,2,3,3,2,-9.77,-0.43,-0.47,-1.28,-0.93,0.93
11.20510399341583,2,3,3,2,-9.779999999999999,-0.39,-0.37,-0.99,-0.71,0.91
11.21510398387909,2,3,3,2,-9.81,-0.3,-0.41,-0.46,-0.5,0.87
11.22510397434235,2,3,3,2,-9.83,-0.28,-0.45,0.24,-0.17,0.8100000000000001
11.2351039648056,2,3,3,2,-9.9,-0.23,-0.55,0.8100000000000001,0.03,0.74
11.24510395526886,2,3,3,2,-9.85,-0.17,-0.53,1.31,0.09,0.58
11.25510394573212,2,3,3,2,-9.73,0,-0.28,1.6,0.2,0.42
11.26510393619537,2,3,3,2,-9.69,0,-0.25,1.55,0.28,0.1
11.27510392665863,2,3,3,2,-9.65,-0.04,-0.4,1.18,0.41,-0.23
11.28510415554047,2,3,3,2,-9.6,-0.19,-0.52,0.77,0.53,-0.59
11.29510414600372,2,3,3,2,-9.539999999999999,-0.44,-0.63,0.39,0.73,-0.91
11.30510413646698,2,3,3,2,-9.640000000000001,-0.54,-0.65,0.09,0.98,-1.09
11.31510412693024,2,3,3,2,-9.67,-0.78,-0.66,-0.12,1.16,-1.21
11.32510411739349,2,3,3,2,-9.859999999999999,-1.05,-0.64,-0.11,1.17,-1.22
11.33510410785675,2,3,3,2,-9.73,-1.1,-0.65,0.08,0.99,-1.19
11.34510409832001,2,3,3,2,-9.710000000000001,-1.12,-0.4,0.47,0.86,-1.04
11.35510408878326,2,3,3,2,-9.57,-1.08,-0.4,0.77,0.8,-0.92
11.36510407924652,2,3,3,2,-9.609999999999999,-0.91,-0.35,0.8,0.64,-0.74
11.37610399723053,2,3,3,2,-9.68,-0.84,-0.32,0.83,0.5,-0.53
11.38510406017303,2,3,3,2,-9.67,-0.82,-0.36,0.8100000000000001,0.38,-0.31
11.39510405063629,2,3,3,2,-9.68,-0.6899999999999999,-0.39,0.64,0.32,-0.15
11.40510404109955,2,3,3,2,-9.58,-0.47,-0.29,0.42,0.27,-0.07000000000000001
11.42510402202606,2,3,3,2,-9.630000000000001,-0.47,-0.27,-0.23,0.29,0.01
11.43510401248932,2,3,3,2,-9.800000000000001,-0.54,-0.43,-0.73,0.18,0.01
11.44510400295258,2,3,3,2,-10.03,-0.8100000000000001,-0.58,-1.04,0.03,-0.03
11.45510399341583,2,3,3,2,-10.01,-1.01,-0.55,-1.14,0.04,0.02
11.46510398387909,2,3,3,2,-9.94,-1.15,-0.43,-0.9399999999999999,0.06,0.02
11.47510397434235,2,3,3,2,-9.789999999999999,-1.22,-0.39,-0.67,0.13,-0.01
11.4851039648056,2,3,3,2,-9.529999999999999,-1.29,-0.4,-0.37,0.2,-0.02
11.49610412120819,2,3,3,2,-9.460000000000001,-1.2,-0.39,-0.1,0.2,0.02
11.50510394573212,2,3,3,2,-9.460000000000001,-1.15,-0.39,0.38,0.07000000000000001,0.08
11.51510393619537,2,3,3,2,-9.58,-1.19,-0.33,0.88,0.03,0.11
11.52510392665863,2,3,3,2,-9.640000000000001,-1.19,-0.14,1.25,-0.05,0.11
11.53510415554047,2,3,3,2,-9.529999999999999,-1.09,-0.52,1.32,-0.24,0.12
11.54510414600372,2,3,3,2,-9.57,-1.11,-0.6,1.39,-0.43,0.25
11.55510413646698,2,3,3,2,-9.630000000000001,-1.07,-0.58,1.63,-0.35,0.29
11.56510412693024,2,3,3,2,-9.66,-0.98,-0.63,1.77,-0.09,0.31
11.57510411739349,2,3,3,2,-9.76,-0.93,-0.29,1.81,0.1,0.35
11.58510410785675,2,3,3,2,-9.77,-0.8,-0.04,1.69,0.22,0.37
11.59510409832001,2,3,3,2,-9.82,-0.84,-0.49,1.2,0.15,0.45
11.60510408878326,2,3,3,2,-9.880000000000001,-0.85,-0.53,1.18,0.09,0.58
11.61510407924652,2,3,3,2,-9.859999999999999,-0.89,-0.52,1.4,0.25,0.53
11.62510406970978,2,3,3,2,-9.81,-0.9399999999999999,-0.5,1.69,0.3,0.45
11.63510406017303,2,3,3,2,-9.699999999999999,-1.1,-0.7,1.89,0.47,0.25
11.64510405063629,2,3,3,2,-9.58,-1.14,-0.44,2.09,0.55,0.05
11.65510404109955,2,3,3,2,-9.58,-1.1,-0.26,2.22,0.32,-0.09
11.66510403156281,2,3,3,2,-9.550000000000001,-1.04,-0.32,2.17,0.13,-0.25
11.67510402202606,2,3,3,2,-9.75,-1.04,-0.44,2.14,-0.07000000000000001,-0.27
11.68510401248932,2,3,3,2,-9.609999999999999,-1.07,-0.31,1.95,-0.1,-0.21
11.69510400295258,2,3,3,2,-9.720000000000001,-1.04,-0.49,1.77,-0.12,-0.12
11.70510399341583,2,3,3,2,-9.98,-1.11,-0.54,1.54,-0.16,0
11.71510398387909,2,3,3,2,-9.69,-0.85,-0.41,1.47,-0.28,0.14
11.72610414028168,2,3,3,2,-9.83,-0.84,-0.32,1.57,-0.39,0.24
11.73610413074493,2,3,3,2,-9.470000000000001,-0.78,-0.14,1.65,-0.32,0.31
11.74610412120819,2,3,3,2,-9.529999999999999,-0.7,-0.34,1.43,-0.17,0.28
11.75610411167145,2,3,3,2,-9.75,-0.68,-0.44,1.17,0.03,0.13
11.7661041021347,2,3,3,2,-9.82,-0.8100000000000001,-0.31,1.08,0.09,-0.08
11.77610409259796,2,3,3,2,-9.67,-0.62,-0.3,1.22,0.05,-0.29
11.78610408306122,2,3,3,2,-9.710000000000001,-0.89,-0.33,1.24,0.13,-0.45
11.79610407352448,2,3,3,2,-9.6,-0.92,-0.28,1.17,0.28,-0.59
11.82610404491425,2,3,3,2,-9.67,-0.98,-0.44,0.34,0.36,-0.92
11.8361040353775,2,3,3,2,-9.75,-1.05,-0.48,0.18,0.27,-0.8
11.84610402584076,2,3,3,2,-9.76,-1.08,-0.33,0.13,0.1,-0.7
11.85610401630402,2,3,3,2,-9.76,-1.13,-0.14,0.09,-0.05,-0.54
11.86610400676727,2,3,3,2,-9.69,-1.11,-0.23,0.13,-0.19,-0.35
11.87610399723053,2,3,3,2,-9.68,-1.04,-0.24,0.3,-0.36,-0.1
11.88610398769379,2,3,3,2,-9.67,-0.96,-0.23,0.64,-0.49,0.11
11.89610397815704,2,3,3,2,-9.59,-0.8,-0.13,1.05,-0.48,0.27
11.9061039686203,2,3,3,2,-9.619999999999999,-0.72,0,1.41,-0.41,0.36
11.91610395908356,2,3,3,2,-9.68,-0.66,-0.12,1.57,-0.31,0.37
11.92610394954681,2,3,3,2,-9.75,-0.59,-0.18,1.65,-0.19,0.33
11.93610394001007,2,3,3,2,-9.869999999999999,-0.53,-0.29,1.63,-0.1,0.25
11.94610393047333,2,3,3,2,-9.83,-0.52,-0.25,1.62,0.01,0.21
11.95610392093658,2,3,3,2,-9.81,-0.45,-0.19,1.55,0.05,0.16
11.96610414981842,2,3,3,2,-9.73,-0.4,-0.3,1.27,0.11,0.1
11.97610414028168,2,3,3,2,-9.619999999999999,-0.4,-0.42,1.14,0.26,-0.01
11.98610413074493,2,3,3,2,-9.640000000000001,-0.33,-0.49,0.99,0.38,-0.19
11.99610412120819,2,3,3,2,-9.66,-0.34,-0.47,0.86,0.49,-0.38
12.00610411167145,2,3,3,2,-9.65,-0.39,-0.48,0.65,0.5,-0.55
12.0161041021347,2,3,3,2,-9.5,-0.51,-0.5,0.31,0.41,-0.72
12.02610409259796,2,3,3,2,-9.76,-0.58,-0.42,0.08,0.33,-0.8100000000000001
12.03610408306122,2,3,3,2,-9.59,-0.66,-0.61,-0.17,0.43,-0.79
12.04610407352448,2,3,3,2,-9.6,-0.77,-0.5600000000000001,-0.4,0.11,-0.83
12.05610406398773,2,3,3,2,-9.74,-0.9,-0.4,-0.55,0.07000000000000001,-0.73
12.06610405445099,2,3,3,2,-9.77,-0.98,-0.44,-0.65,-0.01,-0.61
12.07610404491425,2,3,3,2,-9.800000000000001,-1.05,-0.51,-0.71,-0.11,-0.38
12.0861040353775,2,3,3,2,-9.82,-1.08,-0.62,-0.67,-0.17,-0.15
12.09610402584076,2,3,3,2,-9.69,-1.15,-0.54,-0.61,-0.18,0.06
12.10610401630402,2,3,3,2,-9.630000000000001,-1.19,-0.5,-0.53,-0.2,0.21
12.11610400676727,2,3,3,2,-9.59,-1.17,-0.4,-0.5,-0.17,0.31
12.12610399723053,2,3,3,2,-9.640000000000001,-1.2,-0.4,-0.5,-0.07000000000000001,0.34
12.13610398769379,2,3,3,2,-9.68,-1.21,-0.48,-0.52,-0.01,0.35
12.14610397815704,2,3,3,2,-9.76,-1.22,-0.37,-0.38,0.05,0.35
12.1561039686203,2,3,3,2,-9.75,-1.17,-0.26,-0.23,0.09,0.29
12.16610395908356,2,3,3,2,-9.630000000000001,-1.12,-0.33,-0.16,0.14,0.21
12.17610394954681,2,3,3,2,-9.6,-1.1,-0.35,-0.07000000000000001,0.19,0.19
12.18610394001007,2,3,3,2,-9.65,-1.1,-0.42,-0.09,0.22,0.1
12.19610393047333,2,3,3,2,-9.640000000000001,-1.07,-0.37,-0.11,0.29,-0.06
12.20610392093658,2,3,3,2,-9.640000000000001,-1.04,-0.35,-0.15,0.36,-0.12
12.21610414981842,2,3,3,2,-9.66,-1.07,-0.38,-0.28,0.33,-0.19
12.22610414028168,2,3,3,2,-9.699999999999999,-1.06,-0.37,-0.35,0.27,-0.22
12.23610413074493,2,3,3,2,-9.68,-1.08,-0.54,-0.35,0.14,-0.19
12.24610412120819,2,3,3,2,-9.69,-1.15,-0.41,-0.34,-0.01,-0.11
12.25610411167145,2,3,3,2,-9.720000000000001,-1.12,-0.35,-0.31,-0.13,-0.02
12.2661041021347,2,3,3,2,-9.69,-1.1,-0.29,-0.33,-0.21,0.07000000000000001
12.27610409259796,2,3,3,2,-9.699999999999999,-1.06,-0.16,-0.41,-0.25,0.13
12.28610408306122,2,3,3,2,-9.69,-0.99,-0.14,-0.55,-0.26,0.2
12.29610407352448,2,3,3,2,-9.73,-0.98,-0.22,-0.65,-0.16,0.24
12.30610406398773,2,3,3,2,-9.75,-0.99,-0.26,-0.63,-0.12,0.23
12.31610405445099,2,3,3,2,-9.76,-1.04,-0.2,-0.52,0,0.15
12.32610404491425,2,3,3,2,-9.69,-1.09,-0.25,-0.44,0.04,0.05
12.3361040353775,2,3,3,2,-9.640000000000001,-1.14,-0.35,-0.36,0.02,0
12.34610402584076,2,3,3,2,-9.609999999999999,-1.12,-0.27,-0.24,0.02,0.02
12.35610401630402,2,3,3,2,-9.76,-1.08,-0.07000000000000001,-0.11,0.02,0.09
12.36610400676727,2,3,3,2,-9.75,-1.07,-0.12,0.03,0.12,0.08
12.37610399723053,2,3,3,2,-9.73,-1.13,-0.12,0.22,0.18,0.08
12.38610398769379,2,3,3,2,-9.710000000000001,-1.09,-0.16,0.38,0.1,0.07000000000000001
12.39610397815704,2,3,3,2,-9.640000000000001,-1.08,-0.17,0.45,0.06,0.13
12.4061039686203,2,3,3,2,-9.6,-1.11,-0.21,0.5600000000000001,0.06,0.12
12.41610395908356,2,3,3,2,-9.6,-1.08,-0.22,0.52,0.08,0.1
12.42610394954681,2,3,3,2,-9.59,-1.08,-0.28,0.45,0.11,0.07000000000000001
12.43610394001007,2,3,3,2,-9.67,-1.05,-0.52,0.43,0.12,0.03
12.44610393047333,2,3,3,2,-9.699999999999999,-0.97,-0.47,0.34,0.12,0
12.45610392093658,2,3,3,2,-9.76,-0.96,-0.46,0.34,0.07000000000000001,0
12.46610414981842,2,3,3,2,-9.81,-0.99,-0.42,0.28,-0.01,-0.01
12.47610414028168,2,3,3,2,-9.74,-1.05,-0.34,0.22,-0.01,-0.03
12.48610413074493,2,3,3,2,-9.68,-1.04,-0.43,0.16,-0.04,-0.04
12.49610412120819,2,3,3,2,-9.619999999999999,-0.99,-0.4,0.13,0,-0.05
12.50610411167145,2,3,3,2,-9.619999999999999,-0.96,0,0.11,0.11,-0.12
12.5161041021347,2,3,3,2,-9.630000000000001,-0.98,0.25,-0.05,0.37,-0.23
12.52610409259796,2,3,3,2,-9.56,-0.97,0.11,-0.29,0.73,-0.36
12.53610408306122,2,3,3,2,-9.5,-0.96,-0.26,-0.41,0.89,-0.29
12.54610407352448,2,3,3,2,-9.74,-0.8,-0.37,-0.49,0.64,-0.09
12.55610406398773,2,3,3,2,-9.91,-0.68,-0.34,-0.64,0.15,0.19
12.56610405445099,2,3,3,2,-9.99,-0.68,-0.34,-0.5,-0.29,0.48
12.57610404491425,2,3,3,2,-9.98,-0.73,-0.36,-0.02,-0.45,0.68
12.5861040353775,2,3,3,2,-9.76,-0.91,-0.3,0.29,-0.55,0.6899999999999999
12.59610402584076,2,3,3,2,-9.66,-0.89,-0.01,0.46,-0.5600000000000001,0.73
12.60610401630402,2,3,3,2,-9.6,-0.78,0.15,0.4,-0.47,0.74
12.61610400676727,2,3,3,2,-9.56,-0.68,0,0.43,-0.22,0.63
12.62610399723053,2,3,3,2,-9.630000000000001,-0.67,-0.17,0.36,0.04,0.38
12.63610398769379,2,3,3,2,-9.65,-0.74,-0.24,0.02,0.24,-0.01
12.64610397815704,2,3,3,2,-9.74,-0.8100000000000001,-0.14,-0.34,0.32,-0.36
12.6561039686203,2,3,3,2,-9.880000000000001,-0.85,0.07000000000000001,-0.79,0.28,-0.58
12.66610395908356,2,3,3,2,-9.76,-0.89,-0.71,-1.34,0.32,-0.73
12.67610394954681,2,3,3,2,-9.66,-1,-0.82,-1.59,0.35,-0.85
12.68610394001007,2,3,3,2,-9.6,-1.02,-0.71,-1.46,0.39,-0.87
12.69610393047333,2,3,3,2,-9.59,-0.98,-0.45,-1.17,0.43,-0.8100000000000001
12.70610392093658,2,3,3,2,-9.59,-0.93,-0.5600000000000001,-1.05,0.45,-0.65
12.71610414981842,2,3,3,2,-9.6,-0.96,-0.64,-1.04,0.39,-0.49
12.72610414028168,2,3,3,2,-9.609999999999999,-0.98,-0.61,-0.88,0.35,-0.31
12.73610413074493,2,3,3,2,-9.539999999999999,-1.08,-0.91,-0.74,0.3,-0.21
12.74610412120819,2,3,3,2,-9.539999999999999,-1.11,-0.8100000000000001,-0.66,0.25,-0.14
12.7571040391922,2,3,3,2,-9.6,-1.06,-0.72,-0.55,0.19,-0.05
12.76710402965546,2,3,3,2,-9.630000000000001,-1.03,-0.72,-0.45,0.19,-0.03
12.77710402011871,2,3,3,2,-9.720000000000001,-1.02,-0.68,-0.37,0.2,-0.01
12.78710401058197,2,3,3,2,-9.800000000000001,-1,-0.6899999999999999,-0.39,0.12,-0.05
12.79710400104523,2,3,3,2,-9.789999999999999,-1.02,-0.63,-0.39,0.07000000000000001,-0.04
12.80710399150848,2,3,3,2,-9.74,-1.07,-0.54,-0.36,0.04,-0.04
12.81710398197174,2,3,3,2,-9.66,-1.12,-0.42,-0.39,0,-0.05
12.827103972435,2,3,3,2,-9.6,-1.08,-0.44,-0.46,0.1,-0.1
12.83710396289825,2,3,3,2,-9.6,-1.07,-0.59,-0.48,0.1,-0.04
12.84710395336151,2,3,3,2,-9.68,-1.06,-0.62,-0.43,0.13,-0.01
12.85710394382477,2,3,3,2,-9.77,-1.02,-0.57,-0.44,0.11,-0.02
12.86710393428802,2,3,3,2,-9.76,-1.01,-0.48,-0.33,-0.01,0.03
12.87710392475128,2,3,3,2,-9.76,-0.95,-0.42,-0.23,-0.14,0.12
12.88710415363312,2,3,3,2,-9.76,-0.96,-0.47,-0.18,-0.12,0.12
12.89710414409637,2,3,3,2,-9.65,-1.1,-0.4,-0.09,-0.07000000000000001,0.06
12.90710413455963,2,3,3,2,-9.640000000000001,-1.17,-0.34,-0.03,-0.01,0.03
12.91710412502289,2,3,3,2,-9.630000000000001,-1.15,-0.37,0.12,0.09,0
12.92710411548615,2,3,3,2,-9.75,-1.08,-0.42,0.31,0.25,-0.13
12.9371041059494,2,3,3,2,-9.74,-1.06,-0.35,0.46,0.42,-0.27
12.94710409641266,2,3,3,2,-9.77,-0.99,-0.15,0.51,0.5,-0.42
12.95710408687592,2,3,3,2,-9.779999999999999,-0.87,-0.12,0.43,0.5600000000000001,-0.53
12.96710407733917,2,3,3,2,-9.779999999999999,-0.83,-0.31,0.39,0.3,-0.44
12.97710406780243,2,3,3,2,-9.74,-0.97,-0.33,0.45,0.14,-0.44
12.98710405826569,2,3,3,2,-9.65,-1.11,-0.45,0.35,0.11,-0.51
12.99710404872894,2,3,3,2,-9.58,-1.25,-0.38,0.35,0.07000000000000001,-0.57
13.0071040391922,2,3,3,2,-9.52,-1.41,-0.22,0.52,0.03,-0.49
13.01710402965546,2,3,3,2,-9.529999999999999,-1.37,-0.25,0.6899999999999999,0.04,-0.44
13.02710402011871,2,3,3,2,-9.6,-1.34,-0.26,0.8,0.1,-0.4
13.03710401058197,2,3,3,2,-9.6,-1.31,-0.41,0.87,0.24,-0.43
13.04710400104523,2,3,3,2,-9.699999999999999,-1.25,0.01,0.9,0.4,-0.53
13.05710399150848,2,3,3,2,-9.74,-1.14,0.15,0.83,0.59,-0.64
13.06710398197174,2,3,3,2,-9.65,-1.1,-0.07000000000000001,0.68,0.76,-0.78
13.077103972435,2,3,3,2,-9.57,-1.17,-0.24,0.65,0.78,-0.79
13.08710396289825,2,3,3,2,-9.630000000000001,-1.18,-0.28,0.6,0.83,-0.8
13.09710395336151,2,3,3,2,-9.619999999999999,-1.19,-0.11,0.65,0.84,-0.75
13.10710394382477,2,3,3,2,-9.66,-1.19,0.07000000000000001,0.8,0.84,-0.65
13.11710393428802,2,3,3,2,-9.69,-1.01,0.4,0.82,0.71,-0.51
13.12710392475128,2,3,3,2,-9.43,-1.02,-0.02,0.46,0.57,-0.42
13.13710415363312,2,3,3,2,-9.32,-1.03,-0.15,0.32,0.39,-0.26
13.14710414409637,2,3,3,2,-9.4,-0.95,0.22,0.04,0.33,-0.17
13.15710413455963,2,3,3,2,-9.300000000000001,-0.6899999999999999,-0.02,-0.57,0.22,-0.21
13.16710412502289,2,3,3,2,-9.5,-0.6899999999999999,0.06,-0.97,0.2,-0.17
13.17710411548615,2,3,3,2,-9.58,-0.72,0.14,-0.96,0.26,-0.1
13.1871041059494,2,3,3,2,-9.720000000000001,-0.65,0.11,-0.92,0.17,0.07000000000000001
13.19710409641266,2,3,3,2,-9.91,-0.78,0.11,-0.61,-0.52,0.76
13.20710408687592,2,3,3,2,-10.07,-0.88,0.24,0.26,-1.52,1.62
13.21710407733917,2,3,3,2,-10.04,-0.86,-0.06,0.84,-2,1.94
13.22710406780243,2,3,3,2,-10.07,-0.9,-0.22,1.15,-2.31,2
13.23710405826569,2,3,3,2,-10.24,-0.99,-0.17,1.4,-2.27,1.8
13.24710404872894,2,3,3,2,-10.31,-1.04,0.16,1.1,-1.77,1.15
13.2571040391922,2,3,3,2,-10,-0.95,0.02,0.64,-1.41,0.42
13.26710402965546,2,3,3,2,-9.609999999999999,-0.82,-0.04,0.35,-1.21,-0.1
13.27710402011871,2,3,3,2,-9.02,-0.71,-0.23,0.46,-0.8,-0.51
13.28710401058197,2,3,3,2,-9.01,-0.77,-0.4,0.52,-0.03,-0.9
13.29710400104523,2,3,3,2,-9.08,-0.83,-0.4,0.41,0.67,-1.26
13.30710399150848,2,3,3,2,-9.380000000000001,-0.89,-0.33,0.32,1.25,-1.47
13.31710398197174,2,3,3,3,-9.42,-0.93,-0.37,-0.19,1.43,-1.62
13.327103972435,2,3,3,3,-9.48,-1.07,-0.3,-0.67,1.39,-1.56
13.33710396289825,2,3,3,3,-9.51,-1.08,-0.16,-1.15,1.22,-1.42
13.34710395336151,2,3,3,3,-9.449999999999999,-0.98,-0.67,-1.74,0.9,-1.13
13.35710394382477,2,3,3,3,-9.57,-0.96,-0.74,-2.17,0.74,-0.74
13.36710393428802,2,3,3,3,-9.68,-0.96,-0.7,-2.18,0.62,-0.3
13.37710392475128,2,3,3,3,-9.800000000000001,-1.02,-0.48,-2.06,0.5,0.09
13.38710415363312,2,3,3,3,-9.529999999999999,-1.02,-0.53,-1.92,0.31,0.44
13.39710414409637,2,3,3,3,-9.43,-0.97,-0.35,-1.73,0.22,0.64
13.40710413455963,2,3,3,3,-9.4,-0.86,-0.55,-1.56,0.16,0.79
13.41710412502289,2,3,3,3,-9.42,-0.85,-0.72,-1.31,0.18,0.89
13.42710411548615,2,3,3,3,-9.699999999999999,-0.77,-0.9,-0.79,0.32,0.89
13.4371041059494,2,3,3,3,-9.869999999999999,-0.76,-0.98,-0.24,0.46,0.91
13.44710409641266,2,3,3,3,-10.01,-0.75,-0.86,0.25,0.5,0.9399999999999999
13.45710408687592,2,3,3,3,-10.09,-0.72,-0.84,0.58,0.42,0.95
13.46710407733917,2,3,3,3,-10.06,-0.7,-0.89,0.77,0.45,0.97
13.47710406780243,2,3,3,3,-9.970000000000001,-0.64,-0.88,0.8,0.62,0.88
13.48710405826569,2,3,3,3,-9.81,-0.63,-1.11,0.5,0.6,0.66
13.49710404872894,2,3,3,3,-9.890000000000001,-0.77,-0.74,0.32,0.6,0.47
13.5071040391922,2,3,3,3,-9.82,-0.9,-0.77,0.34,0.79,0.23
13.51710402965546,2,3,3,3,-9.800000000000001,-0.99,-0.86,0.46,0.9,0.02
13.52710402011871,2,3,3,3,-9.779999999999999,-1.05,-0.63,0.61,1.05,-0.13
13.53710401058197,2,3,3,3,-9.529999999999999,-0.83,-1.07,0.74,1.2,-0.18
13.54710400104523,2,3,3,3,-9.5,-0.88,-0.9399999999999999,1.07,1.34,-0.07000000000000001
13.55710399150848,2,3,3,3,-9.52,-0.98,-0.73,1.6,1.36,0.13
13.56710398197174,2,3,3,3,-9.51,-1.07,-0.61,1.99,1.38,0.35
13.577103972435,2,3,3,3,-9.25,-1.13,-0.67,2.38,1.38,0.59
13.58710396289825,2,3,3,3,-9.119999999999999,-1.02,-0.88,2.84,1.55,0.79
13.59710395336151,2,3,3,3,-9.050000000000001,-0.85,-1.1,3.29,1.86,0.9399999999999999
13.60710394382477,2,3,3,3,-9.19,-0.67,-1.29,3.89,2.25,1.03
13.61710393428802,2,3,3,3,-9.74,-0.33,-1.24,4.54,2.58,1.02
13.62710392475128,2,3,3,3,-9.94,-0.13,-1.23,4.83,2.64,0.93
13.63710415363312,2,3,3,3,-10.04,0,-1.17,4.8,2.41,0.74
13.64710414409637,2,3,3,3,-9.94,-0.02,-1.06,4.53,2.04,0.55
13.73710405826569,2,3,3,3,-9.57,-0.29,-1.24,1.62,2.2,-0.48
13.76710402965546,2,3,3,2,-9.779999999999999,-0.78,-1.36,1.02,3.03,-0.96
13.77810394763947,2,3,3,2,-9.869999999999999,-0.9399999999999999,-1.45,1.09,3.02,-1
13.78810393810272,2,3,3,2,-9.84,-1.09,-1.43,1.41,3.02,-1
13.79810392856598,2,3,3,2,-9.57,-1.24,-1.49,1.82,2.93,-0.9399999999999999
13.80810415744781,2,3,3,2,-9.27,-1.2,-1.34,2.27,2.93,-0.87
13.81810414791107,2,3,3,2,-9.140000000000001,-1.11,-1.32,2.83,3.01,-0.7
13.82810413837433,2,3,3,2,-9.18,-0.98,-1.27,3.46,3.18,-0.5
13.83810412883759,2,3,3,2,-9.24,-0.85,-1.38,4.11,3.2,-0.33
13.84810411930084,2,3,3,2,-9.640000000000001,-0.64,-1.43,4.58,3.12,-0.18
13.8581041097641,2,3,3,2,-9.720000000000001,-0.59,-1.38,4.86,2.99,-0.09
13.86810410022736,2,3,3,2,-9.800000000000001,-0.51,-1.4,5.05,2.78,0.06
13.87810409069061,2,3,3,2,-9.84,-0.49,-1.39,5.19,2.59,0.14
13.88810408115387,2,3,3,2,-9.529999999999999,-0.29,-1.38,5.34,2.4,0.17
13.89810407161713,2,3,3,2,-9.41,-0.21,-1.32,5.51,2.33,0.12
13.90810406208038,2,3,3,2,-9.33,-0.08,-1.19,5.63,2.31,-0.02
13.91810405254364,2,3,3,2,-9.19,0.1,-1.25,5.56,2.29,-0.22
13.9281040430069,2,3,3,2,-9.359999999999999,0.06,-1.35,5.38,2.3,-0.45
13.93810403347015,2,3,3,2,-9.5,0.03,-1.41,5.07,2.3,-0.72
13.94810402393341,2,3,3,2,-9.56,-0.05,-1.47,4.85,2.29,-0.98
13.95810401439667,2,3,3,2,-9.539999999999999,-0.19,-1.37,4.75,2.19,-1.27
13.96810400485992,2,3,3,2,-9.44,-0.26,-1.33,4.71,2.18,-1.48
13.97810399532318,2,3,3,2,-9.32,-0.31,-1.36,4.79,2.08,-1.62
13.98810398578644,2,3,3,2,-9.300000000000001,-0.39,-1.42,4.96,2.19,-1.8
13.99810397624969,2,3,3,2,-9.27,-0.4,-1.5,5.29,2.31,-1.92
14.00810396671295,2,3,3,2,-9.369999999999999,-0.49,-1.46,5.6,2.43,-1.98
14.01810395717621,2,3,3,2,-9.34,-0.49,-1.55,5.9,2.29,-1.93
14.02810394763947,2,3,3,2,-9.26,-0.45,-1.57,6.1,2.25,-1.78
14.03810393810272,2,3,3,2,-9.32,-0.35,-1.56,6.3,2.25,-1.62
14.04810392856598,2,3,3,2,-9.390000000000001,-0.27,-1.34,6.51,2.27,-1.51
14.05810415744781,2,3,3,2,-9.470000000000001,-0.17,-1.47,6.74,2.14,-1.36
14.06810414791107,2,3,3,2,-9.51,-0.16,-1.54,6.86,1.94,-1.26
14.07810413837433,2,3,3,2,-9.73,-0.08,-1.53,7.02,1.78,-1.23
14.08810412883759,2,3,3,2,-9.77,-0.03,-1.81,7.13,1.73,-1.23
14.09810411930084,2,3,3,2,-9.84,0,-1.95,7.15,1.69,-1.22
14.1081041097641,2,3,3,2,-10.06,0.05,-2.24,7.11,1.68,-1.19
14.11810410022736,2,3,3,2,-10.06,0.15,-2.3,7,1.66,-1.14
14.12810409069061,2,3,3,2,-10.05,0.17,-2.26,6.82,1.64,-1.09
14.13810408115387,2,3,3,2,-9.92,0.36,-2.44,6.8,1.74,-1.08
14.14810407161713,2,3,3,2,-9.710000000000001,0.55,-2.12,6.91,1.76,-1.12
14.15810406208038,2,3,3,2,-9.66,0.77,-1.95,7.42,1.72,-1.17
14.16810405254364,2,3,3,2,-9.69,0.86,-1.8,7.97,1.6,-1.29
14.1781040430069,2,3,3,2,-9.720000000000001,1.06,-1.71,8.279999999999999,1.43,-1.45
14.18810403347015,2,3,3,2,-9.98,1.37,-2.11,8.42,1.31,-1.54
14.19810402393341,2,3,3,2,-10.16,1.45,-2.53,8.460000000000001,1.34,-1.72
14.20810401439667,2,3,3,2,-10.41,1.45,-2.55,8.18,1.59,-1.82
14.21810400485992,2,3,3,2,-10.65,1.41,-2.42,8.02,1.81,-1.91
14.22810399532318,2,3,3,2,-11.18,1,-2.15,7.78,1.95,-1.85
14.24810397624969,2,3,3,2,-11.08,0.7,-2.69,6.28,1.73,-1.58
14.25810396671295,2,3,3,2,-10.97,0.73,-3.05,5.14,1.61,-1.53
14.26810395717621,2,3,3,2,-10.87,0.23,-2.2,4.06,1.7,-1.57
14.27810394763947,2,3,3,2,-10.64,0.07000000000000001,-1.78,2.83,1.87,-1.57
14.28810393810272,2,3,3,2,-10.62,-0.06,-1.91,0.9399999999999999,2.52,-1.49
14.29810392856598,2,3,3,2,-10.64,-0.59,-1.82,-1.95,3.09,-1.25
14.30810415744781,2,3,3,2,-10.72,-0.9,-1.65,-5.23,3.36,-0.89
14.31810414791107,2,3,3,2,-10.82,-1.24,-2.1,-8.01,3.75,-0.5
14.32810413837433,2,3,3,2,-11.16,-1.55,-2.79,-10.09,4.23,-0.03
14.33810412883759,2,3,3,2,-11.52,-2.06,-3.57,-11.57,4.26,0.26
14.34810411930084,2,3,3,2,-11.21,-2.18,-3.85,-12.45,3.8,0.39
14.3581041097641,2,3,3,2,-11.33,-2.44,-3.93,-12.47,2.7,0.45
14.36810410022736,2,3,3,2,-11.23,-2.66,-3.96,-11.42,1.42,0.83
14.37810409069061,2,3,3,2,-10.62,-3.5,-3.43,-10.2,-0.24,1.34
14.38810408115387,2,3,3,2,-10.09,-3.83,-3.14,-9.119999999999999,-2.31,1.95
14.39810407161713,2,3,3,2,-9.75,-4.09,-2.59,-8.199999999999999,-4.11,2.59
14.40810406208038,2,3,3,2,-9.26,-4.43,-2.24,-7.48,-5.46,3.12
14.41810405254364,2,3,3,2,-8.44,-4.53,-1.7,-6.64,-6.53,4.13
14.4281040430069,2,3,3,2,-8.02,-4.26,-1.52,-5.31,-7.56,5.57
14.43810403347015,2,3,3,2,-7.72,-3.85,-1.49,-3.66,-7.77,7.02
14.44810402393341,2,3,3,2,-7.66,-3.44,-1.27,-2.24,-7.37,8.19
14.45810401439667,2,3,3,2,-8.050000000000001,-2.32,-1.25,-0.93,-6.7,9.220000000000001
14.46810400485992,2,3,3,2,-8.65,-1.9,-1.12,0.17,-5.87,9.98
14.47810399532318,2,3,3,2,-9.41,-1.48,-0.89,0.99,-5.31,10.49
14.48810398578644,2,3,3,2,-10.34,-0.9,-0.79,1.07,-5.26,10.59
14.49810397624969,2,3,3,2,-10.69,-0.73,-0.74,0.43,-5.73,10.16
14.50810396671295,2,3,3,2,-11.03,-0.63,-0.55,-1.06,-6.56,9.27
14.51810395717621,2,3,3,2,-11.13,-0.65,-0.64,-2.66,-7.22,8.19
14.52810394763947,2,3,3,2,-10.85,-0.49,-0.85,-4.22,-8.1,7.03
14.53810393810272,2,3,3,2,-10.54,-0.37,-0.72,-5.78,-8.9,5.97
14.54810392856598,2,3,3,2,-10.17,-0.36,-0.3,-6.92,-9.24,5.18
14.55810415744781,2,3,3,2,-9.92,-0.39,-0.06,-7.64,-9,4.64
14.56810414791107,2,3,3,2,-9.550000000000001,-0.43,0.09,-8.1,-8.48,4.18
14.57810413837433,2,3,3,2,-9.42,-0.37,-0.12,-8.68,-8.23,3.68
14.58810412883759,2,3,3,2,-9.23,-0.34,-0.31,-9.51,-8,3.11
14.59810411930084,2,3,3,2,-9.32,-0.28,-0.27,-10.11,-7.53,2.45
14.6081041097641,2,3,3,2,-9.31,-0.15,-0.12,-10.51,-7.28,1.83
14.61810410022736,2,3,3,2,-9.24,-0.15,0.06,-10.97,-7.74,1.27
14.62810409069061,2,3,3,2,-9.07,-0.16,0.03,-11.42,-8.52,0.82
14.63810408115387,2,3,3,2,-8.890000000000001,-0.25,-0.22,-12.21,-9.140000000000001,0.34
14.64810407161713,2,3,3,2,-8.949999999999999,-0.46,-0.25,-13.21,-9.49,0.03
14.65810406208038,2,3,3,2,-8.779999999999999,-0.63,-0.14,-13.88,-9.94,-0.17
14.66810405254364,2,3,3,1,-8.6,-0.77,-0.06,-14.27,-10.13,-0.32
14.67910397052765,2,3,3,1,-8.390000000000001,-0.83,-0.02,-14.6,-10.02,-0.4
14.68810403347015,2,3,3,1,-8.199999999999999,-0.92,-0.07000000000000001,-14.82,-9.84,-0.43
14.69810402393341,2,3,3,1,-8.09,-0.97,0.19,-14.68,-9.43,-0.31
14.70810401439667,2,3,3,1,-7.99,-0.91,0.31,-13.94,-8.91,-0.17
14.71810400485992,2,3,3,0,-7.97,-0.85,0.67,-13.21,-8.23,0.11
14.72810399532318,2,3,3,0,-8.06,-0.84,1,-12.2,-7.52,0.4
14.73810398578644,2,3,3,0,-7.95,-0.85,1.12,-10.68,-6.85,0.55
14.74810397624969,2,3,3,0,-7.95,-0.86,1.1,-9.460000000000001,-6.32,0.5
14.75810396671295,2,3,3,0,-7.84,-0.58,1.02,-8.33,-5.75,0.24
14.76810395717621,2,3,3,0,-7.81,-0.41,1.03,-7.18,-5.09,0.05
14.77810394763947,2,3,3,0,-7.82,-0.25,1.05,-6.02,-4.31,-0.14
14.78810393810272,2,3,3,0,-7.82,-0.01,0.89,-4.81,-3.38,-0.28
14.79910409450531,2,3,3,0,-7.76,0.38,1.21,-3.81,-2.35,-0.42
14.80910408496857,2,3,3,0,-7.88,0.45,2.27,-3.03,-1.2,-0.55
14.81910407543182,2,3,3,0,-8.199999999999999,0.49,2.63,-3.02,0.26,-0.84
14.82910406589508,2,3,3,0,-8.19,0.87,1.7,-4.36,1.57,-1.29
14.83910405635834,2,3,3,0,-8.390000000000001,1.13,1.8,-4.61,2.2,-1.36
14.84910404682159,2,3,3,0,-8.359999999999999,1.15,1.42,-4.13,2.52,-1.31
14.85910403728485,2,3,3,0,-8.06,1.22,1.17,-4.36,2.5,-1.56
14.86910402774811,2,3,3,0,-7.92,1.2,0.86,-4.58,2.85,-1.83
14.87910401821136,2,3,3,0,-8.109999999999999,1.25,1.01,-4.37,3.51,-2.05
14.88910400867462,2,3,3,0,-8.289999999999999,1.24,1.19,-4.17,4.04,-2.12
14.89910399913788,2,3,3,0,-8.6,1.06,1.34,-3.86,4.48,-1.87
14.90910398960114,2,3,3,0,-9.02,-0.24,1.4,-3.98,4.69,-1.46
14.91910398006439,2,3,3,0,-9.09,-0.93,0.97,-5.32,4.8,-1.34
14.92910397052765,2,3,3,0,-9.68,-1.43,0.09,-8.08,5.24,-1.64
14.93910396099091,2,3,3,0,-10.66,-1.29,-0.51,-10.73,5.35,-1.71
14.94910395145416,2,3,3,0,-13.03,-0.11,0.98,-11.3,4.44,-0.9399999999999999
14.95910394191742,2,3,3,0,-14.48,0.72,2.2,-9.84,3.43,0.29
14.96910393238068,2,3,3,0,-15.44,1.67,2.84,-8.08,2.91,1.44
14.97910392284393,2,3,3,0,-15.21,2.2,2.33,-6.75,0.24,2.69
14.98910415172577,2,3,3,0,-14.15,2.63,2.38,-5.17,-3.02,3.43
14.99910414218903,2,3,3,0,-13.2,2.86,3.78,-4.97,-5.66,3.02
15.00910413265228,2,3,3,0,-12.18,2.58,4.49,-5.2,-7.08,2.18
15.01910412311554,2,3,3,0,-11.1,2.13,3.98,-5.19,-6.93,1.64
15.0291041135788,2,3,3,0,-9.59,0.8100000000000001,3.25,-5.76,-7.18,1.4
15.03910410404205,2,3,3,0,-10.42,0.27,3.83,-6.64,-6.67,1.11
15.04910409450531,2,3,3,0,-11.6,-0.28,4.03,-7.79,-5.76,0.43
15.05910408496857,2,3,3,0,-11.79,-1.25,2.61,-8.699999999999999,-4.98,0.01
15.06910407543182,2,3,3,0,-13.6,-3.39,0.12,-9.039999999999999,-2.51,-0.86
15.07910406589508,2,3,3,0,-15.89,-4.49,-0.67,-7.78,0.1,-1.96
15.08910405635834,2,3,3,0,-17.53,-4.66,-1.22,-6.08,-0.52,-2.29
15.09910404682159,2,3,3,0,-15.39,-3.63,0.71,-2.89,-3.39,-1.95
15.10910403728485,2,3,3,0,-12.61,-3.17,1.84,2.17,-6.83,-1.36
15.11910402774811,2,3,3,0,-9.779999999999999,-2.74,2.04,7.14,-8.800000000000001,-0.51
15.12910401821136,2,3,3,0,-7.3,-2.28,1.77,11.05,-8.970000000000001,0.68
15.13910400867462,2,3,3,0,-4.81,-1.32,0.53,13.47,-7.39,1.75
15.14910399913788,2,3,3,0,-4.54,-0.89,-0.3,13.84,-4.84,2.21
15.15910398960114,2,3,3,0,-4.33,-0.79,-0.54,13.87,-2.35,2.52
15.16910398006439,2,3,3,0,-4.02,-0.47,-0.78,13.76,0.37,2.99
15.17910397052765,2,3,3,0,-4.27,0.37,-0.82,12.85,3.54,3.3
15.18910396099091,2,3,3,0,-3.53,0.85,-0.6899999999999999,10.61,6.33,2.73
15.19910395145416,2,3,3,0,-7.36,0.2,-1.29,7.98,10.04,0.32
15.20910394191742,2,3,3,0,-13.63,-1.77,-1.99,5.71,13.62,-3.38
15.21910393238068,2,3,3,0,-16.68,-3.08,-2.45,3.52,11.3,-5.09
15.22910392284393,2,3,3,0,-14.62,-3.29,-2.14,3.42,5.99,-4.79
15.23910415172577,2,3,3,0,-11.9,-2.99,-1.6,3.81,1.91,-4.33
15.24910414218903,2,3,3,0,-9.42,-2.6,-0.83,3.83,0.44,-3.73
15.25910413265228,2,3,3,0,-6.48,-2.34,-0.14,3.93,1.05,-2.83
15.26910412311554,2,3,3,0,-6.07,-2.08,0.02,4.67,2.75,-1.87
15.2791041135788,2,3,3,0,-6.05,-1.83,-0.22,5.7,4.54,-0.99
15.28910410404205,2,3,3,0,-6.16,-1.62,-0.78,6.5,5.99,-0.41
15.29910409450531,2,3,3,0,-6.48,-1.78,-0.9,6.77,7.31,-0.49
15.30910408496857,2,3,3,0,-6.88,-1.78,-1.2,7.09,8.529999999999999,-0.65
15.31910407543182,2,3,3,0,-7.51,-1.83,-1.34,7.57,9.52,-0.85
15.32910406589508,2,3,3,0,-9.06,-1.99,-1.68,8.48,10.35,-1.03
15.33910405635834,2,3,3,0,-9.67,-1.96,-1.92,9.59,10.8,-1.27
15.34910404682159,2,3,3,0,-9.970000000000001,-1.86,-1.78,10.34,10.67,-1.37
15.35910403728485,2,3,3,0,-10.11,-1.86,-1.7,11.02,10.06,-1.49
15.36910402774811,2,3,3,0,-9.85,-1.54,-1.31,11.42,9.109999999999999,-1.3
15.37910401821136,2,3,3,0,-9.32,-1.14,-1.49,11.4,7.89,-1.29
15.38910400867462,2,3,3,0,-8.779999999999999,-0.9,-1.29,11.21,6.6,-1.51
15.39910399913788,2,3,3,0,-8.27,-0.66,-1.21,10.86,5.7,-1.76
15.40910398960114,2,3,3,0,-7.85,-0.8100000000000001,-1.15,10.47,5.15,-2.07
15.41910398006439,2,3,3,0,-8.109999999999999,-0.98,-1.44,10.22,5.08,-2.47
15.42910397052765,2,3,3,0,-8.609999999999999,-1.07,-1.63,10.41,5.25,-2.79
15.43910396099091,2,3,3,0,-9.09,-1.04,-1.96,10.8,5.24,-3.09
15.44910395145416,2,3,3,0,-9.800000000000001,-0.47,-1.59,11.51,4.97,-3.21
15.45910394191742,2,3,3,0,-9.94,-0.22,-1.45,11.95,4.59,-3.44
15.46910393238068,2,3,3,0,-9.859999999999999,0.15,-1.16,12.03,4.15,-3.48
15.47910392284393,2,3,3,0,-9.449999999999999,0.86,-0.93,11.78,3.55,-3.28
15.48910415172577,2,3,3,0,-9.52,1.04,-0.9,10.89,2.93,-3.12
15.49910414218903,2,3,3,0,-9.26,1.15,-0.72,9.699999999999999,2.37,-2.97
15.50910413265228,2,3,3,0,-9.210000000000001,1.08,-0.71,8.359999999999999,1.77,-2.91
15.51910412311554,2,3,3,0,-9,0.7,-0.5,6.89,1.48,-3.01
15.5291041135788,2,3,3,0,-9.15,0.46,-0.44,5.73,1.48,-3.42
15.53910410404205,2,3,3,0,-9.15,0.27,-0.66,5.03,1.8,-4.08
15.54910409450531,2,3,3,0,-9.199999999999999,0.11,-0.79,4.84,2.21,-4.9
15.55910408496857,2,3,3,0,-9.5,0.05,-0.98,4.9,2.67,-5.83
15.56910407543182,2,3,3,0,-9.550000000000001,0.08,-0.9,5.31,2.98,-6.56
15.57910406589508,2,3,3,0,-9.48,-0.09,-1.18,5.97,2.97,-7.28
15.58910405635834,2,3,3,0,-9.35,-0.15,-1.31,6.73,3.07,-7.72
15.59910404682159,2,3,3,0,-9.289999999999999,-0.65,-1.12,7.42,3.17,-8.01
15.60910403728485,2,3,3,0,-9.25,-0.91,-1.22,8.1,3.21,-8.07
15.61910402774811,2,3,3,0,-9.15,-1.12,-1.36,8.92,3.27,-7.8
15.62910401821136,2,3,3,0,-9.15,-1.33,-1.68,9.779999999999999,3.31,-7.33
15.63910400867462,2,3,3,0,-9.31,-1.26,-2.09,10.71,3.49,-6.6
15.64910399913788,2,3,3,0,-9.44,-0.85,-2.19,11.78,3.7,-5.63
15.65910398960114,2,3,3,0,-9.300000000000001,-0.08,-2.03,12.42,3.93,-4.49
15.66910398006439,2,3,3,0,-9.300000000000001,-0.08,-2.03,12.3,3.72,-3.28
15.67910397052765,2,3,3,0,-9.58,1.56,-1.4,11.36,3.07,-1.9
15.68910396099091,2,3,3,0,-9.99,1.43,-1.02,9.77,2.44,-0.55
15.69910395145416,2,3,3,0,-10.26,1.21,-1.64,8.4,2.04,0.64
15.70910394191742,2,3,3,0,-11.15,0.77,-2.18,7.38,2.21,1.48
15.71910393238068,2,3,3,0,-11.15,0.77,-2.18,7.54,2.75,1.96
15.72910392284393,2,3,3,0,-11.85,-0.37,-1.03,8.380000000000001,2.87,2.35
15.73910415172577,2,3,3,0,-11.77,-0.86,-1.14,8.94,2.73,2.61
15.74910414218903,2,3,3,0,-11.19,-1.42,-2.63,7.96,2.75,2.86
15.75910413265228,2,3,3,0,-11.2,-1.16,-2.11,5.01,2.83,3.08
15.76910412311554,2,3,3,0,-11.05,-1.24,-1.37,0.76,3.19,3.4
15.7791041135788,2,3,3,0,-10.79,-1.84,-1.09,-4.34,3.96,3.87
15.78910410404205,2,3,3,0,-11.7,-3.16,-3.36,-9.029999999999999,5.77,4.58
15.79910409450531,2,3,3,0,-12.96,-3.53,-4.23,-12.99,7.88,5.48
15.80910408496857,2,3,3,0,-14.14,-3.77,-4.48,-14.71,8.640000000000001,6.61
15.81910407543182,2,3,3,0,-14.81,-4.22,-4.18,-13.78,7.52,7.78
15.83010399341583,2,3,3,0,-14.13,-5.45,-3.57,-11.73,4.77,8.51
15.84010398387909,2,3,3,0,-13.62,-5.5,-2.85,-9.800000000000001,1.37,8.74
15.85010397434235,2,3,3,0,-12.36,-5.79,-1.8,-6.46,-2.3,9.289999999999999
15.8601039648056,2,3,3,0,-11.02,-5.91,-1.21,-2.91,-5.26,9.81
15.87010395526886,2,3,3,0,-11.02,-5.91,-1.21,0.03,-6.91,10.14
15.88010394573212,2,3,3,0,-9.800000000000001,-5.7,-0.86,3.18,-7.78,10.49
15.89010393619537,2,3,3,0,-9.52,-4.6,-0.04,6.03,-7.85,11.01
15.90010392665863,2,3,3,0,-8.970000000000001,-2.26,-0.39,8.109999999999999,-7.39,11.41
15.91010415554047,2,3,3,0,-9.42,-0.78,-0.39,8.35,-6.08,11.22
15.92010414600372,2,3,3,0,-10.31,0.26,-0.42,7.19,-4.14,10.58
15.93010413646698,2,3,3,0,-10.89,0.84,-0.5600000000000001,4.65,-2.69,9.52
15.94010412693024,2,3,3,0,-10.96,0.63,-1.13,0.72,-1.86,7.78
15.95010411739349,2,3,3,0,-10.81,0.22,-1.31,-3.51,-1.6,5.75
15.96010410785675,2,3,3,0,-10.49,0.04,-1.31,-7.2,-2.2,4.13
15.97010409832001,2,3,3,0,-9.99,-0.2,-1.15,-10.27,-3.9,2.99
15.98010408878326,2,3,3,0,-8.49,-0.83,-0.89,-12.52,-6.03,2.22
15.99010407924652,2,3,3,0,-8.01,-1.14,-0.93,-13.72,-8.02,1.9
16.00010406970978,2,3,3,0,-7.55,-1.32,-0.9399999999999999,-14.05,-9.23,1.56
16.01010406017303,2,3,3,0,-7.23,-1.21,-0.8100000000000001,-13.97,-10.25,1.4
16.02010405063629,2,3,3,0,-7.23,-1.21,-0.8100000000000001,-13.97,-10.25,1.4
16.03010404109955,2,3,3,0,-6.65,-0.47,-0.36,-13.7,-11.64,1.31
16.04010403156281,2,3,3,0,-6.72,-0.13,-0.23,-13.68,-11.72,1.31
16.05010402202606,2,3,3,0,-6.8,-0.09,0.1,-13.79,-11.45,1.25
16.06010401248932,2,3,3,0,-7.35,-0.58,0.63,-13.89,-10.73,1.2
16.07010400295258,2,3,3,0,-7.35,-0.58,0.63,-13.37,-9.529999999999999,1.28
16.08010399341583,2,3,3,0,-7.89,-0.95,0.89,-12.9,-8.19,1.36
16.09010398387909,2,3,3,0,-8.289999999999999,-1.34,-0.03,-13.22,-7.42,1.23
16.10010397434235,2,3,3,0,-8.35,-1,-0.35,-14.06,-7.37,0.88
16.1101039648056,2,3,3,0,-8.42,-0.61,-0.37,-14.77,-7.32,0.52
16.12010395526886,2,3,3,0,-8.42,-0.61,-0.37,-14.96,-7.15,0.16
16.13010394573212,2,3,3,0,-8.859999999999999,-0.48,0.19,-14.92,-6.88,-0.16
16.14010393619537,2,3,3,0,-8.789999999999999,-0.7,0.4,-14.65,-6.74,-0.44
16.15010392665863,2,3,3,0,-8.470000000000001,-0.8100000000000001,0.61,-13.96,-6.48,-0.74
16.16010415554047,2,3,3,0,-8.25,-0.79,0.87,-12.79,-5.51,-0.88
16.17010414600372,2,3,3,0,-8.25,-0.79,0.87,-11.57,-4,-0.74
16.18010413646698,2,3,3,0,-8.199999999999999,-0.49,0.9399999999999999,-10.16,-2.76,-0.55
16.19010412693024,2,3,3,0,-8.16,-0.07000000000000001,0.5,-8.5,-1.99,-0.21
16.20010411739349,2,3,3,0,-8.130000000000001,0.1,0.53,-6.58,-1.35,0.01
16.21010410785675,2,3,3,0,-8.220000000000001,0.46,0.65,-4.86,-0.47,0.01
16.22010409832001,2,3,3,0,-8.220000000000001,0.46,0.65,-4.86,-0.47,0.01
16.23010408878326,2,3,3,0,-8.470000000000001,0.89,0.8100000000000001,-3.08,1.49,-0.67
16.24010407924652,2,3,3,0,-8.6,1.21,1.06,-2.88,2.43,-1.2
16.25010406970978,2,3,3,0,-8.85,1.62,1.55,-3.13,3.47,-1.83
16.26010406017303,2,3,3,0,-8.859999999999999,1.76,1.7,-3.5,4.45,-2.39
16.27010405063629,2,3,3,0,-8.859999999999999,1.76,1.7,-3.5,4.45,-2.39
16.28010404109955,2,3,3,0,-8.869999999999999,1.77,1.76,-5.21,4.38,-3.16
16.29010403156281,2,3,3,0,-8.880000000000001,1.2,1.32,-5.95,3.94,-3.32
16.30010402202606,2,3,3,0,-8.880000000000001,0.88,0.96,-6.61,3.49,-3.33
16.31010401248932,2,3,3,0,-8.699999999999999,0.45,0.58,-7.48,3.08,-3.25
16.32010400295258,2,3,3,0,-8.699999999999999,0.45,0.58,-7.48,3.08,-3.25
16.33010399341583,2,3,3,0,-8.699999999999999,-1.09,-0.73,-10.5,3.92,-3.46
16.34010398387909,2,3,3,0,-9.779999999999999,-1.17,-0.93,-11.83,5.04,-3.62
16.35010397434235,2,3,3,0,-11.17,-0.5600000000000001,-0.05,-12.31,5.03,-3.14
16.3601039648056,2,3,3,0,-13.55,1.08,1.43,-11.94,2.76,-1.69
16.37010395526886,2,3,3,0,-13.55,1.08,1.43,-11.94,2.76,-1.69
16.38010394573212,2,3,3,0,-14.28,1.8,1.82,-10.01,0.48,0.33
16.39010393619537,2,3,3,0,-14.04,2.92,1.83,-6.9,-4.6,3.21
16.40010392665863,2,3,3,0,-12.78,3.48,3.12,-6.83,-6.68,3.53
16.41010415554047,2,3,3,0,-11.83,3.03,4.48,-7.11,-7.49,3.13
16.42010414600372,2,3,3,0,-11.83,3.03,4.48,-7.11,-7.49,3.13
16.43010413646698,2,3,3,0,-10.81,1.83,4.26,-9.4,-6.38,2.62
16.44010412693024,2,3,3,0,-11,-0.78,3.28,-13.06,-7.44,2.19
16.45010411739349,2,3,3,0,-12.22,-1.79,2.48,-12.76,-7.92,2.37
16.46010410785675,2,3,3,0,-13.39,-2.91,0.85,-11.13,-7.23,2.67
16.47010409832001,2,3,3,0,-13.39,-2.91,0.85,-11.13,-7.23,2.67
16.48010408878326,2,3,3,0,-16.58,-4.16,-0.31,-10.98,-5.2,-0.79
16.49010407924652,2,3,3,0,-20.68,-3.62,-1.36,-8.99,-4.74,-2.63
16.50010406970978,2,3,3,0,-16.92,-3.3,-0.76,-4.32,-8.99,-3.15
16.51010406017303,2,3,3,0,-9.640000000000001,-3.31,1.66,2.14,-12.62,-2.54
16.52010405063629,2,3,3,0,-9.640000000000001,-3.31,1.66,2.14,-12.62,-2.54
16.53010404109955,2,3,3,0,-6.51,-3.23,2.38,10.02,-12.44,-0.05
16.54010403156281,2,3,3,0,-3.62,-2.53,1.63,10.68,-9.19,0.8
16.55010402202606,2,3,3,0,-4.06,-1.52,-0.12,11.17,-5.96,1.54
16.56010401248932,2,3,3,0,-3.67,-0.95,-0.75,12.35,-3.22,2.57
16.57010400295258,2,3,3,0,-3.67,-0.95,-0.75,12.35,-3.22,2.57
16.58010399341583,2,3,3,0,-4.13,-0.71,-0.8100000000000001,13.49,0.05,3.64
16.59010398387909,2,3,3,0,-10.03,0,-1.99,10.56,8.029999999999999,1.88
16.60010397434235,2,3,3,0,-16.28,-1.44,-2.56,7.85,12.77,-2.17
16.6101039648056,2,3,3,0,-19.01,-2.21,-3.09,4.72,12.18,-5.94
16.62010395526886,2,3,3,0,-19.01,-2.21,-3.09,4.72,12.18,-5.94
16.63010394573212,2,3,3,0,-17.1,-2.55,-2.84,3.32,6.74,-6.46
16.64010393619537,2,3,3,0,-7.77,-2.61,-0.07000000000000001,2.26,1.05,-4.44
16.65010392665863,2,3,3,0,-6.36,-2.38,0.33,1.87,2.4,-3.53
16.66010415554047,2,3,3,0,-5.79,-2.03,0.39,2.52,4.76,-2.91
16.67010414600372,2,3,3,0,-5.79,-2.03,0.39,2.52,4.76,-2.91
16.68010413646698,2,3,3,0,-5.62,-1.41,0.29,3.64,6.89,-2.29
16.69010412693024,2,3,3,0,-5.81,-1.17,-0.25,4.36,8.130000000000001,-0.85
16.70010411739349,2,3,3,0,-6.28,-1.59,-0.89,4.13,8.26,-0.65
16.71010410785675,2,3,3,0,-6.95,-2.03,-1.06,4.19,8.5,-0.47
16.72010409832001,2,3,3,0,-6.95,-2.03,-1.06,4.19,8.5,-0.47
16.73010408878326,2,3,3,0,-7.64,-2.18,-1.34,5.03,9.029999999999999,-0.24
16.74010407924652,2,3,3,0,-8.550000000000001,-2.13,-1.55,7.41,9.93,-0.47
16.75010406970978,2,3,3,0,-10.07,-1.84,-1.73,8.33,9.880000000000001,-0.82
16.76010406017303,2,3,3,0,-10.32,-1.75,-1.77,8.800000000000001,9.23,-1
16.77010405063629,2,3,3,0,-10.28,-1.72,-1.52,8.800000000000001,9.23,-1
16.78010404109955,2,3,3,0,-9.960000000000001,-1.48,-1.53,8.890000000000001,8.08,-1.03
16.79010403156281,2,3,3,0,-9.25,-0.77,-1.16,8.529999999999999,6.17,-1.41
16.80010402202606,2,3,3,0,-8.720000000000001,-0.43,-1.06,8.140000000000001,5.81,-1.98
16.81010401248932,2,3,3,0,-8.220000000000001,-0.06,-0.93,7.77,5.82,-2.64
16.82010400295258,2,3,3,0,-7.99,0.08,-0.84,7.77,5.82,-2.64
16.83010399341583,2,3,3,0,-8.289999999999999,-0.12,-0.92,7.65,6.15,-3.22
16.84010398387909,2,3,3,0,-8.630000000000001,-0.32,-1.17,7.36,6.77,-4.23
16.85110414028168,2,3,3,0,-9.029999999999999,-0.48,-1.26,7.55,6.81,-4.7
16.86110413074493,2,3,3,0,-9.17,-0.67,-1.09,7.53,6.86,-5.22
16.87110412120819,2,3,3,0,-9.109999999999999,-0.5600000000000001,-1.32,7.53,6.86,-5.22
16.88110411167145,2,3,3,0,-9,-0.31,-1.34,7.33,6.75,-5.56
16.8911041021347,2,3,3,0,-9.01,-0.26,-1.15,6.3,5.86,-5.7
16.90110409259796,2,3,3,0,-9.17,-0.15,-1.3,5.76,5.2,-5.64
16.91110408306122,2,3,3,0,-9.279999999999999,-0.02,-1.11,5.09,4.53,-5.56
16.92110407352448,2,3,3,0,-9.5,0.05,-1.08,5.09,4.53,-5.56
16.93110406398773,2,3,3,0,-9.75,0.04,-1.14,4.59,3.88,-5.4
16.94110405445099,2,3,3,0,-10.01,-0.04,-1.16,4.5,2.82,-5.26
16.95110404491425,2,3,3,0,-9.99,-0.04,-1.38,4.88,2.48,-5.41
16.9611040353775,2,3,3,0,-9.9,-0.07000000000000001,-1.23,5.28,2.26,-5.6
16.97110402584076,2,3,3,0,-9.76,-0.03,-1.06,5.28,2.26,-5.6
16.98110401630402,2,3,3,0,-9.52,-0.31,-1.32,5.81,2.14,-5.86
16.99110400676727,2,3,3,0,-9.56,-0.59,-1.31,6.8,2.39,-6.26
17.00110399723053,2,3,3,0,-9.43,-0.77,-1.37,7.86,2.58,-5.94
17.01110398769379,2,3,3,0,-9.4,-1.09,-1.49,9.23,2.96,-5.42
17.02110397815704,2,3,3,1,-9.41,-1.21,-1.82,9.23,2.96,-5.42
17.0311039686203,2,3,3,1,-9.6,-0.92,-1.85,10.71,3.58,-4.69
17.04110395908356,2,3,3,1,-9.710000000000001,-0.16,-1.54,11.28,4.01,-2.94
17.05110394954681,2,3,3,1,-9.710000000000001,0.53,-1.21,10.46,3.64,-1.82
17.06110394001007,2,3,3,1,-9.75,1.05,-0.57,9.91,3.54,-0.71
17.07110393047333,2,3,3,1,-10.17,0.88,-0.65,9.91,3.54,-0.71
17.08110392093658,2,3,3,1,-10.84,0.77,-1.07,10.04,3.84,0.37
17.09110414981842,2,3,3,1,-12.47,0.58,-1.4,11.59,4.67,2.03
17.10110414028168,2,3,3,1,-12.79,0.6899999999999999,-0.32,11.77,3.85,2.59
17.11110413074493,2,3,3,1,-12.27,0.83,-0.5600000000000001,10.22,3.36,2.75
17.12110412120819,2,3,3,2,-11.87,1.06,-1.71,10.22,3.36,2.75
17.13110411167145,2,3,3,2,-11.45,1.5,-1.99,7.93,2.99,2.59
17.1411041021347,2,3,3,2,-11.31,1.18,-1.86,0.14,2.69,1.9
17.15110409259796,2,3,3,2,-10.88,0.21,-1.86,-6.04,3.65,1.51
17.16110408306122,2,3,3,2,-10.67,-1.01,-1.99,-11.84,5.68,1.82
17.17110407352448,2,3,3,2,-11.33,-2.77,-3.37,-11.84,5.68,1.82
17.18110406398773,2,3,3,2,-12.38,-3.62,-4.12,-16.22,7.71,2.76
17.19110405445099,2,3,3,2,-13.31,-4.65,-4.24,-18.62,7.2,5.88
17.20110404491425,2,3,3,2,-13.61,-5.77,-4.18,-16.29,4.79,7.71
17.2111040353775,2,3,3,2,-13.08,-6.61,-3.86,-12.71,1.37,9.539999999999999
17.22110402584076,2,3,3,2,-12.72,-6.3,-3.25,-12.71,1.37,9.539999999999999
17.23110401630402,2,3,3,2,-11.69,-6.07,-2.12,-8.06,-3.26,11.5
17.24110400676727,2,3,3,2,-10.36,-5.76,-1.5,-0.62,-10.25,13.59
17.25110399723053,2,3,3,2,-9.33,-4.76,-1.23,3.37,-10.62,13.85
17.26110398769379,2,3,3,2,-9.6,-4.32,-0.71,7.19,-10.29,13.98
17.27110397815704,2,3,3,3,-9.800000000000001,-3.84,-0.23,7.19,-10.29,13.98
17.2811039686203,2,3,3,3,-10.33,-2.24,-0.57,9.85,-9.710000000000001,13.93
17.29110395908356,2,3,3,3,-10.48,-0.95,-0.55,9.58,-7.67,12.79
17.30110394954681,2,3,3,3,-10.96,0.37,-0.48,6.93,-5.79,11.5
17.31110394001007,2,3,3,3,-11.05,1.4,-0.61,3.49,-4.28,9.77
17.32110393047333,2,3,3,3,-10.19,1.56,-0.6,3.49,-4.28,9.77
17.33110392093658,2,3,3,3,-9.619999999999999,1.11,-0.4,-0.4,-3.45,7.68
17.34110414981842,2,3,3,3,-9.26,0.77,-0.33,-8.119999999999999,-4.38,4.69
17.35110414028168,2,3,3,3,-8.77,0.51,-0.53,-11.45,-5.92,3.62
17.36110413074493,2,3,3,3,-8.17,0.14,-0.76,-13.99,-7.6,2.89
17.37110412120819,2,3,3,3,-8.23,0.02,-0.82,-13.99,-7.6,2.89
17.38110411167145,2,3,3,3,-8.18,0.1,-0.9,-15.77,-9.1,2.55
17.3911041021347,2,3,3,3,-8.050000000000001,0.2,-0.82,-18.06,-12.1,1.89
17.40110409259796,2,3,3,3,-7.57,0.11,-0.64,-18.75,-13.12,1.55
17.41110408306122,2,3,3,3,-7.36,0,-0.42,-19.26,-13.61,1.09
17.42110407352448,2,3,3,3,-7.29,-0.11,-0.08,-19.26,-13.61,1.09
17.43110406398773,2,3,3,3,-7.22,-0.54,0.26,-18.87,-13.28,0.71
17.44110405445099,2,3,3,3,-7.22,-1.38,0.37,-17.02,-10.95,0.52
17.45110404491425,2,3,3,3,-7.27,-1.57,0.1,-16.57,-9.529999999999999,0.77
17.4611040353775,2,3,3,3,-7.53,-1.69,0.09,-16.18,-8.26,1.02
17.47110402584076,2,3,3,3,-7.72,-1.5,0.18,-16.18,-8.26,1.02
17.48110401630402,2,3,3,3,-8.289999999999999,-1.01,0.57,-15.6,-7.18,1.16
17.49110400676727,2,3,3,3,-8.6,-0.8100000000000001,0.79,-14.32,-6.08,0.47
17.50110399723053,2,3,3,3,-8.85,-0.84,0.78,-13.54,-5.84,-0.28
17.51110398769379,2,3,3,3,-8.91,-0.9399999999999999,0.98,-12.45,-5.7,-1.15
17.52110397815704,2,3,3,3,-8.59,-0.99,1.15,-12.45,-5.7,-1.15
17.5311039686203,2,3,3,3,-8.140000000000001,-0.98,1.32,-11.59,-5.27,-2.01
17.54110395908356,2,3,3,3,-7.8,-0.77,1.34,-9.470000000000001,-2.58,-3.36
17.55110394954681,2,3,3,3,-7.45,-0.15,0.73,-7.94,-0.99,-3.71
17.56110394001007,2,3,3,3,-7.41,0.13,0.65,-6.03,0.42,-3.89
17.57110393047333,2,3,3,3,-7.38,0.36,0.6899999999999999,-6.03,0.42,-3.89
17.58110392093658,2,3,3,3,-7.38,0.52,0.85,-4.52,1.76,-3.97
17.59110414981842,2,3,3,3,-7.61,0.73,1.35,-2.76,4.49,-3.89
17.60110414028168,2,3,3,3,-7.75,0.88,1.76,-2.15,5.87,-3.69
17.61110413074493,2,3,3,3,-8.109999999999999,1.09,2.43,-1.85,7.29,-3.45
17.62110412120819,2,3,3,2,-8.59,1.21,2.69,-1.85,7.29,-3.45
17.63110411167145,2,3,3,2,-8.800000000000001,1.38,1.66,-1.77,7.74,-2.9
17.6411041021347,2,3,3,2,-8.720000000000001,1.17,1.14,-1.53,6.92,-1.99
17.65110409259796,2,3,3,2,-9.01,0.93,1.02,-1.68,6.18,-1.46
17.66110408306122,2,3,3,2,-9.210000000000001,0.8100000000000001,1.16,-1.62,5.16,-0.85
17.67110407352448,2,3,3,2,-8.76,-0.35,0.7,-1.62,5.16,-0.85
17.68110406398773,2,3,3,2,-8.27,-1.32,0.01,-2.42,5.14,-0.78
17.69110405445099,2,3,3,2,-8.859999999999999,-1.55,-0.88,-8.77,5.86,-1.89
17.70110404491425,2,3,3,2,-12.17,0.29,0.17,-8.26,3.72,-0.89
17.7111040353775,2,3,3,2,-14.36,1.54,2.53,-6.33,1.81,0.9
17.72110402584076,2,3,3,1,-15.68,2.98,3.28,-6.33,1.81,0.9
17.73110401630402,2,3,3,1,-15.42,3.92,2.46,-4.51,-0.84,2.73
17.74110400676727,2,3,3,1,-14.44,4.27,3.24,-1.35,-5.96,4.51
17.75110399723053,2,3,3,1,-14.22,3.52,3.07,-2.89,-7.13,4.67
17.76110398769379,2,3,3,1,-13.29,2.43,2.25,-7.17,-8.25,4.21
17.77110397815704,2,3,3,1,-11.94,2.08,2.61,-7.17,-8.25,4.21
17.7811039686203,2,3,3,1,-11.19,0.57,3.92,-11.06,-9.869999999999999,4.01
17.79110395908356,2,3,3,1,-11.32,-1.17,2.52,-13.86,-9.42,1.76
17.82110393047333,2,3,3,0,-20.04,-5.93,-0.83,-11.47,-4.95,-3.22
17.83110392093658,2,3,3,0,-18.92,-5.69,0.41,-6.56,-4.86,-5.43
17.84110414981842,2,3,3,0,-14.74,-5.26,1.04,7.93,-11.05,-3.73
17.85110414028168,2,3,3,0,-10.98,-4.64,1.09,12.94,-10.49,-1.02
17.86110413074493,2,3,3,0,-5.82,-3.24,0.88,14.66,-7.63,0.96
17.87110412120819,2,3,3,0,-5.37,-2.21,0.97,14.66,-7.63,0.96
17.8821040391922,2,3,3,0,-5.5,-1.03,0.49,13.69,-3.93,1.92
17.89210402965546,2,3,3,0,-5.83,-0.04,-1.08,12.83,1.1,2.84
17.90210402011871,2,3,3,0,-5.52,0.42,-1.22,11.5,2.99,2.78
17.91210401058197,2,3,3,0,-5.13,0.95,-0.92,8.9,5.65,1.65
17.92210400104523,2,3,3,0,-4.86,1.4,-0.8,8.9,5.65,1.65
17.93210399150848,2,3,3,0,-11.32,-0.31,-1.59,5.8,9.32,-0.82
17.94210398197174,2,3,3,0,-13.07,-1.17,-1.7,-1.06,8.199999999999999,-4.38
17.952103972435,2,3,3,0,-13.11,-2.01,-1.56,-2.5,5.39,-4.54
17.96210396289825,2,3,3,0,-12.33,-2.83,-1.15,-2.67,3.79,-4.51
17.97210395336151,2,3,3,0,-9.41,-3.55,-0.59,-2.67,3.79,-4.51
17.98210394382477,2,3,3,0,-8.33,-3.31,-0.59,-1.72,3.69,-4.13
17.99210393428802,2,3,3,0,-7.74,-3.13,-0.51,1.9,6.07,-3
18.00210392475128,2,3,3,0,-7.42,-2.85,-0.73,3.64,6.79,-2.27
18.01210415363312,2,3,3,0,-6.64,-2.41,-0.68,5.03,6.96,-1.57
18.02210414409637,2,3,3,0,-6.3,-2.21,-0.77,5.03,6.96,-1.57
18.03210413455963,2,3,3,0,-6.11,-2.13,-0.79,5.96,6.99,-1.15
18.04210412502289,2,3,3,0,-6.16,-2.2,-1.02,7.5,7.75,-0.05
18.05210411548615,2,3,3,0,-7.19,-2.09,-1.5,8.81,8.460000000000001,0.16
18.0621041059494,2,3,3,0,-7.89,-2.01,-1.38,10.09,9.1,-0.06
18.07210409641266,2,3,3,0,-8.640000000000001,-1.85,-1.5,10.09,9.1,-0.06
18.08210408687592,2,3,3,0,-9.73,-1.68,-1.48,11.16,9.59,-0.63
18.09210407733917,2,3,3,0,-9.93,-1.49,-1.41,11.91,9.17,-1.42
18.10210406780243,2,3,3,0,-10.04,-1.19,-1.53,11.63,8.16,-1.55
18.11210405826569,2,3,3,0,-9.91,-0.88,-1.39,11.37,7.05,-1.62
18.12210404872894,2,3,3,0,-9.210000000000001,-0.31,-0.99,11.37,7.05,-1.62
18.1321040391922,2,3,3,0,-8.800000000000001,-0.16,-1.19,10.81,6.2,-1.73
18.14210402965546,2,3,3,0,-8.65,-0.17,-1.22,10.18,6.11,-2.52
18.15210402011871,2,3,3,0,-8.710000000000001,-0.3,-1.34,10.18,6.11,-2.52
18.16210401058197,2,3,3,0,-9.380000000000001,-0.51,-1.74,10.02,6.59,-3.2
18.17210400104523,2,3,3,0,-9.630000000000001,-0.5600000000000001,-1.72,9.970000000000001,6.97,-3.94
18.18210399150848,2,3,3,0,-9.880000000000001,-0.39,-1.78,10.04,7.12,-4.62
18.19210398197174,2,3,3,0,-9.98,-0.29,-1.61,9.93,6.92,-5.18
18.202103972435,2,3,3,0,-9.69,0.03,-1.64,9.73,6.29,-5.5
18.21210396289825,2,3,3,0,-9.529999999999999,0.2,-1.51,9.33,5.55,-5.52
18.22210395336151,2,3,3,0,-9.32,0.19,-1.34,8.85,4.76,-5.48
18.23210394382477,2,3,3,0,-9.19,0.26,-1.22,8.23,3.98,-5.39
18.24210393428802,2,3,3,0,-9.25,0.33,-1.05,7.48,3.27,-5.25
18.25210392475128,2,3,3,0,-9.34,0.14,-1.21,6.51,2.55,-5.13
18.27210414409637,2,3,3,0,-9.529999999999999,-0.17,-1.16,5.2,1.64,-5.2
18.28210413455963,2,3,3,0,-9.390000000000001,-0.13,-1.16,5.09,1.57,-5.41
18.29210412502289,2,3,3,0,-9.279999999999999,-0.16,-1.03,5.26,1.67,-5.73
18.30210411548615,2,3,3,0,-8.98,-0.13,-1.02,5.58,1.78,-6.02
18.3121041059494,2,3,3,0,-8.640000000000001,-0.34,-0.98,5.93,1.96,-6.3
18.32210409641266,2,3,3,0,-8.640000000000001,-0.51,-0.93,6.43,2.25,-6.35
18.33210408687592,2,3,3,0,-8.73,-0.65,-1.01,7.17,2.53,-6.24
18.34210407733917,2,3,3,0,-8.890000000000001,-0.84,-1.16,8.01,2.79,-5.8
18.35210406780243,2,3,3,0,-9.23,-1.31,-1.89,9.050000000000001,2.97,-5.07
18.36210405826569,2,3,3,0,-9.5,-1.35,-2.15,10.49,3.38,-4.26
18.37210404872894,2,3,3,0,-9.779999999999999,-0.85,-2.3,11.78,3.91,-3.52
18.3821040391922,2,3,3,0,-10.02,-0.12,-2.18,12.15,4.06,-2.82
18.39210402965546,2,3,3,0,-9.93,1.06,-1.29,11.71,3.53,-1.96
18.40210402011871,2,3,3,0,-9.77,1.18,-1.1,11.07,2.83,-1.01
18.41210401058197,2,3,3,0,-10.02,1.04,-0.93,10.98,2.6,0.09
18.42210400104523,2,3,3,0,-10.58,0.96,-1.06,11.49,2.85,1.14
18.43210399150848,2,3,3,0,-11.86,0.72,-1.04,12.03,3.23,2.06
18.44210398197174,2,3,3,0,-12.14,0.37,-0.51,12.75,3.19,2.84
18.452103972435,2,3,3,0,-11.94,0.29,-0.4,12.88,2.71,3.39
18.46210396289825,2,3,3,0,-11.75,0.36,-0.48,11.51,2.43,3.74
18.47210395336151,2,3,3,0,-11.29,0.9399999999999999,-0.79,8.16,2.15,4.06
18.48210394382477,2,3,3,0,-10.97,0.52,-1.11,3.64,1.93,4.13
18.49210393428802,2,3,3,0,-10.91,-0.3,-1.53,-1.61,2.73,3.81
18.50210392475128,2,3,3,0,-11.62,-1.46,-3.47,-7.11,4.53,3.66
18.51210415363312,2,3,3,0,-12.39,-2.09,-4.1,-11.87,7.15,3.97
18.52210414409637,2,3,3,0,-13.17,-2.99,-4.44,-15.37,9.050000000000001,4.52
18.53210413455963,2,3,3,0,-13.78,-4.1,-4.47,-16.77,9.300000000000001,5.26
18.54210412502289,2,3,3,0,-13.04,-5.69,-4.22,-16.02,7.54,6.33
18.55210411548615,2,3,3,0,-12.38,-5.99,-3.66,-13.39,4.57,7.49
18.5621041059494,2,3,3,0,-11.68,-6.1,-2.42,-10.09,1.44,8.49
18.57210409641266,2,3,3,0,-10.71,-6.05,-1.53,-5.95,-2.18,9.75
18.58210408687592,2,3,3,0,-9.630000000000001,-5.22,-0.89,-2.19,-5.29,10.98
18.59210407733917,2,3,3,0,-9.359999999999999,-4.71,-0.61,1.98,-7.39,11.96
18.60210406780243,2,3,3,0,-9.279999999999999,-4.26,-0.33,6.32,-8.48,12.75
18.61210405826569,2,3,3,0,-9.42,-3.76,-0.15,9.970000000000001,-8.859999999999999,13.51
18.62210404872894,2,3,3,0,-9.81,-2.09,-1,11.98,-8.94,14.12
18.6321040391922,2,3,3,0,-10.49,-0.5600000000000001,-0.98,11.85,-8.470000000000001,14.34
18.64210402965546,2,3,3,0,-11.01,0.95,-0.57,9.890000000000001,-7.45,13.95
18.65210402011871,2,3,3,0,-11.18,1.93,-0.37,6.81,-6.15,12.66
18.66210401058197,2,3,3,0,-10.54,1.97,-0.07000000000000001,2.51,-5.01,10.09
18.67210400104523,2,3,3,0,-10.15,1.53,-0.08,-2.52,-4.43,7.02
18.68210399150848,2,3,3,0,-9.9,0.92,-0.16,-7.09,-4.34,4.56
18.69210398197174,2,3,3,0,-9.15,-0.08,-0.54,-11.02,-5.17,2.86
18.702103972435,2,3,3,0,-8.9,-0.35,-0.93,-14.09,-6.37,1.66
18.71210396289825,2,3,3,0,-8.619999999999999,-0.54,-1.16,-16.03,-7.65,1.01
18.72210395336151,2,3,3,0,-8.6,-0.61,-1.01,-16.72,-8.640000000000001,0.88
18.73210394382477,2,3,3,0,-8.34,-0.23,-1.03,-17.56,-9.779999999999999,0.7
18.74210393428802,2,3,3,0,-8.279999999999999,0.02,-0.87,-18.47,-10.6,0.42
18.75210392475128,2,3,3,0,-8.199999999999999,0.06,-0.6899999999999999,-18.52,-11.23,0.26
18.76210415363312,2,3,3,0,-8.199999999999999,0.02,-0.52,-18.1,-11.48,-0.04
18.77210414409637,2,3,3,0,-8.02,-0.6,0.04,-17.59,-11.15,-0.47
18.78210413455963,2,3,3,0,-7.98,-0.9,0,-16.94,-10.24,-0.85
18.79210412502289,2,3,3,0,-8.01,-1.15,0.15,-16.07,-9.09,-0.95
18.80210411548615,2,3,3,0,-8.15,-1.3,0.23,-15.04,-7.78,-0.92
18.8121041059494,2,3,3,0,-8.369999999999999,-1.3,0.87,-14.19,-6.61,-0.9
18.82210409641266,2,3,3,0,-8.4,-1.29,0.98,-13.73,-5.8,-0.97
18.83210408687592,2,3,3,0,-8.300000000000001,-1.12,0.25,-14.22,-5.21,-1.37
18.84210407733917,2,3,3,0,-8.51,-0.91,-0.21,-14.35,-4.87,-1.98
18.85210406780243,2,3,3,0,-8.33,-0.7,0.01,-13.11,-5.27,-2.26
18.86210405826569,2,3,3,0,-8.18,-0.62,0.22,-11.42,-5.44,-2.49
18.87210404872894,2,3,3,0,-8,-0.75,0.3,-9.84,-5.02,-2.76
18.8821040391922,2,3,3,0,-7.34,-0.77,0.37,-8.5,-4.32,-2.96
18.89210402965546,2,3,3,0,-7.13,-0.66,0.52,-7.45,-3.4,-2.97
18.90310394763947,2,3,3,0,-7,-0.49,0.54,-6.09,-2.12,-2.77
18.91310393810272,2,3,3,0,-7.07,-0.33,0.67,-4.75,-0.63,-2.51
18.92310392856598,2,3,3,0,-7.36,-0.02,0.83,-3.63,0.9,-2.27
18.93310415744781,2,3,3,0,-7.58,0.05,0.97,-2.91,2.29,-2
18.94310414791107,2,3,3,0,-7.82,0.1,1.19,-2.5,3.61,-1.87
18.95310413837433,2,3,3,0,-8.140000000000001,0.19,1.11,-2.48,4.96,-1.89
18.96310412883759,2,3,3,0,-8.67,0.4,0.87,-2.82,6.04,-2.06
18.97310411930084,2,3,3,0,-9.029999999999999,0.38,0.9399999999999999,-3.28,6.79,-2.4
18.9831041097641,2,3,3,0,-9.52,0.27,1.27,-3.75,7.39,-2.71
18.99310410022736,2,3,3,0,-10.02,0.07000000000000001,1.34,-3.95,7.35,-2.68
19.00310409069061,2,3,3,0,-10.38,-0.53,1.01,-3.89,6.12,-2.17
19.01310408115387,2,3,3,0,-9.9,-0.91,0.47,-3.93,4.02,-1.43
19.02310407161713,2,3,3,0,-9.210000000000001,-1.45,-0.4,-4.37,2.33,-0.9
19.03310406208038,2,3,3,0,-9.19,-1.75,-1.3,-6.12,2.46,-1.31
19.04310405254364,2,3,3,0,-10.7,-0.63,-1.24,-8.07,2.62,-1.84
19.0531040430069,2,3,3,0,-11.59,0.12,0.75,-7.37,1.4,-1.32
19.06310403347015,2,3,3,0,-12.43,1.02,2.7,-5.13,0.39,0.12
19.07310402393341,2,3,3,0,-12.81,1.86,2.77,-3.67,-0.59,1.76
19.08310401439667,2,3,3,0,-12.28,2.8,2.16,-2.5,-2.52,3.19
