timestamp,magCalib,accCalib,gyrCalib,sysCalib,accX,accY,accZ,gyrX,gyrY,gyrZ
0.0461040735244751,3,3,3,1,-9.460000000000001,-4.11,-1.06,3.92,1.26,1.17
0.05610406398773193,3,3,3,1,-9.5,-4.24,-1.14,3.13,0.52,0.46
0.06610405445098877,3,3,3,1,-9.710000000000001,-4.18,-1.6,3.49,-0.07000000000000001,-0.14
0.07610404491424561,3,3,3,1,-9.67,-2.3,-1.08,4.46,-0.62,-0.77
0.08610403537750244,3,3,3,1,-9.529999999999999,-1.15,-1.15,4.97,-1.03,-0.91
0.09610402584075928,3,3,3,1,-9.48,-0.76,-1.73,5.73,-0.57,-1.12
0.1061040163040161,3,3,3,1,-9.550000000000001,-0.5,-2.27,6.25,-0.24,-0.6899999999999999
0.1161040067672729,3,3,3,1,-9.77,0.05,-3.31,6.62,-0.13,-0.41
0.1261039972305298,3,3,3,1,-9.69,0.59,-3.41,6.06,-0.29,-0.53
0.1361039876937866,3,3,3,1,-9.5,1,-3.43,5.9,-0.13,-0.96
0.1461039781570435,3,3,3,1,-9.17,1.05,-3.59,5.67,-0.2,-0.92
0.1561039686203003,3,3,3,1,-9.220000000000001,0.63,-3.25,5.31,-0.67,-0.55
0.1661039590835571,3,3,3,1,-9.460000000000001,0.41,-3.14,5.35,-0.61,-0.24
0.176103949546814,3,3,3,1,-9.41,0.36,-2.98,4.9,-0.79,-0.22
0.1861039400100708,3,3,3,1,-9.23,-0.25,-2.99,4.63,-0.76,-0.26
0.1961039304733276,3,3,3,1,-9.380000000000001,-0.47,-2.94,4.56,-0.95,-0.24
0.2061039209365845,3,3,3,1,-9.56,-0.71,-2.98,4.88,-1.29,-0.15
0.2161041498184204,3,3,3,1,-9.59,-0.93,-2.95,5.48,-1.5,-0.03
0.2261041402816772,3,3,3,1,-9.710000000000001,-1.4,-2.42,6.35,-1.74,0.13
0.2361041307449341,3,3,3,1,-9.699999999999999,-1.18,-2.17,6.78,-1.9,0.36
0.2461041212081909,3,3,3,1,-9.67,-0.75,-2.12,7.23,-2.06,0.57
0.2561041116714478,3,3,3,1,-9.609999999999999,-0.42,-2.3,7.43,-1.98,0.71
0.2661041021347046,3,3,3,1,-9.449999999999999,-0.36,-2.29,7.79,-1.91,0.86
0.2761040925979614,3,3,3,1,-9.449999999999999,-0.62,-2.33,8.18,-2.02,1.05
0.2861040830612183,3,3,3,1,-9.41,-0.71,-2.39,8.23,-1.98,1.27
0.2961040735244751,3,3,3,1,-9.43,-0.58,-2.46,8.81,-2.11,1.4
0.3061040639877319,3,3,3,1,-9.529999999999999,-0.5,-2.2,9.19,-2.26,1.47
0.3161040544509888,3,3,3,1,-9.51,-0.42,-2.16,9.390000000000001,-2.18,1.47
0.3261040449142456,3,3,3,1,-9.44,-0.28,-1.99,9.58,-2.29,1.43
0.3361040353775024,3,3,3,1,-9.56,0,-1.92,9.58,-2.34,1.52
0.3461040258407593,3,3,3,1,-9.779999999999999,0.4,-1.87,9.470000000000001,-2.24,1.69
0.3561040163040161,3,3,3,1,-9.84,0.68,-1.86,9.130000000000001,-2.09,1.72
0.3661040067672729,3,3,3,1,-9.74,0.75,-2.1,8.800000000000001,-1.96,1.67
0.3761039972305298,3,3,3,1,-9.65,0.8,-2.13,8.44,-2.11,1.57
0.3861039876937866,3,3,3,1,-9.57,0.45,-2.18,7.95,-2.01,1.38
0.3961039781570435,3,3,3,1,-9.529999999999999,0.4,-2.08,7.17,-1.97,1.21
0.4061039686203003,3,3,3,1,-9.609999999999999,0.51,-2.18,6.33,-2.1,1.03
0.4161039590835571,3,3,3,1,-9.640000000000001,0.64,-2.2,5.74,-2.12,1.02
0.426103949546814,3,3,3,1,-9.57,0.58,-1.91,5.24,-2.15,1.01
0.4361039400100708,3,3,3,1,-9.710000000000001,0.63,-1.91,4.89,-2.18,0.97
0.4461039304733276,3,3,3,1,-9.75,0.71,-1.81,4.68,-2.32,0.9399999999999999
0.4561039209365845,3,3,3,1,-9.65,0.86,-1.84,4.28,-2.54,0.95
0.4661041498184204,3,3,3,1,-9.57,0.64,-2.18,3.59,-2.61,1.03
0.4761041402816772,3,3,3,1,-9.58,0.57,-2.02,3.27,-2.47,1.07
0.4861041307449341,3,3,3,1,-9.550000000000001,0.49,-1.89,3.15,-2.33,1.16
0.4961041212081909,3,3,3,1,-9.630000000000001,0.08,-1.91,2.87,-2.45,1.22
0.5061041116714478,3,3,3,1,-9.699999999999999,0.05,-1.96,2.55,-2.38,1.29
0.5161041021347046,3,3,3,1,-9.68,-0.09,-2.04,2.37,-2.36,1.31
0.5261040925979614,3,3,3,1,-9.59,-0.18,-1.94,2.02,-2.48,1.29
0.5361040830612183,3,3,3,1,-9.57,-0.08,-1.75,1.73,-2.6,1.34
0.5461040735244751,3,3,3,1,-9.619999999999999,-0.03,-1.85,1.38,-2.62,1.33
0.5561040639877319,3,3,3,1,-9.720000000000001,0.19,-2.08,0.87,-2.69,1.25
0.5661040544509888,3,3,3,1,-9.710000000000001,0.31,-2.43,0.32,-2.58,1.16
0.5761040449142456,3,3,3,1,-9.6,0.23,-2.18,0.05,-2.6,1.17
0.5861040353775024,3,3,3,1,-9.58,0.35,-2.18,-0.17,-2.63,1.14
0.5961040258407593,3,3,3,1,-9.609999999999999,0.67,-2.36,-0.85,-2.64,0.95
0.6061040163040161,3,3,3,1,-9.640000000000001,1.07,-2.24,-1.57,-2.65,0.7
0.6161040067672729,3,3,3,1,-9.69,1.36,-2.08,-2.29,-2.57,0.48
0.6261039972305298,3,3,3,1,-9.67,1.42,-2.09,-3.41,-2.78,0.55
0.6361039876937866,3,3,3,1,-9.76,1.44,-2.25,-4.77,-3.18,0.57
0.6461039781570435,3,3,3,1,-9.76,1.25,-2.39,-5.79,-3.26,0.46
0.6561039686203003,3,3,3,1,-9.619999999999999,0.6,-2.37,-6.42,-3.5,0.38
0.6661039590835571,3,3,3,1,-9.56,0.38,-2.24,-6.94,-3.74,0.37
0.676103949546814,3,3,3,1,-9.49,0.09,-1.86,-7.09,-4.01,0.4
0.6861039400100708,3,3,3,1,-9.57,-0.03,-1.37,-7.27,-4.24,0.49
0.6961039304733276,3,3,3,1,-9.75,-0.05,-0.6,-7.34,-4.3,0.59
0.7061039209365845,3,3,3,1,-9.699999999999999,-0.29,-0.37,-7.44,-4.39,0.73
0.7161041498184204,3,3,3,1,-9.710000000000001,-0.5,-0.26,-7.9,-4.36,0.83
0.7261041402816772,3,3,3,1,-9.69,-0.74,-0.14,-8.130000000000001,-4.28,0.8
0.7361041307449341,3,3,3,1,-9.710000000000001,-1.62,0.28,-8.41,-4.27,0.67
0.7461041212081909,3,3,3,2,-9.92,-1.8,0.23,-8.58,-4.16,0.46
0.7561041116714478,3,3,3,2,-10.11,-1.49,0.18,-8.289999999999999,-4.04,0.17
0.7661041021347046,3,3,3,2,-10.11,-1.33,0.17,-7.81,-3.82,-0.43
0.7761040925979614,3,3,3,2,-9.9,-0.89,0.27,-7.34,-3.14,-0.85
0.7861040830612183,3,3,3,2,-9.9,-0.61,0.37,-6.42,-2.92,-0.82
0.7961040735244751,3,3,3,2,-9.880000000000001,-0.51,0.11,-5.27,-2.56,-0.4
0.8061040639877319,3,3,3,2,-9.75,-0.6,-0.28,-3.55,-1.75,0.06
0.8161040544509888,3,3,3,2,-9.369999999999999,-1.98,-1.6,-1.3,-0.5600000000000001,0.37
0.8261040449142456,3,3,3,2,-9.369999999999999,-2.99,-1.73,1.1,0.65,0.58
0.8361040353775024,3,3,3,2,-9.43,-3.99,-1.5,3.75,1.22,0.85
0.8461040258407593,3,3,3,2,-9.94,-5.32,-0.77,6.61,0.8100000000000001,1.13
0.8561040163040161,3,3,3,2,-10.29,-5.41,-0.5,9.710000000000001,-0.02,1.38
0.8661040067672729,3,3,3,2,-10.52,-5.22,-0.34,13.16,-0.51,1.6
0.8761039972305298,3,3,3,2,-10.66,-4.77,-0.04,16.47,-0.67,1.52
0.8861039876937866,3,3,3,2,-10.9,-3.27,0.14,19.01,-0.32,1.24
0.8961039781570435,3,3,3,2,-10.9,-2.57,-0.05,20.62,0.05,0.76
0.9061039686203003,3,3,3,2,-10.85,-1.91,-0.5600000000000001,21.3,-0.13,0.07000000000000001
0.9161039590835571,3,3,3,2,-11.02,-1.63,-1.39,21.86,-0.67,-1.03
0.927104115486145,3,3,3,2,-12.13,0.58,-1.75,23.36,-1.55,-2.64
0.9361039400100708,3,3,3,2,-12.17,3.11,-0.66,25.09,-3.64,-5.17
0.9461039304733276,3,3,3,2,-10.59,5.6,0,19.79,-5.98,-7.78
0.9571040868759155,3,3,3,2,-7.85,6.74,-0.1,13.13,-5.34,-7.85
0.9661041498184204,3,3,3,2,-6.96,4.82,-2.89,9.779999999999999,2.12,-5.87
0.9761041402816772,3,3,3,2,-7.89,4.01,-3.24,5.8,9.33,-4.67
0.9861041307449341,3,3,3,2,-8.41,3.9,-2.89,2.6,7.12,-3.87
0.9961041212081909,3,3,3,2,-8.699999999999999,3.98,-2.77,0.36,1.56,-3.04
1.006104111671448,3,3,3,2,-9.539999999999999,3.94,-2.51,-1.21,-0.3,-2.8
1.016104102134705,3,3,3,2,-9.52,3.95,-2.06,-2.04,0.64,-3.29
1.027104020118713,3,3,3,2,-9.050000000000001,3.6,-1.83,-2.88,1.85,-4.38
1.03710401058197,3,3,3,2,-8.34,3.23,-1.48,-3.87,2.47,-5.34
1.047104001045227,3,3,3,2,-7.4,2.61,-1.43,-4.16,2.94,-5.58
1.057103991508484,3,3,3,2,-7.45,2.08,-1.57,-4.05,3.46,-5.15
1.067103981971741,3,3,3,2,-8.300000000000001,1.85,-1.38,-3.19,4.6,-4.33
1.077103972434998,3,3,3,2,-9.119999999999999,1.69,-1.27,-1.98,5.47,-3.54
1.087103962898254,3,3,3,2,-9.720000000000001,0.79,-1.72,-0.39,4.9,-2.72
1.097103953361511,3,3,3,2,-9.77,0.13,-1.23,1.08,4.8,-2.33
1.107103943824768,3,3,3,2,-9.75,-1.41,-1.37,1.35,5.14,-2.79
1.117103934288025,3,3,3,2,-10.63,-4.29,0.26,0.26,5,-3.26
1.127103924751282,3,3,3,2,-14.81,-8.199999999999999,5.08,1.58,1.51,-2.16
1.137104153633118,3,3,3,2,-15.83,-0.27,6.77,13.98,-2.76,0.92
1.147104144096375,3,3,3,2,-14.52,9.17,5.61,25.03,-2.48,3.05
1.157104134559631,3,3,3,2,-11.94,13.42,2.67,19.96,0.88,4.16
1.167104125022888,3,3,3,2,-9.369999999999999,8.68,1.87,9.199999999999999,4.58,3.82
1.177104115486145,3,3,3,2,-9.220000000000001,4.92,-0.78,-1.78,7.24,3.03
1.187104105949402,3,3,3,2,-8.77,1.84,-2.45,-5.54,5.89,3.8
1.197104096412659,3,3,3,2,-8.220000000000001,-2.77,-3.23,-4.79,2.58,4.9
1.207104086875916,3,3,3,2,-9.19,-3.27,-3.65,-4.68,0.53,4.11
1.217104077339172,3,3,3,2,-10.21,-2.38,-4.2,-3.75,1.82,2.94
1.227104067802429,3,3,3,2,-10.15,-1.23,-4.46,-2.1,3.11,2.21
1.237104058265686,3,3,3,2,-8.890000000000001,0.22,-2.74,-2.46,2.61,1.51
1.247104048728943,3,3,3,2,-8.960000000000001,0.43,-1.36,-2.77,2.22,0.95
1.2571040391922,3,3,3,2,-9.279999999999999,0.09,-0.8,-3.06,1.83,0.65
1.267104029655457,3,3,3,2,-9.539999999999999,-0.34,-0.51,-3.97,0.7,0.9
1.277104020118713,3,3,3,2,-10.38,-1.97,0.19,-4.2,-0.35,1.55
1.28710401058197,3,3,3,2,-10.71,-2.51,0.54,-4.17,-0.21,2.05
1.297104001045227,3,3,3,2,-10.4,-2.78,0.66,-3.2,0.29,2.27
1.307103991508484,3,3,3,2,-9.779999999999999,-2.85,0.37,-1.44,0.86,2.37
1.317103981971741,3,3,3,2,-9.19,-1.83,-0.07000000000000001,0.53,1.27,2.33
1.327103972434998,3,3,3,2,-9.34,-1.24,-0.39,2.19,1.8,2.24
1.337103962898254,3,3,3,2,-9.539999999999999,-1.26,-1.18,2.99,2.55,2.15
1.347103953361511,3,3,3,2,-9.67,-1.52,-1.47,3.51,2.89,1.99
1.357103943824768,3,3,3,2,-9.369999999999999,-1.72,-1.93,4.17,2.42,2.01
1.367103934288025,3,3,3,2,-9.300000000000001,-1.53,-1.95,4.84,1.87,1.99
1.377103924751282,3,3,3,2,-9.449999999999999,-1.35,-1.72,5.88,1.78,1.86
1.387104153633118,3,3,3,2,-9.68,-1.03,-1.68,6.14,1.8,1.86
1.397104144096375,3,3,3,2,-9.84,-0.27,-1.47,6.28,1.72,1.96
1.407104134559631,3,3,3,2,-9.880000000000001,0.28,-1.5,6.15,1.75,1.92
1.417104125022888,3,3,3,2,-9.85,0.8,-1.55,5.53,1.64,1.79
1.427104115486145,3,3,3,2,-9.789999999999999,1.3,-1.78,4.58,1.33,1.81
1.437104105949402,3,3,3,2,-9.84,1.62,-1.58,3.41,1.02,1.8
1.447104096412659,3,3,3,2,-9.75,1.3,-1.47,2.17,0.86,1.76
1.457104086875916,3,3,3,2,-9.69,0.93,-1.57,0.76,0.78,1.89
1.467104077339172,3,3,3,2,-9.640000000000001,0.83,-1.67,-0.13,0.78,2.01
1.477104067802429,3,3,3,2,-9.69,0.61,-1.59,-0.65,0.64,1.96
1.487104058265686,3,3,3,2,-9.68,0.37,-1.26,-0.89,0.5,1.75
1.497104048728943,3,3,3,2,-9.699999999999999,0.06,-1.2,-0.9,0.43,1.54
1.5071040391922,3,3,3,2,-9.68,-0.05,-1.43,-0.8,0.42,1.59
1.517104029655457,3,3,3,2,-9.710000000000001,0.1,-1.55,-0.43,0.5,1.7
1.527104020118713,3,3,3,2,-9.76,0.21,-1.6,-0.21,0.61,1.76
1.53710401058197,3,3,3,2,-9.710000000000001,0.19,-1.81,-0.08,0.89,1.71
1.547104001045227,3,3,3,2,-9.56,-0.19,-2.07,0.33,1.28,1.68
1.557103991508484,3,3,3,2,-9.51,-0.29,-2.2,0.97,1.47,1.8
1.567103981971741,3,3,3,2,-9.51,-0.3,-2.32,1.64,1.51,2.17
1.577103972434998,3,3,3,2,-9.52,-0.18,-2.23,2.24,1.52,2.5
1.587103962898254,3,3,3,2,-9.85,0.23,-1.93,2.77,1.46,2.76
1.597103953361511,3,3,3,2,-9.75,0.57,-1.62,3.36,1.22,2.72
1.607103943824768,3,3,3,2,-9.630000000000001,0.85,-1.53,3.29,1.07,2.54
1.617103934288025,3,3,3,2,-9.56,0.99,-1.68,2.89,1.16,2.39
1.627103924751282,3,3,3,2,-9.779999999999999,1.41,-1.32,2.27,1.27,2.27
1.637104153633118,3,3,3,2,-9.67,1.31,-1.34,1.3,1.05,1.99
1.647104144096375,3,3,3,2,-9.6,1.1,-1.48,0.07000000000000001,0.82,1.77
1.657104134559631,3,3,3,2,-9.550000000000001,0.85,-1.53,-1,0.87,1.66
1.667104125022888,3,3,3,2,-9.42,0.41,-1.79,-1.98,0.74,1.59
1.677104115486145,3,3,3,2,-9.4,0.24,-1.91,-2.61,0.68,1.62
1.687104105949402,3,3,3,2,-9.460000000000001,-0.05,-2.37,-3.15,0.86,1.73
1.697104096412659,3,3,3,2,-9.720000000000001,-0.18,-2.42,-3.16,0.99,1.71
1.707104086875916,3,3,3,2,-9.779999999999999,0.16,-2.29,-2.56,0.85,1.44
1.717104077339172,3,3,3,2,-9.6,0.4,-2.29,-1.78,0.34,1.04
1.727104067802429,3,3,3,2,-9.69,0.62,-2.02,-0.8,0.74,0.64
1.737104058265686,3,3,3,2,-9.539999999999999,0.78,-1.99,-0.76,0.73,0.59
1.747104048728943,3,3,3,2,-9.390000000000001,1.08,-1.91,-0.87,0.53,0.85
1.7571040391922,3,3,3,2,-9.43,1.1,-2.07,-1.09,0.5600000000000001,1.17
1.767104029655457,3,3,3,2,-9.539999999999999,1.09,-2.29,-1.33,0.61,1.42
1.777104020118713,3,3,3,2,-9.69,1.11,-2.47,-1.39,0.74,1.38
1.78710401058197,3,3,3,2,-9.640000000000001,1.32,-2.2,-1.01,0.6899999999999999,1.16
1.797104001045227,3,3,3,2,-9.57,1.26,-2.33,-0.47,0.66,0.83
1.807103991508484,3,3,3,2,-9.529999999999999,1.26,-2.3,-0.42,0.72,0.6899999999999999
1.817103981971741,3,3,3,2,-9.58,1.33,-2.24,-0.08,0.77,0.66
1.827103972434998,3,3,3,2,-9.529999999999999,1.34,-2.31,0.09,0.61,0.57
1.837103962898254,3,3,3,2,-9.529999999999999,1.15,-2.1,0.27,0.58,0.32
1.847103953361511,3,3,3,2,-9.460000000000001,0.88,-2.17,0.2,0.3,0.05
1.857103943824768,3,3,3,2,-9.609999999999999,0.72,-1.94,0.03,0.24,0
1.867103934288025,3,3,3,2,-9.69,0.63,-2.05,0.18,0.35,-0.11
1.877103924751282,3,3,3,2,-9.57,0.58,-2.12,-0.03,0.18,-0.33
1.887104153633118,3,3,3,2,-9.630000000000001,0.52,-1.99,0.2,0.34,-0.41
1.897104144096375,3,3,3,2,-9.73,0.45,-1.82,0.31,0.53,-0.5600000000000001
1.907104134559631,3,3,3,2,-9.699999999999999,0.34,-1.94,0.46,0.7,-0.57
1.917104125022888,3,3,3,2,-9.57,0.26,-2.08,0.63,0.41,-0.43
1.927104115486145,3,3,3,2,-9.630000000000001,0.28,-1.95,1.04,0.39,-0.26
1.937104105949402,3,3,3,2,-9.49,0.33,-1.84,0.98,0.3,-0.3
1.947104096412659,3,3,3,2,-9.5,0.29,-2.03,0.97,0.26,-0.24
1.957104086875916,3,3,3,2,-9.539999999999999,0.41,-1.85,1.01,0.51,-0.13
1.967104077339172,3,3,3,2,-9.58,0.51,-1.93,0.9,0.46,-0.1
1.977104067802429,3,3,3,2,-9.66,0.42,-2.44,0.71,0.16,0.04
1.987104058265686,3,3,3,2,-9.85,0.58,-2,0.95,0.45,0.01
1.997104048728943,3,3,3,2,-9.73,0.62,-2.08,1.1,0.32,-0.38
2.0071040391922,3,3,3,2,-9.48,0.62,-2.24,1.08,-0.05,-0.62
2.017104029655457,3,3,3,2,-9.529999999999999,0.67,-2.29,1,0.26,-0.65
2.027104020118713,3,3,3,2,-9.41,0.76,-2,0.83,0.15,-0.5600000000000001
2.03710401058197,3,3,3,2,-9.41,0.72,-2.11,0.6,0.18,-0.39
2.048103928565979,3,3,3,3,-9.42,0.65,-2.14,0.55,0.23,-0.2
2.058104157447815,3,3,3,3,-9.5,0.62,-2.28,0.65,0.23,-0.14
2.068104147911072,3,3,3,3,-9.619999999999999,0.6,-2.18,0.93,0.25,-0.08
2.078104138374329,3,3,3,3,-9.609999999999999,0.43,-2.32,1.23,0.17,0.04
2.088104128837585,3,3,3,3,-9.52,0.31,-2.32,1.51,-0.06,0.15
2.098104119300842,3,3,3,3,-9.57,0.54,-1.97,1.95,0.18,0.13
2.108104109764099,3,3,3,3,-9.529999999999999,0.59,-2.2,1.97,0.23,0.08
2.118104100227356,3,3,3,3,-9.65,0.64,-2.37,1.98,0.34,0.17
2.128104090690613,3,3,3,3,-9.66,0.89,-2.1,2.11,0.39,0.12
2.13810408115387,3,3,3,3,-9.57,0.89,-2.29,1.98,0.35,0.01
2.148104071617126,3,3,3,3,-9.539999999999999,0.85,-2.08,1.87,0.33,-0.05
2.158104062080383,3,3,3,3,-9.529999999999999,0.87,-1.99,1.41,0.28,-0.13
2.16810405254364,3,3,3,3,-9.59,0.92,-2.26,1,0.26,-0.19
2.178104043006897,3,3,3,3,-9.65,0.92,-2.16,0.61,0.32,-0.26
2.188104033470154,3,3,3,3,-9.609999999999999,0.89,-2.07,0.33,0.12,-0.38
2.198104023933411,3,3,3,3,-9.470000000000001,0.84,-2.13,0.16,0.02,-0.35
2.208104014396667,3,3,3,3,-9.59,0.75,-2.21,0.05,0.22,-0.3
2.218104004859924,3,3,3,3,-9.58,0.62,-2.18,0.05,0.2,-0.37
2.228103995323181,3,3,3,3,-9.539999999999999,0.62,-2.08,-0.22,0.06,-0.42
2.238103985786438,3,3,3,3,-9.460000000000001,0.5,-2.15,-0.26,0.15,-0.4
2.248103976249695,3,3,3,3,-9.619999999999999,0.38,-2.23,-0.49,0.31,-0.42
2.258103966712952,3,3,3,3,-9.640000000000001,0.37,-2.38,-0.35,0.09,-0.43
2.268103957176208,3,3,3,3,-9.640000000000001,0.47,-2.36,0.01,-0.14,-0.5600000000000001
2.278103947639465,3,3,3,3,-9.640000000000001,0.61,-2.23,0.37,-0.04,-0.73
2.288103938102722,3,3,3,3,-9.52,0.73,-2.18,0.34,-0.09,-0.88
2.298103928565979,3,3,3,3,-9.5,0.8100000000000001,-2.15,0.27,-0.14,-0.88
2.308104157447815,3,3,3,3,-9.44,0.85,-2.26,0.15,-0.2,-0.73
2.318104147911072,3,3,3,3,-9.460000000000001,0.82,-2.28,0.09,-0.31,-0.64
2.328104138374329,3,3,3,3,-9.51,0.79,-2.31,0.13,-0.26,-0.59
2.358104109764099,3,3,3,3,-9.56,0.44,-2.29,-0.31,-0.07000000000000001,-0.51
2.368104100227356,3,3,3,3,-9.48,0.37,-2.25,-0.38,0.09,-0.51
2.378104090690613,3,3,3,3,-9.449999999999999,0.28,-2.34,-0.49,0.05,-0.47
2.38810408115387,3,3,3,3,-9.539999999999999,0.26,-2.24,-0.27,0.09,-0.48
2.398104071617126,3,3,3,3,-9.6,0.28,-2.18,-0.06,0.06,-0.5600000000000001
2.408104062080383,3,3,3,3,-9.65,0.36,-2.07,0.03,-0.04,-0.64
2.41810405254364,3,3,3,3,-9.6,0.38,-2.18,-0.02,-0.18,-0.72
2.428104043006897,3,3,3,3,-9.59,0.46,-2.16,0.03,-0.1,-0.77
2.438104033470154,3,3,3,3,-9.539999999999999,0.45,-2.07,-0.05,-0.24,-0.77
2.448104023933411,3,3,3,3,-9.59,0.55,-2.17,-0.22,-0.37,-0.68
2.458104014396667,3,3,3,3,-9.65,0.63,-2.29,-0.21,-0.46,-0.68
2.468104004859924,3,3,3,3,-9.58,0.72,-2.24,-0.3,-0.52,-0.8
2.478103995323181,3,3,3,3,-9.43,0.72,-2.36,-0.49,-0.33,-0.9
2.488103985786438,3,3,3,3,-9.390000000000001,0.57,-2.36,-0.58,-0.19,-0.9
2.498103976249695,3,3,3,3,-9.34,0.44,-2.28,-0.58,-0.32,-0.73
2.508103966712952,3,3,3,3,-9.41,0.42,-2.35,-0.43,-0.37,-0.62
2.518103957176208,3,3,3,3,-9.65,0.33,-2.35,-0.2,-0.5,-0.61
2.528103947639465,3,3,3,3,-9.66,0.29,-2.21,0.16,-0.51,-0.71
2.538103938102722,3,3,3,3,-9.609999999999999,0.27,-2.3,0.34,-0.41,-0.72
2.548103928565979,3,3,3,3,-9.609999999999999,0.36,-2.15,0.5,-0.36,-0.65
2.558104157447815,3,3,3,3,-9.550000000000001,0.36,-2.11,0.55,-0.36,-0.58
2.568104147911072,3,3,3,3,-9.6,0.4,-2.21,0.43,-0.27,-0.59
2.578104138374329,3,3,3,3,-9.630000000000001,0.44,-2.18,0.41,-0.29,-0.64
2.588104128837585,3,3,3,3,-9.58,0.41,-2.11,0.35,-0.47,-0.66
2.598104119300842,3,3,3,3,-9.56,0.2,-2.09,0.35,-0.41,-0.6
2.608104109764099,3,3,3,3,-9.56,0.11,-1.99,0.33,-0.34,-0.62
2.618104100227356,3,3,3,3,-9.52,0.02,-2.1,0.4,-0.37,-0.5600000000000001
2.628104090690613,3,3,3,3,-9.57,-0.06,-2.07,0.45,-0.36,-0.41
2.63810408115387,3,3,3,3,-9.74,0.13,-1.95,0.51,-0.33,-0.41
2.648104071617126,3,3,3,3,-9.710000000000001,0.24,-1.94,0.48,-0.35,-0.52
2.658104062080383,3,3,3,3,-9.710000000000001,0.19,-2.08,0.37,-0.34,-0.5600000000000001
2.66810405254364,3,3,3,3,-9.710000000000001,0.3,-2.08,0.25,-0.39,-0.61
2.678104043006897,3,3,3,3,-9.5,0.41,-2.2,0.02,-0.49,-0.64
2.688104033470154,3,3,3,3,-9.48,0.47,-2.13,-0.08,-0.53,-0.64
2.698104023933411,3,3,3,3,-9.51,0.53,-2.04,0.03,-0.49,-0.63
2.708104014396667,3,3,3,3,-9.5,0.54,-1.99,-0.06,-0.4,-0.58
2.718104004859924,3,3,3,3,-9.6,0.55,-2.17,-0.36,-0.36,-0.51
2.728103995323181,3,3,3,3,-9.65,0.59,-2.18,-0.42,-0.28,-0.52
2.738103985786438,3,3,3,3,-9.65,0.46,-2.25,-0.62,-0.33,-0.59
2.748103976249695,3,3,3,3,-9.619999999999999,0.32,-2.04,-0.57,-0.19,-0.62
2.758103966712952,3,3,3,3,-9.449999999999999,0.03,-2.14,-0.6,-0.03,-0.51
2.768103957176208,3,3,3,3,-9.52,-0.01,-2.09,-0.5,-0.03,-0.31
2.778103947639465,3,3,3,3,-9.6,-0.07000000000000001,-2.04,-0.3,0.11,-0.27
2.788103938102722,3,3,3,3,-9.65,-0.18,-1.99,-0.32,0.1,-0.31
2.798103928565979,3,3,3,3,-9.58,-0.34,-1.84,-0.1,0.05,-0.28
2.808104157447815,3,3,3,3,-9.49,-0.46,-1.73,0.09,-0.04,-0.22
2.818104147911072,3,3,3,3,-9.5,-0.54,-1.84,0.24,-0.01,-0.1
2.828104138374329,3,3,3,3,-9.67,-0.45,-1.74,0.32,-0.06,-0.11
2.838104128837585,3,3,3,3,-9.74,-0.39,-1.79,0.48,-0.18,-0.13
2.848104119300842,3,3,3,3,-9.74,-0.31,-1.78,0.54,-0.07000000000000001,-0.24
2.858104109764099,3,3,3,3,-9.640000000000001,-0.18,-1.8,0.6899999999999999,-0.04,-0.28
2.868104100227356,3,3,3,3,-9.529999999999999,-0.26,-1.91,0.72,-0.14,-0.22
2.878104090690613,3,3,3,3,-9.56,-0.19,-1.93,0.77,-0.24,-0.03
2.88810408115387,3,3,3,3,-9.5,-0.15,-1.89,0.75,-0.32,0.05
2.898104071617126,3,3,3,3,-9.52,-0.21,-1.79,0.82,-0.44,0.1
2.908104062080383,3,3,3,3,-9.52,-0.25,-1.89,0.84,-0.32,0.1
2.91810405254364,3,3,3,3,-9.5,-0.08,-1.87,0.91,-0.28,0.06
2.928104043006897,3,3,3,3,-9.52,0.11,-2.08,0.9,-0.05,0.15
2.938104033470154,3,3,3,3,-9.65,0.31,-1.99,0.99,-0.03,0.26
2.948104023933411,3,3,3,3,-9.73,0.29,-2.14,0.89,0.02,0.34
2.958104014396667,3,3,3,3,-9.6,0.33,-2.19,0.63,0.03,0.43
2.969103932380676,3,3,3,3,-9.529999999999999,0.4,-2.29,0.62,0.02,0.53
2.978103995323181,3,3,3,3,-9.43,0.52,-2.18,0.6,-0.12,0.64
2.988103985786438,3,3,3,3,-9.49,0.49,-1.99,0.47,-0.08,0.75
2.998103976249695,3,3,3,3,-9.640000000000001,0.48,-2.01,0.28,-0.09,0.86
3.008103966712952,3,3,3,3,-9.720000000000001,0.6,-2,0.03,-0.08,0.9
3.018103957176208,3,3,3,3,-9.75,0.74,-2.09,-0.26,-0.03,0.93
3.028103947639465,3,3,3,3,-9.69,0.9399999999999999,-2.39,-0.8,0.08,0.9
3.038103938102722,3,3,3,3,-9.73,1.05,-2.09,-1.28,0.11,0.89
3.048103928565979,3,3,3,3,-9.720000000000001,0.8,-2.12,-1.49,0.23,1
3.058104157447815,3,3,3,3,-9.57,0.54,-2.29,-1.97,0.13,1.17
3.069104075431824,3,3,3,3,-9.48,0.4,-2.12,-1.98,0.02,1.17
3.079104065895081,3,3,3,3,-9.460000000000001,0.25,-1.92,-2.14,-0.07000000000000001,1.14
3.089104056358337,3,3,3,3,-9.56,0.05,-1.85,-2.17,0.11,1.09
3.099104046821594,3,3,3,3,-9.630000000000001,-0.1,-1.86,-2.26,0.1,1.04
3.109104037284851,3,3,3,3,-9.720000000000001,-0.12,-1.69,-2.15,0.04,1.14
3.119104027748108,3,3,3,3,-9.68,-0.27,-1.72,-2.47,0.06,1.23
3.129104018211365,3,3,3,3,-9.720000000000001,-0.37,-1.81,-2.68,0.26,1.27
3.139104008674622,3,3,3,3,-9.68,-0.32,-1.73,-2.82,0.27,1.14
3.149103999137878,3,3,3,3,-9.69,-0.32,-2,-2.56,0.32,0.9
3.159103989601135,3,3,3,3,-9.58,-0.19,-2.03,-1.81,0.13,0.62
3.169103980064392,3,3,3,3,-9.609999999999999,0,-1.76,-1,0.31,0.38
3.179103970527649,3,3,3,3,-9.35,0.39,-1.9,-0.91,0.17,0.31
3.189103960990906,3,3,3,3,-9.390000000000001,0.61,-1.87,-0.9399999999999999,-0.04,0.42
3.199103951454163,3,3,3,3,-9.48,0.73,-1.99,-0.89,0.07000000000000001,0.52
3.209103941917419,3,3,3,3,-9.609999999999999,0.71,-2.11,-0.96,0,0.64
3.219103932380676,3,3,3,3,-9.69,0.74,-2.34,-1.21,0.07000000000000001,0.73
3.229103922843933,3,3,3,3,-9.699999999999999,0.7,-2.48,-1.35,0.11,0.77
3.239104151725769,3,3,3,3,-9.619999999999999,0.79,-2.11,-1.22,-0.03,0.74
3.249104142189026,3,3,3,3,-9.460000000000001,0.73,-2.09,-0.97,-0.09,0.74
3.259104132652283,3,3,3,3,-9.48,0.52,-1.98,-0.82,-0.09,0.83
3.26910412311554,3,3,3,3,-9.539999999999999,0.48,-1.95,-0.61,-0.04,0.93
3.279104113578796,3,3,3,3,-9.550000000000001,0.49,-1.92,-0.62,-0.14,1.02
3.289104104042053,3,3,3,3,-9.630000000000001,0.53,-1.92,-0.53,-0.03,1.11
3.29910409450531,3,3,3,3,-9.69,0.5,-2.03,-0.5,0.09,1.23
3.309104084968567,3,3,3,3,-9.67,0.59,-1.9,-0.47,0.17,1.23
3.319104075431824,3,3,3,3,-9.51,0.7,-1.96,-0.57,0.3,1.18
3.329104065895081,3,3,3,3,-9.42,0.76,-2.07,-0.67,0.58,1.2
3.339104056358337,3,3,3,3,-9.75,0.83,-2.29,-0.88,1.01,1.2
3.349104046821594,3,3,3,3,-9.880000000000001,0.91,-2.33,-0.95,0.82,0.97
3.359104037284851,3,3,3,3,-9.75,0.99,-2.22,-0.64,0.24,0.62
3.369104027748108,3,3,3,3,-9.529999999999999,0.96,-2.29,-0.39,0.02,0.3
3.379104018211365,3,3,3,3,-9.380000000000001,0.92,-2.22,-0.36,-0.06,0.29
3.389104008674622,3,3,3,3,-9.43,0.97,-1.99,-0.32,-0.18,0.44
3.399103999137878,3,3,3,3,-9.48,0.92,-1.9,-0.36,-0.14,0.46
3.409103989601135,3,3,3,3,-9.49,0.82,-1.95,-0.51,-0.09,0.47
3.419103980064392,3,3,3,3,-9.699999999999999,0.55,-2.29,-0.48,0.02,0.55
3.429103970527649,3,3,3,3,-9.76,0.64,-2.13,-0.4,0.07000000000000001,0.48
3.439103960990906,3,3,3,3,-9.69,0.67,-2.08,-0.19,-0.17,0.27
3.449103951454163,3,3,3,3,-9.52,0.67,-2.05,0.02,-0.21,0.05
3.459103941917419,3,3,3,3,-9.51,0.73,-2.09,0.14,-0.08,-0.04
3.469103932380676,3,3,3,3,-9.449999999999999,0.82,-2.08,0.39,-0.29,-0.02
3.479103922843933,3,3,3,3,-9.51,0.77,-2.13,0.35,-0.34,-0.04
3.489104151725769,3,3,3,3,-9.630000000000001,0.8,-1.94,0.47,-0.34,-0.07000000000000001
3.499104142189026,3,3,3,3,-9.6,0.8,-1.94,0.32,-0.39,-0.21
3.509104132652283,3,3,3,3,-9.57,0.77,-1.95,0.11,-0.39,-0.26
3.51910412311554,3,3,3,3,-9.539999999999999,0.8,-1.95,-0.05,-0.15,-0.3
3.529104113578796,3,3,3,3,-9.529999999999999,0.6899999999999999,-2.03,-0.14,-0.11,-0.22
3.539104104042053,3,3,3,3,-9.619999999999999,0.58,-2.1,-0.14,-0.11,-0.22
3.54910409450531,3,3,3,3,-9.76,0.58,-2.15,-0.15,-0.24,-0.14
3.559104084968567,3,3,3,3,-9.75,0.6899999999999999,-1.96,0.37,-0.5,-0.43
3.569104075431824,3,3,3,3,-9.550000000000001,0.66,-1.95,0.21,-0.3,-0.48
3.579104065895081,3,3,3,3,-9.449999999999999,0.65,-1.96,0.11,-0.3,-0.32
3.589104056358337,3,3,3,3,-9.470000000000001,0.61,-1.93,0.11,-0.3,-0.32
3.599104046821594,3,3,3,3,-9.529999999999999,0.62,-1.85,0.1,-0.34,-0.14
3.609104037284851,3,3,3,3,-9.82,0.54,-2.11,0.55,-0.28,-0.15
3.619104027748108,3,3,3,3,-9.779999999999999,0.58,-1.95,0.57,-0.3,-0.38
3.629104018211365,3,3,3,3,-9.58,0.5,-2.07,0.79,-0.1,-0.5
3.639104008674622,3,3,3,3,-9.550000000000001,0.54,-1.82,0.79,-0.1,-0.5
3.649103999137878,3,3,3,3,-9.31,0.49,-1.71,0.6899999999999999,-0.16,-0.49
3.659103989601135,3,3,3,3,-9.43,0.36,-1.8,0.44,-0.28,-0.16
3.669103980064392,3,3,3,3,-9.57,0.28,-1.84,0.42,-0.37,-0.14
3.679103970527649,3,3,3,3,-9.66,0.31,-1.83,0.41,-0.32,-0.24
3.689103960990906,3,3,3,3,-9.779999999999999,0.4,-1.83,0.41,-0.32,-0.24
3.699103951454163,3,3,3,3,-9.73,0.39,-1.87,0.46,-0.21,-0.24
3.709103941917419,3,3,3,3,-9.640000000000001,0.45,-1.86,0.32,-0.19,-0.02
3.719103932380676,3,3,3,3,-9.51,0.5,-1.93,0.23,-0.1,0.14
3.729103922843933,3,3,3,3,-9.529999999999999,0.52,-1.97,0.24,-0.02,0.26
3.739104151725769,3,3,3,3,-9.68,0.54,-2.2,0.24,-0.02,0.26
3.749104142189026,3,3,3,3,-9.93,0.73,-2.11,0.38,0,0.19
3.759104132652283,3,3,3,3,-9.869999999999999,1.04,-1.93,0.58,0.05,-0.2
3.76910412311554,3,3,3,3,-9.56,1.19,-2.05,0.25,0.35,-0.11
3.779104113578796,3,3,3,3,-9.43,1.1,-2.01,0.02,0.21,0.11
3.789104104042053,3,3,3,3,-9.35,1.18,-2.03,0.02,0.21,0.11
3.79910409450531,3,3,3,3,-9.539999999999999,0.85,-2.14,-0.13,0.31,0.3
3.809104084968567,3,3,3,3,-9.6,0.79,-1.95,-0.08,0.13,0.4
3.819104075431824,3,3,3,3,-9.57,0.6,-2.2,0.39,0.24,0.31
3.829104065895081,3,3,3,3,-9.58,0.47,-2.19,0.72,0.38,0.18
3.839104056358337,3,3,3,3,-9.529999999999999,0.27,-1.89,0.72,0.38,0.18
3.849104046821594,3,3,3,3,-9.51,0.21,-1.91,0.73,0.15,0.16
3.859104037284851,3,3,3,3,-9.640000000000001,0.27,-1.85,1.03,0.25,-0.06
3.869104027748108,3,3,3,3,-9.59,0.37,-1.92,1.14,0.39,-0.2
3.879104018211365,3,3,3,3,-9.59,0.32,-2.13,1.41,0.36,-0.31
3.889104008674622,3,3,3,3,-9.619999999999999,0.35,-1.86,1.41,0.36,-0.31
3.899103999137878,3,3,3,3,-9.49,0.28,-1.79,1.66,-0.08,-0.39
3.909103989601135,3,3,3,3,-9.44,0.05,-1.74,2.16,-0.21,-0.6899999999999999
3.919103980064392,3,3,3,3,-9.5,-1.03,-1.67,2.26,-0.39,-1.02
3.929103970527649,3,3,3,3,-9.52,-1.41,-1.39,2.43,-0.26,-1.53
3.939103960990906,3,3,3,3,-9.52,-1.47,-1.09,2.43,-0.26,-1.53
3.949103951454163,3,3,3,3,-9.35,-1.29,-1.17,3,-0.47,-1.91
3.959103941917419,3,3,3,3,-10.04,-0.6,-1.38,2.81,-0.75,-1.27
3.969103932380676,3,3,3,3,-10.27,-0.12,-1.66,1.89,-0.99,-1.47
3.979103922843933,3,3,3,3,-10.35,0.12,-1.98,1.59,-1.14,-1.88
3.989104151725769,3,3,3,3,-10.03,0.26,-1.86,1.59,-1.14,-1.88
3.999104142189026,3,3,3,3,-9.07,0.08,-1.87,1.13,-1.49,-1.89
4.009104132652283,3,3,3,3,-9.119999999999999,-0.04,-1.73,0.8100000000000001,-1.44,-1.4
4.01910412311554,3,3,3,3,-9.300000000000001,-0.13,-1.55,0.29,-1.76,-1.55
4.029104113578796,3,3,3,3,-9.460000000000001,-0.26,-1.52,-0.04,-1.79,-1.79
4.039104104042053,3,3,3,3,-9.43,-0.68,-1.16,-0.04,-1.79,-1.79
4.04910409450531,3,3,3,3,-9.33,-1.07,-0.99,-0.14,-2.02,-1.9
4.059104084968567,3,3,3,3,-9.27,-1.45,-0.83,-0.5,-3.09,-2.02
4.069104075431824,3,3,3,3,-9.34,-1.55,-1.05,-0.33,-3.44,-2.1
4.079104065895081,3,3,3,3,-9.69,-0.6899999999999999,-0.73,-0.51,-3.32,-2.39
4.089104056358337,3,3,3,3,-9.69,-0.6899999999999999,-0.78,-0.51,-3.32,-2.39
4.100103974342346,3,3,3,3,-9.57,-0.63,-0.95,-1.02,-2.84,-2.68
4.110103964805603,3,3,3,3,-9.33,-0.5600000000000001,-1.14,-1.15,-3,-2.55
4.12010395526886,3,3,3,3,-9.279999999999999,-0.29,-2.23,-1.05,-2.64,-2.62
4.130103945732117,3,3,3,3,-9.84,0.45,-2.18,-0.11,-2.14,-2.59
4.140103936195374,3,3,3,3,-10.18,1.06,-2.18,-0.11,-2.14,-2.59
4.15010392665863,3,3,3,3,-10.62,1.7,-2.52,-0.18,-2.04,-2.27
4.160104155540466,3,3,3,3,-10.78,2.57,-2.56,-0.15,-1.35,-1
4.170104146003723,3,3,3,3,-10.53,3.12,-2.63,-1.24,-0.97,-0.57
4.18010413646698,3,3,3,3,-10.22,2.98,-3.14,-1.57,0.07000000000000001,-0.36
4.190104126930237,3,3,3,3,-9.91,2.85,-2.86,-1.57,0.07000000000000001,-0.36
4.200104117393494,3,3,3,3,-9.49,2.42,-2.7,-1.5,-0.08,0.06
4.21010410785675,3,3,3,3,-9.460000000000001,1.94,-2.77,-1.62,0.02,0.54
4.220104098320007,3,3,3,3,-9.65,1.64,-2.5,-1.1,0.22,1
4.230104088783264,3,3,3,3,-10.32,1.42,-2.3,-0.97,0.31,1.41
4.240104079246521,3,3,3,3,-10.53,1.47,-2.13,-0.97,0.31,1.41
4.250104069709778,3,3,3,3,-10.48,1.4,-1.97,-0.72,0.57,1.61
4.260104060173035,3,3,3,3,-10.21,1.06,-2.03,-0.67,1.35,1.91
4.270104050636292,3,3,3,3,-9.800000000000001,0.51,-1.97,-0.33,1.68,1.97
4.280104041099548,3,3,3,3,-9.640000000000001,0.4,-1.86,0.1,1.75,2.09
4.290104031562805,3,3,3,3,-9.58,0.32,-1.83,0.1,1.75,2.09
4.300104022026062,3,3,3,3,-9.49,0.25,-1.85,0.52,1.85,2.24
4.310104012489319,3,3,3,3,-9.51,0.44,-1.84,1.34,1.88,2.39
4.320104002952576,3,3,3,3,-9.43,0.6,-1.78,1.44,1.92,2.45
4.330103993415833,3,3,3,3,-9.41,0.8100000000000001,-1.71,1.1,2.04,2.45
4.340103983879089,3,3,3,3,-9.529999999999999,1.11,-1.64,1.1,2.04,2.45
4.350103974342346,3,3,3,3,-9.59,1.27,-1.66,0.47,1.89,2.28
4.360103964805603,3,3,3,3,-9.59,1.22,-1.57,-1.22,1.66,1.96
4.37010395526886,3,3,3,3,-9.51,1.03,-1.74,-1.84,1.37,1.81
4.380103945732117,3,3,3,3,-9.4,0.96,-1.52,-2.44,0.9399999999999999,1.66
4.390103936195374,3,3,3,3,-9.050000000000001,0.52,-1.35,-2.44,0.9399999999999999,1.66
4.40010392665863,3,3,3,3,-9.050000000000001,0.22,-1.61,-2.92,0.76,1.5
4.410104155540466,3,3,3,3,-9.17,0.06,-1.55,-2.95,0.65,0.91
4.420104146003723,3,3,3,3,-9.380000000000001,0,-1.54,-2.64,0.76,0.79
4.43010413646698,3,3,3,3,-9.800000000000001,-0.12,-1.83,-2.22,0.93,0.61
4.440104126930237,3,3,3,3,-9.98,0.03,-1.79,-2.22,0.93,0.61
4.450104117393494,3,3,3,3,-9.949999999999999,0.08,-1.81,-1.8,0.8100000000000001,0.63
4.46010410785675,3,3,3,3,-9.84,-0.04,-2.28,-1.18,0.63,0.5
4.470104098320007,3,3,3,3,-9.73,0.09,-2.07,-0.92,0.45,0.4
4.480104088783264,3,3,3,3,-9.5,0.05,-1.94,-0.58,0.43,0.47
4.490104079246521,3,3,3,3,-9.41,-0.02,-1.98,-0.58,0.43,0.47
4.500104069709778,3,3,3,3,-9.67,0.05,-1.79,0.15,0.51,0.45
4.510104060173035,3,3,3,3,-9.48,0.35,-1.63,0.79,0.17,0.19
4.520104050636292,3,3,3,3,-9.539999999999999,0.47,-2.18,1.05,0.33,0.07000000000000001
4.530104041099548,3,3,3,3,-9.51,0.91,-1.73,1.09,0.22,-0.19
4.540104031562805,3,3,3,3,-9.51,0.91,-1.73,1.09,0.22,-0.19
4.550104022026062,3,3,3,3,-9.43,0.92,-1.82,0.51,0.11,-0.14
4.560104012489319,3,3,3,3,-9.5,0.8100000000000001,-1.97,-0.27,0.5600000000000001,0.19
4.570104002952576,3,3,3,3,-9.449999999999999,0.52,-1.92,-0.74,0.36,0.39
4.580103993415833,3,3,3,3,-9.6,0.29,-1.77,-0.83,0.3,0.55
4.590103983879089,3,3,3,3,-9.6,0.29,-1.77,-0.83,0.3,0.55
4.600103974342346,3,3,3,3,-9.76,-0.02,-1.83,-0.7,0.37,0.58
4.610103964805603,3,3,3,3,-10.16,-0.14,-1.83,0.57,0.47,0.52
4.62010395526886,3,3,3,3,-9.880000000000001,-0.06,-1.81,0.88,0.26,0.4
4.630103945732117,3,3,3,3,-9.640000000000001,0.05,-1.89,1.16,0.38,0.28
4.640103936195374,3,3,3,3,-9.640000000000001,0.05,-1.89,1.16,0.38,0.28
4.65010392665863,3,3,3,3,-9.529999999999999,0.26,-1.75,1.33,0.53,0.33
4.660104155540466,3,3,3,3,-9.59,0.76,-1.94,1.05,0.62,0.54
4.670104146003723,3,3,3,3,-9.65,0.76,-1.99,0.72,0.62,0.66
4.68010413646698,3,3,3,3,-9.68,0.78,-2.12,0.66,0.45,0.65
4.690104126930237,3,3,3,3,-9.68,0.78,-2.12,0.66,0.45,0.65
4.700104117393494,3,3,3,3,-9.68,0.97,-1.9,0.6899999999999999,0.28,0.54
4.71010410785675,3,3,3,3,-9.48,1.19,-1.88,0.6,0.31,0.01
4.720104098320007,3,3,3,3,-9.48,1.16,-1.88,0.39,0.47,0.08
4.730104088783264,3,3,3,3,-9.5,1.09,-1.94,-0.02,0.49,0.32
4.740104079246521,3,3,3,3,-9.5,1.09,-1.94,-0.02,0.49,0.32
4.750104069709778,3,3,3,3,-9.640000000000001,0.95,-2.27,-0.37,0.47,0.52
4.760104060173035,3,3,3,3,-9.85,0.92,-2.01,-0.29,0.29,0.16
4.770104050636292,3,3,3,3,-9.449999999999999,0.77,-1.8,-0.41,0.37,0.11
4.780104041099548,3,3,3,3,-9.41,0.59,-2.06,-0.48,0.72,0.18
4.790104031562805,3,3,3,3,-9.41,0.59,-2.06,-0.48,0.72,0.18
4.800104022026062,3,3,3,3,-9.44,0.58,-2.04,-0.23,0.76,0.12
4.810104012489319,3,3,3,3,-9.33,0.52,-1.97,-0.43,0.2,-0.03
4.820104002952576,3,3,3,3,-9.550000000000001,0.41,-1.86,-0.38,0.13,-0.14
4.830103993415833,3,3,3,3,-9.640000000000001,0.31,-1.81,-0.51,-0.07000000000000001,-0.23
4.840103983879089,3,3,3,3,-9.640000000000001,0.31,-1.81,-0.51,-0.07000000000000001,-0.23
4.850103974342346,3,3,3,3,-9.710000000000001,0.34,-1.78,-0.51,-0.24,-0.35
4.860103964805603,3,3,3,3,-9.65,0.68,-1.73,-0.55,-0.09,-0.89
4.87010395526886,3,3,3,3,-9.710000000000001,0.75,-1.88,-0.88,0.07000000000000001,-0.95
4.880103945732117,3,3,3,3,-9.83,0.86,-1.84,-1.08,-0.1,-0.97
4.890103936195374,3,3,3,3,-9.83,0.86,-1.84,-1.08,-0.1,-0.97
4.90010392665863,3,3,3,3,-9.69,0.89,-1.68,-1.34,-0.35,-1.02
4.910104155540466,3,3,3,3,-9.41,0.46,-2.13,-1.72,-0.16,-0.96
4.920104146003723,3,3,3,3,-9.52,0.24,-2.29,-1.36,-0.29,-0.9
4.93010413646698,3,3,3,3,-9.59,0.26,-2.17,-0.62,-0.54,-1
4.940104126930237,3,3,3,3,-9.59,0.26,-2.17,-0.62,-0.54,-1
4.950104117393494,3,3,3,3,-9.609999999999999,0.42,-2.03,-0.3,-0.57,-1.21
4.96010410785675,3,3,3,3,-9.73,0.68,-2.25,0.42,-0.01,-1.24
4.970104098320007,3,3,3,3,-9.640000000000001,0.78,-2.16,0.45,-0.13,-1.21
4.980104088783264,3,3,3,3,-9.609999999999999,0.84,-1.98,0.59,-0.13,-1.12
4.990104079246521,3,3,3,3,-9.609999999999999,0.84,-1.98,0.59,-0.13,-1.12
5.000104069709778,3,3,3,3,-9.42,0.82,-1.79,0.34,-0.03,-0.76
5.010104060173035,3,3,3,3,-9.609999999999999,0.32,-2.27,0.64,0.11,-0.54
5.020104050636292,3,3,3,3,-9.81,0.57,-2,0.95,0.18,-0.44
5.030104041099548,3,3,3,3,-9.65,0.61,-2.15,0.79,0.15,-0.38
5.040104031562805,3,3,3,3,-9.65,0.61,-2.15,0.75,0.41,-0.43
5.050104022026062,3,3,3,3,-9.6,0.48,-2.35,0.64,0.21,-0.55
5.060104012489319,3,3,3,3,-9.279999999999999,0.4,-2.09,0.36,0.16,-0.42
5.070104002952576,3,3,3,3,-9.369999999999999,0.13,-2.4,0.21,0.37,-0.18
5.080103993415833,3,3,3,3,-9.85,0.23,-1.86,0.41,0.31,-0.06
5.090103983879089,3,3,3,3,-9.85,0.23,-1.86,0.42,0.07000000000000001,0.01
5.100103974342346,3,3,3,3,-9.640000000000001,0.21,-1.71,0.18,0.32,0.08
5.110103964805603,3,3,3,3,-9.82,-0.37,-2.08,0.26,0.54,0.13
5.121104121208191,3,3,3,3,-9.82,-0.22,-1.89,0.44,0.28,0.08
5.131104111671448,3,3,3,3,-9.75,-0.29,-1.98,0.52,0.24,0.01
5.141104102134705,3,3,3,3,-9.75,-0.29,-1.98,0.43,0.21,-0.21
5.151104092597961,3,3,3,3,-9.77,-0.33,-2.07,0.39,0.11,-0.35
5.161104083061218,3,3,3,3,-9.32,0,-1.99,0.21,0.13,-0.24
5.171104073524475,3,3,3,3,-9.42,-0.08,-2.18,0.01,0.29,-0.03
5.181104063987732,3,3,3,3,-9.67,0.12,-1.95,0.04,0.2,-0.03
5.191104054450989,3,3,3,3,-9.630000000000001,0.17,-2.2,-0.17,0,-0.03
5.201104044914246,3,3,3,3,-9.76,0.09,-2.46,-0.13,-0.12,-0.11
5.211104035377502,3,3,3,3,-9.82,0.27,-2.17,0.63,-0.41,-0.35
5.221104025840759,3,3,3,3,-9.630000000000001,0.4,-1.96,0.58,-0.52,-0.55
5.231104016304016,3,3,3,3,-9.48,0.35,-2.09,0.44,-0.3,-0.57
5.241104006767273,3,3,3,3,-9.460000000000001,0.39,-1.93,0.45,-0.12,-0.61
5.25110399723053,3,3,3,3,-9.390000000000001,0.43,-1.87,0.34,-0.15,-0.61
5.261103987693787,3,3,3,3,-9.35,0.47,-1.92,0.24,-0.07000000000000001,-0.57
5.271103978157043,3,3,3,3,-9.66,0.32,-1.97,0.34,-0.05,-0.5
5.2811039686203,3,3,3,3,-9.67,0.26,-1.95,0.5,-0.09,-0.5600000000000001
5.291103959083557,3,3,3,3,-9.58,0.14,-2.23,0.47,-0.01,-0.49
5.301103949546814,3,3,3,3,-9.73,0.26,-1.96,0.83,0.3,-0.53
5.311103940010071,3,3,3,3,-9.48,0.24,-2.03,0.93,0.13,-0.44
5.321103930473328,3,3,3,3,-9.52,0.17,-1.93,1.23,0.16,-0.4
5.331103920936584,3,3,3,3,-9.58,0.13,-1.9,1.07,-0.05,-0.43
5.34110414981842,3,3,3,3,-9.51,0.23,-1.57,0.86,-0.28,-0.49
5.351104140281677,3,3,3,3,-9.42,-0.05,-1.86,0.45,-0.28,-0.46
5.361104130744934,3,3,3,3,-9.67,-0.11,-2.03,0.25,-0.11,-0.44
5.371104121208191,3,3,3,3,-9.880000000000001,0.15,-1.71,-0.03,-0.23,-0.53
5.381104111671448,3,3,3,3,-9.84,0.45,-1.86,-0.41,-0.4,-0.54
5.391104102134705,3,3,3,3,-9.85,0.55,-1.99,-0.68,-0.2,-0.7
5.401104092597961,3,3,3,3,-9.59,0.6899999999999999,-2.08,-0.87,-0.25,-0.79
5.411104083061218,3,3,3,3,-9.51,0.8100000000000001,-2.28,-1.13,-0.33,-0.62
5.421104073524475,3,3,3,3,-9.83,1.18,-2.18,-1.23,-0.42,-0.44
5.431104063987732,3,3,3,3,-9.73,1.21,-2.13,-1.66,-0.51,-0.34
5.441104054450989,3,3,3,3,-9.550000000000001,1.05,-2.05,-2.25,-0.45,-0.26
5.451104044914246,3,3,3,3,-9.43,0.8,-1.97,-2.33,-0.06,-0.04
5.461104035377502,3,3,3,3,-9.449999999999999,0.36,-2.31,-2.48,0.02,0.14
5.471104025840759,3,3,3,3,-9.539999999999999,0.19,-2.17,-2.39,-0.05,0.21
5.481104016304016,3,3,3,3,-9.59,-0.05,-1.93,-1.96,0,0.14
5.491104006767273,3,3,3,3,-9.58,-0.22,-1.9,-1.7,0.12,0.05
5.50110399723053,3,3,3,3,-9.59,-0.1,-1.91,-1.25,0.17,0.17
5.511103987693787,3,3,3,3,-9.67,-0.03,-1.82,-0.83,0.2,0.27
5.521103978157043,3,3,3,3,-9.699999999999999,0,-1.63,-0.64,0.3,0.3
5.5311039686203,3,3,3,3,-9.66,0.07000000000000001,-1.58,-0.59,0.37,0.31
5.541103959083557,3,3,3,3,-9.56,0.05,-1.43,-0.5600000000000001,0.53,0.36
5.551103949546814,3,3,3,3,-9.609999999999999,-0.12,-1.57,-0.8,0.53,0.46
5.561103940010071,3,3,3,3,-9.789999999999999,-0.18,-1.68,-0.91,0.52,0.44
5.571103930473328,3,3,3,3,-9.880000000000001,-0.05,-1.55,-0.8100000000000001,0.31,0.24
5.581103920936584,3,3,3,3,-9.630000000000001,0.05,-1.46,-0.8100000000000001,0.19,0.02
5.59110414981842,3,3,3,3,-9.550000000000001,0.03,-1.45,-0.91,0.38,0.02
5.601104140281677,3,3,3,3,-9.550000000000001,0.08,-1.6,-1,0.54,0.11
5.611104130744934,3,3,3,3,-9.630000000000001,0.18,-1.83,-0.95,0.52,0.24
5.621104121208191,3,3,3,3,-9.630000000000001,0.15,-1.9,-0.78,0.41,0.27
5.631104111671448,3,3,3,3,-9.630000000000001,0.13,-1.74,-0.65,0.45,0.29
5.641104102134705,3,3,3,3,-9.539999999999999,0.16,-1.69,-0.32,0.52,0.42
5.651104092597961,3,3,3,3,-9.539999999999999,0.08,-1.92,-0.1,0.8,0.55
5.661104083061218,3,3,3,3,-9.74,0.45,-2.16,0.18,1.03,0.57
5.671104073524475,3,3,3,3,-9.56,0.38,-2.35,0.28,0.9399999999999999,0.68
5.681104063987732,3,3,3,3,-9.619999999999999,0.28,-2.27,0.57,1.12,0.75
5.691104054450989,3,3,3,3,-9.57,0.24,-2.17,0.77,1.18,0.76
5.701104044914246,3,3,3,3,-9.41,0.14,-2.38,1.06,1.02,0.89
5.711104035377502,3,3,3,3,-9.390000000000001,0.24,-2.24,1.55,0.98,0.9399999999999999
5.721104025840759,3,3,3,3,-9.31,0.16,-2.39,1.71,0.97,0.95
5.731104016304016,3,3,3,3,-9.4,0.09,-2.36,1.99,1.17,0.9399999999999999
5.741104006767273,3,3,3,3,-9.539999999999999,0.22,-2.23,2.26,1.12,0.97
5.75110399723053,3,3,3,3,-9.65,0.38,-2.19,2.37,1.02,1.08
5.761103987693787,3,3,3,3,-9.720000000000001,0.45,-2.3,2.21,0.99,1.09
5.771103978157043,3,3,3,3,-9.66,0.53,-2.3,2.02,0.77,1.05
5.7811039686203,3,3,3,3,-9.58,0.49,-2.25,1.71,0.61,0.98
5.791103959083557,3,3,3,3,-9.48,0.4,-2.37,1.39,0.64,0.86
5.801103949546814,3,3,3,3,-9.529999999999999,0.35,-2.28,1.29,0.79,0.7
5.811103940010071,3,3,3,3,-9.42,0.15,-2.39,1.2,0.75,0.7
5.821103930473328,3,3,3,3,-9.390000000000001,0.06,-2.46,1.23,0.68,0.74
5.831103920936584,3,3,3,3,-9.529999999999999,0.09,-2.44,1.56,0.59,0.65
5.84110414981842,3,3,3,3,-9.57,0.19,-2.35,1.86,0.29,0.43
5.851104140281677,3,3,3,3,-9.51,0.32,-2.31,2,0.21,0.21
5.861104130744934,3,3,3,3,-9.48,0.45,-2.39,2.27,0.36,0.06
5.871104121208191,3,3,3,3,-9.41,0.4,-2.48,2.2,0.36,0.2
5.881104111671448,3,3,3,3,-9.359999999999999,0.37,-2.23,2.35,0.42,0.36
5.891104102134705,3,3,3,3,-9.33,0.1,-2.37,2.38,0.3,0.55
5.901104092597961,3,3,3,3,-9.51,0,-2.26,2.62,0.26,0.6
5.911104083061218,3,3,3,3,-9.6,0.02,-2.34,3,0.08,0.54
5.921104073524475,3,3,3,3,-9.68,-0.04,-2.52,2.98,-0.06,0.63
5.931104063987732,3,3,3,3,-9.76,0.11,-2.09,2.99,0.11,0.59
5.941104054450989,3,3,3,3,-9.550000000000001,0.16,-2.23,2.48,0.08,0.46
5.951104044914246,3,3,3,3,-9.4,0.12,-2.29,2.34,-0.01,0.46
5.961104035377502,3,3,3,3,-9.300000000000001,-0.05,-2.2,2.15,-0.22,0.65
5.971104025840759,3,3,3,3,-9.44,-0.29,-2.25,2.1,-0.4,0.72
5.981104016304016,3,3,3,3,-9.630000000000001,-0.43,-2.27,2.19,-0.65,0.63
5.991104006767273,3,3,3,3,-9.75,-0.45,-2.09,2.27,-0.98,0.31
6.00110399723053,3,3,3,3,-9.68,-0.4,-1.74,2.24,-1.21,-0.06
6.011103987693787,3,3,3,3,-9.380000000000001,-1.08,-1.76,1.9,-1.35,-0.3
6.021103978157043,3,3,3,3,-9.390000000000001,-1.48,-1.39,1.79,-1.54,-0.5600000000000001
6.0311039686203,3,3,3,3,-9.34,-1.98,-0.99,1.74,-2.11,-0.85
6.041103959083557,3,3,3,3,-9.390000000000001,-2.51,-0.97,1.96,-2.78,-1.22
6.051103949546814,3,3,3,3,-9.630000000000001,-3.09,-0.63,2.22,-3.26,-1.87
6.061103940010071,3,3,3,3,-9.56,-2.72,-0.4,2.12,-3.29,-2.72
6.071103930473328,3,3,3,3,-9.41,-2.62,-1.31,1.58,-3.12,-3.46
6.081103920936584,3,3,3,3,-9.210000000000001,-1.84,-0.61,2.18,-2.84,-4.2
6.09110414981842,3,3,3,3,-8.76,-2.05,-0.89,2.07,-3.2,-4.32
6.101104140281677,3,3,3,3,-8.73,-2.16,-0.65,2.2,-3.4,-4.01
6.111104130744934,3,3,3,3,-8.859999999999999,-2.4,-0.39,2.76,-3.89,-3.68
6.121104121208191,3,3,3,3,-9.050000000000001,-2.93,-0.91,1.71,-5.19,-3.6
6.131104111671448,3,3,3,3,-9.109999999999999,-1.41,0.24,1.38,-5.2,-4.26
6.141104102134705,3,3,3,3,-8.66,-0.64,0.08,0.61,-4.25,-5.03
6.152104020118713,3,3,3,3,-8.460000000000001,-0.68,-0.03,-0.39,-2.75,-5.71
6.16210401058197,3,3,3,3,-8.07,-0.52,-0.09,-0.88,-3.33,-6.17
6.172104001045227,3,3,3,3,-7.98,-0.87,0.3,-4.02,-5.05,-6.11
6.182103991508484,3,3,3,3,-8,-1.13,0.59,-5.84,-5.66,-5.66
6.192103981971741,3,3,3,3,-8.16,-1.46,1.04,-7.76,-5.71,-5.46
6.202103972434998,3,3,3,3,-8.76,-1.88,-0.36,-8.82,-5.67,-5.84
6.212103962898254,3,3,3,3,-8.85,-0.79,0.02,-8.06,-5.26,-6.53
6.232103943824768,3,3,3,3,-8.390000000000001,-1.49,-0.32,-8.93,-2.85,-7.64
6.242103934288025,3,3,3,3,-8.699999999999999,-0.73,-0.17,-8.51,-3.61,-8.359999999999999
6.252103924751282,3,3,3,3,-8.23,-0.12,0,-8.09,-5.65,-9.16
6.262104153633118,3,3,3,3,-7.86,0.12,-0.03,-7.62,-4.72,-9.68
6.272104144096375,3,3,3,3,-8.119999999999999,0.02,-0.18,-8.48,-2.99,-9.710000000000001
6.282104134559631,3,3,3,3,-8.630000000000001,-0.53,-1.3,-9.83,-4.55,-9.42
6.292104125022888,3,3,3,3,-8.970000000000001,-0.64,-1.78,-10.39,-5.82,-9.26
6.302104115486145,3,3,3,3,-8.99,-0.6,-1.96,-9.539999999999999,-6.22,-9.41
6.312104105949402,3,3,3,3,-9.18,-0.43,-2.35,-6.92,-5.58,-9.75
6.322104096412659,3,3,3,3,-9.83,0.97,-2.65,-4.59,-4.95,-9.92
6.332104086875916,3,3,3,3,-9.779999999999999,1.43,-2.61,-3.21,-4.56,-9.44
6.342104077339172,3,3,3,3,-9.93,1.22,-2.38,-2.68,-3.74,-8.67
6.352104067802429,3,3,3,3,-10.09,0.28,-2.22,-2.78,-2.86,-8.24
6.362104058265686,3,3,3,3,-10.83,-2.07,-2.51,-3.11,-2.19,-7.36
6.372104048728943,3,3,3,3,-11.33,-2.87,-2.56,-3.05,-2.07,-6.9
6.3821040391922,3,3,3,3,-11.29,-3.05,-2.12,-2.68,-2.34,-6.61
6.392104029655457,3,3,3,3,-11.14,-2.05,-1.89,-1.43,-1.48,-6.35
6.402104020118713,3,3,3,3,-10.58,-0.48,-2.44,-1.5,-1.32,-5.83
6.41210401058197,3,3,3,3,-11.83,0.38,-2.75,-2.12,-0.5,-5.07
6.422104001045227,3,3,3,3,-12.26,0.48,-2.32,-3.34,-1.36,-5.42
6.432103991508484,3,3,3,3,-13.63,0.01,-2.61,-4.4,-0.35,-5.2
6.442103981971741,3,3,3,3,-13.71,-0.5600000000000001,-2.71,-5.12,-0.77,-4.03
6.452103972434998,3,3,3,3,-14.27,-0.14,-2.64,-5.05,-0.71,-2.36
6.462103962898254,3,3,3,3,-15.01,0.47,-2.9,-3.58,-0.34,-1.27
6.472103953361511,3,3,3,3,-15.42,2.18,-2.7,-2.36,-0.42,0.04
6.482103943824768,3,3,3,3,-15.4,3.45,-2.36,-1.46,0.22,1.05
6.492103934288025,3,3,3,3,-15.81,5.01,-2.03,-0.16,1.22,1.98
6.502103924751282,3,3,3,3,-15.9,5.92,-1.5,-0.27,1.09,2.83
6.512104153633118,3,3,3,3,-16.73,6.12,-1.75,-1.19,0.21,3.8
6.522104144096375,3,3,3,3,-17.48,5.39,-1.66,-2.36,-1.94,4.68
6.532104134559631,3,3,3,3,-18.7,4.94,-1.5,-2.66,-4,5.38
6.542104125022888,3,3,3,2,-20.4,5.18,-1.34,-2.49,-5.1,6.01
6.552104115486145,3,3,3,2,-23.04,6.73,-0.78,-2.3,-4.78,7.24
6.562104105949402,3,3,3,2,-23.1,8.640000000000001,-1.28,0.13,-3.69,9.06
6.572104096412659,3,3,3,2,-22.47,10.1,-2.05,0.47,-3.22,11.25
6.582104086875916,3,3,3,2,-21.47,10.53,-3.24,0.02,-3.06,12.91
6.592104077339172,3,3,3,2,-22.11,8.16,-7,-1.27,-1.38,14.22
6.602104067802429,3,3,3,2,-23.41,5.63,-8.51,-1.63,-0.13,14.99
6.612104058265686,3,3,3,2,-24.27,1.98,-9.51,0.19,1.03,14.8
6.622104048728943,3,3,3,2,-24.02,-2.38,-9.17,4.3,4.73,14.62
6.6321040391922,3,3,3,2,-19.75,-12.42,-4.58,6.56,9.26,14.32
6.652104020118713,3,3,3,2,-12.19,-19.32,1.49,11.39,14.35,18.9
6.66210401058197,3,3,3,2,-7.99,-18.04,3.26,19.21,20.3,17.78
6.672104001045227,3,3,3,2,-5.97,-9.81,4.45,19.67,22.6,13.18
6.682103991508484,3,3,3,2,-3.83,-8.9,8.16,14.13,17.88,7.76
6.692103981971741,3,3,3,2,-2.27,-9.359999999999999,13.12,5.27,14.51,3.57
6.702103972434998,3,3,3,2,-1.1,-16.09,14.72,-2.18,8.73,2.71
6.712103962898254,3,3,3,2,-2.62,-31.16,8.970000000000001,-2.44,3.27,3.32
6.722103953361511,3,3,3,2,-4.93,-16.19,6.73,0.37,-2.65,-1.01
6.732103943824768,3,3,3,2,-3.79,-1.07,5.76,-4.92,-10.95,-5.9
6.742103934288025,3,3,3,2,-1.17,8.789999999999999,-3.46,-4.46,-9.41,-6.27
6.752103924751282,3,3,3,2,-3.3,8.93,-2.95,0.77,0.66,-4.44
6.762104153633118,3,3,3,2,-4.34,6.53,-3.01,-2.09,1.49,-2.76
6.772104144096375,3,3,3,2,-2.56,5.34,-4.05,-8.59,-7.2,-2.96
6.782104134559631,3,3,3,2,2.38,5.02,-4.49,-9.31,-9.720000000000001,-3.62
6.792104125022888,3,3,3,1,3.15,5.07,-3.94,-4.4,-5.68,-3.17
6.802104115486145,3,3,3,1,2.69,3.9,-4.06,-2.71,-2.38,-1.52
6.812104105949402,3,3,3,1,2.36,3.81,-3.13,-0.46,-1.05,-0.2
6.822104096412659,3,3,3,1,0.74,2.6,-1.46,-1.38,-1.55,1.26
6.832104086875916,3,3,3,1,0.43,1.57,-1.39,-3,-2.18,1.77
6.842104077339172,3,3,3,1,0.39,0.45,-1.18,-2.9,-1.98,1.9
6.852104067802429,3,3,3,1,0.6,-0.3,-0.41,-1.79,-1.67,2.14
6.862104058265686,3,3,3,1,1.73,-2.86,-0.14,-1.13,-1.46,1.82
6.872104048728943,3,3,3,1,1.46,-3.29,-0.11,0.89,0,0.96
6.8821040391922,3,3,3,1,1.03,-3.67,0.03,3.25,1.22,0.43
6.892104029655457,3,3,3,1,0.73,-3.53,0.02,6.66,1.34,-0.45
6.902104020118713,3,3,3,1,-0.66,-4.03,-1.26,9.56,2,-0.8
6.91210401058197,3,3,3,1,-1.41,-3.14,-0.89,13.08,2.08,-0.91
6.922104001045227,3,3,3,1,-1.71,-1.39,0.23,14.28,0.83,-0.89
6.932103991508484,3,3,3,1,-1.15,0.26,1.38,13.62,-0.8100000000000001,-0.34
6.942103981971741,3,3,3,1,0.36,0.72,1.52,11.82,-0.21,0.34
6.952103972434998,3,3,3,1,0.16,0.49,1.03,10.44,2.44,0.63
6.962103962898254,3,3,3,1,-0.31,0.28,0.5600000000000001,10.4,3.23,0.75
6.972103953361511,3,3,3,1,-0.51,0.33,-0.14,11.43,2.1,0.72
6.982103943824768,3,3,3,1,-0.8100000000000001,-0.49,-3.37,11.96,2.21,-0.24
6.992103934288025,3,3,3,1,-2.04,0.55,-1.33,7.28,2.81,-2.37
7.002103924751282,3,3,3,1,-2.93,0.97,5.41,0.92,-1.86,-3.32
7.012104153633118,3,3,3,1,-1.54,-2.2,13.82,-10.36,-8.75,-1.65
7.022104144096375,3,3,3,1,-2.61,-23.69,-14.31,-22.4,-2.55,0.8
7.032104134559631,3,3,3,1,-12.52,7.13,-22.02,1.47,-6.75,0.8100000000000001
7.042104125022888,3,3,3,1,-25.08,27.23,22.29,1.88,-28.07,-1.37
7.052104115486145,3,3,3,1,-29.09,-7.45,4.61,-24.78,-25.76,-5.13
7.062104105949402,3,3,3,1,-39.27,-33.09,12.55,-2.02,18.65,-16.43
7.072104096412659,3,3,3,1,-39.24,-39.11,1.33,-37.79,-15.57,-13.3
7.082104086875916,3,3,3,1,-39.27,-38.91,3.08,-8.35,-9.289999999999999,-6.75
7.092104077339172,3,3,3,1,-19.9,25.31,-9.640000000000001,28.84,-2.64,-15.11
7.102104067802429,3,3,3,1,-7.13,39.32,-7.74,37.74,-1.15,-20.52
7.112104058265686,3,3,3,1,-16.99,39.25,-7.32,26.02,19.98,-18.2
7.122104048728943,3,3,3,1,-21.61,39.31,-14.07,8.74,17.16,-9.23
7.1321040391922,3,3,3,1,-2.98,17.84,-8.32,-43.9,8.050000000000001,4.32
7.142104029655457,3,3,3,1,-1.19,2.07,-16.06,-45.29,-17.47,6.4
7.152104020118713,3,3,3,1,4.88,2,-14.94,-38.83,-29.81,6.49
7.16210401058197,3,3,3,1,-0.3,-14.2,-11.31,-28.04,-4.63,9.15
7.173103928565979,3,3,3,1,-30.61,-34.1,-0.53,-12.31,4.84,9.4
7.183104157447815,3,3,3,1,-39.27,-37.26,-5.15,2.51,-8.68,-6.03
7.193104147911072,3,3,3,2,-38.95,-7.84,-6.08,25.53,-2.31,-0.54
7.203104138374329,3,3,3,2,-13.15,2.74,-0.17,31.5,3.26,26.35
7.213104128837585,3,3,3,2,6.47,19.99,-1.51,37.24,18.17,9.550000000000001
7.223104119300842,3,3,3,2,1.61,12.9,-0.38,20.76,14.3,1.23
7.233104109764099,3,3,3,2,-3.24,7.31,0.23,8.99,5,-0.33
7.243104100227356,3,3,3,2,-8.23,3.58,-0.46,1.53,3.72,1.15
7.253104090690613,3,3,3,2,-11.14,0.64,-0.73,-2.2,-0.9,5.32
7.26310408115387,3,3,3,2,-11.94,-0.19,-1.63,-3.55,-1.8,8.609999999999999
7.273104071617126,3,3,3,2,-12.04,-0.49,-2.31,-3.31,0.98,9.98
7.283104062080383,3,3,3,2,-10.29,-0.65,-2.15,-3.63,1.68,10.25
7.29310405254364,3,3,3,2,-5.43,-0.92,-1.29,-4.12,1.76,7.52
7.303104043006897,3,3,3,2,-4.96,-0.49,-0.95,-4.89,3.08,3.24
7.313104033470154,3,3,3,2,-5.49,-0.04,-0.75,-5.61,2.69,0.62
7.323104023933411,3,3,3,2,-6.1,-0.25,-0.41,-6.42,1.35,0.24
7.333104014396667,3,3,3,2,-8.06,-3.13,-0.1,-7.08,1.47,0.47
7.343104004859924,3,3,3,2,-8.710000000000001,-4.98,0,-7.16,1.35,0.64
7.353103995323181,3,3,3,2,-9.109999999999999,-6.45,0.1,-5.72,0.82,1.11
7.363103985786438,3,3,3,2,-9.4,-7.23,0.37,-3.05,0.87,1.78
7.373103976249695,3,3,3,2,-9.529999999999999,-6.15,2.05,0.87,1.59,2.59
7.383103966712952,3,3,3,2,-9.67,-4.6,1.95,3.86,2.25,2.88
7.393103957176208,3,3,3,2,-10.06,-2.6,1.97,4.75,2,2.15
7.403103947639465,3,3,3,2,-10.37,-0.92,1.61,2.82,1.51,0.58
7.413103938102722,3,3,3,2,-9.42,0.38,-0.37,0.71,1.61,-0.84
7.423103928565979,3,3,3,2,-8.59,-0.52,-1.55,-1.46,1.94,-1.45
7.433104157447815,3,3,3,2,-8,-1.44,-2.52,-1.28,1.53,-0.86
7.443104147911072,3,3,3,2,-9.07,-1.6,-2.93,0.87,0.83,-0.17
7.453104138374329,3,3,3,2,-9.779999999999999,-1.05,-2.98,3.49,0.61,-0.07000000000000001
7.463104128837585,3,3,3,2,-10.42,-0.22,-3.23,5.23,1.02,0.37
7.473104119300842,3,3,3,2,-10.7,0.75,-2.8,6.8,1.62,0.95
7.483104109764099,3,3,3,2,-10.41,2.44,-2.2,7.08,1.73,1.51
7.493104100227356,3,3,3,2,-10.53,2.97,-1.58,6.69,1.76,1.98
7.503104090690613,3,3,3,2,-10.68,3.38,-0.96,4.83,1.52,2.38
7.51310408115387,3,3,3,2,-10.67,3.53,-0.97,1.84,1.23,2.48
7.523104071617126,3,3,3,2,-9.699999999999999,2.91,-0.64,-0.59,1.28,2.3
7.533104062080383,3,3,3,2,-9.27,2.1,-1.12,-3.2,1.38,2.01
7.54310405254364,3,3,3,2,-9.300000000000001,1.55,-1.67,-4.61,1.52,1.52
7.553104043006897,3,3,3,2,-9.359999999999999,0.86,-1.47,-4.6,1.67,1.33
7.563104033470154,3,3,3,2,-9.57,-1.26,-1.99,-4.94,1.8,1.66
7.573104023933411,3,3,3,2,-9.65,-1.87,-1.99,-3.96,1.79,2.21
7.583104014396667,3,3,3,2,-9.59,-2.11,-1.7,-2.71,1.61,2.49
7.593104004859924,3,3,3,2,-9.41,-2.34,-1.19,-1.47,1.46,2.46
7.603103995323181,3,3,3,2,-9.17,-2.21,-0.84,-0.38,1.48,2.59
7.613103985786438,3,3,3,2,-9.25,-1.72,-0.46,0.92,1.52,2.63
7.623103976249695,3,3,3,2,-9.33,-1.26,-0.16,1.44,1.4,2.4
7.633103966712952,3,3,3,2,-9.42,-1.12,-0.53,1.64,1.44,2.06
7.643103957176208,3,3,3,2,-9.77,-0.48,-0.4,1.9,2.07,1.67
7.653103947639465,3,3,3,2,-9.77,-0.3,-0.6,1.66,2.32,1.45
7.663103938102722,3,3,3,2,-9.640000000000001,-0.16,-0.76,1.58,2.3,1.31
7.673103928565979,3,3,3,2,-9.470000000000001,-0.4,-1.01,1.02,2.07,1.33
7.683104157447815,3,3,3,2,-9.640000000000001,-0.67,-0.95,0.79,1.42,1.23
7.693104147911072,3,3,3,2,-9.640000000000001,-0.88,-0.82,0.45,0.82,1.08
7.703104138374329,3,3,3,2,-9.529999999999999,-1.35,-1.06,0.16,0.54,0.93
7.713104128837585,3,3,3,2,-9.52,-1.53,-1.17,0.16,0.42,0.6
7.723104119300842,3,3,3,2,-9.470000000000001,-1.54,-0.72,0.03,0.22,0.12
7.733104109764099,3,3,3,2,-9.48,-1.31,-0.99,-0.53,0.12,-0.29
7.743104100227356,3,3,3,2,-9.460000000000001,-0.92,-0.93,-0.6899999999999999,-0.13,-0.5
7.753104090690613,3,3,3,2,-9.529999999999999,-0.79,-1.44,-0.97,-0.73,-0.71
7.76310408115387,3,3,3,2,-9.66,-0.53,-1.36,-1.38,-0.99,-0.84
7.773104071617126,3,3,3,2,-9.66,-0.43,-1.35,-1.55,-1.08,-0.9399999999999999
7.783104062080383,3,3,3,2,-9.52,-0.67,-1.45,-1.55,-1.53,-0.93
7.79310405254364,3,3,3,2,-9.25,-1.1,-1.27,-1.3,-1.79,-0.87
7.803104043006897,3,3,3,2,-9.16,-1.4,-1.22,-0.9,-1.81,-0.82
7.813104033470154,3,3,3,2,-9.17,-1.78,-0.93,-0.28,-1.69,-0.74
7.823104023933411,3,3,3,2,-9.109999999999999,-2.35,-0.64,0.45,-1.77,-0.61
7.833104014396667,3,3,3,2,-9.039999999999999,-3.57,0.19,1.22,-2.03,-0.5600000000000001
7.843104004859924,3,3,3,2,-9.050000000000001,-4.18,0.5600000000000001,1.44,-2.45,-0.62
7.853103995323181,3,3,3,2,-9.109999999999999,-4.64,0.67,1.23,-3.16,-0.91
7.863103985786438,3,3,3,2,-9.140000000000001,-4.86,0.07000000000000001,0.93,-4.25,-1.42
7.873103976249695,3,3,3,2,-8.66,-3.46,0.6899999999999999,0.58,-3.96,-2.32
7.883103966712952,3,3,3,2,-8.34,-3.34,0.55,0.78,-3.04,-2.94
7.893103957176208,3,3,3,2,-8.18,-3.16,0.84,1.31,-2.61,-3.37
7.903103947639465,3,3,3,2,-8.18,-2.92,0.71,0.97,-3.19,-3.67
7.913103938102722,3,3,3,2,-9.220000000000001,-3.18,-0.79,0.9,-4.82,-3.89
7.923103928565979,3,3,3,2,-9.68,-1.43,-0.45,0.91,-6.21,-4.92
7.933104157447815,3,3,3,2,-9.640000000000001,0.28,-0.05,0.84,-5.11,-5.69
7.943104147911072,3,3,3,2,-9.1,0.29,-0.19,1,-3.46,-5.71
7.953104138374329,3,3,3,2,-8.93,-0.85,0.05,-0.89,-2.21,-5.95
7.963104128837585,3,3,3,2,-8.75,-1.53,-0.14,-3.41,-4.05,-5.7
7.973104119300842,3,3,3,2,-8.609999999999999,-1.98,-0.24,-5.87,-5.63,-5.23
7.983104109764099,3,3,3,2,-9.35,-2.54,-0.43,-6.27,-5.35,-5.51
7.993104100227356,3,3,3,3,-10.39,-1.92,0.14,-4.84,-5.68,-6.4
8.003104090690613,3,3,3,3,-10.42,-1.82,0.63,-5.6,-4.9,-7.25
8.01310408115387,3,3,3,3,-10.63,-1.7,1.19,-5.88,-3.36,-7.85
8.023104071617126,3,3,3,3,-10.8,-1.58,0.9,-6.3,-3.93,-8.529999999999999
8.033104062080383,3,3,3,3,-9.68,0.05,0.09,-5.88,-4.67,-9.69
8.04310405254364,3,3,3,3,-9.17,1.17,-0.23,-5.22,-2.16,-10.88
8.053104043006897,3,3,3,3,-8.949999999999999,2.1,-1.42,-4.13,-0.05,-11.73
8.063104033470154,3,3,3,3,-8.75,2.98,-2.24,-3.51,-2.72,-11.72
8.073104023933411,3,3,3,3,-7.63,3.96,-1.56,-4.67,-3.91,-10.66
8.083104014396667,3,3,3,3,-8.51,3.68,-2.22,-5.67,-3.09,-9.15
8.093104004859924,3,3,3,3,-9.19,3.32,-2.19,-6.24,-3.8,-8.220000000000001
8.103103995323181,3,3,3,3,-10.41,2.02,-2.83,-8.32,-3.42,-7.74
8.113103985786438,3,3,3,3,-10.95,1.32,-3.42,-8.369999999999999,-2.41,-6.97
8.123103976249695,3,3,3,3,-11.13,1.16,-3.42,-6.11,-2.64,-6.17
8.133103966712952,3,3,3,3,-11.34,0.48,-3.88,-5.66,-1.34,-5.8
8.143103957176208,3,3,3,3,-11.06,2.66,-4.02,-3.56,-0.39,-5.61
8.153103947639465,3,3,3,3,-10.69,5.35,-3.6,-1.66,0.86,-4.29
8.163103938102722,3,3,3,3,-11,7.42,-3.42,-0.99,2.32,-2.84
8.173103928565979,3,3,3,3,-11.11,8.67,-3.58,-1.91,1.84,-1.55
8.183104157447815,3,3,3,3,-11.95,4.23,-3.67,-4.87,0.03,0.25
8.194104075431824,3,3,3,3,-13.29,1.06,-3.81,-7.78,-2.03,1.59
8.204104065895081,3,3,3,3,-15.33,-1.42,-3.87,-9.26,-3.69,1.47
8.214104056358337,3,3,3,3,-18.01,-2.94,-3.64,-7.4,-4.78,0.01
8.224104046821594,3,3,3,3,-23.97,-2.3,-2.2,-2.61,-4.31,-2.17
8.234104037284851,3,3,3,3,-24.51,0.54,-1.43,3.22,-2,-1.98
8.244104027748108,3,3,3,3,-22.36,4.16,-0.48,7.56,0.12,2.08
8.254104018211365,3,3,3,3,-19.5,7.34,0.24,7.71,0.61,6.49
8.264104008674622,3,3,3,3,-19.05,12.52,-0.08,5.99,-0.12,8.789999999999999
8.274103999137878,3,3,3,3,-20.95,13.54,-0.85,2.59,-1.29,9.44
8.284103989601135,3,3,3,3,-21.81,12.6,-1.93,-0.89,-2.04,9.93
8.294103980064392,3,3,3,3,-21.62,10.55,-2.74,-2.6,-1.22,11.06
8.304103970527649,3,3,3,3,-22.84,6.74,-5.54,-2.36,0.03,12.09
8.314103960990906,3,3,3,3,-24.34,4.9,-6.97,-0.84,0.71,12.83
8.324103951454163,3,3,3,3,-25.07,2.94,-7.31,2.08,1.8,13.81
8.334103941917419,3,3,3,3,-24.24,0.5600000000000001,-7.03,5.42,5.51,14.77
8.344103932380676,3,3,3,3,-18.97,-5.84,-3.97,5.14,9.26,15.08
8.354103922843933,3,3,3,3,-16.57,-9.82,-2.26,2.92,10.43,16.77
8.364104151725769,3,3,3,3,-14.03,-12.54,-0.72,5.3,12.66,17.52
8.374104142189026,3,3,3,3,-11.42,-13.53,2.13,8.880000000000001,16.81,16.34
8.384104132652283,3,3,3,3,-7.94,-8.289999999999999,4.12,10.57,17.92,14.02
8.39410412311554,3,3,3,3,-4.69,-7.37,9.710000000000001,-0.99,15.44,12.12
8.404104113578796,3,3,3,3,-2.05,-15.67,7.54,-9.84,13.26,10.6
8.414104104042053,3,3,3,3,-2.89,-24.56,14.33,-4.2,7.22,8.449999999999999
8.42410409450531,3,3,3,3,-2.16,-39.11,11,0.14,-3.29,6.47
8.434104084968567,3,3,3,3,-3.77,-21.96,8.640000000000001,20.32,-6.22,2.42
8.444104075431824,3,3,3,3,-5.75,0.16,6.6,17.44,-7.58,-8.699999999999999
8.454104065895081,3,3,3,3,-1.52,14.24,-0.29,8.23,-3.11,-13.05
8.464104056358337,3,3,3,3,-3.55,10.25,-2.53,4.05,8.1,-7.28
8.474104046821594,3,3,3,3,-3.98,6.64,-1.35,1.7,4.29,-1.62
8.484104037284851,3,3,3,3,-1.92,2.18,-1.81,-10.52,-7.58,-1.22
8.494104027748108,3,3,3,2,1.86,-2.12,-7.34,-12.38,-9.779999999999999,-3.08
8.504104018211365,3,3,3,2,1.38,1.63,-4.69,-5.04,-5.57,-3.82
8.514104008674622,3,3,3,2,1.76,4.88,-3.98,3.42,-5.15,0.99
8.524103999137878,3,3,3,2,2.25,6.81,-4.19,3.42,-5.15,0.99
8.534103989601135,3,3,3,2,0.85,6.08,-1.89,1.87,-1.51,1.51
8.544103980064392,3,3,3,2,0.5600000000000001,4.29,-1.93,-3.63,-2.72,0.87
8.554103970527649,3,3,3,2,1.2,1.71,-2.34,-6.73,-4.21,0.57
8.564103960990906,3,3,3,2,1.58,-0.6,-2.12,-5.42,-3.78,1.06
8.604103922843933,3,3,3,2,-1.17,-2.46,0.39,6.55,-1.79,-2.13
8.614104151725769,3,3,3,2,-1.49,-0.51,0.7,8.119999999999999,-1.81,-2.68
8.624104142189026,3,3,3,2,-0.9,-0.33,0.91,8.529999999999999,-1.13,-2.46
8.634104132652283,3,3,3,2,-0.35,-0.45,0.98,7.93,-0.26,-2.04
8.64410412311554,3,3,3,2,0.05,-0.61,0.7,7.62,0.45,-1.67
8.654104113578796,3,3,3,2,0.06,-0.59,0.26,7.14,1.1,-1.29
8.664104104042053,3,3,3,2,-0.1,-0.46,-0.07000000000000001,6.41,1.35,-1.49
8.67410409450531,3,3,3,2,-0.31,-0.26,-0.12,6.19,1.26,-1.81
8.684104084968567,3,3,3,2,-0.53,0.17,-0.21,6.19,1.26,-1.81
8.694104075431824,3,3,3,2,-0.76,0.76,-0.52,5.86,0.8,-2.21
8.704104065895081,3,3,3,2,-0.82,0.62,-0.45,4.4,-0.64,-3.58
8.714104056358337,3,3,3,2,-0.97,-0.11,-0.61,5.55,-0.14,-4.08
8.724104046821594,3,3,3,2,-0.8,-1.28,-1.7,0.57,-1,-4.73
8.734104037284851,3,3,3,2,-5.32,-5.14,13.29,0.57,-1,-4.73
8.744104027748108,3,3,3,2,-5.31,-18.92,16.53,-32.89,-8.460000000000001,-7.19
8.754104018211365,3,3,3,2,-1.7,-31.44,-11.36,10.38,-22.33,-1.52
8.764104008674622,3,3,3,2,-31.26,23.33,21.31,-32.91,-57.75,-6.17
8.774103999137878,3,3,3,2,-28.41,-15.32,6.33,-24.14,11.51,-24.54
8.784103989601135,3,3,3,2,-39.27,-39.11,-1.59,-24.14,11.51,-24.54
8.794103980064392,3,3,3,2,-39.27,-39.11,-12.74,-11.28,6.53,-28.37
8.804103970527649,3,3,3,2,-6.54,2.59,-1.77,38.7,20.37,-17.39
8.814103960990906,3,3,3,2,-3.1,38.99,-6.79,26.99,26.12,-15.94
8.824103951454163,3,3,3,2,-2.46,39.32,-2.82,6.7,12.15,-12.13
8.834103941917419,3,3,3,2,-7.78,39.22,2.22,6.7,12.15,-12.13
8.844103932380676,3,3,3,2,-19.04,31.82,-10.63,-18.36,0.99,-4.73
8.854103922843933,3,3,3,2,-11.57,13.63,-12.8,-35.36,-16.93,5.06
8.864104151725769,3,3,3,2,-5.59,-0.4,-10.66,-25.63,-11.74,8.81
8.874104142189026,3,3,3,2,-7.27,-9.109999999999999,-9.19,-0.39,-0.12,5.19
8.884104132652283,3,3,3,2,-19.53,-14.92,-4.36,-0.39,-0.12,5.19
8.89410412311554,3,3,3,2,-29.5,-2.03,-2.64,18.28,-1.37,-0.29
8.904104113578796,3,3,3,2,-38.51,10.22,-4.85,16.97,5.58,10.62
8.914104104042053,3,3,3,2,-34.58,8.84,-1.84,10.78,5.06,11.44
8.92410409450531,3,3,3,2,-3.26,-3.56,3,10.1,7.53,9.74
8.934104084968567,3,3,3,2,-7.89,-2.79,0.53,10.1,7.53,9.74
8.944104075431824,3,3,3,2,-10.7,-0.11,-0.17,12.46,3.8,7.73
8.954104065895081,3,3,3,2,-12.08,2.09,-1.13,11.29,3.23,8.76
8.964104056358337,3,3,3,2,-12.38,5.61,-1.84,7.68,5.01,9.75
8.974104046821594,3,3,3,2,-11.68,5.65,-1.66,4.71,5.56,9.82
8.984104037284851,3,3,3,2,-10.16,4.44,-1.58,4.71,5.56,9.82
8.994104027748108,3,3,3,2,-8.34,2.88,-1.46,1.97,5.01,9.640000000000001
9.004104018211365,3,3,3,2,-6.13,1.13,-1.64,-0.91,3.64,7.35
9.014104008674622,3,3,3,2,-5.86,1,-1.48,-1.89,3.28,5.99
9.024103999137878,3,3,3,2,-6.15,0.96,-1.07,-3.09,2.72,5.03
9.034103989601135,3,3,3,2,-6.47,0.43,-0.89,-3.09,2.72,5.03
9.044103980064392,3,3,3,2,-7.47,-0.54,-0.19,-3.77,2.76,4.28
9.054103970527649,3,3,3,2,-7.69,-0.91,0.07000000000000001,-4.89,3.25,3.34
9.064103960990906,3,3,3,2,-7.37,-1.41,0.17,-3.9,3.68,3.11
9.074103951454163,3,3,3,2,-6.59,-2.1,0.43,-3.19,3.99,2.83
9.084103941917419,3,3,3,2,-6.16,-2.28,0.8100000000000001,-3.19,3.99,2.83
9.094103932380676,3,3,3,2,-5.82,-2.6,0.75,-3.18,3.93,2.55
9.104103922843933,3,3,3,2,-5.94,-3.18,0.59,-3.64,2.29,2.89
9.114104151725769,3,3,3,2,-8.1,-4.67,0.76,-3.26,0.99,2.54
9.124104142189026,3,3,3,2,-9.6,-5.19,0.84,-3.23,-0.26,1.55
9.134104132652283,3,3,3,2,-10.92,-6.03,0.62,-3.23,-0.26,1.55
9.14410412311554,3,3,3,2,-11.62,-7.01,0.39,-2.2,-0.5600000000000001,0.15
9.154104113578796,3,3,3,2,-11.18,-6.4,-0.2,1.25,-0.06,-0.59
9.164104104042053,3,3,3,2,-10.08,-4.84,0.07000000000000001,8.140000000000001,3.08,-0.52
9.17410409450531,3,3,3,2,-9.369999999999999,-3.81,-0.62,10.84,3.92,-0.18
9.184104084968567,3,3,3,2,-9.08,-2.74,-1.72,10.84,3.92,-0.18
9.194104075431824,3,3,3,2,-9.43,0.68,-1.76,12.13,2.89,0.3
9.204104065895081,3,3,3,2,-9.68,2.28,-1.88,10.44,1.71,0.83
9.214104056358337,3,3,3,2,-10.24,3.13,-1.78,8.26,2.27,1.73
9.225103974342346,3,3,3,2,-10.71,3.3,-1.71,4.56,2.86,3.39
9.235103964805603,3,3,3,2,-11.04,3.78,-1.44,4.56,2.86,3.39
9.24510395526886,3,3,3,2,-10.36,3.94,-1.25,2.14,1.7,3.43
9.255103945732117,3,3,3,2,-9.800000000000001,3.92,-1.26,0.03,1.36,2.42
9.265103936195374,3,3,3,2,-9.44,3.61,-1.34,-4.57,0.39,0.95
9.27510392665863,3,3,3,2,-9.19,2.67,-1.06,-6.41,-0.18,1.28
9.285104155540466,3,3,3,2,-9.33,2.02,-1.39,-6.41,-0.18,1.28
9.295104146003723,3,3,3,2,-9.640000000000001,1.52,-1.45,-6.86,-0.26,1.66
9.30510413646698,3,3,3,2,-9.970000000000001,1.26,-0.86,-7.33,0.24,1.93
9.315104126930237,3,3,3,2,-9.91,-0.45,-0.92,-7.81,0.64,2.39
9.325104117393494,3,3,3,2,-9.48,-1.17,-0.89,-7.07,0.99,2.8
9.33510410785675,3,3,3,2,-9.17,-1.94,-0.75,-7.07,0.99,2.8
9.345104098320007,3,3,3,2,-9.029999999999999,-2.62,-0.59,-3.66,1.98,2.61
9.355104088783264,3,3,3,2,-9.26,-3.34,-0.8,-0.7,2.81,2.42
9.365104079246521,3,3,3,2,-9.300000000000001,-3.39,-1,2.62,3.14,2.45
9.375104069709778,3,3,3,2,-9.199999999999999,-3.09,-0.93,5.49,3.26,2.6
9.385104060173035,3,3,3,2,-9.16,-2.47,-0.63,5.49,3.26,2.6
9.395104050636292,3,3,3,2,-9.529999999999999,-1.72,-0.92,6.88,2.67,2.5
9.405104041099548,3,3,3,2,-9.890000000000001,-1.12,-0.92,6.43,2.16,1.91
9.415104031562805,3,3,3,2,-10.06,-0.41,-0.43,5.54,1.93,1.44
9.425104022026062,3,3,3,2,-9.5,0.05,-0.6899999999999999,4.73,1.8,1.24
9.435104012489319,3,3,3,2,-9.630000000000001,0.05,-0.7,4.73,1.8,1.24
9.445104002952576,3,3,3,2,-9.84,-0.01,-0.74,3.98,1.7,1.14
9.455103993415833,3,3,3,2,-10.11,-0.09,-0.96,1.93,0.28,0.64
9.465103983879089,3,3,3,2,-10.26,0.18,-0.76,1.16,-0.43,-0.08
9.475103974342346,3,3,3,2,-9.91,0.18,-1.12,0.06,-0.91,-0.8100000000000001
9.485103964805603,3,3,3,2,-9.6,0.33,-1.18,0.06,-0.91,-0.8100000000000001
9.49510395526886,3,3,3,2,-9.43,0.68,-0.76,-0.96,-1.06,-1.43
9.505103945732117,3,3,3,2,-9.07,0.8100000000000001,-1.32,-2.97,-1.58,-1.73
9.515103936195374,3,3,3,2,-9.210000000000001,0.75,-1.37,-3.68,-1.84,-1.79
9.52510392665863,3,3,3,2,-9.449999999999999,0.62,-1.53,-4.18,-2.59,-1.86
9.535104155540466,3,3,3,2,-9.57,0.45,-1.4,-4.18,-2.59,-1.86
9.545104146003723,3,3,3,2,-9.470000000000001,-0.37,-0.96,-4.31,-3,-1.96
9.55510413646698,3,3,3,2,-9.369999999999999,-1.09,-1.13,-2.95,-2.63,-2.03
9.565104126930237,3,3,3,2,-9.289999999999999,-1.56,-1.23,-1.7,-2.48,-1.82
9.575104117393494,3,3,3,2,-9.300000000000001,-1.74,-1.08,0.18,-2.2,-1.54
9.58510410785675,3,3,3,2,-9.789999999999999,-1.92,-0.77,0.18,-2.2,-1.54
9.595104098320007,3,3,3,2,-9.94,-2.17,-1.41,1.97,-1.97,-1.4
9.605104088783264,3,3,3,2,-10.01,-1.82,-1.26,4.4,-1.53,-1.91
9.615104079246521,3,3,3,2,-8.94,-1.1,-0.7,4.68,-1.57,-2.04
9.625104069709778,3,3,3,2,-9.109999999999999,-1,-0.17,4.25,-1.26,-2.19
9.635104060173035,3,3,3,2,-9.109999999999999,-1,-0.17,4.25,-1.26,-2.19
9.645104050636292,3,3,3,2,-8.98,-1.36,0.19,4.16,-1.41,-2.64
9.655104041099548,3,3,3,2,-8.369999999999999,-3.11,0.95,2.97,-3.53,-3.13
9.665104031562805,3,3,3,2,-7.94,-3.75,1.03,1.99,-3.84,-3.39
9.675104022026062,3,3,3,2,-7.67,-3.9,1.72,1.03,-4.29,-3.63
9.685104012489319,3,3,3,2,-7.67,-3.9,1.72,1.03,-4.29,-3.63
9.695104002952576,3,3,3,2,-7.86,-3.87,1.81,0.39,-3.84,-3.99
9.705103993415833,3,3,3,2,-8.82,-2.14,0.19,-2.58,-4.76,-5.85
9.715103983879089,3,3,3,2,-8.960000000000001,-1.57,-0.89,-3.25,-5.32,-6.59
9.725103974342346,3,3,3,2,-9.01,0.58,-0.39,-2.52,-6.2,-7.49
9.735103964805603,3,3,3,2,-9.01,0.58,-0.39,-2.52,-6.2,-7.49
9.74510395526886,3,3,3,2,-9.050000000000001,0.45,-0.24,-2.86,-5.38,-8.07
9.755103945732117,3,3,3,2,-8.81,-1.72,-0.3,-4.78,-4.26,-7.46
9.765103936195374,3,3,3,2,-8.550000000000001,-1.09,-1.51,-6.13,-3.51,-6.72
9.77510392665863,3,3,3,2,-8.220000000000001,0.53,-1.54,-5.2,-3.96,-6.69
9.785104155540466,3,3,3,3,-8.220000000000001,0.53,-1.54,-5.2,-3.96,-6.69
9.795104146003723,3,3,3,3,-7.68,2,-1.24,-4.46,-3.72,-7.73
9.80510413646698,3,3,3,3,-7.76,1.02,-0.46,-1.71,-0.63,-9.06
9.815104126930237,3,3,3,3,-8.550000000000001,-2.18,-0.09,-5.09,-2.9,-8.130000000000001
9.825104117393494,3,3,3,3,-10.68,-4.25,0.01,-9.77,-3.83,-7.33
9.83510410785675,3,3,3,3,-10.68,-4.25,0.01,-11.01,-2.74,-7.11
9.845104098320007,3,3,3,3,-12.95,-5.13,0,-11.01,-2.74,-7.11
9.855104088783264,3,3,3,3,-11.59,-1.96,-1,-5.85,-2.58,-7.88
9.865104079246521,3,3,3,3,-9.529999999999999,0.12,-0.73,-0.19,-2.48,-8.49
9.875104069709778,3,3,3,3,-8.08,1.88,-1.34,4.07,-1.31,-9.58
9.885104060173035,3,3,3,3,-8.08,1.88,-1.34,4.07,-1.31,-9.58
9.895104050636292,3,3,3,3,-6.84,4.26,-1.38,2.87,-1.14,-9.539999999999999
9.905104041099548,3,3,3,3,-8.619999999999999,4.26,-1.22,-1.09,1.05,-8.08
9.915104031562805,3,3,3,3,-9.35,1.66,-1.08,-4.32,0.87,-6.9
9.925104022026062,3,3,3,3,-11.86,-3.53,-1.29,-7.67,-0.54,-5.64
9.935104012489319,3,3,3,3,-11.86,-3.53,-1.29,-7.67,-0.54,-5.64
9.945104002952576,3,3,3,3,-12.88,-4.94,-1.27,-8.130000000000001,-2.57,-4.61
9.955103993415833,3,3,3,3,-14.09,-5.09,-1.52,-3.18,-2.75,-5.4
9.965103983879089,3,3,3,3,-13.93,-0.74,-1.37,0.41,-2.29,-4.98
9.975103974342346,3,3,3,3,-14.1,2.09,-1.49,2.76,-0.25,-4.33
9.985103964805603,3,3,3,3,-14.1,2.09,-1.49,3.71,2.29,-3.25
9.99510395526886,3,3,3,3,-13.82,5.24,-1.5,3.71,2.29,-3.25
10.00510394573212,3,3,3,3,-11.9,9.33,-1.19,2.67,5.08,-0.21
10.01510393619537,3,3,3,3,-11.97,7.91,-1.2,-1.07,4.57,0.84
10.02510392665863,3,3,3,3,-12.78,5.46,-1.37,-5.25,1.76,2.09
10.03510415554047,3,3,3,3,-12.78,5.46,-1.37,-9.49,-2.32,3.08
10.04510414600372,3,3,3,3,-14.4,2.38,-1.39,-11.81,-5.31,3.08
10.05510413646698,3,3,3,3,-21.97,-1.73,-1.73,-11.39,-6.47,2.2
10.06510412693024,3,3,3,3,-23.44,-0.13,-1.79,-7.76,-5.54,0.45
10.07510411739349,3,3,3,3,-20.35,5.12,-1.76,-2.53,-2.98,0.64
10.08510410785675,3,3,3,3,-20.35,5.12,-1.76,0.48,-1.32,3.89
10.09510409832001,3,3,3,3,-17.88,6.5,-1.45,1.11,-1.34,7.08
10.10510408878326,3,3,3,3,-17.8,8.33,-1.4,1.06,-2.26,8.4
10.11510407924652,3,3,3,3,-20.7,9.890000000000001,-2.2,0.2,-2.52,8.890000000000001
10.12510406970978,3,3,3,3,-21.16,9.24,-3.34,-0.38,-2.05,9.82
10.13510406017303,3,3,3,3,-21.16,9.24,-3.34,0.32,-0.9399999999999999,11.58
10.14510405063629,3,3,3,3,-21.46,7.03,-5.14,-1.33,0.5600000000000001,13.92
10.15510404109955,3,3,3,3,-24.54,-2.45,-7.25,-0.35,1.15,15.25
10.16510403156281,3,3,3,3,-23.46,-6.06,-6.37,2.43,2.19,15.32
10.17510402202606,3,3,3,3,-21,-9.970000000000001,-4.06,5.9,4.72,15.62
10.18510401248932,3,3,3,3,-21,-9.970000000000001,-4.06,7.23,7.74,17.07
10.19510400295258,3,3,3,3,-18.06,-12.32,-1.03,8.550000000000001,10.26,17.79
10.20510399341583,3,3,3,3,-10.21,-10.22,2,11.79,13.82,17.47
10.21510398387909,3,3,3,3,-8.27,-4.51,2.52,16.17,17.31,14.38
10.22510397434235,3,3,3,3,-5.83,-2.51,4.97,14.16,17.54,8.83
10.2351039648056,3,3,3,3,-0.12,-8.869999999999999,10.08,6.34,16.38,5.82
10.24610412120819,3,3,3,3,0.4,-16.46,12.93,-2.48,13.45,5.69
10.25610411167145,3,3,3,3,-0.97,-25.43,13.34,-6.82,9.02,6.23
10.2661041021347,3,3,3,3,-2.5,-28.99,9.98,-5,3.33,5.16
10.27610409259796,3,3,3,3,-3.77,-8.74,4.11,5.11,-1.9,2.61
10.28610408306122,3,3,3,3,-1.87,1.57,1.5,11.53,-4.94,-2.21
10.29610407352448,3,3,3,3,-0.44,6.13,-2.82,8.34,-5.74,-6.6
10.30610406398773,3,3,3,3,-0.58,5.96,-4.59,4.34,-1.4,-8.460000000000001
10.31610405445099,3,3,3,3,-0.82,2.36,-3.17,0.45,1.07,-6.39
10.32610404491425,3,3,3,3,0.49,2.2,-4.56,-7.52,-1.97,-5.29
10.3361040353775,3,3,3,2,1.51,3.19,-4.41,-7.7,-4.35,-4.21
10.34610402584076,3,3,3,2,2.09,4.19,-3.5,-1.24,-3.07,-2.61
10.35610401630402,3,3,3,2,1.99,4.87,-1.79,3.03,-1.67,-0.77
10.36610400676727,3,3,3,2,1,4.92,-1.06,2.63,-0.92,0.66
10.37610399723053,3,3,3,2,0.15,4.52,-1.24,-0.34,-0.32,0.26
10.38610398769379,3,3,3,2,-0.91,3.45,-0.24,-3.78,-1.91,0.11
10.39610397815704,3,3,3,2,-0.9399999999999999,1.59,-0.36,-5.22,-3.76,0.43
10.4061039686203,3,3,3,2,-0.59,-0.06,-0.21,-7.85,-4.67,0.97
10.41610395908356,3,3,3,2,-0.31,-1.63,-0.25,-9.050000000000001,-4.03,1.3
10.42610394954681,3,3,3,2,-0.21,-3.08,0.43,-8.539999999999999,-2.31,0.52
10.43610394001007,3,3,3,2,-0.04,-3.19,0.13,-5.94,-0.76,-0.84
10.44610393047333,3,3,3,2,0.11,-3.38,0.17,-3.55,0.41,-1.78
10.45610392093658,3,3,3,2,0.35,-3.25,0.01,0.06,1.72,-2.18
10.46610414981842,3,3,3,2,1.27,-2.49,-0.32,3.09,2.05,-2.04
10.47610414028168,3,3,3,2,1.32,-2.07,-0.14,6.27,1.59,-1.12
10.48610413074493,3,3,3,2,0.9,-1.43,0.18,8.609999999999999,0.85,0.07000000000000001
10.49610412120819,3,3,3,2,0.21,-0.6899999999999999,0.76,9.640000000000001,-0.25,0.89
10.50610411167145,3,3,3,2,-1.14,0.42,1.21,9.539999999999999,-1.47,1.13
10.5161041021347,3,3,3,2,-1.4,0.39,1.06,8.49,-2.37,0.89
10.52610409259796,3,3,3,2,-1.28,0.03,-0.28,7.51,-2.05,0.1
10.53610408306122,3,3,3,2,-1.54,-0.72,-1.86,6.43,0.01,-1.25
10.54610407352448,3,3,3,2,-3.96,-3.19,10.56,6.5,1.49,-2.75
10.55610406398773,3,3,3,2,-2.84,-12.14,14.65,-1.86,-3.49,-4.76
10.56610405445099,3,3,3,2,-2.58,-25.9,-4.77,-28.55,-5.68,-4.9
10.57610404491425,3,3,3,2,-9.76,-13.71,-15.58,-17.29,1.97,-1.46
10.5861040353775,3,3,3,2,-27.95,10.32,13.55,12.34,-8.48,-1.35
10.59610402584076,3,3,3,2,-33.01,-16.44,-8.18,-16.85,-40.15,-7.24
10.60610401630402,3,3,3,2,-39.27,-16.84,-7.02,-18.22,-5.16,-16.52
10.61610400676727,3,3,3,2,-29.76,-19.21,-1.74,-3.37,16.16,-19.95
10.62610399723053,3,3,3,2,-18.49,-15.27,1.7,-19.21,-12.19,-5.26
10.63610398769379,3,3,3,2,-37.14,-16.25,1.8,-8.19,-9.199999999999999,-8.82
10.64610397815704,3,3,3,2,-39.27,2.57,-3.92,10.95,1.94,-24.85
10.6561039686203,3,3,3,2,-33.33,31.97,-5.78,30.29,1.1,-21.04
10.66610395908356,3,3,3,2,-10.88,39.24,0.74,16.84,3.3,-3.54
10.67610394954681,3,3,3,2,-10.35,37.62,-0.16,7.93,19.32,3.59
10.68610394001007,3,3,3,2,-9.6,20,-2.77,-14.51,8.789999999999999,6.05
10.69610393047333,3,3,3,2,-7.2,4.01,-6.01,-36.13,-9.109999999999999,4.94
10.70610392093658,3,3,3,2,-14.34,-13.26,-8.19,-38.45,-12.21,1.95
10.71610414981842,3,3,3,2,-22.05,-14.98,-8.779999999999999,-30.27,-3.8,-0.43
10.72610414028168,3,3,3,2,-24,-13.67,-7.64,-9.720000000000001,-2,-1.75
10.73610413074493,3,3,3,2,-23.22,-0.47,-5.12,10.55,3.74,-7.58
10.74610412120819,3,3,3,2,-10.7,3.28,-2.77,20.65,2.24,2.64
10.75610411167145,3,3,3,2,-3.2,6.03,-2.25,19.48,-1.23,12.07
10.7661041021347,3,3,3,2,-2.99,5.86,-1.61,20.44,5.25,9.960000000000001
10.77610409259796,3,3,3,2,-7.69,1.24,-1.51,18.11,8.34,6.07
10.78610408306122,3,3,3,2,-9.67,0.03,-2.21,15.04,7.12,7.53
10.79610407352448,3,3,3,2,-10.01,-0.06,-2.77,14.01,6.39,10.28
10.80610406398773,3,3,3,2,-8.91,0.54,-3.55,13.97,5.39,11.22
10.81610405445099,3,3,3,2,-6.58,0.96,-2.78,12.55,5.08,9.630000000000001
10.82610404491425,3,3,3,2,-6.08,0.19,-2.62,10.33,6.63,7.34
10.8361040353775,3,3,3,2,-5.63,-0.09,-2.54,8.17,6.97,5.87
10.84610402584076,3,3,3,2,-5,-0.74,-1.95,6.55,5.75,4.55
10.85610401630402,3,3,3,2,-6.2,-1.06,0.4,6.37,4.54,3.73
10.86610400676727,3,3,3,2,-7.3,-2.21,1.09,5.35,3.8,3.64
10.87610399723053,3,3,3,2,-8.43,-4.1,1.82,4.05,2.33,4.37
10.88610398769379,3,3,3,2,-9.390000000000001,-5.52,2.56,2.83,1.46,4.88
10.89610397815704,3,3,3,2,-9.98,-5.81,4.07,2.53,0.9,4.59
10.9061039686203,3,3,3,2,-10.01,-4.91,4.27,3.7,1.64,3.5
10.91610395908356,3,3,3,2,-9.58,-3.31,4.73,3.96,2.2,2.34
10.92610394954681,3,3,3,2,-9.16,-1.86,4.86,2.36,1.89,1.79
10.93610394001007,3,3,3,2,-9.199999999999999,-0.47,3.27,-1.51,1.42,1.31
10.94610393047333,3,3,3,2,-9.59,-0.39,1.32,-5.13,1.69,0.04
10.95610392093658,3,3,3,2,-9.85,-0.12,0.05,-8.18,2.08,-1.7
10.96610414981842,3,3,3,2,-9.41,-0.37,-0.79,-10.27,1.92,-3.32
10.97610414028168,3,3,3,2,-8.48,-2.88,-3.16,-11.5,1.69,-3.78
10.98610413074493,3,3,3,2,-8.49,-4.25,-3.93,-11.56,0.72,-3.06
10.99610412120819,3,3,3,2,-8.800000000000001,-5.37,-3.86,-8.859999999999999,-0.24,-1.52
11.00610411167145,3,3,3,2,-9.41,-5.91,-3.82,-4.81,-0.37,-0.41
11.0161041021347,3,3,3,2,-9.9,-4.67,-2.59,0.01,-0.51,0.24
11.02610409259796,3,3,3,2,-10.03,-3.52,-1.82,4.54,-0.43,0.79
11.03610408306122,3,3,3,2,-9.970000000000001,-1.81,-1.1,7.36,0.02,1.33
11.04610407352448,3,3,3,2,-9.859999999999999,0.02,-0.35,8.710000000000001,-0.04,1.57
11.05610406398773,3,3,3,2,-10.34,2.27,0.47,8.199999999999999,-0.02,1.69
11.06610405445099,3,3,3,2,-10.63,2.59,0.95,6.31,0.34,1.97
11.07610404491425,3,3,3,2,-10.47,2.58,1.01,3.37,0.42,2.09
11.0861040353775,3,3,3,2,-9.17,1.82,0.6899999999999999,0.29,-0.02,1.58
11.09610402584076,3,3,3,2,-9,0.9,-0.03,-2.5,-0.37,0.45
11.10610401630402,3,3,3,2,-9.18,0.1,-0.62,-4.6,-0.53,-0.44
11.11610400676727,3,3,3,2,-9.359999999999999,-0.37,-0.92,-5.57,-1.21,-0.83
11.12610399723053,3,3,3,2,-9.6,-1.88,-1.61,-6.39,-1.58,-0.98
11.13610398769379,3,3,3,2,-9.630000000000001,-2.49,-1.81,-6.21,-1.39,-1.06
11.14610397815704,3,3,3,2,-9.449999999999999,-2.65,-1.67,-5.08,-1.3,-0.92
11.1561039686203,3,3,3,2,-9.23,-2.66,-1.65,-3.53,-1.15,-0.58
11.16610395908356,3,3,3,2,-9.48,-2.36,-1.6,-1.66,-0.51,0
11.17610394954681,3,3,3,2,-9.66,-2.07,-1.32,-0.19,-0.45,0.44
11.18610394001007,3,3,3,2,-9.859999999999999,-1.75,-1,1.21,-0.45,0.55
11.19610393047333,3,3,3,2,-9.91,-1.4,-0.95,1.92,-0.36,0.54
11.20610392093658,3,3,3,2,-9.59,-0.15,-0.9,2.34,-0.32,0.66
11.21610414981842,3,3,3,2,-9.609999999999999,0,-0.82,2.79,-0.03,0.84
11.22610414028168,3,3,3,2,-9.67,-0.03,-0.65,2.4,0.01,0.91
11.23610413074493,3,3,3,2,-9.93,0.05,-0.57,2.16,0.1,0.85
11.24610412120819,3,3,3,2,-9.880000000000001,0.43,-0.8100000000000001,1.76,-0.1,0.67
11.25610411167145,3,3,3,2,-9.91,0.6899999999999999,-1.02,1.49,0.07000000000000001,0.57
11.2661041021347,3,3,3,2,-9.890000000000001,1.04,-1.22,1,0.58,0.54
11.27710402011871,3,3,3,2,-9.779999999999999,1.4,-1.39,0.66,0.7,0.58
11.28710401058197,3,3,3,2,-9.73,1.54,-1.63,0.42,1.15,0.62
11.29710400104523,3,3,3,2,-9.84,1.38,-1.63,0.04,1.33,0.73
11.30710399150848,3,3,3,2,-9.9,1.28,-1.76,-0.6,0.95,0.92
11.31710398197174,3,3,3,2,-9.960000000000001,1.27,-1.62,-0.71,0.7,1.19
11.327103972435,3,3,3,2,-9.84,0.6899999999999999,-1.43,-0.5600000000000001,0.98,1.47
11.33710396289825,3,3,3,2,-9.77,0.3,-1.39,-0.4,1.34,1.87
11.34710395336151,3,3,3,2,-9.69,-0.07000000000000001,-1.29,-0.21,1.23,2.16
11.35710394382477,3,3,3,2,-9.68,-0.53,-1.2,0.03,1.17,2.31
11.36710393428802,3,3,3,2,-9.619999999999999,-1.26,-1,0.39,1.23,2.27
11.37710392475128,3,3,3,2,-9.529999999999999,-1.58,-0.93,0.89,1.23,2.13
11.38710415363312,3,3,3,2,-9.57,-1.75,-0.85,1.49,1.39,2
11.39710414409637,3,3,3,2,-9.619999999999999,-1.59,-0.77,1.85,1.09,1.9
11.40710413455963,3,3,3,2,-9.73,-1.38,-0.7,2.27,0.77,1.79
11.41710412502289,3,3,3,2,-9.84,-1.08,-0.64,2.64,0.57,1.62
11.42710411548615,3,3,3,2,-9.92,-0.7,-0.63,2.39,0.38,1.4
11.4371041059494,3,3,3,2,-10.03,-0.08,-0.96,1.89,0.27,1.11
11.44710409641266,3,3,3,2,-9.949999999999999,0.13,-0.98,1.26,0.21,0.83
11.45710408687592,3,3,3,2,-9.67,0.33,-1.24,0.38,0.29,0.57
11.46710407733917,3,3,3,2,-9.449999999999999,0.35,-1.49,-0.11,0.38,0.49
11.47710406780243,3,3,3,2,-9.69,0.55,-1.74,-0.82,0.23,0.47
11.48710405826569,3,3,3,2,-9.720000000000001,0.59,-1.66,-1.52,-0.09,0.38
11.49710404872894,3,3,3,2,-9.699999999999999,0.47,-1.62,-1.98,-0.13,0.16
11.5071040391922,3,3,3,2,-9.640000000000001,0.12,-1.74,-1.79,0.28,0.17
11.51710402965546,3,3,3,2,-9.449999999999999,-0.41,-1.49,-1.51,0.49,0.4
11.52710402011871,3,3,3,2,-9.59,-0.63,-1.47,-1.19,0.36,0.6899999999999999
11.53710401058197,3,3,3,2,-9.859999999999999,-0.52,-1.39,-0.99,0.13,0.87
11.54710400104523,3,3,3,2,-9.94,-0.24,-1.16,-0.73,0.08,0.6
11.55710399150848,3,3,3,2,-9.720000000000001,-0.03,-1.37,0,0.59,0.19
11.56710398197174,3,3,3,2,-9.58,-0.25,-1.36,0.64,1.07,0.22
11.577103972435,3,3,3,2,-9.6,-0.28,-1.22,1.14,1.1,0.54
11.58710396289825,3,3,3,2,-9.699999999999999,-0.29,-1.29,1.7,1,0.8100000000000001
11.59710395336151,3,3,3,2,-9.98,-0.08,-1.61,2.11,0.73,1.06
11.60710394382477,3,3,3,2,-9.91,0.32,-1.58,1.98,0.58,0.9399999999999999
11.61710393428802,3,3,3,2,-9.67,0.68,-1.59,1.99,0.71,0.6899999999999999
11.62710392475128,3,3,3,2,-9.52,0.7,-1.82,1.9,0.97,0.61
11.63710415363312,3,3,3,2,-9.68,0.58,-1.55,1.76,0.88,0.6899999999999999
11.64710414409637,3,3,3,2,-9.720000000000001,0.55,-1.55,1.18,0.65,0.9399999999999999
11.65710413455963,3,3,3,2,-9.69,0.51,-1.57,0.73,0.39,1.03
11.66710412502289,3,3,3,2,-9.67,0.44,-1.47,0.27,0.42,0.87
11.67710411548615,3,3,3,2,-9.65,0.13,-1.5,-0.08,0.38,0.55
11.6871041059494,3,3,3,2,-9.69,-0.01,-1.43,-0.31,0.32,0.34
11.69710409641266,3,3,3,2,-9.76,0.02,-1.35,-0.23,0.32,0.28
11.70710408687592,3,3,3,2,-9.82,0.09,-1.53,-0.14,0.25,0.34
11.71710407733917,3,3,3,2,-9.81,0.43,-1.61,-0.05,0.16,0.34
11.72710406780243,3,3,3,2,-9.789999999999999,0.46,-1.71,0.21,0.18,0.33
11.73710405826569,3,3,3,2,-9.68,0.53,-1.7,0.49,0.06,0.31
11.74710404872894,3,3,3,2,-9.66,0.67,-1.85,0.73,0.3,0.28
11.7571040391922,3,3,3,2,-9.65,0.72,-1.93,0.91,0.39,0.36
11.76710402965546,3,3,3,2,-9.65,0.82,-1.8,0.95,0.28,0.41
11.77710402011871,3,3,3,2,-9.640000000000001,1.06,-1.75,0.91,0.41,0.44
11.78710401058197,3,3,3,2,-9.81,0.95,-1.81,0.98,0.44,0.41
11.79710400104523,3,3,3,2,-9.73,0.95,-1.64,0.73,0.39,0.37
11.80710399150848,3,3,3,2,-9.69,0.85,-1.8,0.53,0.36,0.44
11.81710398197174,3,3,3,2,-9.67,0.76,-1.7,0.35,0.35,0.41
11.827103972435,3,3,3,2,-9.619999999999999,0.32,-1.46,0.16,0.36,0.44
11.83710396289825,3,3,3,2,-9.59,0.14,-1.39,0.06,0.4,0.47
11.84710395336151,3,3,3,2,-9.67,-0.01,-1.43,-0.08,0.24,0.49
11.85710394382477,3,3,3,2,-9.710000000000001,-0.07000000000000001,-1.48,-0.23,0.07000000000000001,0.45
11.86710393428802,3,3,3,2,-9.68,-0.13,-1.4,-0.23,-0.06,0.23
11.87710392475128,3,3,3,2,-9.65,-0.21,-1.49,-0.1,0.1,0.15
11.88710415363312,3,3,3,2,-9.630000000000001,-0.24,-1.59,-0.02,0.19,0.13
11.89710414409637,3,3,3,2,-9.66,-0.16,-1.63,-0.01,0.2,0.12
11.90710413455963,3,3,3,2,-9.67,-0.07000000000000001,-1.8,0.08,0.34,0.08
11.91710412502289,3,3,3,2,-9.539999999999999,-0.09,-1.74,0.1,0.33,0.05
11.92710411548615,3,3,3,2,-9.44,-0.22,-1.68,0.04,0.22,0.07000000000000001
11.9371041059494,3,3,3,2,-9.41,-0.22,-1.56,0.2,0.16,0.14
11.94710409641266,3,3,3,2,-9.81,-0.31,-1.71,0.4,0.1,0.26
11.95710408687592,3,3,3,2,-10.07,-0.17,-1.62,0.54,0.05,0.38
11.96710407733917,3,3,3,2,-10.21,-0.09,-1.66,0.66,0.06,0.45
11.97710406780243,3,3,3,2,-10.16,0.01,-1.77,0.54,0.08,0.38
11.98710405826569,3,3,3,2,-9.609999999999999,0.3,-1.56,0.63,0.04,0.29
11.99710404872894,3,3,3,2,-9.43,0.31,-1.59,0.48,0.19,0.3
12.0071040391922,3,3,3,2,-9.42,0.48,-1.45,0.45,0.2,0.37
12.01710402965546,3,3,3,2,-9.52,0.59,-1.49,0.14,0.12,0.38
12.02710402011871,3,3,3,2,-9.66,0.6899999999999999,-1.35,-0.12,0,0.42
12.03710401058197,3,3,3,2,-9.67,0.61,-1.42,-0.27,0.06,0.37
12.04710400104523,3,3,3,2,-9.6,0.63,-1.47,-0.59,0.03,0.28
12.05710399150848,3,3,3,2,-9.529999999999999,0.61,-1.56,-0.63,0.06,0.16
12.06710398197174,3,3,3,2,-9.51,0.33,-1.49,-0.66,0.15,0.15
12.077103972435,3,3,3,2,-9.59,0.25,-1.48,-0.38,0.22,0.27
12.08710396289825,3,3,3,2,-9.720000000000001,0.28,-1.53,-0.27,0.16,0.36
12.09710395336151,3,3,3,2,-9.880000000000001,0.37,-1.61,-0.16,0.33,0.35
12.10710394382477,3,3,3,2,-9.81,0.29,-1.68,0.05,0.5600000000000001,0.29
12.11710393428802,3,3,3,2,-9.69,0.28,-1.59,0.04,0.62,0.29
12.12710392475128,3,3,3,2,-9.609999999999999,0.3,-1.52,-0.04,0.48,0.27
12.13710415363312,3,3,3,2,-9.65,0.14,-1.53,-0.17,0.5,0.35
12.14710414409637,3,3,3,2,-9.77,0.1,-1.68,-0.2,0.47,0.31
12.15710413455963,3,3,3,2,-9.85,0.25,-1.81,-0.26,0.26,0.23
12.16710412502289,3,3,3,2,-9.83,0.52,-1.56,-0.21,0.02,0.1
12.17710411548615,3,3,3,2,-9.640000000000001,0.45,-1.76,-0.25,0.11,0.02
12.1871041059494,3,3,3,2,-9.58,0.51,-1.68,-0.38,0.26,0.05
12.19710409641266,3,3,3,2,-9.59,0.65,-1.73,-0.5600000000000001,0.17,0.12
12.20710408687592,3,3,3,2,-9.65,0.8,-1.78,-0.66,0.19,0.01
12.21710407733917,3,3,3,2,-9.6,0.5,-1.71,-0.6,0.36,-0.14
12.22810399532318,3,3,3,2,-9.57,0.38,-1.73,-0.6899999999999999,0.38,-0.04
12.23710405826569,3,3,3,2,-9.58,0.28,-1.73,-0.51,0.27,0.21
12.24710404872894,3,3,3,2,-9.65,0.2,-1.68,-0.46,0.15,0.26
12.2571040391922,3,3,3,2,-9.609999999999999,0.2,-1.78,-0.27,0.13,0.19
12.26710402965546,3,3,3,2,-9.609999999999999,0.14,-1.74,-0.02,0.31,0.15
12.27710402011871,3,3,3,2,-9.6,0.11,-1.67,0.12,0.33,0.21
12.28710401058197,3,3,3,2,-9.640000000000001,0.13,-1.66,0.15,0.23,0.31
12.29810392856598,3,3,3,2,-9.800000000000001,0.28,-1.76,0.09,0.12,0.39
12.30810415744781,3,3,3,2,-9.77,0.39,-1.8,0.13,0.14,0.29
12.31810414791107,3,3,3,2,-9.630000000000001,0.47,-1.83,0,0.2,0.11
12.32810413837433,3,3,3,2,-9.59,0.48,-1.81,-0.12,0.21,0.06
12.33810412883759,3,3,3,2,-9.68,0.53,-1.81,-0.27,0.14,0.18
12.34810411930084,3,3,3,2,-9.699999999999999,0.58,-1.79,-0.46,-0.05,0.28
12.3581041097641,3,3,3,2,-9.67,0.59,-1.84,-0.38,-0.02,0.28
12.36810410022736,3,3,3,2,-9.73,0.44,-1.89,-0.47,0.21,0.26
12.40810406208038,3,3,3,2,-9.619999999999999,0.14,-1.8,-0.42,0.12,0.17
12.41810405254364,3,3,3,2,-9.630000000000001,0.07000000000000001,-1.87,-0.25,0.04,0.2
12.4281040430069,3,3,3,2,-9.75,0.13,-1.77,-0.09,0.06,0.18
12.43810403347015,3,3,3,2,-9.779999999999999,0.21,-1.68,0.08,0.22,0.03
12.44810402393341,3,3,3,2,-9.6,0.17,-1.77,0.18,0.16,-0.02
12.45810401439667,3,3,3,2,-9.619999999999999,0.25,-1.81,0.35,0.11,0.08
12.46810400485992,3,3,3,2,-9.59,0.38,-1.81,0.43,0.03,0.21
12.47810399532318,3,3,3,2,-9.66,0.47,-1.76,0.38,-0.01,0.17
12.48810398578644,3,3,3,2,-9.640000000000001,0.46,-1.76,0.34,0.03,0.07000000000000001
12.49810397624969,3,3,3,2,-9.609999999999999,0.43,-1.72,0.27,0.05,-0.01
12.50810396671295,3,3,3,2,-9.6,0.45,-1.83,0.23,-0.02,0.03
12.51810395717621,3,3,3,2,-9.58,0.45,-1.77,0.2,-0.18,0.09
12.52810394763947,3,3,3,2,-9.76,0.37,-1.76,0.2,-0.12,0.12
12.53810393810272,3,3,3,3,-9.789999999999999,0.35,-1.69,0.23,-0.15,0.07000000000000001
12.54810392856598,3,3,3,3,-9.710000000000001,0.43,-1.74,0.05,-0.26,-0.04
12.55810415744781,3,3,3,3,-9.529999999999999,0.51,-1.8,0.2,-0.34,-0.04
12.56810414791107,3,3,3,3,-9.59,0.27,-1.75,0.5,-0.12,0.02
12.57810413837433,3,3,3,3,-9.609999999999999,0.39,-1.69,0.57,-0.08,0.06
12.58810412883759,3,3,3,3,-9.58,0.38,-1.7,0.77,-0.23,0.16
12.59810411930084,3,3,3,3,-9.699999999999999,0.35,-1.77,0.84,-0.05,0.23
12.6081041097641,3,3,3,3,-9.84,0.44,-1.99,0.76,-0.01,0.3
12.61810410022736,3,3,3,3,-9.779999999999999,0.49,-1.99,0.59,-0.06,0.32
12.62810409069061,3,3,3,3,-9.720000000000001,0.63,-1.84,0.46,-0.02,0.24
12.63810408115387,3,3,3,3,-9.58,0.64,-1.74,0.15,-0.02,0.09
12.64810407161713,3,3,3,3,-9.59,0.51,-1.77,-0.17,-0.05,0.09
12.65810406208038,3,3,3,3,-9.720000000000001,0.55,-1.72,-0.47,-0.08,0.11
12.66810405254364,3,3,3,3,-9.76,0.5600000000000001,-1.68,-0.74,-0.23,0.06
12.6781040430069,3,3,3,3,-9.81,0.49,-1.68,-0.9399999999999999,-0.27,0.04
12.68810403347015,3,3,3,3,-9.68,0.24,-1.61,-1.09,-0.28,0.08
12.69810402393341,3,3,3,3,-9.619999999999999,0.17,-1.67,-1.24,-0.47,0.03
12.70810401439667,3,3,3,3,-9.66,0.19,-1.67,-1.18,-0.53,-0.02
12.71810400485992,3,3,3,3,-9.75,0.16,-1.7,-1.12,-0.48,-0.05
12.72810399532318,3,3,3,3,-9.720000000000001,0.23,-1.62,-1.02,-0.47,-0.1
12.73810398578644,3,3,3,3,-9.68,0.36,-1.48,-0.95,-0.43,-0.11
12.74810397624969,3,3,3,3,-9.619999999999999,0.33,-1.71,-0.88,-0.24,-0.1
12.75810396671295,3,3,3,3,-9.619999999999999,0.37,-1.69,-0.75,-0.14,-0.12
12.76810395717621,3,3,3,3,-9.6,0.31,-1.78,-0.54,-0.08,-0.05
12.77810394763947,3,3,3,3,-9.56,0.32,-1.66,-0.53,-0.18,0
12.78810393810272,3,3,3,3,-9.6,0.37,-1.51,-0.26,-0.06,0.05
12.79810392856598,3,3,3,3,-9.52,0.41,-1.6,-0.18,-0.11,0.11
12.80810415744781,3,3,3,3,-9.630000000000001,0.49,-1.53,0.02,-0.12,0.17
12.81810414791107,3,3,3,3,-9.619999999999999,0.51,-1.5,0.02,-0.12,0.18
12.82810413837433,3,3,3,3,-9.69,0.52,-1.5,-0.08,-0.22,0.16
12.83810412883759,3,3,3,3,-9.68,0.53,-1.52,-0.2,-0.26,0.06
12.84810411930084,3,3,3,3,-9.67,0.47,-1.59,-0.37,-0.35,0.02
12.8581041097641,3,3,3,3,-9.630000000000001,0.39,-1.6,-0.47,-0.24,-0.06
12.86810410022736,3,3,3,3,-9.550000000000001,0.3,-1.6,-0.43,-0.14,-0.09
12.87810409069061,3,3,3,3,-9.56,0.08,-1.53,-0.44,-0.28,-0.03
12.88810408115387,3,3,3,3,-9.65,0.14,-1.57,-0.29,-0.38,0.03
12.89810407161713,3,3,3,3,-9.77,0.35,-1.61,-0.27,-0.6,0.07000000000000001
12.90810406208038,3,3,3,3,-9.94,0.58,-1.58,-0.02,-0.63,0.1
12.91810405254364,3,3,3,3,-9.84,0.5600000000000001,-1.81,-0.18,-0.55,0.11
12.9281040430069,3,3,3,3,-9.699999999999999,0.78,-1.71,-0.08,-0.35,0.19
12.93810403347015,3,3,3,3,-9.52,0.9,-1.68,-0.04,-0.39,0.28
12.94810402393341,3,3,3,3,-9.48,0.88,-1.79,-0.17,-0.35,0.35
12.95810401439667,3,3,3,3,-9.550000000000001,0.7,-1.87,-0.24,-0.31,0.42
12.96810400485992,3,3,3,3,-9.6,0.61,-1.81,-0.4,-0.45,0.38
12.97810399532318,3,3,3,3,-9.67,0.61,-1.61,-0.44,-0.44,0.37
12.98810398578644,3,3,3,3,-9.68,0.59,-1.62,-0.54,-0.51,0.42
12.99810397624969,3,3,3,3,-9.76,0.58,-1.73,-0.61,-0.52,0.45
13.00810396671295,3,3,3,3,-9.83,0.61,-1.7,-0.67,-0.5,0.49
13.01810395717621,3,3,3,3,-9.82,0.48,-1.61,-0.6899999999999999,-0.49,0.53
13.02810394763947,3,3,3,3,-9.73,0.4,-1.64,-0.6899999999999999,-0.44,0.53
13.03810393810272,3,3,3,3,-9.58,0.25,-1.61,-0.6,-0.44,0.5600000000000001
13.04810392856598,3,3,3,3,-9.49,0.22,-1.59,-0.47,-0.65,0.68
13.05810415744781,3,3,3,3,-9.51,0.08,-1.72,-0.12,-0.6899999999999999,0.78
13.06810414791107,3,3,3,3,-9.710000000000001,0.05,-1.61,0.17,-0.54,0.79
13.07810413837433,3,3,3,3,-9.74,0.15,-1.69,0.42,-0.51,0.8
13.08810412883759,3,3,3,3,-9.800000000000001,0.23,-1.66,0.61,-0.5,0.74
13.09810411930084,3,3,3,3,-9.77,0.42,-1.68,0.66,-0.54,0.6899999999999999
13.1081041097641,3,3,3,3,-9.56,0.45,-1.65,0.64,-0.5600000000000001,0.6
13.11810410022736,3,3,3,3,-9.42,0.35,-1.65,0.7,-0.52,0.6
13.12810409069061,3,3,3,3,-9.43,0.21,-1.53,0.77,-0.65,0.83
13.13810408115387,3,3,3,3,-9.58,0.16,-1.43,0.83,-0.8,0.95
13.14810407161713,3,3,3,3,-9.84,0.28,-1.45,0.71,-0.95,0.8100000000000001
13.15810406208038,3,3,3,3,-9.76,0.36,-1.65,0.46,-1.06,0.55
13.16810405254364,3,3,3,3,-9.9,0.33,-1.89,0.8100000000000001,-0.9,0.6
13.1781040430069,3,3,3,3,-9.85,0.39,-1.75,0.49,-0.99,0.53
13.18810403347015,3,3,3,3,-9.56,0.37,-2.04,0.77,-1.13,0.71
13.19810402393341,3,3,3,3,-9.609999999999999,0.28,-1.98,0.66,-0.99,0.71
13.20810401439667,3,3,3,3,-9.65,0.42,-1.82,0.6,-1.05,0.74
13.21810400485992,3,3,3,3,-9.59,0.33,-1.75,0.46,-1.07,0.79
13.22810399532318,3,3,3,3,-9.69,0.3,-1.63,0.26,-0.97,0.87
13.23810398578644,3,3,3,3,-9.710000000000001,0.18,-1.64,0.25,-0.84,0.95
13.24810397624969,3,3,3,3,-9.77,0.09,-1.68,0.11,-0.83,1.02
13.25810396671295,3,3,3,3,-9.82,0.05,-1.82,0.05,-0.76,1.07
13.26810395717621,3,3,3,3,-9.890000000000001,0.08,-1.82,0.06,-0.74,1.06
13.27810394763947,3,3,3,3,-9.92,0.15,-1.73,-0.09,-0.82,0.93
13.28810393810272,3,3,3,3,-9.880000000000001,0.31,-1.52,-0.39,-1.02,0.75
13.29810392856598,3,3,3,3,-9.789999999999999,0.33,-1.5,-0.43,-0.91,0.66
13.30810415744781,3,3,3,3,-9.69,0.49,-1.22,-0.57,-0.92,0.63
13.31910407543182,3,3,3,3,-9.68,0.48,-1.06,-0.77,-1,0.6899999999999999
13.32910406589508,3,3,3,3,-9.68,0.5,-1,-0.86,-1.1,0.89
13.33910405635834,3,3,3,3,-9.640000000000001,0.36,-0.91,-0.96,-1.24,1.02
13.34910404682159,3,3,3,3,-9.48,0.12,-0.86,-1,-1.35,1.1
13.35910403728485,3,3,3,3,-9.43,0.03,-0.85,-0.92,-1.43,1.18
13.36910402774811,3,3,3,3,-9.529999999999999,-0.11,-0.71,-0.68,-1.46,1.39
13.37910401821136,3,3,3,3,-9.640000000000001,-0.48,-0.28,-0.46,-1.49,1.63
13.38910400867462,3,3,3,3,-9.65,-0.63,-0.13,-0.28,-1.34,1.93
13.39910399913788,3,3,3,3,-9.640000000000001,-0.85,-0.04,-0.06,-0.95,2.24
13.40910398960114,3,3,3,3,-9.65,-1.07,-0.1,0,-0.58,2.49
13.41910398006439,3,3,3,3,-9.710000000000001,-1.63,0.12,0.03,-0.44,2.57
13.42910397052765,3,3,3,3,-9.74,-2.13,0.27,0.13,-0.68,2.56
13.43910396099091,3,3,3,3,-9.75,-2.41,0.55,0.23,-0.99,2.35
13.44910395145416,3,3,3,3,-9.77,-2.63,0.64,0,-1.45,2
13.45910394191742,3,3,3,3,-10.44,-3.3,0.49,-0.07000000000000001,-1.79,1.65
13.46910393238068,3,3,3,3,-10.81,-3.36,0.4,0.55,-1.94,1.27
13.47910392284393,3,3,3,3,-10.89,-3.36,0.18,1.54,-2.29,0.6
13.48910415172577,3,3,3,3,-10.81,-3.41,-0.23,2.38,-2.89,-0.53
13.49910414218903,3,3,3,3,-10.76,-2.71,-0.76,3.38,-3.49,-2.11
13.50910413265228,3,3,3,3,-10.74,-2.03,-0.87,3.96,-4.32,-3.96
13.51910412311554,3,3,3,3,-10.63,-1.38,-0.89,3.71,-5.2,-5.52
13.54910409450531,3,3,3,3,-10.34,0.12,-0.57,1.5,-7.6,-4.45
13.55910408496857,3,3,3,3,-10.08,0.23,-0.6899999999999999,0.18,-7.59,-3.49
13.56910407543182,3,3,3,3,-9.9,0.42,-0.82,-0.99,-6.82,-2.81
13.57910406589508,3,3,3,3,-9.92,0.79,-1.95,-1.21,-5.8,-2.43
13.58910405635834,3,3,3,3,-10.39,1.28,-1.73,0,-4.98,-2.2
13.59910404682159,3,3,3,3,-10.86,1.59,-1.49,0.28,-4.52,-2.42
13.60910403728485,3,3,3,3,-11.13,1.4,-1.05,-0.06,-4.45,-2.03
13.63910400867462,3,3,3,3,-9.58,-1.42,-1.37,0.44,-1.17,-1.23
13.64910399913788,3,3,3,3,-9.359999999999999,-1.67,-1.71,2,0.06,-1.49
13.65910398960114,3,3,3,3,-9.449999999999999,-1.91,-1.73,3.5,0.19,-1.7
13.66910398006439,3,3,3,3,-9.75,-1.63,-1.37,5.15,-0.41,-2.25
13.67910397052765,3,3,3,3,-10,-1.11,-1.21,6.22,-1.14,-3.22
13.68910396099091,3,3,3,3,-10.08,-0.51,-1.02,6.9,-1.79,-3.71
13.69910395145416,3,3,3,3,-10.09,0.66,-0.66,6,-0.79,-3.4
13.70910394191742,3,3,3,3,-10.15,0.78,-0.51,5.06,-0.24,-3.01
13.71910393238068,3,3,3,3,-10.24,0.86,-0.42,4.88,0.34,-3.19
13.72910392284393,3,3,3,3,-10.44,1.6,-1.17,4.88,0.34,-3.19
13.73910415172577,3,3,3,3,-10.37,1.65,-0.9399999999999999,5.78,0.47,-3.78
13.74910414218903,3,3,3,3,-9.970000000000001,1.08,-1.15,6.06,1.09,-6.29
13.75910413265228,3,3,3,3,-9.94,0.09,-1.63,6.65,1.66,-7.14
13.76910412311554,3,3,3,3,-10.13,-0.8100000000000001,-1.34,7.13,1.15,-7.58
13.7791041135788,3,3,3,3,-10.09,-1.1,-1.28,7.13,1.15,-7.58
13.78910410404205,3,3,3,3,-10.08,-0.92,-1.16,7.64,0.53,-7.95
13.79910409450531,3,3,3,3,-10.12,-0.63,-0.98,8.279999999999999,-0.14,-8.630000000000001
13.80910408496857,3,3,3,3,-10.16,-0.04,-0.65,8.41,-0.03,-9.09
13.81910407543182,3,3,3,3,-10.13,0.15,-0.48,8.48,0.33,-9.52
13.82910406589508,3,3,3,3,-10.14,0.33,-0.35,8.48,0.33,-9.52
13.83910405635834,3,3,3,2,-10.15,0.34,-0.34,8.06,0.65,-9.98
13.84910404682159,3,3,3,2,-10.07,0.39,-0.24,6.2,0.18,-10.74
13.87910401821136,3,3,3,2,-9.800000000000001,-0.33,-0.14,4.02,-0.04,-11.46
13.88910400867462,3,3,3,2,-9.5,-1.03,-0.07000000000000001,3.63,0.27,-12
13.89910399913788,3,3,3,2,-9.24,-1.41,-0.05,3.66,0.39,-12.37
13.90910398960114,3,3,3,2,-8.949999999999999,-1.9,-0.16,4.02,0.97,-12.47
13.91910398006439,3,3,3,2,-9.07,-2.46,-0.43,4.8,0.29,-12.66
13.92910397052765,3,3,3,2,-9.289999999999999,-2.75,-0.64,4.8,0.29,-12.66
13.93910396099091,3,3,3,2,-9.17,-2.91,-0.4,5.5,-1.37,-12.7
13.94910395145416,3,3,3,2,-9.1,-2.65,-0.15,7.4,-1.33,-12.42
13.95910394191742,3,3,3,2,-9.02,-2.54,-0.09,8.550000000000001,-0.71,-11.94
13.96910393238068,3,3,3,2,-8.880000000000001,-2.23,-0.09,9.44,0.1,-11.69
13.97910392284393,3,3,3,2,-9.09,-1.89,-0.06,9.44,0.1,-11.69
13.99910414218903,3,3,3,2,-8.619999999999999,-1.96,0.23,10.08,0.45,-11.44
14.00910413265228,3,3,3,2,-8.4,-2.3,0.72,9.33,0.93,-11.13
14.01910412311554,3,3,3,2,-8.24,-2.52,0.55,8.859999999999999,1.56,-10.79
14.0291041135788,3,3,3,2,-8.32,-2.73,0.19,8.859999999999999,1.56,-10.79
14.03910410404205,3,3,3,2,-8.49,-2.82,-0.01,8.58,1.46,-10.49
14.04910409450531,3,3,3,2,-8.35,-2.63,0.3,7.09,-0.87,-9.23
14.05910408496857,3,3,3,2,-8.1,-2.52,0.09,5.19,-0.82,-8.460000000000001
14.06910407543182,3,3,3,2,-8.1,-2.34,0.61,2.98,-1.3,-7.94
14.07910406589508,3,3,3,2,-8.25,-2.04,1.43,2.98,-1.3,-7.94
14.08910405635834,3,3,3,2,-7.98,-2.44,1.78,1.76,-1.93,-7.49
14.09910404682159,3,3,3,2,-8.09,-3.14,1.35,1.53,-0.86,-6.54
14.10910403728485,3,3,3,2,-8.539999999999999,-3.59,1.27,0.25,-2.36,-6.55
14.11910402774811,3,3,3,2,-8.85,-3.94,2.63,-0.66,-4.64,-5.92
14.12910401821136,3,3,3,2,-8.359999999999999,-3.67,3.09,-0.66,-4.64,-5.92
14.13910400867462,3,3,3,2,-7.95,-3.54,2.9,-0.18,-4.91,-5.13
14.14910399913788,3,3,3,2,-8.029999999999999,-3.67,2.77,-1.04,-0.85,-4.69
14.15910398960114,3,3,3,2,-7.38,-4.7,1.52,-1.24,0.8100000000000001,-4.15
14.16910398006439,3,3,3,2,-7.64,-4.69,1.67,-1.12,1.42,-2.53
14.17910397052765,3,3,3,2,-7.65,-5.12,1.45,-1.12,1.42,-2.53
14.18910396099091,3,3,3,2,-7.67,-5.51,1.21,-1.69,1.06,-1.44
14.19910395145416,3,3,3,2,-7.58,-5.33,0.98,-0.06,1.99,1.19
14.20910394191742,3,3,3,2,-7.55,-5.01,0.86,1.06,2.67,2.87
14.21910393238068,3,3,3,2,-7.43,-4.31,0.7,2.16,3.31,4.55
14.22910392284393,3,3,3,2,-7.39,-3.68,0.15,2.16,3.31,4.55
14.23910415172577,3,3,3,2,-7.71,-2.98,-1.19,3.87,3.9,6.01
14.24910414218903,3,3,3,2,-8.609999999999999,-2.39,-1.73,3.23,4.98,5.95
14.25910413265228,3,3,3,2,-10.21,-0.88,-1.74,-0.31,1.17,6.18
14.26910412311554,3,3,3,2,-11.49,0.57,-1.1,-0.79,-1.2,6.44
14.28010404109955,3,3,3,2,-11.53,-2.31,1.24,-0.79,-1.2,6.44
14.28910410404205,3,3,3,2,-11.87,-6.33,3.71,1,2.29,5.87
14.29910409450531,3,3,3,2,-12.24,-9.890000000000001,4.3,5.09,0.64,6.7
14.30910408496857,3,3,3,2,-12.56,-11.86,3.61,5.43,-2.39,7.01
14.31910407543182,3,3,3,2,-13.51,-10.96,2.85,4.16,-4.26,6
14.32910406589508,3,3,3,2,-13.73,-8.890000000000001,2.96,4.16,-4.26,6
14.33910405635834,3,3,3,2,-13.85,-5.25,3.2,3.97,-4.74,4.75
14.35010397434235,3,3,3,2,-12.72,-1.01,2.22,7.48,4.28,4.62
14.3601039648056,3,3,3,2,-9.550000000000001,4.08,-0.85,5.13,8.48,5.13
14.37010395526886,3,3,3,2,-8.130000000000001,4.22,-3.27,3.63,11.35,6.14
14.38010394573212,3,3,3,2,-7.52,3.74,-4.47,3.63,11.35,6.14
14.39010393619537,3,3,3,2,-7.38,2.55,-4.88,1.67,11.08,7.63
14.40010392665863,3,3,3,2,-6.68,-1.87,-5.07,0.92,5.74,8.859999999999999
14.41010415554047,3,3,3,2,-7.24,-2.97,-4.48,3.85,5.46,8.91
14.42010414600372,3,3,3,2,-8.640000000000001,-2.15,-2.96,4.36,4.46,9.130000000000001
14.43010413646698,3,3,3,1,-10.75,0.32,-2.32,4.36,4.46,9.130000000000001
14.44010412693024,3,3,3,1,-10.92,1.69,-1.73,4.37,4.57,8.98
14.45010411739349,3,3,3,1,-10.75,1.41,-0.67,3.49,7.85,9.44
14.46010410785675,3,3,3,1,-10.82,-0.08,-0.79,3.98,9.5,9.460000000000001
14.47010409832001,3,3,3,1,-10.83,-0.15,0.4,3.15,10.32,9.539999999999999
14.48010408878326,3,3,3,1,-10.2,-0.31,0.28,3.15,10.32,9.539999999999999
14.49010407924652,3,3,3,1,-9.300000000000001,0.01,-0.29,2.2,9.109999999999999,9.07
14.50010406970978,3,3,3,1,-8.890000000000001,-0.23,-1.25,1.78,9,8.09
14.51010406017303,3,3,3,1,-8.83,0.05,-2.21,1.82,8.81,8.66
14.52010405063629,3,3,3,1,-8.9,-0.83,-2.72,1.73,8.51,8.85
14.53010404109955,3,3,3,1,-8.92,-1.27,-2.81,1.73,8.51,8.85
14.54010403156281,3,3,3,1,-9.140000000000001,-1.4,-2.54,2.34,8.92,8.76
14.55010402202606,3,3,3,1,-9.27,-0.54,-2.19,1.47,8.48,8.529999999999999
14.56010401248932,3,3,3,1,-9.31,0.19,-2.5,0.55,8.859999999999999,8.289999999999999
14.57010400295258,3,3,3,1,-9.529999999999999,0.26,-2.31,-0.68,9.08,8.029999999999999
14.58010399341583,3,3,3,0,-9.880000000000001,0.28,-2.06,-0.68,9.08,8.029999999999999
14.59010398387909,3,3,3,0,-10.05,-1,-1.54,-1.85,8.529999999999999,8.210000000000001
14.60010397434235,3,3,3,0,-9.94,-1.24,-1.5,-2.82,8.33,8.460000000000001
14.6101039648056,3,3,3,0,-9.65,-1.38,-1.85,-3.13,7.96,8.300000000000001
14.62010395526886,3,3,3,0,-9.199999999999999,-1.2,-1.95,-3.92,7.79,8.17
14.63010394573212,3,3,3,0,-9.109999999999999,-1.29,-2.3,-3.92,7.79,8.17
14.64010393619537,3,3,3,0,-9.300000000000001,-1.18,-2.61,-4.66,7.64,7.93
14.65010392665863,3,3,3,0,-9.359999999999999,-1.19,-2.54,-6.53,7.08,7.41
14.66010415554047,3,3,3,0,-9.609999999999999,-1.77,-2.32,-7.62,6.77,7.09
14.67010414600372,3,3,3,0,-9.720000000000001,-1.91,-2.19,-8.289999999999999,6.69,6.85
14.68010413646698,3,3,3,0,-9.720000000000001,-1.91,-2.19,-8.289999999999999,6.69,6.85
14.69010412693024,3,3,3,0,-9.470000000000001,-2.07,-2.31,-9.130000000000001,6.33,6.74
14.70010411739349,3,3,3,0,-9.19,-2,-2.37,-8.49,5.97,6.44
14.71010410785675,3,3,3,0,-9.19,-1.51,-2.5,-8.119999999999999,5.56,6.5
14.72010409832001,3,3,3,0,-9.300000000000001,-0.92,-2.74,-7.81,5.31,6.56
14.73010408878326,3,3,3,0,-9.300000000000001,-0.92,-2.74,-7.81,5.31,6.56
14.74010407924652,3,3,3,0,-9.32,-0.13,-2.55,-7.57,5.19,6.6
14.75010406970978,3,3,3,0,-9.140000000000001,0.25,-2.9,-8.23,5.26,6.94
14.76010406017303,3,3,3,0,-9.119999999999999,0.29,-2.74,-8.23,5.37,7.3
14.77010405063629,3,3,3,0,-9.050000000000001,-0.43,-2.75,-8.470000000000001,5.16,7.85
14.78010404109955,3,3,3,0,-9.050000000000001,-0.43,-2.75,-8.470000000000001,5.16,7.85
14.79010403156281,3,3,3,0,-9.01,-0.38,-2.64,-8.02,5.2,8.199999999999999
14.80010402202606,3,3,3,0,-8.93,-0.61,-2.73,-7.22,5.3,9.07
14.81010401248932,3,3,3,0,-8.949999999999999,-0.33,-2.8,-7.03,5.35,9.390000000000001
14.82010400295258,3,3,3,0,-9.029999999999999,0.12,-2.61,-6.74,5.41,9.6
14.83010399341583,3,3,3,0,-9.029999999999999,0.12,-2.61,-6.9,5.25,9.65
14.84010398387909,3,3,3,0,-9.050000000000001,0.42,-2.55,-6.9,5.25,9.65
14.85010397434235,3,3,3,0,-9.09,0.84,-2.66,-8.32,4.72,9.92
14.8601039648056,3,3,3,0,-9.07,1.14,-2.7,-9.31,4.24,10.1
14.87010395526886,3,3,3,0,-8.91,1.28,-2.82,-10.59,3.92,10.19
14.88010394573212,3,3,3,0,-8.91,1.28,-2.82,-11.95,4.16,10.27
14.89010393619537,3,3,3,0,-8.859999999999999,1.24,-2.86,-12.91,4.32,10.4
14.90010392665863,3,3,3,0,-8.98,1.14,-3.32,-12.79,4.31,10.35
14.91010415554047,3,3,3,0,-9.220000000000001,1.82,-3.38,-11.71,3.96,9.81
14.92010414600372,3,3,3,0,-9.470000000000001,2.19,-3.43,-10.92,4.25,9.029999999999999
14.93010413646698,3,3,3,0,-9.470000000000001,2.19,-3.43,-9.91,3.99,8.35
14.94010412693024,3,3,3,0,-9.85,1.64,-3.07,-9.43,3.45,7.73
14.95010411739349,3,3,3,0,-9.630000000000001,1.44,-3.2,-10.14,3.14,7.64
14.96010410785675,3,3,3,0,-9.48,1.16,-2.81,-10.38,2.56,7.96
14.97010409832001,3,3,3,0,-9.58,0.7,-2.51,-10.04,2.51,8.33
14.98010408878326,3,3,3,0,-9.58,0.7,-2.51,-9.65,2.52,8.31
14.99010407924652,3,3,3,0,-9.529999999999999,0.8100000000000001,-2.72,-9.48,2.33,8.039999999999999
15.00010406970978,3,3,3,0,-9.789999999999999,0.8100000000000001,-3.29,-9.460000000000001,1.82,7.72
15.01010406017303,3,3,3,0,-10.9,0.82,-3.69,-9.109999999999999,1.42,7.49
15.02010405063629,3,3,3,0,-11.33,0.84,-3.83,-9.34,0.47,6.98
15.03010404109955,3,3,3,0,-11.38,1.39,-3.86,-9.460000000000001,0.02,6.29
15.04010403156281,3,3,3,0,-12.14,1.73,-3.76,-11.34,-0.8,5.64
15.05010402202606,3,3,3,0,-11.96,0.41,-3.81,-13.03,-1.1,5.47
15.06010401248932,3,3,3,0,-12.32,-0.32,-3.5,-13.92,-0.8100000000000001,5.63
15.07010400295258,3,3,3,0,-12.33,-2.07,-2.99,-14.21,-0.39,5.57
15.08010399341583,3,3,3,0,-12.56,-3.91,-0.85,-12.5,-1.99,5.2
15.09010398387909,3,3,3,0,-13.32,-4.62,-1.12,-11.59,-1.64,4.62
15.10010397434235,3,3,3,0,-13.02,-4.99,-1,-8.83,-2.2,3.24
15.1101039648056,3,3,3,0,-13.23,-5.29,-0.82,-6.84,-3.03,1.7
15.12010395526886,3,3,3,0,-13.93,-5.87,0.02,-4.86,-4.77,0.36
15.13010394573212,3,3,3,0,-14.21,-5.81,0.39,-2.64,-7.21,-1.31
15.14010393619537,3,3,3,0,-14.01,-5.42,0.82,-0.04,-9.890000000000001,-3.25
15.15010392665863,3,3,3,0,-13.6,-4.8,1.45,2.19,-12.08,-5.1
15.16010415554047,3,3,3,0,-12.8,-3.64,2.28,2.89,-13.09,-6.94
15.17010414600372,3,3,3,0,-12.8,-3.37,2.66,2.76,-12.74,-7.89
15.18010413646698,3,3,3,0,-12.43,-3.01,3.52,-0.66,-11.16,-8.220000000000001
15.19010412693024,3,3,3,0,-11.26,-3.19,0.65,-10.98,-9.52,-9.699999999999999
15.20010411739349,3,3,3,0,-10.99,-3.59,-4.06,-14.87,-6.94,-10.8
15.21010410785675,3,3,3,0,-11.99,-2.44,-3.4,-12.5,-6.17,-11.72
15.22010409832001,3,3,3,0,-12.66,0.02,-1.55,-6.1,-7.62,-12.67
15.23010408878326,3,3,3,0,-12.5,2.33,-0.83,-2.25,-9.119999999999999,-13.82
15.24010407924652,3,3,3,0,-12.66,4.58,-0.57,-1.6,-8.23,-13.63
15.25010406970978,3,3,3,0,-13.61,4.92,-1.28,-2.04,-5.89,-12.81
15.26010406017303,3,3,3,0,-13.46,5.98,-1.35,-2.11,-5.25,-12.1
15.27010405063629,3,3,3,0,-13.5,6.05,-1.68,-3.97,-5.1,-11.76
15.28010404109955,3,3,3,0,-12.2,6.88,-2.55,-4.78,-5.31,-12.44
15.29010403156281,3,3,3,0,-11.87,6.79,-2.96,-5.51,-4.91,-13.78
15.30010402202606,3,3,3,0,-11.78,5.6,-3.65,-5.86,-5.42,-15.99
15.31010401248932,3,3,3,0,-11.03,5.04,-3.74,-5.8,-5.8,-17.74
15.32010400295258,3,3,3,0,-10.96,3.6,-4.45,-5.54,-4.37,-19.63
15.33010399341583,3,3,3,0,-10.8,3.23,-4.34,-3.26,-4.71,-20.34
15.34010398387909,3,3,3,0,-10.12,3.34,-4.23,-0.95,-4.38,-20.27
15.35010397434235,3,3,3,0,-10.09,3.59,-4.41,2.09,-3.71,-19.93
15.3601039648056,3,3,3,0,-9.289999999999999,3.32,-3.8,5.52,-3.69,-19.08
15.37110412120819,3,3,3,0,-8.619999999999999,2.89,-3.59,8.27,-3.03,-18.69
15.38110411167145,3,3,3,0,-8.619999999999999,2.89,-3.59,10.52,-2.61,-19.51
15.3911041021347,3,3,3,0,-8.140000000000001,3.3,-3.59,11.91,-3.06,-20.96
15.40110409259796,3,3,3,0,-8.24,3.56,-2.94,12.71,-1.94,-21.56
15.41110408306122,3,3,3,0,-8.43,3.79,-3.1,13.26,-2.36,-21.79
15.42110407352448,3,3,3,0,-8.44,4.16,-3.31,13.04,-2.84,-21.69
15.43110406398773,3,3,3,0,-8.34,4.45,-3.31,12.38,-3.16,-21.38
15.44110405445099,3,3,3,0,-7.96,4.13,-2.86,13.13,-3.55,-20.83
15.45110404491425,3,3,3,0,-7.51,4.16,-2.91,15.1,-2.96,-20.24
15.4611040353775,3,3,3,0,-7.24,4.05,-3.05,14.78,-1.89,-19.85
15.47110402584076,3,3,3,0,-6.94,4.33,-2.67,14.67,-1.17,-19.51
15.48110401630402,3,3,3,0,-6.76,4.58,-2.43,14.96,-0.47,-19.12
15.49110400676727,3,3,3,0,-6.66,4.58,-2.31,14.62,0.54,-18.56
15.50110399723053,3,3,3,0,-6.5,4.47,-2.36,13.39,2.03,-17.49
15.51110398769379,3,3,3,0,-6.35,3.58,-2.47,11.48,3.91,-16.46
15.52110397815704,3,3,3,0,-6.38,2.95,-2.47,10.46,5.86,-15.8
15.5311039686203,3,3,3,0,-6.26,2.35,-2.34,10.36,7.2,-15.02
15.54110395908356,3,3,3,0,-6.07,2.02,-2.31,10.09,7.98,-13.6
15.55110394954681,3,3,3,0,-6.46,1.65,-2.29,9.66,8.529999999999999,-11.89
15.56110394001007,3,3,3,0,-6.82,1.59,-2.05,10.1,7.59,-10.75
15.57110393047333,3,3,3,0,-7.27,1.75,-2.15,10.93,5.3,-10.24
15.58110392093658,3,3,3,0,-7.64,1.99,-1.88,11.39,3.11,-10.32
15.59110414981842,3,3,3,0,-8.27,1.88,-0.48,10.57,2.17,-10.6
15.60110414028168,3,3,3,0,-8.119999999999999,1.14,-0.04,9.42,1.96,-10.2
15.61110413074493,3,3,3,0,-7.77,-0.42,-0.14,8.300000000000001,2.53,-8.5
15.62110412120819,3,3,3,0,-7.55,-1.92,-0.46,8.109999999999999,2.14,-5.53
15.63110411167145,3,3,3,0,-8.42,-3.1,-0.04,7.34,1.51,-3.84
15.6411041021347,3,3,3,0,-9.390000000000001,-3.69,0.9399999999999999,4.53,0.17,-3.49
15.65110409259796,3,3,3,0,-10.39,-4.48,2.6,3.53,-3.42,-3.79
15.66110408306122,3,3,3,0,-11.15,-5.81,4.31,4.88,-7.28,-5.14
15.67110407352448,3,3,3,0,-11.97,-11.97,5.33,6.24,-7.68,-7.28
15.68110406398773,3,3,3,0,-12.44,-16.65,4.54,5.78,-4.3,-9.779999999999999
15.69110405445099,3,3,3,0,-12.53,-19.02,2.9,4.32,-1.02,-10.89
15.70110404491425,3,3,3,0,-12.1,-15.58,1.8,3.12,-1.12,-10.74
15.7111040353775,3,3,3,0,-8.59,-0.34,0,1.91,-2.69,-10.17
15.72110402584076,3,3,3,0,-6.88,4.14,-0.45,3.36,0.33,-9.35
15.73110401630402,3,3,3,0,-5.83,4.95,-0.98,5.99,6.33,-6.41
15.74110400676727,3,3,3,0,-5.55,0.53,-4.47,9.890000000000001,12.17,-3.01
15.75110399723053,3,3,3,0,-6.26,-1.78,-6.54,14.21,16.42,-2.08
15.76110398769379,3,3,3,0,-9.15,-0.49,-4.1,13.38,14.85,-0.74
15.77110397815704,3,3,3,0,-12.31,-3.72,0.13,6.34,-7.67,6.59
15.7811039686203,3,3,3,0,-16.11,-18.22,13.54,6.95,-29.26,12.22
15.79110395908356,3,3,3,0,-21.99,-29.11,9.01,7.28,-25.56,11.28
15.80110394954681,3,3,3,0,-26.6,-27.03,5.35,9.99,-15.33,8.859999999999999
15.81110394001007,3,3,3,0,-20.19,-8.369999999999999,3.94,11.2,-4.51,11.41
15.82110393047333,3,3,3,0,-6.8,14.15,1.49,16.48,0.36,6.98
15.83110392093658,3,3,3,0,-4.46,17.93,-3.87,16.7,12.39,-2.68
15.84110414981842,3,3,3,0,-5.54,18.96,-10.55,15.86,23.75,-2.8
15.85110414028168,3,3,3,0,-5.11,15.24,-11.26,3.29,19.43,3.52
15.86110413074493,3,3,3,0,-5.23,4.63,-10.85,-8.380000000000001,15.26,9.960000000000001
15.87110412120819,3,3,3,0,-5.42,0.07000000000000001,-8.01,-8.33,8.550000000000001,12.47
15.88110411167145,3,3,3,0,-6.94,-4.59,-8.33,-7.09,1.2,13.99
15.8911041021347,3,3,3,0,-8.289999999999999,-7.22,-7.05,2,0.76,13.61
15.90110409259796,3,3,3,0,-14.21,-1.38,-1.44,10.13,5.63,10.76
15.91110408306122,3,3,3,0,-14.76,3.98,-1.27,12.56,6.25,8.390000000000001
15.92110407352448,3,3,3,0,-13.66,5.06,-0.4,9.789999999999999,6.24,10.75
15.93110406398773,3,3,3,0,-12.84,4.36,0.1,5.96,8.73,14.69
15.94110405445099,3,3,3,0,-12.81,3.96,-0.83,3.3,11.25,15.7
15.95110404491425,3,3,3,0,-11.78,5.86,-1.61,4.24,12.39,12.84
15.9611040353775,3,3,3,0,-9.699999999999999,7.45,-1.88,3.36,11.98,9.41
15.97110402584076,3,3,3,0,-7.83,6.53,-2.99,-0.17,11.13,8.789999999999999
15.98110401630402,3,3,3,0,-8.109999999999999,1.94,-4.57,-2.84,10.38,10.53
15.99110400676727,3,3,3,0,-8.890000000000001,0.29,-4.94,-4.39,9.970000000000001,12.12
16.00110399723053,3,3,3,0,-9.66,-0.29,-4.6,-4.14,10.35,12.89
16.01110398769379,3,3,3,0,-10.03,-0.44,-3.73,-3.94,11.04,12.4
16.02110397815704,3,3,3,0,-9.550000000000001,-0.01,-2.33,-4.1,11.01,11.29
16.0311039686203,3,3,3,0,-9.43,-0.31,-1.78,-4.02,11.6,10.39
16.04110395908356,3,3,3,0,-9.43,-1.1,-1.35,-4.37,11.79,10.56
16.05110394954681,3,3,3,0,-9.369999999999999,-1.99,-1.25,-4.05,11.05,11.36
16.06110394001007,3,3,3,0,-8.99,-1.82,-1.56,-3.59,10.44,12
16.07110393047333,3,3,3,0,-8.779999999999999,-1.72,-1.5,-3.6,10.8,12.66
16.08110392093658,3,3,3,0,-8.94,-2.44,-1.84,-5.22,11.28,12.42
16.09110414981842,3,3,3,0,-9.949999999999999,-3.46,-1.49,-6.16,11.09,11.56
16.10110414028168,3,3,3,0,-9.85,-4.45,-1.54,-7.08,10.26,10.53
16.11110413074493,3,3,3,0,-9.75,-5.55,-1.61,-7.87,9.640000000000001,9.4
16.12110412120819,3,3,3,0,-9.93,-6.05,-1.23,-7.9,8.720000000000001,8.01
16.13110411167145,3,3,3,0,-9.68,-5.67,-1.02,-7.48,7.44,6.68
16.1411041021347,3,3,3,0,-9.300000000000001,-4.83,-1.36,-6.19,6.74,6.26
16.15110409259796,3,3,3,0,-9,-3.38,-1.49,-4.99,6.01,6.53
16.16110408306122,3,3,3,0,-8.92,-2.02,-1.8,-4.56,5.8,6.97
16.17110407352448,3,3,3,0,-9.35,0.48,-2.53,-4.64,5.82,7.49
16.18110406398773,3,3,3,0,-9.48,1.29,-2.79,-5.85,5.26,8
16.19110405445099,3,3,3,0,-9.35,1.7,-2.84,-7.86,4.88,8.390000000000001
16.20110404491425,3,3,3,0,-9.02,1.74,-3.2,-10.38,4.81,8.720000000000001
16.2111040353775,3,3,3,0,-8.33,1.1,-3.39,-12.38,4.75,9.07
16.22110402584076,3,3,3,0,-8.32,0.73,-3.42,-13.71,4.8,9.57
16.23110401630402,3,3,3,0,-8.550000000000001,0.45,-3.37,-14.3,5.17,10.16
16.24110400676727,3,3,3,0,-8.83,0.1,-3.14,-14.66,5.81,10.99
16.25110399723053,3,3,3,0,-9.34,-0.21,-3.29,-14.7,6.79,11.86
16.26110398769379,3,3,3,0,-9.460000000000001,0.39,-2.91,-14.42,7.56,12.48
16.27110397815704,3,3,3,0,-9.25,0.78,-2.79,-14.93,7.4,12.77
16.2811039686203,3,3,3,1,-9.109999999999999,1.13,-2.95,-14.56,7.43,12.6
16.29110395908356,3,3,3,1,-9.83,2.14,-3.7,-12.9,8.039999999999999,11.61
16.30110394954681,3,3,3,1,-10.49,2.69,-3.32,-10.23,7.02,9.6
16.31110394001007,3,3,3,1,-10.75,2.28,-3.01,-9.359999999999999,4.71,6.98
16.32110393047333,3,3,3,1,-10.27,1.65,-2.75,-9.16,3.83,5.75
16.33110392093658,3,3,3,1,-9.199999999999999,1.44,-2.65,-10.32,3.64,6.32
16.34110414981842,3,3,3,1,-9.02,1.15,-2.46,-11.48,2.84,7.39
16.35110414028168,3,3,3,1,-9.43,0.64,-2.6,-12.38,2.82,7.94
16.36110413074493,3,3,3,1,-9.529999999999999,-0.4,-2.61,-12.97,2.59,7.88
16.37110412120819,3,3,3,1,-9.449999999999999,-0.48,-2.73,-12.72,2.5,7.79
16.38110411167145,3,3,3,1,-9.34,-0.37,-2.76,-12,2.52,8.07
16.3911041021347,3,3,3,1,-9.32,0.02,-2.99,-11.22,2.69,8.33
16.40210402011871,3,3,3,1,-9.42,0.11,-3.32,-10.8,2.61,8.33
16.41210401058197,3,3,3,1,-9.51,0.18,-3.49,-10.37,2.28,8.1
16.42210400104523,3,3,3,1,-9.83,0.34,-3.57,-9.859999999999999,2.15,7.51
16.43210399150848,3,3,3,1,-10.27,0.62,-3.58,-9.56,1.98,6.78
16.44210398197174,3,3,3,1,-11.28,1.46,-3.13,-9.710000000000001,1.05,6.28
16.452103972435,3,3,3,1,-11.42,1.32,-3.27,-11.61,0.15,5.58
16.46210396289825,3,3,3,1,-11.33,1.28,-3.43,-13.24,-0.71,5.35
16.47210395336151,3,3,3,1,-10.97,0.29,-3.5,-15.97,-0.53,5.25
16.48210394382477,3,3,3,2,-12.36,-3.02,-2.37,-16.37,0.77,5.4
16.49210393428802,3,3,3,2,-12.95,-4.03,-1.81,-14.32,-0.1,5.28
16.50210392475128,3,3,3,2,-12.77,-4.65,-1.5,-12.11,-1.37,4.64
16.51210415363312,3,3,3,2,-12.8,-5.4,-1.11,-9.949999999999999,-2.65,3.24
16.52210414409637,3,3,3,2,-13.09,-6.31,0.41,-7.4,-4.15,1.6
16.53210413455963,3,3,3,2,-13.87,-6.6,0.99,-5.35,-6.46,-0.4
16.54210412502289,3,3,3,2,-14.37,-6.61,1.44,-3.16,-9.380000000000001,-3.15
16.55210411548615,3,3,3,2,-14.38,-6.22,1.98,-0.91,-11.88,-5.85
16.5621041059494,3,3,3,2,-14.13,-4.96,3.11,-0.27,-13.19,-7.85
16.57210409641266,3,3,3,2,-13.53,-4.71,2.97,-1.14,-13.33,-9.109999999999999
16.58210408687592,3,3,3,2,-13.38,-4.85,3.43,-3.7,-11.45,-10.09
16.59210407733917,3,3,3,2,-13.06,-4.58,3.6,-12.29,-10.48,-11.2
16.60210406780243,3,3,3,2,-12.14,-3.82,-4.62,-15,-7.44,-12.57
16.61210405826569,3,3,3,2,-12.66,-2.53,-4.53,-11.3,-4.92,-13.33
16.62210404872894,3,3,3,2,-13.3,-0.23,-3.08,-5.62,-6.57,-14.35
16.6321040391922,3,3,3,2,-13.19,2.45,-2.41,-2.55,-7.63,-14.55
16.64210402965546,3,3,3,2,-13.89,4.74,-1.36,-2.08,-5.46,-14.6
16.65210402011871,3,3,3,2,-15.11,4.64,-1.84,-2.38,-3.79,-14.93
16.66210401058197,3,3,3,2,-15.8,5.62,-1.36,-2.2,-3.63,-15.21
16.67210400104523,3,3,3,2,-15.94,6.64,-1.39,-4.19,-3.99,-15.11
16.68210399150848,3,3,3,2,-14.73,7.47,-1.62,-4.64,-5.76,-14.92
16.69210398197174,3,3,3,2,-14.01,8.09,-1.8,-4.96,-7.12,-15.51
16.702103972435,3,3,3,2,-13.4,7.46,-2.48,-5.49,-10.32,-17.75
16.71210396289825,3,3,3,2,-10.99,6.15,-2.58,-5.95,-8.68,-19.43
16.72210395336151,3,3,3,2,-11.22,6.36,-2.87,-4.34,-6.02,-20.72
16.73210394382477,3,3,3,2,-11.12,5.3,-3.42,-4.03,-6.79,-21.6
16.74210393428802,3,3,3,2,-10.11,5.47,-3.31,-1.53,-6.8,-21.74
16.75210392475128,3,3,3,2,-9.01,4.73,-3.48,0.71,-5.39,-21.86
16.76210415363312,3,3,3,2,-8.449999999999999,4.47,-3.73,3.02,-3.36,-22.43
16.77210414409637,3,3,3,2,-7.87,3.98,-3.31,5.53,-2.22,-23.41
16.78210413455963,3,3,3,2,-8.199999999999999,3.66,-3.21,7.55,-1.51,-23.74
16.79210412502289,3,3,3,2,-8.48,4.16,-3.04,8.779999999999999,-3.4,-23.52
16.80210411548615,3,3,3,2,-8.390000000000001,5,-3.21,9.539999999999999,-4.32,-23.19
16.8121041059494,3,3,3,2,-8.039999999999999,5.81,-3.38,9.66,-4.86,-22.95
16.82210409641266,3,3,3,2,-7.79,6.07,-3.47,9.17,-5.12,-22.82
16.83210408687592,3,3,3,2,-7.19,5.38,-2.89,10.53,-5.22,-22.54
16.84210407733917,3,3,3,2,-6.78,4.9,-3.2,10.76,-4.2,-22.17
16.85210406780243,3,3,3,2,-6.58,4.55,-3.58,9.5,-3.09,-21.6
16.86210405826569,3,3,3,2,-6.46,4.84,-3.4,9.789999999999999,-2.58,-20.89
16.87210404872894,3,3,3,2,-5.98,5.09,-2.82,10.51,-1.95,-20.34
16.8821040391922,3,3,3,1,-5.73,4.97,-2.75,10.3,-0.62,-19.61
16.89210402965546,3,3,3,1,-5.58,4.98,-2.84,9.06,0.91,-18.46
16.90210402011871,3,3,3,1,-5.45,4.87,-2.94,8.66,2.9,-17.11
16.91210401058197,3,3,3,1,-5,4.47,-3.08,8.859999999999999,5.33,-15.93
16.92210400104523,3,3,3,1,-4.76,4.09,-3.2,8.449999999999999,8.050000000000001,-14.71
16.93210399150848,3,3,3,1,-4.57,3.83,-3.51,7.06,10.04,-12.82
16.94210398197174,3,3,3,1,-4.36,3.86,-3.63,5.11,10.46,-10.8
16.952103972435,3,3,3,1,-4.36,3.54,-3.48,3.51,9.880000000000001,-9.029999999999999
16.96210396289825,3,3,3,1,-4.52,2.72,-3.49,2.58,8.74,-7.51
16.97210395336151,3,3,3,1,-5,1.59,-3.7,2.68,7.81,-6.34
16.98210394382477,3,3,3,0,-5.97,0.53,-3.25,4.63,6.89,-5.62
16.99210393428802,3,3,3,0,-8.52,-1.56,-0.35,7.23,5.73,-4.9
17.00210392475128,3,3,3,0,-9.720000000000001,-3.01,0.62,9.050000000000001,4.82,-3.85
17.01210415363312,3,3,3,0,-10.75,-4.31,1.04,10.75,3.85,-2.84
17.02210414409637,3,3,3,0,-12.01,-7.11,3.2,12.68,2.32,-2.89
17.03210413455963,3,3,3,0,-13.85,-9.65,5.46,13.46,-0.7,-3.86
17.04210412502289,3,3,3,0,-13.95,-12.82,6.79,12.74,-8,-5.18
17.05210411548615,3,3,3,0,-13.52,-17.92,6.8,8.710000000000001,-13.05,-6.39
17.0621041059494,3,3,3,0,-13.92,-23.04,3.24,5.16,-11.8,-8.67
17.07210409641266,3,3,3,0,-13.17,-14.37,1.45,5.88,-6.94,-11.04
17.09210407733917,3,3,3,0,-8.92,6.14,-0.25,8.99,2.28,-13.56
17.10210406780243,3,3,3,0,-5.02,7.06,-0.93,6.93,6.25,-11.59
17.11210405826569,3,3,3,0,-4.28,3.59,-4.36,7.47,11.4,-8.359999999999999
17.12210404872894,3,3,3,0,-4.89,0.54,-7.32,9.76,17.15,-5.92
17.1321040391922,3,3,3,0,-7.27,0.4,-6.15,5.03,10.13,0.53
17.14210402965546,3,3,3,0,-10.74,-7.09,4.93,4.05,-16.96,11.78
17.15210402011871,3,3,3,0,-11.19,-15.03,11.06,4.81,-31.8,17.04
17.16210401058197,3,3,3,0,-16.2,-24.35,9.390000000000001,8.140000000000001,-21.69,14.51
17.17210400104523,3,3,3,0,-22.73,-24.2,7.48,12.38,-12.68,9.4
17.18210399150848,3,3,3,0,-17.06,2.25,1.73,9.800000000000001,-7.93,9.869999999999999
17.19210398197174,3,3,3,0,-12.01,10.22,-0.89,13.1,0.74,7.3
17.202103972435,3,3,3,0,-9.109999999999999,14.71,-3.17,19.06,18.42,-0.25
17.21210396289825,3,3,3,0,-9.369999999999999,15.96,-4.71,19.18,23.91,-0.95
17.22210395336151,3,3,3,0,-5.89,10.75,-8.35,10.67,15.74,5.94
17.23210394382477,3,3,3,0,-4.73,5.65,-8.49,-1.43,9.77,12.54
17.24210393428802,3,3,3,0,-4.82,3.13,-7.38,-3.08,11.47,15.51
17.25210392475128,3,3,3,0,-6.06,0.05,-6.18,-2.1,7.92,16.45
17.26210415363312,3,3,3,0,-9.69,-2.52,-5.31,1.35,4.12,16.9
17.27210414409637,3,3,3,0,-10.8,-1.06,-3.09,6.75,4.96,14.9
17.28210413455963,3,3,3,0,-11.72,1.47,-3.04,6.81,7.26,11.1
17.29210412502289,3,3,3,0,-11.58,3.17,-2.97,6.69,7.7,9.91
17.30210411548615,3,3,3,0,-11.97,3.3,1.1,5.21,9.630000000000001,11.38
17.3121041059494,3,3,3,0,-12.83,2,0.28,1.42,11.15,13.23
17.32210409641266,3,3,3,0,-12.8,2.02,-1.19,0.6,12.82,13.82
17.33210408687592,3,3,3,0,-8.43,3.23,-1.66,0.4,12.34,12.24
17.34210407733917,3,3,3,0,-7.24,2.18,-2.73,-2.06,11.56,10.69
17.35210406780243,3,3,3,0,-7.52,0.64,-3.9,-3.63,12.39,10.88
17.36210405826569,3,3,3,0,-8.32,-0.5600000000000001,-4.34,-3.11,12.84,11.99
17.37210404872894,3,3,3,0,-9.039999999999999,-2.01,-3.28,-3,12.29,12.59
17.3821040391922,3,3,3,0,-9.039999999999999,-1.58,-2.84,-2.44,11.52,12.65
17.39210402965546,3,3,3,0,-8.960000000000001,-1.02,-2.56,-2.49,11.21,12.82
17.40210402011871,3,3,3,0,-8.970000000000001,-0.19,-2.22,-3.9,11.9,13.02
17.41210401058197,3,3,3,0,-9.369999999999999,-0.32,-1.75,-7.07,12.89,13.16
17.42310392856598,3,3,3,0,-9.51,-0.63,-1.39,-9.640000000000001,13.22,13.35
17.43310415744781,3,3,3,0,-9.300000000000001,-0.75,-1.3,-12.34,12.94,13.72
17.44310414791107,3,3,3,0,-9.32,-1.41,-1.32,-14.61,12.3,14.48
17.45310413837433,3,3,3,0,-9.890000000000001,-2.9,-2.35,-15.65,11.7,14.57
17.46310412883759,3,3,3,0,-9.880000000000001,-3.56,-2.26,-15.47,10.58,13.96
17.47310411930084,3,3,3,0,-9.5,-3.84,-1.78,-14.66,9.17,13.22
17.4831041097641,3,3,3,0,-9.380000000000001,-3.33,-1.29,-14.33,9.039999999999999,12.2
17.49310410022736,3,3,3,0,-10.1,-1.28,-2.42,-14.27,9.18,11.18
17.50310409069061,3,3,3,0,-10.37,-0.46,-3.07,-14.11,7.84,10.22
17.51310408115387,3,3,3,0,-10.28,0.01,-3.51,-14.24,5.63,9.06
17.52310407161713,3,3,3,0,-9.73,0.05,-3.71,-13.92,4.07,8.1
17.53310406208038,3,3,3,0,-8.960000000000001,-0.16,-3.31,-12.77,3.09,7.55
17.54310405254364,3,3,3,0,-8.6,-0.14,-3.09,-11.51,2.8,7.41
17.5531040430069,3,3,3,0,-8.529999999999999,0.2,-3,-10.57,3.44,7.62
17.56310403347015,3,3,3,0,-8.68,0.59,-2.89,-10.31,3.82,7.87
17.57310402393341,3,3,3,0,-9.220000000000001,0.97,-2.8,-10.62,4.02,8.039999999999999
17.58310401439667,3,3,3,0,-9.4,0.85,-2.95,-10.94,4.01,8.039999999999999
17.59310400485992,3,3,3,0,-9.49,0.9399999999999999,-3.11,-10.74,3.75,7.91
17.60310399532318,3,3,3,0,-9.51,1.06,-3.34,-10.14,3.33,7.88
17.61310398578644,3,3,3,0,-9.5,1.29,-3.25,-9.34,2.82,8
17.62310397624969,3,3,3,0,-9.43,1.44,-3.02,-8.35,2.53,8.130000000000001
17.63310396671295,3,3,3,0,-9.49,1.54,-2.77,-7.57,2.55,8.17
17.64310395717621,3,3,3,0,-9.609999999999999,1.75,-2.51,-7.01,2.5,8
17.65310394763947,3,3,3,0,-9.69,2.09,-2.65,-7.33,2.58,7.73
17.66310393810272,3,3,3,0,-9.779999999999999,1.88,-2.42,-8.199999999999999,2.14,7.53
17.67310392856598,3,3,3,0,-9.75,1.53,-2.4,-8.93,1.91,7.49
17.68310415744781,3,3,3,0,-9.66,0.77,-2.41,-9.550000000000001,1.8,7.37
17.69310414791107,3,3,3,0,-9.550000000000001,0.59,-2.42,-9.74,1.79,7.35
17.70310413837433,3,3,3,0,-9.449999999999999,0.27,-2.57,-10.03,1.84,7.48
17.71310412883759,3,3,3,0,-9.460000000000001,-0.15,-2.67,-10.25,1.81,7.7
17.72310411930084,3,3,3,0,-9.73,-0.77,-2.59,-9.720000000000001,1.84,7.92
17.7331041097641,3,3,3,0,-9.880000000000001,-0.96,-2.42,-8.84,1.83,8.140000000000001
17.74310410022736,3,3,3,0,-10.05,-1.25,-2.56,-8.25,1.39,8.18
17.75310409069061,3,3,3,0,-10.13,-1.18,-2.98,-7.66,0.5600000000000001,7.81
17.76310408115387,3,3,3,0,-10.28,-0.92,-2.69,-7.04,-0.52,7.14
17.77310407161713,3,3,3,0,-10.41,-0.49,-2.42,-6.23,-1.1,6.49
17.78310406208038,3,3,3,0,-10.5,-0.24,-2.47,-6,-1.02,5.8
17.79310405254364,3,3,3,0,-10.83,0.36,-2.63,-6.75,-0.96,5.38
17.8031040430069,3,3,3,0,-11.72,-0.11,-3.18,-9.81,-1.09,4.82
17.81310403347015,3,3,3,0,-12.48,-0.6899999999999999,-2.45,-11.57,-2.66,4.94
17.82310402393341,3,3,3,0,-11.84,-2.37,-1.96,-12,-2.43,4.57
17.83310401439667,3,3,3,1,-12.24,-3.45,-1.53,-10.27,-2.14,3.96
17.84310400485992,3,3,3,1,-12.36,-5.74,-0.53,-9.880000000000001,-2.47,2.58
17.85310399532318,3,3,3,1,-13.52,-6.44,0.12,-8.359999999999999,-2.4,0.99
17.86310398578644,3,3,3,1,-14.6,-6.99,0.63,-6.7,-4.73,-1.36
17.87310397624969,3,3,3,1,-15.36,-6.94,0.92,-4.79,-7.77,-4.14
17.88310396671295,3,3,3,1,-15.56,-5.56,2.26,-3.16,-11.12,-6.88
17.89310395717621,3,3,3,1,-14.62,-4.62,2.35,-2.6,-13.08,-8.24
17.90310394763947,3,3,3,1,-14.05,-4.16,2.14,-3.87,-12.26,-9.359999999999999
17.91310393810272,3,3,3,1,-13.34,-4.17,2.41,-11.22,-11.29,-11.03
17.92310392856598,3,3,3,1,-10.96,-5.18,-4.47,-14.79,-7.9,-12.24
17.93310415744781,3,3,3,1,-10.96,-5.18,-4.47,-14.79,-7.9,-12.24
17.94310414791107,3,3,3,1,-12.34,-1.15,-4.46,-3.17,-6.98,-15.19
17.95310413837433,3,3,3,1,-13.16,1.83,-3.31,1.52,-7.32,-15.4
17.96310412883759,3,3,3,1,-14.66,4.05,-2.16,1.99,-6.45,-15.43
17.97310411930084,3,3,3,1,-14.77,4.03,-2.2,1.35,-5.71,-14.34
17.9831041097641,3,3,3,1,-14.51,4.46,-2.31,1.28,-4.24,-13.3
17.99310410022736,3,3,3,1,-13.42,5.82,-1.83,1.71,-4.36,-12.42
18.00310409069061,3,3,3,1,-12.16,6.74,-1.4,1.74,-5.2,-12.74
18.01310408115387,3,3,3,1,-11.66,6.69,-1.35,1.45,-5.78,-13.8
18.02310407161713,3,3,3,1,-10.77,7.2,-1.38,0.96,-6.4,-15.07
18.03310406208038,3,3,3,1,-9.93,7.31,-1.5,-0.74,-5.6,-16.8
18.04310405254364,3,3,3,1,-11.03,6.7,-2.43,-2.18,-3.68,-17.74
18.0531040430069,3,3,3,1,-11.23,5.7,-2.74,-1.96,-6.34,-18.2
18.06310403347015,3,3,3,1,-10.77,5.97,-2.75,-2.59,-6.56,-18.9
18.07310402393341,3,3,3,1,-10.15,4.3,-3.31,-1.7,-4.39,-19.37
18.08310401439667,3,3,3,1,-8.59,4.96,-3.21,1.33,-5.56,-18.09
18.09310400485992,3,3,3,1,-7.7,5.13,-3.33,1.51,-2.51,-18.92
18.10310399532318,3,3,3,1,-7.61,4.75,-3.42,2.73,-1.33,-19.64
18.11310398578644,3,3,3,1,-7.72,3.27,-3.49,3.93,-1.41,-19.63
18.12310397624969,3,3,3,1,-8.119999999999999,3.25,-3.47,6.14,-0.88,-19.76
18.13310396671295,3,3,3,1,-8.289999999999999,3.47,-3.59,8.31,-1.34,-19.92
18.14310395717621,3,3,3,1,-8.24,3.79,-3.53,9.800000000000001,-1.97,-19.96
18.15310394763947,3,3,3,1,-8.210000000000001,3.85,-3.42,10.71,-2.81,-19.71
18.16310393810272,3,3,3,1,-8.050000000000001,3.94,-3.29,11.48,-3.29,-19.38
18.17310392856598,3,3,3,1,-7.74,4.29,-3.25,11.42,-3.58,-19.23
18.18310415744781,3,3,3,1,-7.48,4.13,-2.87,12.81,-3.55,-18.88
18.19310414791107,3,3,3,1,-6.91,4.09,-2.65,14.32,-2.77,-18.54
18.20310413837433,3,3,3,1,-6.74,4.01,-2.96,14.4,-1.28,-18.1
18.21310412883759,3,3,3,1,-6.69,4.28,-2.86,14.39,-0.21,-17.46
18.22310411930084,3,3,3,1,-6.57,4.34,-2.5,14.06,0.34,-16.74
18.2331041097641,3,3,3,1,-6.25,4.39,-2.24,13.17,1.29,-15.65
18.24310410022736,3,3,3,1,-6.12,4.53,-2.34,11.76,2.93,-14.35
18.25310409069061,3,3,3,1,-6.06,4.57,-2.56,10.39,4.96,-13.09
18.26310408115387,3,3,3,1,-5.92,4.29,-2.63,9.67,7.04,-11.92
18.27310407161713,3,3,3,1,-5.31,3.58,-2.79,8.93,8.720000000000001,-10.4
18.28310406208038,3,3,3,1,-5.12,3.25,-2.84,7.82,9.66,-8.9
18.29310405254364,3,3,3,1,-5.04,2.92,-2.82,6.65,9.49,-7.31
18.3031040430069,3,3,3,1,-6.01,2.01,-3.64,5.82,8.460000000000001,-6.07
18.32310402393341,3,3,3,1,-7.92,0.67,-2.85,6,5.33,-6.78
18.33310401439667,3,3,3,1,-8.859999999999999,0.18,-1.39,6.87,4.13,-7.96
18.34310400485992,3,3,3,1,-10.12,-2.95,1.26,6.87,4.13,-7.96
18.35310399532318,3,3,3,1,-9.869999999999999,-4.91,2.42,8.09,2.55,-8
18.36310398578644,3,3,3,1,-9.75,-6.75,3.5,9.699999999999999,2.99,-4.69
18.37310397624969,3,3,3,1,-10.54,-8.6,4.22,8.279999999999999,2.26,-3.05
18.38310396671295,3,3,3,1,-12.72,-13.54,6.57,8.539999999999999,-4.72,-1.85
18.39310395717621,3,3,3,1,-13.58,-17.84,6.8,8.539999999999999,-4.72,-1.85
18.40310394763947,3,3,3,1,-14.33,-21.71,5.19,8.710000000000001,-11.58,-3.34
18.41310393810272,3,3,3,1,-14.74,-21.24,2.52,7.28,-10.91,-7.5
18.42310392856598,3,3,3,1,-11.33,-3.16,-0.23,6.96,-6.54,-11.37
18.43310415744781,3,3,3,1,-8.33,5.78,-0.8100000000000001,10.55,0.39,-16.33
18.44410407543182,3,3,3,1,-6,8.720000000000001,-1.31,10.55,0.39,-16.33
18.45410406589508,3,3,3,1,-5.08,6.6,-2.75,10,6.01,-13.22
18.46410405635834,3,3,3,1,-5.64,-0.24,-5.7,11.41,9.630000000000001,-9.33
18.47410404682159,3,3,3,1,-9.529999999999999,1.31,-2.69,5.6,5.19,-0.99
18.48410403728485,3,3,3,1,-11.39,-0.34,2.46,1.52,-26.59,11.98
18.49410402774811,3,3,3,1,-10.51,-5.82,10.31,1.52,-26.59,11.98
18.50410401821136,3,3,3,1,-19.74,-23.76,10.32,0.95,-35.56,18.2
18.51410400867462,3,3,3,1,-25.49,-20.45,4.8,5.88,-17.36,14.62
18.52410399913788,3,3,3,1,-20.3,-3.99,-0.87,4.71,-4.31,10.65
18.53410398960114,3,3,3,1,-12.59,7.98,-1.51,15.22,7.46,6.12
18.54410398006439,3,3,3,1,-7.28,13.41,-4.33,15.22,7.46,6.12
18.55410397052765,3,3,3,1,-7.48,13.2,-6.92,17.05,11.96,-1.94
18.56410396099091,3,3,3,1,-7.49,10.84,-8.44,17.1,19.69,0.45
18.57410395145416,3,3,3,1,-6.42,6.98,-7.83,9.880000000000001,14.5,6.17
18.58410394191742,3,3,3,1,-5.88,0.89,-5.87,-0.59,9.6,14.4
18.59410393238068,3,3,3,1,-7.83,-2.76,-6.09,-0.59,9.6,14.4
18.60410392284393,3,3,3,1,-9.48,-4.01,-5.73,0.65,6.8,16.47
18.61410415172577,3,3,3,1,-10.25,-2.05,-3.65,5.64,5.03,17
18.62410414218903,3,3,3,1,-11.2,2.56,-2.75,9.859999999999999,5.95,14.46
18.63410413265228,3,3,3,1,-11.27,3.26,-0.78,9.32,7.37,10.91
18.64410412311554,3,3,3,1,-11.69,3.22,1.74,9.74,8.33,10.05
18.6541041135788,3,3,3,1,-12.47,1.9,-0.89,6.74,9.68,10.78
18.66410410404205,3,3,3,1,-11.08,2.89,-1.18,3.32,10.84,11.93
18.67410409450531,3,3,3,1,-8.98,3.51,-0.9399999999999999,3.49,12.22,12.17
