timestamp,magCalib,accCalib,gyrCalib,sysCalib,accX,accY,accZ,gyrX,gyrY,gyrZ
-0.1431958675384521,2,3,3,1,-9.42,1.94,0.05,1.01,0.63,1.02
-0.1231958866119385,2,3,3,1,-9.51,2,0.05,0.98,1.02,1.06
-0.1031959056854248,2,3,3,1,-10.36,2.42,-0.4,0.98,1.04,0.93
-0.08319592475891113,2,3,3,1,-9.630000000000001,2.75,0.07000000000000001,1.06,-0.8100000000000001,-0.59
-0.06319594383239746,2,3,3,1,-9.19,2.62,-0.27,0.46,0.23,-0.79
-0.04319596290588379,2,3,3,1,-9.25,2.87,-0.54,0.5600000000000001,0.12,-0.31
-0.02319598197937012,2,3,3,1,-9.33,3.13,-0.45,0.59,-0.36,-0.05
-0.003196001052856445,2,3,3,1,-9.52,3.16,-0.44,0.33,-0.31,-0.09
0.01680397987365723,2,3,3,1,-9.369999999999999,3.14,-0.36,0.05,0.09,-0.07000000000000001
0.0368039608001709,2,3,3,2,-9.4,3.05,-0.4,-0.2,0.37,0.14
0.05680394172668457,2,3,3,2,-9.43,2.94,-0.45,-0.53,0.28,0.16
0.07680392265319824,2,3,3,2,-9.4,2.57,-0.25,-1.01,0.1,0.14
0.09780406951904297,2,3,3,2,-9.68,2.41,-0.24,-0.87,-0.08,0.14
0.1168041229248047,2,3,3,2,-9.58,2.2,-0.01,-0.5600000000000001,-0.3,0
0.1378040313720703,2,3,3,2,-9.44,2.15,0.04,-0.27,-0.07000000000000001,0.03
0.157804012298584,2,3,3,2,-9.57,2.19,-0.22,-0.06,0.25,0.18
0.1778039932250977,2,3,3,2,-9.69,2.22,-0.02,0.06,0.06,0.07000000000000001
0.1978039741516113,2,3,3,2,-9.56,2.15,-0.09,0.01,-0.2,-0.13
0.217803955078125,2,3,3,2,-9.58,2.15,-0.1,-0.02,-0.15,-0.24
0.2378039360046387,2,3,3,2,-9.67,2.25,-0.15,-0.06,-0.25,-0.41
0.2578039169311523,2,3,3,2,-9.390000000000001,2.53,-0.09,-0.14,-0.31,-0.65
0.2778041362762451,2,3,3,2,-9.390000000000001,2.65,-0.17,0.03,-0.12,-0.5600000000000001
0.2978041172027588,2,3,3,2,-9.41,2.84,-0.32,0.12,-0.17,-0.4
0.3178040981292725,2,3,3,2,-9.4,2.86,-0.36,0.13,-0.18,-0.32
0.3378040790557861,2,3,3,2,-9.359999999999999,2.81,-0.31,0.17,-0.11,-0.21
0.3578040599822998,2,3,3,2,-9.359999999999999,2.88,-0.41,0.24,0.03,-0.1
0.3778040409088135,2,3,3,2,-9.380000000000001,2.8,-0.23,0.13,-0.02,-0.01
0.3978040218353271,2,3,3,2,-9.42,2.74,-0.3,0.09,0.09,0.1
0.4178040027618408,2,3,3,2,-9.51,2.71,-0.3,0.1,0.12,0.2
0.4378039836883545,2,3,3,2,-9.529999999999999,2.68,-0.18,0.08,0,0.16
0.4578039646148682,2,3,3,2,-9.470000000000001,2.61,-0.26,-0.07000000000000001,0.04,0.14
0.4778039455413818,2,3,3,2,-9.4,2.55,-0.15,-0.16,0.09,0.19
0.4978039264678955,2,3,3,2,-9.5,2.58,-0.24,-0.33,-0.04,0.24
0.5178039073944092,2,3,3,2,-9.51,2.56,-0.06,-0.24,-0.07000000000000001,0.16
0.537804126739502,2,3,3,2,-9.52,2.53,-0.09,-0.14,-0.06,0.13
0.5578041076660156,2,3,3,2,-9.470000000000001,2.59,-0.15,0,-0.06,0.08
0.5778040885925293,2,3,3,2,-9.460000000000001,2.53,-0.11,0.06,0.05,0.07000000000000001
0.597804069519043,2,3,3,2,-9.5,2.54,-0.24,0.09,0,0.05
0.6178040504455566,2,3,3,2,-9.529999999999999,2.62,-0.17,0,-0.12,0
0.6378040313720703,2,3,3,2,-9.43,2.63,-0.09,0.08,-0.17,-0.06
0.657804012298584,2,3,3,2,-9.43,2.64,-0.24,0.01,0.01,0.03
0.6778039932250977,2,3,3,2,-9.49,2.67,-0.16,-0.04,-0.03,0.07000000000000001
0.6978039741516113,2,3,3,2,-9.48,2.62,-0.21,-0.07000000000000001,-0.02,0.07000000000000001
0.717803955078125,2,3,3,2,-9.41,2.58,-0.14,-0.03,0.04,0.05
0.7378039360046387,2,3,3,2,-9.49,2.53,-0.16,0.02,0.09,0.11
0.7578039169311523,2,3,3,2,-9.550000000000001,2.51,-0.22,0.03,0.15,0.13
0.7778041362762451,2,3,3,2,-9.48,2.54,-0.07000000000000001,0.03,0.09,0.14
0.7978041172027588,2,3,3,2,-9.43,2.45,-0.14,0.11,0.23,0.21
0.8178040981292725,2,3,3,2,-9.5,2.51,-0.12,0.27,0.28,0.27
0.8378040790557861,2,3,3,2,-9.58,2.54,-0.09,0.32,0.09,0.24
0.8578040599822998,2,3,3,2,-9.57,2.55,-0.14,0.32,0,0.12
0.8778040409088135,2,3,3,2,-9.51,2.53,-0.18,0.42,0.05,0.06
0.8978040218353271,2,3,3,2,-9.470000000000001,2.59,-0.29,0.34,-0.06,0.04
0.9178040027618408,2,3,3,2,-9.460000000000001,2.64,-0.13,0.34,-0.09,-0.03
0.9378039836883545,2,3,3,2,-9.48,2.62,-0.12,0.24,-0.05,-0.07000000000000001
0.9578039646148682,2,3,3,2,-9.5,2.65,-0.2,0.14,-0.02,-0.06
0.9778039455413818,2,3,3,2,-9.43,2.64,-0.17,0.13,0.03,-0.07000000000000001
0.9978039264678955,2,3,3,2,-9.41,2.71,-0.29,0.21,0,-0.03
1.017803907394409,2,3,3,2,-9.470000000000001,2.66,-0.24,0.3,0.06,-0.02
1.037804126739502,2,3,3,2,-9.48,2.69,-0.19,0.18,-0.05,-0.01
1.057804107666016,2,3,3,2,-9.41,2.7,-0.27,0.2,-0.02,-0.08
1.077804088592529,2,3,3,2,-9.44,2.68,-0.21,0.08,0.11,-0.04
1.097804069519043,2,3,3,2,-9.449999999999999,2.65,-0.31,0.09,0.09,-0.07000000000000001
1.117804050445557,2,3,3,2,-9.48,2.62,-0.22,0.03,0.06,-0.05
1.13780403137207,2,3,3,2,-9.43,2.61,-0.15,0.02,0.06,-0.03
1.158803939819336,2,3,3,2,-9.470000000000001,2.56,-0.24,-0.01,0.13,-0.04
1.17880392074585,2,3,3,2,-9.51,2.56,-0.19,0.07000000000000001,0.04,-0.07000000000000001
1.198804140090942,2,3,3,2,-9.51,2.62,-0.29,0.17,-0.02,-0.1
1.218804121017456,2,3,3,2,-9.48,2.59,-0.28,0.21,-0.04,-0.07000000000000001
1.23880410194397,2,3,3,2,-9.49,2.64,-0.25,0.18,-0.03,-0.04
1.258804082870483,2,3,3,2,-9.48,2.61,-0.27,0.05,-0.1,-0.02
1.278804063796997,2,3,3,2,-9.470000000000001,2.58,-0.17,0.08,-0.06,-0.08
1.298804044723511,2,3,3,2,-9.460000000000001,2.55,-0.31,0.09,0.04,-0.12
1.318804025650024,2,3,3,2,-9.48,2.62,-0.22,0.03,-0.05,-0.12
1.338804006576538,2,3,3,2,-9.44,2.63,-0.24,0.02,-0.02,-0.12
1.358803987503052,2,3,3,2,-9.42,2.64,-0.29,-0.02,0.03,-0.11
1.378803968429565,2,3,3,2,-9.470000000000001,2.63,-0.21,-0.06,-0.05,-0.08
1.398803949356079,2,3,3,2,-9.49,2.57,-0.29,-0.06,-0.04,-0.13
1.418803930282593,2,3,3,2,-9.470000000000001,2.56,-0.21,0.02,-0.1,-0.13
1.438803911209106,2,3,3,1,-9.470000000000001,2.61,-0.23,0.11,-0.02,-0.09
1.458804130554199,2,3,3,1,-9.48,2.62,-0.28,0.04,-0.11,-0.06
1.478804111480713,2,3,3,1,-9.48,2.64,-0.11,-0.02,-0.14,-0.12
1.498804092407227,2,3,3,1,-9.48,2.64,-0.24,-0.11,-0.1,-0.11
1.51880407333374,2,3,3,1,-9.44,2.63,-0.21,-0.1,-0.02,-0.11
1.538804054260254,2,3,3,1,-9.470000000000001,2.63,-0.25,-0.11,0.03,-0.1
1.558804035186768,2,3,3,1,-9.44,2.64,-0.27,-0.1,0.01,-0.13
1.578804016113281,2,3,3,1,-9.449999999999999,2.6,-0.16,-0.13,0.03,-0.07000000000000001
1.598803997039795,2,3,3,1,-9.539999999999999,2.58,-0.28,-0.13,0.01,-0.04
1.618803977966309,2,3,3,1,-9.49,2.6,-0.17,-0.11,0,-0.13
1.638803958892822,2,3,3,1,-9.41,2.63,-0.2,-0.08,0.07000000000000001,-0.1
1.658803939819336,2,3,3,1,-9.43,2.59,-0.27,-0.08,0.05,-0.02
1.67880392074585,2,3,3,1,-9.539999999999999,2.51,-0.17,-0.14,0.06,0.04
1.698804140090942,2,3,3,1,-9.56,2.49,-0.23,-0.1,-0.05,-0.03
1.718804121017456,2,3,3,1,-9.51,2.5,-0.07000000000000001,-0.13,-0.11,-0.13
1.73880410194397,2,3,3,1,-9.5,2.49,-0.2,-0.12,0.08,-0.19
1.758804082870483,2,3,3,1,-9.5,2.46,-0.26,-0.13,0.01,-0.14
1.778804063796997,2,3,3,1,-9.529999999999999,2.51,-0.22,-0.07000000000000001,-0.05,-0.14
1.798804044723511,2,3,3,1,-9.51,2.52,-0.21,-0.03,-0.2,-0.2
1.818804025650024,2,3,3,1,-9.470000000000001,2.53,-0.23,-0.02,-0.05,-0.14
1.838804006576538,2,3,3,1,-9.48,2.58,-0.12,0.03,-0.09,-0.11
1.858803987503052,2,3,3,1,-9.529999999999999,2.57,-0.19,0.02,-0.09,-0.12
1.878803968429565,2,3,3,1,-9.470000000000001,2.55,-0.12,0.03,-0.06,-0.16
1.898803949356079,2,3,3,1,-9.48,2.55,-0.27,0.09,-0.04,-0.12
1.918803930282593,2,3,3,1,-9.51,2.51,-0.19,0.05,-0.08,-0.11
1.938803911209106,2,3,3,2,-9.49,2.56,-0.16,0.02,-0.09,-0.14
1.958804130554199,2,3,3,2,-9.470000000000001,2.53,-0.23,-0.02,-0.1,-0.12
1.978804111480713,2,3,3,2,-9.51,2.53,-0.14,0.06,-0.09,-0.15
1.998804092407227,2,3,3,2,-9.539999999999999,2.55,-0.27,0.03,-0.1,-0.19
2.01880407333374,2,3,3,2,-9.449999999999999,2.56,-0.18,0.02,-0.09,-0.16
2.038804054260254,2,3,3,2,-9.44,2.56,-0.13,0.06,0.04,-0.19
2.058804035186768,2,3,3,2,-9.49,2.68,-0.22,0.09,-0.11,-0.17
2.078804016113281,2,3,3,2,-9.42,2.7,-0.18,-0.03,-0.13,-0.18
2.098803997039795,2,3,3,2,-9.529999999999999,2.6,-0.34,0,-0.11,-0.09
2.118803977966309,2,3,3,2,-9.43,2.63,-0.17,0.06,-0.09,-0.1
2.138803958892822,2,3,3,2,-9.43,2.46,-0.13,0.09,0.07000000000000001,-0.03
2.158803939819336,2,3,3,2,-9.470000000000001,2.51,-0.21,0.05,-0.02,0.02
2.179804086685181,2,3,3,2,-9.52,2.52,-0.09,0.05,0.01,-0.01
2.199804067611694,2,3,3,2,-9.539999999999999,2.53,-0.29,0,0.05,-0.06
2.219804048538208,2,3,3,2,-9.5,2.55,-0.18,0.03,0.01,-0.09
2.239804029464722,2,3,3,2,-9.460000000000001,2.48,-0.27,-0.06,0.08,-0.06
2.259804010391235,2,3,3,2,-9.48,2.47,-0.26,-0.08,0.05,-0.02
2.279803991317749,2,3,3,2,-9.550000000000001,2.49,-0.14,-0.04,0.05,-0.04
2.299803972244263,2,3,3,2,-9.539999999999999,2.46,-0.21,-0.03,-0.03,-0.08
2.319803953170776,2,3,3,2,-9.5,2.44,-0.2,0,0.05,-0.08
2.33980393409729,2,3,3,2,-9.49,2.5,-0.16,0.01,-0.01,-0.08
2.359803915023804,2,3,3,2,-9.539999999999999,2.49,-0.18,-0.01,0,-0.1
2.379804134368896,2,3,3,2,-9.48,2.52,-0.13,-0.06,-0.1,-0.19
2.39980411529541,2,3,3,2,-9.49,2.51,-0.21,-0.03,-0.16,-0.12
2.419804096221924,2,3,3,2,-9.52,2.55,-0.14,0.01,-0.09,-0.1
2.439804077148438,2,3,3,2,-9.48,2.58,-0.21,-0.02,-0.16,-0.09
2.459804058074951,2,3,3,2,-9.43,2.57,-0.27,-0.04,0.08,-0.08
2.479804039001465,2,3,3,2,-9.49,2.57,-0.15,-0.09,-0.02,-0.05
2.499804019927979,2,3,3,2,-9.49,2.54,-0.25,-0.05,-0.02,-0.08
2.519804000854492,2,3,3,2,-9.52,2.45,-0.13,-0.08,-0.04,-0.08
2.539803981781006,2,3,3,2,-9.52,2.43,-0.08,-0.06,-0.04,-0.11
2.55980396270752,2,3,3,2,-9.56,2.48,-0.15,0.01,-0.14,-0.16
2.579803943634033,2,3,3,2,-9.48,2.53,-0.12,0.03,-0.11,-0.18
2.599803924560547,2,3,3,2,-9.470000000000001,2.46,-0.28,0.03,-0.2,-0.14
2.61980414390564,2,3,3,2,-9.49,2.5,-0.16,0.05,-0.15,-0.11
2.639804124832153,2,3,3,1,-9.51,2.49,-0.13,0.04,-0.09,-0.17
2.659804105758667,2,3,3,1,-9.48,2.57,-0.2,-0.09,-0.09,-0.13
2.679804086685181,2,3,3,1,-9.49,2.62,-0.16,0.01,0.03,-0.11
2.699804067611694,2,3,3,1,-9.5,2.55,-0.28,-0.02,-0.07000000000000001,-0.12
2.719804048538208,2,3,3,1,-9.51,2.54,-0.18,-0.05,-0.1,-0.07000000000000001
2.739804029464722,2,3,3,1,-9.51,2.5,-0.13,-0.04,-0.13,-0.02
2.759804010391235,2,3,3,1,-9.5,2.46,-0.14,-0.06,-0.09,-0.03
2.779803991317749,2,3,3,1,-9.5,2.46,-0.11,-0.02,-0.11,-0.11
2.799803972244263,2,3,3,1,-9.48,2.51,-0.22,0.03,-0.12,-0.17
2.819803953170776,2,3,3,1,-9.529999999999999,2.58,-0.15,0.05,-0.08,-0.2
2.83980393409729,2,3,3,1,-9.49,2.49,-0.17,0.01,-0.08,-0.07000000000000001
2.859803915023804,2,3,3,1,-9.470000000000001,2.52,-0.19,-0.09,-0.01,-0.02
2.879804134368896,2,3,3,1,-9.529999999999999,2.41,-0.09,-0.13,0,0.04
2.89980411529541,2,3,3,1,-9.529999999999999,2.44,-0.11,-0.06,-0.08,-0.04
2.919804096221924,2,3,3,1,-9.539999999999999,2.49,-0.08,0.12,-0.04,-0.06
2.939804077148438,2,3,3,1,-9.539999999999999,2.44,-0.19,0.19,0.07000000000000001,-0.03
2.959804058074951,2,3,3,1,-9.5,2.5,-0.2,0.12,-0.04,0.04
2.979804039001465,2,3,3,1,-9.51,2.51,-0.14,0.07000000000000001,-0.03,0
2.999804019927979,2,3,3,1,-9.5,2.51,-0.23,0.08,0.02,0.01
3.019804000854492,2,3,3,1,-9.49,2.5,-0.15,-0.01,0.03,0.03
3.039803981781006,2,3,3,1,-9.5,2.48,-0.06,0.07000000000000001,-0.1,0.04
3.05980396270752,2,3,3,1,-9.56,2.43,-0.14,0.08,-0.08,-0.04
3.079803943634033,2,3,3,1,-9.44,2.41,-0.07000000000000001,0.14,-0.05,-0.1
3.099803924560547,2,3,3,1,-9.51,2.43,-0.22,0.07000000000000001,-0.04,-0.09
3.11980414390564,2,3,3,1,-9.51,2.53,-0.15,0.1,-0.12,-0.1
3.139804124832153,2,3,3,1,-9.5,2.55,-0.17,0.2,-0.07000000000000001,-0.09
3.159804105758667,2,3,3,1,-9.49,2.56,-0.2,0.12,-0.11,-0.06
3.179804086685181,2,3,3,1,-9.51,2.55,-0.13,0.08,-0.04,-0.08
3.199804067611694,2,3,3,1,-9.48,2.52,-0.22,0,-0.06,-0.12
3.22080397605896,2,3,3,1,-9.470000000000001,2.53,-0.15,-0.09,0.05,-0.11
3.240803956985474,2,3,3,1,-9.51,2.51,-0.11,-0.06,-0.02,-0.08
3.260803937911987,2,3,3,1,-9.51,2.49,-0.15,-0.08,-0.06,-0.07000000000000001
3.280803918838501,2,3,3,1,-9.529999999999999,2.44,-0.09,-0.19,-0.06,-0.07000000000000001
3.300804138183594,2,3,3,1,-9.56,2.44,-0.18,-0.09,-0.12,-0.1
3.320804119110107,2,3,3,1,-9.529999999999999,2.42,-0.12,-0.09,-0.12,-0.13
3.340804100036621,2,3,3,1,-9.57,2.39,-0.14,0,-0.22,-0.19
3.360804080963135,2,3,3,1,-9.539999999999999,2.48,-0.14,-0.02,-0.24,-0.19
3.380804061889648,2,3,3,1,-9.5,2.49,-0.05,-0.13,-0.22,-0.1
3.400804042816162,2,3,3,1,-9.529999999999999,2.48,-0.18,-0.03,-0.29,-0.14
3.420804023742676,2,3,3,1,-9.51,2.46,-0.16,0.02,-0.34,-0.18
3.440804004669189,2,3,3,1,-9.470000000000001,2.49,-0.05,0.03,-0.14,-0.18
3.460803985595703,2,3,3,1,-9.449999999999999,2.61,-0.16,-0.19,-0.1,-0.09
3.480803966522217,2,3,3,1,-9.52,2.61,-0.09,-0.16,-0.22,-0.06
3.50080394744873,2,3,3,1,-9.48,2.49,-0.19,-0.07000000000000001,-0.13,-0.05
3.520803928375244,2,3,3,1,-9.460000000000001,2.47,-0.04,-0.06,-0.04,-0.05
3.540803909301758,2,3,3,1,-9.52,2.48,-0.05,-0.02,0.07000000000000001,-0.04
3.560804128646851,2,3,3,1,-9.57,2.48,-0.15,-0.19,-0.07000000000000001,-0.05
3.580804109573364,2,3,3,2,-9.5,2.41,-0.03,-0.17,-0.02,-0.07000000000000001
3.600804090499878,2,3,3,2,-9.52,2.44,-0.15,-0.12,-0.01,-0.02
3.620804071426392,2,3,3,2,-9.529999999999999,2.43,-0.04,-0.01,0.07000000000000001,-0.01
3.640804052352905,2,3,3,2,-9.49,2.48,-0.04,0.14,0.07000000000000001,-0.01
3.660804033279419,2,3,3,2,-9.49,2.51,-0.07000000000000001,0.13,0,0.02
3.680804014205933,2,3,3,2,-9.460000000000001,2.45,-0.06,0.04,-0.01,0.04
3.700803995132446,2,3,3,2,-9.56,2.43,-0.15,0.05,-0.01,-0.03
3.72080397605896,2,3,3,2,-9.48,2.51,-0.03,-0.01,0.05,-0.03
3.740803956985474,2,3,3,2,-9.539999999999999,2.45,-0.05,-0.08,-0.08,0
3.760803937911987,2,3,3,2,-9.529999999999999,2.47,-0.12,-0.07000000000000001,-0.09,-0.02
3.780803918838501,2,3,3,1,-9.5,2.43,-0.04,-0.04,-0.09,-0.09
3.800804138183594,2,3,3,1,-9.529999999999999,2.45,-0.11,-0.02,-0.01,-0.09
3.820804119110107,2,3,3,1,-9.470000000000001,2.48,-0.06,0.01,0.12,-0.02
3.840804100036621,2,3,3,1,-9.51,2.5,-0.12,-0.09,0.04,0.03
3.860804080963135,2,3,3,1,-9.539999999999999,2.44,-0.16,-0.03,-0.01,-0.03
3.880804061889648,2,3,3,1,-9.51,2.42,-0.02,0.03,-0.01,-0.03
3.900804042816162,2,3,3,1,-9.52,2.42,-0.15,0.08,0.03,-0.03
3.920804023742676,2,3,3,1,-9.58,2.45,-0.12,0.01,-0.09,-0.08
3.940804004669189,2,3,3,1,-9.44,2.56,-0.09,0.04,-0.05,-0.08
3.960803985595703,2,3,3,1,-9.44,2.49,-0.13,0.01,0.1,-0.03
3.980803966522217,2,3,3,1,-9.529999999999999,2.43,-0.09,0,-0.01,-0.01
4.00080394744873,2,3,3,1,-9.529999999999999,2.45,-0.16,0.02,0.03,-0.06
4.020803928375244,2,3,3,1,-9.57,2.45,-0.1,0.04,-0.04,-0.07000000000000001
4.040803909301758,2,3,3,1,-9.48,2.46,-0.09,0.08,0.12,-0.1
4.060804128646851,2,3,3,1,-9.5,2.53,-0.17,0.06,0.08,-0.04
4.080804109573364,2,3,3,1,-9.529999999999999,2.45,-0.08,0.03,0.05,-0.06
4.100804090499878,2,3,3,1,-9.59,2.47,-0.16,-0.05,-0.07000000000000001,-0.05
4.120804071426392,2,3,3,1,-9.460000000000001,2.48,-0.07000000000000001,0.11,-0.02,-0.01
4.140804052352905,2,3,3,1,-9.470000000000001,2.47,-0.11,0.08,0.05,-0.01
4.160804033279419,2,3,3,1,-9.52,2.51,-0.12,-0.01,0.02,0
4.180804014205933,2,3,3,1,-9.539999999999999,2.39,-0.08,-0.05,-0.03,-0.02
4.200803995132446,2,3,3,1,-9.539999999999999,2.41,-0.16,0.07000000000000001,-0.03,-0.06
4.22080397605896,2,3,3,1,-9.52,2.4,-0.08,0.01,0.02,-0.05
4.241804122924805,2,3,3,1,-9.550000000000001,2.42,-0.08,0.04,-0.09,-0.09
4.261804103851318,2,3,3,1,-9.5,2.45,-0.19,0.08,-0.04,-0.12
4.281804084777832,2,3,3,1,-9.56,2.53,-0.06,-0.05,-0.14,-0.1
4.301804065704346,2,3,3,1,-9.5,2.48,-0.15,-0.12,-0.02,-0.12
4.321804046630859,2,3,3,1,-9.630000000000001,2.46,-0.18,-0.2,-0.13,-0.13
4.341804027557373,2,3,3,1,-9.57,2.46,-0.13,-0.1,-0.42,-0.35
4.361804008483887,2,3,3,1,-9.52,2.29,0,-0.03,-0.26,-0.43
4.3818039894104,2,3,3,1,-9.630000000000001,2.33,-0.02,-0.05,-0.21,-0.48
4.401803970336914,2,3,3,1,-9.34,2.12,0.01,0.11,-0.55,-0.9399999999999999
4.421803951263428,2,3,3,1,-9.4,2.17,0.07000000000000001,0.02,-0.48,-1.11
4.441803932189941,2,3,3,1,-9.800000000000001,2.08,0.13,-0.55,-0.77,-1.7
4.461803913116455,2,3,3,1,-9.710000000000001,2.13,0.15,-0.66,-0.97,-2.29
4.481804132461548,2,3,3,1,-9.56,2.15,0.17,-0.89,-1.15,-2.46
4.501804113388062,2,3,3,1,-9.460000000000001,1.75,0.15,-1.18,-1.05,-3.08
4.521804094314575,2,3,3,1,-9.49,1.62,0.27,-1.13,-1.06,-3.34
4.541804075241089,2,3,3,1,-9.75,0.6,0.49,-1.03,-1.59,-4.63
4.561804056167603,2,3,3,1,-9.85,-0.3,0.86,-0.77,-1.53,-5.81
4.581804037094116,2,3,3,1,-9.869999999999999,0.24,1.12,-0.34,-1.9,-7.22
4.60180401802063,2,3,3,1,-9.56,0.6,1.28,-1.95,-2.39,-8.029999999999999
4.621803998947144,2,3,3,1,-9.5,0.74,1.67,-4.03,-2.49,-8.48
4.641803979873657,2,3,3,1,-10,-3.03,1.76,-8.77,-1.47,-11.43
4.661803960800171,2,3,3,1,-9.529999999999999,-2.01,2.09,-6.82,0.02,-13.63
4.681803941726685,2,3,3,1,-9.92,-0.01,0.6,-7.7,1.13,-15.94
4.701803922653198,2,3,3,1,-8.279999999999999,1.4,-0.12,-7.06,-0.31,-15.9
4.721804141998291,2,3,3,1,-8.26,0.59,0.59,-8.710000000000001,-0.47,-15.06
4.741804122924805,2,3,3,1,-8.24,-0.31,0.61,-9,2.8,-16.08
4.761804103851318,2,3,3,1,-7.86,-2.01,0.4,-8.449999999999999,0.52,-16.06
4.781804084777832,2,3,3,2,-9,-1.21,1.1,-4.95,1.51,-15.11
4.801804065704346,2,3,3,2,-8.539999999999999,0.43,-0.21,-4.45,3.1,-14.89
4.821804046630859,2,3,3,2,-8.890000000000001,-0.65,-0.79,-3.47,3.24,-15.1
4.841804027557373,2,3,3,2,-10.84,-1.74,-2.28,-0.85,1.25,-13.32
4.861804008483887,2,3,3,2,-10.62,-2.49,-1.54,3.23,-1.49,-11.41
4.8818039894104,2,3,3,2,-9.27,-1.19,0.33,6.51,-2.33,-8.68
4.901803970336914,2,3,3,2,-10.06,-0.96,0.47,4.44,-2.07,-5.77
4.921803951263428,2,3,3,2,-10.05,-1.86,0.6899999999999999,3.08,-1.29,-4.77
4.941803932189941,2,3,3,2,-11.94,-0.58,0.02,-0.14,-0.93,-1.82
4.961803913116455,2,3,3,2,-13.13,-0.6899999999999999,0.06,-0.91,-0.44,0.9
4.981804132461548,2,3,3,2,-12.89,0.35,-0.61,-2.38,0.11,3.57
5.001804113388062,2,3,3,2,-13.25,1.56,-1.76,-5.32,0.57,6.73
5.021804094314575,2,3,3,2,-13.23,2.13,-2.3,-6.9,2.41,11.26
5.041804075241089,2,3,3,2,-18.33,3.33,-5.97,-6.52,2.37,18.97
5.061804056167603,2,3,3,2,-25.26,6.05,-5.26,3.11,-1.35,26.67
5.081804037094116,2,3,3,2,-32.72,14.8,-1.39,18.42,-5.07,28.99
5.10180401802063,2,3,3,2,-32.46,16.26,2.88,24.83,-5.44,27.7
5.121803998947144,2,3,3,2,-28.83,6.1,9.359999999999999,17.88,-4.18,25.46
5.141803979873657,2,3,3,2,-16.42,3.68,8.07,3.85,5.69,22.59
5.161803960800171,2,3,3,2,-11.65,-38.98,-1.01,-25.07,30.83,15.49
5.181803941726685,2,3,3,2,-7.36,-34.88,2.08,14.15,-4.75,9.949999999999999
5.201803922653198,2,3,3,2,-3.61,-2.09,6.79,2.61,-13.04,7.73
5.221804141998291,2,3,3,2,0.83,2.7,4.09,3.83,0.16,1.61
5.241804122924805,2,3,3,2,0.51,3.01,-4.47,7.82,0.68,1.43
5.26280403137207,2,3,3,2,2.32,2.44,-3.69,10.82,-0.5600000000000001,1.25
5.282804012298584,2,3,3,2,1.72,5.2,-1.44,9.18,0.68,0.1
5.302803993225098,2,3,3,2,-0.54,1.6,0.75,2.55,0.65,-0.09
5.322803974151611,2,3,3,2,-0.25,0.23,1.02,0.53,2.5,-1.27
5.342803955078125,2,3,3,2,0.17,0.09,0.73,-0.57,2.74,-2.86
5.362803936004639,2,3,3,2,-0.14,0.5600000000000001,1.04,-3.98,2.07,-3.4
5.382803916931152,2,3,3,2,0.38,-0.13,0.61,-8.109999999999999,1.37,-3.17
5.402804136276245,2,3,3,2,0.74,-0.2,0.51,-8.74,0.93,-2.57
5.422804117202759,2,3,3,2,0.57,-0.15,1.21,-7.53,0.6899999999999999,-2.01
5.442804098129272,2,3,3,2,0.16,-0.52,1.37,-5.6,0.61,-1.32
5.462804079055786,2,3,3,2,-0.37,-1.24,1.93,-4.02,1.13,-0.72
5.4828040599823,2,3,3,2,-0.59,-2.38,1.53,-3.92,1.69,-0.87
5.502804040908813,2,3,3,2,-1.62,-2.11,0.29,-3.82,0.08,-1.17
5.522804021835327,2,3,3,2,-0.49,-2.27,-0.85,-1.28,-4.03,-0.26
5.542804002761841,2,3,3,2,-1.66,-0.76,0.36,1.61,-5.32,-0.65
5.562803983688354,2,3,3,2,-9.699999999999999,-22.83,13.18,-4.07,-9.619999999999999,-2.82
5.582803964614868,2,3,3,2,-28.59,39.19,-4.84,35.18,5.32,-0.7
5.602803945541382,2,3,3,2,-31.75,0.52,-10.41,-1.37,-0.09,-8.75
5.622803926467896,2,3,3,2,-34.53,-29.4,9.779999999999999,-25.01,5.47,-10.08
5.642803907394409,2,3,3,2,-39.17,-30.61,2.76,3.49,1.49,-16.49
5.662804126739502,2,3,3,2,-5.48,39.32,-3.82,25.75,8,-22.29
5.682804107666016,2,3,3,2,0.91,36.96,-1.68,-18.59,3.03,-2.28
5.702804088592529,2,3,3,2,-17.43,-0.3,-5.46,-25.14,-1.74,14.35
5.722804069519043,2,3,3,2,-27.67,0.25,-2.81,0.3,-5.27,7.46
5.742804050445557,2,3,3,2,-15.06,2.6,-2.32,7,-3.49,1.71
5.76280403137207,2,3,3,2,-10.33,4.88,-1.02,11.88,-2.1,1.24
5.782804012298584,2,3,3,2,-9.859999999999999,3.09,-0.6899999999999999,7.07,-1.55,5.32
5.802803993225098,2,3,3,2,-7.65,1.65,-0.86,3.15,-1.83,8.44
5.822803974151611,2,3,3,2,-5.89,1.51,-0.19,1.45,-1.9,8.300000000000001
5.842803955078125,2,3,3,2,-5.89,0.92,0.08,1.42,-1.82,6.87
5.862803936004639,2,3,3,2,-6.83,-0.12,0.82,3.83,-0.78,5.94
5.882803916931152,2,3,3,2,-6.83,0.06,1.47,2.72,0.7,7.16
5.902804136276245,2,3,3,2,-6.69,-0.84,1.46,-0.27,1.77,7.19
5.922804117202759,2,3,3,2,-7.04,-1.91,1.09,-0.02,1.88,5.47
5.942804098129272,2,3,3,2,-7.88,-0.63,0.48,1.72,1.79,4.78
5.962804079055786,2,3,3,2,-9.19,-1.29,0.25,0.95,1.73,4.36
5.9828040599823,2,3,3,2,-12.89,-1.03,1.63,1.32,-0.18,3.06
6.002804040908813,2,3,3,2,-11.31,-0.04,1.58,1.02,-0.48,1.46
6.022804021835327,2,3,3,2,-10.51,-0.01,1.12,0.23,-0.37,0.89
6.042804002761841,2,3,3,2,-9.74,1.04,0.6899999999999999,0.14,-1.1,0.72
6.062803983688354,2,3,3,2,-9.33,1.83,0.65,-0.31,-0.46,0.75
6.082803964614868,2,3,3,2,-9.359999999999999,1.75,0.04,-1.03,0.51,0.86
6.102803945541382,2,3,3,2,-9.289999999999999,1.6,-0.04,-0.93,0.79,0.61
6.122803926467896,2,3,3,2,-9.5,1.66,-0.14,-0.35,0.57,0.48
6.142803907394409,2,3,3,2,-9.33,1.76,-0.04,0.18,0.07000000000000001,0.66
6.162804126739502,2,3,3,2,-9.460000000000001,2.21,-0.06,1.02,-0.12,0.54
6.182804107666016,2,3,3,2,-9.41,2.38,-0.06,0.72,-0.25,0.38
6.202804088592529,2,3,3,2,-9.609999999999999,2.56,-0.25,0.8,0.09,0.26
6.222804069519043,2,3,3,2,-9.75,2.63,-0.2,0.57,0.42,0.42
6.242804050445557,2,3,3,2,-9.630000000000001,2.73,-0.1,0.72,0.18,0.8
6.26280403137207,2,3,3,2,-9.41,2.64,0.11,0.29,0.24,1.27
6.283803939819336,2,3,3,2,-9.630000000000001,1.77,0.14,-0.09,0.52,1.37
6.30380392074585,2,3,3,2,-9.82,1.6,0.06,0.07000000000000001,0.5,1.21
6.323804140090942,2,3,3,2,-9.73,1.52,0.26,0.17,0.17,0.96
6.343804121017456,2,3,3,2,-9.57,1.37,0.5,0.25,0.34,0.73
6.36380410194397,2,3,3,2,-9.720000000000001,1.24,0.46,0.76,0.42,0.14
6.383804082870483,2,3,3,2,-9.710000000000001,1.59,0.23,0.91,0.18,-0.2
6.403804063796997,2,3,3,2,-9.57,2.29,0.01,0.87,-0.18,-0.51
6.423804044723511,2,3,3,2,-9.640000000000001,2.41,0.02,0.51,-0.08,-0.47
6.443804025650024,2,3,3,2,-9.529999999999999,2.67,-0.13,0.33,-0.11,-0.39
6.463804006576538,2,3,3,2,-9.470000000000001,2.62,-0.09,0.22,-0.02,-0.19
6.483803987503052,2,3,3,2,-9.539999999999999,2.41,-0.13,0.22,0.17,-0.03
6.503803968429565,2,3,3,2,-9.460000000000001,2.33,-0.25,0.4,0.08,0.04
6.523803949356079,2,3,3,2,-9.460000000000001,2.43,-0.27,1.06,0.16,0.04
6.543803930282593,2,3,3,2,-9.6,2.29,-0.39,1.06,0.13,0.08
6.563803911209106,2,3,3,2,-9.58,2.29,-0.2,1.03,0.02,0.11
6.583804130554199,2,3,3,2,-9.51,2.39,-0.12,0.92,-0.12,0.05
6.603804111480713,2,3,3,2,-9.49,2.07,-0.16,0.84,-0.12,-0.05
6.623804092407227,2,3,3,1,-9.720000000000001,2.01,-0.22,0.9,-0.03,-0.23
6.64380407333374,2,3,3,1,-9.529999999999999,2.25,-0.33,1.25,-0.64,-0.45
6.663804054260254,2,3,3,1,-9.51,1.99,0,1.43,-0.67,-0.67
6.683804035186768,2,3,3,1,-9.4,1.45,0.39,1.34,-0.86,-0.86
6.703804016113281,2,3,3,1,-9.539999999999999,0.23,0.74,1.31,-0.77,-1.57
6.723803997039795,2,3,3,1,-9.66,-1.24,1.29,0.6899999999999999,-1.3,-2.81
6.743803977966309,2,3,3,1,-10.01,-3.87,2.04,0.1,-1.9,-4.61
6.763803958892822,2,3,3,1,-9.779999999999999,-3.88,3.84,-1.5,-2.07,-7.1
6.783803939819336,2,3,3,1,-10.53,-5.48,2.95,-8.199999999999999,-0.86,-10.36
6.80380392074585,2,3,3,1,-9.66,-2.51,2.26,-9.77,-1.35,-13.77
6.823804140090942,2,3,3,1,-8.5,3.28,0.39,-7.16,-1.29,-14.82
6.843804121017456,2,3,3,1,-7.69,4.8,0.43,-7.34,0.18,-13.54
6.86380410194397,2,3,3,1,-7.81,3.06,-0.85,-11.37,1.38,-15.09
6.883804082870483,2,3,3,1,-7.92,0.84,-0.31,-12.29,-0.17,-14.93
6.903804063796997,2,3,3,1,-9.44,-0.62,-0.61,-10.42,1.16,-14.29
6.923804044723511,2,3,3,1,-9.789999999999999,-0.35,-0.49,-6.84,0.9399999999999999,-14.22
6.943804025650024,2,3,3,1,-10.74,-0.22,0.91,-3.86,2.44,-15.17
6.963804006576538,2,3,3,1,-10.3,0.4,0.82,-0.68,2.57,-15.75
6.983803987503052,2,3,3,1,-9.34,1.11,0.97,-0.43,1.68,-15.26
7.003803968429565,2,3,3,1,-9.26,0.33,-0.49,-0.09,-0.43,-13.97
7.023803949356079,2,3,3,1,-11.41,-0.53,0.16,-0.06,-1.44,-11.57
7.043803930282593,2,3,3,1,-11.95,-1.86,0.04,-0.86,-2.72,-10.5
7.063803911209106,2,3,3,1,-10.88,-1.84,-0.36,0.17,-2.63,-9.32
7.083804130554199,2,3,3,1,-10.08,-0.19,-0.14,1.88,-2.38,-6.98
7.103804111480713,2,3,3,1,-12.55,-0.96,-1.39,1.02,-1.74,-3.38
7.123804092407227,2,3,3,1,-13.83,-0.37,-1.79,-1.45,-1.37,-0.06
7.14380407333374,2,3,3,1,-12.96,1.82,-1.84,-3.34,-0.34,3.29
7.163804054260254,2,3,3,1,-13.13,3.48,-1.04,-5.19,1.41,7.46
7.183804035186768,2,3,3,1,-17.02,2.51,-1.17,-7.02,2.61,13.32
7.203804016113281,2,3,3,1,-22.6,2.72,-2.51,-7.57,1.46,20.56
7.223803997039795,2,3,3,1,-29.64,9.630000000000001,-4.07,-1.97,-1.02,24.24
7.243803977966309,2,3,3,1,-30.92,11.48,-3.73,9.94,-5.5,23.6
7.263803958892822,2,3,3,1,-29.05,9.98,-0.23,17.97,-7.09,24.55
7.283803939819336,2,3,3,0,-23.53,3.14,3.39,18.18,-5.99,24.43
7.304804086685181,2,3,3,0,-8.050000000000001,1.75,4.12,17.01,1.83,20.89
7.324804067611694,2,3,3,0,-5.64,-38.32,5.84,-7.89,20.19,14.14
7.344804048538208,2,3,3,0,-4.04,-9.960000000000001,0.74,7.82,12.89,11.46
7.364804029464722,2,3,3,0,-3.91,-2.99,5.24,-1.15,-8.789999999999999,8.56
7.384804010391235,2,3,3,0,-0.9399999999999999,-5.09,4.47,-12.3,-6.64,2.89
7.404803991317749,2,3,3,0,0.77,-0.42,-0.52,-1.08,0.4,-0.8
7.424803972244263,2,3,3,0,1.83,2.19,-3.03,7.47,0.74,-0.55
7.444803953170776,2,3,3,0,2.36,3.41,-2.5,11.8,-1.48,0.33
7.46480393409729,2,3,3,0,0.22,3.03,-1.25,13.21,-1.57,0.49
7.484803915023804,2,3,3,0,0.41,1.71,0.6899999999999999,11.86,-1.72,1.33
7.504804134368896,2,3,3,0,0.38,1.15,1.12,8.1,-0.31,1.85
7.52480411529541,2,3,3,0,-0.53,0.3,1.16,4.4,0.01,1.37
7.544804096221924,2,3,3,0,-0.22,-0.55,0.71,-0.8100000000000001,-0.65,0.58
7.564804077148438,2,3,3,0,0.23,-1.1,-0.02,-3.85,-0.84,-0.06
7.584804058074951,2,3,3,0,-0.09,-0.67,-0.06,-3.73,-1.02,-0.44
7.604804039001465,2,3,3,0,0.06,-0.63,0.01,-2.7,-1.6,-0.38
7.624804019927979,2,3,3,1,-0.19,-0.42,0.71,-1.14,-0.97,-0.57
7.644804000854492,2,3,3,1,-0.73,-0.87,0.95,-0.99,-1.51,-1.19
7.664803981781006,2,3,3,1,-1.12,-2,0.8,-2.26,-1.61,-2.31
7.68480396270752,2,3,3,1,-1.58,-3.44,-0.29,-2.35,-1.5,-3.88
7.704803943634033,2,3,3,1,-3.62,-5.26,4.62,1.83,-2.69,-5.28
7.724803924560547,2,3,3,1,-11.33,27.32,-17.29,-24.33,-10.41,-2.76
7.74480414390564,2,3,3,1,-39.25,-11.62,-1.69,11.51,3.21,3.87
7.764804124832153,2,3,3,1,-28.39,2.39,-2.09,-9.23,2.48,-15.95
7.784804105758667,2,3,3,2,-39.25,-28.83,9.51,-18.77,1.24,-10.45
7.804804086685181,2,3,3,2,-19.15,36.11,-1.47,7.87,5.97,-16.88
7.824804067611694,2,3,3,2,-5.07,33.28,-3.64,5.89,5.54,-13.61
7.844804048538208,2,3,3,2,-11.22,7.93,-3.34,-14.76,0.72,0.6899999999999999
7.864804029464722,2,3,3,2,-17.79,6.81,-4.46,-6.65,-3.39,8.24
7.884804010391235,2,3,3,2,-14.99,3.51,-3.71,0.8,-2.57,6.33
7.904803991317749,2,3,3,2,-12.37,0.4,-2.2,4.95,-1.58,5.66
7.924803972244263,2,3,3,2,-9.94,1.58,-0.73,11.22,0.1,7.49
7.944803953170776,2,3,3,2,-7.41,2.3,-0.22,10.2,1.15,8.99
7.96480393409729,2,3,3,2,-4.63,2.4,0.75,6.89,1.24,9.41
7.984803915023804,2,3,3,2,-4.81,2.15,2.38,5.84,0.63,9.1
8.004804134368896,2,3,3,2,-6.79,-0.13,3.45,3.3,0.75,8.529999999999999
8.02480411529541,2,3,3,2,-8.25,-1.6,4.79,1.58,-0.85,8.5
8.044804096221924,2,3,3,2,-9.52,-2.93,3.22,1.15,-1.32,6.81
8.064804077148438,2,3,3,2,-11.15,-3.66,0.83,0.7,-0.11,3.24
8.084804058074951,2,3,3,2,-11.33,-3.33,-0.07000000000000001,1.78,-0.78,0.14
8.104804039001465,2,3,3,2,-9.84,-0.85,0.23,2.77,-0.99,-1.37
8.124804019927979,2,3,3,2,-9.699999999999999,0.8100000000000001,0.8,2.24,-0.75,-2.05
8.144804000854492,2,3,3,2,-9.9,2.8,0.61,0.01,-1.51,-1.74
8.164803981781006,2,3,3,2,-9.73,3.59,0.2,-1.23,-1.4,-1.3
8.18480396270752,2,3,3,2,-9.550000000000001,3.09,-0.02,-3.11,-0.8100000000000001,-0.64
8.204803943634033,2,3,3,2,-9.56,2.19,0.1,-4.19,-0.06,0.13
8.224803924560547,2,3,3,2,-9.48,0.65,0.66,-3.91,0.21,0.24
8.24480414390564,2,3,3,2,-9.66,-0.37,0.93,-3.36,0.02,0.11
8.264804124832153,2,3,3,2,-9.699999999999999,-0.15,0.91,-1.23,-0.11,-0.5
8.285804033279419,2,3,3,2,-9.6,0.77,0.68,0.64,-0.13,-1.18
8.304804086685181,2,3,3,2,-9.460000000000001,1.62,0.21,1.19,-0.01,-1.23
8.324804067611694,2,3,3,2,-9.73,1.99,0.1,0.96,-0.02,-0.83
8.34580397605896,2,3,3,2,-9.529999999999999,2.54,0.1,0.92,-0.43,-0.55
8.365803956985474,2,3,3,2,-9.66,2.31,0.33,0.58,-0.04,0
8.385803937911987,2,3,3,2,-9.859999999999999,1.53,0.45,0.07000000000000001,0.15,0.78
8.405803918838501,2,3,3,2,-9.77,1.05,0.38,0.47,0.21,0.51
8.425804138183594,2,3,3,2,-9.699999999999999,1.2,0.38,0.73,0.1,0.35
8.445804119110107,2,3,3,2,-9.630000000000001,1.72,0.25,1.44,-0.08,0.11
8.465804100036621,2,3,3,2,-9.43,2.09,0.43,1.45,0.05,0.08
8.485804080963135,2,3,3,2,-9.619999999999999,2.3,0.27,1.59,0.25,0.17
8.505804061889648,2,3,3,2,-9.68,1.99,0.32,0.7,0.07000000000000001,0.33
8.525804042816162,2,3,3,2,-9.619999999999999,1.9,0.39,0.39,-0.01,0.33
8.545804023742676,2,3,3,2,-9.65,1.74,0.39,0.09,0.27,0.06
8.565804004669189,2,3,3,2,-9.699999999999999,1.72,0.36,-0.02,0.31,0.06
8.585803985595703,2,3,3,2,-9.82,1.74,0.21,0.39,0.14,0.11
8.605803966522217,2,3,3,2,-9.75,1.79,0.09,0.73,0.11,0.25
8.62580394744873,2,3,3,2,-9.59,1.95,0.18,0.95,0.12,0.33
8.645803928375244,2,3,3,2,-9.58,1.83,0.07000000000000001,1.36,0.4,0.34
8.665803909301758,2,3,3,2,-9.66,1.89,0.16,1.38,0.4,0.39
8.685804128646851,2,3,3,2,-9.640000000000001,1.87,0.14,1.14,0.32,0.45
8.705804109573364,2,3,3,2,-9.699999999999999,2.06,0.06,1.17,0.16,0.43
8.725804090499878,2,3,3,2,-9.69,2.17,0.05,1.03,0.05,0.45
8.745804071426392,2,3,3,2,-9.640000000000001,2.05,0.06,0.78,-0.09,0.35
8.765804052352905,2,3,3,2,-9.68,1.61,0.12,0.64,-0.1,0.29
8.785804033279419,2,3,3,2,-9.67,1.57,0.42,0.66,-0.31,-0.34
8.805804014205933,2,3,3,2,-9.6,1.57,0.5,-0.02,-0.5,-0.86
8.825803995132446,2,3,3,2,-9.66,1.48,0.58,-0.28,-0.51,-1.25
8.84580397605896,2,3,3,2,-9.69,1.22,0.67,-1.67,-1.09,-2.18
8.865803956985474,2,3,3,2,-9.65,0.73,0.9399999999999999,-2.28,-1.18,-2.49
8.885803937911987,2,3,3,2,-9.74,-1.05,1.41,-3.59,-1.16,-4.16
8.905803918838501,2,3,3,2,-9.68,-2.09,1.84,-4.36,-0.99,-6.03
8.925804138183594,2,3,3,2,-9.83,-2.8,2.22,-4.81,-1.02,-7.16
8.945804119110107,2,3,3,2,-8.91,-2.65,2.6,-6.12,-1.15,-10.15
8.965804100036621,2,3,3,2,-9.779999999999999,-0.92,1.56,-5.53,-0.07000000000000001,-11.18
8.985804080963135,2,3,3,2,-9.08,1.92,1.25,-7.02,-0.26,-12.27
9.005804061889648,2,3,3,2,-7.44,3.35,-0.01,-8.619999999999999,-0.79,-12.01
9.025804042816162,2,3,3,2,-7.04,1.42,0.09,-9.359999999999999,-0.49,-11.93
9.045804023742676,2,3,3,2,-10.04,-1.31,-0.06,-8.359999999999999,0.59,-11.4
9.065804004669189,2,3,3,2,-10.82,-2.14,-0.02,-8.279999999999999,0.57,-11.72
9.085803985595703,2,3,3,2,-10.5,1.91,-0.26,-3.56,3.1,-12.02
9.105803966522217,2,3,3,2,-9.06,1.04,0.05,-4.69,2.45,-11.49
9.12580394744873,2,3,3,2,-9.289999999999999,-1.89,0.17,-4.22,2.32,-11.67
9.145803928375244,2,3,3,2,-9.789999999999999,-1.1,0.39,-0.36,2.16,-11.28
9.165803909301758,2,3,3,2,-9.83,0.32,0.75,-0.17,1.75,-11.06
9.185804128646851,2,3,3,2,-10.45,-0.97,0.2,0.31,-0.14,-10.76
9.205804109573364,2,3,3,2,-9.460000000000001,-1.97,0.98,3.05,-2.05,-9.66
9.225804090499878,2,3,3,2,-8.85,-2.16,1.33,2.57,-1.52,-9.01
9.245804071426392,2,3,3,2,-9.779999999999999,-1.29,0.53,1.87,-2.3,-6.19
9.265804052352905,2,3,3,2,-9.65,-0.6,0,1.85,-2.17,-5.94
9.285804033279419,2,3,3,2,-10.58,-1.11,-1.83,0.7,-1.51,-2.61
9.305804014205933,2,3,3,2,-11.59,-1.3,-1.41,0.16,-1.15,-0.33
9.325803995132446,2,3,3,2,-11.89,0.15,-0.92,-0.32,-0.71,0.76
9.34580397605896,2,3,3,2,-12.23,0.9399999999999999,-1.33,-2.53,0.59,5.68
9.366804122924805,2,3,3,1,-13.94,2.8,-1.61,-3.12,1.08,7.78
9.386804103851318,2,3,3,1,-20.28,2.92,-3.71,-7.84,2.81,15.67
9.406804084777832,2,3,3,1,-24.6,5.12,-3.65,-4.72,1.07,21.87
9.426804065704346,2,3,3,1,-27.26,7.03,-3.16,-0.62,-0.39,23.82
9.446804046630859,2,3,3,1,-34.15,12.46,0.23,16.08,-6.86,26.45
9.466804027557373,2,3,3,1,-31,5.45,5.02,17.79,-7.28,26.18
9.486804008483887,2,3,3,1,-18.02,4.72,6.32,18.21,-2.66,21.73
9.5068039894104,2,3,3,1,-4.21,-15.18,1.09,4.98,9.220000000000001,16.4
9.526803970336914,2,3,3,1,-3.13,-34.19,6.34,-9.52,22.63,8.34
9.546803951263428,2,3,3,1,-4.37,0.46,-3,14.35,5.26,5.66
9.566803932189941,2,3,3,1,-4.3,-0.21,3.21,2.42,-4.8,6.52
9.586803913116455,2,3,3,1,-1.37,-3.55,2.94,-12.67,-3.19,1.16
9.606804132461548,2,3,3,1,1.75,-2.76,-0.14,-8.199999999999999,1.67,-1.3
9.626804113388062,2,3,3,1,2.18,-1.12,-3.11,5.62,2.1,-0.54
9.646804094314575,2,3,3,1,0.9399999999999999,5.64,-2.36,12,-0.01,-0.83
9.666804075241089,2,3,3,1,0.42,4.48,-1.31,9.5,0.87,1.62
9.686804056167603,2,3,3,1,0.33,2.3,0.5,8.039999999999999,0.82,3.48
9.706804037094116,2,3,3,1,-0.29,0.97,1.9,5.29,1.21,2.73
9.72680401802063,2,3,3,1,-0.57,0.93,2.24,0.03,0.57,1.07
9.746803998947144,2,3,3,1,-0.01,-0.23,1.52,-5.75,-0.17,0.36
9.766803979873657,2,3,3,1,0.22,-0.2,0.97,-7.69,0.09,0.36
9.786803960800171,2,3,3,1,-0.13,0.3,-0.01,-8.890000000000001,-0.32,1.09
9.806803941726685,2,3,3,1,-0.28,-2.36,-0.09,-7.13,-1.32,1.21
9.826803922653198,2,3,3,2,-0.47,-3.32,0.14,-3.62,-1.59,0.59
9.846804141998291,2,3,3,2,-1.46,-4.32,0.43,0.4,-1.82,-0.66
9.866804122924805,2,3,3,2,-1.64,-4.05,0.5,3.75,-2.83,-2.69
9.886804103851318,2,3,3,2,0.3,-0.85,-1.88,6.18,-2.14,-3.63
9.906804084777832,2,3,3,2,-2.37,-5.65,3.01,9.93,-0.52,-4.55
9.926804065704346,2,3,3,2,-14.77,39.45,-19.76,-17.84,-10.63,-1.99
9.946804046630859,2,3,3,2,-29.18,-5.9,-12.33,12.51,2.6,0.89
9.966804027557373,2,3,3,2,-19.89,-4.59,-11.32,-8.65,7.07,-7.97
9.986804008483887,2,3,3,2,-37.75,-30.47,6.21,-10.26,-3.2,-17.68
10.0068039894104,2,3,3,2,-11.66,39.46,-6.95,41.29,10.92,-26.39
10.02680397033691,2,3,3,2,0.84,39.46,-2.82,-8.1,0.46,-16.14
10.04680395126343,2,3,3,2,-6.22,10.76,-9.82,-36.91,1.05,9.82
10.06680393218994,2,3,3,2,-14.49,8.470000000000001,-7.1,-12.08,-3.14,11.81
10.08680391311646,2,3,3,2,-23.46,-15.27,-2.54,-8.67,-3.05,4.93
10.10680413246155,2,3,3,2,-13.89,-2.42,1.53,12,-1.39,-0.31
10.12680411338806,2,3,3,2,-9.789999999999999,8.800000000000001,1.63,14.37,1.65,0.4
10.14680409431458,2,3,3,2,-5.5,8.77,1.74,3.02,1.84,3.45
10.16680407524109,2,3,3,2,-3.2,4.93,2.2,-5.22,1.22,8.33
10.1868040561676,2,3,3,2,-6.55,0.11,2.39,-7.25,-0.6899999999999999,7.89
10.20680403709412,2,3,3,2,-8.779999999999999,-2.54,0.8100000000000001,-8.449999999999999,-1.09,3.48
10.22680401802063,2,3,3,2,-7.23,-2.64,-0.43,-7.93,0.64,1.71
10.24680399894714,2,3,3,2,-7.14,-1.28,-1.81,-5.61,1.97,2.93
10.26680397987366,2,3,3,2,-7.02,-0.68,-1.99,-2.66,1.08,3.04
10.28680396080017,2,3,3,2,-7.91,-1.36,-1.29,3.85,0.05,2.71
10.30680394172668,2,3,3,2,-9.720000000000001,-1.58,-0.04,9.9,-0.66,2.3
10.3268039226532,2,3,3,2,-12.67,-1.89,1.6,12.83,-1.58,1.85
10.34680414199829,2,3,3,2,-12.39,-0.54,1.87,13.21,-0.61,0.63
10.3668041229248,2,3,3,2,-9.779999999999999,3.13,1.52,9.369999999999999,0.14,-0.47
10.38780403137207,2,3,3,2,-9.32,3.49,0.6899999999999999,0.78,0.17,-0.67
10.40780401229858,2,3,3,2,-9.779999999999999,1.78,-0.51,-4.46,0.03,-0.11
10.4278039932251,2,3,3,2,-9.68,1.09,-0.96,-4.37,-0.1,0.88
10.44780397415161,2,3,3,2,-9.359999999999999,0.43,-0.82,-2.2,0.29,1.88
10.46780395507812,2,3,3,2,-9.26,0.26,-0.22,-0.27,0.26,2.41
10.48780393600464,2,3,3,2,-9.56,0.32,0.23,0.32,0.13,2.35
10.50780391693115,2,3,3,2,-9.640000000000001,0.64,0.7,0.79,-0.18,2.13
10.52780413627625,2,3,3,2,-9.92,0.8100000000000001,0.65,1.5,0.13,1.79
10.54780411720276,2,3,3,2,-9.67,1.26,0.18,1.85,0.01,1.4
10.56780409812927,2,3,3,3,-9.5,1.56,0.1,1.94,0.15,1.31
10.58780407905579,2,3,3,3,-9.539999999999999,1.74,-0.08,0.73,-0.06,1.39
10.6078040599823,2,3,3,3,-9.640000000000001,1.72,-0.12,-0.63,0.1,1.57
10.62780404090881,2,3,3,3,-9.66,1.3,-0.1,-0.87,0.12,1.7
10.64780402183533,2,3,3,3,-9.66,1.19,0.08,-0.3,-0.17,1.57
10.66780400276184,2,3,3,3,-9.83,1.66,0.26,0.32,-0.35,1.57
10.68780398368835,2,3,3,3,-9.5,1.9,0.26,1.06,-0.5600000000000001,1.24
10.70780396461487,2,3,3,3,-9.460000000000001,2.09,0.12,1.88,-0.03,1.1
10.72780394554138,2,3,3,3,-9.5,1.94,0.11,1.65,-0.13,1.03
10.7478039264679,2,3,3,3,-9.5,1.87,0,1.32,-0.24,0.87
10.76780390739441,2,3,3,3,-9.630000000000001,2.02,0.05,0.92,-0.17,0.73
10.7878041267395,2,3,3,3,-9.779999999999999,1.66,0.15,0.43,-0.09,0.75
10.80780410766602,2,3,3,3,-9.76,1.71,0.23,0.39,-0.1,0.58
10.82780408859253,2,3,3,3,-9.539999999999999,1.96,0.31,0.55,-0.26,0.27
10.84780406951904,2,3,3,3,-9.6,1.96,0.27,0.41,-0.1,0.06
10.86780405044556,2,3,3,3,-9.77,2.19,0.05,0.08,-0.15,-0.06
10.88780403137207,2,3,3,3,-9.57,2.21,-0.07000000000000001,0.07000000000000001,-0.3,-0.16
10.90780401229858,2,3,3,3,-9.57,2.23,0,-0.16,-0.01,-0.05
10.9278039932251,2,3,3,3,-9.630000000000001,2.14,-0.04,-0.06,-0.03,0.01
10.94780397415161,2,3,3,3,-9.56,2.15,0.04,-0.01,-0.24,0.09
10.96780395507812,2,3,3,3,-9.619999999999999,2.03,0.18,0,-0.2,0.11
10.98780393600464,2,3,3,3,-9.68,1.77,0.06,-0.21,-0.14,0.08
11.00780391693115,2,3,3,3,-9.630000000000001,1.79,0.09,-0.28,-0.14,0.02
11.02780413627625,2,3,3,3,-9.609999999999999,1.77,0.07000000000000001,-0.07000000000000001,-0.14,0.11
11.04780411720276,2,3,3,3,-9.77,1.66,0.04,0.31,-0.02,0.04
11.06780409812927,2,3,3,2,-9.640000000000001,2.1,0.14,0.74,-0.09,-0.14
11.08780407905579,2,3,3,2,-9.529999999999999,2.31,0.01,0.6,0.09,-0.09
11.1078040599823,2,3,3,2,-9.66,2.31,0.03,0.2,-0.13,-0.17
11.12780404090881,2,3,3,2,-9.5,2.62,-0.01,0.04,-0.11,-0.19
11.14780402183533,2,3,3,2,-9.56,2.62,-0.18,-0.57,0.33,0.11
11.16780400276184,2,3,3,2,-9.529999999999999,2.28,0.08,-0.7,0.29,0.41
11.18780398368835,2,3,3,2,-9.59,1.99,-0.01,-0.14,0.31,0.42
11.20780396461487,2,3,3,2,-9.550000000000001,2.03,0.17,0.19,0.11,0.31
11.22780394554138,2,3,3,2,-9.6,2.03,0.08,0.19,0.21,0.25
11.2478039264679,2,3,3,2,-9.539999999999999,1.99,0.03,-0.05,0.05,0.12
11.26780390739441,2,3,3,1,-9.529999999999999,2.17,0.03,-0.26,-0.12,0.04
11.2878041267395,2,3,3,1,-9.640000000000001,2.3,-0.04,-0.08,-0.07000000000000001,0
11.30780410766602,2,3,3,1,-9.57,2.51,0.04,0.13,0.02,0.21
11.32780408859253,2,3,3,1,-9.59,2.33,0.01,0.13,0.33,0.38
11.34780406951904,2,3,3,1,-9.58,2.05,0.07000000000000001,0.21,0.26,0.37
11.36780405044556,2,3,3,1,-9.640000000000001,1.88,0.06,0.14,0.33,0.27
11.38780403137207,2,3,3,1,-9.67,1.95,-0.03,0.2,0.18,0.13
11.40880393981934,2,3,3,1,-9.609999999999999,2.34,0.02,0.3,-0.04,0.08
11.42880392074585,2,3,3,1,-9.52,2.38,0.01,0.23,0.21,0.11
11.44880414009094,2,3,3,1,-9.49,2.2,-0.05,-0.16,0.3,0.21
11.46880412101746,2,3,3,1,-9.529999999999999,2.17,0.04,-0.15,0.21,0.18
11.48880410194397,2,3,3,1,-9.6,2.22,-0.07000000000000001,0.11,0.17,0.11
11.50880408287048,2,3,3,1,-9.6,2.19,0.01,0.23,0.09,0.1
11.528804063797,2,3,3,2,-9.58,2.23,-0.04,0.15,0.01,0.05
11.54880404472351,2,3,3,2,-9.529999999999999,2.31,-0.16,0.1,0.11,0
11.56880402565002,2,3,3,2,-9.470000000000001,2.26,0.01,0.01,-0.04,-0.05
11.58880400657654,2,3,3,2,-9.59,2.27,-0.11,0.06,0.05,0.01
11.60880398750305,2,3,3,2,-9.59,2.24,-0.03,-0.01,-0.09,0.03
11.62880396842957,2,3,3,2,-9.57,2.36,-0.03,0.02,0.1,0.12
11.64880394935608,2,3,3,2,-9.539999999999999,2.28,-0.19,0.04,0.16,0.15
11.66880393028259,2,3,3,2,-9.56,2.28,-0.06,0.07000000000000001,0.1,0.17
11.68880391120911,2,3,3,2,-9.59,2.19,-0.12,0.03,0.06,0.12
11.7088041305542,2,3,3,2,-9.640000000000001,2.1,0.04,0.09,0.06,0.12
11.72880411148071,2,3,3,2,-9.609999999999999,2.07,-0.03,-0.09,0.11,0.12
11.74880409240723,2,3,3,2,-9.529999999999999,2.03,-0.03,0.03,-0.12,0.04
11.76880407333374,2,3,3,2,-9.630000000000001,2.18,0,0.04,-0.1,-0.06
11.78880405426025,2,3,3,2,-9.58,2.12,-0.05,0.06,-0.2,-0.12
11.80880403518677,2,3,3,2,-9.58,2.28,-0.01,0.03,-0.3,-0.13
11.82880401611328,2,3,3,2,-9.52,2.38,-0.03,-0.06,-0.26,-0.1
11.84880399703979,2,3,3,2,-9.56,2.3,-0.1,0.09,-0.14,-0.05
11.86880397796631,2,3,3,2,-9.57,2.26,0.04,0.16,-0.14,0.04
11.88880395889282,2,3,3,2,-9.58,2.3,-0.09,0.4,-0.14,0.01
11.90880393981934,2,3,3,2,-9.52,2.34,0.05,0.38,-0.16,0.01
11.92880392074585,2,3,3,2,-9.640000000000001,2.3,0,0.35,0.09,0.06
11.94880414009094,2,3,3,2,-9.59,2.18,-0.04,0.19,0.03,0.09
11.96880412101746,2,3,3,2,-9.56,2.17,0.01,0.24,-0.02,-0.02
11.98880410194397,2,3,3,2,-9.58,2.22,0.01,0.2,-0.09,-0.03
12.00880408287048,2,3,3,2,-9.550000000000001,2.28,0.03,0.21,-0.03,-0.08
12.028804063797,2,3,3,1,-9.550000000000001,2.25,0.02,0.12,-0.06,-0.13
12.04880404472351,2,3,3,1,-9.550000000000001,2.25,0,0.04,-0.04,-0.18
12.06880402565002,2,3,3,1,-9.609999999999999,2.19,0.03,-0.05,-0.12,-0.22
12.08880400657654,2,3,3,1,-9.56,2.19,-0.04,-0.1,-0.14,-0.22
12.10880398750305,2,3,3,1,-9.619999999999999,2.24,0.01,0,0.01,-0.15
12.12880396842957,2,3,3,1,-9.550000000000001,2.23,0,0.12,-0.03,-0.07000000000000001
12.14880394935608,2,3,3,1,-9.57,2.2,0,0.19,0.05,-0.02
12.16880393028259,2,3,3,1,-9.52,2.15,0.04,0.15,0.01,-0.03
12.18880391120911,2,3,3,1,-9.640000000000001,2.08,-0.12,0.15,0,-0.04
12.2088041305542,2,3,3,1,-9.539999999999999,2.22,0,0.04,-0.14,0.04
12.22880411148071,2,3,3,1,-9.550000000000001,2.02,0.04,0.17,0,0.02
12.24880409240723,2,3,3,1,-9.609999999999999,2.05,0,0.31,-0.02,0.03
12.26880407333374,2,3,3,1,-9.68,2.07,0.03,0.32,-0.1,-0.09
12.28880405426025,2,3,3,1,-9.640000000000001,2.17,-0.04,0.37,-0.1,-0.1
12.30880403518677,2,3,3,1,-9.529999999999999,2.23,0.01,0.29,-0.06,-0.05
12.32880401611328,2,3,3,1,-9.539999999999999,2.15,0,0.2,-0.04,-0.13
12.34880399703979,2,3,3,1,-9.609999999999999,2.22,-0.03,0.15,-0.12,-0.21
12.36880397796631,2,3,3,1,-9.57,2.22,0.02,0.05,-0.15,-0.22
12.38880395889282,2,3,3,1,-9.550000000000001,2.32,-0.11,-0.03,-0.1,-0.14
12.40880393981934,2,3,3,1,-9.51,2.4,-0.05,-0.05,-0.11,-0.08
12.42980408668518,2,3,3,1,-9.5,2.35,-0.04,0.01,0.05,0.01
12.44980406761169,2,3,3,1,-9.59,2.23,-0.07000000000000001,0.03,0.11,0.06
12.46980404853821,2,3,3,1,-9.6,2.14,0.01,0.12,0.01,0.08
12.48980402946472,2,3,3,1,-9.539999999999999,2.1,-0.02,0.19,0,0.03
12.50980401039124,2,3,3,1,-9.65,2.13,0.04,0.25,0.05,0.05
12.52980399131775,2,3,3,1,-9.66,2.12,0.06,0.17,-0.04,0.03
12.54980397224426,2,3,3,1,-9.529999999999999,2.12,0.01,0.14,-0.02,-0.05
12.56980395317078,2,3,3,1,-9.58,2.19,0.04,0.09,-0.02,-0.12
12.58980393409729,2,3,3,1,-9.58,2.23,-0.05,0,0.01,-0.08
12.6098039150238,2,3,3,1,-9.630000000000001,2.28,-0.04,-0.11,-0.07000000000000001,-0.08
12.6298041343689,2,3,3,1,-9.52,2.37,0.02,-0.12,-0.08,-0.13
12.64980411529541,2,3,3,1,-9.529999999999999,2.28,0.02,-0.14,0.01,-0.13
12.66980409622192,2,3,3,1,-9.619999999999999,2.26,0.01,-0.16,-0.02,-0.15
12.68980407714844,2,3,3,1,-9.6,2.19,-0.17,-0.26,0.11,-0.05
12.70980405807495,2,3,3,1,-9.58,2.21,0,-0.2,0.05,-0.03
12.72980403900146,2,3,3,1,-9.58,2.27,0.01,-0.19,-0.01,-0.04
12.74980401992798,2,3,3,1,-9.57,2.2,-0.01,-0.19,0,-0.02
12.76980400085449,2,3,3,1,-9.630000000000001,2.11,0.02,-0.2,0.03,0.01
12.78980398178101,2,3,3,1,-9.58,2.16,-0.01,-0.08,0.05,-0.07000000000000001
12.80980396270752,2,3,3,1,-9.56,2.18,0,-0.04,0.03,-0.09
12.82980394363403,2,3,3,1,-9.59,2.09,0.03,-0.08,-0.08,-0.1
12.84980392456055,2,3,3,1,-9.59,2.2,-0.01,-0.05,-0.06,-0.12
12.86980414390564,2,3,3,1,-9.58,2.25,0.01,-0.07000000000000001,-0.07000000000000001,-0.11
12.88980412483215,2,3,3,1,-9.57,2.17,-0.04,0.03,-0.07000000000000001,-0.08
12.90980410575867,2,3,3,1,-9.59,2.15,-0.04,0.05,0.03,-0.09
12.92980408668518,2,3,3,1,-9.619999999999999,2.22,-0.04,0.02,-0.11,-0.13
12.94980406761169,2,3,3,1,-9.52,2.24,-0.08,-0.02,-0.16,-0.08
12.96980404853821,2,3,3,1,-9.58,2.24,0.03,0.04,-0.06,-0.05
12.98980402946472,2,3,3,1,-9.59,2.16,-0.01,0.07000000000000001,-0.09,-0.05
13.00980401039124,2,3,3,1,-9.58,2.16,0,0.19,0.01,-0.01
13.02980399131775,2,3,3,1,-9.6,2.18,0.01,0.33,-0.02,-0.06
13.04980397224426,2,3,3,1,-9.57,2.17,0,0.29,0.02,-0.03
13.06980395317078,2,3,3,1,-9.609999999999999,2.18,0,0.21,-0.07000000000000001,0.02
13.08980393409729,2,3,3,1,-9.539999999999999,2.2,-0.03,0.1,-0.04,0
13.1098039150238,2,3,3,1,-9.6,2.19,0,0.16,-0.05,-0.04
13.1298041343689,2,3,3,1,-9.609999999999999,2.22,0.03,0.21,-0.05,-0.04
13.14980411529541,2,3,3,1,-9.52,2.3,-0.05,0.07000000000000001,-0.06,-0.07000000000000001
13.16980409622192,2,3,3,1,-9.52,2.35,0,0.01,-0.01,-0.01
13.18980407714844,2,3,3,1,-9.65,2.33,-0.16,-0.04,-0.09,0
13.20980405807495,2,3,3,1,-9.52,2.45,-0.11,0.01,-0.15,0.11
13.22980403900146,2,3,3,1,-9.359999999999999,2.68,-0.15,0.66,-0.14,0.17
13.24980401992798,2,3,3,1,-9.4,2.62,-0.16,1.02,-0.17,0.2
13.26980400085449,2,3,3,1,-9.31,2.33,-0.08,1.73,-0.21,0.05
13.28980398178101,2,3,3,1,-9.43,2.11,-0.39,2.91,-0.4,0.17
13.30980396270752,2,3,3,1,-9.859999999999999,1.63,-0.39,4.26,-0.52,0.58
13.32980394363403,2,3,3,1,-9.75,1.61,-0.3,5.43,-0.64,1.06
13.34980392456055,2,3,3,1,-9.699999999999999,1.88,-0.21,5.32,-0.9,1.49
13.36980414390564,2,3,3,1,-9.789999999999999,2.01,0.01,3.96,-0.98,1.49
13.38980412483215,2,3,3,1,-9.81,1.58,-0.06,1.22,-1.29,1.29
13.40980410575867,2,3,3,1,-9.779999999999999,1.41,-0.08,0.46,-1.5,1.22
13.42980408668518,2,3,3,1,-9.640000000000001,1.38,-0.26,-0.97,-2.02,1.33
13.44980406761169,2,3,3,1,-9.6,1.61,-0.38,-1.36,-2.12,1.69
13.47080397605896,2,3,3,1,-9.73,2.46,-0.25,-1.55,-2.12,1.95
13.49080395698547,2,3,3,1,-9.609999999999999,2.88,-0.47,-1.61,-1.95,2.64
13.51080393791199,2,3,3,1,-9.65,2.83,-0.24,-1.63,-1.91,2.82
13.5308039188385,2,3,3,1,-9.789999999999999,2.44,-0.05,-2.01,-2.16,3.3
13.55080413818359,2,3,3,1,-9.81,0.95,0.21,-2.16,-2.26,2.93
13.57080411911011,2,3,3,1,-9.800000000000001,0.07000000000000001,0.71,-2.15,-2.24,2.61
13.59080410003662,2,3,3,1,-10.09,-1.1,1.28,-1.82,-2.36,1.19
13.61080408096313,2,3,3,1,-10.31,-1.85,1.97,-1.28,-2.56,0.51
13.63080406188965,2,3,3,1,-10.21,-3.34,2.66,0.92,-1.29,-2.1
13.65080404281616,2,3,3,1,-10.83,-3.71,2.8,-0.25,-0.13,-4.48
13.67080402374268,2,3,3,2,-11.96,-4.13,2.26,-1.37,-0.06,-5.7
13.69080400466919,2,3,3,2,-13.27,-2.95,2.3,-6.95,-2.97,-7.94
13.7108039855957,2,3,3,2,-13.1,-1.22,1.76,-8.119999999999999,-2.86,-8.289999999999999
13.73080396652222,2,3,3,2,-12.89,0.39,0.92,-7.81,0.58,-10.97
13.75080394744873,2,3,3,2,-12.37,2.63,0.28,-6.57,0.23,-12.11
13.77080392837524,2,3,3,2,-11.16,3.69,0.8,-6.98,0.32,-12.48
13.79080390930176,2,3,3,2,-10.15,4.36,0.67,-5.39,2.25,-12.75
13.81080412864685,2,3,3,1,-9.5,3.91,0.68,-3.53,3.11,-13.72
13.83080410957336,2,3,3,1,-8.83,3.34,-0.55,1.51,3.04,-15.31
13.85080409049988,2,3,3,1,-8.630000000000001,3.43,-0.8100000000000001,2.22,1.03,-15.4
13.87080407142639,2,3,3,1,-7.62,3.38,-0.83,2.08,0.73,-15.43
13.89080405235291,2,3,3,1,-7.52,2.23,-1.12,3.6,0.92,-15.53
13.91080403327942,2,3,3,1,-7.67,1.04,-0.64,4.3,0.77,-15.19
13.93080401420593,2,3,3,1,-7.64,0.57,0.03,5.5,0.68,-13
13.95080399513245,2,3,3,1,-7.42,-0.14,0.74,5.5,1.19,-11.38
13.97080397605896,2,3,3,0,-7.76,-0.67,1.03,5.68,1.56,-10.48
13.99080395698547,2,3,3,0,-7.68,-0.79,1.46,6.5,1.7,-8.869999999999999
14.01080393791199,2,3,3,0,-8.119999999999999,-2.11,1.77,7.03,1.64,-8.039999999999999
14.0308039188385,2,3,3,0,-8.31,-2.54,2.09,9.09,1.62,-4.55
14.05080413818359,2,3,3,0,-8.699999999999999,-3.74,2.85,8.460000000000001,2.72,-2.59
14.07080411911011,2,3,3,0,-9.210000000000001,-4.78,2.46,7.43,3.5,-1.79
14.09080410003662,2,3,3,0,-9.380000000000001,-4.98,2.16,4.23,2.66,-0.24
14.11080408096313,2,3,3,0,-9.369999999999999,-5.42,2.29,3.99,2.48,-0.32
14.13080406188965,2,3,3,0,-9.609999999999999,-5.32,2.1,4.99,2.05,-0.57
14.15080404281616,2,3,3,0,-10.15,-5.53,1.24,4.31,2.84,-1.04
14.17080402374268,2,3,3,0,-12.03,-4.79,0.04,4.64,4.01,-1.66
14.19080400466919,2,3,3,0,-15.05,-1.74,5.01,2.65,-5.44,0.49
14.2108039855957,2,3,3,0,-12.43,-3.15,4.75,4.41,-3.53,-0.41
14.23080396652222,2,3,3,0,-11.25,-3.25,2.02,9.06,1.91,2.08
14.25080394744873,2,3,3,0,-7.82,2.72,-2.95,9.279999999999999,1.21,5.64
14.27080392837524,2,3,3,0,-6.05,5.4,-3.81,7.31,2.42,6.79
14.29080390930176,2,3,3,0,-5.96,5.9,-3.42,3.24,6.05,8.02
14.31080412864685,2,3,3,0,-9.51,4.31,-2.73,3.25,6.97,9.119999999999999
14.33080410957336,2,3,3,0,-13.14,3.45,-0.45,3.26,6.41,11.54
14.35080409049988,2,3,3,0,-11.11,3.87,0.36,4.07,7.1,11.54
14.37080407142639,2,3,3,0,-9.699999999999999,4.28,-1.06,3.26,7.31,11.96
14.39080405235291,2,3,3,0,-9.85,4,-2,-1.14,7.12,12.79
14.41080403327942,2,3,3,0,-10.1,2.07,-2.61,-2.79,7.04,12.47
14.43080401420593,2,3,3,0,-9.91,0.72,-1.73,-3.59,6.86,11.96
14.45080399513245,2,3,3,0,-9.800000000000001,1.43,-1.32,-4.19,7.04,11.41
14.47080397605896,2,3,3,0,-9.52,1.61,-1.06,-5.53,7.22,11.15
14.4918041229248,2,3,3,0,-9.58,0.98,-1.25,-10.18,8.35,10.98
14.51180410385132,2,3,3,0,-9.609999999999999,0.8100000000000001,-1.63,-10.88,8.720000000000001,10.92
14.53180408477783,2,3,3,0,-9.630000000000001,1.05,-2.18,-12.5,9.42,11.13
14.55180406570435,2,3,3,0,-9.710000000000001,0.25,-2.34,-12.11,9.1,11.55
14.57180404663086,2,3,3,0,-9.9,0.3,-2.11,-10.45,8.460000000000001,11.99
14.59180402755737,2,3,3,0,-9.609999999999999,-0.88,-1.64,-7.7,8,12.37
14.61180400848389,2,3,3,0,-9.789999999999999,-0.9,-1.42,-5.71,7.01,12.36
14.6318039894104,2,3,3,0,-9.859999999999999,1.14,-1.45,-4.44,5.97,10.71
14.65180397033691,2,3,3,0,-9.74,1.72,-1.73,-5.8,5.22,9.44
14.67180395126343,2,3,3,0,-9.619999999999999,1.2,-1.84,-8.1,4.83,9.199999999999999
14.69180393218994,2,3,3,0,-9.91,0.3,-1.91,-9.07,4.69,8.92
14.71180391311646,2,3,3,0,-9.75,0.04,-1.98,-9.5,4.02,8.85
14.73180413246155,2,3,3,0,-9.390000000000001,-0.2,-2.17,-8.73,3.26,8.52
14.75180411338806,2,3,3,0,-9.41,0.92,-1.88,-8.130000000000001,2.82,7.7
14.77180409431458,2,3,3,0,-9.960000000000001,1.49,-1.91,-7.96,2.44,7.2
14.79180407524109,2,3,3,0,-10.41,1.86,-2.64,-7.49,1.5,7.08
14.8118040561676,2,3,3,0,-10.68,1.99,-2.59,-6.38,0.84,7.44
14.83180403709412,2,3,3,0,-12.19,-0.52,-2.35,-4.81,0.32,7.79
14.85180401802063,2,3,3,0,-12.57,-2.24,-1.48,-2.82,-0.85,6.66
14.87180399894714,2,3,3,0,-13.89,-5.06,0.93,-3.07,-1.9,3.28
14.89180397987366,2,3,3,0,-14.24,-4.46,3.47,-6.17,-5.22,-1.71
14.91180396080017,2,3,3,0,-14.2,-3.75,4.5,-14.2,-6.74,-6.9
14.93180394172668,2,3,3,0,-13.02,-2.09,3.15,-16.42,-7.07,-12.03
14.9518039226532,2,3,3,0,-12.38,1.79,-1.55,-13.72,-4.66,-16.59
14.97180414199829,2,3,3,0,-14.98,4.45,-1.72,-11.37,-3.57,-18.52
14.9918041229248,2,3,3,0,-16.09,6.29,-1.71,-10.73,-1.35,-17
15.01180410385132,2,3,3,0,-13.53,7.05,-1.94,-8.74,1.03,-16.15
15.03180408477783,2,3,3,0,-12.61,6.72,-2.64,-6.86,2.01,-19.86
15.05180406570435,2,3,3,0,-10.71,4.73,-2.79,-0.99,2,-23.93
15.07180404663086,2,3,3,0,-9.630000000000001,5.61,-2.75,5.79,1.52,-26.51
15.09180402755737,2,3,3,0,-8.51,6.4,-2.84,10.87,0.6,-28.4
15.11180400848389,2,3,3,0,-7.9,6.52,-2.72,14.19,-1.51,-29.03
15.1318039894104,2,3,3,0,-6.04,6.36,-2.52,15.39,-5,-27.16
15.15180397033691,3,3,3,0,-5.11,6.86,-2.67,17.32,-6.89,-24.47
15.17180395126343,3,3,3,0,-4.02,7.69,-2.5,17.57,-7.23,-20.91
15.19180393218994,3,3,3,0,-3.28,8.880000000000001,-1.67,16.32,-8.869999999999999,-18.48
15.21180391311646,3,3,3,0,-3.57,7.85,0.04,12.53,-9.539999999999999,-16.61
15.23180413246155,3,3,3,0,-3.98,5.85,0.73,10.11,-6.69,-11.5
15.25180411338806,3,3,3,0,-5.65,3.41,2.81,12.72,-0.52,-7.7
15.27180409431458,3,3,3,0,-5.73,-1.24,-0.25,13.24,7.54,-4.9
15.29180407524109,3,3,3,0,-11.37,-7.59,0.89,9.92,13.78,-1.58
15.3118040561676,3,3,3,0,-16.82,-18.56,2.54,7.22,7.53,-1.27
15.33180403709412,3,3,3,0,-14.6,-12.06,1.79,10.54,2.14,-2.35
15.35180401802063,3,3,3,0,-11.92,-5.73,-1.26,7.72,-1.5,-3.07
15.37180399894714,3,3,3,0,-9.109999999999999,7.52,-4.37,10.8,-3.99,0.38
15.39180397987366,3,3,3,0,-15.06,-4.54,6.03,16.29,-14.47,5.76
15.41180396080017,3,3,3,0,-10.99,-0.75,7.25,25.79,-11.51,5.85
15.43180394172668,3,3,3,0,-12.62,2.65,1.72,19.43,1.47,9.75
15.4518039226532,3,3,3,0,-8.640000000000001,15.47,-7.09,8.25,6.85,8.25
15.47180414199829,3,3,3,0,-3.73,10.71,-6.99,-3.11,8.6,8.449999999999999
15.4918041229248,3,3,3,0,-10.24,7,-5.09,-6.56,9.35,12.62
15.51280403137207,3,3,3,0,-13.34,3.25,-2.35,-4.07,7.89,13.21
15.53280401229858,3,3,3,0,-10.39,-0.02,-1.23,5.07,7.81,12.85
15.5528039932251,3,3,3,0,-8.83,3.81,-1.69,8.199999999999999,7.78,13.94
15.57280397415161,3,3,3,0,-8.890000000000001,5.89,-2.52,5.16,7.98,13.93
15.59280395507812,3,3,3,0,-9.01,3.92,-2.65,-9.5,9.449999999999999,13.28
15.61280393600464,3,3,3,0,-9.77,0.92,-1.56,-13.22,10.01,12.98
15.63280391693115,3,3,3,0,-9.82,1.99,-0.8,-12.67,9.99,13.12
15.65280413627625,3,3,3,0,-9.48,2.16,-1.15,-13.46,10.39,14.37
15.67280411720276,3,3,3,0,-9.44,0.76,-2.16,-13.69,10.67,14.43
15.69280409812927,3,3,3,0,-9.4,0.22,-2.5,-12.26,10.83,14.35
15.71280407905579,3,3,3,0,-9.640000000000001,-1.52,-1.99,-8.470000000000001,9.949999999999999,16.03
15.7328040599823,3,3,3,0,-10.15,-2.42,-1.31,-6.61,9.220000000000001,15.93
15.75280404090881,3,3,3,0,-10.42,-1.56,-0.73,-4.52,7.96,14.8
15.77280402183533,3,3,3,2,-10.38,-0.68,-0.75,-4.74,6.68,13.41
15.79280400276184,3,3,3,2,-10.65,-0.09,-1.2,-6.03,5.58,11.59
15.81280398368835,3,3,3,2,-10.46,-0.5600000000000001,-1.27,-10.14,5.05,9.779999999999999
15.83280396461487,3,3,3,2,-9.890000000000001,-1,-1.84,-11.47,4.99,9.140000000000001
15.85280394554138,3,3,3,2,-9.59,-0.5600000000000001,-2.21,-12.51,4.5,7.41
15.8728039264679,3,3,3,2,-10.32,0.93,-2.28,-10.77,2.83,6.47
15.89280390739441,3,3,3,2,-10.8,2.64,-1.67,-7.47,1.01,6.4
15.9128041267395,3,3,3,2,-10.95,2.4,-1.85,-6.88,-0.14,6.76
15.93280410766602,3,3,3,2,-12.16,0.54,-2.21,-7.52,-0.12,7.35
15.95280408859253,3,3,3,2,-12.99,-4.5,-1.51,-5.84,-0.76,7.34
15.97280406951904,3,3,3,3,-13.59,-5.33,0.23,-3.33,-2.49,5.19
15.99280405044556,3,3,3,3,-13.94,-4.87,4.45,-4.52,-5.36,0.97
16.01280403137207,3,3,3,3,-13.75,-4.94,4,-10.48,-7.14,-4.36
16.03280401229858,3,3,3,3,-12.79,-0.75,-0.25,-13.17,-6.98,-10.91
16.0528039932251,3,3,3,3,-13.51,3.83,-1.98,-10.99,-4.74,-15.86
16.07280397415161,3,3,3,3,-16.13,4.38,-0.93,-10.23,-3.42,-18.26
16.09280395507812,3,3,3,3,-15.8,7.94,-0.8,-11.72,-1.31,-17.73
16.11280393600464,3,3,3,3,-13.61,8.039999999999999,-1.98,-8.890000000000001,1.73,-15.56
16.13280391693115,3,3,3,3,-12.23,6.91,-2.64,-6.32,3.19,-19.97
16.15280413627625,3,3,3,3,-9.67,6.35,-2.53,-1.54,3.21,-25.07
16.17280411720276,3,3,3,3,-8.35,6.65,-2.6,4.44,2.84,-27.28
16.19280409812927,3,3,3,3,-6.8,6.93,-2.85,9.369999999999999,2.63,-27.75
16.21280407905579,3,3,3,3,-6.85,7.22,-2.63,13.46,1.62,-27.45
16.2328040599823,3,3,3,3,-5.5,7.32,-2.6,12.12,-2.19,-25.67
16.25280404090881,3,3,3,3,-4.52,7.61,-2.35,12.97,-4.93,-24.39
16.27280402183533,3,3,3,3,-4.09,6.94,-1.94,13.48,-4.58,-21.81
16.29280400276184,3,3,3,3,-4.01,7.05,-0.17,12.57,-4.58,-19.55
16.31280398368835,3,3,3,2,-4.1,4.86,0.54,10.67,-4.7,-18.49
16.33280396461487,3,3,3,2,-6.11,2.97,1.06,10.49,-1.73,-15.45
16.35280394554138,3,3,3,2,-6.29,0.85,0.99,11.38,2.45,-12.62
16.3728039264679,3,3,3,2,-7.53,-4.17,-0.07000000000000001,15.56,7.81,-7.22
16.39280390739441,3,3,3,2,-12.8,-8.880000000000001,3.38,18.96,7.37,-0.84
16.4128041267395,3,3,3,2,-15.43,-14.37,4.75,18.98,1.77,0.38
16.43280410766602,3,3,3,2,-13.59,-9.800000000000001,1.93,15.01,-1.41,-0.22
16.45280408859253,3,3,3,2,-11.23,-1.37,-4.17,7.2,-1.46,-1.47
16.47280406951904,3,3,3,1,-12.38,5.44,-0.4,6.4,-3.73,-0.37
16.49280405044556,3,3,3,1,-11.05,1.1,7.76,8.65,-15.92,4.42
16.51280403137207,3,3,3,1,-8.85,1.49,5.34,10.84,-9.210000000000001,6.63
16.53380393981934,3,3,3,1,-9.539999999999999,11.83,-5.61,10.56,6.5,7.58
16.55380392074585,3,3,3,1,-5.71,12.36,-9.68,9.16,6.62,8.529999999999999
16.57380414009094,3,3,3,1,-10.87,6.11,-5.08,-0.77,8.33,10.99
16.59380412101746,3,3,3,1,-11.64,6.39,-3.5,2.67,7.93,13.87
16.61380410194397,3,3,3,0,-10.1,2.39,-1.88,1.19,8.449999999999999,13.16
16.63380408287048,3,3,3,0,-9.93,2.83,-1.26,1.88,8.34,13.44
16.653804063797,3,3,3,0,-9.49,4.61,-2.81,2.02,7.91,14.16
16.67380404472351,3,3,3,0,-9.130000000000001,3.94,-3.02,-2.09,8.140000000000001,14.14
16.69380402565002,3,3,3,0,-9.57,2.6,-2.22,-9.130000000000001,9.58,13.89
16.71380400657654,3,3,3,0,-10.02,1.52,-1.41,-15.11,11.1,13.98
16.73380398750305,3,3,3,0,-9.56,0.09,-1,-18.02,11.15,14.46
16.75380396842957,3,3,3,0,-9.460000000000001,0.6,-1.27,-16.03,10.46,14
16.77380394935608,3,3,3,0,-9.279999999999999,-0.92,-2.35,-14.12,10.43,13.82
16.79380393028259,3,3,3,0,-9.539999999999999,-2.49,-1.96,-12.66,10.37,13.9
16.81380391120911,3,3,3,0,-10.12,-2.82,-1.26,-9.699999999999999,9.289999999999999,14.08
16.8338041305542,3,3,3,0,-10.02,-1.02,-1.27,-6.75,7.64,13.89
16.85380411148071,3,3,3,0,-9.84,1.45,-1.87,-5.49,6.51,12.4
16.87380409240723,3,3,3,0,-9.9,1.65,-1.73,-5.78,5.05,11.76
16.89380407333374,3,3,3,0,-10.2,0.04,-1.53,-8.130000000000001,4.82,11.43
16.91380405426025,3,3,3,0,-10.29,-0.61,-1.53,-11.05,5.17,10.57
16.93380403518677,3,3,3,0,-10.2,-1.27,-2.47,-12.13,4.12,9.27
16.95380401611328,3,3,3,0,-10.25,-0.34,-2.2,-10.06,2.63,8.109999999999999
16.97380399703979,3,3,3,0,-10.33,0.93,-1.99,-7.72,1.64,7.12
16.99380397796631,3,3,3,0,-10.62,2.13,-1.77,-7.11,0.55,6.59
17.01380395889282,3,3,3,0,-11.38,0.99,-2.04,-8.07,0.04,6.66
17.03380393981934,3,3,3,0,-13.06,-3.69,-1.44,-7.93,-0.14,7.08
17.05380392074585,3,3,3,0,-12.95,-4.7,0.53,-6.48,-1.92,5.84
17.07380414009094,3,3,3,0,-14.84,-6.38,3.64,-7.4,-4.04,2.64
17.09380412101746,3,3,3,0,-14.66,-5.93,4.74,-9.85,-7.35,-2.74
17.11380410194397,3,3,3,0,-12.53,-2.49,0.07000000000000001,-11.6,-8.369999999999999,-9.27
17.13380408287048,3,3,3,0,-12.84,1.87,-2.91,-8.32,-6.03,-15.19
17.153804063797,3,3,3,0,-16.1,5.11,-2.09,-5.9,-5.56,-17.48
17.17380404472351,3,3,3,0,-16.62,5.98,-1.76,-8.65,-4.51,-17.19
17.19380402565002,3,3,3,0,-14.44,7.7,-2.1,-6.58,-0.5,-15.34
17.21380400657654,3,3,3,0,-13.51,8.359999999999999,-2.62,-4.62,1.76,-17.96
17.23380398750305,3,3,3,0,-10.92,7.04,-2.85,-2.89,1.92,-23.92
17.25380396842957,3,3,3,0,-9.130000000000001,7.05,-2.81,2.41,1.25,-27.31
17.27380394935608,3,3,3,0,-7.46,6.23,-2.99,7.93,0.97,-28.07
17.29380393028259,3,3,3,0,-7.46,6.53,-2.88,14.15,0.2,-27.93
17.31380391120911,3,3,3,0,-5.73,6.7,-2.56,15.02,-4,-26.75
17.3338041305542,3,3,3,0,-4.4,7.48,-2.96,15.98,-6.84,-25.67
17.35380411148071,3,3,3,0,-3.97,7.78,-2.42,17.71,-6.75,-23.34
17.37380409240723,3,3,3,0,-3.36,8.17,-1.8,18.33,-7.22,-20.58
17.39380407333374,3,3,3,0,-3.18,7.12,-0.17,15.46,-7.95,-18.59
17.41380405426025,3,3,3,0,-4.19,5.61,1.13,11.65,-5.95,-13.52
17.43380403518677,3,3,3,0,-4.99,2.62,0.51,11.98,-2.72,-8.76
17.45380401611328,3,3,3,0,-7.47,-2.69,1.02,15.35,5.51,-6.55
17.47380399703979,3,3,3,0,-13.64,-14.35,5.03,18.85,8.449999999999999,-2.83
17.49380397796631,3,3,3,0,-19.04,-19.98,4.84,11.48,6.63,-3.19
17.51380395889282,3,3,3,0,-13.52,-11.34,0.92,5.5,-3.17,-3.24
17.53380393981934,3,3,3,0,-11.12,-1.17,-3.93,4.3,-2.17,-5.02
17.55480408668518,3,3,3,0,-11.83,3.22,2.66,6.89,-5.86,-0.59
17.57480406761169,3,3,3,0,-10.46,-1.56,8.199999999999999,6.74,-15.29,3.77
17.59480404853821,3,3,3,0,-11.13,-1.04,1.37,15.4,-2.33,4.82
17.61480402946472,3,3,3,0,-11.22,9.619999999999999,-3.31,14.7,5.58,11.34
17.63480401039124,3,3,3,0,-6.05,9.77,-8.31,8.640000000000001,6.79,8.99
17.65480399131775,3,3,3,0,-10.64,7.94,-4.35,-0.45,9.9,11.3
17.67480397224426,3,3,3,0,-11.65,6.66,-3.41,-0.01,8.49,13.86
17.69480395317078,3,3,3,0,-10.84,1.04,-1.91,-2.32,8.720000000000001,12.98
17.71480393409729,3,3,3,0,-10.04,1.84,-1.18,1.34,8.390000000000001,13.21
17.7348039150238,3,3,3,0,-9.57,4.57,-2.79,3.41,8.19,13.95
17.7548041343689,3,3,3,0,-9.15,3.98,-2.79,-1.4,8.130000000000001,13.93
17.77480411529541,3,3,3,0,-9.609999999999999,1.97,-2.1,-8.6,9.220000000000001,13.54
17.79480409622192,3,3,3,0,-9.949999999999999,1.1,-1.24,-13.78,10.14,13.52
17.81480407714844,3,3,3,0,-9.539999999999999,0.26,-0.55,-15.67,10.29,14.06
17.83480405807495,3,3,3,0,-9.460000000000001,1.06,-1.07,-15.07,10.15,13.63
17.85480403900146,3,3,3,0,-9.390000000000001,-0.29,-1.91,-14.87,10.14,13.94
17.87480401992798,3,3,3,0,-9.220000000000001,-0.89,-1.73,-13.09,9.550000000000001,14.05
17.89480400085449,3,3,3,0,-9.789999999999999,-1.73,-1.3,-10.7,9.130000000000001,14.87
17.91480398178101,3,3,3,0,-9.82,-1.02,-1.2,-7.18,8.15,14.5
17.93480396270752,3,3,3,0,-9.640000000000001,1.19,-1.65,-5.61,6.99,13.93
17.95480394363403,3,3,3,0,-9.56,1.32,-1.92,-5.86,5.47,13.39
17.97480392456055,3,3,3,0,-10.21,-0.55,-1.7,-6.97,4.73,12.77
17.99480414390564,3,3,3,0,-10.13,-1.3,-1.4,-9.35,4.88,11.6
18.01480412483215,3,3,3,0,-10.33,-1.87,-1.79,-11.59,4.64,9.74
18.03480410575867,3,3,3,0,-10.2,-1.83,-2.3,-11.09,3.14,7.99
18.05480408668518,3,3,3,0,-10.82,0.8100000000000001,-2.18,-7.25,1.51,6.92
18.07480406761169,3,3,3,0,-10.95,2.54,-1.98,-4.52,0.2,6.73
18.09480404853821,3,3,3,0,-12.77,1.3,-2.26,-5.34,-0.09,7.52
18.11480402946472,3,3,3,0,-13.65,-2.21,-1.48,-5.49,-0.52,8.039999999999999
18.13480401039124,3,3,3,0,-13.68,-5.42,1.36,-4.99,-1.87,6.57
18.15480399131775,3,3,3,0,-14.9,-6.27,3.5,-7.36,-4.11,1.6
18.17480397224426,3,3,3,0,-14.72,-6.36,4.21,-12.14,-7.54,-4.13
18.19480395317078,3,3,3,0,-13.38,-3.52,1.42,-12.82,-8.550000000000001,-10.73
18.21480393409729,3,3,3,0,-13.48,2.99,-3.29,-9.06,-6.18,-15.44
18.2348039150238,3,3,3,0,-15.54,4.9,-2.66,-6.86,-5.32,-17.72
18.2548041343689,3,3,3,0,-15.9,7.63,-1.65,-8.539999999999999,-3.36,-17.37
18.27480411529541,3,3,3,0,-14.97,7.43,-2.39,-7.22,0.5600000000000001,-14.92
18.29480409622192,3,3,3,0,-12.24,7.8,-3.4,-4.99,1.75,-19.08
18.31480407714844,3,3,3,0,-9.529999999999999,7.11,-3.17,-1.59,1.64,-24.98
18.33480405807495,3,3,3,0,-7.98,6.52,-3.42,4.09,1.09,-27.17
18.35480403900146,3,3,3,0,-6.91,6.39,-3.51,11.03,1.01,-27.73
18.37480401992798,3,3,3,0,-6.26,6.68,-3.34,15.28,-0.41,-26.48
18.39480400085449,3,3,3,0,-4.71,6.72,-2.67,15.13,-4.44,-25.72
18.41480398178101,3,3,3,0,-4.23,7.24,-2.77,16.21,-5.98,-24.69
18.43480396270752,3,3,3,0,-3.92,7.78,-2.06,17.69,-5.52,-22.39
18.45480394363403,3,3,3,0,-3.6,8.470000000000001,-1.04,17.28,-6.41,-20.9
18.47480392456055,3,3,3,0,-3.72,6.95,-0.33,12.39,-5.41,-19.09
18.49480414390564,3,3,3,0,-4.76,6.3,0.19,8.880000000000001,-1.28,-13.4
18.51480412483215,3,3,3,0,-5.07,1,-2.03,10.89,2.27,-8.94
18.53480410575867,3,3,3,0,-7.37,-3.65,-0.48,12.14,10.91,-7.91
18.55480408668518,3,3,3,0,-16.04,-16.7,3.8,14.35,13.41,-3.46
18.57480406761169,3,3,3,0,-17.98,-17.88,5.46,11.64,5.78,-3.76
18.59580397605896,3,3,3,0,-14.06,-9.48,1.03,9.67,-1.24,-2.26
18.61580395698547,3,3,3,0,-10.89,-0.76,-4.51,8.56,-0.51,-2.27
18.63580393791199,3,3,3,0,-12.33,2.09,3.35,15.38,-4.32,1.8
18.6558039188385,3,3,3,0,-13.46,-3.48,7.89,22.84,-15.77,5.51
18.67580413818359,3,3,3,0,-9.449999999999999,3.28,3.37,19.77,-1.16,9.81
18.69580411911011,3,3,3,0,-10.7,6.79,-3.67,10.62,5.97,11.52
18.71580410003662,3,3,3,0,-6.02,10.62,-8.69,6.58,8.18,8.24
18.73580408096313,3,3,3,0,-8,8.19,-6.36,-6.01,10.02,11.93
18.75580406188965,3,3,3,0,-11.55,5.23,-3.62,-6.12,8.890000000000001,12.78
18.77580404281616,3,3,3,0,-11.82,1.17,-2.69,0.82,8.09,12.86
18.79580402374268,3,3,3,0,-9.82,3.41,-2.05,6.47,8,14.11
18.81580400466919,3,3,3,0,-9.24,5.86,-2.74,5.39,8.02,14.34
18.8358039855957,3,3,3,0,-9.23,4.76,-2.97,-5.23,8.65,14.15
18.85580396652222,3,3,3,0,-9.5,2.76,-2.44,-9.17,9.35,13.9
18.87580394744873,3,3,3,0,-9.92,1.57,-1.18,-13.85,10.01,14.52
18.89580392837524,3,3,3,0,-9.42,1.16,-0.75,-13.67,10.25,14.32
18.91580390930176,3,3,3,0,-9.4,1.18,-1.28,-14.4,10.76,14.63
18.93580412864685,3,3,3,0,-9.390000000000001,0.13,-1.98,-14,10.59,15.24
18.95580410957336,3,3,3,0,-9.75,-1.74,-1.5,-12.65,10.49,15.69
18.97580409049988,3,3,3,0,-9.82,-1.89,-1.07,-7.02,8.550000000000001,15.93
18.99580407142639,3,3,3,0,-9.880000000000001,-0.95,-0.99,-6.27,7.2,14.83
19.01580405235291,3,3,3,0,-10.05,0.45,-1.42,-6.59,6.91,14.19
19.03580403327942,3,3,3,0,-10.47,-0.3,-1.58,-8.859999999999999,5,12.46
19.05580401420593,3,3,3,0,-10.2,-2.4,-1.02,-10.14,4.73,11.85
19.07580399513245,3,3,3,0,-10.32,-2.34,-1.29,-12.66,4.46,8.83
19.09580397605896,3,3,3,0,-9.970000000000001,-2.26,-2.87,-10.67,2.28,7.21
19.11580395698547,3,3,3,0,-10.23,-0.8,-2.82,-8.210000000000001,1.36,6.79
19.13580393791199,3,3,3,0,-10.89,2.45,-1.86,-4.26,-0.22,6.26
19.1558039188385,3,3,3,0,-11.36,2.19,-2,-5.42,-0.38,6.39
19.17580413818359,3,3,3,0,-13.75,-3.08,-1.89,-6.47,-0.67,6.68
19.19580411911011,3,3,3,0,-13.58,-4.65,0.27,-4.54,-2.73,4.83
19.21580410003662,3,3,3,0,-14.69,-5.52,3.76,-5.34,-3.93,2.51
19.23580408096313,3,3,3,0,-15.53,-5.43,4.71,-13.33,-7.97,-6.06
19.25580406188965,3,3,3,0,-13.7,-2.25,1.38,-14.08,-8.34,-9.6
19.27580404281616,3,3,3,0,-13.28,1.95,-2.77,-9.779999999999999,-4.56,-16.59
19.29580402374268,3,3,3,0,-16.29,5.11,-1.62,-10.36,-4.19,-17.68
19.31580400466919,3,3,3,0,-16.82,7.9,-1.43,-11.61,-3.02,-17.08
19.3358039855957,3,3,3,0,-14.44,7.32,-2.46,-7.42,1.7,-15.21
19.35580396652222,3,3,3,0,-12.83,7.95,-2.91,-5.73,2.14,-18
19.37580394744873,3,3,3,0,-10.46,7.05,-2.93,0.86,2.12,-25.84
19.39580392837524,3,3,3,0,-8.83,7.41,-2.9,5.28,2.28,-26.79
19.41580390930176,3,3,3,0,-7.23,6.94,-2.99,8.279999999999999,1.93,-27.41
19.43580412864685,3,3,3,0,-6.72,7.22,-2.73,13.8,-1.03,-26.29
19.45580410957336,3,3,3,0,-5.02,7.38,-3.07,13.57,-2.72,-25.67
19.47580409049988,3,3,3,0,-4.17,7.71,-3.28,14.76,-6.27,-23.93
19.49580407142639,3,3,3,0,-3.49,7.39,-2.5,17.15,-6.41,-21.68
19.51580405235291,3,3,3,0,-2.91,9.25,-1.53,16.77,-7.03,-20.91
19.53580403327942,3,3,3,0,-2.95,6.34,0.29,11.1,-5.26,-16.73
19.55580401420593,3,3,3,0,-4.18,5.25,1.21,9.42,-3.32,-13.92
19.57580399513245,3,3,3,0,-5.79,2.5,0.06,12.04,5.75,-9.369999999999999
19.59580397605896,3,3,3,0,-7.91,-3.72,-0.34,18.32,11.79,-7.72
19.6168041229248,3,3,3,0,-12.73,-11.81,3.91,20.48,11.78,-5.98
19.63680410385132,3,3,3,0,-18.19,-17.9,5.23,9.609999999999999,-2.22,-3.9
19.65680408477783,3,3,3,0,-13.24,-10.31,2.42,7.11,-4.39,-3.54
19.67680406570435,3,3,3,0,-12.27,-4.02,-0.17,3.96,-2.4,-4.83
19.69680404663086,3,3,3,0,-6.04,13.26,-6.02,7.95,-4.83,1.4
19.71680402755737,3,3,3,0,-11.22,-0.62,8.970000000000001,6.53,-13.09,10.76
19.73680400848389,3,3,3,0,-13.05,-4.97,2.66,21.33,-0.01,6.46
19.7568039894104,3,3,3,0,-12.97,5.1,1.01,23.81,4.19,7.82
19.77680397033691,3,3,3,0,-9.619999999999999,11.4,-6.37,8.449999999999999,7.08,9.73
19.79680395126343,3,3,3,0,-5.78,7.3,-6.39,-2.08,9.619999999999999,8.69
19.81680393218994,3,3,3,0,-7.5,6.75,-5.72,-4.57,9.789999999999999,10.52
19.83680391311646,3,3,3,0,-12.19,1.7,-3.59,-4.76,8.74,12.88
19.85680413246155,3,3,3,0,-11.7,0.5600000000000001,-2.48,0.51,8.449999999999999,12.53
19.87680411338806,3,3,3,0,-9.49,4.39,-2.32,4.19,8.24,13.43
19.89680409431458,3,3,3,0,-9.039999999999999,5.08,-2.87,-0.48,8.210000000000001,13.32
19.91680407524109,3,3,3,0,-9.279999999999999,4.3,-2.63,-8.75,9.02,13.02
19.9368040561676,3,3,3,0,-9.82,2.46,-1.83,-16.11,10.11,13.23
19.95680403709412,3,3,3,0,-9.880000000000001,1.5,-1.28,-19.04,10.39,13.91
19.97680401802063,3,3,3,0,-9.449999999999999,1.16,-1.52,-18.5,10.78,14.38
19.99680399894714,3,3,3,0,-9.279999999999999,-0.77,-2.21,-16.37,10.61,14.09
20.01680397987366,3,3,3,0,-9.5,-1.35,-2.14,-13.23,9.52,14
20.03680396080017,3,3,3,0,-9.65,-2.01,-1,-9.17,8.49,14.42
20.05680394172668,3,3,3,0,-9.869999999999999,-1.82,-1.09,-6.55,7.9,14.53
20.0768039226532,3,3,3,0,-9.630000000000001,-0.32,-1.85,-5.4,6.57,13.74
20.09680414199829,3,3,3,0,-9.92,1.05,-1.82,-5.69,5.75,12.91
20.1168041229248,3,3,3,0,-10.01,0.76,-1.71,-8.56,5.22,12.29
20.13680410385132,3,3,3,0,-10.15,-1.43,-1.48,-11.75,5.18,11.16
20.15680408477783,3,3,3,0,-10.04,-1.45,-1.97,-12.19,4.55,9.710000000000001
20.17680406570435,3,3,3,0,-10.19,-0.34,-2.6,-9.859999999999999,3.05,8.630000000000001
20.19680404663086,3,3,3,0,-10.75,1.13,-2.18,-6,1.58,7.87
20.21680402755737,3,3,3,0,-10.93,1.75,-2.7,-5.32,0.71,7.42
20.23680400848389,3,3,3,0,-12.6,0.5600000000000001,-2.77,-6.31,0.5,7.59
20.2568039894104,3,3,3,0,-13.7,-4.51,-1.22,-5.77,-0.45,7.55
20.27680397033691,3,3,3,0,-14.84,-6.05,0.89,-5.11,-2.06,5.31
20.29680395126343,3,3,3,0,-16.15,-5.97,5.23,-6.59,-5.42,0.2
20.31680393218994,3,3,3,0,-15.28,-5.98,3.95,-9.77,-7.87,-6.18
20.33680391311646,3,3,3,0,-13.36,-1.19,-0.82,-8.74,-7.53,-12.69
20.35680413246155,3,3,3,0,-14.18,4.48,-1.36,-6.5,-5.9,-16.65
20.37680411338806,3,3,3,0,-16.53,6.59,-0.2,-9.94,-4.76,-17.6
20.39680409431458,3,3,3,0,-15.37,7.29,-0.32,-12.15,-1.69,-16.93
20.41680407524109,3,3,3,0,-14,8.35,-1.68,-10.97,0.5600000000000001,-18.21
20.4368040561676,3,3,3,0,-11.45,7.72,-2.34,-8.06,0.73,-24.76
20.45680403709412,3,3,3,0,-9.57,7.32,-2.42,-3.57,0.9,-28.36
20.47680401802063,3,3,3,0,-8.42,6.59,-2.56,2.29,0.61,-30.24
20.49680399894714,3,3,3,0,-7.93,6.47,-2.2,8.85,-0.71,-30.52
20.51680397987366,3,3,3,0,-6.3,7.04,-2.31,12.03,-4.66,-29.26
20.53680396080017,3,3,3,0,-4.83,6.93,-2.98,13.15,-7.08,-27.13
20.55680394172668,3,3,3,0,-3.96,7.23,-2.65,15.27,-8.41,-24.36
20.5768039226532,3,3,3,0,-2.53,7.88,-0.78,14.82,-10.76,-23.11
20.59680414199829,3,3,3,0,-2.48,7.58,0,10.56,-10.47,-19.45
20.61780405044556,3,3,3,0,-3.2,5.19,1.16,9.949999999999999,-8.57,-13.64
20.63780403137207,3,3,3,0,-4.57,2.22,0.68,15.04,-1.36,-8.220000000000001
20.65780401229858,3,3,3,0,-8.24,-5.17,1.52,23.64,6.87,-5.69
20.6778039932251,3,3,3,0,-12.84,-9.220000000000001,4.54,27.82,3.18,-2.86
20.69780397415161,3,3,3,0,-16,-14.58,4.54,15.95,-4.92,-3.62
20.71780395507812,3,3,3,0,-12.59,-10.67,2.61,8.59,-6.32,-3.21
20.73780393600464,3,3,3,0,-11.84,0.52,-2.07,6.5,-3.19,-5.39
20.75780391693115,3,3,3,0,-8.26,8.91,6.86,6.59,-9.68,-2.89
20.77780413627625,3,3,3,0,-10.95,-3.31,5.91,-4.13,-10,5.78
20.79780411720276,3,3,3,0,-11.39,3.64,0.75,3.72,7.03,4.04
20.81780409812927,3,3,3,0,-8.16,11.91,-4.1,12.25,7.95,8
20.83780407905579,3,3,3,0,-9.289999999999999,6.67,-6.46,1.78,9.26,8.720000000000001
20.8578040599823,3,3,3,0,-11.72,6.36,-4.88,1.47,7.94,12.15
20.87780404090881,3,3,3,0,-10.61,5.96,-4.94,2.33,8.970000000000001,13.3
20.89780402183533,3,3,3,0,-10.88,3.4,-3.91,1.21,8.550000000000001,13.03
20.91780400276184,3,3,3,0,-10.83,3,-1.83,1.66,8.289999999999999,13.51
20.93780398368835,3,3,3,0,-10.67,4.32,-1.85,2.88,7.95,14.33
20.95780396461487,3,3,3,0,-9.779999999999999,4.79,-1.59,0.42,7.75,15.07
20.97780394554138,3,3,3,0,-9.699999999999999,3.57,-1.48,-4.12,8.220000000000001,15.28
20.9978039264679,3,3,3,0,-9.69,1.92,-0.75,-8.02,9.27,15.31
21.01780390739441,3,3,3,0,-9.1,1.69,-0.09,-11.24,10.11,15.51
21.0378041267395,3,3,3,0,-9.35,2.22,-0.4,-13.51,11.06,15.63
21.05780410766602,3,3,3,0,-9.75,0.32,-1.35,-15.59,11.78,16.1
21.07780408859253,3,3,3,0,-9.699999999999999,-1.8,-1.42,-13.62,10.91,16.37
21.09780406951904,3,3,3,0,-9.32,-2.89,-1.49,-9.77,9.890000000000001,17.08
21.11780405044556,3,3,3,0,-10.01,-3.55,-1.49,-5.08,8.76,16.33
21.13780403137207,3,3,3,0,-10.19,-1.9,-1.18,-2.31,7.03,15.6
21.15780401229858,3,3,3,0,-10.38,0.52,-1.36,-3.05,6.08,14.52
21.1778039932251,3,3,3,0,-10.66,0.58,-1.26,-5.1,4.85,12.63
21.19780397415161,3,3,3,0,-10.1,-0.77,-0.67,-8.23,4.75,11.21
21.21780395507812,3,3,3,0,-10.16,-1.36,-1.04,-11.56,5.53,9.619999999999999
21.23780393600464,3,3,3,0,-10.67,-0.86,-2.23,-10.95,4.06,8.15
21.25780391693115,3,3,3,0,-10.97,0.24,-1.96,-7.24,1.46,7.58
21.27780413627625,3,3,3,0,-11.08,2.21,-1.63,-5.09,0.5600000000000001,7.03
21.29780411720276,3,3,3,0,-11.81,1.58,-1.86,-6.1,0.35,7.19
21.31780409812927,3,3,3,0,-13.53,-3.86,-1.89,-5.62,-0.6,7.27
21.33780407905579,3,3,3,0,-13.32,-5.47,-0.03,-3.02,-2.45,5.14
21.3578040599823,3,3,3,0,-15.05,-6.04,3.72,-4.78,-5.33,0.6
21.37780404090881,3,3,3,0,-14.89,-6.65,3.91,-9.449999999999999,-7.74,-5.3
21.39880394935608,3,3,3,0,-12.68,-2.14,-0.28,-8.619999999999999,-7.13,-12.59
21.41780400276184,3,3,3,0,-14.36,5.54,-1.97,-5.67,-4.46,-16.86
21.43780398368835,3,3,3,0,-16.33,4.85,-0.39,-7.35,-4.35,-17.71
21.45780396461487,3,3,3,0,-15.29,6.76,-0.64,-9.81,-1.07,-15.99
21.47780394554138,3,3,3,0,-14.78,7.72,-1.7,-7.52,1.99,-16.3
21.4978039264679,3,3,3,0,-11.55,7.45,-2.49,-4.61,2.13,-22.41
21.51880407333374,3,3,3,0,-10.09,7.09,-2.44,-0.55,2.25,-26.63
21.5378041267395,3,3,3,0,-8.99,6.57,-2.32,4.98,1.87,-28.52
21.55780410766602,3,3,3,0,-8.300000000000001,6.78,-1.86,10.05,0.61,-29.55
21.57880401611328,3,3,3,0,-6.28,6.97,-1.96,11.53,-3.1,-29.32
21.59780406951904,3,3,3,0,-5.48,6.38,-2.26,13.26,-5.4,-27.54
21.61780405044556,3,3,3,0,-4.42,6.32,-2.47,15.29,-6.62,-24.83
21.63880395889282,3,3,3,0,-3.55,7.68,-1.87,17.8,-8.369999999999999,-22.73
21.65880393981934,3,3,3,0,-2.95,8.380000000000001,-0.17,16.36,-9.34,-20.49
21.67880392074585,3,3,3,0,-3.48,5.55,0.72,11.48,-8.82,-15.8
21.69880414009094,3,3,3,0,-5.75,4.64,2.17,13.74,-4.83,-10.82
21.71880412101746,3,3,3,0,-6.25,-1.33,0.82,17.96,3.05,-7.49
21.73880410194397,3,3,3,0,-11.03,-6.68,3.11,23.13,9.76,-3.64
21.75880408287048,3,3,3,0,-17.67,-17.81,3.26,16.8,0.41,-1.56
21.778804063797,3,3,3,0,-13.47,-12.21,2.5,12.92,-7.36,-4.04
21.79880404472351,3,3,3,0,-11.57,-5.01,0.86,10.04,-8.130000000000001,-6.5
21.81880402565002,3,3,3,0,-9.109999999999999,7.76,-2.43,10.78,-8.789999999999999,-4.02
21.83880400657654,3,3,3,0,-11.52,1.21,7.37,-0.98,-8.880000000000001,7.5
21.85880398750305,3,3,3,0,-12.58,0.88,3.35,5.99,4.18,0.58
21.87880396842957,3,3,3,0,-12.68,8.720000000000001,-1.32,11.58,5.96,6.33
21.89880394935608,3,3,3,0,-8.08,9.449999999999999,-7.37,-0.32,9.17,7.42
21.91880393028259,3,3,3,0,-7.22,5.29,-8.06,-0.25,9.41,8.779999999999999
21.93880391120911,3,3,3,0,-10.87,6.67,-4.68,1.95,9.07,12.99
21.9588041305542,3,3,3,0,-11.73,4.84,-3.78,1.54,8.550000000000001,12.82
21.97880411148071,3,3,3,0,-10.7,3.26,-2.01,2.05,8.720000000000001,12.6
21.99880409240723,3,3,3,0,-10.29,3.89,-1.74,3,8.41,13.51
22.01880407333374,3,3,3,0,-10.14,4.98,-1.87,1.77,8.07,14.26
22.03880405426025,3,3,3,0,-9.789999999999999,4.15,-1.71,-2.16,8.27,14.37
22.05880403518677,3,3,3,0,-9.789999999999999,2.59,-1.25,-6.44,8.880000000000001,14.04
22.07880401611328,3,3,3,0,-9.51,1.64,-0.44,-10.66,9.44,14.29
22.09880399703979,3,3,3,0,-9.08,0.63,-0.8,-13.82,9.82,14.52
22.11880397796631,3,3,3,0,-9.67,0.44,-1.42,-14.87,10.76,14.65
22.13880395889282,3,3,3,0,-9.56,-0.34,-1.93,-13.73,10.87,14.36
22.15880393981934,3,3,3,0,-9.31,-0.29,-1.78,-10.92,10.22,15.07
22.17880392074585,3,3,3,0,-9.57,-0.22,-1.79,-7.42,9.48,16.25
22.19880414009094,3,3,3,0,-9.48,-0.77,-1.77,-5.38,8.73,17.57
22.21880412101746,3,3,3,0,-9.85,-1.34,-1.52,-3.5,7.31,17.53
22.23880410194397,3,3,3,0,-10.68,-1.59,-0.63,-4.88,6.79,16.46
22.25880408287048,3,3,3,0,-11.02,-2.31,-0.62,-8.539999999999999,6.43,13.91
22.278804063797,3,3,3,0,-11.02,-2.45,-1.13,-10.15,5.44,11.13
22.29880404472351,3,3,3,0,-10.63,-1.96,-1.73,-10.58,4.36,8.74
22.31880402565002,3,3,3,0,-10.44,-0.16,-2.65,-8.93,2.91,7.16
22.33880400657654,3,3,3,0,-10.79,1.99,-2.17,-6.37,1.58,6.21
22.35880398750305,3,3,3,0,-11.33,2.63,-2.2,-6.31,0.93,6.11
22.37880396842957,3,3,3,0,-13.22,0.75,-2.22,-6.98,0.83,6.26
22.39880394935608,3,3,3,0,-13.97,-5.34,-0.46,-5.93,-0.7,5.1
22.41880393028259,3,3,3,0,-14.48,-6.38,2.18,-5.23,-3.04,2.12
22.43880391120911,3,3,3,0,-15.43,-5.99,6.26,-8.32,-7.28,-3.28
22.4588041305542,3,3,3,0,-14.01,-4.97,3.32,-11.52,-8.51,-9.56
22.47880411148071,3,3,3,0,-12.69,-0.02,-2.8,-8.68,-6.66,-15.08
22.49880409240723,3,3,3,0,-14.36,5.18,-3.11,-5.06,-5.88,-17.73
22.51880407333374,3,3,3,0,-17.41,4.97,-1.83,-8.83,-4.25,-17.58
22.53880405426025,3,3,3,0,-15.14,7.27,-1.26,-7.15,-0.46,-15.02
22.55880403518677,3,3,3,0,-13.65,9.18,-2.35,-5.98,1.39,-17.55
22.57880401611328,3,3,3,0,-11.37,8.050000000000001,-2.94,-4.01,1.39,-24.08
22.59880399703979,3,3,3,0,-9.08,7.21,-3,1.13,0.75,-27.7
22.61880397796631,3,3,3,0,-7.59,6.92,-3,6.98,0.26,-28.58
22.63880395889282,3,3,3,0,-7.1,6.35,-3.09,12.54,-0.67,-28.81
22.65880393981934,3,3,3,0,-5.63,6.67,-3.09,14.37,-4.12,-26.51
22.67980408668518,3,3,3,0,-3.95,7.36,-3.09,15.58,-6.77,-24.72
22.69980406761169,3,3,3,0,-3.38,7.74,-2.79,15.67,-6.96,-22.47
22.71980404853821,3,3,3,0,-3.11,7.84,-1.69,16.6,-7.35,-20.33
22.73980402946472,3,3,3,0,-3.01,8.279999999999999,-0.82,13.02,-7.32,-18.49
22.75980401039124,3,3,3,0,-4.32,4.33,0.19,9.050000000000001,-3.61,-13.33
22.77980399131775,3,3,3,0,-5.79,2.18,-0.22,11.13,0.08,-9.75
22.79980397224426,3,3,3,0,-8.24,-3.96,0.6,16.48,7.55,-7.6
22.81980395317078,3,3,3,0,-12.8,-12.17,5.37,24.13,6.66,-3.55
22.83980393409729,3,3,3,0,-18.25,-18.45,5.89,19.03,0.79,-2.8
22.8598039150238,3,3,3,0,-13.2,-11.13,0.98,10.28,-5.1,-3.33
22.8798041343689,3,3,3,0,-12.38,-3.76,-1.74,6.45,-3.1,-5.64
22.89980411529541,3,3,3,0,-10.26,13.19,-0.08,4.89,-7.37,-2.19
22.91980409622192,3,3,3,0,-11.65,-2.5,10.32,-0.2,-16.31,4.85
22.93980407714844,3,3,3,0,-12.33,-1.82,4.13,9.35,-1.59,4.76
22.95980405807495,3,3,3,0,-12.31,3.88,-1.64,10.09,6.83,7.33
22.97980403900146,3,3,3,0,-5.78,12.98,-7.96,7.58,5.97,8.91
22.99980401992798,3,3,3,0,-7.02,6.32,-6.36,-2.97,9.210000000000001,9.619999999999999
23.01980400085449,3,3,3,1,-11.32,5.4,-4.01,1.78,7.77,13.88
23.03980398178101,3,3,3,1,-11.4,4.38,-2.97,1.42,8.210000000000001,13.12
23.05980396270752,3,3,3,1,-10.57,1.9,-1.14,2.83,8.15,12.41
23.07980394363403,3,3,3,1,-10.01,2.97,-1.52,4.78,8.06,13.37
23.09980392456055,3,3,3,1,-9.52,4.68,-2.55,2.87,7.62,13.68
23.11980414390564,3,3,3,1,-9.449999999999999,4.35,-2.1,-2.77,7.9,13.73
23.13980412483215,3,3,3,1,-9.99,2.7,-1.1,-8.83,8.529999999999999,13.66
23.15980410575867,3,3,3,1,-10,1.88,-0.47,-13.64,8.880000000000001,13.95
23.17980408668518,3,3,3,1,-9.369999999999999,0.77,-1.17,-15.48,9.34,13.98
23.19980406761169,3,3,3,1,-9.609999999999999,0.78,-1.3,-15.91,10.04,14.37
23.21980404853821,3,3,3,1,-9.4,0.2,-1.94,-14.96,10.35,13.97
23.23980402946472,3,3,3,1,-9.48,-0.13,-1.96,-12.89,9.26,14.59
23.25980401039124,3,3,3,1,-9.949999999999999,-1.62,-1.21,-10.09,8.800000000000001,15.4
23.27980399131775,3,3,3,1,-9.67,-1.6,-1.71,-6.61,7.63,15.29
23.29980397224426,3,3,3,1,-9.789999999999999,0.49,-2.13,-5.74,6.79,14.4
23.31980395317078,3,3,3,0,-10.02,1.56,-2.14,-7.15,6.26,14.02
23.33980393409729,3,3,3,0,-10.64,-0.6,-1.5,-9.65,5.02,13.53
23.3598039150238,3,3,3,0,-10.65,-2.52,-0.64,-11.5,4.65,12.01
23.3798041343689,3,3,3,0,-10.62,-2.66,-1.6,-12.28,4.17,9.859999999999999
23.39980411529541,3,3,3,0,-10.92,-1.82,-2.54,-9.81,1.63,8.550000000000001
23.41980409622192,3,3,3,0,-11.31,0.74,-2.25,-5.63,-0.17,8.18
23.43980407714844,3,3,3,0,-11.66,1.77,-2.65,-4.41,-0.57,8.48
23.45980405807495,3,3,3,0,-12.95,0.13,-2.21,-3.79,-1.29,9.16
23.47980403900146,3,3,3,0,-12.69,-5.37,-1.31,-1.85,-2.78,7.92
23.49980401992798,3,3,3,0,-13.48,-6.05,1.01,-0.6,-4.12,4.21
23.51980400085449,3,3,3,0,-14.43,-5.46,4.18,-3.47,-7.41,-0.91
23.53980398178101,3,3,3,0,-13.87,-5.82,3.07,-8.640000000000001,-8.199999999999999,-7.07
23.55980396270752,3,3,3,0,-12.05,-0.77,-1.89,-7.26,-6.51,-13.27
23.57980394363403,3,3,3,0,-14.04,4.27,-2.48,-4.87,-4.78,-17.16
23.59980392456055,3,3,3,0,-16.7,5.51,-1.59,-6.01,-4.36,-17.37
23.61980414390564,3,3,3,0,-15.41,7.02,-1.19,-7.04,-1.45,-14.97
23.63980412483215,3,3,3,0,-13.36,8.56,-2.24,-3.82,1.79,-15.31
23.65980410575867,3,3,3,0,-11.98,7.48,-2.77,-1.72,2.48,-22.09
23.67980408668518,3,3,3,0,-9.539999999999999,7.37,-2.91,2.35,2.21,-26.08
23.69980406761169,3,3,3,0,-8.23,7.25,-2.86,6.46,2.51,-27.01
23.72080397605896,3,3,3,0,-7.33,7.19,-2.88,11.92,2.17,-27.63
23.74080395698547,3,3,3,0,-6.73,7.07,-2.61,13.58,-1.32,-26.83
23.76080393791199,3,3,3,0,-5.1,7.04,-2.68,13.82,-4.59,-26.2
23.7808039188385,3,3,3,0,-4.34,7.25,-2.95,15.9,-5.5,-24.77
23.80080413818359,3,3,3,0,-4.28,7.13,-1.87,18.33,-6.06,-22.04
23.82080411911011,3,3,3,0,-3.65,8.140000000000001,-0.68,18.57,-7.12,-20.15
23.84080410003662,3,3,3,0,-3.88,6.78,0.11,15.87,-5.96,-17.09
23.86080408096313,3,3,3,0,-5.21,4.54,1.33,12.69,-2.76,-11.71
23.88080406188965,3,3,3,0,-5.81,1.47,0.26,14.58,1.06,-8.35
23.90080404281616,3,3,3,0,-9.029999999999999,-3.96,1.68,18.42,7.5,-6.89
23.92080402374268,3,3,3,0,-14.03,-13.73,4.9,19.38,7.63,-2.97
23.94080400466919,3,3,3,0,-18,-16.92,5.19,9.23,-0.42,-4.11
23.9608039855957,3,3,3,0,-13.11,-9.050000000000001,0.86,4.37,-4.13,-4.53
23.98080396652222,3,3,3,0,-11.68,-2.9,-1.26,-0.43,-4.61,-5.64
24.00080394744873,3,3,3,0,-8.43,13.98,0.27,-0.52,-10.53,-0.19
24.02080392837524,3,3,3,0,-11,-3.63,8.32,4.53,-2.92,5.24
24.04080390930176,3,3,3,0,-11.83,-2.65,1.84,16.2,3.93,7.97
24.06080412864685,3,3,3,1,-12.63,2.4,0.29,15.68,3.92,9.140000000000001
24.08080410957336,3,3,3,1,-8.32,12.83,-6.71,2.05,7.14,8.890000000000001
24.10080409049988,3,3,3,1,-7.24,8.279999999999999,-5.54,-1.55,8.52,9.640000000000001
24.12080407142639,3,3,3,1,-9.619999999999999,5.02,-4.35,0.25,8.710000000000001,13.61
24.14080405235291,3,3,3,1,-11.3,5.22,-3.19,-0.53,8.07,12.74
24.16080403327942,3,3,3,2,-11.3,1.79,-1.6,1.01,8.08,12.62
24.18080401420593,3,3,3,2,-9.57,3.54,-2.48,2.18,7.78,13.69
24.20080399513245,3,3,3,2,-9.26,4.52,-3.12,0.12,7.69,13.69
24.22080397605896,3,3,3,2,-9.630000000000001,3.29,-2.56,-9.550000000000001,8.73,13.56
24.24080395698547,3,3,3,2,-10.07,2.09,-1.7,-14.66,9.539999999999999,13.8
24.26080393791199,3,3,3,2,-9.9,0.65,-0.91,-15.96,9.68,14.1
24.2808039188385,3,3,3,2,-9.609999999999999,1.06,-0.5,-15.93,9.220000000000001,14.23
24.30080413818359,3,3,3,3,-9.380000000000001,-0.43,-1.41,-16.13,9.109999999999999,14.05
24.32080411911011,3,3,3,3,-9.279999999999999,-0.25,-2.08,-13.63,8.85,13.36
24.34080410003662,3,3,3,3,-9.619999999999999,-1.21,-2.08,-11.2,8.68,14.3
24.36080408096313,3,3,3,3,-9.970000000000001,-1.81,-1.81,-9.279999999999999,8.029999999999999,14.38
24.38080406188965,3,3,3,3,-9.93,-0.21,-1.65,-4.85,6.38,14.1
24.40080404281616,3,3,3,3,-9.789999999999999,1.49,-1.86,-4.72,5.84,14
24.42080402374268,3,3,3,3,-9.99,1.26,-2,-6.72,4.54,13.79
24.44080400466919,3,3,3,3,-10.53,-0.61,-1.67,-9.18,4.55,12.48
24.4608039855957,3,3,3,3,-10.31,-2.58,-0.57,-10.23,4.53,11.6
24.48080396652222,3,3,3,3,-10.44,-2.57,-1.06,-10.74,2.75,8.609999999999999
24.50080394744873,3,3,3,3,-10.63,-1.65,-2.47,-8.93,1.56,7.99
24.52080392837524,3,3,3,3,-10.8,0.31,-2.66,-3.89,-0.42,6.96
24.54080390930176,3,3,3,3,-10.5,2.62,-1.93,-5.63,-0.8,7.06
24.56080412864685,3,3,3,3,-11.84,1.16,-2.31,-6.45,-0.49,7.41
24.58080410957336,3,3,3,3,-13.33,-2.91,-1.16,-4.22,-2.36,6.12
24.60080409049988,3,3,3,3,-12.51,-4.53,0.82,-4.35,-3.39,5.06
24.62080407142639,3,3,3,3,-13.9,-4.74,3.58,-8.470000000000001,-6.37,-1.46
24.64080405235291,3,3,3,3,-14.96,-5.93,2.57,-7.71,-8.85,-7.58
24.66080403327942,3,3,3,3,-13.21,-2.35,-0.4,-6.39,-8.23,-10.77
24.68080401420593,3,3,3,3,-12.47,2.22,-2.61,-3.51,-5,-15.72
24.70080399513245,3,3,3,2,-15.72,5.48,-1.19,-4.87,-4.95,-16.15
24.72080397605896,3,3,3,2,-14.71,8.59,-1.37,-8.359999999999999,-0.96,-14.41
24.7418041229248,3,3,3,2,-14.62,7.18,-1.62,-5.24,0.83,-16.11
24.76180410385132,3,3,3,2,-12.39,8.609999999999999,-1.89,-4.82,1.32,-19.81
24.78180408477783,3,3,3,2,-10.05,6.77,-2.39,-0.64,1.7,-26.03
24.80180406570435,3,3,3,1,-8.880000000000001,7.11,-2.36,1.27,2.03,-26.41
24.82180404663086,3,3,3,1,-7.33,6.66,-2.46,10.15,1.06,-27.23
24.84180402755737,3,3,3,1,-6.67,6.39,-2.42,11.41,-2.87,-26.22
24.86180400848389,3,3,3,1,-5.48,6.9,-2.81,11.81,-4.54,-25.76
24.8818039894104,3,3,3,1,-4.1,6.9,-3.23,14.71,-5.68,-24.27
24.90180397033691,3,3,3,0,-4.37,6.75,-2.95,15.49,-5.66,-23.23
24.92180395126343,3,3,3,0,-3.53,7.11,-1.48,14.14,-5.34,-19.9
24.94180393218994,3,3,3,0,-3.61,6.19,-1.65,11.71,-2.09,-15.54
24.96180391311646,3,3,3,0,-4.89,4.04,-0.18,12.79,0.9,-12.72
24.98180413246155,3,3,3,0,-6.54,3.16,1.39,15.62,2.16,-6.8
25.00180411338806,3,3,3,0,-8.51,-4.74,-0.4,18.49,4.76,-6.2
25.02180409431458,3,3,3,0,-12.58,-11.78,3.65,18.13,7.41,-3.64
25.04180407524109,3,3,3,0,-15.22,-13.55,3.56,12.35,1.53,-4.37
25.0618040561676,3,3,3,0,-14.27,-10.93,2.32,8.630000000000001,-1.26,-4.64
25.08180403709412,3,3,3,0,-9.34,2.51,-5.6,4.45,-2.12,-4.39
25.10180401802063,3,3,3,0,-8.84,6.97,-5.65,4.99,-4.39,-2.12
25.12180399894714,3,3,3,0,-11.59,-2.2,11.45,8.859999999999999,-17.06,4.57
25.14180397987366,3,3,3,0,-10.53,0.75,4.45,16.2,1.29,5.54
25.16180396080017,3,3,3,0,-10.07,9.41,-4.16,9.539999999999999,6.24,9
25.18180394172668,3,3,3,0,-5.38,9.029999999999999,-7.84,4.48,7.31,7.77
25.2018039226532,3,3,3,0,-7.9,6.31,-6.74,-2.25,8.76,12.25
25.22180414199829,3,3,3,0,-12.42,5.4,-3.81,1.76,7.8,13.68
25.2418041229248,3,3,3,0,-10.83,2.2,-2.71,1.77,8.199999999999999,11.67
25.26180410385132,3,3,3,0,-10.45,1.96,-1.74,3.42,8.16,12.51
25.28180408477783,3,3,3,0,-9.93,4.91,-2.24,2.01,7.55,13.02
25.30180406570435,3,3,3,0,-9.77,4.82,-2.69,-2.91,7.37,13
25.32180404663086,3,3,3,0,-9.710000000000001,3.08,-2.74,-8.32,8.09,12.65
25.34180402755737,3,3,3,0,-10.17,1.51,-1.4,-12.64,8.82,12.69
25.36180400848389,3,3,3,0,-9.83,1.36,-0.73,-15.72,9.19,13.38
25.3818039894104,3,3,3,0,-9.4,1.35,-0.91,-15.51,9.460000000000001,13.11
25.40180397033691,3,3,3,0,-9.32,1.05,-1.29,-16.07,9.99,13.1
25.42180395126343,3,3,3,0,-9.52,-0.22,-1.76,-15.15,9.41,13.14
25.44180393218994,3,3,3,0,-9.35,-1.33,-1.47,-12.02,8.6,13.63
25.46180391311646,3,3,3,0,-9.82,-1.75,-1.74,-8.5,8.210000000000001,13.91
25.48180413246155,3,3,3,0,-9.789999999999999,-0.66,-2.1,-5.89,6.68,13.9
25.50180411338806,3,3,3,1,-9.59,1.37,-2.02,-5.51,5.4,13.12
25.52180409431458,3,3,3,1,-9.91,1.02,-1.98,-7.46,4.82,12.81
25.54180407524109,3,3,3,1,-10.06,-1.1,-1.1,-10.15,4.82,12.35
25.5618040561676,3,3,3,1,-10.2,-2.19,-1.14,-10.97,4.93,11.7
25.58180403709412,3,3,3,1,-10.22,-2.32,-2.25,-9.789999999999999,3.13,9.34
25.60180401802063,3,3,3,1,-10.47,-1.51,-2.63,-6.36,1.48,8.32
25.62180399894714,3,3,3,1,-10.78,1.86,-2,-4.84,0.91,7.87
25.64180397987366,3,3,3,1,-10.77,2.33,-2.17,-5.07,0.2,7.76
25.66180396080017,3,3,3,1,-13.33,-0.36,-1.94,-6.46,0.35,8.25
25.68180394172668,3,3,3,1,-13.26,-4.56,-1.15,-6.17,-0.57,7.97
25.7018039226532,3,3,3,1,-14.15,-7.64,1.74,-4.34,-3.14,3.27
25.72180414199829,3,3,3,1,-15.01,-6.31,4.58,-4.95,-4.98,0.23
25.7418041229248,3,3,3,1,-14.18,-5.35,3,-9.25,-7.99,-5.5
25.76280403137207,3,3,3,1,-12.69,-2.19,-0.91,-9.26,-7.88,-12.17
25.78280401229858,3,3,3,1,-14.49,5.45,-2.63,-6.62,-5.54,-16.52
25.8028039932251,3,3,3,1,-16.53,4.5,-1.04,-9.19,-3.95,-16.85
25.82280397415161,3,3,3,1,-14.61,7.45,-1.55,-7.96,-1.45,-13.76
25.84280395507812,3,3,3,1,-14.58,9.41,-2.38,-6.21,1.41,-15.86
25.86280393600464,3,3,3,1,-11.68,7.52,-2.94,-5.27,1.44,-22.48
25.88280391693115,3,3,3,1,-8.98,7.33,-2.98,-0.61,0.8,-26.73
25.90280413627625,3,3,3,1,-7.37,7.1,-3.19,4.79,0.46,-27.76
25.92280411720276,3,3,3,1,-6.84,6.73,-3.23,10.42,0.28,-28.52
25.94280409812927,3,3,3,1,-5.96,7.07,-2.8,13.61,-1.65,-26.65
25.96280407905579,3,3,3,1,-4.31,7.34,-2.76,13.66,-6.04,-25.62
25.9828040599823,3,3,3,1,-3.95,7,-2.43,14.87,-7.01,-24.43
26.00280404090881,3,3,3,1,-3.33,7.97,-1.67,17.55,-6.57,-22.09
26.02280402183533,3,3,3,1,-3.27,6.96,-0.65,14.39,-6.98,-20.34
26.04280400276184,3,3,3,1,-5.03,5.27,0.88,11.24,-5.3,-16.49
26.06280398368835,3,3,3,1,-5.37,4.47,1.15,10.35,-2.68,-12.51
26.08280396461487,3,3,3,1,-7.9,-2.94,0.73,11.55,2.85,-8.83
26.10280394554138,3,3,3,1,-9.92,-6.36,2.93,17.13,8.130000000000001,-7.54
26.1228039264679,3,3,3,1,-17.8,-17.79,4.55,16.14,6.03,-4.36
26.14280390739441,3,3,3,1,-14.48,-13.17,3.51,7.42,-2.12,-3.42
26.1628041267395,3,3,3,1,-12.08,-4.06,-1.01,5.35,-2.38,-3.38
26.18280410766602,3,3,3,1,-9.039999999999999,6.62,-6.49,5.63,-2.74,-3.71
26.20280408859253,3,3,3,1,-13.92,-5.09,9.140000000000001,4.25,-11.11,3.29
26.22280406951904,3,3,3,1,-10.18,-0.54,4.66,6.06,-12.01,5.06
26.24280405044556,3,3,3,1,-11.17,3.85,-2.77,13.5,1.57,5.68
26.26280403137207,3,3,3,1,-6.46,12.46,-5.7,10.82,5.34,10.12
26.28280401229858,3,3,3,1,-7.41,5.27,-6.43,3.72,7.48,7.97
26.3028039932251,3,3,3,1,-11.55,5.87,-4.47,-1.06,9.07,12.08
26.32280397415161,3,3,3,1,-11.74,5.18,-3.06,1.9,7.89,13.48
26.34280395507812,3,3,3,1,-10.58,2.26,-2.24,0.4,8.41,12.33
26.36280393600464,3,3,3,1,-10.12,3.13,-1.82,1.94,8.289999999999999,13.2
26.38280391693115,3,3,3,1,-9.98,4.46,-3.22,2.12,7.77,13.65
26.40280413627625,3,3,3,1,-9.550000000000001,3.86,-3.08,-1.05,7.52,13.85
26.42280411720276,3,3,3,1,-9.970000000000001,3.25,-2.38,-5.82,8.289999999999999,14.03
26.44280409812927,3,3,3,1,-10.13,2.2,-0.77,-10.58,9.17,14.21
26.46280407905579,3,3,3,1,-9.49,1.34,-0.85,-14.48,9.609999999999999,14.91
26.4828040599823,3,3,3,1,-9.449999999999999,0.49,-1.85,-16,9.949999999999999,15.19
26.50280404090881,3,3,3,1,-9.25,-0.06,-1.88,-15.14,10.23,14.6
26.52280402183533,3,3,3,1,-9.4,-0.84,-1.96,-13.39,9.32,14.67
26.54280400276184,3,3,3,1,-9.359999999999999,-1.26,-1.27,-10.36,8.26,15.23
26.56280398368835,3,3,3,1,-9.720000000000001,-1.3,-1.69,-7.96,8.039999999999999,15.72
26.58280396461487,3,3,3,1,-10.09,-1.06,-1.66,-6.11,6.91,15.71
26.60280394554138,3,3,3,1,-10.13,-0.52,-1.44,-6.02,6.24,15.59
26.6228039264679,3,3,3,1,-10.87,-1.39,-1.01,-7.5,5.93,14.71
26.64280390739441,3,3,3,1,-10.81,-2.89,-0.65,-10.21,4.79,12.7
26.6628041267395,3,3,3,2,-10.34,-3.06,-2.03,-11.62,4.09,9.949999999999999
26.68280410766602,3,3,3,2,-10.55,-1.94,-3.19,-10.95,2.65,7.46
26.70280408859253,3,3,3,2,-11.22,1.6,-2.13,-6.74,0.51,6.15
26.72280406951904,3,3,3,2,-11.17,2.41,-1.65,-4.22,-0.8,5.94
26.74280405044556,3,3,3,2,-12.92,-1.29,-1.62,-5.68,-1,6.07
26.76280403137207,3,3,3,2,-13.37,-3.14,0.79,-5.86,-1.41,6.14
26.78380393981934,3,3,3,2,-13.36,-6.14,2.99,-6.78,-3.72,4.22
26.80380392074585,3,3,3,2,-15.37,-7.7,3.8,-9.81,-5.61,-0.38
26.82380414009094,3,3,3,2,-14.11,-4.56,2.29,-10.89,-9.380000000000001,-6.52
26.84380412101746,3,3,3,2,-12.28,0.05,-2.28,-8.51,-8.01,-11.44
26.86380410194397,3,3,3,2,-14.95,6.18,-3.31,-4.85,-4.16,-15.78
26.88380408287048,3,3,3,2,-17.26,6.52,-2.34,-6.78,-3.28,-16.12
26.903804063797,3,3,3,2,-15.52,7.33,-2.19,-8.48,-1.4,-15.38
26.92380404472351,3,3,3,2,-13.59,8.550000000000001,-2.96,-7.56,1.44,-15.17
26.94380402565002,3,3,3,2,-11.11,6.92,-3.11,-4.12,2.13,-22
26.96380400657654,3,3,3,2,-9.48,7.49,-2.95,1.56,2.18,-26.17
26.98380398750305,3,3,3,2,-7.32,7.31,-3.06,6.12,2.31,-27.17
27.00380396842957,3,3,3,1,-7.1,7.5,-2.77,12.23,2.12,-27.67
27.02380394935608,3,3,3,1,-5.34,8.1,-2.4,14.13,-1.2,-25.65
27.04380393028259,3,3,3,1,-4.02,8.08,-2.58,13.41,-4.93,-24.53
27.06380391120911,3,3,3,1,-3.58,7.15,-2.38,13.64,-5.52,-23.42
27.0838041305542,3,3,3,1,-3.41,7.03,-1.8,15.58,-5,-21.25
27.10380411148071,3,3,3,1,-3.12,7.15,-0.57,15.54,-4.96,-19.74
27.12380409240723,3,3,3,1,-3.85,5.89,-0.4,13.57,-1.91,-16.14
27.14380407333374,3,3,3,1,-5.43,3.34,0.29,9.1,1.29,-12.7
27.16380405426025,3,3,3,1,-6.66,-0.42,-2.18,10.25,6.7,-8.42
27.18380403518677,3,3,3,1,-11,-8.529999999999999,3.33,13.13,10.18,-6.6
27.20380401611328,3,3,3,1,-14.9,-15.96,5.79,18,9.210000000000001,-5.45
27.22380399703979,3,3,3,1,-15.75,-13.85,4.39,11.05,-1.86,-3.98
27.24380397796631,3,3,3,1,-13.17,-8.890000000000001,1.04,6.76,-4.9,-4.56
27.26380395889282,3,3,3,1,-7.94,4.42,-6.89,7.04,-4.78,-4.65
27.28380393981934,3,3,3,1,-14.02,-3.37,5.92,9.98,-6.31,1.17
27.30380392074585,3,3,3,2,-13.82,-3.26,7.75,10.63,-12.01,3.9
27.32380414009094,3,3,3,2,-11.37,3.35,-0.17,18.08,-6.27,6.93
27.34380412101746,3,3,3,2,-9.09,11.54,-6.03,10,5.86,8.82
27.36380410194397,3,3,3,2,-3.08,8.65,-8.65,8.1,6.91,7.16
27.38380408287048,3,3,3,2,-10.96,5.9,-6.61,-1.57,10.28,11.88
27.403804063797,3,3,3,2,-14.33,5.82,-3.2,3.85,7.19,15.12
27.42380404472351,3,3,3,2,-10.76,3.06,-2.24,2.91,8.58,12.99
27.44380402565002,3,3,3,2,-9.76,3.94,-1.17,3.63,8.82,13.38
27.46380400657654,3,3,3,2,-9.73,4.26,-2.73,2.26,7.88,13.97
27.48380398750305,3,3,3,2,-9.5,3.71,-3.34,-0.9,7.52,13.86
27.50380396842957,3,3,3,2,-9.720000000000001,3.22,-2.55,-6.64,8.51,13.63
27.52380394935608,3,3,3,2,-10.11,1.98,-1.29,-13.45,9.82,13.77
27.54380393028259,3,3,3,2,-9.57,1.37,-0.58,-18.3,10.32,14.36
27.56380391120911,3,3,3,2,-9.42,0.77,-1.26,-18.95,10.02,14.29
27.5838041305542,3,3,3,2,-9.16,-0.37,-1.78,-17.95,9.84,14.21
27.60380411148071,3,3,3,2,-9.470000000000001,-1.14,-2.12,-15.87,9.52,13.88
27.62380409240723,3,3,3,2,-9.539999999999999,-1.86,-1.68,-13.25,8.81,14.37
27.64380407333374,3,3,3,2,-10.1,-2.13,-1.79,-10.09,8.58,15.02
27.66380405426025,3,3,3,2,-10.23,-0.99,-1.72,-6.85,7.1,15.4
27.68380403518677,3,3,3,2,-10.16,0.29,-1.6,-6.27,5.84,15.15
27.70380401611328,3,3,3,1,-10.65,-0.41,-1.38,-7.38,4.94,13.96
27.72380399703979,3,3,3,1,-10.5,-2.13,-0.96,-10.15,4.53,12.63
27.74380397796631,3,3,3,1,-10.44,-2.79,-1.37,-12.07,3.98,10.51
27.76380395889282,3,3,3,1,-10.35,-1.55,-2.79,-9.65,2.11,8.279999999999999
27.78380393981934,3,3,3,1,-10.27,0.61,-2.91,-5.64,0.55,7.03
27.80480408668518,3,3,3,1,-10.39,2.63,-2.58,-4.6,-0.16,6.65
27.82480406761169,3,3,3,1,-12.57,1.09,-2.53,-6.36,0.23,7.27
27.84480404853821,3,3,3,1,-13.46,-3.3,-0.13,-6.49,-0.58,6.96
27.86480402946472,3,3,3,1,-13.92,-6.2,1.43,-6.92,-2.76,4.89
27.88480401039124,3,3,3,1,-15.69,-7.18,5.02,-8.01,-5.53,-0.24
27.90480399131775,3,3,3,1,-15.69,-6.9,3.46,-10.56,-8.42,-6.25
27.92480397224426,3,3,3,1,-13.14,-0.79,-1.93,-8.56,-8.220000000000001,-12.56
27.94480395317078,3,3,3,1,-15.71,5.72,-1.99,-5.41,-5.24,-16.08
27.96480393409729,3,3,3,1,-17.05,7.12,-1.02,-7.56,-4.45,-16.44
27.9848039150238,3,3,3,1,-15.98,7.41,-1.64,-9.859999999999999,-1.39,-15.93
28.0048041343689,3,3,3,1,-13.87,8.82,-2.38,-7.73,1.29,-16.99
28.02480411529541,3,3,3,1,-10.67,7.47,-3.09,-5.05,1.66,-23.91
28.04480409622192,3,3,3,1,-9.33,7.56,-3.1,-0.61,1.42,-27.44
28.06480407714844,3,3,3,1,-7.28,6.84,-3.24,4.79,1.54,-28.93
28.08480405807495,3,3,3,1,-6.97,7,-2.98,11.09,0.8,-29.75
28.10480403900146,3,3,3,1,-5.19,7.53,-2.77,13.5,-2.93,-28.39
28.12480401992798,3,3,3,1,-3.87,7.58,-2.94,14.51,-5.87,-26.84
28.14480400085449,3,3,3,1,-3.46,7.3,-2.44,16.32,-6.83,-24.93
28.16480398178101,3,3,3,1,-3,7.57,-1.77,17.54,-6.91,-21.68
28.18480396270752,3,3,3,1,-3.06,6.75,0.24,14.64,-7.38,-19.13
28.20480394363403,3,3,3,1,-4.49,4.83,1.02,12.09,-5.89,-15.84
28.22480392456055,3,3,3,1,-6.1,2.71,-0.09,11.81,-1.34,-12.93
28.24480414390564,3,3,3,1,-8.18,-3.26,-0.62,11.02,6.56,-10.08
28.26480412483215,3,3,3,1,-11.76,-8.119999999999999,3.1,19.05,11.31,-7.19
28.28480410575867,3,3,3,1,-17.72,-16.36,4.7,16.1,2.94,-3.74
28.30480408668518,3,3,3,2,-13.25,-10.67,2.69,7.19,-5.35,-3.01
28.32480406761169,3,3,3,2,-12.43,-5.84,-0.12,2.52,-2.25,-3.56
28.34480404853821,3,3,3,2,-7.52,11.48,-5.6,2.85,-2.21,-3.51
28.36480402946472,3,3,3,2,-13.25,-2.06,5.34,4.04,-11.18,7.38
28.38480401039124,3,3,3,2,-10.38,-1.37,4.41,10.05,-9.630000000000001,7.46
28.40480399131775,3,3,3,2,-11.92,-0.68,1.45,17.3,1.29,8.24
28.42480397224426,3,3,3,2,-9.050000000000001,11.79,-6.39,13.53,5.66,11.8
28.44480395317078,3,3,3,2,-6.44,8.369999999999999,-7.31,3.15,6.78,8.85
28.46480393409729,3,3,3,3,-9.460000000000001,5.37,-5.38,0.04,9.630000000000001,11.64
28.4848039150238,3,3,3,3,-11.76,5.11,-3.7,1.59,8.43,13.84
28.5048041343689,3,3,3,3,-10.96,1.87,-1.65,1.61,8.300000000000001,12.91
28.52480411529541,3,3,3,3,-10.1,3.14,-0.8100000000000001,3.52,8.359999999999999,13.32
28.54480409622192,3,3,3,3,-9.58,4.32,-2.24,2.75,7.7,13.66
28.56480407714844,3,3,3,3,-9.26,3.84,-2.84,-1.93,7.52,13.59
28.58480405807495,3,3,3,3,-9.890000000000001,3.14,-2.36,-8.41,8.529999999999999,13.43
28.60480403900146,3,3,3,3,-10.25,1.84,-1.12,-15.08,9.550000000000001,13.83
28.62480401992798,3,3,3,3,-9.699999999999999,0.4,-0.79,-17.76,9.539999999999999,14.67
28.64480400085449,3,3,3,3,-9.539999999999999,-0.11,-1.4,-16.75,9.4,14.93
28.66480398178101,3,3,3,3,-9.279999999999999,0.17,-1.83,-13.9,9.550000000000001,14.28
28.68480396270752,3,3,3,3,-9.58,-0.26,-1.73,-12.66,9.5,14.52
28.70480394363403,3,3,3,3,-9.77,-1.15,-0.98,-10.4,8.619999999999999,15.14
28.72480392456055,3,3,3,3,-9.98,-1.61,-1.6,-7.65,7.95,15.8
28.74480414390564,3,3,3,3,-10.13,-1.13,-2.04,-5.65,7.23,15.92
28.76480412483215,3,3,3,3,-10.45,0.29,-1.56,-5.37,6.32,15.07
28.78480410575867,3,3,3,3,-10.58,-0.68,-0.7,-8.470000000000001,5.56,13.9
28.80480408668518,3,3,3,3,-10.47,-3.48,-0.65,-12.49,4.85,12.39
28.82480406761169,3,3,3,3,-10.64,-3.55,-2.15,-12.07,4.35,10.45
28.84580397605896,3,3,3,3,-10.87,-0.42,-3.01,-7.69,1.72,9.26
28.86580395698547,3,3,3,3,-10.56,1.64,-2.37,-2.86,-0.46,7.34
28.88580393791199,3,3,3,3,-11.57,1.83,-2.52,-2.7,-0.65,7.42
28.9058039188385,3,3,3,3,-12.75,-1.28,-2.3,-4.38,-0.64,8.23
28.92580413818359,3,3,3,3,-13.31,-4.5,0.37,-4.99,-1.37,6.87
28.94580411911011,3,3,3,3,-15.07,-7.08,1.97,-7.26,-3.43,3.64
28.96580410003662,3,3,3,3,-14.05,-5.15,4.52,-9,-7.13,-1.34
28.98580408096313,3,3,3,3,-13.8,-2.21,2.24,-12.52,-7.7,-9.470000000000001
29.00580406188965,3,3,3,3,-13.14,2.74,-2.15,-10.21,-6.7,-14.83
29.02580404281616,3,3,3,3,-15.41,5.06,-1.17,-8.44,-4.71,-17.3
29.04580402374268,3,3,3,3,-15.74,8.69,-0.87,-9.9,-2.17,-16.39
29.06580400466919,3,3,3,3,-15.34,7.78,-1.86,-8.539999999999999,1.71,-15.11
29.0858039855957,3,3,3,3,-12.49,8,-2.96,-4.73,2.87,-20.1
29.10580396652222,3,3,3,3,-10.33,7.62,-3.09,-2,2.82,-25.6
29.12580394744873,3,3,3,3,-8.289999999999999,6.84,-3.22,1.73,3.11,-27.13
29.14580392837524,3,3,3,3,-7.88,6.51,-3.06,8.789999999999999,3.9,-28.15
29.16580390930176,3,3,3,3,-6.76,7.37,-2.54,11.54,-1.72,-28.03
29.18580412864685,3,3,3,3,-5.35,7.71,-2.64,11.9,-4.09,-27.24
29.20580410957336,3,3,3,3,-4.45,6.49,-2.72,12.55,-4.4,-26.78
29.22580409049988,3,3,3,3,-4.08,6.67,-2.38,18.57,-5.31,-23.97
29.24580407142639,3,3,3,3,-3.69,8.02,-0.58,18.14,-5.86,-23.06
29.26580405235291,3,3,3,3,-3.42,5.71,0.74,14.7,-4.67,-16.36
29.28580403327942,3,3,3,3,-4.88,5.45,1.34,13.01,-1.21,-11.92
29.30580401420593,3,3,3,3,-4.89,3.06,-0.31,12.77,1.1,-9.949999999999999
29.32580399513245,3,3,3,3,-8.93,-4.5,1.37,17.35,9.949999999999999,-6.62
29.34580397605896,3,3,3,3,-13.97,-14.72,4.4,18.53,9.210000000000001,-5.81
29.36580395698547,3,3,3,3,-16.83,-15.01,4.65,7.66,-3.01,-3.25
29.38580393791199,3,3,3,3,-12.82,-8.23,1.35,4.27,-2.83,-3.23
29.4058039188385,3,3,3,3,-10.85,-2.57,-1.68,4.45,-1.79,-3.81
29.42580413818359,3,3,3,3,-9.44,6.2,-1.56,8.960000000000001,-7.79,3.94
29.44580411911011,3,3,3,3,-15.16,-7.29,7.73,9.41,-10.97,5.68
29.46580410003662,3,3,3,3,-10.12,0.86,3.56,18.3,-4.29,6.93
29.48580408096313,3,3,3,3,-11.09,4.59,-3.43,11.07,5.47,10.02
29.50580406188965,3,3,3,3,-2.93,14.73,-7.73,10.8,6.3,9.02
29.52580404281616,3,3,3,3,-6.88,7.52,-6.77,-2.21,10.23,12.84
29.54580402374268,3,3,3,3,-13.24,6.26,-3.4,0.05,7.57,14.57
29.56580400466919,3,3,3,3,-12.6,4.6,-3.23,-0.08,8.31,12.59
29.5858039855957,3,3,3,3,-9.74,1.96,-1.68,1.29,8.32,12.65
29.60580396652222,3,3,3,3,-9.9,3.11,-1.6,1.3,7.98,13
29.62580394744873,3,3,3,3,-9.68,4.18,-3.08,-0.99,6.89,13.44
29.64580392837524,3,3,3,2,-9.52,3.63,-2.63,-3.47,7.05,13.46
29.66580390930176,3,3,3,2,-10.15,2.01,-1.92,-11.43,8.369999999999999,13.43
29.68580412864685,3,3,3,2,-9.99,1.64,-1.22,-14.78,8.81,13.82
29.70580410957336,3,3,3,2,-9.6,1.5,-0.99,-15.06,8.880000000000001,13.87
29.72580409049988,3,3,3,2,-9.26,1.1,-1.51,-14.85,9.32,14.27
29.74580407142639,3,3,3,2,-9.289999999999999,0.6,-1.65,-13.98,9.470000000000001,13.94
29.76580405235291,3,3,3,2,-9.49,0.27,-1.61,-11.31,8.6,14.87
29.78580403327942,3,3,3,2,-9.539999999999999,-0.31,-1.33,-8.94,8.09,15.6
29.80580401420593,3,3,3,1,-9.630000000000001,-0.8,-1.5,-8.050000000000001,8.050000000000001,15.97
29.82580399513245,3,3,3,1,-10.03,-1.13,-1.78,-6.53,6.96,16.21
29.84580397605896,3,3,3,1,-10.25,-1.18,-1.4,-6.95,6.53,16.05
29.8668041229248,3,3,3,1,-11.16,-2.26,-0.67,-10.72,5.72,13.56
29.88680410385132,3,3,3,1,-11.44,-2.91,-0.96,-11.76,4.4,10.37
29.90680408477783,3,3,3,0,-10.91,-3.09,-1.77,-11.13,3.31,8.94
29.92680406570435,3,3,3,0,-10.76,-1.11,-2.54,-5.92,0.54,6.57
29.94680404663086,3,3,3,0,-10.8,2.45,-2.5,-4.99,0.01,6.54
29.96680402755737,3,3,3,0,-11.29,2.14,-3.09,-4.65,-0.55,7.99
29.98680400848389,3,3,3,0,-12.92,-1.23,-2.06,-4.14,-1.12,7.89
30.0068039894104,3,3,3,0,-12.7,-2.95,-0.12,-4.51,-1.67,6.99
30.02680397033691,3,3,3,0,-13.72,-5.82,2.59,-10.05,-4.92,0.2
30.04680395126343,3,3,3,0,-13.98,-6.06,4.14,-12.45,-6.53,-2.06
30.06680393218994,3,3,3,0,-13.15,-3.54,2.24,-13.41,-7.78,-11.79
30.08680391311646,3,3,3,0,-12.68,2.27,-2.32,-9.44,-5.05,-14.42
30.10680413246155,3,3,3,0,-14.75,5.1,-1.84,-8.539999999999999,-3.75,-15.34
30.12680411338806,3,3,3,0,-15.42,8.390000000000001,-1.18,-9.35,-1.12,-14.75
30.14680409431458,3,3,3,0,-15.51,6.72,-1.97,-9.83,0.95,-13.98
30.16680407524109,3,3,3,0,-11.89,7.69,-2.91,-4.21,3.07,-21.58
30.1868040561676,3,3,3,0,-10.69,6.64,-2.64,-1.66,2.85,-26.07
30.20680403709412,3,3,3,0,-8.58,6.96,-2.33,0.89,2.88,-26.96
30.22680401802063,3,3,3,0,-7.76,6.44,-2.08,10.77,2.68,-28.74
30.24680399894714,3,3,3,0,-7.1,6.93,-1.56,12.46,1.2,-28.77
30.26680397987366,3,3,3,0,-5.8,7.37,-2.1,13.03,-3.81,-27.94
30.28680396080017,3,3,3,0,-4.66,7.16,-2.23,14.25,-5.66,-27.01
30.30680394172668,3,3,3,0,-4.49,6.8,-1.91,14.95,-5.99,-25.69
30.3268039226532,3,3,3,0,-3.18,8.23,-0.82,16.1,-6.95,-21.88
30.34680414199829,3,3,3,0,-3.34,7.95,-0.82,14.95,-6.36,-20.68
30.3668041229248,3,3,3,0,-4.45,4.42,0.89,9.550000000000001,-2.89,-12.32
30.38680410385132,3,3,3,0,-6.33,-0.04,0,11.85,2.99,-8.630000000000001
30.40680408477783,3,3,3,0,-8.02,-2.68,0.84,15.32,7.58,-7.05
30.42680406570435,3,3,3,0,-14.58,-15.75,4.56,18.86,6.78,-6.06
30.44680404663086,3,3,3,0,-17.58,-17.04,4.8,7.46,0.73,-4.76
30.46680402755737,3,3,3,0,-13.2,-9.17,1.08,3.76,-4.7,-5.08
30.48680400848389,3,3,3,0,-10.73,1.08,-3.39,2.18,-3.13,-5.76
30.5068039894104,3,3,3,0,-8.84,6.65,-6.48,3.08,-7.99,0.53
30.52680397033691,3,3,3,0,-10.29,-1.48,7.85,1.37,-14.71,6.65
30.54680395126343,3,3,3,0,-9.69,0.25,4.73,12.16,-1.27,6.95
30.56680393218994,3,3,3,0,-11.15,8.539999999999999,-3.09,11.09,6.02,10.27
30.58680391311646,3,3,3,0,-7.85,8.94,-7.55,5.38,5.6,8.699999999999999
30.60680413246155,3,3,3,0,-9.109999999999999,5.99,-5.51,-2.38,8.51,10.84
30.62680411338806,3,3,3,0,-11.08,4.85,-3.69,0.64,7.78,13.25
30.64680409431458,3,3,3,0,-11.09,3.1,-3.29,-0.77,7.9,12.54
30.66680407524109,3,3,3,0,-10.2,1.17,-1.44,1.22,7.7,12.48
30.6868040561676,3,3,3,0,-9.77,3.39,-2.51,2.49,7.47,13.06
30.70680403709412,3,3,3,0,-9.41,3.88,-2.75,-0.64,7.19,13.25
30.72680401802063,3,3,3,0,-9.66,3.21,-2.32,-6.39,7.81,13.44
30.74680399894714,3,3,3,0,-10.01,1.63,-1.31,-11.36,8.619999999999999,13.24
30.76680397987366,3,3,3,0,-9.74,1.47,-0.95,-13.77,8.94,13.48
30.78680396080017,3,3,3,0,-9.1,2.26,-0.82,-13.64,9.34,13.86
30.80680394172668,3,3,3,0,-9.199999999999999,1.08,-1.75,-15.27,10.09,14.46
30.8268039226532,3,3,3,0,-9.529999999999999,0.44,-2.15,-14.68,9.720000000000001,14.56
30.84680414199829,3,3,3,0,-9.32,-0.85,-1.77,-11.88,8.699999999999999,14.97
30.8668041229248,3,3,3,0,-10,-1.76,-1.48,-9.039999999999999,8.48,15.52
30.88780403137207,3,3,3,0,-9.9,-1.75,-1.34,-6.66,7.22,15.34
30.90780401229858,3,3,3,0,-9.9,-0.07000000000000001,-1.43,-6.05,6.32,14.44
30.9278039932251,3,3,3,0,-10.01,0.29,-1.48,-7.42,5.52,13.62
30.94780397415161,3,3,3,0,-10.67,-1.99,-1.3,-8.619999999999999,4.68,12.65
30.96780395507812,3,3,3,0,-10.07,-2.44,-1.51,-8.52,4.02,11.28
30.98780393600464,3,3,3,0,-10.05,-1.38,-2,-8,2.72,9.210000000000001
31.00780391693115,3,3,3,0,-10.03,-0.27,-2.48,-6.99,1.45,7.55
31.02780413627625,3,3,3,0,-10.88,2.39,-2.24,-5.34,0.67,6.85
31.04780411720276,3,3,3,0,-10.84,2.33,-2.11,-6.07,-0.14,6.88
31.06780409812927,3,3,3,0,-12.86,0.13,-2.09,-7.5,0.12,7.3
31.08780407905579,3,3,3,0,-13.02,-3.76,0.06,-6.94,-0.93,6.82
31.1078040599823,3,3,3,0,-13.28,-5.63,1.82,-7.06,-2.71,4.31
31.12780404090881,3,3,3,0,-14.72,-5.24,5.3,-9.19,-5.54,-0.77
31.14780402183533,3,3,3,0,-14.57,-5.71,3.09,-13.08,-8.15,-6.06
31.16780400276184,3,3,3,0,-12.76,-1.08,-2.53,-11.15,-7.93,-11.77
31.18780398368835,3,3,3,0,-13.92,3.63,-3.47,-7.08,-4.72,-15.12
31.20780396461487,3,3,3,0,-16.6,4.69,-1.67,-6.7,-4.73,-15.24
31.22780394554138,3,3,3,0,-14.75,8.050000000000001,-1.64,-8.470000000000001,-1.85,-15.02
31.2478039264679,3,3,3,0,-13.77,8.289999999999999,-2.96,-7.07,1.78,-14.67
31.26780390739441,3,3,3,0,-12.03,7.49,-3.77,-3.69,2.31,-21.53
31.2878041267395,3,3,3,0,-9.65,6.91,-3.36,1.32,1.73,-25.61
31.30780410766602,3,3,3,0,-8.31,7.04,-3.45,6.42,1.52,-26.64
31.32780408859253,3,3,3,0,-6.92,6.88,-3.33,12.01,1.32,-27.38
31.34780406951904,3,3,3,0,-6.61,6.71,-3.11,15.42,-1.01,-26.17
31.36780405044556,3,3,3,0,-4.52,7.6,-3.23,15.84,-4.58,-24.56
31.38780403137207,3,3,3,0,-3.6,8.02,-3.08,16.48,-6.06,-23.26
31.40780401229858,3,3,3,0,-3.27,8.619999999999999,-2.18,18.44,-6.23,-21.48
31.4278039932251,3,3,3,0,-3.16,8.92,-0.5,15.89,-7.11,-19.16
31.44780397415161,3,3,3,1,-3.68,5.85,0.46,11.56,-5.66,-16.61
31.46780395507812,3,3,3,1,-4.87,3.54,1.28,10.56,-1.06,-11.96
31.48780393600464,3,3,3,1,-7.38,-0.41,0.06,13.53,3.36,-9.470000000000001
31.50780391693115,3,3,3,1,-9.56,-6.22,1.41,18.43,8.91,-8.550000000000001
31.52780413627625,3,3,3,1,-14.96,-15.81,5.99,23.15,9.619999999999999,-5.46
31.54780411720276,3,3,3,1,-17.92,-16.07,5.5,12.29,-0.79,-4.81
31.56780409812927,3,3,3,1,-12.26,-6.8,0.03,4.44,-4.48,-5.31
31.58780407905579,3,3,3,1,-10.86,-0.76,-2.08,0.49,-0.93,-5.48
31.6078040599823,3,3,3,1,-10.22,7.56,0.2,4.41,-5.23,1.15
31.62780404090881,3,3,3,1,-13.18,-4.88,7.16,9.83,-11.9,3.78
31.64780402183533,3,3,3,2,-9.800000000000001,-0.64,2.92,18.29,-6.46,6.81
31.66780400276184,3,3,3,2,-11.72,4.45,-2.17,15.69,5.03,9.48
31.68780398368835,3,3,3,2,-6.27,13.13,-6.6,6.48,6.45,8.17
31.70780396461487,3,3,3,2,-6.1,8.109999999999999,-5.18,-3.31,9.25,9.210000000000001
31.72780394554138,3,3,3,2,-10.82,5.17,-3.18,-4.5,8.640000000000001,12.52
31.7478039264679,3,3,3,2,-12.13,2.04,-2.76,-3.99,8.109999999999999,12.52
31.76780390739441,3,3,3,2,-10.71,1.32,-2.23,1.1,8.050000000000001,11.63
31.7878041267395,3,3,3,2,-9.550000000000001,5.08,-3.22,3.56,8.07,13.11
31.80780410766602,3,3,3,2,-9.640000000000001,4.76,-3.52,-0.62,7.58,13.37
31.82780408859253,3,3,3,2,-9.65,2.56,-3.06,-7.04,8.109999999999999,13.44
31.84780406951904,3,3,3,2,-9.98,1.42,-2.05,-10.91,9.050000000000001,13.57
31.86780405044556,3,3,3,2,-9.65,1.25,-1.26,-12.62,9.550000000000001,14.55
31.88780403137207,3,3,3,2,-9.35,1.14,-0.86,-13.4,10.11,15.29
31.90880393981934,3,3,3,2,-9.539999999999999,0.46,-1.75,-13.77,10.22,15.31
31.92880392074585,3,3,3,2,-9.720000000000001,0.04,-1.87,-13.26,10.03,14.82
31.94880414009094,3,3,3,2,-9.380000000000001,-1.64,-1.71,-12.63,10.32,15.5
31.96880412101746,3,3,3,2,-9.449999999999999,-2.01,-1.78,-10.31,9.08,14.76
31.98880410194397,3,3,3,2,-9.98,-0.24,-1.23,-9.15,7.84,14.07
32.00880408287048,3,3,3,2,-9.69,0.97,-1.69,-9.710000000000001,7.16,13.02
32.028804063797,3,3,3,2,-10.3,-0.38,-2.09,-9.210000000000001,5.31,12.53
32.04880404472351,3,3,3,2,-10.74,-1.22,-1.57,-8.859999999999999,4.79,12.39
32.06880402565002,3,3,3,2,-10.6,-1.7,-1.2,-9.710000000000001,4.44,11.81
32.08880400657654,3,3,3,2,-10.41,-2.38,-1.09,-9.99,3.28,10.34
32.10880398750305,3,3,3,2,-10.63,-1.06,-1.67,-8.35,2.15,8.210000000000001
32.12880396842957,3,3,3,2,-11.76,0.72,-2.3,-6.38,1.1,6.46
32.14880394935608,3,3,3,2,-11.26,1.66,-2.98,-6.12,-0.3,5.33
32.16880393028259,3,3,3,2,-13.27,-0.08,-2.86,-6.07,-0.93,4.67
32.18880391120911,3,3,3,2,-13.09,-3.96,-0.62,-5.49,-2.68,4.19
32.2088041305542,3,3,3,2,-13.94,-5.71,1.67,-8.02,-3.94,2.56
32.22880411148071,3,3,3,2,-15.62,-6.05,4.16,-12.48,-7.3,-2.15
32.24880409240723,3,3,3,2,-13.91,-4.5,2.84,-13.09,-9.01,-9.51
32.26880407333374,3,3,3,2,-12.52,0.25,-2.41,-8.25,-7.06,-14.46
32.28880405426025,3,3,3,2,-13.71,4.58,-2.54,-5.89,-4.42,-15.81
32.30880403518677,3,3,3,2,-15.94,5.44,-1.33,-7.25,-3.64,-15.34
32.32880401611328,3,3,3,2,-13.9,7.3,-1.14,-6.79,-0.13,-14.37
32.34880399703979,3,3,3,2,-12.97,8.24,-1.91,-4.96,1.96,-17.7
32.36880397796631,3,3,3,2,-11.44,6.89,-2.52,-2.64,1.79,-24.27
32.38880395889282,3,3,3,2,-8.949999999999999,7.18,-2.24,2.05,0.87,-27.13
32.40880393981934,3,3,3,2,-7.71,7.63,-2.27,5.32,1.27,-28.36
32.42880392074585,3,3,3,2,-7.07,6.93,-2.36,10.54,0.61,-28.6
32.44880414009094,3,3,3,2,-5.79,7.1,-2.28,10.38,-3.9,-26.35
32.46880412101746,3,3,3,2,-4.49,7.4,-2.63,10.65,-7.01,-24.85
32.48880410194397,3,3,3,2,-3.84,7.61,-2.46,12.82,-6.86,-23.05
32.50880408287048,3,3,3,2,-3.04,9.06,-2.09,12.73,-7.52,-21.66
32.528804063797,3,3,3,2,-2.89,5.32,-0.2,8.01,-6.99,-19.46
32.54880404472351,3,3,3,2,-4.47,4.26,0.53,9.34,-2.6,-13.52
32.56880402565002,3,3,3,2,-6.33,1.76,0.58,12,2.17,-10.14
32.58880400657654,3,3,3,2,-8.16,-3.58,-0.18,17.88,8.68,-7.27
32.60880398750305,3,3,3,2,-14.19,-11.74,3.89,21.09,7.43,-3.71
32.62880396842957,3,3,3,2,-17.83,-17.69,5.51,16.94,-0.16,-3.85
32.64880394935608,3,3,3,1,-12.9,-9.380000000000001,1.83,10.56,-5.33,-2.89
32.66880393028259,3,3,3,1,-12.17,-2.37,-0.76,5.17,-2.06,-4.25
32.68880391120911,3,3,3,1,-9.06,10.32,-3.13,4.84,-5.34,-1.05
32.7088041305542,3,3,3,1,-12.89,-4.09,7,1.52,-13.71,5.46
32.72880411148071,3,3,3,1,-10.2,-0.82,3.05,10.47,-5.83,6.5
32.74880409240723,3,3,3,1,-11.87,0.07000000000000001,-1.4,13.6,5.45,7.67
32.76880407333374,3,3,3,1,-6.01,13.35,-5.89,10.65,5.63,9.390000000000001
32.78880405426025,3,3,3,1,-6.98,6.63,-6.32,-0.66,8.109999999999999,8.390000000000001
32.80880403518677,3,3,3,1,-11.07,5.5,-3.64,0.65,7.76,12.37
32.82880401611328,3,3,3,1,-11.76,5.04,-2.7,-0.34,8.43,12.27
32.84880399703979,3,3,3,1,-10.99,2.01,-1.42,0.02,7.88,11.74
32.86880397796631,3,3,3,1,-10.3,3.1,-2.03,3.03,7.44,12.86
32.88880395889282,3,3,3,1,-9.83,4.55,-3.68,1.89,7.27,13.44
32.90880393981934,3,3,3,1,-9.5,4.05,-3.15,-2.87,7.65,13.73
32.92980408668518,3,3,3,1,-9.960000000000001,2.73,-1.6,-8.41,8.699999999999999,13.83
32.94980406761169,3,3,3,1,-9.81,1.98,-0.8100000000000001,-13.11,9.4,14.26
32.96980404853821,3,3,3,1,-9.35,0.64,-0.77,-15.27,9.960000000000001,14.89
32.98980402946472,3,3,3,1,-9.26,0.92,-1.11,-15.01,10.11,14.83
33.00980401039124,3,3,3,1,-9.59,-0.14,-1.65,-14.14,10.09,14.43
33.02980399131775,3,3,3,1,-9.289999999999999,-1.1,-1.56,-11.93,9.32,15.13
33.04980397224426,3,3,3,1,-9.76,-1.61,-1.48,-8.57,8.85,15.52
33.06980395317078,3,3,3,1,-9.869999999999999,-1.47,-1.67,-5.68,7.35,15.47
33.08980393409729,3,3,3,1,-9.9,0.53,-1.46,-5.35,6.47,14.73
33.1098039150238,3,3,3,1,-10.44,-0.07000000000000001,-1.67,-6.85,5.38,13.79
33.1298041343689,3,3,3,1,-10.7,-1.65,-1.1,-8.640000000000001,4.33,12.63
33.14980411529541,3,3,3,1,-10.61,-2.91,-0.67,-10.98,4.24,10.58
33.16980409622192,3,3,3,1,-10.49,-2.29,-1.35,-11.79,3.34,8.140000000000001
33.18980407714844,3,3,3,1,-10.4,-0.58,-2.01,-9.390000000000001,1.07,6.69
33.20980405807495,3,3,3,1,-10.44,0.97,-1.87,-5.41,-0.37,5.99
33.22980403900146,3,3,3,1,-10.52,1.87,-2.17,-4.93,-1.03,5.93
33.24980401992798,3,3,3,1,-12.06,0.07000000000000001,-2.48,-5.92,-1.26,6.17
33.26980400085449,3,3,3,1,-13.16,-3.55,-0.12,-3.87,-2.59,5.73
33.28980398178101,3,3,3,1,-12.65,-4.79,1.42,-5.46,-3.98,4.57
33.30980396270752,3,3,3,1,-15.51,-5.14,3.22,-8.5,-5.11,0.13
33.32980394363403,3,3,3,1,-14.7,-4.88,3.33,-10.52,-8.619999999999999,-6.04
33.34980392456055,3,3,3,1,-12.56,-0.04,-1.6,-7.91,-7.91,-12.15
33.36980414390564,3,3,3,1,-13.48,4.22,-2.39,-5.77,-5.16,-14.85
33.38980412483215,3,3,3,1,-16.27,5.44,-1.41,-7.81,-5.15,-15.08
33.40980410575867,3,3,3,1,-14.64,7.49,-1.32,-7.45,-1.77,-13.77
33.42980408668518,3,3,3,1,-13.42,7.87,-2.29,-5.14,1.24,-15.92
33.44980406761169,3,3,3,1,-11.92,7.96,-2.66,-3.57,1.91,-22.59
33.46980404853821,3,3,3,1,-9.199999999999999,7.64,-2.55,-1.56,2.53,-25.67
33.48980402946472,3,3,3,1,-8.35,6.69,-2.47,4.33,3.09,-27.1
33.50980401039124,3,3,3,1,-7.48,6.79,-2.31,9.77,1.69,-27.76
33.52980399131775,3,3,3,1,-5.71,7.27,-2.29,10.89,-2.06,-27.06
33.54980397224426,3,3,3,1,-4.64,7.26,-2.79,11.63,-3.8,-26
33.56980395317078,3,3,3,1,-4.17,6.13,-2.89,12.53,-4.41,-24.42
33.58980393409729,3,3,3,1,-4.08,6.58,-2.29,14.86,-4.4,-22.11
33.6098039150238,3,3,3,0,-3.56,7.42,-1.29,14.24,-4.76,-20.83
33.6298041343689,3,3,3,0,-4.02,5.43,-0.71,12.15,-2.05,-17.81
33.64980411529541,3,3,3,0,-5.5,4.5,-0.16,11.87,2.03,-11.96
33.66980409622192,3,3,3,0,-6.84,-0.21,-2.21,12.8,6.7,-7.74
33.68980407714844,3,3,3,0,-9.15,-3.54,0.9399999999999999,18.18,7.98,-5.67
33.70980405807495,3,3,3,0,-14.15,-11.4,4.81,22.13,2.02,-3.76
33.72980403900146,3,3,3,0,-16.91,-16.01,6.65,14.44,-2.72,-3.85
33.74980401992798,3,3,3,0,-13.17,-9.32,1.65,8.630000000000001,-1.79,-3.11
33.76980400085449,3,3,3,0,-9.44,2.87,-4.93,7.85,-1.91,-2.4
33.78980398178101,3,3,3,0,-11.9,5.76,1.96,9.59,-6.23,2.43
33.80980396270752,3,3,3,0,-12.14,-3.31,5.81,14.15,-12.27,2.72
33.82980394363403,3,3,3,0,-9.75,1.31,3.78,14.77,-7.58,8.710000000000001
33.84980392456055,3,3,3,0,-11.19,7.21,-5.33,9.76,5.99,11.53
33.86980414390564,3,3,3,0,-4.24,11.54,-7.55,6.72,7.41,7.04
33.88980412483215,3,3,3,0,-9.15,6.1,-5.36,-0.64,9.699999999999999,10.67
33.90980410575867,3,3,3,0,-11.85,6.37,-2.71,-0.07000000000000001,7.85,12.76
33.92980408668518,3,3,3,0,-11.51,3.31,-1.95,-0.46,8.1,11.47
33.94980406761169,3,3,3,0,-10.42,2.55,-1.6,3.15,7.75,11.75
33.97080397605896,3,3,3,0,-9.82,4.83,-2.9,3.07,7.56,12.7
33.99080395698547,3,3,3,0,-9.49,4.66,-3.08,-1.49,7.29,12.61
34.01080393791199,3,3,3,0,-9.699999999999999,3.06,-2.29,-7.97,7.88,12.34
34.0308039188385,3,3,3,0,-10.15,1.67,-1.66,-13.06,8.529999999999999,12.37
34.05080413818359,3,3,3,0,-9.74,1.4,-1.19,-15.98,9.029999999999999,12.97
34.07080411911011,3,3,3,0,-9.44,0.43,-1.08,-17.48,9.630000000000001,13.35
34.09080410003662,3,3,3,0,-9.359999999999999,0.13,-1.81,-16.54,10.21,13.35
34.11080408096313,3,3,3,0,-9.460000000000001,-1.04,-1.9,-14.87,9.69,13.31
34.13080406188965,3,3,3,0,-9.619999999999999,-1.89,-1.04,-11.82,8.4,13.74
34.15080404281616,3,3,3,0,-10.07,-2.61,-0.85,-8.449999999999999,7.84,13.99
34.17080402374268,3,3,3,0,-10.05,-1.35,-1.4,-5.4,6.76,13.73
34.19080400466919,3,3,3,0,-9.58,0.59,-1.37,-4.78,5.57,13.09
34.2108039855957,3,3,3,0,-9.630000000000001,1.45,-1.55,-5.6,4.65,12.69
34.23080396652222,3,3,3,0,-10.21,0.33,-1.18,-8.08,4.4,12.47
34.25080394744873,3,3,3,0,-9.93,-2.07,-1.55,-10.11,4.42,11.28
34.27080392837524,3,3,3,0,-9.970000000000001,-2.38,-2.18,-8.9,2.74,9.550000000000001
34.29080390930176,3,3,3,0,-10.26,0,-2.47,-5.18,0.71,8.42
34.31080412864685,3,3,3,0,-10.61,2.53,-1.94,-3.13,-0.18,8.19
34.33080410957336,3,3,3,0,-10.82,3,-2.61,-4.66,-0.14,8.859999999999999
34.35080409049988,3,3,3,0,-12.47,1.44,-2.51,-4.75,-0.17,9.380000000000001
34.37080407142639,3,3,3,0,-12.74,-3.19,-1.3,-3.58,-1.49,8.02
34.39080405235291,3,3,3,0,-13.45,-5.29,0.64,-4.62,-2.92,5.23
34.41080403327942,3,3,3,0,-14.75,-6.88,3.55,-9.859999999999999,-7.25,-3.4
34.43080401420593,3,3,3,0,-14.6,-5.45,5.15,-12.71,-7.93,-9.15
34.45080399513245,3,3,3,0,-12.87,-2.37,1.09,-11.66,-7.87,-11.59
34.47080397605896,3,3,3,0,-13.58,3.58,-2.75,-7.79,-4.71,-15.93
34.49080395698547,3,3,3,0,-15.55,4.53,-1.67,-7.86,-4.33,-15.72
34.51080393791199,3,3,3,0,-15.06,6.98,-1.52,-8.300000000000001,0.34,-13.69
34.5308039188385,3,3,3,0,-14.16,7.65,-2.27,-4.5,2.18,-17.93
34.55080413818359,3,3,3,0,-12.07,7.13,-3.26,-3.41,2.21,-21.36
34.57080411911011,3,3,3,0,-9.85,7.06,-3.22,3.45,1.5,-25.77
34.59080410003662,3,3,3,0,-8.02,6.9,-3.24,6.28,1.51,-26.39
34.61080408096313,3,3,3,0,-7.38,6.84,-3.13,13.77,0.17,-26.97
34.63080406188965,3,3,3,0,-6.22,7.15,-2.79,14.42,-3.7,-26.27
34.65080404281616,3,3,3,0,-5.46,7.19,-2.51,14.59,-5.05,-25.8
34.67080402374268,3,3,3,0,-4.09,6.98,-2.78,17.37,-5.89,-23.53
34.69080400466919,3,3,3,0,-4.1,6.99,-2.32,18.28,-5.87,-22.23
34.7108039855957,3,3,3,0,-3.39,8.800000000000001,-1.27,14.12,-7.2,-18.97
34.73080396652222,3,3,3,0,-3.36,6.59,0.18,10.69,-4.19,-13.41
34.75080394744873,3,3,3,0,-5.37,5.49,1.29,10.9,-2.11,-10.58
34.77080392837524,3,3,3,0,-5.56,3.71,0.4,12.74,5.94,-6.99
34.79080390930176,3,3,3,0,-9.710000000000001,-3.81,1.73,15.53,8.48,-7.6
34.81080412864685,3,3,3,0,-12.04,-11.3,4.21,12.17,7.96,-4.91
34.83080410957336,3,3,3,0,-17.55,-16.52,4.21,5.24,-5.38,-3.93
34.85080409049988,3,3,3,0,-12.8,-11.25,2.41,5.35,-5,-4.3
34.87080407142639,3,3,3,0,-9.42,0.54,-3.35,7.71,-1.78,-2.78
34.89080405235291,3,3,3,0,-9.199999999999999,10.31,-3.61,7.36,-6.13,2
34.91080403327942,3,3,3,0,-11.88,-2.26,8.07,10.57,-9.09,6.43
34.93080401420593,3,3,3,0,-9.98,0.43,4.22,14.34,2.38,7.81
34.95080399513245,3,3,3,0,-10.73,5.79,-2.43,13.26,3.89,9.6
34.97080397605896,3,3,3,0,-7.26,11.93,-6.71,0.85,7.54,8.76
34.9918041229248,3,3,3,0,-9.27,8.15,-5.6,-2.47,8.67,10.56
35.01180410385132,3,3,3,0,-10.01,7.84,-3.82,-3.12,7.99,13.13
35.03180408477783,3,3,3,0,-11.3,2.97,-2.82,-1.62,7.52,12.29
35.05180406570435,3,3,3,0,-11.13,0.8100000000000001,-1.65,0.95,7.47,12.11
35.07180404663086,3,3,3,0,-9.74,3.32,-2.16,3.09,7.25,12.77
35.09180402755737,3,3,3,0,-9.57,3.69,-2.79,1.29,7.24,12.82
35.11180400848389,3,3,3,0,-9.4,3.15,-2.74,-7.32,8.16,12.72
35.1318039894104,3,3,3,0,-10.05,1.96,-1.42,-11.69,8.77,13.32
35.15180397033691,3,3,3,0,-9.960000000000001,1.71,-0.78,-13.26,9.029999999999999,13.82
35.17180395126343,3,3,3,0,-9.140000000000001,0.11,-0.77,-15.11,10.2,14.25
35.19180393218994,3,3,3,0,-9.199999999999999,0.8100000000000001,-1.19,-15.11,10.2,14.25
35.21180391311646,3,3,3,0,-9.550000000000001,-0.5600000000000001,-1.9,-13.47,10.11,14.42
35.23180413246155,3,3,3,0,-9.52,-1.1,-1.68,-8.359999999999999,8.59,14.91
35.25180411338806,3,3,3,0,-9.890000000000001,-1.58,-1.18,-7.14,8.630000000000001,15.21
35.27180409431458,3,3,3,0,-9.82,-1.42,-1.55,-4.9,7.11,14.86
35.29180407524109,3,3,3,0,-9.52,0.34,-1.42,-4.4,5.84,14.2
35.3118040561676,3,3,3,0,-10.01,1.15,-1.52,-6.34,5.69,13.66
35.33180403709412,3,3,3,0,-10.89,-0.32,-1.26,-9.220000000000001,4.89,12.5
35.35180401802063,3,3,3,0,-10.57,-1.73,-1.3,-11.06,4.28,10.84
35.37180399894714,3,3,3,0,-10.15,-1.73,-1.95,-10.58,2.93,9.09
35.39180397987366,3,3,3,0,-10.12,-1.25,-2.34,-9.57,2.02,8.24
35.41180396080017,3,3,3,0,-10.51,1.42,-2.29,-4.22,0.31,6.36
35.43180394172668,3,3,3,0,-11.58,1.48,-2.6,-4.9,-0.39,6.04
35.4518039226532,3,3,3,0,-12.67,0.08,-2.28,-5.85,-0.37,5.99
35.47180414199829,3,3,3,0,-13.02,-4.63,1.15,-6.25,-1.7,5.38
35.4918041229248,3,3,3,1,-13.56,-6.02,2.02,-6.82,-2.65,4.99
35.51180410385132,3,3,3,1,-15.64,-6.32,4.22,-10.36,-5.9,-0.55
35.53180408477783,3,3,3,1,-13.81,-3.67,2.06,-11.55,-9.09,-6.95
35.55180406570435,3,3,3,1,-12.99,-2.27,-0.04,-9.119999999999999,-7.2,-13.32
35.57180404663086,3,3,3,1,-14.96,5.46,-2.72,-5.73,-4.27,-16.17
35.59180402755737,3,3,3,1,-16.31,4.77,-2.22,-7.11,-4.05,-15.42
35.61180400848389,3,3,3,1,-15.1,6.54,-2.47,-8.140000000000001,-1.02,-13.91
35.6318039894104,3,3,3,1,-12.34,8.41,-3.23,-5.16,1.58,-15.51
35.65180397033691,3,3,3,1,-11.55,7.71,-3.36,-3.07,2.06,-22.44
35.67180395126343,3,3,3,1,-8.529999999999999,6.97,-3.12,-0.08,2.47,-25.71
35.69180393218994,3,3,3,1,-7.95,6.76,-3.2,6.38,2.48,-27.07
35.71180391311646,3,3,3,1,-6.48,7.12,-2.73,12.58,0.99,-27.23
35.73180413246155,3,3,3,1,-5.43,7.62,-2.82,14.32,-3.12,-26.31
35.75180411338806,3,3,3,1,-4.78,7.23,-2.69,14.99,-5.4,-25
35.77180409431458,3,3,3,1,-4.12,6.84,-2.57,16.27,-6.05,-23.31
35.79180407524109,3,3,3,1,-4.05,6.78,-1.69,18.66,-6.54,-20.98
35.8118040561676,3,3,3,1,-3.9,7.79,-0.27,18.21,-6.99,-19.53
35.83180403709412,3,3,3,1,-4.92,5.69,0.85,15.17,-5.04,-16.55
35.85180401802063,3,3,3,1,-5.59,5.97,2.06,13.47,-1.66,-11.21
35.87180399894714,3,3,3,1,-7.5,-2.9,-1.48,12.87,1.71,-7.36
35.89180397987366,3,3,3,1,-9.970000000000001,-4.52,1.83,16.1,8.9,-7.04
35.91180396080017,3,3,3,1,-15.93,-16.07,4.98,17.72,7.52,-4.37
35.93180394172668,3,3,3,1,-14.97,-12.83,4.05,9.359999999999999,1.03,-4.55
35.9518039226532,3,3,3,1,-12.68,-6.04,0.4,4.01,-2.17,-3.67
35.97180414199829,3,3,3,1,-9.74,1.91,-5.21,1.29,-2.13,-3.53
35.9918041229248,3,3,3,2,-12.75,0.17,5.34,5.37,-6.59,2.75
36.01280403137207,3,3,3,2,-12.06,-2.6,7.69,9.93,-12.02,4.77
36.03280401229858,3,3,3,2,-11.19,-1.01,2.41,17.22,-5.67,6.97
36.0528039932251,3,3,3,2,-10.59,6.52,-4.24,15.15,4.09,9.93
36.07280397415161,3,3,3,2,-5,11.3,-7.75,9.69,5.71,8.99
36.09280395507812,3,3,3,2,-9.529999999999999,6.32,-5.21,-0.75,8.539999999999999,9.699999999999999
36.11280393600464,3,3,3,2,-11.89,5.74,-2.61,-0.53,8.25,13.35
36.13280391693115,3,3,3,2,-11.28,1.17,-1.86,-1.87,8.19,13.26
36.15280413627625,3,3,3,1,-10.21,1.31,-1.39,2.18,7.9,12.37
36.17280411720276,3,3,3,1,-9.699999999999999,4.47,-3.06,5.03,7.55,13.5
36.19280409812927,3,3,3,1,-9.23,4.27,-3.5,2.01,7.49,13.6
36.21280407905579,3,3,3,1,-9.73,2.54,-2.63,-5.17,8.18,13.69
36.2328040599823,3,3,3,1,-10.01,1.39,-1.38,-11.16,9.32,13.76
36.25280404090881,3,3,3,1,-9.52,1.26,-0.17,-12.49,9.41,14.24
36.27280402183533,3,3,3,1,-9.130000000000001,1.67,-0.6,-12.23,9.27,14.17
36.29280400276184,3,3,3,1,-9.35,0.58,-1.45,-12.67,9.94,14.41
36.31280398368835,3,3,3,1,-9.34,-0.3,-1.76,-12.71,10.14,14.31
36.33280396461487,3,3,3,1,-9.91,-1.84,-1.56,-11.1,9.890000000000001,14.86
36.35280394554138,3,3,3,1,-10.1,-2.23,-1.34,-7.43,8.68,15.18
36.3728039264679,3,3,3,1,-10.26,0.45,-1.52,-4.85,7.46,15.02
36.39280390739441,3,3,3,0,-10.09,1.34,-1.64,-4.9,6.22,13.96
36.4128041267395,3,3,3,0,-10.56,0.29,-1.59,-5.78,4.69,12.92
36.43280410766602,3,3,3,0,-10.7,-1.19,-0.85,-8.15,4.16,11.86
36.45280408859253,3,3,3,0,-10.8,-2.46,-0.74,-11.88,4.44,10.13
36.47280406951904,3,3,3,0,-10.41,-2.69,-1.88,-13.67,3.56,7.79
36.49280405044556,3,3,3,0,-10.68,-0.59,-2.59,-10.65,1.37,6.27
36.51280403137207,3,3,3,0,-10.39,1.43,-2.69,-5.71,-0.39,5.57
36.53280401229858,3,3,3,0,-11.75,1.32,-2.86,-4.36,-0.96,6.13
36.5528039932251,3,3,3,0,-12.68,-2.12,-2.54,-3.95,-1.61,6.4
36.57280397415161,3,3,3,0,-13.22,-3.37,1.34,-2.96,-2.48,5.66
36.59280395507812,3,3,3,0,-14.69,-3.93,3.62,-5.32,-4.07,2.9
36.61280393600464,3,3,3,0,-14.32,-5.06,3.81,-10.95,-6.55,-1.91
36.63280391693115,3,3,3,0,-13.44,-2.82,1.74,-12.72,-7.53,-8.58
36.65280413627625,3,3,3,0,-13.3,2.64,-2.21,-9.630000000000001,-5.81,-13.1
36.67280411720276,3,3,3,0,-15.16,4.39,-1.82,-7.99,-3.74,-15.53
36.69280409812927,3,3,3,0,-15.18,7.58,-1.03,-8.1,-2.32,-14.88
36.71280407905579,3,3,3,0,-14.47,7.61,-1.89,-9.039999999999999,0.6899999999999999,-13.4
36.7328040599823,3,3,3,0,-11.87,7.84,-2.72,-5.53,2.15,-18.5
36.75280404090881,3,3,3,0,-10.18,6.93,-2.58,-3.38,2.08,-24.61
36.77280402183533,3,3,3,0,-8.24,6.48,-2.37,0.35,2.88,-26.35
36.79280400276184,3,3,3,0,-7.66,6.84,-2,7.14,3.21,-27.55
